Acquisition frequency: 100 Hz
PacketCounter	Acc_X	Acc_Y	Acc_Z	Gyr_X	Gyr_Y	Gyr_Z	Mag_X	Mag_Y	Mag_Z
0.0	8.225546	0.091094	5.899778	-0.003527	0.005281	0.000665	-0.289795	0.073486	-0.801758
1.0	8.244268	0.104155	5.908328	0.004049	0.003461	-0.002071	-0.291992	0.071045	-0.801758
2.0	8.209813	0.109369	5.907486	0.001628	0.006237	-0.003447	-0.294434	0.077881	-0.797363
3.0	8.17532	0.1143	5.906696	0.001319	0.004815	0.002831	-0.289795	0.071289	-0.799561
4.0	8.194189	0.127303	5.915041	0.000592	-0.001074	-0.001805	-0.290039	0.075684	-0.808838
5.0	8.228361	0.12264	5.916273	0.00294	0.00088	0.000555	-0.294434	0.077881	-0.799805
6.0	8.194084	0.127473	5.915182	-0.001029	0.00286	0.000471	-0.289795	0.071289	-0.799561
7.0	8.209035	0.109605	5.908562	0.001396	0.00517	0.001261	-0.292236	0.077881	-0.802002
8.0	8.240551	0.094375	5.932243	0.001036	0.007312	-0.001643	-0.291992	0.073486	-0.801758
9.0	8.223582	0.09199	5.902502	0.000955	0.00187	0.000513	-0.298828	0.071045	-0.806396
10.0	8.276357	0.100248	5.91246	0.001477	0.010612	-0.000895	-0.294434	0.075439	-0.797363
11.0	8.258975	0.097734	5.883305	0.000293	0.012761	0.002715	-0.290039	0.080078	-0.799805
12.0	8.221738	0.092015	5.90507	0.001918	0.013912	-0.000147	-0.289795	0.071289	-0.801758
13.0	8.218516	0.081692	5.928284	0.002436	0.017568	-0.000969	-0.287598	0.073486	-0.808838
14.0	8.203198	0.089836	5.877528	0.003309	0.013997	0.0017	-0.292236	0.077881	-0.804443
15.0	8.21908	0.092441	5.908762	0.005293	0.013007	0.001743	-0.292236	0.077881	-0.799805
16.0	8.199454	0.079728	5.901457	0.008307	0.009156	0.001316	-0.291992	0.073242	-0.799561
17.0	8.198994	0.080005	5.902093	0.005804	0.006491	0.002094	-0.294434	0.075439	-0.799561
18.0	8.200128	0.10051	5.939622	0.006319	0.005061	0.00186	-0.289795	0.073486	-0.804199
19.0	8.204357	0.121663	5.896299	0.005289	0.007921	0.002329	-0.292236	0.075684	-0.799561
20.0	8.236535	0.096689	5.861248	0.004853	0.009707	0.000993	-0.287598	0.073486	-0.806396
21.0	8.286856	0.094497	5.893382	0.003819	0.007481	0.00205	-0.294434	0.073242	-0.804199
22.0	8.271058	0.112387	5.901147	0.006684	0.013092	0.003588	-0.294678	0.080078	-0.804443
23.0	8.302874	0.087421	5.866638	0.008671	0.017188	0.003042	-0.289551	0.068848	-0.799316
24.0	8.299573	0.077131	5.889948	0.005732	0.016309	0.002485	-0.294678	0.080078	-0.806641
25.0	8.277173	0.054194	5.905211	0.012879	0.02136	-0.002168	-0.292236	0.075684	-0.797363
26.0	8.278183	0.065205	5.885128	0.00808	0.023351	0.004254	-0.290039	0.075684	-0.806641
27.0	8.223705	0.057288	5.87747	0.010142	0.022716	0.002728	-0.291992	0.073486	-0.808838
28.0	8.224892	0.068201	5.85715	0.010732	0.016554	0.001515	-0.287598	0.075684	-0.794922
29.0	8.167573	0.059963	5.929774	0.011246	0.015124	0.001281	-0.289795	0.073486	-0.799561
30.0	8.188171	0.083833	5.917047	0.008224	0.008803	0.002884	-0.285156	0.071289	-0.797119
31.0	8.171029	0.08159	5.887615	0.009693	0.009243	0.003163	-0.291992	0.073486	-0.806396
32.0	8.150628	0.078854	5.93904	0.008819	0.007727	0.001081	-0.287842	0.077881	-0.790527
33.0	8.167978	0.071701	5.91051	0.004763	-0.000819	0.003743	-0.294434	0.073486	-0.806396
34.0	8.204513	0.077336	5.889902	0.00909	0.000147	0.006149	-0.291992	0.073486	-0.806396
35.0	8.221113	0.080157	5.920073	0.011313	0.000219	0.001486	-0.291992	0.071289	-0.806396
36.0	8.223285	0.091063	5.898383	0.009254	0.005942	0.002416	-0.287842	0.077881	-0.802002
37.0	8.220593	0.080888	5.920785	0.009174	0.005588	0.003986	-0.294189	0.071045	-0.801758
38.0	8.235283	0.063206	5.914627	0.008584	0.011751	0.005194	-0.287598	0.071289	-0.799561
39.0	8.221945	0.091569	5.900244	0.009094	0.005234	0.005555	-0.294434	0.073242	-0.801758
40.0	8.234617	0.063409	5.915551	0.009169	0.000502	0.00458	-0.291992	0.073242	-0.797119
41.0	8.234516	0.06375	5.915689	0.008894	0.002994	0.000102	-0.294434	0.073242	-0.804199
42.0	8.236695	0.074608	5.893999	0.01306	0.003253	0.005647	-0.291992	0.071289	-0.806396
43.0	8.219058	0.082293	5.922897	0.011152	-0.000489	0.004626	-0.291992	0.068848	-0.801758
44.0	8.203701	0.100412	5.929966	0.010642	0.006029	0.004262	-0.289795	0.073486	-0.811279
45.0	8.190626	0.128886	5.915206	0.011511	0.00246	0.006938	-0.2854	0.073486	-0.806396
46.0	8.1866	0.098245	5.900491	0.013499	0.006555	0.006388	-0.287598	0.075684	-0.802002
47.0	8.202838	0.101017	5.931149	0.010561	0.005676	0.005831	-0.292236	0.075684	-0.806641
48.0	8.223764	0.124728	5.917986	0.011676	0.008253	0.003201	-0.292236	0.075684	-0.802002
49.0	8.236018	0.096576	5.93388	0.008423	0.011047	0.008326	-0.292236	0.077881	-0.802002
50.0	8.237705	0.107118	5.912889	0.007356	0.012372	0.000198	-0.287842	0.077881	-0.806641
51.0	8.219502	0.115135	5.942531	0.010448	0.008872	-0.001788	-0.287354	0.069092	-0.801758
52.0	8.216459	0.105252	5.965385	0.005372	0.013364	0.000149	-0.291992	0.073486	-0.806396
53.0	8.230954	0.087693	5.959523	0.00632	0.010149	0.001257	-0.287598	0.073486	-0.801758
54.0	8.168355	0.138882	5.950407	0.004846	0.004622	0.001577	-0.291992	0.071289	-0.804199
55.0	8.180709	0.110741	5.966159	0.002868	0.0107	0.00093	-0.287598	0.073486	-0.799561
56.0	8.167335	0.139098	5.951802	-0.000942	0.008301	-0.001707	-0.291992	0.073242	-0.797119
57.0	8.164447	0.128764	5.974431	-0.000943	0.008301	-0.001707	-0.287598	0.071289	-0.806396
58.0	8.149822	0.136711	5.922917	-0.000428	0.00687	-0.001938	-0.292236	0.077881	-0.799805
59.0	8.147084	0.126352	5.945337	-0.001463	0.004646	-0.000878	-0.289795	0.073486	-0.804199
60.0	8.196286	0.103674	5.940154	0.001469	0.00044	0.000279	-0.287598	0.071289	-0.806396
61.0	8.213923	0.096267	5.911332	-0.000954	-0.001871	-0.00051	-0.290039	0.075684	-0.804199
62.0	8.232966	0.109384	5.919444	-0.000792	-0.001166	-0.00365	-0.292236	0.075684	-0.799561
63.0	8.245642	0.081335	5.934756	8.7e-05	0.005439	-0.002169	-0.287842	0.077881	-0.802002
64.0	8.232469	0.109761	5.920128	-0.000428	0.00687	-0.001938	-0.290039	0.080078	-0.797363
65.0	8.231786	0.109916	5.921075	-0.004742	0.016076	-0.005543	-0.292236	0.075684	-0.802002
66.0	8.230912	0.109778	5.922292	-0.001778	0.013408	0.004204	-0.290039	0.075684	-0.806641
67.0	8.20896	0.086202	5.936829	-0.000428	0.006871	-0.001939	-0.2854	0.075684	-0.797363
68.0	8.193495	0.104123	5.943996	0.000954	0.001871	0.00051	-0.287842	0.077881	-0.802002
69.0	8.174532	0.091157	5.935766	0.000515	-0.001431	-0.000231	-0.287842	0.077881	-0.799805
70.0	8.180657	0.132521	5.928904	0.001035	0.002224	-0.00106	-0.289795	0.075684	-0.799561
71.0	8.190792	0.093909	5.96635	-0.00051	0.006518	-0.000369	-0.292236	0.080078	-0.797363
72.0	8.19423	0.124769	5.981824	0.001907	0.003743	0.00102	-0.2854	0.073486	-0.804199
73.0	8.192468	0.104474	5.945405	9.2e-05	0.010526	-0.002769	-0.287842	0.077881	-0.813721
74.0	8.19068	0.084087	5.909032	0.00131	0.004821	0.00282	-0.287598	0.073486	-0.799561
75.0	8.209407	0.097115	5.917588	0.002504	0.002664	-0.000781	-0.2854	0.075684	-0.802002
76.0	8.224496	0.079469	5.910947	0.004405	0.001321	0.000838	-0.290039	0.077881	-0.804443
77.0	8.225716	0.099999	5.948096	0.003809	0.002399	0.002639	-0.291992	0.073486	-0.804199
78.0	8.204108	0.076644	5.962137	0.004329	0.006054	0.001808	-0.287842	0.080078	-0.804443
79.0	8.208576	0.097583	5.918733	0.004329	0.006055	0.001808	-0.2854	0.075684	-0.806641
80.0	8.208153	0.097765	5.919316	0.005364	0.008279	0.000748	-0.2854	0.075684	-0.804199
81.0	8.185154	0.084418	5.992703	0.002702	0.009996	0.004068	-0.287598	0.073486	-0.799561
82.0	8.157748	0.120677	5.926089	0.004574	0.007112	-0.002902	-0.287598	0.075684	-0.804199
83.0	8.204268	0.087814	5.943288	0.002345	0.007046	0.001758	-0.290039	0.075684	-0.806641
84.0	8.154491	0.110547	5.949181	0.000959	0.006958	-9.1e-05	-0.287598	0.073486	-0.797119
85.0	8.166947	0.082399	5.964792	0.001989	0.004096	-0.000551	-0.287598	0.075684	-0.797363
86.0	8.169125	0.092939	5.943178	0.003375	0.004183	0.001299	-0.291992	0.068848	-0.803955
87.0	8.187943	0.105951	5.951609	0.001386	8.8e-05	0.00185	-0.291992	0.071045	-0.797119
88.0	8.164228	0.07208	5.987142	0.003802	-0.002687	0.00324	-0.287842	0.080078	-0.804443
89.0	8.20072	0.077639	5.966782	0.00286	0.005615	0.001528	-0.291992	0.073242	-0.799561
90.0	8.186362	0.085717	5.914989	0.002668	0.003369	-0.003921	-0.290039	0.075684	-0.804199
91.0	8.234358	0.073213	5.96896	0.001309	0.004822	0.002818	-0.287598	0.075684	-0.804199
92.0	8.217731	0.0706	5.938906	0.001983	-0.000991	5e-05	-0.287842	0.077881	-0.802002
93.0	8.199932	0.078225	5.967858	0.00441	0.006407	0.000237	-0.294434	0.077881	-0.802002
94.0	8.233672	0.073558	5.969903	0.002427	0.007399	0.000187	-0.287842	0.077881	-0.804443
95.0	8.195291	0.047694	5.954064	0.00338	0.00927	0.000696	-0.290283	0.082275	-0.802246
96.0	8.166694	0.093891	5.946503	0.007104	0.011318	0.004905	-0.287598	0.075684	-0.802002
97.0	8.159848	0.052755	5.954349	0.005801	0.011582	0.001485	-0.287842	0.077881	-0.804443
98.0	8.14395	0.070546	5.962061	0.004955	0.011605	0.007994	-0.287598	0.073486	-0.799561
99.0	8.10806	0.054872	5.924196	0.008211	0.003721	0.003479	-0.287842	0.077881	-0.797363
100.0	8.143329	0.070602	5.962908	0.010028	0.002025	0.00667	-0.289795	0.075684	-0.799561
101.0	8.124338	0.057584	5.954711	0.008992	-0.000199	0.007731	-0.287842	0.077881	-0.799805
102.0	8.143327	0.070546	5.962912	0.010975	-0.00119	0.007781	-0.292236	0.075684	-0.799561
103.0	8.16111	0.063084	5.934015	0.010022	-0.003061	0.007272	-0.287598	0.075684	-0.799561
104.0	8.181427	0.096608	5.979142	0.010543	0.000594	0.006439	-0.290039	0.075684	-0.808838
105.0	8.214328	0.071218	5.943604	0.009424	-0.001981	0.009071	-0.294434	0.077881	-0.802002
106.0	8.216788	0.081722	5.921626	0.012177	0.001737	0.003578	-0.281006	0.080078	-0.806885
107.0	8.214184	0.071398	5.943802	0.00598	0.003658	0.008135	-0.285645	0.080078	-0.809082
108.0	8.245703	0.056041	5.967514	0.011496	0.002466	0.006946	-0.289795	0.073486	-0.806396
109.0	8.197286	0.068778	5.914138	0.009081	0.005241	0.005553	-0.287842	0.077881	-0.802002
110.0	8.213504	0.071537	5.944738	0.011064	0.004249	0.005604	-0.2854	0.073486	-0.799561
111.0	8.196751	0.069178	5.914875	0.011147	0.0046	0.004034	-0.287842	0.080078	-0.799805
112.0	8.213078	0.071927	5.945323	0.007091	0.001146	0.006107	-0.287598	0.075684	-0.804199
113.0	8.215304	0.082529	5.923674	0.010799	0.006734	0.001121	-0.283203	0.075684	-0.799561
114.0	8.214738	0.082686	5.924456	0.007893	0.01249	0.008542	-0.290039	0.077881	-0.806641
115.0	8.195163	0.069701	5.91707	0.008218	0.008807	0.002868	-0.290039	0.077881	-0.795166
116.0	8.192178	0.059591	5.939754	0.008218	0.008807	0.002867	-0.287598	0.075684	-0.797363
117.0	8.17657	0.077681	5.947048	0.007695	0.005152	0.003702	-0.291992	0.073242	-0.799561
118.0	8.188939	0.049634	5.962782	0.007264	0.006935	0.00236	-0.290039	0.077881	-0.799805
119.0	8.194753	0.091145	5.95635	0.00588	0.006846	0.00051	-0.296875	0.077637	-0.797363
120.0	8.175431	0.078259	5.948607	0.005629	0.005794	0.00522	-0.287842	0.080078	-0.804443
121.0	8.190223	0.060422	5.942442	0.003898	0.007838	0.000458	-0.291992	0.073486	-0.801758
122.0	8.170789	0.047464	5.934854	0.003216	0.008569	0.003825	-0.287598	0.075684	-0.804199
123.0	8.189333	0.060508	5.943667	0.00631	0.005063	0.001852	-0.287598	0.075684	-0.799561
124.0	8.191498	0.071028	5.922126	0.001476	0.005526	-0.000329	-0.287598	0.075684	-0.799561
125.0	8.188797	0.060708	5.944404	0.002337	0.001961	0.002357	-0.290283	0.082275	-0.804443
126.0	8.188602	0.06076	5.944671	0.004843	0.004624	0.001573	-0.290039	0.080078	-0.804443
127.0	8.188395	0.060845	5.944956	0.003805	0.002401	0.002636	-0.290039	0.080078	-0.799805
128.0	8.202265	0.053211	5.997315	0.005787	0.001409	0.002689	-0.287598	0.075684	-0.797363
129.0	8.188146	0.060992	5.945297	-0.000945	0.003214	-0.001116	-0.287598	0.075684	-0.794922
130.0	8.203095	0.043228	5.938927	0.00631	0.005063	0.001852	-0.289795	0.075684	-0.794922
131.0	8.185048	0.051075	5.96811	0.007348	0.007286	0.000788	-0.289795	0.075684	-0.799561
132.0	8.184749	0.051334	5.968518	0.003889	0.002752	0.001066	-0.290039	0.077881	-0.804443
133.0	8.180851	0.020679	5.953755	0.007339	0.002199	0.001398	-0.2854	0.075684	-0.804199
134.0	8.167977	0.049368	5.938707	0.010358	0.003429	0.000387	-0.281006	0.075684	-0.799561
135.0	8.170395	0.060141	5.916825	0.008283	-0.001015	0.002515	-0.285645	0.080078	-0.804443
136.0	8.184457	0.052549	5.968907	0.00803	-0.002064	0.007225	-0.287842	0.080078	-0.802002
137.0	8.218528	0.047791	5.970564	0.00976	0.004511	0.002183	-0.287842	0.080078	-0.802002
138.0	8.201864	0.045679	5.940609	0.01234	0.002437	0.000439	-0.2854	0.077881	-0.802002
139.0	8.23322	0.03091	5.964556	0.010114	0.007466	0.004485	-0.2854	0.073486	-0.806396
140.0	8.202368	0.067083	5.978569	0.010283	0.008166	0.001344	-0.285645	0.080078	-0.804443
141.0	8.185441	0.064848	5.94898	0.010198	0.007816	0.002914	-0.292236	0.075684	-0.799561
142.0	8.22164	0.070532	5.929173	0.008646	0.007027	0.004205	-0.287842	0.077881	-0.804443
143.0	8.199586	0.047382	5.94374	0.008141	0.013546	0.003818	-0.289795	0.073486	-0.804199
144.0	8.162165	0.04208	5.965212	0.005206	0.012666	0.003258	-0.290039	0.077881	-0.806641
145.0	8.185309	0.075986	5.930615	0.009777	0.014684	0.000956	-0.287598	0.075684	-0.802002
146.0	8.165674	0.063435	5.923303	0.00545	0.008628	-0.00084	-0.294434	0.077881	-0.802002
147.0	8.150155	0.081956	5.930408	0.009574	0.002255	-0.003259	-0.287842	0.077881	-0.804443
148.0	8.179037	0.057241	5.976289	0.010013	0.005559	-0.002529	-0.287842	0.080078	-0.804443
149.0	8.196535	0.050365	5.947922	0.008021	0.001466	-0.001969	-0.289795	0.075684	-0.802002
150.0	8.193922	0.040728	5.970044	0.009489	0.001906	-0.001689	-0.287842	0.077881	-0.804443
151.0	8.246911	0.049431	5.980024	0.007936	0.001117	-0.000398	-0.289795	0.075684	-0.799561
152.0	8.196234	0.052119	5.948322	0.007422	0.002549	-0.000173	-0.287842	0.077881	-0.806641
153.0	8.211135	0.034846	5.942073	0.010965	0.007432	-0.002026	-0.287842	0.080078	-0.804443
154.0	8.19552	0.053218	5.949296	0.007175	0.00659	0.003923	-0.287598	0.073486	-0.799561
155.0	8.193988	0.03301	5.912818	0.010441	0.003778	-0.001185	-0.290039	0.077881	-0.795166
156.0	8.215303	0.057041	5.899273	0.012852	0.001005	0.000215	-0.283203	0.077881	-0.804443
157.0	8.194981	0.055053	5.950022	0.01087	0.001998	0.00016	-0.290039	0.077881	-0.802002
158.0	8.160713	0.060659	5.948581	0.010955	0.002346	-0.001411	-0.287598	0.075684	-0.806641
159.0	8.194766	0.056514	5.950304	0.010002	0.000473	-0.001915	-0.290039	0.077881	-0.804443
160.0	8.179614	0.075039	5.956869	0.008879	-0.002096	0.000722	-0.287598	0.073486	-0.804199
161.0	8.160801	0.062497	5.948441	0.008879	-0.002096	0.000722	-0.290039	0.075684	-0.804199
162.0	8.173651	0.034792	5.963571	0.009393	-0.003528	0.000498	-0.287598	0.075684	-0.804199
163.0	8.176396	0.045715	5.941251	0.01146	-0.004173	-0.001019	-0.289795	0.075684	-0.799561
164.0	8.191917	0.028386	5.934171	0.011719	-0.006649	0.003469	-0.292236	0.075684	-0.799561
165.0	8.193548	0.049612	5.97049	0.015252	-0.006852	0.002231	-0.287598	0.075684	-0.802002
166.0	8.217978	0.083854	5.934074	0.015681	-0.008632	0.003577	-0.283203	0.077881	-0.806641
167.0	8.227391	0.025373	5.933924	0.013784	-0.007293	0.001951	-0.290039	0.077881	-0.806641
168.0	8.216354	0.074994	5.954837	0.015336	-0.006505	0.000658	-0.290039	0.075684	-0.806641
169.0	8.219285	0.085948	5.932234	0.013699	-0.007639	0.003521	-0.289795	0.071289	-0.799561
170.0	8.217059	0.076338	5.953847	0.01526	-0.001766	0.001608	-0.287598	0.075684	-0.808838
171.0	8.198307	0.063887	5.945349	0.014053	-0.00468	0.005818	-0.287598	0.071289	-0.804199
172.0	8.2048	0.105522	5.93785	0.012241	-0.002994	0.002622	-0.292236	0.075684	-0.802002
173.0	8.213874	0.047071	5.938201	0.013877	-0.00186	-0.000242	-0.2854	0.073486	-0.801758
174.0	8.17977	0.052674	5.936549	0.014147	0.000753	0.003625	-0.289795	0.073486	-0.799561
175.0	8.198624	0.066316	5.944886	0.012335	0.002438	0.000429	-0.289795	0.073486	-0.804199
176.0	8.185855	0.095301	5.929584	0.016297	0.000454	0.000537	-0.291992	0.073486	-0.804199
177.0	8.180864	0.075587	5.973584	0.011811	-0.001214	0.001274	-0.289795	0.073486	-0.804199
178.0	8.182106	0.065613	5.914736	0.012165	0.001746	0.003569	-0.2854	0.077881	-0.806641
179.0	8.169445	0.094502	5.899276	0.017324	-0.002411	8.9e-05	-0.289795	0.073486	-0.799561
180.0	8.198571	0.070111	5.944915	0.017249	0.002328	0.001036	-0.29248	0.082275	-0.797607
181.0	8.22	0.094287	5.931115	0.015343	-0.001419	3.4e-05	-0.287598	0.073486	-0.804199
182.0	8.198526	0.07186	5.944956	0.018546	0.002078	0.004454	-0.287842	0.077881	-0.804443
183.0	8.22247	0.106073	5.909112	0.018106	-0.001229	0.00373	-0.290039	0.080078	-0.802002
184.0	8.201051	0.083348	5.922884	0.013975	6.5e-05	0.006763	-0.289795	0.075684	-0.802002
185.0	8.235134	0.079005	5.924562	0.015781	0.001887	0.000755	-0.289795	0.075684	-0.799561
186.0	8.217242	0.087279	5.953444	0.0139	0.004805	0.007708	-0.290039	0.077881	-0.799805
187.0	8.216938	0.087866	5.953855	0.016305	0.005539	-9.4e-05	-0.289795	0.073486	-0.804199
188.0	8.221658	0.10914	5.910186	0.014753	0.004753	0.001199	-0.291992	0.073486	-0.804199
189.0	8.163276	0.081378	5.944815	0.013286	0.004312	0.000922	-0.290039	0.075684	-0.813477
190.0	8.199742	0.087411	5.924638	0.017161	0.001983	0.002602	-0.285156	0.071289	-0.801758
191.0	8.180677	0.07518	5.916599	0.017161	0.001984	0.002602	-0.292236	0.075684	-0.799561
192.0	8.203288	0.119943	5.939665	0.017076	0.001639	0.004173	-0.287842	0.077881	-0.799805
193.0	8.165457	0.094484	5.923188	0.015598	-0.003886	0.004525	-0.287598	0.071289	-0.804199
194.0	8.197327	0.080028	5.946505	0.019044	-0.004437	0.004856	-0.292236	0.075684	-0.799561
195.0	8.202568	0.100993	5.902107	0.015084	-0.002452	0.004745	-0.285156	0.069092	-0.806396
196.0	8.217873	0.083595	5.895375	0.018017	-0.00157	0.005298	-0.291992	0.073486	-0.801758
197.0	8.202814	0.102088	5.901747	0.016465	-0.002355	0.006592	-0.289795	0.075684	-0.794922
198.0	8.240794	0.128737	5.917979	0.017588	0.000207	0.003946	-0.290039	0.080078	-0.806641
199.0	8.252101	0.080392	5.896846	0.017942	0.003171	0.006236	-0.294678	0.080078	-0.799805
200.0	8.236707	0.099073	5.903677	0.019579	0.004299	0.003368	-0.289795	0.073486	-0.797119
201.0	8.270663	0.094757	5.905543	0.013542	0.001849	0.005407	-0.287598	0.073486	-0.806396
202.0	8.219878	0.097129	5.873983	0.01683	0.005695	0.008248	-0.287598	0.075684	-0.802002
203.0	8.233503	0.090515	5.926663	0.018197	0.004201	0.001519	-0.294434	0.075439	-0.797363
204.0	8.216734	0.088445	5.896892	0.019932	0.007264	0.005655	-0.287598	0.073486	-0.804199
205.0	8.180987	0.104746	5.954535	0.017427	0.004606	0.006453	-0.287598	0.073486	-0.804199
206.0	8.164343	0.102299	5.924594	0.017854	0.002831	0.007804	-0.287842	0.077881	-0.802002
207.0	8.164257	0.102835	5.924703	0.018965	0.000306	0.005791	-0.294189	0.071045	-0.804199
208.0	8.198431	0.098533	5.926278	0.018011	-0.001568	0.005295	-0.289795	0.075684	-0.799561
209.0	8.166971	0.114252	5.902352	0.018524	-0.003001	0.005075	-0.291992	0.071045	-0.801758
210.0	8.198716	0.099591	5.925866	0.015775	-0.001601	0.009953	-0.285156	0.071289	-0.799561
211.0	8.198862	0.100026	5.925657	0.017142	-0.0031	0.003226	-0.287842	0.077881	-0.802002
212.0	8.235673	0.105768	5.905002	0.019305	-0.00181	0.008711	-0.285156	0.071289	-0.804199
213.0	8.25213	0.109189	5.935183	0.016984	0.0013	0.005731	-0.289795	0.071289	-0.801758
214.0	8.220447	0.124772	5.911561	0.019831	0.001841	0.007852	-0.292236	0.075684	-0.799561
215.0	8.217719	0.115227	5.933906	0.018891	0.00505	0.006718	-0.287598	0.073486	-0.797119
216.0	8.211198	0.074645	5.94162	0.016983	0.001301	0.005729	-0.291992	0.071045	-0.801758
217.0	8.235096	0.108433	5.905759	0.019403	0.003616	0.006498	-0.287598	0.075684	-0.799561
218.0	8.183158	0.121834	5.932819	0.01405	0.000419	0.005179	-0.290039	0.075684	-0.804199
219.0	8.210997	0.076385	5.941874	0.020071	-0.002219	0.003774	-0.289795	0.075684	-0.802002
220.0	8.202262	0.13626	5.94073	0.017494	-0.000132	0.005508	-0.291992	0.071045	-0.799561
221.0	8.201081	0.115746	5.903903	0.014988	-0.002788	0.006312	-0.289795	0.071289	-0.799561
222.0	8.237779	0.121166	5.88341	0.014917	0.001955	0.007241	-0.292236	0.077881	-0.811279
223.0	8.219991	0.129374	5.912096	0.013451	0.001514	0.006967	-0.291992	0.071045	-0.799561
224.0	8.235053	0.111644	5.905759	0.013536	0.001854	0.005394	-0.285156	0.066895	-0.799316
225.0	8.232408	0.101946	5.927999	0.013536	0.001854	0.005394	-0.287842	0.077881	-0.799805
226.0	8.253778	0.125376	5.914208	0.013024	0.003288	0.005612	-0.287842	0.077881	-0.797363
227.0	8.264918	0.076587	5.89345	0.013024	0.003289	0.005611	-0.291992	0.073486	-0.801758
228.0	8.214181	0.111019	5.957271	0.010349	0.003425	0.000347	-0.2854	0.075684	-0.802002
229.0	8.193572	0.077521	5.912978	0.011745	0.00861	0.001548	-0.294434	0.073242	-0.799561
230.0	8.214621	0.101009	5.899634	0.010107	0.00749	0.004418	-0.289795	0.071289	-0.799561
231.0	8.21553	0.122398	5.936793	0.011217	0.004961	0.00241	-0.287598	0.071289	-0.801758
232.0	8.196501	0.109839	5.928749	0.012224	-0.00299	0.002621	-0.289795	0.073486	-0.797119
233.0	8.216899	0.11229	5.877879	0.011626	-0.001894	0.00441	-0.289795	0.071045	-0.797119
234.0	8.218276	0.133575	5.914387	0.008182	-0.001342	0.004079	-0.287598	0.075684	-0.799561
235.0	8.230906	0.10579	5.930017	0.014046	0.000422	0.005174	-0.2854	0.077881	-0.797363
236.0	8.233394	0.116112	5.907986	0.007244	0.001866	0.002941	-0.289795	0.073486	-0.801758
237.0	8.196437	0.11139	5.928808	0.008813	0.007728	0.000996	-0.291992	0.071045	-0.797119
238.0	8.216357	0.113752	5.87861	0.006818	0.003639	0.001586	-0.292236	0.080078	-0.795166
239.0	8.211011	0.094083	5.923165	0.00837	0.004418	0.000288	-0.285156	0.069092	-0.801758
240.0	8.213329	0.104473	5.901372	0.006818	0.003639	0.001586	-0.287598	0.073486	-0.799561
241.0	8.214432	0.125878	5.93824	0.00595	0.002102	-0.000477	-0.290039	0.075684	-0.804199
242.0	8.211692	0.116177	5.960604	0.000615	0.003986	-0.002437	-0.282959	0.069092	-0.803955
243.0	8.19509	0.113421	5.930632	0.00733	0.002205	0.001369	-0.289551	0.068848	-0.801758
244.0	8.195099	0.113697	5.930613	0.00111	-0.00253	-0.002006	-0.2854	0.077881	-0.804443
245.0	8.212873	0.106009	5.901978	0.003616	0.000124	-0.002814	-0.292236	0.077881	-0.806641
246.0	8.225484	0.078458	5.917648	0.005594	-0.000869	-0.002757	-0.291992	0.073486	-0.804199
247.0	8.193948	0.093889	5.893792	0.00353	-0.000214	-0.001241	-0.287842	0.077881	-0.799805
248.0	8.228028	0.089222	5.895536	0.004484	0.001661	-0.000751	-0.292236	0.080078	-0.802002
249.0	8.229183	0.110665	5.932319	0.00595	0.002102	-0.000477	-0.290039	0.075684	-0.804199
250.0	8.208842	0.076815	5.887722	0.004398	0.001323	0.000821	-0.292236	0.075684	-0.799561
251.0	8.210031	0.098095	5.924458	0.004398	0.001323	0.000821	-0.282959	0.073486	-0.801758
252.0	8.196171	0.105395	5.872111	0.004128	-0.00131	-0.00303	-0.290039	0.080078	-0.797363
253.0	8.206332	0.067757	5.909767	0.005933	-0.00298	0.000171	-0.294434	0.077881	-0.804443
254.0	8.191358	0.086134	5.915926	0.005933	-0.00298	0.000171	-0.289795	0.073486	-0.804199
255.0	8.210477	0.099438	5.923818	0.005335	-0.001883	0.00196	-0.292236	0.075684	-0.804199
256.0	8.19165	0.086661	5.915514	0.004553	-0.003083	-0.001675	-0.291992	0.071045	-0.801758
257.0	8.189104	0.076936	5.937622	0.003886	0.002758	0.001037	-0.287598	0.073486	-0.801758
258.0	8.204237	0.059235	5.931236	0.007485	-0.002201	-0.001128	-0.287598	0.073486	-0.799561
259.0	8.206858	0.069587	5.909015	0.006289	-7e-06	0.00245	-0.289795	0.071045	-0.797119
260.0	8.223473	0.072817	5.93896	0.006784	-0.006524	0.002883	-0.290039	0.075684	-0.804199
261.0	8.204834	0.059967	5.930403	0.006358	-0.004752	0.001527	-0.289795	0.075684	-0.797363
262.0	8.224103	0.073211	5.938083	0.006272	-0.005089	0.003099	-0.294434	0.075684	-0.804199
263.0	8.211681	0.101517	5.922113	0.008352	-0.000663	0.000933	-0.287598	0.071289	-0.801758
264.0	8.192821	0.088733	5.913861	0.007226	-0.003213	0.003588	-0.299072	0.077637	-0.802002
265.0	8.206768	0.082068	5.966099	0.007841	0.000772	0.001149	-0.289795	0.073486	-0.799561
266.0	8.211911	0.102427	5.921778	0.010243	-0.001993	0.002562	-0.289795	0.071289	-0.799561
267.0	8.195646	0.099736	5.891336	0.012135	-0.003324	0.004191	-0.298828	0.073242	-0.801758
268.0	8.193366	0.090156	5.913084	0.006955	-0.005849	-0.000261	-0.294434	0.073486	-0.806396
269.0	8.210161	0.093501	5.942785	0.008162	-0.006419	0.004728	-0.294189	0.071045	-0.797119
270.0	8.209161	0.072481	5.90578	0.007225	-0.003213	0.003588	-0.287598	0.075684	-0.802002
271.0	8.228335	0.085674	5.913583	0.007225	-0.003213	0.003588	-0.2854	0.075684	-0.804199
272.0	8.231022	0.095789	5.891252	0.00818	-0.001337	0.004076	-0.291992	0.073242	-0.790283
273.0	8.224715	0.054881	5.898809	0.0068	-0.001441	0.002231	-0.298828	0.071045	-0.804199
274.0	8.228669	0.086117	5.913113	0.005248	-0.002219	0.003531	-0.289795	0.075684	-0.802002
275.0	8.209793	0.07314	5.904894	0.00818	-0.001337	0.004076	-0.292236	0.075684	-0.797363
276.0	8.229002	0.086424	5.912645	0.006868	-0.006186	0.001311	-0.298828	0.075439	-0.799561
277.0	8.260814	0.071651	5.936128	0.006714	-0.001778	0.003803	-0.292236	0.077881	-0.799805
278.0	8.226811	0.076667	5.934287	0.006628	-0.002114	0.005375	-0.292236	0.075684	-0.802002
279.0	8.206613	0.042531	5.889507	0.009645	-0.000896	0.004347	-0.290039	0.077881	-0.797363
280.0	8.194063	0.070643	5.873697	0.007582	-0.000238	0.005863	-0.294434	0.073242	-0.799561
281.0	8.210569	0.073888	5.903806	0.011622	-0.001889	0.004403	-0.296631	0.075439	-0.804199
282.0	8.195517	0.092067	5.910075	0.006116	-0.000679	0.00559	-0.289795	0.073486	-0.799561
283.0	8.251174	0.110175	5.897662	0.00922	0.000875	0.002989	-0.289795	0.075684	-0.799561
284.0	8.215769	0.094128	5.859367	0.009472	-0.001568	0.007491	-0.289795	0.075684	-0.802002
285.0	8.248764	0.100252	5.919614	0.008006	-0.002009	0.007219	-0.292236	0.075684	-0.799561
286.0	8.229791	0.087159	5.911535	0.007157	0.001533	0.004504	-0.292236	0.075684	-0.799561
287.0	8.229813	0.08716	5.911505	0.006626	-0.002113	0.005374	-0.294434	0.077881	-0.804443
288.0	8.247655	0.07885	5.882753	0.003609	-0.003331	0.006403	-0.294434	0.075439	-0.799561
289.0	8.246563	0.089972	5.941282	0.009558	-0.001232	0.005918	-0.291992	0.073242	-0.799561
290.0	8.232751	0.096915	5.888818	0.008178	-0.001337	0.004073	-0.289795	0.073486	-0.797119
291.0	8.211265	0.0742	5.902834	0.00835	-0.000665	0.000928	-0.291992	0.073486	-0.801758
292.0	8.264441	0.082517	5.912467	0.008178	-0.001336	0.004073	-0.289795	0.075684	-0.802002
293.0	8.213906	0.08461	5.880548	0.007754	0.000434	0.002715	-0.296631	0.073242	-0.804199
294.0	8.213932	0.08468	5.880511	0.00327	-0.001224	0.003473	-0.294434	0.077881	-0.811279
295.0	8.214013	0.084742	5.880397	0.006798	-0.001442	0.002229	-0.291992	0.071045	-0.799561
296.0	8.211548	0.075026	5.902429	0.006798	-0.001442	0.002229	-0.292236	0.077881	-0.799805
297.0	8.252184	0.111288	5.896228	0.006798	-0.001442	0.002229	-0.294434	0.075439	-0.799561
298.0	8.216717	0.095372	5.858017	0.007329	0.002204	0.001357	-0.292236	0.080078	-0.802002
299.0	8.248136	0.080613	5.882055	0.005267	0.002863	0.002873	-0.290039	0.077881	-0.809082
300.0	8.264328	0.084027	5.912602	0.00648	0.005744	-0.001359	-0.287842	0.082275	-0.802246
301.0	8.26279	0.063376	5.876339	0.008012	0.00144	-0.002003	-0.292236	0.077881	-0.795166
302.0	8.247523	0.08195	5.882895	0.005439	0.003534	-0.000272	-0.291992	0.073486	-0.801758
303.0	8.267611	0.083976	5.832417	0.004397	0.001323	0.000814	-0.291992	0.073486	-0.806396
304.0	8.262398	0.064387	5.876879	0.007329	0.002205	0.001357	-0.296631	0.073242	-0.797119
305.0	8.22807	0.06972	5.875486	0.004928	0.004969	-5.8e-05	-0.287598	0.073486	-0.804199
306.0	8.227717	0.069868	5.875978	0.002355	0.007063	0.001672	-0.292236	0.077881	-0.795166
307.0	8.242475	0.05208	5.870135	0.011301	0.005297	0.000813	-0.289795	0.073486	-0.797119
308.0	8.209357	0.078782	5.905427	0.007773	0.005516	0.002057	-0.289795	0.075684	-0.799561
309.0	8.210394	0.067852	5.847007	0.01077	0.001652	0.001685	-0.290039	0.075684	-0.806641
310.0	8.244483	0.063276	5.848737	0.008349	-0.000665	0.000928	-0.291992	0.073242	-0.797119
311.0	8.192735	0.07683	5.875472	0.008263	-0.001	0.002501	-0.294434	0.073242	-0.797119
312.0	8.245961	0.0851	5.88504	0.008686	-0.002769	0.003859	-0.292236	0.077881	-0.797363
313.0	8.261246	0.0672	5.878467	0.008686	-0.002769	0.003859	-0.292236	0.077881	-0.804443
314.0	8.227337	0.072448	5.876479	0.009197	-0.004204	0.003645	-0.296631	0.075439	-0.804199
315.0	8.246605	0.085873	5.884126	0.011259	-0.004864	0.002129	-0.289795	0.073486	-0.799561
316.0	8.240454	0.045166	5.891522	0.013931	-0.004984	0.007389	-0.291992	0.068848	-0.797119
317.0	8.2597	0.058483	5.8992	0.013507	-0.003215	0.00603	-0.292236	0.077881	-0.799805
318.0	8.243389	0.055465	5.86882	0.010934	-0.001119	0.007759	-0.287598	0.071289	-0.797119
319.0	8.259909	0.058795	5.898905	0.014462	-0.001339	0.006513	-0.294434	0.075684	-0.804199
320.0	8.191667	0.069214	5.895534	0.013528	0.001865	0.005367	-0.289795	0.073486	-0.806396
321.0	8.228387	0.074382	5.874985	0.013505	-0.003215	0.006029	-0.296875	0.077637	-0.797363
322.0	8.197006	0.089446	5.850871	0.012822	-0.002446	0.009387	-0.294434	0.075684	-0.802002
323.0	8.213707	0.092782	5.880703	0.015904	-0.005978	0.007444	-0.298828	0.073242	-0.801758
324.0	8.212679	0.071781	5.843751	0.015394	-0.004542	0.007657	-0.29248	0.082275	-0.802246
325.0	8.245879	0.078492	5.903701	0.017369	-0.005536	0.007713	-0.301025	0.071045	-0.799561
326.0	8.246128	0.078834	5.903349	0.016349	-0.002665	0.008139	-0.290039	0.077881	-0.797363
327.0	8.243691	0.069279	5.925359	0.01446	-0.001338	0.006509	-0.298828	0.073242	-0.801758
328.0	8.21732	0.104294	5.857019	0.017391	-0.000456	0.007048	-0.292236	0.077881	-0.797363
329.0	8.266598	0.081418	5.852301	0.014373	-0.00167	0.008081	-0.287598	0.075684	-0.802002
330.0	8.246397	0.079933	5.902959	0.014733	0.001309	0.010348	-0.294434	0.073242	-0.797119
331.0	8.248934	0.090113	5.880798	0.016097	-0.000232	0.003631	-0.296631	0.075439	-0.799561
332.0	8.212158	0.085813	5.901434	0.015862	0.003851	0.007683	-0.294434	0.075684	-0.802002
333.0	8.242204	0.049904	5.889035	0.01688	0.00098	0.007258	-0.292236	0.077881	-0.797363
334.0	8.227115	0.068424	5.895319	0.015923	-0.000896	0.006776	-0.296875	0.077637	-0.795166
335.0	8.233574	0.109815	5.887439	0.01637	0.002416	0.007469	-0.289795	0.073486	-0.799561
336.0	8.211832	0.087447	5.901863	0.015164	0.002971	0.002481	-0.292236	0.077881	-0.795166
337.0	8.199284	0.115917	5.885974	0.011612	-0.001886	0.004395	-0.289795	0.075684	-0.802002
338.0	8.211826	0.088127	5.901861	0.014731	0.001314	0.010344	-0.292236	0.075684	-0.802002
339.0	8.232091	0.089881	5.851117	0.015052	-0.00244	0.004721	-0.298828	0.071045	-0.797119
340.0	8.21462	0.098571	5.879333	0.012034	-0.003652	0.005755	-0.289795	0.073486	-0.801758
341.0	8.195912	0.085762	5.870915	0.011586	-0.006964	0.005062	-0.298828	0.073242	-0.799561
342.0	8.230446	0.080908	5.872014	0.01012	-0.007405	0.004793	-0.296631	0.075439	-0.802002
343.0	8.230956	0.081187	5.871295	0.012603	-0.009836	0.004639	-0.294434	0.075684	-0.802002
344.0	8.282109	0.07971	5.90234	0.012603	-0.009836	0.004638	-0.296631	0.073242	-0.797119
345.0	8.251111	0.094716	5.87767	0.008481	-0.008506	0.007669	-0.289795	0.073486	-0.794922
346.0	8.269126	0.086673	5.848654	0.011422	-0.004206	-0.00102	-0.298828	0.073242	-0.797119
347.0	8.251737	0.095524	5.876779	0.009189	-0.004202	0.003642	-0.298584	0.068848	-0.794678
348.0	8.251958	0.095708	5.876466	0.007215	-0.003206	0.003585	-0.296631	0.075439	-0.794922
349.0	8.239627	0.123851	5.860256	0.007301	-0.002876	0.002012	-0.289795	0.075684	-0.797363
350.0	8.23589	0.092889	5.84572	0.006344	-0.004752	0.001532	-0.296631	0.075439	-0.794922
351.0	8.233673	0.083233	5.867455	0.00668	-0.006849	0.004466	-0.294434	0.073242	-0.799561
352.0	8.231627	0.073675	5.888954	0.008377	-0.010496	0.000687	-0.292236	0.075684	-0.802002
353.0	8.23735	0.093529	5.843654	0.004851	-0.010271	0.001935	-0.298584	0.068848	-0.799316
354.0	8.232803	0.074059	5.887305	0.004343	-0.008835	0.002146	-0.294189	0.071045	-0.801758
355.0	8.253535	0.075536	5.83581	0.00623	-0.01016	0.003775	-0.296631	0.073242	-0.801758
356.0	8.268056	0.068994	5.887369	0.002791	-0.009605	0.003451	-0.296631	0.073242	-0.799561
357.0	8.234462	0.073983	5.884986	0.003748	-0.007729	0.003929	-0.30127	0.075439	-0.799561
358.0	8.286614	0.060496	5.85755	0.0053	-0.006959	0.002624	-0.290039	0.077881	-0.802002
359.0	8.271921	0.078764	5.863292	0.003412	-0.005633	0.000995	-0.294434	0.077881	-0.799805
360.0	8.267055	0.059375	5.907424	0.003947	-0.001991	0.000112	-0.291992	0.073486	-0.801758
361.0	8.250678	0.05618	5.8771	0.006621	-0.002099	0.005365	-0.298828	0.073242	-0.801758
362.0	8.253375	0.066132	5.854657	0.004541	-0.003097	-0.001672	-0.294434	0.073242	-0.801758
363.0	8.257496	0.097443	5.868652	0.003182	-0.001544	0.005042	-0.299072	0.077637	-0.799805
364.0	8.223614	0.102426	5.866682	0.003326	-0.005963	0.002568	-0.292236	0.075439	-0.794922
365.0	8.253989	0.066063	5.853793	0.003776	-0.00265	0.003258	-0.298828	0.073242	-0.804199
366.0	8.224026	0.102313	5.866106	0.005155	-0.00254	0.005097	-0.298828	0.075439	-0.799561
367.0	8.23673	0.074383	5.881806	0.004369	-0.003757	0.001473	-0.294434	0.075439	-0.794922
368.0	8.257094	0.075635	5.830772	0.002138	-0.00375	0.006136	-0.296631	0.075439	-0.792725
369.0	8.254772	0.065705	5.852693	0.005749	-0.003646	0.003313	-0.296875	0.079834	-0.795166
370.0	8.220865	0.070794	5.850761	0.00231	-0.003091	0.00299	-0.294434	0.075439	-0.792725
371.0	8.289253	0.060641	5.853813	0.0073	-0.002876	0.002007	-0.296387	0.071045	-0.797119
372.0	8.255104	0.065863	5.852222	0.006142	0.004415	0.004902	-0.296631	0.075439	-0.802002
373.0	8.255001	0.065825	5.852369	0.004733	-0.000774	0.003735	-0.296631	0.073242	-0.797119
374.0	8.254975	0.065679	5.852407	0.003632	0.001769	0.00573	-0.296631	0.073242	-0.799561
375.0	8.268744	0.058932	5.905064	0.004083	0.005081	0.006419	-0.30127	0.075439	-0.797363
376.0	8.258585	0.096357	5.867138	0.003632	0.001769	0.00573	-0.296875	0.080078	-0.799805
377.0	8.254362	0.064952	5.853279	0.005634	0.005851	0.005113	-0.296631	0.075439	-0.792725
378.0	8.273086	0.07776	5.861661	-0.000736	0.005527	0.004256	-0.294434	0.073242	-0.79248
379.0	8.230452	0.019932	5.832401	0.002925	0.012373	0.009313	-0.292236	0.077881	-0.806641
380.0	8.250534	0.053937	5.877323	0.000193	0.002325	0.005407	-0.294434	0.073242	-0.799561
381.0	8.273082	0.064625	5.804605	0.004504	0.003316	0.007781	-0.291992	0.073242	-0.799561
382.0	8.295392	-0.001279	5.85897	0.005604	0.000773	0.005786	-0.296631	0.075439	-0.799561
383.0	8.280183	0.016837	5.865452	0.007607	0.004854	0.005168	-0.296631	0.075439	-0.802002
384.0	8.333991	0.013168	5.817051	0.009189	0.010701	0.003188	-0.292236	0.075684	-0.802002
385.0	8.310386	0.00257	5.891246	0.014661	0.019303	0.002219	-0.294434	0.075439	-0.797363
386.0	8.316978	0.032206	5.826102	0.008118	0.018323	0.004506	-0.296631	0.073242	-0.799561
387.0	8.281865	0.037484	5.825859	0.014821	0.016553	0.008299	-0.292236	0.077881	-0.799805
388.0	8.300034	0.050858	5.835037	0.014543	0.013897	0.004465	-0.294434	0.075439	-0.797363
389.0	8.297758	0.02959	5.799855	0.010423	0.015234	0.007496	-0.296631	0.073242	-0.804199
390.0	8.245179	0.043233	5.827824	0.012395	0.014238	0.007552	-0.294434	0.073242	-0.797119
391.0	8.245816	0.064865	5.865313	0.012902	0.012801	0.007342	-0.298828	0.075439	-0.799561
392.0	8.206938	0.038989	5.850542	0.015833	0.013681	0.007876	-0.298828	0.075439	-0.802002
393.0	8.223968	0.03079	5.822944	0.016308	0.007167	0.008344	-0.296631	0.073242	-0.801758
394.0	8.223621	0.031013	5.823434	0.013884	0.004851	0.0076	-0.296631	0.075439	-0.804199
395.0	8.208423	0.049436	5.829853	0.016783	0.000653	0.008812	-0.290039	0.080078	-0.804443
396.0	8.22608	0.041447	5.801379	0.018059	-0.001237	0.003675	-0.292236	0.077881	-0.797363
397.0	8.245239	0.055036	5.809149	0.017796	-0.002219	0.008393	-0.298828	0.073242	-0.804199
398.0	8.276817	0.040549	5.833007	0.017377	-0.000455	0.007029	-0.294434	0.077637	-0.795166
399.0	8.29584	0.054103	5.840968	0.018422	0.001749	0.00593	-0.292236	0.077881	-0.799805
400.0	8.295618	0.054652	5.841278	0.015524	0.005947	0.004715	-0.296631	0.075439	-0.804199
401.0	8.297905	0.064918	5.819466	0.017496	0.00495	0.004773	-0.292236	0.075684	-0.804199
402.0	8.348216	0.063821	5.8517	0.015247	0.003287	0.000885	-0.290039	0.077881	-0.797363
403.0	8.312235	0.048154	5.814284	0.015137	0.012789	0.002666	-0.298828	0.075439	-0.804199
404.0	8.315573	0.08011	5.829334	0.012801	0.010799	0.000351	-0.294434	0.075439	-0.797363
405.0	8.272628	0.023395	5.800582	0.012239	0.016987	0.001448	-0.294434	0.077881	-0.806641
406.0	8.274243	0.033659	5.779747	0.01508	0.01754	0.003554	-0.287598	0.073486	-0.797119
407.0	8.277261	0.065819	5.795237	0.02213	0.017078	0.001059	-0.296875	0.077881	-0.804443
408.0	8.244798	0.082041	5.772608	0.02712	0.017287	7.7e-05	-0.292236	0.080078	-0.799805
409.0	8.226173	0.092491	5.802353	0.037517	0.015942	-0.000519	-0.296631	0.073242	-0.797119
410.0	8.239186	0.12191	5.950939	0.038715	0.015407	0.004465	-0.296875	0.077881	-0.809082
411.0	8.237022	0.101803	5.915697	0.026817	0.011237	0.005477	-0.292236	0.075684	-0.804199
412.0	8.252461	0.227993	5.972607	0.040391	0.01005	0.018474	-0.296875	0.077637	-0.799805
413.0	8.260564	0.290864	6.000524	0.025374	-0.010554	0.022597	-0.298584	0.068848	-0.803955
414.0	8.309464	0.2116	5.863287	0.030047	-0.031301	0.027522	-0.294678	0.080078	-0.802002
415.0	8.323837	0.183538	5.876664	0.04851	-0.034296	0.032559	-0.291992	0.068848	-0.803955
416.0	8.320606	0.130278	5.823238	0.050867	-0.040432	0.043212	-0.298828	0.071045	-0.804199
417.0	8.357353	0.002792	5.795753	0.066307	-0.04463	0.049277	-0.291992	0.071045	-0.797119
418.0	8.407171	-0.042279	5.751973	0.091153	-0.032402	0.054631	-0.296631	0.073242	-0.79248
419.0	8.462756	-0.04524	5.701146	0.125508	-0.01326	0.057496	-0.296631	0.073242	-0.797119
420.0	8.493477	-0.091387	5.631059	0.164214	0.023494	0.070701	-0.301025	0.071045	-0.797119
421.0	8.539122	-0.045104	5.523615	0.214442	0.031928	0.080046	-0.294434	0.073242	-0.801758
422.0	8.543969	0.001893	5.518081	0.262481	0.03901	0.083888	-0.296387	0.068848	-0.794678
423.0	8.463337	0.108872	5.314935	0.252225	0.052628	0.089894	-0.301025	0.071045	-0.804199
424.0	8.259562	0.155934	5.28464	0.253153	0.031886	0.097642	-0.296387	0.071045	-0.804199
425.0	8.288272	0.323757	5.24728	0.246155	-0.058408	0.103505	-0.293945	0.062256	-0.796875
426.0	8.548123	0.553653	5.071015	0.23742	-0.097918	0.106786	-0.296387	0.068848	-0.799316
427.0	8.529842	0.85556	5.076536	0.217346	-0.045303	0.115137	-0.296143	0.064453	-0.799316
428.0	8.440299	1.008434	4.964001	0.187569	-0.011775	0.120585	-0.293701	0.060059	-0.794434
429.0	8.489747	1.168184	4.87526	0.164522	0.036421	0.139212	-0.296143	0.060059	-0.796631
430.0	8.583866	1.192056	4.822493	0.140878	0.088742	0.151875	-0.295898	0.057861	-0.796631
431.0	8.59446	1.179824	4.882458	0.118151	0.118549	0.163985	-0.296143	0.064453	-0.801514
432.0	8.647599	1.123975	4.985067	0.103203	0.108567	0.165286	-0.296143	0.064453	-0.801514
433.0	8.754467	0.975092	5.109316	0.092418	0.078104	0.160349	-0.296143	0.060059	-0.796631
434.0	8.896831	0.706528	5.189112	0.072622	0.052146	0.150199	-0.289307	0.062256	-0.801514
435.0	9.002328	0.435508	5.288395	0.063239	0.040437	0.124135	-0.287354	0.066895	-0.803955
436.0	9.066393	0.231669	5.381245	0.069089	0.036651	0.099661	-0.287354	0.06665	-0.796875
437.0	9.085556	0.04986	5.396854	0.075432	0.036173	0.075817	-0.29834	0.060059	-0.80127
438.0	9.048273	-0.04543	5.412955	0.092506	0.061093	0.057548	-0.286865	0.057861	-0.799072
439.0	8.873373	-0.001153	5.466987	0.111037	0.08537	0.055677	-0.289307	0.057861	-0.805908
440.0	8.663615	0.112839	5.412871	0.124875	0.107478	0.057744	-0.284668	0.060059	-0.799072
441.0	8.463469	0.100433	5.391496	0.146026	0.131742	0.061044	-0.287109	0.060059	-0.799072
442.0	8.258636	0.269728	5.387318	0.156657	0.134171	0.087193	-0.286865	0.055664	-0.796631
443.0	8.117349	0.165936	5.287631	0.159485	0.148364	0.106105	-0.286865	0.057861	-0.796631
444.0	8.030375	0.242179	5.37079	0.161876	0.156653	0.130505	-0.284668	0.057861	-0.799072
445.0	7.954495	0.251769	5.378055	0.14868	0.156908	0.143468	-0.282227	0.053467	-0.798828
446.0	7.975552	0.210249	5.379906	0.159568	0.153603	0.155631	-0.280029	0.053467	-0.798828
447.0	8.01868	0.227679	5.460562	0.142536	0.16905	0.147639	-0.277588	0.05127	-0.798828
448.0	7.96903	0.135998	5.566597	0.084176	0.159946	0.128861	-0.277832	0.055664	-0.796631
449.0	7.899006	0.008026	5.62831	0.06705	0.130171	0.107254	-0.277832	0.058105	-0.803711
450.0	7.933803	0.000606	5.773317	0.047374	0.091469	0.064396	-0.280029	0.055664	-0.798828
451.0	7.984605	-0.062686	5.818599	0.000167	0.083199	0.021099	-0.278076	0.060303	-0.80127
452.0	7.959398	-0.213079	5.738851	-0.019999	0.058434	-0.039191	-0.278076	0.0625	-0.799072
453.0	7.969687	-0.365213	5.660021	-0.022171	0.037696	-0.109575	-0.277832	0.055908	-0.80127
454.0	8.034235	-0.3905	5.633624	-0.003712	0.042346	-0.17499	-0.273193	0.053711	-0.803467
455.0	8.122377	-0.442282	5.678436	-0.015011	0.046269	-0.223243	-0.275879	0.0625	-0.801514
456.0	8.352181	-0.483563	5.745646	-0.001472	0.001281	-0.241628	-0.280029	0.055664	-0.798828
457.0	8.732168	-0.382896	5.828653	0.045672	-0.085498	-0.226241	-0.273193	0.053711	-0.801025
458.0	9.230964	-0.075491	5.813198	0.058179	-0.171677	-0.171197	-0.277588	0.05127	-0.801025
459.0	9.624464	0.114349	5.785683	0.052045	-0.19129	-0.099996	-0.277832	0.055664	-0.796631
460.0	9.826643	0.329467	5.793713	0.017823	-0.166108	-0.049856	-0.280029	0.055664	-0.796631
461.0	9.764234	0.11901	5.76962	-0.112942	-0.131673	-0.008841	-0.282227	0.053467	-0.791748
462.0	10.498013	0.061912	5.574797	0.013009	-0.170257	0.049976	-0.280029	0.055664	-0.791992
463.0	10.417534	0.259173	5.742165	-0.09633	0.106809	0.087996	-0.280029	0.053467	-0.791748
464.0	9.645864	-0.366935	5.584825	-0.239517	0.286868	0.112858	-0.280273	0.057861	-0.796631
465.0	8.988718	-0.886036	5.488666	-0.191829	0.28574	0.125101	-0.275879	0.060303	-0.791992
466.0	8.667296	-1.059064	5.673714	-0.172092	0.297799	0.131002	-0.275879	0.064697	-0.794678
467.0	8.228358	-1.346899	5.718417	-0.198371	0.348092	0.132018	-0.273682	0.064697	-0.801514
468.0	7.654804	-1.601803	5.726945	-0.197532	0.35922	0.146684	-0.26709	0.069092	-0.79248
469.0	7.40556	-1.790729	5.594713	-0.162631	0.297145	0.155969	-0.26709	0.066895	-0.794678
470.0	7.331309	-1.77088	5.538357	-0.082552	0.23616	0.166908	-0.262695	0.073486	-0.799561
471.0	7.248261	-1.683766	5.553631	-0.051708	0.158734	0.181592	-0.269287	0.069092	-0.803955
472.0	7.292425	-1.410575	5.575313	0.022781	0.045831	0.198461	-0.264893	0.069092	-0.799316
473.0	7.407844	-1.103725	5.534098	0.053936	-0.050098	0.21689	-0.262451	0.066895	-0.801758
474.0	7.536826	-0.894061	5.397225	0.044291	-0.128369	0.217681	-0.265137	0.073486	-0.794922
475.0	7.868156	-0.610745	5.18384	0.080029	-0.197683	0.21156	-0.264893	0.069092	-0.794678
476.0	8.168705	-0.320339	4.962085	0.096302	-0.223022	0.198239	-0.269531	0.071289	-0.794922
477.0	8.499252	-0.076071	4.886308	0.086166	-0.163439	0.183306	-0.26709	0.066895	-0.797119
478.0	8.596274	0.063994	4.790657	0.053058	-0.074587	0.174773	-0.273926	0.073486	-0.797119
479.0	8.528156	0.109511	4.718054	0.015431	-0.013473	0.167791	-0.267334	0.073486	-0.790283
480.0	8.466963	0.011975	4.622958	-0.005987	0.004708	0.175818	-0.271973	0.075684	-0.794922
481.0	8.393009	-0.112462	4.597417	-0.012696	0.031802	0.187247	-0.26709	0.071289	-0.790283
482.0	8.297153	-0.303927	4.650421	-0.021351	0.036208	0.204597	-0.266846	0.064697	-0.794678
483.0	8.369697	-0.568764	4.624506	-0.00739	0.01556	0.208096	-0.269531	0.073486	-0.790283
484.0	8.531481	-0.789577	4.683503	0.011415	0.032184	0.211596	-0.271729	0.071289	-0.794922
485.0	8.630036	-1.032043	4.779145	0.020591	0.070836	0.200946	-0.267334	0.077881	-0.790527
486.0	8.748222	-1.343093	4.855715	0.043784	0.105535	0.180231	-0.265137	0.073486	-0.790283
487.0	8.796356	-1.567884	4.902705	0.095661	0.140279	0.152131	-0.265137	0.073486	-0.797363
488.0	8.799893	-1.623926	5.034335	0.139642	0.174151	0.124415	-0.260498	0.071289	-0.794922
489.0	8.710333	-1.673816	5.020762	0.187203	0.188937	0.100754	-0.264893	0.069092	-0.790039
490.0	8.646208	-1.607195	5.001851	0.251865	0.19139	0.074369	-0.260498	0.071289	-0.790283
491.0	8.568753	-1.516108	4.987971	0.305572	0.189619	0.053921	-0.255615	0.064697	-0.790039
492.0	8.464786	-1.246355	4.926429	0.35333	0.181438	0.031668	-0.257813	0.064697	-0.787598
493.0	8.340386	-1.144323	4.875693	0.395517	0.162787	0.02495	-0.26001	0.060303	-0.789795
494.0	8.359919	-0.990951	4.919574	0.433391	0.136142	0.019726	-0.255127	0.053711	-0.791992
495.0	8.436242	-0.914375	4.94369	0.453694	0.113988	0.025654	-0.250732	0.055908	-0.794189
496.0	8.535475	-0.908121	4.945895	0.480729	0.102138	0.030758	-0.257324	0.051514	-0.787109
497.0	8.66183	-0.83331	5.001973	0.495858	0.089113	0.042112	-0.252441	0.042725	-0.789063
498.0	8.830246	-0.817712	5.045204	0.497972	0.082063	0.052432	-0.248047	0.042725	-0.793701
499.0	8.960102	-0.761064	5.042558	0.486876	0.085276	0.065489	-0.254883	0.044922	-0.793945
500.0	9.069107	-0.743322	4.997473	0.462697	0.082481	0.069452	-0.252197	0.036133	-0.79126
501.0	9.177836	-0.727941	4.952929	0.443398	0.098185	0.079719	-0.247803	0.036133	-0.79126
502.0	9.293968	-0.591511	4.923479	0.419875	0.103539	0.084854	-0.249512	0.027344	-0.791016
503.0	9.376633	-0.450051	4.889268	0.38463	0.110186	0.090134	-0.247314	0.025146	-0.790771
504.0	9.502982	-0.455343	4.819706	0.3346	0.11924	0.092027	-0.244873	0.022949	-0.78833
505.0	9.631566	-0.547458	4.72574	0.297688	0.117506	0.081579	-0.238037	0.020752	-0.786133
506.0	9.794417	-0.663041	4.737249	0.275406	0.133555	0.067188	-0.242676	0.020752	-0.792969
507.0	10.000738	-0.761286	4.844135	0.26216	0.16864	0.051368	-0.244873	0.022705	-0.783691
508.0	10.264364	-0.834124	5.466668	0.269671	0.189495	0.044912	-0.242676	0.020508	-0.78125
509.0	10.977426	-0.521879	7.516057	0.398766	0.249673	0.043834	-0.239746	0.007324	-0.7854
510.0	10.852786	1.72039	9.031765	0.263993	0.175363	0.101958	-0.240234	0.018311	-0.783691
511.0	10.844667	2.489003	7.624584	-0.267596	-0.129576	0.232215	-0.242432	0.013916	-0.781006
512.0	10.615237	2.038238	7.57534	-0.307483	-0.209422	0.248334	-0.240234	0.018311	-0.78125
513.0	10.494423	2.125241	7.154925	-0.488642	-0.258356	0.20374	-0.24292	0.027344	-0.781494
514.0	10.615834	1.21254	6.216692	-0.631471	-0.084996	0.14087	-0.238525	0.029541	-0.781738
515.0	9.782916	0.42951	5.804011	-0.637003	0.111794	0.019981	-0.238525	0.029541	-0.779297
516.0	9.02863	-0.365206	5.373696	-0.624992	0.123694	-0.089009	-0.243164	0.036133	-0.777344
517.0	9.109841	-1.382055	5.108881	-0.490803	0.076262	-0.182396	-0.233887	0.029541	-0.7771
518.0	9.343209	-2.149419	5.467404	-0.295025	0.170158	-0.262	-0.234375	0.040527	-0.779785
519.0	8.970219	-2.221194	6.057942	-0.162424	0.268744	-0.306316	-0.236328	0.033936	-0.78418
520.0	8.304469	-2.068467	6.137802	-0.067764	0.234787	-0.286925	-0.236816	0.042725	-0.779785
521.0	7.448414	-1.714246	6.369488	0.080235	0.191728	-0.24747	-0.227295	0.031738	-0.781738
522.0	6.525887	-1.109339	6.453214	0.18968	0.135076	-0.204058	-0.234375	0.03833	-0.781982
523.0	5.765057	-0.257019	6.798987	0.313998	-0.002341	-0.139189	-0.227295	0.031738	-0.7771
524.0	5.323287	0.795253	6.894666	0.354413	-0.198291	-0.055267	-0.229248	0.025146	-0.781494
525.0	5.34003	1.427306	6.834088	0.299865	-0.36468	0.02948	-0.240723	0.027344	-0.779297
526.0	5.68915	1.830579	6.917946	0.240655	-0.45878	0.096511	-0.236084	0.027344	-0.779297
527.0	5.955859	2.175902	6.911313	0.12494	-0.453708	0.167445	-0.247314	0.024902	-0.774658
528.0	6.036148	2.265662	6.844315	-0.011706	-0.448451	0.238897	-0.251953	0.0271	-0.77002
529.0	6.401261	2.17074	6.64683	-0.061381	-0.549831	0.313036	-0.247314	0.0271	-0.772217
530.0	6.866098	2.149464	6.691945	-0.04641	-0.600651	0.371308	-0.249512	0.0271	-0.772217
531.0	7.491244	2.029802	6.86216	-0.054486	-0.546256	0.345498	-0.251709	0.024902	-0.774658
532.0	8.238233	1.393339	6.71737	-0.181806	-0.432219	0.284034	-0.256348	0.0271	-0.767578
533.0	8.82884	0.480178	6.440022	-0.165232	-0.265964	0.154935	-0.252197	0.035889	-0.768066
534.0	9.2283	0.093884	6.300006	-0.120461	-0.094304	-0.016191	-0.252197	0.035889	-0.765625
535.0	9.327545	-0.246826	6.104533	-0.097846	0.055378	-0.191187	-0.254395	0.031494	-0.763184
536.0	8.670039	-0.207752	5.902153	-0.042321	0.172258	-0.335486	-0.245361	0.035889	-0.760986
537.0	7.914164	0.124919	5.901976	0.031372	0.10136	-0.432008	-0.25415	0.029297	-0.767822
538.0	7.295288	0.45334	5.784793	0.071951	-0.009662	-0.466989	-0.25415	0.029297	-0.753906
539.0	7.219549	0.642504	5.655988	0.106522	-0.161957	-0.470908	-0.251709	0.024902	-0.760742
540.0	7.042113	0.955016	5.593462	0.135217	-0.18204	-0.434547	-0.254395	0.033691	-0.758545
541.0	6.953885	1.086659	5.670809	0.080716	-0.206946	-0.39324	-0.253906	0.022705	-0.762939
542.0	7.481322	0.881465	5.480525	0.082053	-0.323012	-0.354781	-0.256348	0.029297	-0.751465
543.0	7.985879	0.784273	5.417438	0.058492	-0.289997	-0.339258	-0.253662	0.018311	-0.750977
544.0	8.079061	0.578203	5.336766	-0.046601	-0.21679	-0.341448	-0.258301	0.020508	-0.753418
545.0	7.993411	0.185146	5.070268	-0.094973	-0.233369	-0.32867	-0.256104	0.018311	-0.755615
546.0	7.959024	-0.144425	4.802323	-0.086174	-0.294078	-0.326075	-0.253906	0.024902	-0.758301
547.0	7.853616	-0.174568	4.614865	-0.04191	-0.3031	-0.348268	-0.262939	0.020508	-0.753418
548.0	7.771102	-0.097168	4.59508	-0.019427	-0.271336	-0.349865	-0.258545	0.022705	-0.751221
549.0	7.701802	0.09031	4.41002	-0.029343	-0.209272	-0.351162	-0.262695	0.018311	-0.753418
550.0	7.660632	0.154451	4.196486	-0.042152	-0.124156	-0.349608	-0.260498	0.018311	-0.755615
551.0	7.65649	0.386358	4.073239	-0.008431	-0.067964	-0.34817	-0.262695	0.018311	-0.750977
552.0	7.770176	0.773349	4.09656	0.00797	-0.021623	-0.338627	-0.264893	0.016113	-0.753418
553.0	7.899271	1.056511	4.093496	-0.051024	0.031142	-0.328597	-0.264648	0.011719	-0.746094
554.0	8.05829	1.190026	4.025992	-0.118925	0.063834	-0.312509	-0.258301	0.018311	-0.748779
555.0	8.275982	1.270244	3.979473	-0.167549	0.098429	-0.300489	-0.258301	0.020508	-0.753418
556.0	8.627804	1.383917	3.837044	-0.214943	0.145434	-0.293164	-0.253662	0.016113	-0.750977
557.0	8.86835	1.385094	3.963708	-0.27108	0.263065	-0.286927	-0.256104	0.018311	-0.750977
558.0	8.991107	1.228756	4.113907	-0.331952	0.379075	-0.279943	-0.253662	0.018311	-0.750977
559.0	8.96383	1.067098	4.332079	-0.363503	0.488087	-0.268991	-0.244629	0.018311	-0.750977
560.0	8.789777	0.783	4.574547	-0.389417	0.554803	-0.256943	-0.242676	0.024902	-0.765381
561.0	8.626207	0.526885	4.725622	-0.389246	0.575935	-0.253159	-0.236084	0.029297	-0.756104
562.0	8.450905	0.320257	4.889044	-0.358005	0.553432	-0.248356	-0.233887	0.029541	-0.756104
563.0	8.445996	0.468443	5.092904	-0.264912	0.490109	-0.2575	-0.229248	0.027344	-0.762939
564.0	8.552991	0.773966	5.442848	-0.220023	0.405221	-0.266098	-0.222656	0.027344	-0.760742
565.0	8.541698	0.881946	5.80463	-0.227005	0.381392	-0.264475	-0.229492	0.029541	-0.760742
566.0	8.224208	0.877201	5.942062	-0.269425	0.334629	-0.258053	-0.216064	0.033936	-0.763184
567.0	7.939752	0.67206	5.606804	-0.29989	0.185859	-0.247113	-0.218018	0.029541	-0.763184
568.0	8.066573	0.68256	5.377954	-0.255903	0.018798	-0.238269	-0.225342	0.03833	-0.75415
569.0	8.371725	0.912953	5.116841	-0.250704	-0.076934	-0.235837	-0.2229	0.03833	-0.751953
570.0	8.709184	1.214921	4.669323	-0.227472	-0.137862	-0.225601	-0.220703	0.03833	-0.756592
571.0	9.216649	1.703703	4.471608	-0.194108	-0.221047	-0.219137	-0.218506	0.040527	-0.749512
572.0	10.053883	2.019097	4.410399	-0.203716	-0.269046	-0.218407	-0.227783	0.042725	-0.751953
573.0	11.073487	2.211524	5.092357	-0.180122	-0.229346	-0.217284	-0.225342	0.042725	-0.751953
574.0	12.263728	2.25921	9.212142	0.091887	-0.036674	-0.267341	-0.223145	0.040527	-0.75415
575.0	12.303615	1.435179	11.641018	-0.420257	-0.008156	-0.402561	-0.225342	0.042725	-0.749756
576.0	12.797018	-2.785307	7.634433	-0.572757	-0.347069	-0.465181	-0.223389	0.047119	-0.745117
577.0	11.110791	-2.796638	9.203697	0.388044	-0.671457	-0.482715	-0.227783	0.042725	-0.749756
578.0	11.597178	-1.901188	7.818971	0.261783	-1.126311	-0.450089	-0.232178	0.040527	-0.747314
579.0	11.504764	-0.659025	6.283702	0.444577	-0.657101	-0.444582	-0.23877	0.03833	-0.74707
580.0	9.598185	1.422066	6.031877	0.353533	-0.188785	-0.421919	-0.234375	0.03833	-0.749512
581.0	7.907588	2.291982	6.048881	0.188432	0.196618	-0.375439	-0.234131	0.036133	-0.749512
582.0	6.338682	2.724747	7.074418	0.046761	0.432143	-0.342893	-0.229736	0.03833	-0.747314
583.0	5.484056	2.120362	7.320721	-0.205454	0.366999	-0.349026	-0.229736	0.03833	-0.744873
584.0	5.311356	1.246652	6.800327	-0.260488	0.225268	-0.359918	-0.225342	0.040527	-0.749512
585.0	5.204669	0.78613	6.672595	-0.246741	0.077615	-0.329855	-0.225342	0.040527	-0.749512
586.0	5.132376	0.23606	7.029435	-0.255476	-0.115348	-0.260399	-0.227539	0.040527	-0.742676
587.0	5.562544	-0.24922	7.293929	-0.216114	-0.43545	-0.198323	-0.227783	0.042725	-0.740479
588.0	6.629273	-0.398612	7.575795	-0.137124	-0.730324	-0.156357	-0.227783	0.047119	-0.74292
589.0	7.861392	-0.41454	7.630374	-0.127039	-0.879415	-0.11733	-0.239014	0.044922	-0.740479
590.0	9.316046	-0.605074	7.102194	-0.084976	-0.94947	-0.069665	-0.243652	0.049072	-0.738281
591.0	11.032508	-0.510721	6.293752	0.06021	-0.757181	-0.021952	-0.24585	0.046875	-0.73584
592.0	11.678582	0.188383	6.251682	0.114945	-0.164927	0.041321	-0.248291	0.049072	-0.738281
593.0	11.049248	0.234973	6.29427	-0.05408	0.427978	0.14365	-0.246094	0.053711	-0.740723
594.0	9.497406	-0.211122	5.959716	-0.082379	0.764525	0.259548	-0.234863	0.053711	-0.740723
595.0	7.291273	-0.445358	6.177973	-0.063469	0.855456	0.381199	-0.235107	0.058105	-0.738525
596.0	5.695014	-0.711278	6.246949	-0.124495	0.698079	0.437916	-0.23291	0.058105	-0.748047
597.0	5.050311	-0.966264	5.80277	-0.044262	0.397632	0.485938	-0.22876	0.069092	-0.746094
598.0	4.562855	-0.773434	5.798683	-0.008918	0.16389	0.502425	-0.228516	0.0625	-0.743408
599.0	4.618102	-0.883259	5.587818	-0.053938	-0.08862	0.522265	-0.228516	0.0625	-0.750488
600.0	5.065066	-0.825292	5.397865	0.045059	-0.344692	0.53653	-0.229004	0.075684	-0.748535
601.0	5.554966	-0.322368	5.377826	0.124983	-0.508276	0.57052	-0.233398	0.073486	-0.743896
602.0	6.149927	0.05954	5.335542	0.096296	-0.602228	0.577729	-0.237793	0.069092	-0.746094
603.0	6.754041	0.23375	5.175447	0.116871	-0.650274	0.585488	-0.242188	0.069092	-0.739014
604.0	7.432556	0.354179	5.153046	0.136752	-0.639079	0.573556	-0.242676	0.080078	-0.741699
605.0	8.048981	0.37268	5.055924	0.138367	-0.543377	0.549471	-0.249268	0.073486	-0.739258
606.0	8.65624	0.209107	4.892541	0.117646	-0.399813	0.506741	-0.249512	0.082275	-0.730225
607.0	9.010255	0.014687	4.601163	0.117827	-0.188928	0.456873	-0.249268	0.077881	-0.732422
608.0	8.806969	-0.159643	4.4929	0.100794	0.015163	0.410683	-0.249512	0.082275	-0.730225
609.0	8.543303	-0.45933	4.368655	0.110417	0.107254	0.351654	-0.242676	0.080078	-0.732422
610.0	8.405987	-0.703696	4.228177	0.150926	0.122674	0.292932	-0.244873	0.080078	-0.734863
611.0	8.322884	-0.90974	4.132838	0.212885	0.117986	0.249661	-0.244873	0.077881	-0.734619
612.0	8.33825	-0.926269	4.013841	0.275193	0.13081	0.209384	-0.247559	0.088867	-0.73291
613.0	8.360498	-0.858921	3.981967	0.360043	0.204886	0.179998	-0.23584	0.077881	-0.739258
614.0	8.378068	-0.671945	3.999583	0.444878	0.300186	0.16034	-0.238281	0.082275	-0.732666
615.0	8.590436	-0.429706	4.065657	0.530461	0.403521	0.153087	-0.233398	0.075684	-0.737061
616.0	8.533973	-0.259713	4.241803	0.604138	0.587906	0.156496	-0.233643	0.077881	-0.741699
617.0	8.157336	-0.053667	4.453588	0.614074	0.73115	0.163253	-0.226563	0.069092	-0.739014
618.0	7.813705	-0.115101	4.733428	0.586583	0.763914	0.159971	-0.219727	0.071289	-0.743896
619.0	7.762291	-0.336845	4.942763	0.568644	0.695589	0.16615	-0.215332	0.071289	-0.743896
620.0	7.944615	-0.445001	5.478915	0.570055	0.590293	0.155364	-0.217529	0.069092	-0.748291
621.0	8.179823	-0.442037	6.001446	0.521066	0.489234	0.145974	-0.210693	0.069092	-0.743652
622.0	8.189149	-0.21054	5.878275	0.41644	0.338007	0.141427	-0.203857	0.064941	-0.750488
623.0	8.289628	0.075018	5.58837	0.410127	0.128584	0.144311	-0.203613	0.058105	-0.743408
624.0	8.512923	0.59965	5.449124	0.467338	-0.081055	0.147764	-0.208252	0.0625	-0.743408
625.0	8.721342	1.119779	5.362646	0.415259	-0.225071	0.16038	-0.208008	0.055908	-0.738525
626.0	9.058859	1.078014	5.061474	0.317357	-0.333384	0.171901	-0.212402	0.058105	-0.748047
627.0	9.66321	0.467277	4.676316	0.244966	-0.417723	0.176763	-0.212402	0.058105	-0.740967
628.0	10.264575	-0.194938	4.376266	0.251995	-0.393823	0.160548	-0.217041	0.060303	-0.740967
629.0	10.836624	-0.740652	5.062072	0.320838	-0.303978	0.154681	-0.212402	0.058105	-0.743408
630.0	12.0557	-1.180476	9.422954	0.566414	-0.156287	0.171106	-0.216797	0.053711	-0.738525
631.0	12.687779	1.925638	11.727438	0.328133	-0.077356	0.241463	-0.219238	0.058105	-0.734131
632.0	13.86094	2.700854	8.456407	-0.299846	-0.396572	0.517189	-0.219482	0.064697	-0.736572
633.0	11.853413	4.204136	9.986115	-0.010406	-0.539616	0.692959	-0.226563	0.073486	-0.741455
634.0	10.327407	3.535931	7.723396	-0.601213	-0.832863	0.703494	-0.222168	0.071289	-0.727539
635.0	10.347769	0.500902	5.673386	-0.502493	-0.514776	0.561051	-0.229004	0.073486	-0.72998
636.0	8.56701	-0.142096	5.771921	-0.177193	-0.307638	0.410114	-0.231445	0.077881	-0.727783
637.0	7.661166	-1.270307	5.543857	-0.242612	-0.271576	0.297533	-0.231689	0.084473	-0.730225
638.0	7.468044	-1.816695	5.601345	0.023248	-0.247715	0.245747	-0.229248	0.084473	-0.732666
639.0	7.556253	-0.873131	6.488136	0.315032	-0.210267	0.260943	-0.236084	0.084473	-0.728027
640.0	7.410883	0.095005	6.944606	0.259952	-0.070418	0.327008	-0.233887	0.08667	-0.732666
641.0	6.88058	0.42063	6.436654	0.144961	0.027177	0.396185	-0.240723	0.084473	-0.725586
642.0	6.474812	0.714485	6.470702	0.200927	-0.102695	0.490447	-0.231689	0.084473	-0.728027
643.0	6.897613	0.800357	6.966636	0.209741	-0.387976	0.574072	-0.234131	0.088867	-0.73291
644.0	7.761505	0.886488	7.290769	0.18986	-0.589389	0.629225	-0.236084	0.08667	-0.72583
645.0	8.781932	1.031377	7.247636	0.168795	-0.677355	0.620483	-0.243164	0.091064	-0.721191
646.0	9.431068	1.364413	6.955456	0.176527	-0.465438	0.52819	-0.240967	0.095459	-0.728516
647.0	10.571872	1.139134	6.407633	0.063415	-0.18159	0.336334	-0.23877	0.093262	-0.721436
648.0	11.124066	0.82297	5.834321	0.099586	0.291408	0.095528	-0.23877	0.093262	-0.73291
649.0	9.529665	1.537026	6.228982	0.058144	0.71326	-0.152467	-0.234131	0.091064	-0.72583
650.0	8.19211	1.394588	5.964968	-0.063089	0.623203	-0.370046	-0.229736	0.095459	-0.728516
651.0	7.148461	1.457384	5.588997	0.013559	0.542238	-0.550342	-0.227539	0.093262	-0.735352
652.0	6.027541	1.84742	5.526365	0.02163	0.441146	-0.653244	-0.225342	0.0979	-0.730713
653.0	5.610154	1.626755	5.094363	-0.046808	0.210791	-0.674289	-0.2229	0.093506	-0.73291
654.0	5.203426	1.576938	4.798636	-0.021083	0.031513	-0.654196	-0.225098	0.091064	-0.735352
655.0	5.125031	1.545706	4.870454	-0.039197	-0.197569	-0.621779	-0.222656	0.088867	-0.730469
656.0	5.566641	1.251778	4.973099	-0.048737	-0.425858	-0.59023	-0.229492	0.091064	-0.728271
657.0	6.266825	1.106657	5.028312	-0.085	-0.566228	-0.582079	-0.234131	0.091064	-0.728271
658.0	6.975507	0.933586	4.93292	-0.153875	-0.645615	-0.574969	-0.231934	0.091064	-0.730469
659.0	7.798087	0.771345	4.737138	-0.224286	-0.641923	-0.580619	-0.234131	0.091064	-0.728271
660.0	8.501747	0.714624	4.398567	-0.272444	-0.557205	-0.574076	-0.243408	0.097656	-0.735352
661.0	8.976131	0.616981	4.107526	-0.31944	-0.381908	-0.55394	-0.23877	0.097656	-0.726074
662.0	8.996455	0.514793	4.044281	-0.346623	-0.214235	-0.514576	-0.245605	0.095459	-0.723877
663.0	8.790693	0.524925	3.85663	-0.344321	-0.093084	-0.481431	-0.245605	0.095459	-0.726074
664.0	8.608466	0.504794	3.751582	-0.315072	0.046486	-0.436718	-0.24585	0.099854	-0.719238
665.0	8.322847	0.523145	3.688911	-0.31383	0.187137	-0.393884	-0.243408	0.097656	-0.723877
666.0	7.969334	0.549682	3.506341	-0.324394	0.280633	-0.34201	-0.243652	0.106445	-0.731201
667.0	7.649164	0.582925	3.387144	-0.345697	0.365161	-0.2857	-0.234619	0.104248	-0.72876
668.0	7.337146	0.587542	3.393911	-0.364347	0.436143	-0.230984	-0.230469	0.113281	-0.726807
669.0	7.100407	0.552129	3.527995	-0.414566	0.506438	-0.187444	-0.228027	0.108887	-0.729004
670.0	7.01136	0.604361	3.75898	-0.434857	0.534504	-0.143882	-0.223877	0.115479	-0.729248
671.0	7.216594	0.620596	3.906074	-0.463701	0.517221	-0.110926	-0.224121	0.119873	-0.736328
672.0	7.291008	0.629181	4.171345	-0.496065	0.560231	-0.097495	-0.217529	0.124268	-0.736572
673.0	7.470109	0.534822	4.418367	-0.534527	0.577709	-0.10165	-0.212891	0.12207	-0.729492
674.0	8.019828	0.27553	4.470437	-0.544925	0.536356	-0.108308	-0.217529	0.124268	-0.734131
675.0	8.883102	0.177842	4.644723	-0.462508	0.566866	-0.13621	-0.210938	0.128662	-0.739014
676.0	9.535904	0.699388	5.805056	-0.253839	0.605435	-0.173872	-0.202148	0.135498	-0.739258
677.0	9.869604	1.086076	6.550005	-0.306053	0.625591	-0.194303	-0.204346	0.137695	-0.739258
678.0	9.466302	0.546652	6.027811	-0.417614	0.576721	-0.195217	-0.197754	0.139893	-0.744141
679.0	8.966762	0.29201	6.042939	-0.256928	0.309762	-0.203407	-0.195313	0.137695	-0.741699
680.0	9.027428	0.609419	5.949918	-0.22736	0.040894	-0.20382	-0.193359	0.14209	-0.744141
681.0	9.095452	0.620824	5.385118	-0.287827	-0.055509	-0.192467	-0.195801	0.144287	-0.741943
682.0	8.951807	0.928423	4.738021	-0.255536	-0.092397	-0.179505	-0.191406	0.148682	-0.741943
683.0	9.033431	1.519144	4.357981	-0.226635	-0.154104	-0.16277	-0.193604	0.150879	-0.742188
684.0	9.523318	1.862346	4.119583	-0.248093	-0.208275	-0.158051	-0.193604	0.148682	-0.744385
685.0	10.176748	2.058425	3.975079	-0.270307	-0.205835	-0.159106	-0.195801	0.148682	-0.737305
686.0	11.129423	2.022476	5.362102	-0.215331	-0.160588	-0.197479	-0.202637	0.150879	-0.737549
687.0	12.485968	2.000952	10.454159	0.025762	0.043773	-0.346919	-0.193604	0.150879	-0.744385
688.0	12.594982	-0.286503	9.793738	-0.875778	0.214258	-0.520401	-0.198486	0.157471	-0.742432
689.0	12.954399	-4.283119	8.373942	-0.173579	-0.173875	-0.632302	-0.193848	0.155273	-0.749268
690.0	10.875649	-2.390297	11.469501	0.612722	-0.595579	-0.739211	-0.205078	0.153076	-0.735107
691.0	11.154164	-2.511472	8.24343	0.110526	-1.051271	-0.778556	-0.21167	0.148682	-0.737305
692.0	10.378837	-1.357195	6.28989	0.609305	-0.748322	-0.788941	-0.21582	0.139648	-0.739258
693.0	8.425813	0.668003	6.545749	0.446924	-0.37036	-0.749273	-0.213379	0.135254	-0.743896
694.0	6.919041	1.133427	5.503648	0.199154	0.080316	-0.683881	-0.21582	0.139648	-0.734619
695.0	5.490553	1.655406	6.523955	0.280749	0.427339	-0.62168	-0.213379	0.135254	-0.746094
696.0	4.680807	2.133575	6.90648	0.0962	0.430363	-0.589556	-0.210938	0.133057	-0.739014
697.0	4.965528	1.45515	6.027951	-0.149887	0.35377	-0.524576	-0.208984	0.135254	-0.743896
698.0	4.891272	0.64279	5.749873	-0.128755	0.343633	-0.444693	-0.208984	0.139893	-0.746338
699.0	5.101546	0.549702	6.972217	-0.015489	0.030866	-0.34506	-0.204346	0.135498	-0.748535
700.0	6.593943	0.63757	7.720014	0.006203	-0.479194	-0.237801	-0.213379	0.135254	-0.750732
701.0	8.449596	0.823497	7.679386	-0.03709	-0.753087	-0.14858	-0.222412	0.133057	-0.741455
702.0	9.792831	0.939965	7.278835	-0.116918	-0.754546	-0.058607	-0.220459	0.141846	-0.746338
703.0	10.362129	0.944187	6.806748	-0.180385	-0.588293	0.032862	-0.229248	0.137451	-0.739258
704.0	10.776209	0.898296	6.27362	-0.177206	-0.348088	0.125151	-0.231689	0.144043	-0.744141
705.0	10.913306	0.858738	6.130114	-0.169345	0.028507	0.227848	-0.225098	0.144043	-0.734863
706.0	10.23268	0.464918	5.976692	-0.283788	0.423151	0.336292	-0.2229	0.148438	-0.749023
707.0	8.689506	-0.391693	5.900187	-0.36573	0.680181	0.419297	-0.218506	0.148682	-0.744385
708.0	6.769971	-1.080962	5.955204	-0.371815	0.748081	0.45753	-0.21167	0.148682	-0.749023
709.0	5.392085	-1.527472	5.824077	-0.307372	0.553	0.468383	-0.207275	0.150879	-0.751465
710.0	4.459439	-1.686077	5.684262	-0.249443	0.306339	0.473228	-0.209717	0.155273	-0.753906
711.0	4.493393	-1.778426	5.375789	-0.156086	-0.016204	0.474074	-0.205322	0.157471	-0.753906
712.0	5.028907	-1.541499	5.474691	0.021762	-0.308021	0.498959	-0.207764	0.164063	-0.751953
713.0	5.406666	-1.063596	5.592318	0.074554	-0.428606	0.540914	-0.209961	0.161865	-0.74707
714.0	5.69675	-0.871319	5.444859	0.0246	-0.4944	0.575273	-0.2146	0.164063	-0.751953
715.0	6.249712	-0.796567	5.10872	0.131225	-0.571001	0.620664	-0.221191	0.159668	-0.749268
716.0	6.654557	-0.462053	5.201542	0.256168	-0.596711	0.630428	-0.223633	0.164063	-0.749512
717.0	7.220919	-0.153052	5.263654	0.256374	-0.617319	0.628575	-0.218994	0.161865	-0.74707
718.0	7.967444	-0.239062	4.93941	0.228195	-0.592722	0.603802	-0.22583	0.16626	-0.740234
719.0	8.69417	-0.324297	4.457116	0.264612	-0.477913	0.559312	-0.228027	0.164063	-0.747314
720.0	9.212228	-0.149145	4.175864	0.303646	-0.285523	0.487918	-0.228027	0.16626	-0.742676
721.0	9.614827	-0.137939	3.838245	0.241597	-0.063101	0.410176	-0.230225	0.161621	-0.744873
722.0	9.403384	-0.34021	3.550523	0.223667	0.170268	0.335438	-0.230469	0.16626	-0.747314
723.0	8.966622	-0.560982	3.513744	0.276959	0.276716	0.260401	-0.221191	0.161865	-0.749512
724.0	8.635359	-0.608056	3.55324	0.360723	0.305817	0.20788	-0.221191	0.159668	-0.74707
725.0	8.501026	-0.608786	3.573447	0.450632	0.340382	0.173218	-0.21875	0.157471	-0.751709
726.0	8.422337	-0.531964	3.734077	0.548364	0.421937	0.146919	-0.220947	0.157471	-0.753906
727.0	8.486716	-0.487527	4.004488	0.629604	0.497093	0.125638	-0.21167	0.148682	-0.755859
728.0	8.65815	-0.501657	4.27165	0.686421	0.609141	0.108726	-0.21167	0.150879	-0.762939
729.0	8.773933	-0.725722	4.500686	0.701804	0.789534	0.110049	-0.202393	0.144287	-0.762695
730.0	8.757724	-1.068361	4.97892	0.716067	0.925942	0.119819	-0.193359	0.139893	-0.769531
731.0	8.809756	-1.401823	5.326458	0.74498	0.971406	0.13858	-0.191162	0.139893	-0.77417
732.0	8.86552	-1.286259	5.722347	0.816245	0.930343	0.155115	-0.186279	0.133301	-0.771729
733.0	8.385314	-0.5179	5.950811	0.813704	0.794568	0.181962	-0.179199	0.126709	-0.776123
734.0	8.18393	-0.047994	6.172336	0.714865	0.547981	0.234904	-0.177002	0.128906	-0.776123
735.0	8.284105	0.582067	5.786373	0.636561	0.219802	0.27894	-0.176758	0.122314	-0.775879
736.0	8.333627	1.11147	5.566554	0.602498	0.032641	0.320437	-0.176758	0.122314	-0.775879
737.0	8.10483	1.804957	5.35468	0.500664	-0.135818	0.34491	-0.176514	0.113525	-0.777832
738.0	8.353298	1.749	4.786013	0.351811	-0.346119	0.374192	-0.185547	0.115723	-0.780273
739.0	9.148251	1.085519	4.126995	0.251793	-0.442048	0.372072	-0.185303	0.111328	-0.782471
740.0	9.83286	0.251969	3.994225	0.207855	-0.376294	0.353922	-0.185303	0.111328	-0.775391
741.0	10.749317	-0.530762	5.884726	0.305891	-0.286893	0.333923	-0.185303	0.109131	-0.782471
742.0	12.137864	0.288748	11.412924	0.558397	-0.11375	0.31425	-0.185303	0.109131	-0.775391
743.0	13.248027	3.828131	9.465666	-0.204219	-0.326307	0.483852	-0.194336	0.109131	-0.775391
744.0	13.856926	3.482014	7.473141	-0.322985	-0.519443	0.717988	-0.19043	0.122314	-0.77832
745.0	11.094439	4.853252	9.348085	-0.51074	-0.578257	0.736301	-0.199219	0.120117	-0.778076
746.0	10.416005	2.147442	6.322539	-1.130101	-0.653691	0.609945	-0.204102	0.126709	-0.771484
747.0	9.299511	0.317855	4.21957	-0.699527	-0.341488	0.422203	-0.202148	0.133301	-0.771729
748.0	7.49029	0.167501	5.434783	-0.441199	-0.303212	0.232532	-0.20459	0.14209	-0.77417
749.0	7.369273	-0.852613	5.926689	-0.44415	-0.342286	0.110846	-0.209229	0.144287	-0.779053
750.0	7.516619	-0.743938	6.265293	-0.183177	-0.266814	0.095742	-0.206787	0.137695	-0.776367
751.0	7.467053	-0.025717	6.690721	-0.152063	-0.132044	0.136781	-0.207031	0.146484	-0.776855
752.0	7.202236	0.01422	6.365644	-0.234908	0.046149	0.189363	-0.207031	0.146484	-0.767578
753.0	6.625871	0.13553	6.775801	-0.134105	-0.018013	0.270515	-0.207031	0.144287	-0.776611
754.0	6.75903	0.360827	7.214099	-0.090817	-0.359751	0.359815	-0.209717	0.153076	-0.7771
755.0	7.902228	0.204963	7.581181	-0.029759	-0.71027	0.43449	-0.2229	0.148682	-0.772217
756.0	9.052506	0.374238	7.578978	0.001871	-0.804057	0.45008	-0.2229	0.148682	-0.760498
757.0	9.374276	0.539924	7.376227	-0.058816	-0.591055	0.422895	-0.227295	0.146484	-0.769775
758.0	10.697341	-0.172579	6.542319	-0.148252	-0.438338	0.241407	-0.225586	0.155273	-0.772461
759.0	11.944574	-0.637698	5.636446	0.019644	-0.040921	-0.000427	-0.227539	0.150879	-0.77002
760.0	10.799014	0.404048	6.01073	0.087502	0.554209	-0.252555	-0.223145	0.153076	-0.767822
761.0	8.782048	0.788735	6.044746	-0.06083	0.74196	-0.460919	-0.216553	0.155273	-0.77002
762.0	7.495404	0.89972	5.598631	0.063242	0.673996	-0.598743	-0.218506	0.148682	-0.774414
763.0	6.677237	1.747467	5.636458	0.157159	0.56791	-0.670308	-0.213867	0.148682	-0.774414
764.0	5.776069	2.013428	5.423577	0.071799	0.494296	-0.667126	-0.216309	0.153076	-0.774658
765.0	5.044046	1.842232	5.141008	0.016709	0.300475	-0.590604	-0.211426	0.144287	-0.783691
766.0	4.739157	1.570004	5.04862	0.055179	0.06841	-0.489328	-0.207031	0.144287	-0.779053
767.0	4.797859	1.427716	5.183033	0.06265	-0.152596	-0.410636	-0.213867	0.144287	-0.776611
768.0	5.427879	1.126873	5.198184	0.043111	-0.37046	-0.371577	-0.218262	0.14209	-0.776611
769.0	6.201548	0.83034	5.061708	-0.00283	-0.511877	-0.349813	-0.222656	0.139893	-0.77417
770.0	6.885378	0.587629	4.917109	-0.061603	-0.57386	-0.348242	-0.227295	0.14209	-0.77417
771.0	7.464592	0.413496	4.669708	-0.115746	-0.577635	-0.348237	-0.229248	0.137451	-0.781006
772.0	7.949484	0.306904	4.377471	-0.148549	-0.526628	-0.345211	-0.229492	0.144287	-0.776611
773.0	8.203773	0.317976	4.076913	-0.154689	-0.400647	-0.343877	-0.238525	0.141846	-0.776611
774.0	8.272483	0.441578	3.932927	-0.16083	-0.255853	-0.337972	-0.238525	0.144043	-0.779053
775.0	8.273237	0.419333	3.827714	-0.186126	-0.112069	-0.333576	-0.227051	0.139893	-0.78125
776.0	8.267021	0.368008	3.597845	-0.191791	0.051267	-0.330974	-0.231689	0.144287	-0.779053
777.0	8.090272	0.504339	3.505123	-0.191011	0.23667	-0.31969	-0.231689	0.144043	-0.774414
778.0	7.715827	0.672759	3.575508	-0.239957	0.392274	-0.302445	-0.229492	0.14209	-0.778809
779.0	7.376065	0.762754	3.684863	-0.30586	0.462884	-0.263226	-0.234131	0.144043	-0.776611
780.0	7.225698	0.839158	3.78495	-0.372974	0.475471	-0.219596	-0.225342	0.150879	-0.783936
781.0	7.177379	0.98202	3.790073	-0.443268	0.472184	-0.175517	-0.227539	0.148682	-0.779053
782.0	7.458156	1.111243	3.849978	-0.482883	0.426848	-0.154271	-0.220947	0.153076	-0.781738
783.0	7.701744	1.375804	4.009821	-0.53166	0.4844	-0.154855	-0.21875	0.157471	-0.78418
784.0	7.856045	1.436301	4.205512	-0.620259	0.55473	-0.176008	-0.209961	0.159668	-0.786621
785.0	8.501379	1.250731	4.29606	-0.607347	0.52511	-0.208075	-0.207764	0.164063	-0.781982
786.0	9.331288	1.348346	4.877945	-0.517934	0.538752	-0.247585	-0.212646	0.170654	-0.782227
787.0	9.830999	1.0344	5.440468	-0.575046	0.639497	-0.278987	-0.208252	0.172852	-0.787109
788.0	9.427798	0.419534	5.94185	-0.564038	0.657581	-0.304061	-0.208496	0.179688	-0.787354
789.0	8.836024	-0.020212	5.882314	-0.515964	0.370832	-0.315912	-0.201416	0.175293	-0.789551
790.0	8.950916	-0.139796	5.655638	-0.371325	-0.026335	-0.317002	-0.203857	0.179688	-0.791992
791.0	9.389917	0.11672	5.47864	-0.280948	-0.262948	-0.308868	-0.203857	0.17749	-0.789551
792.0	9.661183	0.218499	4.989923	-0.265035	-0.323649	-0.296077	-0.206543	0.186279	-0.787598
793.0	9.76031	0.528042	4.318152	-0.179105	-0.341308	-0.277108	-0.20874	0.188477	-0.7854
794.0	9.897386	1.214054	3.958973	-0.118316	-0.345894	-0.250892	-0.215332	0.183838	-0.785156
795.0	10.37963	1.503456	3.614327	-0.143447	-0.319011	-0.218311	-0.215088	0.179443	-0.784912
796.0	10.992749	1.684743	4.542483	-0.074371	-0.213371	-0.183388	-0.215332	0.183838	-0.787354
797.0	12.056138	1.599732	9.812973	0.285841	0.02173	-0.217555	-0.215088	0.177246	-0.784912
798.0	12.024704	0.141758	10.921681	-0.517215	0.230343	-0.398551	-0.213135	0.181885	-0.789795
799.0	13.165987	-4.964136	7.517368	-0.36431	-0.157569	-0.484149	-0.217529	0.181641	-0.791992
800.0	10.191535	-3.629705	10.871961	0.918885	-0.389256	-0.566631	-0.221924	0.177246	-0.784912
801.0	9.687767	-1.639406	9.395402	0.352578	-1.140782	-0.573205	-0.228271	0.16626	-0.786865
802.0	10.086023	-1.462902	6.31821	0.648892	-1.093218	-0.611522	-0.239258	0.161865	-0.78418
803.0	8.675885	0.565896	6.027192	0.565397	-0.537076	-0.678892	-0.24585	0.159668	-0.786621
804.0	6.973135	0.854814	5.873297	0.225822	0.095238	-0.664819	-0.239014	0.155273	-0.781738
805.0	5.457902	1.14165	7.133165	0.396176	0.310706	-0.641465	-0.23877	0.150635	-0.781494
806.0	5.238464	2.333341	7.453331	0.30827	0.187714	-0.647562	-0.238525	0.144043	-0.790527
807.0	5.805117	1.839959	6.358362	-0.066493	0.286031	-0.530972	-0.240967	0.150635	-0.781494
808.0	5.538957	1.292249	6.352911	0.005223	0.274797	-0.409937	-0.236572	0.148438	-0.774414
809.0	6.305482	1.914042	7.821164	0.237059	-0.382252	-0.274326	-0.245361	0.144043	-0.790527
810.0	8.974171	2.276688	8.039916	0.159471	-0.971702	-0.143885	-0.258789	0.141846	-0.778809
811.0	11.477562	2.04715	7.057027	-0.014069	-0.897599	-0.044346	-0.25415	0.141846	-0.788086
812.0	12.434446	1.448608	6.587191	-0.174701	-0.416539	0.036934	-0.263428	0.14624	-0.786133
813.0	11.72705	0.828873	6.373289	-0.294098	0.102076	0.116806	-0.258789	0.144043	-0.78833
814.0	10.775292	0.293329	6.125843	-0.298168	0.382196	0.198604	-0.259033	0.14624	-0.786133
815.0	10.201937	0.046875	6.050049	-0.25097	0.581326	0.295527	-0.259033	0.14624	-0.790771
816.0	9.049674	-0.57189	6.186897	-0.352819	0.873286	0.390844	-0.250244	0.152832	-0.795654
817.0	7.075394	-1.416717	6.127813	-0.445942	0.987775	0.457613	-0.241455	0.159668	-0.793457
818.0	5.643401	-1.888168	5.996101	-0.303117	0.788587	0.475307	-0.237061	0.161865	-0.788818
819.0	4.836233	-1.737681	5.883081	-0.153804	0.544411	0.467402	-0.228027	0.161865	-0.793701
820.0	3.912049	-1.500164	5.769805	-0.155815	0.31968	0.466741	-0.234863	0.161865	-0.79126
821.0	4.277703	-1.704934	5.286819	-0.083129	-0.109214	0.464188	-0.232422	0.161865	-0.795898
822.0	5.041179	-1.259789	5.163427	0.166975	-0.37759	0.510309	-0.235107	0.168457	-0.789063
823.0	5.211908	-0.787034	5.329224	0.107159	-0.401754	0.57128	-0.239258	0.164063	-0.79126
824.0	5.41258	-0.756715	4.89817	0.053757	-0.464605	0.612856	-0.246338	0.168457	-0.791504
825.0	5.858802	-0.61692	4.684325	0.190502	-0.574358	0.655517	-0.241943	0.172852	-0.782471
826.0	6.478679	-0.203392	4.898022	0.312086	-0.628945	0.680684	-0.248535	0.16626	-0.791504
827.0	7.121753	0.119752	4.886747	0.285494	-0.581689	0.689383	-0.250732	0.164063	-0.786621
828.0	7.679133	0.048353	4.402789	0.246006	-0.504911	0.662604	-0.250488	0.159424	-0.786621
829.0	8.350577	-0.137047	3.968749	0.295914	-0.37258	0.605303	-0.255127	0.161621	-0.786621
830.0	8.960355	-0.274083	3.769211	0.350739	-0.174325	0.523728	-0.257324	0.161621	-0.781982
831.0	9.354139	-0.388186	3.605006	0.382249	0.031488	0.424749	-0.25708	0.157227	-0.786377
832.0	9.396785	-0.470251	3.415876	0.407551	0.189292	0.323538	-0.25708	0.155029	-0.791016
833.0	9.158178	-0.535913	3.220349	0.426359	0.285393	0.234249	-0.25	0.148438	-0.786133
834.0	8.908419	-0.526721	3.106911	0.496149	0.361268	0.161106	-0.250244	0.152832	-0.797852
835.0	8.733958	-0.251436	3.432864	0.590983	0.438277	0.111496	-0.245605	0.148438	-0.79541
836.0	8.773182	-0.107307	3.864836	0.621894	0.556425	0.090788	-0.240723	0.144287	-0.799805
837.0	8.962728	-0.106272	4.144037	0.615382	0.705765	0.0947	-0.243164	0.144043	-0.799805
838.0	8.761114	-0.202129	4.395114	0.599172	0.923325	0.112881	-0.233643	0.133301	-0.801758
839.0	8.405983	-0.496602	4.757169	0.565321	1.008177	0.141779	-0.22876	0.124512	-0.80835
840.0	8.230562	-0.826034	5.104301	0.612939	0.966085	0.153842	-0.224365	0.126709	-0.813232
841.0	8.199943	-0.806612	5.573375	0.683068	0.864131	0.157926	-0.217529	0.122314	-0.80835
842.0	8.13809	-0.523977	5.87219	0.687216	0.696017	0.163197	-0.219482	0.120117	-0.817627
843.0	8.144941	-0.172237	6.024659	0.631994	0.450352	0.187429	-0.207764	0.109131	-0.817139
844.0	8.287638	0.356456	5.809966	0.594654	0.145172	0.214801	-0.210205	0.109131	-0.814941
845.0	8.803231	1.069991	5.676628	0.541537	-0.100784	0.249811	-0.216797	0.104736	-0.823975
846.0	9.187738	1.556561	5.389711	0.372921	-0.182261	0.278473	-0.221191	0.106689	-0.8125
847.0	9.34693	1.477573	4.91008	0.176801	-0.226102	0.298697	-0.216553	0.100098	-0.809814
848.0	9.77007	0.77724	4.277065	0.038506	-0.291222	0.288059	-0.216553	0.100098	-0.819092
849.0	10.250252	-0.13244	3.876497	-0.005585	-0.272235	0.250635	-0.223389	0.102295	-0.816895
850.0	10.809372	-0.973656	4.834381	0.104343	-0.246887	0.196112	-0.225342	0.0979	-0.814453
851.0	12.264298	-1.020825	10.22036	0.463676	-0.139014	0.136558	-0.223145	0.093506	-0.81665
852.0	12.915556	3.123889	11.054946	0.079511	-0.109762	0.269487	-0.227539	0.095703	-0.814453
853.0	13.584211	2.534935	7.719253	-0.509977	-0.420228	0.534537	-0.232178	0.095703	-0.814453
854.0	11.116084	3.178548	9.959176	-0.225472	-0.495801	0.574652	-0.236816	0.102295	-0.810059
855.0	10.125831	2.110817	8.401555	-0.704183	-0.750785	0.489841	-0.237061	0.106689	-0.807861
856.0	9.772779	0.412042	6.08859	-0.422909	-0.532306	0.3623	-0.243896	0.108887	-0.814941
857.0	8.028927	0.893352	6.400874	-0.097111	-0.364369	0.2394	-0.25293	0.108887	-0.814941
858.0	7.04339	0.657608	5.502325	-0.207002	-0.302662	0.197926	-0.250732	0.108887	-0.810059
859.0	6.867358	0.163435	5.838428	0.015671	-0.228358	0.211495	-0.25293	0.106689	-0.807861
860.0	6.687262	0.595314	6.717225	0.056064	-0.162575	0.236142	-0.257568	0.111084	-0.8125
861.0	6.669409	0.577629	5.99332	-0.123097	-0.04553	0.288356	-0.257324	0.106689	-0.807861
862.0	6.63283	0.334974	5.877224	-0.111834	0.017454	0.3564	-0.255371	0.113281	-0.812744
863.0	6.89446	0.436296	6.833398	-0.062389	-0.198065	0.438397	-0.257568	0.113281	-0.810303
864.0	8.207843	0.119381	7.748807	-0.08551	-0.588869	0.502915	-0.264404	0.115479	-0.810303
865.0	9.551415	-0.20459	7.559283	-0.122234	-0.752681	0.509065	-0.264404	0.115479	-0.803467
866.0	10.289041	-0.240803	6.881432	-0.084828	-0.654749	0.403061	-0.275879	0.117432	-0.798828
867.0	12.190087	-1.074034	5.999496	-0.015737	-0.473898	0.164677	-0.280273	0.113037	-0.801025
868.0	12.698267	-0.761126	4.950906	0.173077	0.218488	-0.122879	-0.277832	0.113037	-0.803467
869.0	11.340327	0.570171	5.589721	0.265244	0.780105	-0.405732	-0.270996	0.108643	-0.803223
870.0	9.132751	1.643541	5.852229	0.169413	1.037641	-0.597145	-0.268555	0.106445	-0.80542
871.0	6.936974	2.327455	5.830873	0.090515	1.059802	-0.68802	-0.259277	0.100098	-0.819092
872.0	5.662524	2.51876	5.546058	0.07665	0.828307	-0.705718	-0.261719	0.100098	-0.816895
873.0	4.707637	2.60015	5.398849	0.041425	0.645472	-0.633839	-0.254639	0.0979	-0.81665
874.0	3.857192	2.418818	5.254666	-0.072425	0.456741	-0.499516	-0.254883	0.0979	-0.821289
875.0	3.7687	1.806778	4.955054	-0.04984	0.120665	-0.381121	-0.256836	0.095703	-0.81665
876.0	4.203005	1.6423	4.991085	0.027295	-0.199558	-0.325688	-0.259033	0.093506	-0.821289
877.0	4.898603	1.473794	5.019206	-0.024036	-0.452571	-0.317402	-0.259033	0.091309	-0.818848
878.0	5.647802	0.999991	4.875066	-0.12708	-0.597164	-0.338011	-0.268311	0.095459	-0.818848
879.0	6.39783	0.535731	4.818856	-0.179885	-0.677931	-0.381563	-0.272461	0.088867	-0.816406
880.0	7.235685	0.386068	4.591667	-0.221131	-0.670043	-0.418229	-0.279297	0.093262	-0.814209
881.0	7.666559	0.408202	4.21118	-0.293294	-0.50363	-0.4414	-0.283691	0.08667	-0.811768
882.0	7.74704	0.432495	3.957875	-0.339277	-0.337194	-0.436969	-0.286133	0.095459	-0.814209
883.0	8.002562	0.452368	3.933834	-0.306712	-0.27398	-0.416625	-0.286133	0.093262	-0.81665
884.0	8.440405	0.56257	3.602748	-0.301592	-0.132619	-0.391644	-0.288574	0.097656	-0.812012
885.0	8.614875	0.675639	3.519465	-0.314858	0.098081	-0.362646	-0.292725	0.088867	-0.809326
886.0	8.441398	0.876803	3.553534	-0.33465	0.284561	-0.321983	-0.283936	0.095459	-0.807373
887.0	8.155934	0.938105	3.549621	-0.38545	0.411887	-0.267822	-0.283936	0.095459	-0.812012
888.0	7.946808	0.849078	3.618945	-0.43649	0.502463	-0.207402	-0.288574	0.097656	-0.812012
889.0	7.911227	0.678132	3.788936	-0.466459	0.547575	-0.144732	-0.286377	0.097656	-0.81665
890.0	8.004034	0.606655	4.086236	-0.473965	0.563749	-0.113168	-0.277588	0.104248	-0.823975
891.0	8.046632	0.603494	4.457012	-0.488287	0.599031	-0.094359	-0.275146	0.099854	-0.821533
892.0	8.187798	0.374085	4.638172	-0.523692	0.610136	-0.092928	-0.273193	0.106689	-0.826416
893.0	8.590121	0.048381	4.637592	-0.49906	0.597365	-0.10279	-0.270996	0.108887	-0.823975
894.0	9.2257	0.086589	5.004119	-0.349737	0.60261	-0.137284	-0.266357	0.106689	-0.828613
895.0	9.483713	0.875761	6.244581	-0.185635	0.643135	-0.187033	-0.257324	0.104492	-0.830811
896.0	9.058678	0.916094	6.16147	-0.400102	0.638397	-0.193184	-0.257324	0.106689	-0.828613
897.0	8.415536	0.165998	5.456239	-0.366738	0.420253	-0.192681	-0.259521	0.104492	-0.837891
898.0	8.267238	0.340208	5.493935	-0.217047	0.058344	-0.184807	-0.259766	0.111084	-0.835693
899.0	8.712853	0.571776	5.406284	-0.265002	-0.165585	-0.182811	-0.261963	0.108887	-0.835693
900.0	9.049305	0.486508	4.618356	-0.306856	-0.223979	-0.174684	-0.259766	0.111084	-0.838135
901.0	9.370462	0.870913	4.261864	-0.215638	-0.227052	-0.173059	-0.26416	0.108887	-0.833496
902.0	10.010693	1.411453	4.243596	-0.191739	-0.273324	-0.17082	-0.269043	0.113281	-0.835938
903.0	10.825427	1.719064	4.446523	-0.167584	-0.260754	-0.175736	-0.273193	0.104492	-0.833252
904.0	11.93059	1.810747	7.321413	0.055287	-0.115197	-0.228688	-0.273193	0.108887	-0.831055
905.0	12.264017	1.752848	12.395548	0.018422	0.204228	-0.399765	-0.270996	0.108887	-0.838135
906.0	13.064192	-2.402876	8.845588	-0.742866	-0.096813	-0.552146	-0.277832	0.111084	-0.835693
907.0	12.065935	-4.689229	10.109507	0.53543	-0.364346	-0.629415	-0.277344	0.099854	-0.828369
908.0	10.461383	-2.596789	10.495251	0.420456	-0.953279	-0.618775	-0.286377	0.097656	-0.833008
909.0	10.893202	-2.187319	6.899367	0.601441	-1.062702	-0.584492	-0.290527	0.088867	-0.823242
910.0	9.128614	0.875493	6.32146	0.797718	-0.675232	-0.582571	-0.299316	0.084473	-0.820801
911.0	7.672078	1.566296	6.073888	0.370348	-0.190189	-0.541924	-0.299072	0.077881	-0.822998
912.0	5.980483	1.649832	6.656454	0.355176	0.250304	-0.487358	-0.296631	0.073486	-0.829834
913.0	5.005048	1.896758	7.433135	0.217786	0.257875	-0.438887	-0.301025	0.071289	-0.832031
914.0	5.417819	1.582431	6.447494	0.010435	0.156044	-0.390145	-0.303223	0.068848	-0.824951
915.0	5.542043	1.370896	6.414496	-0.010576	0.225844	-0.303961	-0.298584	0.069092	-0.827148
916.0	5.464334	1.495084	7.287499	-0.028477	-0.0112	-0.198925	-0.305176	0.062256	-0.826904
917.0	6.827186	1.472491	7.640602	0.010932	-0.564423	-0.107433	-0.305176	0.062256	-0.831543
918.0	8.904452	1.759649	7.411726	0.063707	-0.904194	-0.032057	-0.318848	0.06665	-0.82959
919.0	10.790286	1.703724	6.823372	-0.054028	-0.813544	0.046752	-0.312012	0.06665	-0.820068
920.0	11.481166	0.973194	6.602498	-0.192761	-0.347202	0.128759	-0.323486	0.06665	-0.820068
921.0	11.239112	0.170112	6.321066	-0.250992	0.096857	0.176663	-0.31665	0.068848	-0.824951
922.0	10.387119	-0.206096	6.249582	-0.206807	0.461067	0.250028	-0.31665	0.068848	-0.82251
923.0	9.609284	-0.706527	6.214933	-0.217528	0.689902	0.336755	-0.310059	0.071045	-0.824951
924.0	7.715432	-1.284847	6.461702	-0.239095	0.978113	0.452559	-0.305664	0.073486	-0.832031
925.0	5.376783	-1.775197	6.433538	-0.301995	0.91177	0.517012	-0.301514	0.080078	-0.834717
926.0	4.648209	-2.117289	5.810584	-0.135455	0.467133	0.539236	-0.299316	0.084473	-0.834717
927.0	4.422573	-1.748231	5.689456	0.018034	0.193947	0.564154	-0.301514	0.080078	-0.836914
928.0	4.169329	-1.483707	5.563645	-0.013535	-0.03406	0.55466	-0.299072	0.080078	-0.836914
929.0	4.76807	-1.386855	5.222104	0.147014	-0.408765	0.577984	-0.303955	0.08667	-0.834961
930.0	5.333721	-0.797652	5.329486	0.232497	-0.589808	0.594525	-0.303711	0.082275	-0.832275
931.0	5.721803	-0.507596	5.163282	0.141848	-0.66216	0.612292	-0.310791	0.08667	-0.83252
932.0	6.43725	-0.409014	4.744388	0.184077	-0.741241	0.637477	-0.312744	0.084473	-0.827881
933.0	7.122325	0.289395	4.734856	0.361527	-0.769578	0.627586	-0.321777	0.084229	-0.820801
934.0	7.686963	0.850632	4.812556	0.26713	-0.638758	0.625017	-0.328613	0.084229	-0.825439
935.0	8.181258	0.584739	4.157068	0.10972	-0.499731	0.611426	-0.330566	0.077637	-0.822998
936.0	8.667113	0.277175	3.654614	0.174077	-0.335878	0.559133	-0.337646	0.086426	-0.820801
937.0	9.170153	0.245563	3.5249	0.257895	-0.088687	0.481025	-0.337646	0.082031	-0.820801
938.0	9.224819	0.114149	3.474934	0.234507	0.21429	0.400926	-0.333252	0.086426	-0.827881
939.0	8.798165	-0.319172	3.479733	0.286793	0.393466	0.299208	-0.324219	0.084229	-0.825439
940.0	8.307314	-0.505043	3.745329	0.386696	0.372271	0.212697	-0.328613	0.082031	-0.830078
941.0	8.056405	-0.59457	4.032047	0.420457	0.313556	0.14517	-0.325928	0.075439	-0.829834
942.0	8.03617	-0.609832	4.128207	0.438252	0.291428	0.102673	-0.32373	0.075439	-0.829834
943.0	8.204774	-0.636083	4.240532	0.470459	0.325264	0.076116	-0.323486	0.068848	-0.838867
944.0	8.50516	-0.762908	4.445185	0.508898	0.423005	0.071849	-0.325684	0.064453	-0.836426
945.0	8.572754	-0.829846	4.761054	0.516088	0.617866	0.080119	-0.321045	0.062256	-0.831543
946.0	8.279585	-0.90145	5.047349	0.520195	0.75404	0.095585	-0.314209	0.060059	-0.838623
947.0	8.073817	-0.899981	5.188669	0.566616	0.726058	0.105506	-0.311768	0.055664	-0.843018
948.0	8.282547	-0.716126	5.380497	0.654158	0.615463	0.103663	-0.30249	0.05127	-0.842773
949.0	8.557304	-0.290873	5.717235	0.702067	0.499241	0.095712	-0.29541	0.04248	-0.847168
950.0	8.590783	0.158613	5.726886	0.668194	0.345012	0.102257	-0.297607	0.04248	-0.851807
951.0	8.767241	0.591218	5.449283	0.656962	0.112696	0.132861	-0.297119	0.031494	-0.849121
952.0	9.199741	1.007785	5.180776	0.655408	-0.114762	0.16439	-0.301758	0.031494	-0.849121
953.0	9.636648	1.267263	5.031561	0.556621	-0.215807	0.19211	-0.303955	0.033691	-0.844482
954.0	9.836831	1.02912	4.663694	0.394854	-0.26046	0.21575	-0.303711	0.024902	-0.841797
955.0	10.153224	0.386456	4.009391	0.306273	-0.317766	0.230555	-0.310303	0.022705	-0.846436
956.0	10.498115	-0.173993	3.534561	0.296755	-0.30942	0.247734	-0.310547	0.024902	-0.8396
957.0	10.798341	-0.569347	3.606427	0.299701	-0.263055	0.24732	-0.314697	0.016113	-0.841553
958.0	11.277579	-1.083952	5.07383	0.349324	-0.21419	0.25686	-0.314941	0.022705	-0.843994
959.0	12.695249	-1.105337	10.819564	0.61082	-0.005804	0.259474	-0.314697	0.016113	-0.841553
960.0	12.621532	3.301539	10.605027	0.082225	0.028655	0.414213	-0.319336	0.022705	-0.843994
961.0	12.19582	2.854306	7.385728	-0.408927	-0.376727	0.727753	-0.319336	0.022705	-0.839355
962.0	9.410433	3.751496	9.630311	-0.02171	-0.594443	0.789264	-0.324219	0.031494	-0.839844
963.0	9.346928	2.623644	7.493375	-0.482747	-0.86512	0.698892	-0.335693	0.035645	-0.833008
964.0	8.906846	1.071582	6.051518	-0.207565	-0.448032	0.611145	-0.338135	0.037842	-0.840088
965.0	7.032123	1.475088	6.326413	-0.083963	-0.286014	0.543139	-0.342529	0.040039	-0.837646
966.0	6.817127	0.66631	6.222975	-0.128144	-0.365947	0.525821	-0.340332	0.037842	-0.835449
967.0	7.114135	0.387365	6.606544	-0.022355	-0.281604	0.501632	-0.340332	0.042236	-0.830811
968.0	7.443652	0.511346	6.464909	-0.073118	-0.130568	0.495531	-0.342773	0.046631	-0.821777
969.0	7.558016	0.653443	6.640418	-0.040139	-0.042584	0.526007	-0.345215	0.048828	-0.838135
970.0	7.621821	0.883172	6.930297	-0.083337	-0.179552	0.578408	-0.34082	0.049072	-0.838135
971.0	8.74319	-0.06962	7.146199	-0.097937	-0.531655	0.597315	-0.350098	0.057617	-0.83374
972.0	10.264927	-0.65137	7.187482	0.010389	-0.594482	0.53579	-0.350342	0.062256	-0.831543
973.0	10.945131	-0.650539	6.940442	0.021887	-0.385486	0.407369	-0.361572	0.062012	-0.826904
974.0	11.975691	-1.038219	5.97963	-0.025054	-0.106155	0.165523	-0.36377	0.059814	-0.824463
975.0	11.738568	-0.810404	5.221742	0.192393	0.431049	-0.119141	-0.354492	0.053223	-0.828857
976.0	10.339662	0.189631	5.663082	0.256209	0.765356	-0.39328	-0.349854	0.051025	-0.835938
977.0	8.910558	1.06717	5.516413	0.267849	0.894626	-0.604107	-0.340576	0.044678	-0.837891
978.0	7.268811	1.925411	5.597301	0.234028	0.940844	-0.711493	-0.335938	0.044678	-0.842529
979.0	6.10662	2.254153	5.264938	0.191183	0.78684	-0.739756	-0.331299	0.040283	-0.840088
980.0	5.350846	2.331835	5.034474	0.161024	0.620946	-0.692246	-0.324219	0.033691	-0.849121
981.0	4.570706	2.167971	4.985378	0.089182	0.504784	-0.605451	-0.322021	0.031494	-0.844482
982.0	3.628428	2.060568	5.065883	0.054547	0.31778	-0.506301	-0.324219	0.033691	-0.849121
983.0	3.895201	1.696666	4.923539	0.011982	-0.083702	-0.460377	-0.317627	0.035889	-0.846924
984.0	4.73224	1.449623	4.670527	0.053516	-0.36714	-0.454546	-0.326416	0.029297	-0.844238
985.0	5.224976	1.411027	4.880701	-0.047168	-0.448083	-0.475946	-0.328857	0.031494	-0.842041
986.0	5.755562	0.985906	4.796818	-0.19196	-0.572376	-0.504188	-0.331055	0.033691	-0.839844
987.0	6.357235	0.654389	4.579426	-0.243268	-0.616763	-0.519161	-0.331055	0.033447	-0.832764
988.0	6.702802	0.630709	4.345427	-0.289906	-0.525157	-0.512584	-0.342285	0.029053	-0.830322
989.0	6.897871	0.773492	4.135817	-0.338466	-0.469781	-0.488379	-0.349121	0.03125	-0.842041
990.0	7.529432	0.955399	3.756027	-0.339739	-0.479125	-0.445198	-0.349121	0.033447	-0.835205
991.0	8.485647	1.039827	3.408785	-0.353653	-0.379302	-0.406188	-0.344727	0.035645	-0.82373
992.0	9.348027	1.116968	3.312243	-0.370123	-0.117452	-0.367393	-0.353516	0.03125	-0.830566
993.0	9.625509	1.117468	3.217148	-0.429672	0.208597	-0.331117	-0.34668	0.029053	-0.832764
994.0	9.276534	1.149148	3.326777	-0.45133	0.466677	-0.285707	-0.344971	0.040039	-0.835449
995.0	8.879658	1.179502	3.576884	-0.477846	0.603988	-0.213746	-0.340332	0.040039	-0.837646
996.0	8.651271	1.104457	3.876451	-0.515182	0.663985	-0.146789	-0.33374	0.044678	-0.837891
997.0	8.451197	0.895589	4.14814	-0.568559	0.731924	-0.095265	-0.329346	0.049072	-0.840332
998.0	8.158764	0.623899	4.521519	-0.623648	0.776067	-0.066475	-0.325195	0.053467	-0.849854
999.0	8.016796	0.296739	4.61326	-0.671648	0.743589	-0.056095	-0.321045	0.064453	-0.843262
1000.0	8.191141	-0.091955	4.79872	-0.645165	0.681797	-0.06054	-0.312012	0.062256	-0.850098
1001.0	8.633466	-0.011894	5.235406	-0.491735	0.621022	-0.095135	-0.307861	0.073486	-0.84375
1002.0	8.891195	0.79015	6.592056	-0.302826	0.615061	-0.150265	-0.307617	0.069092	-0.852783
1003.0	8.587413	0.840257	6.238153	-0.534196	0.580861	-0.179659	-0.303223	0.069092	-0.855225
1004.0	8.252606	0.036213	5.589802	-0.435278	0.347835	-0.191126	-0.303711	0.080078	-0.85083
1005.0	8.232311	0.183707	5.75787	-0.285441	0.049208	-0.210715	-0.30127	0.075684	-0.855469
1006.0	8.501765	0.179568	5.405232	-0.326977	-0.17701	-0.220189	-0.303711	0.080078	-0.846191
1007.0	9.054219	0.340635	4.690916	-0.271118	-0.324303	-0.224744	-0.301025	0.073486	-0.848389
1008.0	9.502191	0.955269	4.307264	-0.245472	-0.358312	-0.223146	-0.303711	0.082275	-0.848633
1009.0	10.103033	1.425259	3.86899	-0.2688	-0.372622	-0.222013	-0.312744	0.084473	-0.853271
1010.0	10.932271	1.870118	3.689792	-0.268301	-0.324419	-0.225404	-0.310791	0.08667	-0.846436
1011.0	11.505079	2.129861	4.587746	-0.274575	-0.208069	-0.252493	-0.313232	0.091064	-0.848877
1012.0	12.579329	2.080465	9.631364	0.067946	0.001354	-0.34967	-0.315186	0.08667	-0.846436
1013.0	12.023409	1.063951	11.716125	-0.624511	0.250325	-0.553482	-0.312988	0.088867	-0.846436
1014.0	12.857444	-4.275798	8.336085	-0.543204	-0.202961	-0.690036	-0.317627	0.088867	-0.846436
1015.0	10.371947	-3.583167	11.191017	0.734814	-0.560884	-0.790763	-0.322021	0.08667	-0.846436
1016.0	9.807073	-3.005292	9.308546	0.123287	-1.259698	-0.766018	-0.335205	0.082031	-0.836914
1017.0	10.106895	-2.301877	5.913534	0.616928	-1.209828	-0.753257	-0.336914	0.068848	-0.838867
1018.0	8.459473	0.479822	6.040623	0.634537	-0.683869	-0.726416	-0.345947	0.068848	-0.831787
1019.0	6.867566	0.784281	5.704974	0.211722	-0.11673	-0.647361	-0.33667	0.057861	-0.836182
1020.0	5.489101	0.931373	6.447761	0.305997	0.286482	-0.57045	-0.338867	0.057861	-0.836182
1021.0	4.740076	1.892288	7.528575	0.249246	0.28948	-0.528851	-0.334229	0.057861	-0.831543
1022.0	5.322021	1.460736	6.251081	-0.069062	0.218851	-0.453662	-0.334473	0.060059	-0.831543
1023.0	5.511214	0.883501	6.314907	0.013988	0.21348	-0.329026	-0.334229	0.057861	-0.831543
1024.0	6.181928	1.167585	7.571343	0.127761	-0.253097	-0.190586	-0.336426	0.055664	-0.838379
1025.0	8.705417	1.076216	7.912836	0.079087	-0.803758	-0.073453	-0.343506	0.060059	-0.826904
1026.0	11.100054	1.210182	7.153589	0.067505	-0.811197	0.017224	-0.352539	0.062012	-0.829346
1027.0	12.067297	1.058198	6.738841	-0.104854	-0.437555	0.114948	-0.352539	0.062012	-0.822266
1028.0	11.494276	0.434077	6.42411	-0.184749	-0.024674	0.223437	-0.352539	0.059814	-0.826904
1029.0	10.473841	0.054388	6.019542	-0.129827	0.182901	0.328778	-0.350586	0.068848	-0.82251
1030.0	10.042254	-0.019976	6.005056	-0.039842	0.302069	0.427316	-0.345947	0.06665	-0.824707
1031.0	9.323857	-0.45001	6.021748	-0.0866	0.544834	0.530893	-0.346191	0.071045	-0.82959
1032.0	7.540813	-1.350059	5.933957	-0.223315	0.765027	0.611232	-0.3396	0.075439	-0.834473
1033.0	5.891178	-2.118318	5.878091	-0.136219	0.713252	0.643758	-0.333008	0.079834	-0.834473
1034.0	5.010211	-2.222764	5.77643	0.061951	0.423562	0.650778	-0.335205	0.077637	-0.834473
1035.0	4.478359	-2.077165	5.746055	0.105094	0.210246	0.631782	-0.335205	0.079834	-0.829834
1036.0	4.767529	-2.104883	5.368395	0.182372	-0.116872	0.631885	-0.333008	0.084229	-0.830078
1037.0	5.351341	-1.663146	5.345495	0.366093	-0.395678	0.647511	-0.337646	0.082031	-0.827637
1038.0	5.770506	-1.10042	5.37994	0.378576	-0.484104	0.657997	-0.342041	0.082031	-0.825439
1039.0	6.141101	-0.905617	4.970117	0.339338	-0.545439	0.665118	-0.346924	0.088623	-0.825684
1040.0	6.62095	-0.514439	4.728779	0.473589	-0.61769	0.668965	-0.348633	0.075439	-0.825195
1041.0	7.120737	0.274116	4.7043	0.579045	-0.612249	0.663673	-0.353516	0.084229	-0.823242
1042.0	7.677739	0.712152	4.69556	0.506884	-0.561626	0.65853	-0.357666	0.079834	-0.818359
1043.0	8.34296	0.763103	4.376842	0.443895	-0.432198	0.632597	-0.362305	0.07959	-0.818359
1044.0	8.929272	0.876184	3.927433	0.450742	-0.239138	0.600375	-0.35791	0.086426	-0.809326
1045.0	9.305302	1.009534	3.817869	0.397303	0.052626	0.554263	-0.362305	0.079834	-0.825195
1046.0	9.23979	0.797208	3.72558	0.293048	0.325727	0.500888	-0.360107	0.084229	-0.818359
1047.0	8.633611	0.279039	3.593736	0.23646	0.491443	0.442726	-0.34668	0.084229	-0.825439
1048.0	8.100191	-0.144579	3.62512	0.266422	0.490935	0.378481	-0.348877	0.084229	-0.816162
1049.0	7.999864	-0.402933	3.664658	0.320656	0.433113	0.314775	-0.348877	0.084229	-0.827881
1050.0	8.168202	-0.459645	3.684098	0.395503	0.439492	0.25108	-0.341797	0.077637	-0.822998
1051.0	8.294432	-0.369267	3.945828	0.462763	0.540203	0.20052	-0.341797	0.077637	-0.825195
1052.0	8.46203	-0.298799	4.216141	0.474444	0.649568	0.164361	-0.337402	0.079834	-0.829834
1053.0	8.672565	-0.419248	4.25168	0.477035	0.764821	0.137011	-0.328125	0.071045	-0.82959
1054.0	8.684981	-0.544008	4.453009	0.500256	0.928272	0.12567	-0.32373	0.077637	-0.827637
1055.0	8.301187	-0.788583	4.909469	0.5083	1.038061	0.122554	-0.321289	0.068848	-0.836426
1056.0	8.03583	-0.895416	5.261388	0.545231	0.939702	0.113926	-0.310059	0.071045	-0.83667
1057.0	8.117483	-0.608346	5.619585	0.62282	0.726747	0.10065	-0.311768	0.060059	-0.845459
1058.0	8.274946	-0.025552	5.908397	0.593976	0.494504	0.098691	-0.304932	0.057861	-0.850098
1059.0	8.457118	0.577046	5.722275	0.506317	0.246694	0.104097	-0.30957	0.057861	-0.845459
1060.0	8.777619	1.07837	5.513272	0.444443	0.012054	0.103411	-0.311768	0.055664	-0.843018
1061.0	9.172848	1.553312	5.316533	0.349905	-0.146379	0.113346	-0.311523	0.053467	-0.840576
1062.0	9.495664	1.658705	4.866304	0.204206	-0.216297	0.109715	-0.313965	0.057861	-0.84082
1063.0	9.660033	1.233843	4.376683	0.059284	-0.269097	0.096484	-0.311523	0.053467	-0.840576
1064.0	10.207226	0.28723	3.642053	-0.039316	-0.325977	0.069278	-0.318604	0.057861	-0.838379
1065.0	10.585041	-0.474067	3.240915	-0.005691	-0.294459	0.043207	-0.318604	0.057861	-0.83374
1066.0	10.725033	-1.006946	3.528898	0.057447	-0.268739	-0.000831	-0.320801	0.060059	-0.829102
1067.0	11.37996	-1.427865	5.895317	0.184559	-0.258569	-0.029258	-0.320557	0.053467	-0.831299
1068.0	12.356204	-0.663015	12.044462	0.455262	0.001471	-0.021714	-0.325195	0.057861	-0.831543
1069.0	12.505517	3.403569	9.243225	-0.344731	-0.07768	0.205251	-0.322998	0.057861	-0.829102
1070.0	11.276128	2.479558	6.915313	-0.489495	-0.285957	0.497811	-0.327881	0.068848	-0.831787
1071.0	7.525718	3.774674	10.22944	-0.1806	-0.639061	0.574401	-0.334961	0.071045	-0.827393
1072.0	7.722211	2.398648	7.70567	-0.705317	-1.093746	0.538213	-0.339844	0.082031	-0.822998
1073.0	7.878604	1.292448	5.621626	-0.240308	-0.76263	0.508951	-0.344238	0.082031	-0.820801
1074.0	6.977934	2.077608	7.858678	-0.038969	-0.576021	0.451	-0.342285	0.09082	-0.814209
1075.0	6.741824	1.474354	7.291757	-0.551114	-0.512553	0.413862	-0.355957	0.09082	-0.816406
1076.0	6.705219	0.123403	6.348679	-0.513291	-0.321419	0.419168	-0.36084	0.104004	-0.812256
1077.0	6.672436	0.234119	7.164561	-0.304342	-0.319714	0.432046	-0.351563	0.097412	-0.812012
1078.0	7.299242	0.146002	7.708773	-0.314442	-0.509335	0.486154	-0.361328	0.112793	-0.810303
1079.0	8.89901	-0.447798	7.522056	-0.272199	-0.823467	0.510013	-0.369873	0.104004	-0.805176
1080.0	10.783392	-1.208733	7.335616	-0.168941	-0.921816	0.503273	-0.370361	0.11499	-0.796387
1081.0	12.04319	-1.347481	6.908009	-0.079738	-0.584668	0.350499	-0.375	0.117188	-0.798828
1082.0	12.859248	-1.318425	6.22962	-0.07169	-0.128579	0.108559	-0.377441	0.119385	-0.796631
1083.0	12.426646	-0.909478	5.767326	0.076477	0.398902	-0.18923	-0.374756	0.112793	-0.803223
1084.0	10.877881	-0.113474	5.900038	0.092861	0.792391	-0.465953	-0.370605	0.117188	-0.803467
1085.0	9.105662	0.563608	5.757224	0.150258	0.942749	-0.665885	-0.365723	0.108398	-0.803223
1086.0	7.314377	1.757954	5.907989	0.207376	0.931422	-0.759459	-0.365723	0.108398	-0.80542
1087.0	6.207955	2.467517	5.621541	0.159713	0.709277	-0.756576	-0.354248	0.104004	-0.809814
1088.0	5.385798	2.791179	5.412255	0.083671	0.516854	-0.685827	-0.36084	0.099609	-0.81665
1089.0	4.777857	2.651435	5.112275	0.013096	0.328275	-0.594442	-0.356201	0.099609	-0.821289
1090.0	3.823661	2.618102	5.185407	-0.076576	0.214188	-0.507324	-0.356201	0.099609	-0.814453
1091.0	4.251883	2.005928	4.801048	-0.099101	-0.170966	-0.454611	-0.35376	0.095215	-0.812012
1092.0	5.072408	1.857856	4.786937	-0.058413	-0.396184	-0.422445	-0.363037	0.097412	-0.812012
1093.0	5.584284	1.601607	4.870838	-0.239477	-0.437549	-0.433744	-0.365234	0.097412	-0.80957
1094.0	6.040155	0.739719	4.518781	-0.412857	-0.508464	-0.434265	-0.363281	0.106201	-0.810059
1095.0	6.413211	-0.081134	4.279342	-0.419417	-0.51966	-0.451445	-0.369629	0.092773	-0.80249
1096.0	6.59951	-0.27153	4.341644	-0.432024	-0.477304	-0.474933	-0.37207	0.099365	-0.798096
1097.0	6.711801	-0.396523	4.082405	-0.502551	-0.44199	-0.476982	-0.372314	0.104004	-0.802979
1098.0	7.163822	-0.431322	3.676557	-0.467681	-0.442823	-0.471734	-0.37915	0.108154	-0.800781
1099.0	8.02667	-0.151624	3.542007	-0.372566	-0.368614	-0.479972	-0.383545	0.108154	-0.79834
1100.0	9.109608	0.271844	3.575263	-0.398239	-0.128574	-0.474233	-0.37915	0.105957	-0.796143
1101.0	9.528396	0.537143	3.330463	-0.504386	0.252787	-0.469333	-0.37915	0.108154	-0.80542
1102.0	8.982755	0.750912	3.399815	-0.513461	0.552219	-0.439559	-0.377197	0.117188	-0.803467
1103.0	8.314938	1.166683	3.685825	-0.536874	0.63599	-0.375937	-0.375	0.117188	-0.801025
1104.0	8.15207	1.215141	3.793399	-0.598607	0.608625	-0.287709	-0.372803	0.119385	-0.80127
1105.0	8.26172	1.072561	3.823506	-0.623899	0.612582	-0.214748	-0.368652	0.125977	-0.810791
1106.0	8.09366	0.936751	4.110954	-0.671859	0.679547	-0.171786	-0.361816	0.125977	-0.80835
1107.0	7.78729	0.679872	4.295142	-0.74527	0.700051	-0.14773	-0.362305	0.134766	-0.811035
1108.0	7.965304	0.178516	4.27436	-0.76682	0.633038	-0.157708	-0.35791	0.141357	-0.813721
1109.0	8.608752	-0.028367	4.557466	-0.617567	0.554691	-0.186752	-0.355713	0.141602	-0.818359
1110.0	9.03398	0.126845	5.583673	-0.495874	0.577045	-0.218945	-0.348877	0.141602	-0.822998
1111.0	8.91769	-0.073656	6.600624	-0.481573	0.58015	-0.227556	-0.346924	0.148193	-0.827881
1112.0	8.517798	-0.590157	6.174265	-0.490279	0.374375	-0.213543	-0.347168	0.154785	-0.825684
1113.0	8.563042	-0.78754	5.841053	-0.274496	0.025031	-0.205929	-0.349121	0.148193	-0.825439
1114.0	8.744275	-0.444267	5.663823	-0.177111	-0.240482	-0.193422	-0.347168	0.152588	-0.818604
1115.0	9.029954	-0.237072	4.777516	-0.183758	-0.392387	-0.178026	-0.35376	0.148193	-0.825439
1116.0	9.408084	0.211898	4.007507	-0.107437	-0.434098	-0.15359	-0.35376	0.150391	-0.823242
1117.0	9.681971	0.979336	3.70431	-0.099436	-0.393598	-0.131972	-0.358398	0.150391	-0.816406
1118.0	10.239118	1.442582	3.619399	-0.141388	-0.377838	-0.102296	-0.362793	0.150146	-0.813965
1119.0	11.138711	1.873129	5.612225	0.021951	-0.270115	-0.101704	-0.36499	0.147949	-0.813965
1120.0	11.862271	2.853775	11.853198	0.230549	0.087778	-0.240292	-0.363037	0.154785	-0.816406
1121.0	11.806717	-0.479405	9.539619	-1.109834	0.102535	-0.387382	-0.363281	0.161377	-0.814453
1122.0	11.527927	-4.743769	8.487887	0.23773	-0.233152	-0.494462	-0.371826	0.150146	-0.818604
1123.0	9.430144	-1.775737	12.789141	0.856712	-0.89447	-0.609217	-0.380615	0.141357	-0.813721
1124.0	10.649625	-2.860022	8.594807	0.034496	-1.437406	-0.647526	-0.385254	0.145752	-0.811523
1125.0	10.032917	-2.987943	5.796402	0.525302	-1.009672	-0.720284	-0.391602	0.136963	-0.804199
1126.0	8.162684	-0.667439	6.450488	0.578017	-0.585734	-0.78286	-0.398193	0.132324	-0.806396
1127.0	7.276115	0.249571	6.674103	0.422659	-0.133648	-0.785448	-0.402344	0.121338	-0.805908
1128.0	6.359847	1.460967	7.495523	0.47984	0.190517	-0.755118	-0.388428	0.116943	-0.808105
1129.0	6.104869	1.750396	7.077615	0.12878	0.350887	-0.649194	-0.393066	0.119141	-0.812744
1130.0	5.856159	0.96211	6.362316	-0.011947	0.484236	-0.491126	-0.390625	0.112549	-0.805664
1131.0	6.179047	1.197871	7.630381	0.328556	-0.068599	-0.345532	-0.396973	0.101563	-0.809814
1132.0	8.820396	2.024664	8.319993	0.366565	-0.837896	-0.202703	-0.401611	0.105957	-0.810059
1133.0	12.4957	1.90909	7.2281	0.238054	-0.909723	-0.099842	-0.408203	0.10376	-0.802979
1134.0	13.315484	2.018697	6.635308	0.081109	-0.162847	-0.02129	-0.399414	0.105957	-0.80542
1135.0	11.217108	1.648215	6.661337	-0.223949	0.528498	0.066465	-0.401611	0.105957	-0.814697
1136.0	9.148594	0.763023	6.113719	-0.348836	0.578455	0.179604	-0.397461	0.112549	-0.814941
1137.0	8.645337	0.227962	5.781509	-0.18094	0.451528	0.287143	-0.393066	0.114746	-0.817383
1138.0	8.283283	0.010976	5.975235	-0.180388	0.587742	0.403155	-0.388672	0.119385	-0.812744
1139.0	7.14916	-0.988671	5.849553	-0.381743	0.750914	0.501089	-0.379639	0.119385	-0.817383
1140.0	5.806642	-1.879107	5.649256	-0.332839	0.754331	0.567592	-0.377686	0.125977	-0.831543
1141.0	5.059501	-2.128836	5.723833	-0.12934	0.52364	0.592281	-0.377686	0.128174	-0.824707
1142.0	4.389148	-1.962156	5.879397	-0.069866	0.361441	0.599483	-0.380127	0.132568	-0.836426
1143.0	4.362029	-2.143781	5.443579	-0.040484	0.074252	0.597957	-0.375732	0.134766	-0.832031
1144.0	4.882274	-2.013422	5.345767	0.188447	-0.23023	0.639791	-0.373291	0.132568	-0.82959
1145.0	5.283891	-1.401033	5.468683	0.278798	-0.384952	0.670095	-0.375732	0.132568	-0.824951
1146.0	5.564613	-1.104452	5.197228	0.237415	-0.519578	0.708125	-0.382568	0.136963	-0.827393
1147.0	6.167816	-0.896847	4.735019	0.359631	-0.708674	0.735875	-0.382568	0.134766	-0.824951
1148.0	6.986383	-0.409941	4.680816	0.519874	-0.833013	0.756597	-0.38916	0.132568	-0.813232
1149.0	7.724032	0.181125	4.635832	0.549746	-0.772013	0.74796	-0.393555	0.132568	-0.817871
1150.0	8.320711	0.244908	4.429008	0.484726	-0.64038	0.74045	-0.39624	0.141357	-0.818359
1151.0	8.931646	-0.051309	3.938624	0.495624	-0.479934	0.715134	-0.395996	0.132568	-0.815674
1152.0	9.609124	-0.235885	3.736796	0.59263	-0.253669	0.657907	-0.395996	0.136963	-0.813477
1153.0	9.940246	-0.220056	3.61648	0.60498	0.017474	0.577849	-0.397949	0.128174	-0.817871
1154.0	9.844455	-0.58374	3.449305	0.574359	0.241455	0.501788	-0.395996	0.132568	-0.827148
1155.0	9.446592	-0.726683	3.311021	0.637268	0.334652	0.422818	-0.391357	0.128174	-0.827148
1156.0	9.116996	-0.558446	3.294855	0.703937	0.384812	0.344959	-0.393311	0.121582	-0.831543
1157.0	8.911198	-0.347286	3.402678	0.736373	0.461957	0.286477	-0.381836	0.119385	-0.824463
1158.0	8.716093	-0.204596	3.647204	0.76683	0.566863	0.245115	-0.381592	0.11499	-0.828857
1159.0	8.603833	-0.103822	4.020292	0.763476	0.670165	0.209532	-0.37915	0.108398	-0.835693
1160.0	8.379694	-0.060651	4.170181	0.72826	0.808024	0.19485	-0.370117	0.104004	-0.840088
1161.0	7.857942	-0.021853	4.413714	0.706323	0.905703	0.187686	-0.367432	0.097412	-0.849121
1162.0	7.249234	0.054635	4.648317	0.674213	0.905066	0.182349	-0.358398	0.097412	-0.849121
1163.0	7.086979	-0.071487	4.936599	0.624309	0.779893	0.175269	-0.35376	0.093018	-0.855957
1164.0	7.232509	-0.073674	5.237836	0.625938	0.646405	0.148005	-0.34668	0.086426	-0.855713
1165.0	7.399133	0.194186	5.389352	0.61313	0.529313	0.11974	-0.344482	0.084229	-0.85791
1166.0	7.643557	0.580481	5.438242	0.582002	0.354365	0.098508	-0.339844	0.082031	-0.85791
1167.0	7.852733	1.094669	5.337825	0.556406	0.17179	0.092647	-0.3396	0.075439	-0.864502
1168.0	8.021796	1.386934	5.268391	0.495658	-0.020047	0.11026	-0.339355	0.071045	-0.862061
1169.0	8.360796	1.470321	4.994125	0.445966	-0.194797	0.140527	-0.341553	0.071045	-0.864502
1170.0	8.689645	1.171682	4.786545	0.363868	-0.302533	0.176969	-0.339111	0.064453	-0.871094
1171.0	9.297481	0.420115	4.309589	0.284133	-0.395251	0.194052	-0.34375	0.064453	-0.868896
1172.0	9.840718	-0.229557	3.787152	0.301953	-0.4189	0.198777	-0.352783	0.06665	-0.864258
1173.0	10.422777	-0.860172	3.375048	0.350253	-0.404973	0.186492	-0.352295	0.057861	-0.87085
1174.0	11.090648	-1.340859	3.381843	0.45097	-0.351044	0.170547	-0.356689	0.055664	-0.861572
1175.0	11.978792	-1.798228	4.935401	0.582465	-0.233311	0.151443	-0.354492	0.053467	-0.856934
1176.0	13.67071	-2.250616	11.605682	0.869079	0.115769	0.146804	-0.356445	0.046875	-0.868164
1177.0	13.601129	2.651676	11.174996	0.273935	0.358368	0.252961	-0.354248	0.049072	-0.870605
1178.0	13.66328	3.352377	7.390763	-0.193179	-0.168043	0.63041	-0.356445	0.049072	-0.872803
1179.0	9.629486	6.685006	11.773494	0.486106	-0.511874	0.853904	-0.363281	0.048828	-0.865967
1180.0	9.293338	6.085496	9.86122	-0.806138	-1.273324	0.856213	-0.368164	0.059814	-0.859375
1181.0	9.851395	1.837093	4.615449	-0.909912	-0.669196	0.746274	-0.373047	0.068604	-0.862061
1182.0	7.044027	0.9673	5.516873	-0.222445	-0.174814	0.602334	-0.377686	0.068604	-0.857422
1183.0	5.83589	0.77765	7.516507	-0.302056	-0.339718	0.444858	-0.377686	0.072998	-0.864502
1184.0	6.411742	-0.161561	6.425807	-0.407464	-0.316078	0.371766	-0.380371	0.07959	-0.857666
1185.0	6.486191	0.034483	6.683362	-0.22949	-0.104436	0.330023	-0.377686	0.072998	-0.859863
1186.0	6.546421	0.41727	6.779126	-0.246351	-0.092439	0.321249	-0.382813	0.084229	-0.860352
1187.0	6.890981	0.421262	6.839947	-0.286083	-0.290516	0.347136	-0.38501	0.086426	-0.860352
1188.0	8.24402	-0.26007	6.952654	-0.252151	-0.63324	0.363677	-0.391846	0.088379	-0.862793
1189.0	10.073984	-0.747344	7.137414	-0.132652	-0.772639	0.31633	-0.394043	0.086182	-0.839355
1190.0	11.189871	-0.686903	7.097546	-0.164166	-0.566613	0.22834	-0.396484	0.088379	-0.851074
1191.0	11.351795	-0.750518	6.311663	-0.213587	-0.235064	0.093716	-0.403076	0.086182	-0.855713
1192.0	11.577897	-0.531059	5.692045	-0.120149	0.087211	-0.119311	-0.398682	0.090576	-0.855957
1193.0	11.001185	-0.028093	5.658454	-0.0376	0.558503	-0.345609	-0.398682	0.086182	-0.867188
1194.0	9.276696	0.816159	5.846144	-0.044121	0.833799	-0.524401	-0.389893	0.09082	-0.867432
1195.0	7.516601	1.69169	5.874709	-0.040666	0.805599	-0.638696	-0.386963	0.07959	-0.869385
1196.0	6.566217	2.119581	5.63902	-0.068011	0.597951	-0.675186	-0.380127	0.077637	-0.874023
1197.0	6.051517	2.131184	5.411932	-0.121675	0.478941	-0.657865	-0.382324	0.075439	-0.880859
1198.0	5.493534	1.950086	5.23472	-0.170189	0.412666	-0.607448	-0.375488	0.073242	-0.878418
1199.0	4.934303	1.845406	5.238086	-0.207042	0.262665	-0.549433	-0.377686	0.071045	-0.878418
1200.0	4.701442	1.843923	5.217422	-0.219622	0.025442	-0.518149	-0.377686	0.071045	-0.875977
1201.0	5.353199	1.625588	5.030279	-0.264871	-0.27223	-0.510849	-0.38208	0.068604	-0.878174
1202.0	6.174469	1.249525	4.83886	-0.321304	-0.448131	-0.530751	-0.386719	0.070801	-0.875977
1203.0	6.681291	0.852933	4.814757	-0.427294	-0.468975	-0.550893	-0.384766	0.075439	-0.878418
1204.0	7.171249	0.341215	4.453412	-0.513506	-0.492174	-0.571165	-0.388916	0.066406	-0.873535
1205.0	7.615894	0.14129	4.217129	-0.484489	-0.496879	-0.579929	-0.400146	0.070801	-0.873779
1206.0	8.020459	0.157409	4.19614	-0.502254	-0.405273	-0.583741	-0.402588	0.075195	-0.866943
1207.0	8.291817	0.182375	3.966437	-0.506711	-0.321041	-0.569083	-0.404785	0.070801	-0.873779
1208.0	8.752091	0.14876	3.846986	-0.470325	-0.220283	-0.547428	-0.402588	0.070801	-0.873779
1209.0	9.056173	0.251307	3.754851	-0.470833	-0.049859	-0.514758	-0.402588	0.072998	-0.869141
1210.0	9.073636	0.259764	3.607391	-0.509525	0.162861	-0.475386	-0.404785	0.072998	-0.871338
1211.0	8.743119	0.338462	3.564153	-0.492859	0.311262	-0.441119	-0.400391	0.075195	-0.869141
1212.0	8.358413	0.466605	3.690092	-0.508297	0.372516	-0.394593	-0.400391	0.075195	-0.873779
1213.0	8.110556	0.329327	3.613352	-0.556949	0.414955	-0.34653	-0.39624	0.081787	-0.876465
1214.0	7.970646	0.353964	3.718428	-0.552136	0.43794	-0.305607	-0.391357	0.075195	-0.885498
1215.0	7.948175	0.382594	3.916167	-0.571264	0.46933	-0.264219	-0.391602	0.079834	-0.887939
1216.0	7.795799	0.376843	4.09585	-0.599512	0.5293	-0.243023	-0.38501	0.086426	-0.888184
1217.0	7.834338	0.266931	4.270616	-0.595165	0.550534	-0.229795	-0.38501	0.086426	-0.892822
1218.0	8.062512	0.148215	4.441802	-0.545059	0.585238	-0.231191	-0.376221	0.088623	-0.888184
1219.0	8.240797	-0.03639	4.619037	-0.533637	0.666898	-0.227384	-0.375977	0.084229	-0.899658
1220.0	8.282733	-0.191353	4.766829	-0.479737	0.687558	-0.221623	-0.367188	0.09082	-0.899902
1221.0	8.329948	0.20663	5.469516	-0.282506	0.584484	-0.227815	-0.367188	0.086426	-0.911377
1222.0	8.218205	0.781921	6.250578	-0.232641	0.462329	-0.212337	-0.364746	0.084229	-0.904297
1223.0	7.956803	0.536971	5.78426	-0.358812	0.300403	-0.167742	-0.362793	0.09082	-0.91626
1224.0	7.869044	0.185078	5.494894	-0.244816	0.038041	-0.116748	-0.360596	0.093018	-0.906982
1225.0	8.185864	0.419891	5.536766	-0.197564	-0.159886	-0.068814	-0.36499	0.088623	-0.904541
1226.0	8.584349	0.397608	5.10568	-0.247349	-0.243048	-0.035709	-0.367432	0.093018	-0.911621
1227.0	8.852407	0.583657	4.537584	-0.203578	-0.25384	-0.004218	-0.369629	0.093018	-0.906982
1228.0	9.242422	1.058611	4.261426	-0.166392	-0.277579	0.009939	-0.374268	0.099609	-0.902588
1229.0	9.930591	1.289076	3.733912	-0.187197	-0.299504	0.012346	-0.376465	0.093018	-0.904785
1230.0	10.571714	1.290057	3.511035	-0.190597	-0.244241	-0.004976	-0.376709	0.099609	-0.902588
1231.0	11.011465	1.26798	3.959891	-0.191608	-0.139331	-0.044232	-0.378662	0.093018	-0.902344
1232.0	11.723291	1.27864	6.748468	0.06017	-0.00985	-0.121709	-0.376465	0.093018	-0.902344
1233.0	11.981432	1.667794	10.894226	0.027505	0.24813	-0.299579	-0.380859	0.093018	-0.904785
1234.0	11.949042	-2.156994	7.650285	-0.765766	0.042501	-0.417787	-0.376221	0.088623	-0.904541
1235.0	10.431903	-4.409359	8.510196	0.542683	-0.363826	-0.494327	-0.389648	0.086426	-0.90918
1236.0	9.425654	-1.660799	10.966479	0.614286	-1.061319	-0.535204	-0.393799	0.077637	-0.904053
1237.0	10.827613	-1.939913	7.254102	0.282109	-1.166786	-0.531301	-0.404541	0.062012	-0.901123
1238.0	9.299381	-0.491703	6.48069	0.534034	-0.61703	-0.52258	-0.411133	0.062012	-0.894287
1239.0	7.092025	0.35054	7.158132	0.388369	-0.336784	-0.521033	-0.41333	0.059814	-0.894287
1240.0	6.249277	0.774777	6.693484	0.32709	-0.180516	-0.525171	-0.412842	0.048828	-0.893799
1241.0	5.784445	0.917087	6.830096	0.316316	0.013823	-0.499329	-0.4104	0.042236	-0.895752
1242.0	5.759791	0.859371	6.640824	0.154492	0.009132	-0.455103	-0.408203	0.042236	-0.895752
1243.0	6.262185	0.586892	6.324443	0.163038	-0.055188	-0.371737	-0.416992	0.037842	-0.900391
1244.0	6.670607	1.046213	6.81145	0.233827	-0.232903	-0.303219	-0.419189	0.0354	-0.890869
1245.0	8.02879	1.099261	6.884718	0.190098	-0.551348	-0.217288	-0.42334	0.028809	-0.897705
1246.0	9.971005	1.008627	6.713098	0.234647	-0.69351	-0.140347	-0.425537	0.028809	-0.888428
1247.0	11.369966	1.083644	6.590679	0.209005	-0.524849	-0.060693	-0.42749	0.02002	-0.883301
1248.0	11.625502	0.999435	6.560496	0.069319	-0.143177	0.030018	-0.429932	0.024414	-0.885986
1249.0	11.144906	0.565159	6.199498	0.016516	0.147182	0.13011	-0.429688	0.02002	-0.881104
1250.0	10.565035	0.255962	6.209587	0.042589	0.370352	0.24665	-0.425293	0.022217	-0.888184
1251.0	10.083403	-0.18915	6.202529	0.033463	0.490343	0.36526	-0.420654	0.02002	-0.892578
1252.0	8.884385	-0.689556	6.323477	-0.028403	0.707083	0.478718	-0.420898	0.024414	-0.895264
1253.0	7.342338	-1.406722	6.295764	-0.108993	0.722426	0.542676	-0.409668	0.024414	-0.899902
1254.0	6.335297	-1.926247	6.011393	0.017487	0.560991	0.569292	-0.412109	0.03125	-0.900146
1255.0	5.469882	-1.802326	6.166989	0.191442	0.418626	0.58913	-0.416504	0.026611	-0.899902
1256.0	4.728819	-1.600423	6.005122	0.172289	0.228726	0.591083	-0.412109	0.028809	-0.897705
1257.0	4.915581	-1.682951	5.449671	0.249567	-0.076644	0.596382	-0.409912	0.029053	-0.897705
1258.0	5.581243	-1.436306	5.410647	0.401416	-0.285705	0.624802	-0.412109	0.028809	-0.897705
1259.0	5.926184	-0.983636	5.518432	0.400125	-0.259	0.657878	-0.411865	0.024414	-0.897461
1260.0	6.114815	-0.733264	5.192533	0.390968	-0.275024	0.686433	-0.41626	0.022217	-0.897461
1261.0	6.584975	-0.338703	5.029033	0.551793	-0.404422	0.723489	-0.418457	0.017822	-0.899658
1262.0	7.170132	0.17663	5.250102	0.618548	-0.488343	0.730874	-0.422852	0.017822	-0.892578
1263.0	7.869623	0.334649	4.969363	0.563203	-0.460353	0.716117	-0.42749	0.017822	-0.890381
1264.0	8.549859	0.143267	4.472392	0.596753	-0.34017	0.680852	-0.431885	0.015625	-0.894775
1265.0	9.041737	0.318944	4.390848	0.686307	-0.181819	0.646113	-0.429443	0.01123	-0.892334
1266.0	9.203106	0.430179	4.22761	0.671591	0.034049	0.606903	-0.434082	0.015625	-0.892578
1267.0	9.001568	0.239611	4.028469	0.654172	0.208302	0.569023	-0.431396	0.006836	-0.887451
1268.0	8.697043	0.139364	4.004289	0.684959	0.302816	0.540985	-0.429199	0.006836	-0.89209
1269.0	8.302886	0.068452	4.032586	0.684014	0.353314	0.517076	-0.426758	0.002441	-0.896729
1270.0	8.092386	-0.064868	3.966038	0.698069	0.360172	0.491885	-0.428711	-0.00415	-0.891846
1271.0	8.164895	-0.076466	4.005559	0.758517	0.377305	0.469781	-0.419434	-0.010742	-0.900879
1272.0	8.373281	0.106403	4.201638	0.7969	0.437744	0.442826	-0.423828	-0.017334	-0.898193
1273.0	8.450695	0.225528	4.250976	0.774546	0.54276	0.412201	-0.419434	-0.010742	-0.900879
1274.0	8.203653	0.294943	4.18343	0.749301	0.635246	0.386242	-0.412354	-0.019531	-0.902832
1275.0	7.875529	0.279457	4.190372	0.753881	0.639266	0.353333	-0.414307	-0.026123	-0.907227
1276.0	7.655533	0.216797	4.247762	0.755812	0.57511	0.322456	-0.405273	-0.02832	-0.907227
1277.0	7.746778	0.198582	4.498201	0.77071	0.479869	0.2835	-0.395996	-0.037109	-0.90918
1278.0	8.057114	0.208764	4.755439	0.76906	0.432604	0.239713	-0.400146	-0.041504	-0.913574
1279.0	8.464981	0.257259	5.007299	0.763245	0.409192	0.201767	-0.397949	-0.045898	-0.911133
1280.0	8.790174	0.458375	5.341048	0.747414	0.392188	0.166506	-0.390869	-0.05249	-0.910889
1281.0	8.890376	0.842905	5.532851	0.711242	0.355602	0.1526	-0.397217	-0.061279	-0.915283
1282.0	8.71108	1.138079	5.658099	0.639058	0.268387	0.14966	-0.390137	-0.067871	-0.915039
1283.0	8.534537	1.228436	5.573248	0.588467	0.134251	0.160624	-0.387939	-0.067871	-0.912598
1284.0	8.380448	1.208349	5.318781	0.54864	0.006369	0.173378	-0.396729	-0.07251	-0.905518
1285.0	8.444294	0.939201	4.917258	0.513422	-0.124767	0.18057	-0.398438	-0.085693	-0.912109
1286.0	8.753573	0.496418	4.410787	0.499507	-0.20501	0.180173	-0.391846	-0.081299	-0.912109
1287.0	9.156933	0.020633	3.942124	0.506902	-0.213882	0.178635	-0.393799	-0.087891	-0.907227
1288.0	9.671274	-0.330018	3.655843	0.502246	-0.178316	0.172012	-0.398193	-0.090088	-0.909424
1289.0	10.198133	-0.64439	3.456992	0.502477	-0.100159	0.172813	-0.405029	-0.090088	-0.904785
1290.0	10.600326	-0.803914	3.384261	0.496309	-0.011138	0.176196	-0.404785	-0.094482	-0.900146
1291.0	11.083542	-0.910696	4.327838	0.528145	0.026251	0.201261	-0.402344	-0.101074	-0.899902
1292.0	11.937314	-0.968831	9.157944	0.686898	0.111829	0.221699	-0.400146	-0.101074	-0.899902
1293.0	11.826233	2.544071	10.368641	0.336749	0.322665	0.338961	-0.399902	-0.107666	-0.904297
1294.0	12.122635	3.672933	7.167729	-0.219248	-0.102835	0.675828	-0.408936	-0.105469	-0.901855
1295.0	9.371772	4.860484	10.182297	0.187195	-0.463912	0.941554	-0.411377	-0.103271	-0.899658
1296.0	8.94402	4.34243	10.741157	-0.585629	-1.347904	0.97201	-0.425049	-0.094727	-0.895508
1297.0	10.647793	0.846889	5.986473	-0.915554	-0.9939	0.812865	-0.432373	-0.08374	-0.891113
1298.0	8.215439	0.378828	5.564848	-0.368389	-0.261749	0.65885	-0.434814	-0.079346	-0.891357
1299.0	5.972985	0.863146	7.224136	-0.252344	-0.283545	0.489862	-0.432861	-0.072754	-0.884521
1300.0	5.863709	0.405843	6.643942	-0.425049	-0.391119	0.37397	-0.439697	-0.070557	-0.891602
1301.0	6.050694	-0.272285	6.456542	-0.387348	-0.239039	0.333171	-0.439697	-0.068359	-0.886963
1302.0	6.122108	-0.450555	6.687017	-0.312896	-0.183996	0.31406	-0.444336	-0.063965	-0.889648
1303.0	6.644753	-0.391925	6.816535	-0.28945	-0.262918	0.29959	-0.446777	-0.063965	-0.88501
1304.0	7.471759	-0.455502	6.843076	-0.312016	-0.319781	0.279063	-0.449219	-0.057373	-0.885254
1305.0	8.206588	-0.658306	7.033417	-0.316906	-0.408201	0.247843	-0.453613	-0.057373	-0.882813
1306.0	8.994018	-0.701248	7.124807	-0.293324	-0.589683	0.192192	-0.456055	-0.055176	-0.880615
1307.0	10.151423	-0.357349	7.021249	-0.21027	-0.653262	0.089839	-0.463135	-0.048584	-0.873779
1308.0	11.262752	0.286057	6.785614	-0.199888	-0.458945	-0.062759	-0.460693	-0.050781	-0.869141
1309.0	11.066286	1.012292	6.460069	-0.268048	0.004477	-0.21403	-0.467529	-0.050781	-0.869141
1310.0	10.922319	1.565669	6.465555	-0.249012	0.277459	-0.386336	-0.467041	-0.05957	-0.875732
1311.0	10.30003	2.288047	6.421987	-0.333603	0.554164	-0.555642	-0.456055	-0.057373	-0.880615
1312.0	8.854941	2.483638	6.334325	-0.488432	0.699225	-0.682923	-0.451416	-0.055176	-0.880615
1313.0	7.440602	2.601981	6.210033	-0.54582	0.660195	-0.765588	-0.44458	-0.057373	-0.885254
1314.0	6.531187	2.614918	6.040855	-0.609864	0.524738	-0.808896	-0.437988	-0.054932	-0.887451
1315.0	6.074545	2.436077	5.964134	-0.695333	0.401672	-0.833428	-0.44043	-0.050537	-0.892334
1316.0	5.79782	2.123115	5.806218	-0.774636	0.262381	-0.857401	-0.433594	-0.052734	-0.889893
1317.0	5.825259	1.7469	5.638701	-0.846459	0.087776	-0.872301	-0.438477	-0.046143	-0.892578
1318.0	6.037805	1.154758	5.520134	-0.908165	-0.066587	-0.895865	-0.429199	-0.04834	-0.887939
1319.0	6.175365	0.626948	5.381871	-0.932329	-0.153926	-0.916522	-0.436279	-0.041748	-0.89502
1320.0	6.295308	0.494524	5.491597	-0.900268	-0.199764	-0.944698	-0.438721	-0.037354	-0.890625
1321.0	6.549285	0.633979	5.459913	-0.944525	-0.24425	-0.978042	-0.434326	-0.037354	-0.892822
1322.0	7.055576	0.669599	5.259571	-0.974298	-0.289297	-0.991573	-0.438721	-0.037354	-0.892822
1323.0	7.513438	0.97744	5.305939	-1.019874	-0.243513	-0.980228	-0.438965	-0.032959	-0.888428
1324.0	7.798527	1.419301	5.322902	-1.119	-0.161892	-0.939625	-0.441162	-0.030762	-0.890869
1325.0	7.939646	1.781434	5.249398	-1.223172	-0.098956	-0.875179	-0.439209	-0.028564	-0.900146
1326.0	8.104486	2.018255	5.139834	-1.309909	-0.038076	-0.807603	-0.441895	-0.015381	-0.88916
1327.0	8.195279	1.87716	4.991837	-1.420235	0.050591	-0.742139	-0.439697	-0.013184	-0.88916
1328.0	8.019151	1.51449	4.812926	-1.488494	0.119502	-0.689492	-0.435547	-0.006592	-0.891602
1329.0	7.993595	1.032402	4.811469	-1.560293	0.122187	-0.675944	-0.431152	0.000244	-0.891846
1330.0	8.122627	0.677554	4.721756	-1.601617	0.111861	-0.687626	-0.431885	0.015625	-0.897217
1331.0	8.215739	0.426447	4.727102	-1.660912	0.109586	-0.728149	-0.43457	0.024414	-0.897461
1332.0	8.408383	0.213716	4.642525	-1.721088	0.113846	-0.801166	-0.437012	0.031006	-0.897705
1333.0	8.297916	0.111278	4.69208	-1.751197	0.158786	-0.888369	-0.435303	0.041992	-0.898193
