Acquisition frequency: 100 Hz
PacketCounter	Acc_X	Acc_Y	Acc_Z	Gyr_X	Gyr_Y	Gyr_Z	Mag_X	Mag_Y	Mag_Z
1.0	5.475619	-2.976014	7.663678	-0.005952	0.017267	-0.007796	-0.606689	0.057373	-0.365967
2.0	5.447233	-2.996569	7.671615	-0.003736	0.01694	-0.010905	-0.606445	0.053223	-0.372314
3.0	5.465475	-2.925841	7.698558	0.007759	0.014139	-0.006267	-0.608887	0.057373	-0.370361
4.0	5.449402	-2.971575	7.674164	-0.010203	0.012004	-0.007834	-0.608887	0.061768	-0.36377
5.0	5.456171	-2.974025	7.697688	-0.007734	0.011839	-0.006043	-0.608643	0.05542	-0.374512
6.0	5.444701	-2.94565	7.652669	-0.000741	0.003608	-0.006341	-0.602051	0.053223	-0.368164
7.0	5.433235	-2.967642	7.628606	-0.010805	0.004499	-0.007985	-0.604492	0.057373	-0.370361
8.0	5.486478	-2.976455	7.636403	0.002266	0.003263	-0.007932	-0.604492	0.05957	-0.370361
9.0	5.455867	-2.923252	7.677099	-0.003209	0.003775	-0.008132	-0.606689	0.061768	-0.370361
10.0	5.44394	-2.995404	7.674407	-0.006113	0.009702	-0.008567	-0.602295	0.05957	-0.370361
11.0	5.455637	-2.970168	7.621594	-0.000351	0.001554	-0.009761	-0.606445	0.053223	-0.372314
12.0	5.390162	-2.986082	7.667182	-0.007933	0.01367	-0.008144	-0.604492	0.057373	-0.368164
13.0	5.362649	-3.057155	7.695379	-0.012239	0.008016	-0.018604	-0.61084	0.055176	-0.370361
14.0	5.416394	-3.01534	7.681971	-0.005289	0.003493	-0.020965	-0.606689	0.061768	-0.372559
15.0	5.451117	-2.945914	7.677284	-0.010465	0.007758	-0.02109	-0.604492	0.05957	-0.370361
16.0	5.451199	-2.945778	7.677279	-0.01609	0.006393	-0.021329	-0.606445	0.052979	-0.365967
17.0	5.520369	-2.857897	7.688818	-0.002035	-0.002381	-0.018392	-0.604492	0.057617	-0.374512
18.0	5.513365	-2.906453	7.686184	-0.032373	-0.0032	-0.015745	-0.608887	0.05957	-0.365967
19.0	5.472142	-2.974706	7.666668	-0.025119	-0.005573	-0.010409	-0.604492	0.057373	-0.370361
20.0	5.491818	-2.905589	7.691969	-0.013672	-0.004666	-0.00783	-0.604248	0.053223	-0.368164
21.0	5.466176	-2.974804	7.641574	-0.031928	-0.01056	-0.009482	-0.606445	0.053223	-0.368164
22.0	5.482043	-2.980437	7.686692	-0.015055	-0.006456	-0.008764	-0.608887	0.05957	-0.368164
23.0	5.498482	-2.982082	7.654939	-0.010025	-0.012594	-0.008682	-0.608887	0.061768	-0.370361
24.0	5.461338	-2.927758	7.671491	-0.013623	-0.008369	-0.005769	-0.613037	0.057373	-0.36377
25.0	5.515908	-2.984495	7.622159	-0.015154	-0.012037	-0.006743	-0.613037	0.057373	-0.368164
26.0	5.493853	-2.98174	7.629036	-0.006417	-0.007041	-0.002496	-0.604492	0.05957	-0.368164
27.0	5.513601	-3.009502	7.619664	-0.009232	-0.006916	-0.006425	-0.606445	0.053223	-0.372314
28.0	5.468062	-3.002734	7.634953	0.005078	0.003155	-0.003999	-0.608887	0.057373	-0.370361
29.0	5.525105	-2.98678	7.644013	0.003297	0.005028	-0.009132	-0.604248	0.053223	-0.370117
30.0	5.475177	-3.003679	7.658838	0.000785	0.00729	-0.005362	-0.606689	0.057373	-0.36377
31.0	5.471156	-2.976557	7.637326	0.011191	0.00806	-0.009202	-0.606689	0.05957	-0.370361
32.0	5.508757	-2.932885	7.655501	0.001621	0.010871	-0.008665	-0.608887	0.05957	-0.365967
33.0	5.477646	-2.977089	7.661811	0.005175	0.008743	-0.006018	-0.608643	0.05542	-0.372314
34.0	5.503937	-2.955538	7.655745	0.004828	0.008699	-0.008157	-0.606445	0.053223	-0.368164
35.0	5.48429	-2.92745	7.665138	0.003202	0.010833	-0.005631	-0.613037	0.055176	-0.365967
36.0	5.476062	-2.97522	7.663669	-0.001535	0.009336	-0.007114	-0.608643	0.057373	-0.361572
37.0	5.479357	-2.950811	7.66519	0.000933	0.009169	-0.005322	-0.608643	0.055176	-0.365967
38.0	5.486839	-2.949375	7.611721	0.000587	0.009125	-0.007461	-0.606445	0.053223	-0.372314
39.0	5.467051	-2.97192	7.64207	0.000933	0.00917	-0.005322	-0.606445	0.053223	-0.368164
40.0	5.49707	-2.976968	7.657943	0.001525	0.005288	-0.006644	-0.606445	0.053223	-0.372314
41.0	5.473826	-2.973224	7.666041	0.002019	0.00721	-0.004466	-0.610596	0.051025	-0.370117
42.0	5.473482	-2.972716	7.666484	0.005226	0.005037	-0.003957	-0.606689	0.057373	-0.370361
43.0	5.477308	-2.947929	7.667763	0.004092	-0.000683	-0.008353	-0.604492	0.057373	-0.370361
44.0	5.473653	-2.971242	7.666933	0.004386	0.003072	-0.008274	-0.608643	0.055176	-0.365967
45.0	5.489061	-2.9717	7.636399	0.001179	0.005245	-0.008783	-0.604492	0.061768	-0.372559
46.0	5.492715	-2.947011	7.637758	0.002413	0.005162	-0.007887	-0.61084	0.05542	-0.374512
47.0	5.47716	-2.945284	7.668886	0.001032	0.003368	-0.008823	-0.61084	0.057373	-0.36377
48.0	5.473203	-2.968898	7.668162	-0.000795	0.007334	-0.008397	-0.61084	0.057373	-0.368164
49.0	5.472936	-2.968364	7.668559	0.00098	0.00708	-0.010882	-0.608887	0.05957	-0.36377
50.0	5.446005	-2.938495	7.654491	-0.003458	0.007717	-0.004669	-0.604248	0.055176	-0.368164
51.0	5.499076	-2.947242	7.662434	-0.006565	0.004085	-0.008678	-0.613037	0.053223	-0.374512
52.0	5.483619	-2.946055	7.693275	-0.00459	0.001997	-0.009065	-0.613037	0.055176	-0.370361
53.0	5.479939	-2.91988	7.671135	-0.008341	0.00434	-0.006193	-0.608643	0.053223	-0.370117
54.0	5.495039	-2.971807	7.661404	-0.011203	0.006556	-0.004564	-0.601807	0.048828	-0.361572
55.0	5.468266	-2.94264	7.646953	-0.006366	0.002253	-0.006579	-0.610596	0.051025	-0.370117
56.0	5.506161	-2.950529	7.685412	-0.009522	0.000713	-0.00503	-0.61084	0.055176	-0.368164
57.0	5.491367	-2.946678	7.638856	-0.010755	0.000797	-0.005926	-0.608643	0.057373	-0.361572
58.0	5.494922	-2.973288	7.660913	-0.005727	0.006053	-0.00436	-0.61084	0.053223	-0.370117
59.0	5.491061	-2.947137	7.638898	-0.006565	0.00409	-0.008677	-0.606689	0.061768	-0.370361
60.0	5.509982	-2.974427	7.630376	-0.001339	0.00751	-0.005013	-0.61084	0.057373	-0.365967
61.0	5.505469	-2.951323	7.685603	-0.006564	0.00409	-0.008678	-0.608643	0.051025	-0.368164
62.0	5.482302	-2.948032	7.693456	-0.003805	0.007679	-0.006805	-0.610596	0.051025	-0.365967
63.0	5.490064	-2.946927	7.639697	-0.006418	0.005969	-0.008637	-0.604248	0.055176	-0.365967
64.0	5.504579	-2.951227	7.686277	-0.003659	0.009558	-0.006764	-0.608643	0.052979	-0.36377
65.0	5.470209	-2.919777	7.648832	-0.010263	0.002718	-0.003749	-0.61084	0.055176	-0.368164
66.0	5.489043	-2.947556	7.640187	-0.007902	0.009979	-0.006071	-0.61084	0.055176	-0.368164
67.0	5.480603	-2.948934	7.694321	-0.00834	0.004345	-0.006193	-0.61084	0.053223	-0.368164
68.0	5.495877	-2.950399	7.663514	-0.010316	0.006434	-0.005806	-0.613037	0.055176	-0.370361
69.0	5.488088	-2.948739	7.640417	-0.009971	0.006476	-0.003667	-0.61084	0.052979	-0.36377
70.0	5.472113	-2.948226	7.671357	-0.009825	0.008355	-0.003626	-0.608643	0.055176	-0.368164
71.0	5.483453	-2.973814	7.639604	-0.008194	0.006226	-0.006152	-0.608643	0.052979	-0.365967
72.0	5.486803	-2.950135	7.640801	-0.009825	0.008356	-0.003626	-0.608398	0.050781	-0.359375
73.0	5.482603	-2.974835	7.639816	-0.012437	0.006648	-0.00546	-0.612793	0.051025	-0.368164
74.0	5.474258	-2.926008	7.672856	-0.005728	0.006059	-0.004359	-0.61084	0.055176	-0.36377
75.0	5.500486	-2.955776	7.687459	-0.008048	0.008107	-0.00611	-0.615479	0.061768	-0.368164
76.0	5.469601	-2.950723	7.672188	-0.00736	0.008189	-0.001832	-0.615479	0.05957	-0.368164
77.0	5.495869	-2.930102	7.665823	-0.003606	0.00585	-0.004704	-0.608643	0.052979	-0.365967
78.0	5.465041	-2.975447	7.671444	-0.012093	0.006691	-0.003322	-0.61084	0.057373	-0.370361
79.0	5.491392	-2.95485	7.665014	-0.000251	0.005556	-0.004152	-0.613037	0.055176	-0.368164
80.0	5.467995	-2.951859	7.672896	-0.010714	0.008485	-0.002384	-0.608643	0.055176	-0.36377
81.0	5.490446	-2.955672	7.665375	-0.007505	0.006312	-0.001874	-0.604248	0.053223	-0.368164
82.0	5.482531	-2.953621	7.64252	-0.001193	0.009399	-0.004964	-0.613037	0.055176	-0.370361
83.0	5.504881	-3.007064	7.656295	-0.004002	0.00953	-0.008897	-0.606689	0.05957	-0.368164
84.0	5.465907	-2.901506	7.653443	0.007927	0.012358	-0.004121	-0.606445	0.055176	-0.365967
85.0	5.511041	-2.958096	7.659728	-0.009134	0.010076	-0.006966	-0.608643	0.052979	-0.36377
86.0	5.495493	-3.004141	7.634846	0.000184	0.011195	-0.004025	-0.61084	0.053223	-0.368164
87.0	5.486822	-2.904144	7.647482	0.001963	0.010946	-0.006509	-0.606445	0.053223	-0.370117
88.0	5.478441	-3.002431	7.666989	-0.003223	0.01521	-0.006632	-0.611084	0.05957	-0.36377
89.0	5.504478	-2.930478	7.640255	0.010451	0.010109	-0.007886	-0.608887	0.057373	-0.36377
90.0	5.488033	-2.928909	7.671891	-0.004857	0.01734	-0.004108	-0.608887	0.05957	-0.370361
91.0	5.476071	-2.950574	7.648327	0.002709	0.008945	-0.007792	-0.606445	0.05542	-0.370361
92.0	5.509577	-2.931467	7.665531	-0.001048	0.011284	-0.004922	-0.604248	0.053223	-0.368164
93.0	5.481958	-2.952406	7.672705	-0.005893	0.015587	-0.002909	-0.606689	0.057617	-0.374512
94.0	5.461893	-2.925056	7.682026	0.000929	0.009196	-0.005308	-0.608643	0.053223	-0.368164
95.0	5.507065	-2.931428	7.667351	-0.004805	0.013624	-0.002053	-0.608643	0.05542	-0.372314
96.0	5.479463	-2.952488	7.674456	-0.002828	0.011535	-0.002439	-0.604492	0.057373	-0.36377
97.0	5.482345	-2.928628	7.676064	-0.00584	0.01187	-0.000855	-0.602295	0.057373	-0.370361
98.0	5.493366	-2.954309	7.644574	-0.008997	0.010324	0.000688	-0.61084	0.053223	-0.372314
99.0	5.446535	-2.948611	7.660151	-0.008853	0.012205	0.00073	-0.608643	0.053223	-0.370117
100.0	5.479843	-2.930509	7.677133	-0.007361	0.008196	-0.001837	-0.608643	0.052979	-0.365967
101.0	5.502293	-2.934253	7.669695	-0.008396	0.006441	-0.000639	-0.602051	0.051025	-0.370117
102.0	5.475098	-2.955848	7.676277	-0.010518	0.006651	-0.000296	-0.610596	0.051025	-0.370117
103.0	5.493908	-2.933583	7.646668	-0.010177	0.00669	0.001843	-0.61084	0.055176	-0.370361
104.0	5.489622	-2.958586	7.645609	-0.011409	0.006776	0.000945	-0.608643	0.05542	-0.374512
105.0	5.473447	-2.958494	7.676435	-0.010177	0.006691	0.001844	-0.61084	0.055176	-0.36377
106.0	5.469131	-2.932984	7.654562	-0.008997	0.010329	0.000689	-0.608643	0.05542	-0.372314
107.0	5.461082	-2.98174	7.652528	-0.007846	0.006281	-0.004019	-0.608643	0.052979	-0.36377
108.0	5.482676	-2.938436	7.701351	-0.006875	0.01012	0.000347	-0.61084	0.052979	-0.365967
109.0	5.463484	-2.958715	7.654181	-0.010569	0.010378	-0.002348	-0.610596	0.051025	-0.368164
110.0	5.489469	-2.988765	7.668872	-0.007701	0.008164	-0.003975	-0.61084	0.053223	-0.372314
111.0	5.462268	-2.959564	7.65472	-0.005093	0.009873	-0.002134	-0.606445	0.055176	-0.365967
112.0	5.484579	-2.963081	7.647487	-0.007556	0.010046	-0.003931	-0.606445	0.05542	-0.370361
113.0	5.472028	-2.938166	7.679779	-0.00208	0.00954	-0.003717	-0.61084	0.055176	-0.365967
114.0	5.483341	-2.963353	7.64827	-0.007896	0.010009	-0.006071	-0.608887	0.057373	-0.365967
115.0	5.497593	-2.917607	7.674014	-0.005578	0.007956	-0.004317	-0.61084	0.055176	-0.368164
116.0	5.482076	-2.963806	7.649001	-0.004805	0.013637	-0.002046	-0.608643	0.055176	-0.36377
117.0	5.485089	-2.939859	7.650588	-0.004686	0.007833	-0.005558	-0.608643	0.051025	-0.368164
118.0	5.473529	-2.961781	7.626612	-0.004542	0.009715	-0.005514	-0.608643	0.052979	-0.365967
119.0	5.468363	-2.938927	7.682099	-0.003651	0.009592	-0.006754	-0.611084	0.05957	-0.365967
120.0	5.490781	-2.94207	7.674949	-0.003311	0.009629	-0.004615	-0.610596	0.051025	-0.370117
121.0	5.486409	-2.966214	7.674258	-0.005629	0.011684	-0.006368	-0.608643	0.052979	-0.365967
122.0	5.459127	-2.936598	7.660314	-0.001384	0.011265	-0.007051	-0.61084	0.057373	-0.368164
123.0	5.465672	-2.938682	7.684107	-0.003023	0.013394	-0.004525	-0.608887	0.05957	-0.36377
124.0	5.476954	-2.963637	7.652735	-0.003989	0.009558	-0.008893	-0.604248	0.051025	-0.372314
125.0	5.472755	-2.937117	7.631196	-0.001045	0.011304	-0.004911	-0.602295	0.057373	-0.365967
126.0	5.486648	-2.941481	7.67813	-0.003167	0.011514	-0.00457	-0.608887	0.057373	-0.368164
127.0	5.482344	-2.965721	7.677353	-0.008039	0.008134	-0.006117	-0.606445	0.055176	-0.368164
128.0	5.485516	-2.941737	7.678841	-0.002081	0.009547	-0.003715	-0.613037	0.057373	-0.365967
129.0	5.461873	-2.938516	7.686871	-0.004736	0.011566	-0.007608	-0.602295	0.057373	-0.370361
130.0	5.465916	-2.961388	7.632223	-0.005434	0.009844	-0.004273	-0.61084	0.052979	-0.365967
131.0	5.479966	-2.966044	7.678925	-0.005578	0.007962	-0.004318	-0.608643	0.055176	-0.361572
132.0	5.49144	-2.940818	7.626538	-0.00529	0.011728	-0.004228	-0.604248	0.053223	-0.368164
133.0	5.478635	-2.966406	7.679735	-0.005434	0.009846	-0.004273	-0.604492	0.057373	-0.365967
134.0	5.481749	-2.942348	7.681296	-0.003649	0.009601	-0.006753	-0.604248	0.053223	-0.370117
135.0	5.473822	-2.940084	7.658567	-0.004398	0.011607	-0.005468	-0.608643	0.053223	-0.370117
136.0	5.483969	-2.968682	7.704309	-0.003168	0.01152	-0.004568	-0.608643	0.053223	-0.368164
137.0	5.495497	-2.943283	7.651969	-0.004685	0.007842	-0.005558	-0.602051	0.05542	-0.370117
138.0	5.471858	-2.940097	7.659966	-0.003362	0.013369	-0.006662	-0.606201	0.048828	-0.370117
139.0	5.471083	-2.939949	7.660576	-0.001045	0.011313	-0.004907	-0.606445	0.051025	-0.365967
140.0	5.477912	-2.942013	7.684161	-0.004272	0.005803	-0.008983	-0.606689	0.061768	-0.368164
141.0	5.462848	-2.937397	7.638182	-0.003362	0.013371	-0.006662	-0.608643	0.051025	-0.365967
142.0	5.476697	-2.941848	7.68509	-0.004541	0.009728	-0.005513	-0.613281	0.05957	-0.370361
143.0	5.491983	-2.942902	7.654639	-0.00695	0.006171	-0.005265	-0.602295	0.05957	-0.370361
144.0	5.498833	-2.94543	7.67803	-0.006471	0.00809	-0.00308	-0.608643	0.053223	-0.370117
145.0	5.467964	-2.940407	7.662627	-0.008787	0.010148	-0.004834	-0.604492	0.057617	-0.376709
146.0	5.47828	-2.918842	7.687344	-0.005434	0.009852	-0.004273	-0.61084	0.055176	-0.370361
147.0	5.489877	-2.943947	7.655748	-0.003597	0.005877	-0.004703	-0.604248	0.051025	-0.368164
148.0	5.459152	-2.938797	7.640286	-0.007364	0.008214	-0.00184	-0.608643	0.05542	-0.370361
149.0	5.488915	-2.944536	7.656211	-0.006807	0.008057	-0.005219	-0.604248	0.053223	-0.368164
150.0	5.472686	-2.943858	7.687178	-0.005577	0.00797	-0.004318	-0.619629	0.055176	-0.370361
151.0	5.475852	-2.920012	7.688629	-0.006471	0.008093	-0.003079	-0.61084	0.053223	-0.370117
152.0	5.464398	-2.942218	7.664476	-0.0077	0.008181	-0.00398	-0.615234	0.052979	-0.368164
153.0	5.4675	-2.918389	7.665968	-0.005434	0.009856	-0.004272	-0.606445	0.053223	-0.368164
154.0	5.474244	-2.921017	7.689393	-0.009966	0.006507	-0.003688	-0.61084	0.053223	-0.370117
155.0	5.470088	-2.945639	7.688345	-0.007364	0.008216	-0.00184	-0.608643	0.05542	-0.370361
156.0	5.481674	-2.920793	7.635822	-0.011611	0.008635	-0.001163	-0.604492	0.057617	-0.372314
157.0	5.461629	-2.944786	7.665463	-0.010717	0.008515	-0.002402	-0.606445	0.053223	-0.368164
158.0	5.464848	-2.921468	7.666686	-0.013125	0.004957	-0.002158	-0.604248	0.053223	-0.372314
159.0	5.445089	-2.945489	7.696104	-0.009772	0.00466	-0.001595	-0.604248	0.055176	-0.368164
160.0	5.506505	-2.953442	7.650385	-0.013876	0.006964	-0.000872	-0.61084	0.057373	-0.370361
161.0	5.452659	-2.945748	7.642246	-0.009488	0.008429	-0.0015	-0.602051	0.055176	-0.368164
162.0	5.482445	-2.951979	7.65798	-0.014019	0.005081	-0.000919	-0.611084	0.057617	-0.374512
163.0	5.478303	-2.977054	7.656725	-0.014069	0.008817	-0.002964	-0.606689	0.057373	-0.365967
164.0	5.435482	-2.947403	7.672969	-0.007649	0.004453	-0.001932	-0.608887	0.057373	-0.370361
165.0	5.47391	-2.951812	7.634889	-0.008928	0.008278	-0.004878	-0.608643	0.051025	-0.374512
166.0	5.484342	-2.980954	7.680158	-0.008878	0.004543	-0.002834	-0.608643	0.05542	-0.376709
167.0	5.457405	-2.951967	7.665709	-0.008736	0.006427	-0.002786	-0.604248	0.05542	-0.376709
168.0	5.502989	-2.958734	7.65087	-0.009822	0.008401	-0.003639	-0.608887	0.057373	-0.372314
169.0	5.472171	-2.95395	7.635309	-0.010717	0.008522	-0.0024	-0.606689	0.05957	-0.365967
170.0	5.482411	-2.932706	7.66	-0.007222	0.010108	-0.001788	-0.606689	0.057373	-0.372314
171.0	5.485454	-2.959568	7.682162	-0.010299	0.006487	-0.005827	-0.608643	0.051025	-0.370117
172.0	5.454911	-2.954684	7.666437	-0.010107	0.004634	-0.003735	-0.613037	0.057617	-0.374512
173.0	5.481105	-2.934291	7.660328	-0.009346	0.01032	-0.00145	-0.610596	0.051025	-0.370117
174.0	5.476901	-2.958928	7.659266	-0.00907	0.006399	-0.004925	-0.604492	0.05957	-0.368164
175.0	5.453513	-2.956225	7.666838	-0.007841	0.00631	-0.004024	-0.608887	0.057373	-0.365967
176.0	5.476086	-2.959774	7.659521	-0.008594	0.008316	-0.002737	-0.61084	0.053223	-0.370117
177.0	5.491456	-2.960927	7.629023	-0.005717	0.006101	-0.004361	-0.606445	0.055176	-0.365967
178.0	5.478959	-2.936035	7.661194	-0.00412	0.007715	-0.008929	-0.615234	0.055176	-0.365967
179.0	5.482116	-2.962455	7.683432	-0.005576	0.007987	-0.004312	-0.604248	0.05542	-0.370117
180.0	5.45503	-2.933137	7.669223	-0.005576	0.007987	-0.004312	-0.600098	0.05957	-0.368164
181.0	5.500569	-2.939449	7.654628	-0.004539	0.009752	-0.005501	-0.604248	0.053223	-0.372314
182.0	5.47691	-2.936558	7.662459	-0.007557	0.010083	-0.003926	-0.61084	0.053223	-0.370117
183.0	5.472652	-2.960893	7.661542	-0.005767	0.009843	-0.006403	-0.613281	0.061768	-0.370361
184.0	5.468482	-2.934703	7.639947	-0.007558	0.010084	-0.003926	-0.608887	0.057373	-0.368164
185.0	5.475078	-2.937128	7.66355	-0.002415	0.009545	-0.005837	-0.612793	0.048828	-0.368164
186.0	5.47086	-2.961305	7.662663	-0.007891	0.010055	-0.006066	-0.608643	0.053223	-0.370117
187.0	5.489807	-2.938202	7.633564	-0.005576	0.00799	-0.004312	-0.604248	0.055176	-0.365967
188.0	5.4663	-2.935351	7.641259	-0.008032	0.008171	-0.006116	-0.608643	0.052979	-0.361572
189.0	5.476527	-2.96423	7.686733	-0.003311	0.009667	-0.004598	-0.606445	0.052979	-0.365967
190.0	5.438596	-2.956479	7.648121	-0.003785	0.007752	-0.006788	-0.61084	0.053223	-0.370117
191.0	5.472012	-2.937704	7.665519	-0.004871	0.009728	-0.00764	-0.606689	0.05957	-0.372314
192.0	5.471503	-2.937569	7.665933	-0.002748	0.009519	-0.007976	-0.606445	0.05542	-0.374512
193.0	5.494147	-2.940541	7.65882	-0.003593	0.005897	-0.004697	-0.606445	0.053223	-0.372314
194.0	5.490242	-2.964434	7.657818	-0.002325	0.007486	-0.011404	-0.608887	0.05957	-0.372314
195.0	5.482579	-2.961799	7.635067	-0.001047	0.011346	-0.004883	-0.61084	0.053223	-0.370117
196.0	5.480604	-2.915054	7.69193	-0.00624	0.007935	-0.008592	-0.608643	0.055176	-0.368164
197.0	5.495935	-2.966369	7.682251	-0.00454	0.009761	-0.0055	-0.61084	0.057373	-0.365967
198.0	5.484637	-2.937601	7.637511	-0.003644	0.009642	-0.006737	-0.61084	0.053223	-0.372314
199.0	5.468244	-2.936696	7.668593	-0.002748	0.009523	-0.007975	-0.608887	0.05957	-0.365967
200.0	5.464144	-2.960812	7.667644	-0.006804	0.008085	-0.005215	-0.608887	0.057373	-0.368164
201.0	5.483138	-2.937628	7.638577	-0.006995	0.009943	-0.007305	-0.604248	0.051025	-0.370117
202.0	5.47758	-2.915037	7.694091	-0.00166	0.007549	-0.007122	-0.604492	0.05957	-0.365967
203.0	5.489377	-2.940023	7.662438	-0.012471	0.010453	-0.007538	-0.61084	0.055176	-0.368164
204.0	5.462222	-2.96131	7.668821	-0.003784	0.007759	-0.006787	-0.606445	0.055176	-0.36377
205.0	5.47621	-2.915332	7.694955	-0.003784	0.00776	-0.006787	-0.604492	0.057373	-0.368164
206.0	5.488084	-2.940291	7.663261	-0.009259	0.008269	-0.00702	-0.61084	0.053223	-0.368164
207.0	5.471655	-2.939823	7.694183	-0.005437	0.009884	-0.004261	-0.606445	0.052979	-0.365967
208.0	5.483446	-2.964728	7.662572	-0.005011	0.007852	-0.007689	-0.617188	0.048828	-0.372314
209.0	5.479568	-2.938324	7.640871	-0.006048	0.006084	-0.006503	-0.61084	0.05542	-0.374512
210.0	5.459794	-2.961964	7.670298	-0.010627	0.006475	-0.007974	-0.613037	0.05542	-0.372314
211.0	5.485997	-2.941264	7.664383	-0.007561	0.010095	-0.003926	-0.606445	0.055176	-0.365967
212.0	5.439342	-2.935329	7.67952	-0.003784	0.007764	-0.006786	-0.610596	0.051025	-0.365967
213.0	5.485084	-2.941345	7.665005	-0.005011	0.007855	-0.007689	-0.613037	0.053223	-0.368164
214.0	5.461715	-2.938278	7.672638	-0.005151	0.005969	-0.00774	-0.613037	0.057373	-0.370361
215.0	5.484369	-2.941433	7.665482	-0.007892	0.01007	-0.006066	-0.61084	0.052979	-0.365967
216.0	5.49102	-2.943863	7.689028	-0.003784	0.007766	-0.006785	-0.610596	0.051025	-0.368164
217.0	5.463987	-2.914396	7.674808	-0.005908	0.007975	-0.006451	-0.606445	0.051025	-0.370117
218.0	5.467178	-2.941041	7.696899	-0.008171	0.006297	-0.006169	-0.608643	0.055176	-0.368164
219.0	5.45597	-2.963145	7.672562	-0.007562	0.010099	-0.003925	-0.604248	0.055176	-0.365967
220.0	5.478603	-2.91584	7.644832	-0.006047	0.00609	-0.006502	-0.608643	0.055176	-0.365967
221.0	5.435634	-2.9364	7.681735	-0.005578	0.008004	-0.00431	-0.61084	0.055176	-0.368164
222.0	5.511539	-2.947969	7.683043	-0.007134	0.008069	-0.007354	-0.606445	0.053223	-0.372314
223.0	5.464971	-2.942034	7.698087	-0.004681	0.007887	-0.005547	-0.608643	0.052979	-0.36377
224.0	5.457332	-2.939767	7.675187	-0.005768	0.009866	-0.006399	-0.602295	0.05957	-0.36377
225.0	5.483467	-2.918719	7.669483	-0.003454	0.007797	-0.004643	-0.602051	0.052979	-0.36377
226.0	5.509606	-2.948381	7.684271	-0.007702	0.008214	-0.003977	-0.606445	0.05542	-0.372314
227.0	5.448807	-2.937908	7.652762	-0.006046	0.006093	-0.006502	-0.608887	0.057373	-0.368164
228.0	5.482114	-2.919387	7.670196	-0.007563	0.010103	-0.003925	-0.61084	0.055176	-0.370361
229.0	5.470769	-2.941539	7.645937	-0.00879	0.010195	-0.004828	-0.606689	0.05957	-0.370361
230.0	5.484472	-2.94647	7.692702	-0.00468	0.007891	-0.005546	-0.608887	0.057373	-0.372314
231.0	5.469732	-2.942052	7.646482	-0.0086	0.008334	-0.00274	-0.606445	0.055176	-0.361572
232.0	5.499385	-2.947824	7.662572	-0.006476	0.008126	-0.003073	-0.604248	0.051025	-0.370117
233.0	5.475802	-2.945217	7.670153	-0.010155	0.008401	-0.005784	-0.604248	0.053223	-0.368164
234.0	5.475334	-2.945453	7.670396	-0.003453	0.007802	-0.004642	-0.608643	0.05542	-0.374512
235.0	5.462601	-2.920806	7.702548	-0.005855	0.004234	-0.004415	-0.604248	0.05542	-0.372314
236.0	5.490505	-2.946624	7.640159	-0.00936	0.01034	-0.001451	-0.604248	0.053223	-0.368164
237.0	5.443739	-2.941203	7.655102	-0.011382	0.008495	-0.006689	-0.613037	0.053223	-0.368164
238.0	5.500152	-2.925971	7.665068	-0.009965	0.006541	-0.003697	-0.613037	0.052979	-0.361572
239.0	5.473147	-2.947609	7.671129	-0.010294	0.006517	-0.005837	-0.611084	0.05957	-0.36377
240.0	5.469107	-2.972051	7.66998	-0.005439	0.009901	-0.004255	-0.611084	0.05957	-0.36377
241.0	5.488199	-2.948912	7.640933	-0.008877	0.004562	-0.002846	-0.604248	0.055176	-0.368164
242.0	5.45223	-2.921771	7.680364	-0.012141	0.010504	-0.005399	-0.613281	0.05957	-0.36377
243.0	5.490876	-2.976206	7.663109	-0.004247	0.00587	-0.008974	-0.602051	0.05542	-0.370117
244.0	5.487117	-2.94992	7.641321	-0.010104	0.004655	-0.00375	-0.61084	0.055176	-0.368164
245.0	5.474213	-2.925753	7.673412	-0.009689	0.010321	-0.00359	-0.606445	0.05542	-0.372314
246.0	5.46299	-2.947885	7.649055	-0.006804	0.008109	-0.005211	-0.612793	0.051025	-0.365967
247.0	5.476768	-2.952968	7.695698	-0.009067	0.006429	-0.004933	-0.604492	0.05957	-0.368164
248.0	5.495884	-2.929851	7.666647	-0.007703	0.008226	-0.003975	-0.606445	0.05542	-0.370361
249.0	5.468671	-2.95127	7.672913	-0.00544	0.009906	-0.004252	-0.611084	0.057617	-0.374512
250.0	5.484207	-2.952099	7.642569	-0.008168	0.006315	-0.006169	-0.611084	0.057373	-0.372314
251.0	5.467675	-2.951972	7.673353	-0.009362	0.010347	-0.001448	-0.608643	0.051025	-0.368164
252.0	5.509768	-2.931734	7.63709	-0.006232	0.007974	-0.008587	-0.608887	0.057373	-0.370361
253.0	5.440134	-2.973548	7.679778	-0.005716	0.006131	-0.00436	-0.606689	0.057373	-0.365967
254.0	5.500008	-2.933851	7.691391	-0.006666	0.010002	-0.005156	-0.61084	0.055176	-0.36377
255.0	5.469299	-2.928755	7.675771	-0.00803	0.008206	-0.006115	-0.604492	0.057373	-0.36377
256.0	5.488388	-2.95607	7.667278	-0.005578	0.008021	-0.004306	-0.612793	0.051025	-0.370117
257.0	5.491332	-2.932114	7.669043	-0.006855	0.011871	-0.007242	-0.608643	0.05542	-0.370361
258.0	5.487277	-2.956394	7.667948	-0.005716	0.006133	-0.00436	-0.604248	0.05542	-0.370117
259.0	5.476274	-2.927733	7.623055	-0.008029	0.008209	-0.006115	-0.602051	0.05542	-0.370117
260.0	5.489793	-2.932971	7.669818	-0.012004	0.012404	-0.005344	-0.613037	0.057373	-0.368164
261.0	5.462529	-2.954566	7.676019	-0.006804	0.008117	-0.00521	-0.606445	0.055176	-0.368164
262.0	5.478108	-2.95538	7.645675	-0.008029	0.008211	-0.006115	-0.613037	0.053223	-0.368164
263.0	5.438485	-2.952205	7.683785	-0.007703	0.008233	-0.003974	-0.608887	0.05957	-0.372314
264.0	5.514282	-2.913119	7.664943	-0.006666	0.010008	-0.005155	-0.608887	0.057373	-0.368164
265.0	5.464008	-2.931461	7.678505	-0.003453	0.007817	-0.004635	-0.604248	0.051025	-0.368164
266.0	5.466904	-2.958165	7.700714	-0.007429	0.012014	-0.003864	-0.604492	0.05957	-0.372314
267.0	5.485847	-2.934911	7.671899	-0.008029	0.008214	-0.006115	-0.606445	0.055176	-0.36377
268.0	5.481901	-2.959127	7.670739	-0.003778	0.007798	-0.006775	-0.613037	0.055176	-0.370361
269.0	5.46536	-2.958597	7.701644	-0.005766	0.009896	-0.00639	-0.604248	0.052979	-0.36377
270.0	5.507473	-2.938044	7.665574	-0.005766	0.009897	-0.00639	-0.606689	0.057373	-0.365967
271.0	5.483888	-2.935134	7.673213	-0.005003	0.007893	-0.007681	-0.604492	0.05957	-0.370361
272.0	5.456862	-2.95635	7.679363	-0.005903	0.008008	-0.006445	-0.608887	0.057373	-0.370361
273.0	5.482997	-2.935284	7.673793	-0.006992	0.009993	-0.007295	-0.604248	0.055176	-0.368164
274.0	5.466482	-2.934745	7.704672	-0.004103	0.007781	-0.008915	-0.606445	0.053223	-0.368164
275.0	5.494453	-2.959945	7.642587	-0.004844	0.013721	-0.001996	-0.608887	0.05957	-0.370361
276.0	5.474154	-2.932989	7.651786	-0.003778	0.007802	-0.006775	-0.61084	0.055176	-0.368164
277.0	5.464694	-2.935009	7.705839	-0.009253	0.008313	-0.007022	-0.601807	0.048828	-0.36792
278.0	5.476713	-2.959963	7.674121	-0.006342	0.010036	-0.003013	-0.610596	0.050781	-0.36377
279.0	5.472633	-2.933642	7.652623	-0.005903	0.008012	-0.006445	-0.608643	0.052979	-0.365967
280.0	5.502323	-2.939121	7.668859	-0.005578	0.008032	-0.004304	-0.61084	0.057373	-0.368164
281.0	5.455745	-2.933484	7.683607	-0.005851	0.004252	-0.004417	-0.604248	0.053223	-0.368164
282.0	5.485471	-2.939015	7.699797	-0.005442	0.009924	-0.004247	-0.606445	0.055176	-0.365967
283.0	5.447889	-2.931276	7.660861	-0.004238	0.005896	-0.008971	-0.606689	0.057373	-0.368164
284.0	5.470524	-2.934195	7.65392	-0.005306	0.011815	-0.004191	-0.615234	0.053223	-0.376709
285.0	5.476918	-2.936821	7.677545	-0.006803	0.008129	-0.00521	-0.608643	0.055176	-0.368164
286.0	5.453339	-2.934058	7.685096	-0.004678	0.007921	-0.005539	-0.608643	0.053223	-0.372314
287.0	5.472482	-2.961092	7.676704	-0.004865	0.009794	-0.007623	-0.604248	0.053223	-0.368164
288.0	5.468386	-2.934645	7.655275	-0.006667	0.010021	-0.005153	-0.610596	0.051025	-0.365967
289.0	5.478369	-2.963819	7.700647	-0.005579	0.008036	-0.004304	-0.61084	0.055176	-0.368164
290.0	5.467275	-2.934857	7.655987	-0.003828	0.011574	-0.0088	-0.606445	0.052979	-0.36377
291.0	5.466611	-2.934901	7.656444	-0.00512	0.009947	-0.002106	-0.608887	0.05957	-0.368164
292.0	5.465956	-2.935041	7.656858	-0.003317	0.009721	-0.004575	-0.61084	0.05542	-0.374512
293.0	5.468937	-2.961707	7.678993	-0.006803	0.008132	-0.00521	-0.615479	0.05957	-0.372559
294.0	5.459211	-2.913186	7.712782	-0.004219	0.009835	-0.00334	-0.608643	0.053223	-0.374512
295.0	5.464314	-2.93547	7.657866	-0.005901	0.00802	-0.006445	-0.604248	0.053223	-0.368164
296.0	5.463844	-2.935706	7.65811	-0.007704	0.008246	-0.003976	-0.61084	0.053223	-0.368164
297.0	5.447314	-2.935484	7.688823	-0.006037	0.00613	-0.006502	-0.608643	0.055176	-0.368164
298.0	5.476979	-2.940954	7.7051	-0.005443	0.009931	-0.004246	-0.608643	0.055176	-0.368164
299.0	5.449914	-2.911525	7.690858	-0.004234	0.005906	-0.008971	-0.608643	0.053223	-0.368164
300.0	5.465671	-2.962754	7.680914	-0.007569	0.01014	-0.003918	-0.604248	0.05542	-0.370117
301.0	5.491645	-2.94184	7.675468	-0.007891	0.010123	-0.006059	-0.604248	0.051025	-0.372314
302.0	5.461094	-2.936734	7.659677	-0.00726	0.006227	-0.007409	-0.608887	0.057373	-0.372314
303.0	5.490879	-2.942385	7.675807	-0.008742	0.00647	-0.002799	-0.606445	0.055176	-0.368164
304.0	5.45114	-2.939419	7.713754	-0.005579	0.008043	-0.004303	-0.608643	0.055176	-0.368164
305.0	5.466806	-2.940189	7.683461	-0.010152	0.008441	-0.005789	-0.606689	0.057373	-0.368164
306.0	5.466398	-2.940334	7.683695	-0.004097	0.007803	-0.008912	-0.613037	0.053223	-0.374512
307.0	5.482011	-2.941001	7.653485	-0.009374	0.010367	-0.001449	-0.602051	0.051025	-0.372314
308.0	5.465335	-2.940944	7.684218	-0.006036	0.006136	-0.006502	-0.608887	0.057373	-0.370361
309.0	5.48457	-2.917512	7.655384	-0.008928	0.008348	-0.004882	-0.613037	0.055176	-0.368164
310.0	5.487601	-2.944405	7.677376	-0.006803	0.008141	-0.005209	-0.612793	0.048828	-0.368164
311.0	5.463956	-2.94182	7.684863	-0.006481	0.008158	-0.003068	-0.604492	0.057373	-0.370361
312.0	5.453025	-2.963777	7.66034	-0.006803	0.008142	-0.005209	-0.608643	0.055176	-0.365967
313.0	5.486099	-2.945275	7.678116	-0.007705	0.008254	-0.003975	-0.599854	0.053223	-0.368164
314.0	5.478705	-2.942924	7.655112	-0.004096	0.007808	-0.00891	-0.602051	0.055176	-0.365967
315.0	5.451697	-2.964194	7.661124	-0.005579	0.008048	-0.004302	-0.604248	0.053223	-0.368164
316.0	5.488176	-2.921405	7.680511	-0.005766	0.009925	-0.006384	-0.608643	0.053223	-0.370117
317.0	5.46678	-2.964834	7.63132	-0.005766	0.009926	-0.006384	-0.608643	0.053223	-0.372314
318.0	5.48359	-2.945621	7.679776	-0.00364	0.009719	-0.00671	-0.613037	0.055176	-0.370361
319.0	5.476062	-2.943147	7.656918	-0.004542	0.009831	-0.005476	-0.606445	0.055176	-0.365967
320.0	5.482447	-2.945582	7.680607	-0.003639	0.00972	-0.00671	-0.613281	0.05957	-0.365967
321.0	5.462009	-2.918673	7.689836	-0.0064	0.013825	-0.005032	-0.61084	0.053223	-0.370117
322.0	5.474035	-2.943252	7.658327	-0.003639	0.009722	-0.006709	-0.608398	0.051025	-0.36377
323.0	5.464263	-2.945186	7.712508	-0.003959	0.009707	-0.008851	-0.606689	0.057373	-0.365967
324.0	5.463583	-2.945137	7.713008	-0.005497	0.013716	-0.006265	-0.606689	0.05957	-0.370361
325.0	5.482589	-2.921399	7.684501	-0.003773	0.00783	-0.006769	-0.602295	0.057373	-0.370361
326.0	5.468196	-2.916556	7.638284	-0.006668	0.010042	-0.00515	-0.604248	0.055176	-0.368164
327.0	5.481487	-2.921658	7.685189	-0.006988	0.010028	-0.007292	-0.61084	0.055176	-0.370361
328.0	5.470544	-2.943413	7.660759	-0.004542	0.009836	-0.005475	-0.613037	0.057373	-0.368164
329.0	5.476947	-2.946018	7.684362	-0.006802	0.00815	-0.00521	-0.608643	0.055176	-0.36377
330.0	5.485834	-2.943957	7.630885	-0.004092	0.007819	-0.008909	-0.613037	0.052979	-0.365967
331.0	5.468962	-2.943676	7.661787	-0.007305	0.013942	-0.003797	-0.608643	0.053223	-0.368164
332.0	5.475125	-2.946363	7.685528	-0.005765	0.009935	-0.006383	-0.606689	0.057373	-0.36377
333.0	5.494196	-2.922672	7.656985	-0.004542	0.009839	-0.005475	-0.606689	0.057373	-0.370361
334.0	5.454224	-2.919578	7.695017	-0.006988	0.010032	-0.007291	-0.611084	0.05957	-0.368164
335.0	5.504395	-2.83124	7.740771	-0.009647	0.00659	-0.001571	-0.608398	0.048828	-0.370117
336.0	5.531463	-2.741688	7.793114	-0.039496	0.003817	0.004932	-0.61084	0.057373	-0.365967
337.0	5.473456	-2.934873	7.762965	-0.091113	0.004998	0.010461	-0.602051	0.055176	-0.368164
338.0	5.63718	-2.820499	7.827481	-0.057174	-0.00397	0.007226	-0.608643	0.052979	-0.365967
339.0	6.037752	-2.16604	8.186767	-0.069075	-0.053666	0.037484	-0.602295	0.05957	-0.370361
340.0	6.355322	-1.636348	8.403214	-0.469738	0.007923	0.141416	-0.613037	0.057373	-0.36377
341.0	5.840281	-2.746938	7.833304	-0.798227	0.086461	0.194105	-0.606934	0.068115	-0.370361
342.0	5.64871	-4.111854	6.985297	-0.8296	0.011897	0.172278	-0.602539	0.068115	-0.365967
343.0	5.540595	-3.449277	7.674938	-0.516233	-0.000582	0.143698	-0.602783	0.07251	-0.368164
344.0	5.17693	-2.794291	7.887882	-0.478628	-0.001652	0.154546	-0.611572	0.070313	-0.368164
345.0	5.97069	-2.965988	7.821396	-0.699838	-0.082111	0.199326	-0.603271	0.083252	-0.361816
346.0	6.22978	-3.100189	7.99088	-0.814877	-0.045448	0.249788	-0.611816	0.081055	-0.359619
347.0	6.117733	-3.291035	7.743546	-0.879275	-0.05772	0.280837	-0.603271	0.085205	-0.361816
348.0	6.140265	-3.698865	7.439622	-0.951956	-0.009191	0.302216	-0.60376	0.093994	-0.361816
349.0	5.618945	-4.11476	7.316658	-0.903415	0.089175	0.289642	-0.60376	0.098145	-0.353027
350.0	5.327903	-4.024853	7.505364	-0.687248	0.101284	0.285669	-0.601563	0.098145	-0.361816
351.0	5.215856	-3.717007	7.303036	-0.538427	0.139934	0.279889	-0.599609	0.100342	-0.361816
352.0	4.955434	-3.88549	7.310341	-0.603293	0.156457	0.272586	-0.602051	0.106934	-0.359619
353.0	5.168031	-4.235575	7.007579	-0.541895	0.126435	0.258599	-0.599854	0.108887	-0.361816
354.0	5.309465	-4.092143	7.354271	-0.343056	0.174915	0.24247	-0.5979	0.115479	-0.364014
355.0	5.351489	-3.945647	7.243325	-0.301811	0.215551	0.233782	-0.589111	0.113281	-0.361816
356.0	5.329729	-3.956982	7.247549	-0.319033	0.247656	0.235169	-0.591797	0.124268	-0.366211
357.0	5.158292	-4.151019	7.018555	-0.301754	0.263083	0.233186	-0.59375	0.12207	-0.368408
358.0	4.834507	-4.249455	7.009883	-0.21101	0.271068	0.211065	-0.596191	0.126221	-0.364014
359.0	4.757245	-4.075598	7.101143	-0.133448	0.238545	0.187846	-0.5896	0.124268	-0.368408
360.0	4.744036	-3.943033	7.243703	-0.107593	0.212236	0.16058	-0.591797	0.124268	-0.366211
361.0	4.956872	-3.877478	7.386382	-0.130269	0.170406	0.140715	-0.585205	0.126221	-0.364014
362.0	5.098413	-3.968326	7.35494	-0.126499	0.168168	0.137778	-0.587891	0.13501	-0.375
363.0	4.809	-3.972013	7.304215	-0.116	0.168677	0.134199	-0.585449	0.128418	-0.368408
364.0	4.688841	-3.861321	7.416793	-0.113662	0.122215	0.13109	-0.585449	0.130615	-0.366211
365.0	4.845878	-4.036849	7.28008	-0.17436	0.064753	0.139828	-0.585449	0.130615	-0.372803
366.0	4.805361	-4.138327	7.211814	-0.159128	0.056667	0.135773	-0.587646	0.132813	-0.370605
367.0	4.708931	-3.988206	7.350324	-0.124942	0.008691	0.125811	-0.58374	0.139404	-0.372803
368.0	4.977738	-4.057627	7.337273	-0.162167	-0.025347	0.123847	-0.58374	0.143555	-0.370605
369.0	4.932441	-4.295825	7.206738	-0.160851	-0.009565	0.107858	-0.587891	0.13501	-0.370605
370.0	4.810812	-4.234104	7.199143	-0.074289	-0.020169	0.088196	-0.592285	0.13916	-0.370605
371.0	4.827151	-4.120209	7.19559	-0.075289	-0.037036	0.07543	-0.58374	0.139404	-0.370605
372.0	4.74179	-4.27986	7.148152	-0.064533	-0.041994	0.044795	-0.585938	0.143555	-0.370605
373.0	4.62927	-4.427533	7.084738	-0.036782	-0.067565	0.022659	-0.587891	0.13501	-0.368408
374.0	4.757843	-4.481119	7.086261	-0.001218	-0.098278	-0.003358	-0.590088	0.137207	-0.368408
375.0	4.810762	-4.456147	7.050292	0.043451	-0.105536	-0.025775	-0.585938	0.13916	-0.368408
376.0	4.741529	-4.476795	7.140099	0.106686	-0.121522	-0.059487	-0.590088	0.136963	-0.366211
377.0	4.931816	-4.567607	7.091006	0.123713	-0.158415	-0.088033	-0.590088	0.136963	-0.366211
378.0	4.97459	-4.763983	7.106778	0.166124	-0.157009	-0.123514	-0.587891	0.136963	-0.364014
379.0	4.685724	-4.973587	7.05596	0.258802	-0.142486	-0.176752	-0.592041	0.132813	-0.364014
380.0	4.701355	-5.317024	7.542861	0.252802	-0.187741	-0.238026	-0.592041	0.128418	-0.366211
381.0	4.914828	-5.79206	7.373045	0.305547	-0.182785	-0.30984	-0.594238	0.130615	-0.361816
382.0	4.261546	-6.049928	7.557544	0.45108	-0.078033	-0.434936	-0.591553	0.119873	-0.361816
383.0	3.524309	-6.019512	8.002343	0.576679	-0.101737	-0.631181	-0.591553	0.117676	-0.366211
384.0	3.263558	-6.056672	8.877647	0.680886	-0.200883	-0.901981	-0.597656	0.109131	-0.372559
385.0	3.094195	-5.85381	10.04516	0.764183	-0.297382	-1.097473	-0.601807	0.102539	-0.368408
386.0	0.842208	-6.85132	13.193621	0.251814	0.068643	-1.157896	-0.599121	0.091797	-0.361816
387.0	1.301756	-4.999681	13.647918	0.731124	-0.04144	-1.202827	-0.599121	0.087646	-0.370361
388.0	-0.336928	-5.908976	11.382111	-0.414974	0.206619	-1.11256	-0.607666	0.085449	-0.372559
389.0	-1.606532	-10.843043	10.113643	-1.498461	-0.192671	-1.161933	-0.603271	0.085449	-0.368164
390.0	-0.241822	-11.250761	10.79857	0.003653	-0.250964	-1.079744	-0.603027	0.079102	-0.374756
391.0	-0.142423	-8.175185	11.405381	0.264636	0.017146	-0.885974	-0.609619	0.079102	-0.376953
392.0	-2.525389	-8.106004	10.212106	-0.450447	0.07449	-0.711055	-0.614014	0.079102	-0.381104
393.0	-4.324532	-8.725936	8.895203	-0.340448	-0.052679	-0.680066	-0.611816	0.081299	-0.385498
394.0	-4.654422	-7.688124	9.221895	-0.183984	-0.229632	-0.698278	-0.616455	0.085693	-0.389893
395.0	-4.099939	-6.908168	10.012818	-0.469936	-0.373836	-0.650187	-0.614502	0.090088	-0.39209
396.0	-3.507229	-7.23225	10.946804	-0.765997	-0.363407	-0.563467	-0.616943	0.10083	-0.396484
397.0	-2.192724	-7.452868	12.587281	-0.994043	-0.300187	-0.322404	-0.613037	0.111816	-0.409668
398.0	-0.146021	-7.635868	13.098937	-1.102486	-0.042887	0.111564	-0.611572	0.128906	-0.411865
399.0	0.481242	-8.775445	12.707068	-1.317475	0.391968	0.579334	-0.599609	0.156982	-0.41626
400.0	0.091394	-9.015118	11.689972	-0.884097	0.794914	1.025105	-0.57666	0.181152	-0.435791
401.0	-0.07795	-7.224487	11.05278	-0.47828	1.020122	1.399446	-0.553955	0.211426	-0.448975
402.0	-0.376089	-5.996683	10.253423	-0.483735	1.111655	1.689236	-0.526611	0.235352	-0.455566
403.0	-0.306259	-5.729884	9.753316	-0.565545	1.018555	1.885243	-0.494873	0.26123	-0.453369
404.0	0.920276	-6.127118	9.555942	-0.591047	0.888282	2.03952	-0.460938	0.282959	-0.453613
405.0	2.09592	-6.528456	9.141698	-0.444454	0.873121	2.196935	-0.429199	0.304443	-0.447021
406.0	2.591963	-6.525864	8.681864	-0.205105	0.901269	2.320589	-0.384277	0.325928	-0.440674
407.0	2.886849	-6.218588	8.180845	-0.030592	0.848662	2.388324	-0.345215	0.332275	-0.418945
408.0	3.03973	-5.811029	7.345164	0.097522	0.746275	2.392557	-0.317139	0.336426	-0.397217
409.0	2.598553	-5.461079	6.329083	0.257609	0.602756	2.286765	-0.284912	0.349365	-0.38208
410.0	2.189735	-4.829413	5.994018	0.383179	0.304888	2.049759	-0.256104	0.340332	-0.351563
411.0	2.946739	-4.062662	6.10227	0.345433	-0.098517	1.771371	-0.230225	0.344482	-0.329834
412.0	4.657284	-4.063601	6.559326	0.08438	-0.445967	1.535819	-0.212646	0.342041	-0.299561
413.0	6.652223	-5.219313	6.920425	-0.137833	-0.606618	1.334599	-0.197266	0.341553	-0.258301
414.0	7.945259	-6.152648	6.9373	0.122354	-0.469396	1.15622	-0.187988	0.33252	-0.223633
415.0	8.530088	-5.519406	7.315487	0.59104	-0.247457	0.987024	-0.183594	0.327637	-0.188721
416.0	9.662907	-4.564899	8.342067	0.41802	-0.152136	0.905308	-0.180908	0.316406	-0.15625
417.0	11.555243	-4.603938	8.289727	0.022822	0.118224	0.987407	-0.18457	0.305176	-0.119385
418.0	11.706312	-5.038158	7.861183	-0.144489	0.691851	1.070075	-0.195068	0.293945	-0.093262
419.0	10.845776	-4.490332	7.067434	-0.146035	1.127558	1.137698	-0.201416	0.293701	-0.06958
420.0	10.071938	-3.691548	5.743578	-0.164631	1.433238	1.082719	-0.212158	0.286865	-0.050049
421.0	8.780804	-3.128476	4.063092	-0.20528	1.678701	0.874917	-0.220703	0.284668	-0.036865
422.0	7.870501	-2.097752	3.192945	-0.081076	1.663292	0.567339	-0.246582	0.280029	-0.021729
423.0	8.311618	-1.140387	2.709018	-0.290009	1.452104	0.27039	-0.26123	0.268799	-0.002197
424.0	9.114625	-1.070829	1.877345	-0.723385	1.300477	0.053434	-0.278809	0.273193	0.001953
425.0	9.044851	-1.593568	0.849796	-0.850561	1.232457	-0.151406	-0.291748	0.268555	0.012939
426.0	8.784158	-1.494379	0.278466	-0.533109	1.054574	-0.375924	-0.31543	0.259766	0.019287
427.0	8.999873	-1.17504	-0.27931	-0.333485	0.753783	-0.579661	-0.321777	0.257568	0.025879
428.0	9.466282	-1.325497	-0.732779	-0.351228	0.407177	-0.785323	-0.336914	0.255127	0.034424
429.0	10.007538	-1.707312	-0.866208	-0.209003	0.136684	-0.966566	-0.356201	0.244385	0.041016
430.0	10.65643	-1.688005	-0.573211	0.167298	-0.136048	-1.086275	-0.364502	0.235596	0.047607
431.0	11.435335	-1.77899	-0.200892	0.389551	-0.373786	-1.187979	-0.375	0.226563	0.067139
432.0	11.80151	-3.445178	-0.902122	0.51726	-0.451934	-1.279762	-0.385742	0.224365	0.077881
433.0	11.640187	-4.200039	-0.820181	1.721448	-0.628911	-1.537882	-0.394043	0.215576	0.08667
434.0	10.739294	-1.964965	-0.900625	3.231067	-1.08874	-1.822434	-0.397949	0.20459	0.093262
435.0	1.032445	1.99824	13.306742	2.13723	-0.450663	-2.235592	-0.412842	0.195801	0.112793
436.0	-24.215355	-0.276662	26.658669	-1.434253	-1.930959	-2.499977	-0.414063	0.176025	0.141113
437.0	1.449636	-10.327868	6.071277	0.475642	-5.943856	-2.143878	-0.41626	0.17334	0.173584
438.0	42.655647	-2.951088	13.758313	2.550389	-6.495215	-1.970612	-0.418213	0.168701	0.203857
439.0	29.160965	0.150337	2.513721	2.984811	-0.161254	-1.43852	-0.420166	0.166504	0.195313
440.0	5.746335	1.434305	19.442206	-0.954936	1.626587	-0.991215	-0.424316	0.162109	0.210449
441.0	-0.0285	-7.095292	6.423663	-1.155867	-1.703709	-0.860923	-0.421875	0.151367	0.212646
442.0	0.615968	-3.978779	7.052559	2.247612	-1.123169	-0.876331	-0.42627	0.15332	0.223389
443.0	2.819266	1.642167	8.946035	1.874722	-1.783078	-0.755965	-0.421631	0.148926	0.223389
444.0	13.780771	0.166473	13.97009	-1.143471	-2.440327	-0.522151	-0.416992	0.144287	0.253906
445.0	17.90928	-6.155887	5.461814	-1.087063	-0.909668	0.018269	-0.419189	0.140137	0.249512
446.0	7.363923	-5.391172	6.241052	1.292683	1.028829	-0.020192	-0.426025	0.150879	0.245117
447.0	3.868391	-1.825694	8.839476	0.515051	-0.250297	0.081243	-0.417236	0.150879	0.249512
448.0	6.961732	-2.251359	8.080612	-0.538221	-0.333509	0.198232	-0.42627	0.157227	0.255859
449.0	6.118289	-5.388633	6.987211	-0.706602	0.059028	0.235317	-0.423828	0.148682	0.251709
450.0	5.582263	-6.552765	6.553904	-0.165428	-0.032736	0.183476	-0.424072	0.155029	0.253906
451.0	6.171765	-4.510646	7.189709	0.177268	-0.040641	0.15578	-0.421875	0.155029	0.249512
452.0	5.610167	-2.803587	7.707361	0.033928	0.024085	0.149674	-0.422119	0.161621	0.253662
453.0	5.697975	-2.422083	8.256228	-0.255473	-0.079592	0.22253	-0.421875	0.152832	0.253906
454.0	6.155144	-3.462414	7.330012	-0.372228	-0.095894	0.244497	-0.419678	0.155029	0.258057
455.0	5.692437	-4.043074	7.183907	-0.239764	-0.0678	0.218963	-0.421875	0.155029	0.255859
456.0	5.487611	-4.083082	7.050261	-0.108922	-0.081563	0.184169	-0.41748	0.152832	0.256104
457.0	5.406424	-4.079609	7.176927	-0.08201	-0.081427	0.146728	-0.41748	0.157227	0.253906
458.0	5.493758	-4.427769	6.960453	-0.058944	-0.075045	0.102781	-0.421875	0.157227	0.258057
459.0	5.364319	-4.828103	6.750979	0.006799	-0.026108	0.048172	-0.415283	0.155029	0.258057
460.0	5.277535	-4.882045	6.899211	0.097326	0.00198	-0.019158	-0.421875	0.156982	0.266846
461.0	5.490564	-4.551668	6.857765	0.192622	0.010254	-0.060514	-0.424072	0.157227	0.258057
462.0	5.415475	-4.327383	6.939673	0.216439	0.069568	-0.10728	-0.421875	0.155029	0.264648
463.0	5.435481	-4.263399	7.139245	0.212663	0.072503	-0.138313	-0.424316	0.161377	0.258057
464.0	5.694542	-4.048376	7.216515	0.241272	0.081752	-0.149822	-0.421875	0.157227	0.253906
465.0	5.471596	-3.821527	7.189158	0.238084	0.131872	-0.161209	-0.422119	0.159424	0.251709
466.0	5.385266	-3.788307	7.258778	0.208832	0.104421	-0.170996	-0.419922	0.161377	0.260254
467.0	5.486333	-3.808567	7.282854	0.246528	0.084031	-0.172272	-0.421875	0.15918	0.260254
468.0	5.454403	-3.58104	7.348196	0.266061	0.072047	-0.16763	-0.419922	0.159424	0.255859
469.0	5.492566	-3.402664	7.483827	0.240963	0.056989	-0.151639	-0.424072	0.159424	0.255859
470.0	5.529699	-3.310127	7.496299	0.199998	0.045971	-0.133856	-0.426025	0.152832	0.253906
471.0	5.775482	-3.495934	7.385739	0.111971	0.014867	-0.104714	-0.421631	0.148438	0.258057
472.0	5.626038	-3.617967	7.307983	0.113967	0.035498	-0.095615	-0.424072	0.159424	0.255859
473.0	5.534807	-3.891151	7.157114	0.11651	0.027668	-0.103255	-0.426025	0.152832	0.255859
474.0	5.518142	-4.063539	7.108078	0.167411	0.043581	-0.136477	-0.421875	0.159424	0.258057
475.0	5.457165	-4.129574	7.122619	0.243442	0.07709	-0.172278	-0.424072	0.157227	0.255859
476.0	5.447501	-4.034686	7.232179	0.306211	0.089944	-0.211987	-0.42627	0.159424	0.255859
477.0	5.464655	-4.092731	7.176354	0.319431	0.100163	-0.243999	-0.424072	0.155029	0.249512
478.0	5.488206	-4.024409	7.324564	0.346437	0.123878	-0.271666	-0.426025	0.152832	0.253906
479.0	5.472799	-3.808295	7.381726	0.399715	0.119781	-0.293451	-0.428223	0.152832	0.253906
480.0	5.551699	-3.680478	7.445025	0.387618	0.11463	-0.311588	-0.432617	0.152832	0.251709
481.0	5.636064	-3.527639	7.508711	0.380009	0.072813	-0.326384	-0.434814	0.155029	0.249512
482.0	5.665322	-3.38848	7.558909	0.3767	0.047552	-0.328579	-0.43042	0.152832	0.258057
483.0	5.56369	-3.296847	7.768489	0.330677	-0.003192	-0.333431	-0.43042	0.150879	0.245117
484.0	5.278322	-3.321291	7.910831	0.302598	-0.090323	-0.334514	-0.438965	0.148438	0.253906
485.0	5.400957	-3.247731	7.963684	0.331901	-0.244511	-0.361642	-0.432373	0.146484	0.251709
486.0	5.511271	-2.691291	8.238671	0.376106	-0.390163	-0.389194	-0.432617	0.150635	0.258057
487.0	5.404942	-2.534209	8.258992	0.069101	-0.538224	-0.391464	-0.432617	0.150635	0.255859
488.0	5.342439	-2.474342	8.530065	-0.069887	-0.725924	-0.384866	-0.432129	0.14209	0.262451
489.0	5.398305	-2.363548	8.53042	-0.101417	-0.960564	-0.362952	-0.429932	0.14209	0.260254
490.0	5.292204	-2.494406	8.652123	-0.200059	-1.216226	-0.362279	-0.427734	0.139893	0.266846
491.0	4.986816	-2.610249	8.84792	-0.227434	-1.492198	-0.387859	-0.429443	0.128906	0.269043
492.0	4.766901	-3.002998	8.689606	-0.316633	-1.848203	-0.485464	-0.425293	0.130859	0.286377
493.0	4.604394	-3.486489	8.658661	-0.312706	-2.200196	-0.589156	-0.422852	0.126465	0.292969
494.0	4.663368	-4.095661	8.440345	-0.315388	-2.597751	-0.720671	-0.42041	0.119873	0.305908
495.0	4.854409	-4.552722	8.425897	-0.245186	-3.017706	-0.88833	-0.415771	0.115479	0.3125
496.0	4.919995	-4.766243	8.542412	-0.175213	-3.443684	-1.115068	-0.406982	0.111084	0.323486
497.0	5.012177	-4.691433	8.650162	-0.14214	-3.878007	-1.378753	-0.406738	0.104492	0.34082
498.0	4.519317	-4.628926	9.638181	-0.181075	-4.307339	-1.623226	-0.399658	0.091309	0.362549
499.0	3.873498	-5.120541	9.490596	-0.10981	-4.998606	-1.926996	-0.385986	0.080322	0.379883
500.0	3.265354	-5.901304	8.925944	-0.024009	-5.638387	-2.360393	-0.36792	0.065186	0.399658
501.0	2.301607	-5.392654	10.021354	-0.021806	-6.537328	-2.937444	-0.356689	0.053955	0.429932
502.0	2.481005	-4.302301	9.086018	0.258705	-7.59985	-3.485773	-0.336182	0.036377	0.456055
503.0	5.003541	-1.848463	6.522508	0.334168	-8.711933	-3.85665	-0.302979	0.020996	0.48877
504.0	12.732403	0.653799	7.510826	-1.287387	-10.025927	-3.645588	-0.258301	-0.00708	0.521484
505.0	26.764139	-2.552113	11.804473	-5.311863	-11.32294	-2.681337	-0.219482	-0.04834	0.550049
506.0	43.258724	-10.61763	11.346325	-4.9291	-10.34691	-2.969386	-0.179199	-0.080566	0.56543
507.0	34.08392	-11.074125	14.948833	-2.204138	-7.374412	-4.205251	-0.1604	-0.112793	0.569824
508.0	24.478511	-10.637565	16.874592	-3.948244	-5.734991	-3.649879	-0.156494	-0.157959	0.567871
509.0	21.718914	-16.209894	16.217553	-5.130709	-3.639098	-2.742988	-0.161621	-0.192383	0.559326
510.0	21.56283	-17.818662	22.363431	-3.879911	-1.14205	-2.274495	-0.193115	-0.224609	0.550781
511.0	7.061119	-18.297838	17.22766	-2.987924	2.935206	-2.216036	-0.235596	-0.254395	0.524902
512.0	5.878041	-21.416048	17.953595	-2.202744	3.713578	-2.467565	-0.282471	-0.280273	0.501221
513.0	7.24035	-16.679585	12.643548	-0.187025	5.380442	-2.355995	-0.334473	-0.288574	0.4729
514.0	-1.329378	-15.266011	6.946057	-0.287308	6.068133	-2.081022	-0.379883	-0.299072	0.442627
515.0	-3.265607	-14.195469	6.037609	0.154413	5.225382	-1.761069	-0.422852	-0.316162	0.410156
516.0	-0.262364	-11.524779	5.280994	0.649743	4.925632	-1.099308	-0.462158	-0.317871	0.368896
517.0	-3.115899	-10.32305	3.590656	0.386729	5.047124	-0.262612	-0.488525	-0.312988	0.327637
518.0	-5.718308	-9.120852	1.68479	0.169696	4.415144	0.410704	-0.516846	-0.310547	0.288574
519.0	-6.707157	-7.082504	1.431671	-0.092208	3.63276	0.971789	-0.534912	-0.299072	0.24292
520.0	-5.231429	-5.659856	3.112269	-1.014205	2.54048	1.606798	-0.543945	-0.290039	0.210205
521.0	0.944653	-6.912552	5.38094	-2.390825	1.609331	2.530611	-0.55542	-0.276855	0.175537
522.0	6.443344	-10.406344	5.696845	-2.646702	1.917934	3.631116	-0.558105	-0.265625	0.136475
523.0	6.326855	-11.979171	5.649903	-1.283473	2.701319	4.40104	-0.56543	-0.247803	0.093018
524.0	5.018361	-9.16423	6.141367	-0.257477	3.071977	4.886592	-0.574951	-0.230225	0.069092
525.0	5.026388	-6.471272	6.8989	-0.152939	3.209129	5.148595	-0.575684	-0.214844	0.036377
526.0	6.828098	-5.119291	8.038106	-0.334941	3.287695	5.290739	-0.587402	-0.194824	-0.000488
527.0	9.557189	-5.62637	8.893935	-0.508249	3.565905	5.343284	-0.601074	-0.17749	-0.026611
528.0	11.609032	-6.825298	8.544736	-0.21983	4.073134	5.323105	-0.613281	-0.148926	-0.061523
529.0	12.099743	-4.742611	8.191372	0.894083	4.581471	5.213256	-0.625244	-0.122803	-0.096191
530.0	11.763903	-1.881421	8.921352	1.013738	4.935118	4.923181	-0.632813	-0.094238	-0.137695
531.0	12.365513	-1.713844	9.697781	-0.027607	5.016588	4.645916	-0.627686	-0.061279	-0.18335
532.0	13.466415	-3.893604	10.364985	-0.566883	5.060382	4.571452	-0.616211	-0.02417	-0.222412
533.0	13.719003	-5.168224	10.881687	-0.360757	5.120487	4.517388	-0.604736	0.015381	-0.272461
534.0	12.937819	-3.810857	11.443633	-0.167818	4.99053	4.334401	-0.575439	0.041748	-0.307373
535.0	12.421167	-3.204024	12.229112	-0.600451	4.557258	3.975535	-0.537354	0.070313	-0.346436
536.0	15.554511	-3.856608	13.707484	-1.133418	3.89012	3.630082	-0.496826	0.090088	-0.368164
537.0	21.709861	-5.592337	13.49096	-1.238146	3.48294	3.384704	-0.462402	0.097168	-0.39624
538.0	23.694577	-6.987954	9.896632	-0.582295	3.48972	2.959237	-0.425293	0.095215	-0.404785
539.0	22.177807	-5.376651	6.177339	0.495501	3.176021	2.330118	-0.394287	0.080566	-0.419922
540.0	24.115241	-3.124641	4.026229	0.958006	2.377324	1.703808	-0.371826	0.063232	-0.419678
541.0	29.826721	-1.080133	2.627512	1.161512	1.720688	1.365428	-0.35791	0.044189	-0.421875
542.0	35.471509	2.773847	2.036603	1.024216	1.808966	1.389386	-0.355225	0.026855	-0.423828
543.0	35.527837	6.979312	-2.580965	0.941929	2.502713	1.821698	-0.341797	0.018311	-0.426025
544.0	27.730514	7.596103	-10.755211	0.587429	3.420313	1.964952	-0.335205	0.01416	-0.436768
545.0	20.762927	7.105325	-15.065109	0.373941	2.841249	1.94205	-0.328369	0.007813	-0.438965
546.0	19.530074	6.680657	-17.657483	0.992046	0.404154	1.919236	-0.334717	0.003418	-0.43457
547.0	22.966945	8.971189	-18.025365	1.811334	-1.610425	1.677672	-0.343018	-0.005371	-0.425781
548.0	25.200953	12.386161	-15.249567	1.785541	-1.886078	1.364448	-0.35791	-0.01416	-0.417236
549.0	21.744602	10.47409	-12.421248	0.228972	-1.815786	0.739866	-0.366699	-0.011963	-0.421387
550.0	20.679861	4.565409	-7.364919	-1.560437	-3.559448	0.1992	-0.386475	-0.01001	-0.404297
551.0	18.432774	-4.449141	3.330956	-3.918131	-3.772081	-0.889825	-0.397705	0.004883	-0.397705
552.0	-25.337406	-14.171869	46.187205	-4.237197	-1.682096	-3.331522	-0.407959	-0.014648	-0.391113
553.0	-17.705345	-13.71768	2.349427	7.997403	-4.519872	-3.550083	-0.434326	-0.064697	-0.360596
554.0	51.775791	27.6419	27.96537	10.480524	-11.687245	-1.411149	-0.473877	-0.102295	-0.29126
555.0	51.536691	18.358088	-12.089495	-1.159392	-5.176513	-1.53228	-0.480469	-0.104248	-0.304199
556.0	21.500901	1.170554	21.498292	-8.397299	5.53437	-1.153761	-0.461914	-0.075928	-0.330322
557.0	-10.188294	-29.930945	8.111922	-5.197882	-0.071731	-1.521836	-0.464111	-0.080322	-0.330322
558.0	-0.297662	-22.114901	-0.456571	6.096989	-1.938777	-1.486427	-0.471191	-0.117188	-0.304199
559.0	17.581611	9.460799	15.925578	8.915034	-2.079984	-1.129976	-0.476807	-0.143066	-0.29541
560.0	16.466207	10.621875	9.461599	3.135284	-0.028206	-0.431571	-0.472412	-0.145264	-0.29541
561.0	8.258064	-2.081686	5.769058	-4.958676	0.998336	-0.373276	-0.466064	-0.138428	-0.314941
562.0	4.224578	-9.84087	9.46073	-1.990903	0.911478	0.045679	-0.470703	-0.134277	-0.312744
563.0	4.78639	-5.737048	6.8038	3.265803	-0.454507	-0.16319	-0.470215	-0.14502	-0.306152
564.0	8.437137	-0.048597	7.673716	1.550655	-0.207783	-0.059041	-0.472412	-0.143066	-0.301758
565.0	6.788296	-2.667145	7.622548	-1.424664	0.529486	-0.01663	-0.46582	-0.14502	-0.316895
566.0	4.295949	-6.5497	7.644514	-0.41559	0.349943	-0.094128	-0.463867	-0.140625	-0.30835
567.0	5.971657	-3.5832	7.608536	1.17159	-0.149243	-0.142379	-0.467773	-0.149414	-0.303955
568.0	6.684246	-0.371506	8.148977	0.429528	0.073842	-0.051007	-0.470215	-0.143066	-0.303955
569.0	5.280424	-1.690724	8.56717	-0.491014	0.124985	0.052603	-0.461426	-0.144775	-0.319092
570.0	5.284381	-4.193738	7.468286	-0.219774	-0.109587	0.057393	-0.474609	-0.14502	-0.30835
571.0	5.811019	-3.357603	7.66936	0.149788	-0.109283	0.022883	-0.472168	-0.147217	-0.30835
572.0	5.370233	-2.976153	7.876558	-0.068907	-0.100247	0.021809	-0.469971	-0.149414	-0.312744
573.0	5.453191	-4.283187	7.210924	-0.119165	-0.165791	-0.023195	-0.472168	-0.147217	-0.30835
574.0	5.743692	-3.879851	7.247437	0.187028	-0.151591	-0.091727	-0.474365	-0.149658	-0.297363
575.0	5.85578	-3.652997	7.215814	0.110406	-0.141865	-0.130822	-0.472168	-0.151611	-0.306152
576.0	5.792279	-3.77243	7.193976	0.069445	-0.064242	-0.177469	-0.472168	-0.149414	-0.303955
577.0	5.77821	-3.27212	7.469541	0.202366	-0.071324	-0.207372	-0.474121	-0.153809	-0.301758
578.0	5.777942	-2.780895	7.5579	0.140583	-0.07776	-0.206742	-0.472168	-0.151611	-0.301758
579.0	5.772667	-2.715926	7.644327	0.056388	-0.074323	-0.199899	-0.471924	-0.153809	-0.306152
580.0	5.690574	-2.546696	7.766316	0.05331	-0.098071	-0.180801	-0.474365	-0.151611	-0.306152
581.0	5.640012	-2.496287	7.707831	0.010815	-0.14613	-0.15771	-0.471924	-0.153809	-0.299561
582.0	5.674569	-2.727811	7.535144	-0.042989	-0.168594	-0.141435	-0.472168	-0.151611	-0.297363
583.0	5.714991	-2.769819	7.459943	0.012933	-0.173721	-0.125379	-0.469727	-0.153809	-0.295166
584.0	5.739695	-2.810533	7.415952	0.002878	-0.174336	-0.119391	-0.474121	-0.158203	-0.299561
585.0	5.821409	-3.202048	7.285633	-0.045729	-0.158211	-0.128311	-0.474121	-0.158203	-0.295166
586.0	5.800341	-3.385522	7.240168	0.000961	-0.119696	-0.153816	-0.476074	-0.158203	-0.295166
587.0	5.772233	-3.395477	7.271567	0.038495	-0.099252	-0.187482	-0.480469	-0.158203	-0.291016
588.0	5.710063	-3.431735	7.441687	0.027848	-0.08556	-0.231151	-0.473877	-0.158203	-0.291016
589.0	5.646208	-3.652181	7.435784	-0.016103	-0.095301	-0.294552	-0.469482	-0.160156	-0.299561
590.0	5.65636	-3.54422	7.598884	0.04702	-0.120488	-0.354316	-0.467285	-0.164551	-0.290771
591.0	5.620417	-3.352314	7.812549	0.063179	-0.188071	-0.417019	-0.476074	-0.1604	-0.295166
592.0	5.648145	-3.128202	7.876851	0.096413	-0.286622	-0.465242	-0.473633	-0.164551	-0.292969
593.0	5.701826	-2.592902	8.117957	0.128997	-0.417982	-0.487299	-0.477783	-0.171143	-0.288574
594.0	5.609582	-2.230128	8.255097	0.071083	-0.566941	-0.475956	-0.477783	-0.169189	-0.277832
595.0	5.581554	-2.014146	8.557249	0.017668	-0.778837	-0.440218	-0.477539	-0.175537	-0.280029
596.0	5.351869	-2.087792	8.664403	-0.020598	-1.031457	-0.421546	-0.47998	-0.171387	-0.269287
597.0	5.236947	-2.106789	8.839467	-0.039266	-1.323869	-0.431752	-0.488281	-0.180176	-0.264893
598.0	5.071436	-2.240937	8.944692	-0.127313	-1.655354	-0.498128	-0.486084	-0.182373	-0.251709
599.0	5.063301	-2.593896	9.098991	-0.216403	-2.04143	-0.578712	-0.494629	-0.182617	-0.243164
600.0	4.772267	-3.077361	9.047905	-0.22661	-2.470184	-0.699584	-0.496826	-0.184814	-0.234375
601.0	4.580007	-3.682677	8.930285	-0.218256	-2.980913	-0.864095	-0.502686	-0.197998	-0.214844
602.0	4.566833	-4.164883	8.756239	-0.154206	-3.511713	-1.090403	-0.502686	-0.196289	-0.193115
603.0	4.793303	-4.711107	8.402933	-0.107382	-3.975983	-1.345474	-0.508789	-0.209473	-0.169434
604.0	4.911153	-4.908612	8.501989	0.042009	-4.43279	-1.625701	-0.51709	-0.216309	-0.141113
605.0	4.151921	-4.667627	9.386239	0.137194	-4.963868	-1.949104	-0.516602	-0.231689	-0.11499
606.0	3.433238	-4.848105	8.867219	0.387769	-5.783524	-2.221231	-0.516113	-0.240967	-0.078125
607.0	2.874106	-5.461783	9.382441	0.283187	-6.527019	-2.844988	-0.512939	-0.262939	-0.04126
608.0	2.694327	-3.2509	7.008371	0.751214	-7.577434	-3.418898	-0.501221	-0.280762	0.006592
609.0	6.958497	0.097445	6.304977	0.541302	-9.071669	-3.798541	-0.489258	-0.307129	0.052246
610.0	13.833283	1.257276	8.373247	-2.696404	-10.390055	-3.59015	-0.46875	-0.329102	0.095703
611.0	29.076799	-3.969133	12.939722	-6.420869	-12.0409	-2.739484	-0.446045	-0.353271	0.130615
612.0	44.707135	-11.96204	9.486921	-5.906654	-10.899189	-3.454193	-0.412109	-0.381592	0.165527
613.0	31.906274	-11.015126	18.978427	-3.633218	-7.390442	-4.369521	-0.376709	-0.398926	0.182861
614.0	24.463359	-14.434777	17.346156	-5.246638	-6.135419	-4.03099	-0.345215	-0.424561	0.191895
615.0	23.174725	-18.79784	17.648415	-4.654522	-3.941172	-3.218128	-0.324951	-0.441895	0.194092
616.0	20.09601	-17.656557	20.244415	-3.288529	-1.351751	-2.903325	-0.304688	-0.45459	0.192139
617.0	8.882143	-21.048739	16.243359	-3.839195	2.223942	-3.164805	-0.293457	-0.465088	0.177002
618.0	10.472004	-29.671425	18.954826	-1.774313	3.219037	-2.185929	-0.291504	-0.460938	0.181152
619.0	5.56536	-15.829005	15.737326	1.492321	5.571168	-1.572807	-0.298096	-0.456543	0.185547
620.0	-7.16332	-12.374174	8.813368	0.005071	6.108783	-1.678207	-0.300781	-0.447998	0.185547
621.0	-5.26154	-10.686253	8.255024	-0.256636	4.214586	-1.532336	-0.302979	-0.44165	0.18335
622.0	2.718511	-8.269739	9.409419	-0.50829	4.144678	-0.782497	-0.305908	-0.426514	0.185303
623.0	1.386978	-10.35459	6.976745	-1.300751	4.849669	0.08513	-0.308838	-0.405029	0.191895
624.0	-0.820023	-12.259577	5.449024	-1.17595	4.733711	0.704836	-0.314209	-0.377197	0.200195
625.0	1.258937	-10.311154	6.00299	-0.568125	4.549581	1.204757	-0.314941	-0.358154	0.215332
626.0	2.607194	-7.389527	6.884826	-0.624303	4.700467	1.871707	-0.335693	-0.328369	0.241211
627.0	3.674774	-5.885603	7.284374	-1.133728	4.816211	2.651932	-0.35376	-0.30957	0.26709
628.0	4.452019	-5.444898	6.218917	-1.502842	4.898274	3.379292	-0.393555	-0.294922	0.295166
629.0	3.618547	-5.236146	5.606171	-1.716401	5.013819	3.980028	-0.439941	-0.271729	0.310059
630.0	3.430948	-4.982635	5.610185	-1.884283	4.75041	4.441901	-0.495361	-0.244385	0.331543
631.0	4.698639	-4.974675	5.979345	-1.916289	4.44698	4.792048	-0.557129	-0.223145	0.348633
632.0	5.753178	-4.610023	6.993623	-1.786107	4.262005	5.041218	-0.623779	-0.189209	0.363525
633.0	6.816251	-3.323504	8.389726	-1.51705	4.071642	5.247017	-0.699219	-0.152832	0.352295
634.0	8.197238	-1.608812	9.78458	-1.320821	3.89505	5.360037	-0.788086	-0.107666	0.328125
635.0	10.082245	-1.331109	10.78201	-1.533358	3.865778	5.26368	-0.881348	-0.062256	0.280029
636.0	12.367267	-2.440333	11.161905	-1.528509	3.919656	4.966199	-0.960205	0.003174	0.197266
637.0	13.08993	-2.092177	11.576726	-0.877932	4.191014	4.616857	-1.015625	0.077881	0.073242
638.0	11.113295	-0.540681	12.293557	-0.708274	4.266916	4.255451	-1.032227	0.156982	-0.059326
639.0	12.47715	-0.490539	14.536049	-1.499039	3.780447	3.920437	-1.005615	0.251465	-0.198486
640.0	18.914302	-3.634887	16.248648	-2.379261	3.539857	3.923221	-0.918213	0.352051	-0.298584
641.0	22.716508	-8.044036	14.57514	-1.98483	4.004098	4.031046	-0.797363	0.428467	-0.344238
642.0	21.28652	-7.364573	12.625563	-0.712912	4.217563	4.019168	-0.67041	0.467773	-0.344238
643.0	21.442731	-4.423629	10.787352	-0.170459	3.70502	3.955233	-0.578857	0.467529	-0.305176
644.0	24.14314	-2.771658	8.436113	-0.004087	3.043183	3.863144	-0.520752	0.430664	-0.272217
645.0	26.85276	-2.085352	6.043282	-0.029229	2.636966	3.803726	-0.495361	0.394043	-0.254639
646.0	27.557258	-1.781223	2.795227	-0.002608	2.392714	3.748614	-0.471924	0.351074	-0.25
647.0	26.713748	-1.048029	-0.746711	0.513601	2.055499	3.638518	-0.46167	0.30835	-0.275879
648.0	25.235098	0.437276	-4.651166	1.28451	1.565411	3.380423	-0.457764	0.267822	-0.288574
649.0	24.242469	3.519612	-7.800271	2.202662	0.91796	2.916982	-0.454346	0.231445	-0.303711
650.0	24.903501	8.301542	-9.645485	2.691243	0.133017	2.41965	-0.450928	0.197266	-0.327393
651.0	26.916787	12.685162	-10.827901	2.17806	-0.652644	2.141312	-0.45874	0.175781	-0.324951
652.0	29.08913	14.192964	-12.455926	0.802174	-1.157993	1.957559	-0.462646	0.166992	-0.322754
653.0	28.019823	12.396666	-14.752673	0.28751	-0.981879	1.403011	-0.461914	0.147705	-0.320557
654.0	23.760463	10.74883	-13.975096	0.784899	-0.659768	0.586471	-0.472168	0.132568	-0.322754
655.0	20.564663	10.130974	-10.705287	0.846024	-1.255922	-0.253185	-0.484619	0.115234	-0.30542
656.0	21.04951	5.662473	-7.699321	-0.841607	-2.200277	-0.868885	-0.490723	0.106201	-0.287842
657.0	21.919816	-0.437001	0.867923	-1.705687	-2.756146	-1.204099	-0.505615	0.099609	-0.272705
658.0	0.852604	-12.186758	42.166547	-5.879746	0.197859	-2.080274	-0.507813	0.095215	-0.270508
659.0	-58.005714	-31.716853	10.067625	-0.659692	-0.422849	-4.792703	-0.516846	0.047852	-0.272461
660.0	-0.359776	-4.407448	-2.649418	14.843301	-9.831269	-1.685151	-0.55127	-0.013672	-0.187744
661.0	75.841263	43.141098	22.434688	3.096082	-15.468218	-2.447446	-0.572021	-0.035889	-0.135742
662.0	52.348615	0.83681	-15.815176	-4.922195	-0.301834	0.002489	-0.563721	-0.029297	-0.153076
663.0	8.352572	-11.103028	30.625253	-6.468152	7.994415	-1.622832	-0.550537	-0.028564	-0.189941
664.0	-17.756152	-24.066068	0.88012	1.256438	-1.163944	-1.677351	-0.553955	-0.05249	-0.174561
665.0	6.692543	-4.653607	9.968575	6.274483	-2.9229	-0.959307	-0.55542	-0.072266	-0.155029
666.0	21.504649	11.750284	15.683461	6.435412	-2.284252	-0.573767	-0.563477	-0.0896	-0.141846
667.0	14.600981	-0.145328	2.875421	-1.280523	0.153961	-0.360378	-0.559326	-0.085205	-0.152832
668.0	9.039359	-7.973742	5.289571	-2.900643	1.992279	-0.396619	-0.552979	-0.078613	-0.163574
669.0	1.034315	-4.797576	11.903996	2.049254	0.85591	-0.210046	-0.563477	-0.091553	-0.163574
670.0	5.509501	-1.656853	7.457548	2.44915	-0.797387	-0.176244	-0.556885	-0.091553	-0.154785
671.0	9.548757	-2.763388	6.587085	-0.220797	-0.029399	-0.137502	-0.556641	-0.09375	-0.156982
672.0	6.200383	-5.464644	6.938935	-0.459607	0.927222	-0.218122	-0.558838	-0.095703	-0.161377
673.0	4.114479	-5.003057	8.029688	0.66776	0.37801	-0.297219	-0.554443	-0.0979	-0.167725
674.0	5.673957	-1.974049	8.182921	1.084362	0.110707	-0.274202	-0.556641	-0.100098	-0.165527
675.0	6.263365	-1.621914	7.889759	0.377763	0.176855	-0.211649	-0.561035	-0.0979	-0.165771
676.0	6.282407	-2.85165	7.513211	-0.067353	0.288608	-0.201759	-0.558594	-0.104248	-0.16333
677.0	5.405082	-2.435227	8.065009	0.28411	0.30506	-0.175009	-0.553955	-0.108643	-0.167725
678.0	5.108633	-1.781699	8.348856	0.202471	0.181558	-0.138622	-0.552002	-0.104248	-0.16333
679.0	5.43189	-2.5619	7.961892	-0.02571	0.097757	-0.095003	-0.55835	-0.108643	-0.172119
680.0	5.490937	-3.250516	7.57743	-0.010225	0.100456	-0.102418	-0.553955	-0.108643	-0.165527
681.0	5.429316	-3.157104	7.531558	0.121192	0.073119	-0.113487	-0.556152	-0.108643	-0.169922
682.0	5.640478	-3.17953	7.402397	0.07083	0.090472	-0.128955	-0.556152	-0.11084	-0.167725
683.0	5.649012	-3.170865	7.458016	0.064923	0.139098	-0.156719	-0.553955	-0.110596	-0.174316
684.0	5.504038	-2.957848	7.65124	0.091409	0.181592	-0.184664	-0.553711	-0.119141	-0.174316
685.0	5.43641	-2.694339	7.752932	0.104567	0.190538	-0.20346	-0.560059	-0.119385	-0.169922
686.0	5.393242	-2.219227	7.993673	0.126505	0.220191	-0.21168	-0.55835	-0.108643	-0.172119
687.0	5.233842	-1.924651	8.145826	0.115726	0.21367	-0.183277	-0.553711	-0.11499	-0.180664
688.0	5.264508	-1.961049	8.14182	0.050678	0.164388	-0.14846	-0.553711	-0.119385	-0.172119
689.0	5.238326	-2.068697	8.119665	0.057697	0.142862	-0.129451	-0.558105	-0.117188	-0.17627
690.0	5.329415	-2.090248	8.124678	0.068191	0.09205	-0.099978	-0.555664	-0.121338	-0.174316
691.0	5.409731	-2.397396	7.955743	0.0109	0.080447	-0.084463	-0.562256	-0.121338	-0.178467
692.0	5.361677	-2.56566	8.03259	-0.01811	0.092075	-0.093456	-0.557861	-0.123535	-0.17627
693.0	5.225231	-2.535764	8.198008	0.001248	0.044423	-0.107417	-0.557617	-0.12793	-0.178467
694.0	5.223435	-2.578722	8.195349	-0.01077	-0.024421	-0.122573	-0.555664	-0.125732	-0.178467
695.0	5.329721	-2.604538	8.1901	-0.005984	-0.082686	-0.145976	-0.557617	-0.12793	-0.17627
696.0	5.278179	-2.66161	8.144784	0.016491	-0.138086	-0.176937	-0.55957	-0.132324	-0.171875
697.0	5.269257	-2.829375	8.253697	-0.044296	-0.247991	-0.214588	-0.551025	-0.12793	-0.169922
698.0	5.394731	-2.621858	8.456096	-0.086707	-0.335403	-0.27656	-0.559814	-0.130127	-0.167725
699.0	5.094879	-2.167868	8.760936	-0.049738	-0.521713	-0.281542	-0.555176	-0.132324	-0.169922
700.0	5.370371	-1.935248	8.813871	-0.09637	-0.773085	-0.262653	-0.557373	-0.132324	-0.165527
701.0	5.193806	-1.356197	9.189947	-0.182905	-0.964636	-0.231594	-0.557373	-0.136719	-0.158936
702.0	4.928477	-1.48478	9.43008	-0.263354	-1.348946	-0.159072	-0.563721	-0.136719	-0.150391
703.0	5.049394	-2.014157	9.260682	-0.366968	-1.691642	-0.143404	-0.561523	-0.13916	-0.137207
704.0	4.49157	-2.23447	9.459823	-0.385164	-1.995958	-0.230911	-0.563721	-0.139404	-0.128662
705.0	4.186275	-2.729366	9.46218	-0.536638	-2.427574	-0.422097	-0.563477	-0.141602	-0.12207
706.0	4.520001	-3.518326	9.227796	-0.63492	-2.897719	-0.622612	-0.563477	-0.143799	-0.104736
707.0	4.456347	-4.173943	9.020824	-0.498428	-3.334031	-0.868475	-0.560791	-0.152832	-0.080811
708.0	4.006182	-4.204588	8.944358	-0.244859	-3.868097	-1.145306	-0.567139	-0.159668	-0.059082
709.0	4.239697	-4.99299	8.441057	-0.186705	-4.439585	-1.452085	-0.568604	-0.172852	-0.041748
710.0	4.2718	-5.051884	8.581757	-0.156723	-4.91573	-1.798028	-0.55957	-0.181641	-0.013428
711.0	4.465869	-5.073159	10.031709	0.220837	-5.609748	-2.118888	-0.560791	-0.203613	0.016846
712.0	1.212135	-6.681618	10.659302	-0.145691	-6.217518	-2.621043	-0.544678	-0.227783	0.056152
713.0	0.317763	-6.880889	7.985214	0.96339	-7.24268	-3.269843	-0.532715	-0.249756	0.093018
714.0	5.212454	-2.325007	6.557822	1.564637	-8.766542	-4.024347	-0.509766	-0.27832	0.149658
715.0	11.869243	1.315673	7.349272	0.46966	-9.615989	-4.163327	-0.480225	-0.311035	0.18457
716.0	22.770011	-0.875125	15.041464	-4.51418	-10.971612	-3.338759	-0.444092	-0.339355	0.22583
717.0	40.042441	-12.639284	9.456987	-6.406623	-11.433128	-2.958736	-0.407715	-0.376221	0.245605
718.0	35.509971	-10.877723	13.508184	-1.919931	-7.469407	-4.250407	-0.378662	-0.399902	0.267578
719.0	16.818492	-7.958104	18.831264	-3.562191	-5.650004	-4.553567	-0.351074	-0.436279	0.26123
720.0	15.911764	-15.069477	13.338493	-5.403723	-5.258074	-4.092872	-0.323975	-0.459961	0.261475
721.0	23.530846	-16.834287	20.372023	-2.999291	-3.835227	-3.521321	-0.305664	-0.485596	0.255127
722.0	21.606132	-15.787147	21.284959	-3.558494	0.635316	-3.158825	-0.295898	-0.513184	0.229248
723.0	9.24899	-25.032268	15.749807	-3.774129	3.784235	-3.219679	-0.297119	-0.538574	0.207764
724.0	8.364622	-21.230496	14.375254	0.356559	4.68657	-2.783201	-0.292236	-0.549316	0.201172
725.0	2.063345	-11.869924	9.104881	0.785603	6.062638	-2.526726	-0.291748	-0.566162	0.181885
726.0	-4.30739	-11.374238	4.99974	-0.295479	5.438484	-2.281157	-0.298096	-0.572754	0.175293
727.0	-1.949221	-11.23869	5.644287	-0.567463	4.222519	-1.519479	-0.306396	-0.581055	0.160156
728.0	1.504539	-11.465273	4.892906	-0.515236	4.254838	-0.554668	-0.323486	-0.5896	0.147217
729.0	-1.472569	-11.583719	3.234624	-0.591037	4.344333	0.281235	-0.338867	-0.589355	0.13208
730.0	-2.733643	-10.528014	3.110643	-0.514643	3.777774	0.966781	-0.36084	-0.587158	0.121094
731.0	-2.455797	-8.472258	3.85013	-0.554234	3.324338	1.648952	-0.387207	-0.580811	0.110107
732.0	-1.928941	-6.08219	5.486204	-0.878626	2.827125	2.397375	-0.418213	-0.565674	0.101318
733.0	1.606677	-3.900014	7.264153	-1.729978	2.321902	3.334801	-0.449463	-0.546143	0.072998
734.0	4.683224	-4.927173	7.089853	-2.86238	2.436144	4.266267	-0.494141	-0.520264	0.05542
735.0	4.599685	-8.727501	6.491989	-3.223449	2.688746	4.953503	-0.523926	-0.481201	0.0271
736.0	4.728851	-10.02948	6.664183	-1.850525	2.803586	5.333211	-0.556152	-0.435791	0.009521
737.0	6.751474	-7.019891	8.261718	-0.571224	2.952333	5.539701	-0.581543	-0.401367	-0.005859
738.0	8.592216	-4.138267	9.862879	-0.378633	3.281909	5.665985	-0.605225	-0.354004	-0.01709
739.0	9.193002	-2.142878	10.24443	-0.294113	3.700526	5.633858	-0.628906	-0.302246	-0.036865
740.0	9.219103	0.254388	10.318656	0.045771	4.024153	5.427025	-0.643555	-0.263184	-0.058838
741.0	9.952162	0.721291	10.431101	-0.552454	4.244064	5.025216	-0.651611	-0.226318	-0.076416
742.0	11.080007	-1.073394	10.237809	-1.15264	4.412304	4.638554	-0.655029	-0.193848	-0.091553
743.0	11.852496	-1.658097	10.931992	-0.686167	4.554137	4.410554	-0.656494	-0.156982	-0.12207
744.0	12.293739	-0.681146	11.906473	-0.696237	4.575983	4.272369	-0.668701	-0.126709	-0.139648
745.0	11.787562	-1.505107	11.874909	-1.330805	4.475443	4.058503	-0.67627	-0.100586	-0.163574
746.0	13.177049	-3.638571	13.480896	-1.827551	4.077615	3.830468	-0.683838	-0.072266	-0.185547
747.0	19.987989	-6.993487	15.723135	-2.254248	3.785797	3.929151	-0.685059	-0.041748	-0.213867
748.0	25.349174	-10.810318	13.895394	-1.519337	4.105455	4.208799	-0.699707	-0.002686	-0.242188
749.0	24.375948	-8.293977	11.150563	0.034451	4.284935	4.323219	-0.696777	0.032227	-0.274902
750.0	24.515167	-4.147992	7.779459	0.641448	3.714581	4.212925	-0.691406	0.0625	-0.288086
751.0	27.558419	-2.513516	3.672323	0.788414	2.924243	3.829285	-0.690674	0.095215	-0.318604
752.0	29.196721	-1.409443	-0.656369	0.982829	2.542438	3.279703	-0.685303	0.121338	-0.335938
753.0	28.438216	1.808854	-2.913083	1.228011	2.459784	2.769422	-0.688232	0.140625	-0.346924
754.0	26.531536	4.472555	-4.409887	1.080225	2.096003	2.549989	-0.68042	0.162598	-0.364502
755.0	24.490062	4.476953	-7.748611	0.321044	1.404647	2.381511	-0.677002	0.186279	-0.373291
756.0	24.077851	4.923253	-9.388401	0.539685	0.584536	2.217333	-0.677734	0.209961	-0.38208
757.0	25.359072	7.463056	-10.021679	2.013471	-0.331612	2.137689	-0.673584	0.214355	-0.377686
758.0	26.166219	10.729462	-11.969394	3.236578	-0.933794	1.99617	-0.680664	0.225098	-0.386475
759.0	25.820569	14.230478	-13.086562	2.922416	-1.040305	1.461265	-0.67627	0.225098	-0.377686
760.0	23.858604	14.368634	-11.944892	0.730685	-1.036475	0.843146	-0.683105	0.231445	-0.373535
761.0	21.394377	9.745747	-9.069515	-0.999353	-1.8484	0.203982	-0.696289	0.239746	-0.354004
762.0	20.34482	1.495489	-9.579452	-0.934805	-3.135563	-0.383265	-0.707031	0.23291	-0.325684
763.0	-6.347534	0.195578	24.372179	-3.505204	-0.094775	-2.987979	-0.719727	0.228271	-0.310547
764.0	-45.74753	-16.392837	19.776511	-4.779768	-4.138479	-5.114597	-0.746826	0.197266	-0.258545
765.0	28.329072	-3.320452	15.686672	9.88178	-11.034712	-2.835878	-0.783936	0.151123	-0.18457
766.0	57.682967	19.011112	6.797788	6.287637	-9.84935	-2.669609	-0.79834	0.130859	-0.134766
767.0	38.500299	10.430802	-0.730937	-1.142653	0.512297	-1.284425	-0.795898	0.122559	-0.154053
768.0	14.788977	-10.838916	29.133425	-9.168377	3.88261	-1.255992	-0.796143	0.131348	-0.160645
769.0	-0.920457	-30.704866	-2.00525	0.389916	-0.970993	-0.642025	-0.797607	0.111816	-0.154053
770.0	5.369521	1.205965	8.147719	10.503907	-0.214143	-1.251409	-0.799072	0.094727	-0.166992
771.0	9.369597	13.744068	16.204382	6.170231	-0.599766	-0.367769	-0.798584	0.081787	-0.166992
772.0	10.821031	3.427586	7.201028	-3.379	-1.190573	-0.205106	-0.80542	0.090332	-0.147461
773.0	12.608382	-8.306106	4.281299	-5.559865	-0.068554	-0.012133	-0.803711	0.098877	-0.158447
774.0	5.077374	-8.198559	7.4668	2.129408	1.438562	0.078869	-0.80127	0.092529	-0.162598
775.0	3.372721	1.180955	10.693811	3.405102	-0.211887	0.11278	-0.80542	0.090332	-0.160645
776.0	7.581759	0.953754	7.667927	-0.911421	-0.737041	0.242679	-0.801514	0.098877	-0.15625
777.0	8.128029	-4.73857	6.77025	-2.65239	0.168228	0.285076	-0.801758	0.103271	-0.15625
778.0	4.710979	-6.869202	7.191096	-0.0339	0.268581	0.19722	-0.797363	0.103271	-0.154053
779.0	4.257432	-2.908942	7.954537	1.033664	-0.151114	0.074064	-0.799316	0.101074	-0.160645
780.0	5.629576	-2.02013	7.56079	-0.219954	-0.133775	0.060073	-0.801514	0.101074	-0.147461
781.0	5.653368	-4.049942	7.188285	-0.526153	0.027157	0.036684	-0.801758	0.103271	-0.15625
782.0	5.262611	-4.440215	7.057154	0.143066	-0.008679	-0.006351	-0.801758	0.105225	-0.147705
783.0	5.715699	-3.578005	7.291421	0.126456	-0.037246	-0.032049	-0.803955	0.103271	-0.154053
784.0	5.666777	-3.718802	7.106017	-0.042328	0.069683	-0.042891	-0.801758	0.103271	-0.149658
785.0	5.563057	-4.139104	7.023681	0.016413	0.09554	-0.071766	-0.803711	0.09668	-0.154053
786.0	5.567802	-4.193182	6.917412	0.108401	0.12347	-0.098789	-0.801514	0.101074	-0.151855
787.0	5.567311	-4.017965	7.056297	0.160926	0.165563	-0.132212	-0.801514	0.098877	-0.158447
788.0	5.382161	-4.383649	6.964717	0.125907	0.22711	-0.188861	-0.799072	0.094727	-0.164795
789.0	5.311516	-4.18032	7.05726	0.33728	0.277387	-0.2621	-0.799072	0.090332	-0.162598
790.0	5.234822	-3.71354	7.397698	0.438664	0.309883	-0.323721	-0.803467	0.090576	-0.164795
791.0	5.409753	-2.742983	7.910769	0.504075	0.291262	-0.324078	-0.794434	0.083984	-0.164795
792.0	5.496144	-2.387452	8.000314	0.392447	0.27132	-0.316059	-0.801025	0.083984	-0.164795
793.0	5.299547	-2.259594	8.15989	0.257166	0.277895	-0.308956	-0.79834	0.075439	-0.171387
794.0	5.285842	-2.152477	8.23776	0.301962	0.17082	-0.264927	-0.800781	0.077637	-0.17334
795.0	5.531924	-2.25014	8.014275	0.260354	0.090823	-0.217433	-0.798584	0.077637	-0.17334
796.0	5.685469	-2.804479	7.68636	0.150405	0.085794	-0.204962	-0.802734	0.075439	-0.166992
797.0	5.654376	-3.242386	7.652438	0.147121	0.111324	-0.22291	-0.79834	0.069092	-0.177734
798.0	5.465601	-2.91612	7.900543	0.238505	0.122935	-0.245515	-0.793945	0.073486	-0.171143
799.0	5.451988	-2.895268	8.040221	0.160832	0.008697	-0.244746	-0.800293	0.066895	-0.179932
800.0	5.606705	-2.708121	7.970449	0.11316	-0.03328	-0.267526	-0.798096	0.069092	-0.17334
801.0	5.345368	-2.270447	8.416129	0.114054	-0.094562	-0.255077	-0.800293	0.064941	-0.182129
802.0	5.374552	-2.147207	8.314438	0.016984	-0.276777	-0.240157	-0.806396	0.058105	-0.166748
803.0	5.325748	-2.145844	8.5461	-0.047016	-0.415143	-0.230885	-0.802246	0.060303	-0.168945
804.0	5.322899	-2.359365	8.482899	-0.237559	-0.606235	-0.236822	-0.797852	0.05835	-0.171143
805.0	5.327258	-2.204503	8.703693	-0.126906	-0.861083	-0.208998	-0.802002	0.058105	-0.158203
806.0	5.283122	-2.012315	8.836326	-0.179944	-1.085975	-0.176137	-0.804199	0.057861	-0.143066
807.0	5.380821	-2.587307	8.683509	-0.418389	-1.363881	-0.177441	-0.810547	0.053467	-0.13208
808.0	5.073747	-2.619327	8.970078	-0.260683	-1.635201	-0.206981	-0.80835	0.05542	-0.123535
809.0	4.692016	-2.942151	8.766497	-0.341742	-1.982278	-0.322232	-0.812744	0.052979	-0.101807
810.0	4.621122	-3.164756	9.069963	-0.465065	-2.330836	-0.49541	-0.8125	0.050537	-0.084473
811.0	4.641436	-3.539816	9.062403	-0.495673	-2.799264	-0.69677	-0.814453	0.043945	-0.062744
812.0	4.479349	-4.094132	8.876385	-0.449078	-3.253329	-0.911326	-0.822998	0.04126	-0.028076
813.0	4.538568	-4.478299	8.735519	-0.303501	-3.785404	-1.17231	-0.82666	0.027832	-0.001953
814.0	4.556043	-4.62228	8.693472	-0.163709	-4.2791	-1.431244	-0.824219	0.018799	0.034912
815.0	5.175257	-4.247534	7.125611	0.078946	-4.824487	-1.683691	-0.823486	0.005371	0.073975
816.0	4.440728	-5.062018	11.731483	-0.682637	-5.229262	-2.033658	-0.818359	-0.012451	0.125977
817.0	0.681335	-5.959436	9.517412	-0.098453	-5.837317	-2.42546	-0.811035	-0.032471	0.171631
818.0	1.866011	-4.649519	9.29207	0.967183	-7.32458	-2.955312	-0.799072	-0.05249	0.228271
819.0	3.852041	-1.969505	9.384461	0.611682	-8.129228	-3.41215	-0.77417	-0.077148	0.29541
820.0	5.437443	-0.007665	6.967458	-0.394654	-9.299636	-3.828322	-0.742188	-0.110352	0.371582
821.0	9.280672	-0.356166	6.172654	-1.94029	-10.693488	-3.92387	-0.690674	-0.145508	0.445557
822.0	26.38015	-4.968291	13.10395	-5.334007	-12.764702	-3.233218	-0.625977	-0.182861	0.523926
823.0	44.626543	-13.99921	6.051476	-5.607867	-11.974632	-3.67418	-0.564697	-0.239258	0.578369
824.0	34.969221	-9.601187	13.438108	-1.295549	-8.734954	-4.335761	-0.509521	-0.259033	0.615479
825.0	27.65632	-7.237432	15.76119	-3.991406	-7.6778	-3.386213	-0.477295	-0.302002	0.61792
826.0	26.405936	-12.646174	18.661811	-6.125312	-4.67743	-1.79747	-0.447754	-0.338379	0.626953
827.0	22.804044	-10.84934	28.914124	-4.692221	-1.184596	-1.458217	-0.463623	-0.378906	0.592285
828.0	13.316997	-20.145568	14.724166	-6.626055	3.551543	-2.442894	-0.483887	-0.416992	0.536133
829.0	6.877108	-33.192527	14.538615	-2.483289	4.945115	-2.228104	-0.516357	-0.423096	0.503662
830.0	8.061351	-10.533991	18.598987	2.666004	7.010627	-2.456019	-0.551514	-0.418457	0.462402
831.0	-2.50167	-5.847066	7.557918	-0.269933	8.418099	-2.863992	-0.577148	-0.438965	0.390869
832.0	-6.605765	-9.681315	3.901915	-2.526728	6.286099	-2.721128	-0.596191	-0.455566	0.338867
833.0	3.101755	-13.781055	4.390788	-2.554723	5.17734	-1.707696	-0.606445	-0.471924	0.276123
834.0	4.758341	-17.307644	1.711214	-1.007667	5.883465	-0.542301	-0.621582	-0.475586	0.224121
835.0	2.155881	-15.121837	2.104058	-0.029015	5.707943	0.534395	-0.630859	-0.468506	0.17627
836.0	1.47573	-12.330896	2.671514	0.262559	5.236231	1.618205	-0.644287	-0.459473	0.137207
837.0	1.324123	-8.822977	3.326964	0.459289	4.84396	2.693471	-0.6604	-0.439697	0.100342
838.0	0.684052	-4.742632	2.914411	0.478699	4.53916	3.665483	-0.67627	-0.422119	0.072021
839.0	-1.432182	-2.153071	2.120071	-0.080673	4.119296	4.300627	-0.692871	-0.391602	0.032715
840.0	-1.844121	-1.734414	3.358082	-1.606282	2.982805	4.638312	-0.705078	-0.358887	-0.00415
841.0	4.069172	-3.360314	6.556811	-3.095769	1.783696	4.99485	-0.719238	-0.334717	-0.032471
842.0	10.442342	-7.516626	8.082332	-2.965233	2.117803	5.49807	-0.738525	-0.287354	-0.052246
843.0	10.197958	-7.548212	8.664822	-0.393449	3.054242	5.500306	-0.750732	-0.252441	-0.087158
844.0	8.510228	-1.423614	10.980591	1.035567	3.549631	5.181029	-0.758545	-0.219727	-0.113281
845.0	9.891852	2.029982	11.775572	0.268281	3.735574	4.887669	-0.762207	-0.187012	-0.152588
846.0	11.62513	0.657711	11.50578	-1.213284	4.022555	4.580474	-0.765625	-0.1521	-0.19165
847.0	12.566665	-3.160602	11.117059	-1.433255	4.389336	4.376022	-0.756104	-0.119141	-0.233154
848.0	13.474626	-4.263173	11.441836	-0.366215	4.680871	4.27737	-0.742188	-0.092773	-0.276611
849.0	13.3537	-2.286914	12.506225	-0.073928	4.930536	4.290837	-0.726318	-0.055664	-0.320068
850.0	13.272778	-1.816976	12.793532	-0.748236	4.87728	4.315289	-0.707764	-0.029053	-0.356934
851.0	14.450909	-3.082137	12.538812	-1.117529	4.702908	4.257625	-0.678467	0.001709	-0.406982
852.0	16.251623	-3.970902	12.280484	-1.174416	4.461391	4.171071	-0.653564	0.028076	-0.428711
853.0	19.720287	-4.434715	12.463012	-1.234757	4.098307	4.049722	-0.628174	0.047852	-0.463379
854.0	23.370513	-4.41206	10.635621	-1.098337	3.753442	3.978374	-0.60083	0.072021	-0.480957
855.0	23.859203	-3.796884	6.475913	-0.773015	3.420189	3.698395	-0.586182	0.087158	-0.493896
856.0	22.957512	-3.745845	1.723228	-0.720496	2.803892	3.124117	-0.562988	0.102539	-0.504883
857.0	23.084309	-1.83615	-1.218155	-0.007853	1.913127	2.254607	-0.550049	0.106934	-0.513428
858.0	27.26867	0.754613	-1.826505	0.366135	0.711475	1.811802	-0.550049	0.104736	-0.506836
859.0	30.230606	2.540667	-3.835276	0.189957	0.552319	1.697269	-0.543945	0.115479	-0.51123
860.0	28.156793	2.863024	-8.102714	0.79823	0.756672	1.636983	-0.537354	0.115479	-0.504883
861.0	25.520281	5.512349	-11.388596	2.425105	0.928442	1.444453	-0.539063	0.102783	-0.513428
862.0	25.714788	10.894588	-11.564226	4.067796	0.416593	1.373788	-0.536133	0.083252	-0.513428
863.0	26.572967	14.637572	-12.737548	3.474918	-0.442412	1.142773	-0.540283	0.076904	-0.519775
864.0	26.381346	16.323689	-14.774212	1.769873	-0.62447	0.823413	-0.541992	0.070557	-0.515381
865.0	24.105211	14.723011	-11.814386	0.591664	-0.631968	0.366283	-0.546631	0.07251	-0.502441
866.0	21.20808	9.821246	-9.729658	-0.297369	-1.113147	-0.260329	-0.555176	0.070313	-0.500244
867.0	21.35753	6.550936	-6.119561	0.073891	-2.335468	-0.812863	-0.567627	0.057129	-0.489502
868.0	16.177688	-0.488458	7.121106	-2.958751	-0.984485	-1.311583	-0.562012	0.07666	-0.496094
869.0	-26.315352	-12.29967	51.880359	-8.6091	-0.409106	-2.320888	-0.571045	0.089111	-0.47876
870.0	-29.627334	-32.323946	-16.196131	3.084047	-2.518559	-3.016666	-0.599121	0.030518	-0.446045
871.0	31.843819	8.869224	21.681896	12.143641	-13.902752	-1.743722	-0.658203	-0.018066	-0.363525
872.0	56.145453	22.961245	0.254365	2.442971	-9.732044	-0.704727	-0.67749	-0.020996	-0.320068
873.0	34.494336	3.576907	-1.416619	-4.750678	2.483114	-0.732955	-0.662842	-0.009521	-0.363525
874.0	4.79032	-11.830997	30.718094	-5.939858	6.508269	-1.046294	-0.637207	0.001465	-0.383057
875.0	-7.930696	-19.286469	-0.041491	1.343524	-0.925426	-0.554257	-0.649414	-0.017822	-0.376465
876.0	7.249675	-0.423424	6.633458	8.384152	-1.542938	-0.911788	-0.654541	-0.054688	-0.358887
877.0	16.007058	8.626104	15.00482	3.40668	-1.332303	-0.179232	-0.654297	-0.061279	-0.352295
878.0	11.960502	-0.280359	4.110173	-2.992231	0.006445	-0.129545	-0.652588	-0.046143	-0.354736
879.0	6.959422	-6.468907	5.898619	-1.41673	1.588928	0.037075	-0.645996	-0.050293	-0.369873
880.0	2.773775	-2.481214	11.012185	1.635253	0.4422	0.069056	-0.652588	-0.050293	-0.361084
881.0	6.356175	-1.692244	7.471884	0.497261	-0.741354	0.267995	-0.648193	-0.04834	-0.361084
882.0	8.463668	-3.9833	6.434984	-0.985934	0.000294	0.162295	-0.654785	-0.046143	-0.361084
883.0	5.602999	-5.040059	7.303508	-0.035725	0.403059	0.117698	-0.648193	-0.050293	-0.367676
884.0	5.077541	-3.395578	8.024652	0.212536	0.030774	0.080781	-0.644043	-0.045898	-0.365479
885.0	5.878565	-3.095464	7.567703	-0.04266	-0.038097	0.08196	-0.645996	-0.046143	-0.358887
886.0	5.925638	-3.598703	7.320811	-0.114838	0.044727	0.048643	-0.650391	-0.046143	-0.363281
887.0	5.776012	-3.568607	7.341923	-0.015659	0.06041	0.026128	-0.652832	-0.041748	-0.367676
888.0	5.736018	-3.266679	7.504435	-0.027465	0.044557	0.016806	-0.648438	-0.043945	-0.363281
889.0	5.434325	-3.307223	7.633808	-0.107992	0.089799	-0.010354	-0.641846	-0.043701	-0.367676
890.0	5.5081	-4.222045	7.134499	-0.107074	0.02154	-0.045966	-0.648438	-0.043945	-0.365479
891.0	5.697163	-4.335366	6.938349	0.092119	0.095601	-0.114016	-0.648193	-0.048096	-0.363281
892.0	5.484437	-4.09983	7.145302	0.148283	0.157414	-0.185057	-0.641846	-0.045898	-0.367676
893.0	5.477366	-3.636864	7.4095	0.218019	0.157815	-0.226229	-0.641602	-0.050293	-0.367676
894.0	5.653363	-3.190845	7.51686	0.228598	0.12718	-0.251618	-0.63916	-0.056641	-0.371826
895.0	5.72449	-3.065694	7.499629	0.164424	0.14164	-0.261579	-0.645752	-0.054443	-0.369873
896.0	5.738566	-2.845438	7.536797	0.155595	0.162313	-0.267713	-0.645508	-0.061035	-0.365479
897.0	5.679644	-2.582059	7.675657	0.155219	0.16266	-0.26216	-0.645508	-0.061035	-0.371826
898.0	5.630369	-2.391311	7.774211	0.119021	0.146245	-0.234384	-0.641113	-0.063232	-0.369629
899.0	5.694415	-2.362053	7.665205	0.100532	0.122233	-0.20292	-0.643311	-0.061035	-0.376221
900.0	5.692023	-2.396286	7.691729	0.071221	0.116482	-0.175411	-0.643311	-0.061035	-0.369629
901.0	5.617166	-2.454658	7.733548	0.062589	0.102818	-0.138048	-0.641113	-0.062988	-0.380615
902.0	5.607708	-3.012316	7.536317	0.00239	0.101719	-0.122604	-0.638916	-0.063232	-0.371826
903.0	5.579483	-3.316218	7.507239	0.077806	0.123223	-0.143068	-0.636719	-0.065186	-0.384766
904.0	5.558155	-3.365217	7.462417	0.15059	0.114356	-0.168324	-0.643066	-0.067383	-0.369629
905.0	5.644711	-3.178323	7.498749	0.209079	0.114653	-0.196566	-0.638428	-0.07373	-0.374023
906.0	5.632623	-2.966529	7.640492	0.24147	0.126429	-0.209815	-0.640869	-0.071777	-0.376221
907.0	5.557985	-2.704844	7.828955	0.235934	0.113452	-0.198959	-0.640625	-0.078125	-0.380371
908.0	5.49914	-2.755953	7.920553	0.191629	0.055061	-0.192324	-0.634033	-0.078125	-0.371826
909.0	5.472057	-2.826958	7.923352	0.175427	0.010067	-0.190633	-0.635986	-0.082275	-0.382568
910.0	5.224886	-2.551728	8.276226	0.186824	-0.040405	-0.202518	-0.638184	-0.08252	-0.376221
911.0	5.111256	-2.385325	8.627872	0.10803	-0.222238	-0.196983	-0.638184	-0.084473	-0.374023
912.0	5.077854	-2.51779	8.663534	0.036728	-0.44661	-0.194484	-0.642822	-0.076172	-0.369629
913.0	5.194465	-2.589175	8.684601	-0.02174	-0.703055	-0.20602	-0.642334	-0.089111	-0.367432
914.0	5.188693	-2.157778	9.120359	-0.044755	-0.938965	-0.208961	-0.642578	-0.082764	-0.356689
915.0	5.218746	-2.766717	9.008607	-0.296117	-1.368221	-0.240481	-0.650879	-0.089111	-0.36084
916.0	5.016358	-2.855891	9.3773	-0.268816	-1.667826	-0.293453	-0.661865	-0.085205	-0.339355
917.0	4.612437	-2.771103	9.580895	-0.360968	-2.117375	-0.412241	-0.661621	-0.091797	-0.323975
918.0	4.057074	-3.27721	9.493948	-0.690977	-2.581528	-0.687048	-0.672607	-0.092041	-0.306641
919.0	4.087539	-4.379915	9.072812	-0.895439	-3.04876	-1.005106	-0.681152	-0.092529	-0.282959
920.0	4.07356	-4.794185	9.027072	-0.590403	-3.601111	-1.298897	-0.689453	-0.101563	-0.252441
921.0	3.630486	-4.246637	9.351364	-0.272483	-4.119935	-1.583532	-0.701904	-0.116943	-0.226563
922.0	3.462037	-3.986564	10.190114	-0.383078	-4.843217	-1.909652	-0.701416	-0.125977	-0.189697
923.0	3.407533	-4.926705	9.019421	-0.341631	-5.706583	-2.27235	-0.713379	-0.150391	-0.141846
924.0	3.577055	-6.17012	10.828504	-0.103487	-6.548555	-2.75905	-0.712646	-0.16626	-0.093994
925.0	-0.907716	-5.238078	9.270351	0.177834	-7.389244	-3.572592	-0.711426	-0.197021	-0.039795
926.0	2.000336	-1.348548	6.038417	1.635793	-9.210474	-4.283964	-0.699219	-0.228027	0.036377
927.0	8.989733	-0.131834	3.974147	-1.091685	-10.471391	-5.015092	-0.680176	-0.267578	0.101563
928.0	16.622849	-4.696279	7.335174	-3.978296	-11.475781	-5.408438	-0.649902	-0.30957	0.177734
929.0	36.768794	-14.350979	20.59869	-5.072357	-11.862078	-5.127732	-0.604736	-0.353027	0.232178
930.0	34.693851	-15.877981	4.240457	-0.977034	-8.844187	-5.8796	-0.562256	-0.379395	0.280029
931.0	26.628311	-1.255551	17.016803	1.169011	-8.557347	-5.327425	-0.517578	-0.405518	0.325684
932.0	29.771776	-2.998302	16.08317	-5.5983	-7.856911	-3.037848	-0.485596	-0.439941	0.33252
933.0	32.942217	-14.4229	19.634701	-7.535753	-4.364227	-1.378082	-0.476074	-0.465576	0.308838
934.0	22.673327	-14.943435	23.116781	-6.235763	0.817347	-1.544975	-0.4729	-0.490723	0.27417
935.0	9.120639	-33.739466	3.028128	-5.896714	4.063429	-1.578174	-0.479004	-0.507324	0.222412
936.0	7.613272	-39.836926	9.478235	1.681251	3.922046	-1.283835	-0.47876	-0.509521	0.230957
937.0	6.840157	-9.061294	14.214396	5.973393	6.01149	-1.296101	-0.492188	-0.50293	0.218018
938.0	-5.303595	-0.847974	7.799045	3.263902	7.580283	-1.379278	-0.50293	-0.509277	0.200684
939.0	-10.999727	-0.296948	4.33443	1.098471	5.557407	-1.374351	-0.51123	-0.517578	0.176758
940.0	-4.023499	0.838275	7.482312	-1.609936	3.533815	-0.887361	-0.502197	-0.532227	0.146484
941.0	2.013481	-6.903925	5.032137	-4.397866	3.848597	-0.08275	-0.50415	-0.535889	0.09668
942.0	-0.145904	-15.249926	1.130755	-3.052147	4.586746	0.598317	-0.521729	-0.537598	0.064209
943.0	-0.503875	-12.254657	2.582595	0.051087	4.406242	1.087284	-0.530518	-0.535156	0.038086
944.0	1.814018	-6.264821	5.003656	-0.159411	4.200589	1.795107	-0.545898	-0.530518	0.01416
945.0	2.374594	-6.10937	5.033093	-1.776495	3.943908	2.755995	-0.566162	-0.515137	-0.020508
946.0	3.450014	-7.081967	5.012498	-1.63134	3.799898	3.728783	-0.591064	-0.493164	-0.048828
947.0	3.929781	-5.994341	5.432873	-1.395996	3.719116	4.470193	-0.618408	-0.462891	-0.081543
948.0	4.441656	-5.729978	6.007159	-1.76949	3.597864	5.080192	-0.63916	-0.43457	-0.112061
949.0	5.676598	-6.038865	6.810935	-1.620761	3.501136	5.568202	-0.664795	-0.395264	-0.153564
950.0	6.888184	-5.570586	7.797225	-1.190236	3.549135	5.92821	-0.684326	-0.345459	-0.181885
951.0	7.448364	-4.575066	8.537486	-0.976324	3.74961	6.269792	-0.707764	-0.299805	-0.221191
952.0	9.110643	-3.635077	8.240231	-0.612675	3.700611	6.337264	-0.711914	-0.252197	-0.249756
953.0	10.514955	-2.14382	8.175625	-0.084161	3.707792	6.146649	-0.719971	-0.213135	-0.286621
954.0	11.436859	-1.049368	9.164583	-0.09367	3.818862	5.810559	-0.719482	-0.171631	-0.321533
955.0	13.071225	-1.604593	10.482343	-0.541353	3.762846	5.432096	-0.712402	-0.130371	-0.352051
956.0	14.465041	-2.579288	11.507717	-0.484046	3.813626	5.182003	-0.709961	-0.086914	-0.382813
957.0	13.471057	-2.42575	12.434053	-0.264607	3.829633	4.854254	-0.700195	-0.056396	-0.415283
958.0	15.27187	-3.287928	15.066462	-0.883103	3.42974	4.497365	-0.686768	-0.012939	-0.435059
959.0	21.42739	-6.001038	16.213911	-1.280407	3.28087	4.432626	-0.66626	0.021973	-0.458984
960.0	23.950384	-7.490622	13.840124	-0.56494	3.574791	4.360832	-0.650146	0.050293	-0.487305
961.0	22.795076	-5.522811	11.630092	0.009621	3.440094	4.176356	-0.631836	0.083008	-0.51123
962.0	24.759781	-5.555012	7.943932	0.054168	2.679497	3.865364	-0.608643	0.102539	-0.517822
963.0	28.594698	-7.510406	2.506289	0.484785	2.148183	3.40577	-0.594238	0.122314	-0.539551
964.0	29.29913	-6.394014	-2.585646	2.029798	2.08043	2.786831	-0.583252	0.118164	-0.554688
965.0	28.233401	-0.541675	-4.695128	3.479354	2.060986	2.304768	-0.567627	0.105713	-0.578613
966.0	27.193202	5.389309	-5.714349	3.561465	1.77145	1.95	-0.554199	0.099365	-0.582764
967.0	26.014286	9.533124	-8.334754	2.495057	1.292366	1.491191	-0.54541	0.095215	-0.5979
968.0	25.743468	12.629059	-10.466451	0.409302	1.266841	1.657319	-0.539063	0.101807	-0.5979
969.0	23.971717	9.411305	-12.915953	-1.254055	0.585927	1.640959	-0.533447	0.121094	-0.604492
970.0	22.640346	5.21977	-16.273405	-0.347702	-0.208622	1.290773	-0.533447	0.121094	-0.600098
971.0	22.790012	6.715208	-16.864764	2.457295	-0.494462	0.616903	-0.539307	0.104004	-0.608887
972.0	22.065681	11.247215	-13.006063	3.101324	-0.585153	-0.021811	-0.538574	0.088867	-0.5979
973.0	20.203659	11.831619	-8.172917	1.032642	-1.086122	-0.447688	-0.549072	0.077881	-0.595703
974.0	18.919422	5.457051	-4.274628	-1.850527	-1.764009	-0.795512	-0.564697	0.088623	-0.584961
975.0	19.441585	-0.815503	4.285114	-3.10044	-1.935054	-1.101144	-0.575928	0.096924	-0.56543
976.0	0.131781	-14.080035	42.591092	-6.547414	0.242405	-1.069739	-0.577393	0.135498	-0.563477
977.0	-50.054744	-34.662312	17.459642	-4.014631	-0.05329	-3.134548	-0.583252	0.118408	-0.565674
978.0	-17.018312	-13.288552	-16.298965	13.315843	-6.168065	-0.771901	-0.633789	0.020508	-0.508789
979.0	53.668306	41.53831	29.667053	9.477808	-15.125247	-2.246883	-0.697998	-0.002441	-0.422119
980.0	54.895218	15.505198	-13.459683	-9.410983	-5.774779	0.59592	-0.706299	0.044922	-0.417969
981.0	24.724922	-16.374141	14.21397	-6.59405	7.130002	-0.628275	-0.669922	0.054199	-0.46582
982.0	-14.660303	-17.652102	15.937532	0.262574	1.889463	-1.703538	-0.677734	0.032471	-0.459229
983.0	-1.144231	-15.92049	1.09381	3.028971	-2.866757	-0.773113	-0.687988	0.019287	-0.439453
984.0	17.055492	1.183218	11.307777	4.029921	-2.943526	-0.810526	-0.702148	-0.004639	-0.417725
985.0	15.695081	6.293949	9.763298	2.874366	0.359425	-0.27239	-0.69751	-0.015137	-0.428467
986.0	6.4067	-2.533758	5.722061	-1.317841	1.132141	-0.234923	-0.687012	-0.008789	-0.432861
987.0	5.63931	-8.351704	7.874991	-1.374447	0.12635	-0.153289	-0.686768	-0.010742	-0.435059
988.0	6.698464	-3.410017	8.12476	2.438468	-0.069576	-0.067833	-0.686523	-0.021484	-0.432861
989.0	6.780819	0.250852	8.422225	0.878464	0.051809	0.080307	-0.690918	-0.019287	-0.437256
990.0	6.448637	-5.091205	6.861275	-1.509524	0.081608	0.056275	-0.691162	-0.012939	-0.435059
991.0	5.915169	-7.56443	6.429699	0.230369	0.153906	-0.027599	-0.690918	-0.019287	-0.437256
992.0	5.801673	-3.455153	7.615119	0.949036	0.077464	-0.083812	-0.688477	-0.021484	-0.435059
993.0	6.209692	-2.87034	7.482666	-0.074315	0.082357	-0.055157	-0.688477	-0.021484	-0.439453
994.0	5.802463	-3.685435	7.383831	0.036702	0.170976	-0.03968	-0.688477	-0.021484	-0.439453
995.0	5.753954	-3.41942	7.399653	0.190659	0.038055	-0.013152	-0.688477	-0.021729	-0.430664
996.0	6.088814	-3.519072	7.212116	0.04712	0.037826	0.010142	-0.688721	-0.019531	-0.432861
997.0	5.434385	-3.387387	7.478948	0.049043	0.100702	0.005757	-0.688477	-0.023682	-0.435059
998.0	5.382332	-3.525301	7.472496	0.027863	0.005949	0.015003	-0.686523	-0.017334	-0.437256
999.0	5.503216	-3.841419	7.255096	0.034191	0.008921	-0.003245	-0.686523	-0.019287	-0.435059
1000.0	5.294419	-4.092653	7.19658	0.06578	0.042999	-0.04482	-0.690918	-0.019531	-0.435059
1001.0	5.314256	-4.283369	7.18829	0.117267	0.055383	-0.104043	-0.686523	-0.021484	-0.445801
1002.0	5.436029	-4.218015	7.069561	0.240419	0.070179	-0.169117	-0.69043	-0.028076	-0.432861
1003.0	5.639685	-4.007009	7.160724	0.287427	0.095106	-0.220153	-0.69043	-0.032227	-0.435059
1004.0	5.787263	-3.590075	7.32787	0.306236	0.131502	-0.25972	-0.686279	-0.027832	-0.443604
1005.0	5.847013	-2.948962	7.630045	0.27133	0.132615	-0.251271	-0.685791	-0.040771	-0.443604
1006.0	5.70553	-2.702711	7.691009	0.161428	0.127276	-0.228169	-0.686035	-0.032227	-0.443604
1007.0	5.553402	-2.89738	7.632491	0.110353	0.081975	-0.210694	-0.681396	-0.036377	-0.445801
1008.0	5.673008	-2.934454	7.546435	0.144147	0.051482	-0.189002	-0.68335	-0.042969	-0.441406
1009.0	5.687501	-2.937615	7.520389	0.121828	0.048595	-0.167395	-0.68335	-0.045166	-0.441406
1010.0	5.724189	-3.332085	7.378253	0.086026	0.041373	-0.161671	-0.685791	-0.040771	-0.452148
1011.0	5.605275	-3.375478	7.435589	0.154074	0.066373	-0.171901	-0.6875	-0.051514	-0.445801
1012.0	5.597165	-3.289676	7.558459	0.161815	0.046511	-0.185146	-0.685303	-0.049316	-0.443604
1013.0	5.619794	-3.361916	7.495901	0.16069	0.035356	-0.187837	-0.680908	-0.053711	-0.445801
1014.0	5.557217	-3.425746	7.484187	0.176873	0.029935	-0.210105	-0.683105	-0.053711	-0.449951
1015.0	5.566208	-3.170153	7.675804	0.203839	0.008122	-0.226094	-0.680908	-0.053711	-0.443604
1016.0	5.548426	-2.993011	7.70832	0.187022	-0.053034	-0.225059	-0.682861	-0.060059	-0.445557
1017.0	5.590103	-2.887093	7.864976	0.153719	-0.101006	-0.22307	-0.680664	-0.057861	-0.445557
1018.0	5.363751	-2.808305	8.141637	0.105008	-0.174278	-0.226815	-0.686768	-0.06665	-0.437012
1019.0	5.342786	-2.875967	8.081473	0.095995	-0.366186	-0.225136	-0.684814	-0.064453	-0.439209
1020.0	5.46808	-2.536305	8.231277	0.100467	-0.489939	-0.219317	-0.691162	-0.064697	-0.43042
1021.0	5.348206	-2.773055	8.219673	-0.028641	-0.680019	-0.2039	-0.688965	-0.066895	-0.426025
1022.0	5.399901	-2.811455	8.45941	-0.014093	-0.880649	-0.190352	-0.697754	-0.064697	-0.421875
1023.0	5.394977	-3.011406	8.638863	-0.087636	-1.173066	-0.189819	-0.702148	-0.064941	-0.413086
1024.0	5.367154	-3.142844	8.621582	-0.112646	-1.477659	-0.244218	-0.708496	-0.067383	-0.391357
1025.0	5.122625	-3.233841	8.758376	-0.176345	-1.799938	-0.344215	-0.712646	-0.071777	-0.389404
1026.0	4.84511	-3.443808	8.582869	-0.344134	-2.141472	-0.530384	-0.723389	-0.074219	-0.376221
1027.0	4.495686	-3.537103	8.82975	-0.474532	-2.46105	-0.752731	-0.727539	-0.078857	-0.354492
1028.0	4.497578	-4.093563	8.592967	-0.491882	-2.999085	-0.973399	-0.742676	-0.081299	-0.330811
1029.0	4.608604	-4.509735	8.491223	-0.415319	-3.484233	-1.20633	-0.748535	-0.09668	-0.309082
1030.0	4.67908	-4.365655	8.49901	-0.248181	-3.988545	-1.456996	-0.758789	-0.10791	-0.272217
1031.0	4.816749	-3.844445	8.881437	-0.169581	-4.503774	-1.690263	-0.771484	-0.119141	-0.237549
1032.0	5.119283	-4.688092	10.975951	-0.500453	-5.195661	-1.937175	-0.783691	-0.137207	-0.1875
1033.0	1.349916	-7.141356	9.014087	-0.727475	-5.587863	-2.50385	-0.784912	-0.161377	-0.144043
1034.0	0.637971	-5.349292	9.34381	0.81398	-6.960617	-3.002899	-0.788086	-0.187988	-0.083252
1035.0	3.552619	-0.607266	8.634056	0.7588	-8.262361	-3.57708	-0.780273	-0.214844	-0.018066
1036.0	8.005694	1.605347	6.124327	-1.099557	-9.287395	-3.871601	-0.772461	-0.248047	0.053711
1037.0	12.708001	-0.352797	6.74071	-4.180444	-10.551588	-3.760223	-0.751465	-0.28125	0.127441
1038.0	24.090847	-10.894437	9.427019	-6.44314	-11.393341	-3.137263	-0.728271	-0.314209	0.181885
1039.0	39.806412	-17.328565	7.209519	-2.927412	-9.817347	-4.072599	-0.6875	-0.347168	0.24292
1040.0	29.620201	-5.01796	14.674316	0.59014	-7.686592	-4.896145	-0.648926	-0.386475	0.299561
1041.0	27.322462	-4.856324	13.825597	-3.392603	-6.986772	-3.680224	-0.612549	-0.425293	0.319336
1042.0	33.83926	-13.449341	19.230536	-5.980241	-4.539725	-1.856728	-0.592041	-0.450928	0.317139
1043.0	25.950918	-14.22671	25.035263	-5.285326	0.164884	-0.989685	-0.595459	-0.476318	0.273926
1044.0	6.702675	-21.855912	14.762682	-5.078158	3.985245	-1.980197	-0.59668	-0.501465	0.23291
1045.0	0.260669	-29.407252	12.556706	-1.767873	4.648801	-2.303973	-0.591797	-0.516113	0.207031
1046.0	1.424297	-11.792202	11.965609	3.203278	5.068421	-2.225473	-0.591309	-0.528809	0.1875
1047.0	-2.14362	-4.378474	7.868235	0.924544	5.699187	-2.229678	-0.586426	-0.545654	0.163818
1048.0	-3.92094	-8.684602	5.129739	-1.908605	4.574733	-1.80772	-0.58374	-0.5625	0.135742
1049.0	0.296922	-13.550895	4.948406	-1.071132	4.059847	-1.004441	-0.592285	-0.566406	0.107666
1050.0	0.721097	-12.840412	4.000704	0.312416	4.630886	-0.135138	-0.592041	-0.57251	0.085938
1051.0	-2.060367	-11.436157	2.782314	0.223543	4.530371	0.566076	-0.603027	-0.574463	0.062012
1052.0	-1.971024	-10.732877	3.193084	0.249739	3.990981	1.248362	-0.616455	-0.563477	0.049072
1053.0	0.671426	-8.081741	4.663574	0.567181	3.693973	2.036592	-0.636475	-0.556885	0.029297
1054.0	3.071106	-5.795233	5.828142	0.053852	3.63324	2.913579	-0.654785	-0.535156	0.011963
1055.0	4.366686	-5.863144	5.928431	-0.705268	3.735035	3.784628	-0.681641	-0.517578	-0.020752
1056.0	4.526215	-6.513065	5.587655	-0.791349	3.890399	4.440619	-0.712891	-0.496094	-0.03833
1057.0	4.864438	-6.56407	5.612842	-0.760379	3.954361	4.77446	-0.733643	-0.467773	-0.072998
1058.0	5.637478	-5.912841	6.097272	-0.52613	4.054416	4.904135	-0.758789	-0.437256	-0.094971
1059.0	6.502558	-4.625094	7.021257	-0.373045	4.18519	4.927149	-0.792725	-0.40918	-0.125488
1060.0	7.414818	-3.868939	7.75158	-0.523594	4.324009	4.897502	-0.82251	-0.372314	-0.151611
1061.0	8.954374	-3.98096	8.013673	-0.62829	4.437123	4.846693	-0.856201	-0.343994	-0.180176
1062.0	10.380806	-3.397022	7.510027	-0.342959	4.563366	4.801571	-0.881836	-0.300781	-0.202148
1063.0	11.531255	-3.11552	7.75693	-0.437141	4.59777	4.591526	-0.920898	-0.250977	-0.237061
1064.0	12.064139	-4.300893	8.164031	-0.8033	4.655397	4.362108	-0.957764	-0.199219	-0.26123
1065.0	12.344483	-5.049651	9.205967	-0.674001	4.497828	4.290097	-0.990479	-0.147217	-0.291992
1066.0	11.608292	-4.104308	9.692837	-0.56269	4.239346	4.210364	-1.025635	-0.08252	-0.318359
1067.0	12.242146	-3.810899	11.718973	-1.257672	3.577334	4.033601	-1.058838	-0.015625	-0.351074
1068.0	18.657234	-6.721334	13.311436	-2.102969	3.048784	4.026195	-1.089355	0.042969	-0.384033
1069.0	23.080626	-9.715394	12.354342	-1.475737	3.24522	4.066362	-1.104736	0.101563	-0.438477
1070.0	22.914106	-7.805825	11.346519	-0.325806	3.2869	3.897434	-1.120117	0.154053	-0.499512
1071.0	24.062862	-5.14393	9.53743	0.151073	3.008727	3.62387	-1.126465	0.202148	-0.562744
1072.0	26.085026	-4.563194	5.967029	0.411306	2.803553	3.252109	-1.125977	0.246094	-0.621338
1073.0	26.877275	-4.164038	2.633234	0.864	2.700807	2.796527	-1.118652	0.279297	-0.693115
1074.0	28.482918	-2.849196	0.142237	1.453135	2.465103	2.488524	-1.104736	0.310303	-0.747314
1075.0	28.448221	0.490472	-3.209064	2.303202	2.322919	2.301013	-1.079834	0.337158	-0.819092
1076.0	25.388872	5.861972	-6.103445	2.677899	2.365837	2.153505	-1.063477	0.361816	-0.881836
1077.0	22.365427	10.876316	-8.128541	1.6669	1.922814	2.031763	-1.043213	0.392578	-0.931885
1078.0	21.509075	11.422186	-10.312759	-0.239539	0.667756	2.003074	-1.023438	0.446777	-0.95166
1079.0	22.274278	6.998722	-13.360482	-1.198028	-0.578773	1.843534	-1.025391	0.494141	-0.962646
1080.0	23.323295	5.525693	-15.234018	0.615636	-1.037821	1.372925	-1.028564	0.518066	-0.986572
1081.0	22.009218	8.841225	-12.971639	2.355439	-0.981197	0.8316	-1.039307	0.516113	-1.006104
1082.0	20.016915	11.122982	-8.120283	1.245731	-1.461221	0.272684	-1.066406	0.539795	-1.010742
1083.0	20.206839	6.570064	-4.772013	-0.990653	-2.089502	-0.301785	-1.11084	0.561035	-1.002197
1084.0	20.091925	0.374277	-0.28906	-0.794887	-2.364335	-0.701151	-1.156982	0.578125	-0.998047
1085.0	7.94364	-5.850276	25.554171	-2.243015	-0.842262	-1.458231	-1.192871	0.603516	-0.987305
1086.0	-38.495987	-14.141188	32.907414	-1.728905	-1.010803	-3.259583	-1.235352	0.573486	-1.006836
1087.0	-18.847145	-8.152008	-4.777385	7.293553	-4.24141	-2.131309	-1.336426	0.489014	-0.987061
1088.0	43.184546	25.850671	23.672047	5.419233	-13.91465	-1.683653	-1.479248	0.475586	-0.842041
1089.0	54.658564	8.895622	-8.910445	-4.483718	-4.828783	-0.594756	-1.504639	0.51416	-0.827148
1090.0	21.086806	-8.000074	18.593441	-4.772713	4.57627	-0.991791	-1.490723	0.542725	-0.868408
1091.0	-7.087824	-19.847286	10.187199	-3.431425	0.209963	-1.472529	-1.512207	0.533936	-0.855469
1092.0	3.542531	-22.210539	0.067313	3.206289	-2.464374	-0.761666	-1.543213	0.492676	-0.842285
1093.0	15.609921	5.554648	13.829707	7.159673	-2.27119	-0.657763	-1.560547	0.437012	-0.859375
1094.0	13.47443	11.044593	10.674097	3.074846	0.210565	0.00303	-1.55835	0.435059	-0.876709
1095.0	6.720279	-1.40093	6.405925	-4.192819	0.156329	-0.087499	-1.562012	0.471191	-0.857422
1096.0	6.69116	-11.61384	6.117602	-2.830206	-0.097026	0.135469	-1.568604	0.475586	-0.85083
1097.0	6.193794	-4.918156	7.660914	3.297644	-0.178003	0.130421	-1.574463	0.454102	-0.870361
1098.0	6.59523	1.513783	8.810718	1.106191	-0.084548	0.271328	-1.567871	0.458496	-0.86377
1099.0	6.110408	-4.724467	6.906344	-2.538662	-0.097714	0.23653	-1.573242	0.481934	-0.857422
1100.0	5.664393	-9.233111	5.867179	-0.235534	-0.015522	0.141805	-1.575684	0.486328	-0.855225
1101.0	5.834651	-3.853945	7.046284	1.121675	-0.095272	0.025282	-1.575195	0.473389	-0.861816
1102.0	5.852195	-2.425392	7.581301	-0.310223	0.031323	0.037329	-1.575439	0.479736	-0.857422
1103.0	5.819003	-4.578182	7.043001	-0.252581	-0.0492	0.052743	-1.57959	0.479736	-0.859619
1104.0	6.018302	-4.117797	6.961696	0.141749	-0.04082	0.031095	-1.57959	0.479736	-0.853027
1105.0	5.980705	-3.086259	7.538198	0.004446	-0.018184	0.053013	-1.571045	0.47998	-0.857422
1106.0	5.498053	-3.581166	7.488018	-0.187505	-0.032396	0.068897	-1.579834	0.481934	-0.848633
1107.0	5.728313	-4.576412	6.745379	-0.142151	-0.087612	0.046186	-1.579834	0.484131	-0.855225
1108.0	5.77467	-4.691541	6.703638	-0.035318	0.011382	-0.001041	-1.579834	0.484131	-0.857422
1109.0	5.443787	-4.457704	6.907835	0.01248	0.068481	-0.057321	-1.575684	0.486328	-0.857422
1110.0	5.609513	-4.577138	6.782944	0.044148	0.050671	-0.108008	-1.584229	0.484131	-0.861816
1111.0	5.822798	-4.240899	6.839807	0.156026	0.105654	-0.148408	-1.577393	0.477783	-0.864014
1112.0	5.648961	-3.859995	7.133186	0.125775	0.144098	-0.176862	-1.583984	0.47998	-0.861816
1113.0	5.723565	-3.717781	7.22289	0.099895	0.136917	-0.182007	-1.579102	0.467041	-0.870361
1114.0	5.771532	-3.515589	7.279675	0.105145	0.144103	-0.174559	-1.581299	0.467041	-0.872559
1115.0	5.623159	-3.369958	7.334035	0.073605	0.138193	-0.161103	-1.579102	0.465088	-0.872559
1116.0	5.582605	-3.513466	7.247214	0.054398	0.105541	-0.14945	-1.579102	0.465088	-0.872559
1117.0	5.636735	-3.531952	7.205959	0.103344	0.077413	-0.141703	-1.578857	0.456543	-0.878906
1118.0	5.66233	-3.646993	7.207747	0.120327	0.061628	-0.142247	-1.57666	0.45874	-0.878906
1119.0	5.652438	-3.990068	7.075461	0.098974	0.074076	-0.159948	-1.583252	0.456543	-0.878906
1120.0	5.61456	-4.25018	6.969408	0.184511	0.085152	-0.196841	-1.580811	0.452148	-0.881104
1121.0	5.544967	-4.296203	6.889939	0.272671	0.113074	-0.24168	-1.584717	0.439453	-0.889648
1122.0	5.621812	-4.249154	6.889028	0.344763	0.117269	-0.282307	-1.586914	0.441406	-0.885498
1123.0	5.661876	-3.888504	7.16144	0.413283	0.138047	-0.306858	-1.582031	0.428711	-0.89624
1124.0	5.664579	-4.028755	7.051003	0.396089	0.138922	-0.332572	-1.582031	0.424561	-0.900391
1125.0	5.692587	-3.77771	7.281538	0.472173	0.159354	-0.357144	-1.585693	0.409424	-0.900391
1126.0	5.592937	-3.32555	7.579	0.49118	0.129609	-0.357311	-1.585693	0.405273	-0.904785
1127.0	5.585557	-3.246131	7.632719	0.439446	0.075196	-0.345853	-1.580811	0.392334	-0.908936
1128.0	5.659922	-3.054569	7.6233	0.45117	0.018254	-0.327643	-1.584961	0.390137	-0.91333
1129.0	5.448865	-2.447972	8.111378	0.43632	-0.029433	-0.302577	-1.586914	0.381592	-0.908936
1130.0	5.347457	-2.179049	8.435125	0.324666	-0.233494	-0.231245	-1.591064	0.379395	-0.911133
1131.0	5.448837	-2.716021	8.200472	0.196637	-0.47255	-0.183855	-1.601563	0.370605	-0.906738
1132.0	5.38957	-2.984111	8.378051	0.134873	-0.659332	-0.178671	-1.60376	0.370605	-0.893799
1133.0	5.344429	-2.958254	8.531394	0.033628	-0.89541	-0.181084	-1.612549	0.370117	-0.874268
1134.0	5.296805	-2.962923	8.675489	-0.11888	-1.158163	-0.2074	-1.618896	0.369873	-0.854736
1135.0	5.169308	-3.744872	8.612657	-0.329772	-1.504446	-0.28802	-1.629639	0.363037	-0.828857
1136.0	4.916917	-3.9758	8.503955	-0.287566	-1.825603	-0.457923	-1.644531	0.360352	-0.794189
1137.0	4.560304	-4.221167	8.30834	-0.379646	-2.201025	-0.702469	-1.659424	0.351318	-0.770264
1138.0	4.71543	-4.411953	8.372961	-0.386662	-2.607962	-0.92887	-1.680664	0.339844	-0.718262
1139.0	5.069932	-4.165083	8.433861	-0.249633	-3.031598	-1.145346	-1.693115	0.328369	-0.672607
1140.0	4.958352	-3.807438	9.059285	-0.28602	-3.422761	-1.366602	-1.714111	0.310303	-0.611816
1141.0	4.236681	-3.906828	10.113352	-0.45822	-3.963365	-1.611202	-1.739014	0.283447	-0.548828
1142.0	3.921705	-5.115017	9.546213	-0.540494	-4.632622	-1.90874	-1.755371	0.260986	-0.477295
1143.0	3.888957	-5.651715	7.961561	-0.494476	-5.272793	-2.305322	-1.780029	0.225342	-0.388428
1144.0	4.632811	-4.795651	12.771461	-0.467009	-6.147136	-2.727897	-1.802002	0.182861	-0.281982
1145.0	0.155822	-4.736292	9.636398	-0.669203	-6.888677	-3.473753	-1.812744	0.127441	-0.171143
1146.0	4.775367	-1.414511	7.693048	0.000253	-8.857848	-3.658312	-1.823486	0.078125	-0.01709
1147.0	14.396329	-0.192946	8.234771	-2.579603	-9.874998	-3.411034	-1.817139	0.030762	0.13501
1148.0	24.575942	-11.331163	8.69972	-5.730306	-9.948042	-2.931967	-1.775635	-0.020752	0.295654
1149.0	37.140791	-15.924612	8.981224	-2.002635	-8.499351	-3.80672	-1.720947	-0.075684	0.393555
1150.0	27.528429	-3.005623	14.623564	0.360467	-5.887859	-4.272328	-1.651367	-0.123779	0.465332
1151.0	18.996148	-2.852288	15.903329	-4.933409	-4.952077	-3.460602	-1.590088	-0.188232	0.491943
1152.0	22.985359	-10.46513	16.466261	-6.863734	-3.804149	-2.48504	-1.518799	-0.230957	0.48999
1153.0	20.898046	-12.339749	24.992308	-5.215421	-0.056504	-2.523873	-1.476318	-0.262207	0.429688
1154.0	3.699012	-12.95506	18.228428	-4.607224	3.695315	-3.322697	-1.429443	-0.297363	0.32373
1155.0	-0.950373	-19.120308	11.790977	-3.936695	4.2036	-3.52927	-1.376465	-0.32373	0.230713
1156.0	3.478239	-17.284193	8.030067	-0.608789	4.054569	-3.137652	-1.322266	-0.324707	0.152832
1157.0	2.298167	-14.435063	5.486744	-0.541097	5.024173	-2.51212	-1.261719	-0.318848	0.066162
1158.0	-1.672784	-14.776122	2.977305	-0.338	4.984961	-1.618812	-1.195068	-0.296387	0.005371
1159.0	-2.385236	-14.08058	1.927236	0.446002	4.43273	-0.711751	-1.130615	-0.27832	-0.042236
1160.0	-2.640936	-12.155432	1.448001	0.856705	4.112895	0.18982	-1.072998	-0.249756	-0.05957
1161.0	-3.584365	-10.087713	1.666101	0.895753	3.66377	0.992999	-1.014648	-0.236572	-0.070313
1162.0	-3.354677	-7.640976	2.24001	0.765647	3.119331	1.773773	-0.962891	-0.223389	-0.063965
1163.0	-2.984175	-5.282629	3.23142	0.331415	2.721707	2.484318	-0.930664	-0.214844	-0.05957
1164.0	-1.738697	-3.757766	4.792118	-0.560915	2.177505	3.142037	-0.919922	-0.208496	-0.040039
1165.0	1.989571	-4.396698	5.937873	-1.384658	1.798503	3.720969	-0.915527	-0.208496	-0.042236
1166.0	5.618641	-7.732494	6.825767	-1.85783	1.974619	4.100118	-0.931396	-0.197754	-0.048828
1167.0	6.656182	-9.223999	6.932428	-0.738716	2.646586	4.370009	-0.953857	-0.18042	-0.070557
1168.0	6.022207	-5.91804	7.747853	0.453904	3.136724	4.487945	-0.976807	-0.150146	-0.081543
1169.0	6.765281	-2.181502	8.236829	0.380769	3.218325	4.564084	-0.995361	-0.119629	-0.12085
1170.0	8.197623	0.067641	8.405968	0.056134	3.28152	4.564781	-1.012451	-0.076172	-0.153564
1171.0	9.865096	0.000936	8.489222	-0.52828	3.458153	4.314874	-1.024902	-0.039063	-0.194824
1172.0	12.063845	-2.37544	8.31536	-0.875925	3.636737	4.008289	-1.044189	0.006592	-0.240723
1173.0	13.55447	-4.528954	7.975585	-0.443916	3.994375	3.776481	-1.043701	0.046387	-0.314697
1174.0	13.176925	-4.408213	8.456758	0.059548	4.261224	3.700069	-1.037109	0.101074	-0.384277
1175.0	12.76507	-3.434506	9.168395	-0.038812	4.197956	3.74567	-0.993896	0.160645	-0.473389
1176.0	13.074252	-2.826244	9.946483	-0.428419	3.968491	3.824691	-0.92041	0.228271	-0.527832
1177.0	14.204809	-2.450233	10.999192	-0.896447	3.675086	3.882695	-0.822754	0.291504	-0.549561
1178.0	17.041979	-3.355168	11.566333	-1.434271	3.401357	3.804639	-0.730713	0.33252	-0.538818
1179.0	20.471767	-5.721161	9.977666	-1.600349	3.384471	3.562245	-0.648926	0.35376	-0.506104
1180.0	20.129368	-4.795661	7.594108	-0.567798	3.531178	3.156395	-0.590332	0.360107	-0.473633
1181.0	18.046031	-1.267323	6.508972	-0.04787	3.231305	2.672321	-0.554932	0.349365	-0.456055
1182.0	18.768833	0.227531	5.936815	-0.576781	2.549056	2.233471	-0.540039	0.359619	-0.430176
1183.0	21.067986	-0.921854	5.042059	-1.180112	2.087814	1.919393	-0.526855	0.355225	-0.408447
1184.0	23.858123	-1.823474	4.998222	-0.807125	1.873293	1.814569	-0.509766	0.36377	-0.404053
1185.0	26.185775	-1.622479	3.617476	-0.144709	1.828313	1.927643	-0.503418	0.36792	-0.393311
1186.0	23.881275	0.100125	-0.149565	0.698534	2.192711	2.041259	-0.492432	0.36792	-0.391113
1187.0	20.083797	3.809582	-1.832699	1.49702	2.290202	2.010436	-0.476807	0.361572	-0.391113
1188.0	19.493831	8.051443	-2.460685	1.92056	1.678865	1.94726	-0.470459	0.361572	-0.393311
1189.0	19.983192	10.470365	-3.916003	1.199463	1.010319	1.733926	-0.470215	0.355225	-0.397461
1190.0	18.813635	10.605546	-6.641701	-0.243088	0.783525	1.238502	-0.464111	0.365967	-0.388916
1191.0	16.372669	9.845134	-7.535868	-0.62167	0.645935	0.593798	-0.459473	0.36377	-0.382324
1192.0	14.881414	9.167945	-7.016872	-0.480387	-0.034184	-0.237112	-0.470703	0.369873	-0.371582
1193.0	15.922084	8.177523	-5.677468	-0.919039	-0.779623	-1.040618	-0.474854	0.363281	-0.356445
1194.0	17.065868	5.068604	-4.403994	-1.913289	-1.123189	-1.662943	-0.481201	0.362793	-0.33252
1195.0	17.072106	-1.08263	-3.393325	-1.933057	-1.233336	-1.971884	-0.493896	0.354004	-0.317383
1196.0	13.957811	-5.849538	2.712581	-1.022857	-0.576793	-2.519412	-0.489014	0.338867	-0.306396
1197.0	-3.627411	-11.209795	28.407454	-1.455292	0.004683	-2.476938	-0.501465	0.327637	-0.284668
1198.0	-24.117192	-22.996593	12.299426	-0.923326	-0.745255	-2.810644	-0.511719	0.3125	-0.271729
1199.0	1.470983	-13.28151	-4.776124	6.90505	-5.566185	-2.297239	-0.529785	0.27124	-0.247559
1200.0	32.576971	9.839617	12.780244	6.79565	-7.926125	-2.085993	-0.550781	0.253418	-0.219482
1201.0	34.300761	8.967863	8.216692	0.391048	-2.377485	-1.172416	-0.552734	0.246826	-0.202148
1202.0	15.176881	-1.117865	16.221475	-3.288359	2.212729	-0.962016	-0.543945	0.249023	-0.204102
1203.0	-2.497349	-11.316927	9.57125	-0.729468	-0.112879	-0.734369	-0.550049	0.238281	-0.201904
1204.0	4.858575	-8.54904	6.023585	2.992123	-1.962828	-0.594741	-0.549805	0.229492	-0.193359
1205.0	10.143482	1.189934	10.607005	3.713193	-1.431404	-0.341829	-0.551514	0.21875	-0.19751
1206.0	7.746006	0.514151	8.457351	0.713034	-0.195311	-0.188957	-0.553711	0.21875	-0.186768
1207.0	5.878605	-3.80342	7.948677	-0.583333	-0.308084	-0.206146	-0.553711	0.21875	-0.186768
1208.0	7.072758	-4.300617	7.893692	1.371202	-0.310861	-0.261991	-0.555664	0.216553	-0.182373
1209.0	7.918432	-2.842135	7.725357	1.596722	-0.105891	-0.306276	-0.557617	0.210205	-0.190918
1210.0	7.590608	-4.016559	6.775419	-0.022465	0.175989	-0.309016	-0.551514	0.216309	-0.177979
1211.0	7.236247	-5.216703	6.737258	0.294596	0.195698	-0.281815	-0.553223	0.205811	-0.193115
1212.0	6.498892	-4.271125	6.876488	0.860094	0.285802	-0.322231	-0.552979	0.203613	-0.186768
1213.0	5.962423	-2.828453	7.563006	0.687002	0.325547	-0.313108	-0.550781	0.20166	-0.195313
1214.0	6.14938	-2.986305	7.604365	0.316379	0.240951	-0.289728	-0.552979	0.197266	-0.190918
1215.0	6.205172	-2.668477	7.765384	0.483585	0.244251	-0.23783	-0.552734	0.190918	-0.199707
1216.0	5.738967	-1.789673	8.20733	0.476268	0.1879	-0.165185	-0.550293	0.186523	-0.20166
1217.0	5.827042	-2.188767	7.942249	0.154762	0.057607	-0.105528	-0.550537	0.190918	-0.195313
1218.0	5.884425	-2.736322	7.735237	0.13878	0.051741	-0.075601	-0.550537	0.195313	-0.206055
1219.0	5.601629	-2.479758	7.905651	0.220771	0.035269	-0.045822	-0.550293	0.184326	-0.199463
1220.0	5.575666	-2.311461	7.890959	0.132241	-0.045994	-0.008334	-0.552734	0.190918	-0.199707
1221.0	5.823827	-2.769869	7.597051	0.036687	-0.087013	0.010358	-0.55249	0.188721	-0.199707
1222.0	5.688691	-2.825072	7.544023	0.073904	-0.063858	0.024904	-0.554932	0.190918	-0.203857
1223.0	5.685585	-2.881038	7.610238	0.055556	-0.09937	0.032112	-0.54834	0.190918	-0.203857
1224.0	5.853435	-3.041668	7.460519	0.015968	-0.117626	0.041208	-0.557129	0.195068	-0.193115
1225.0	5.720814	-3.261736	7.327631	0.037106	-0.091854	0.031766	-0.546143	0.190918	-0.195313
1226.0	5.584101	-3.381011	7.36664	0.043064	-0.09082	0.001616	-0.554688	0.190918	-0.195313
1227.0	5.626042	-3.368741	7.304813	0.091685	-0.085764	-0.028284	-0.55249	0.186523	-0.19751
1228.0	5.673867	-3.107783	7.436139	0.138596	-0.074861	-0.055354	-0.556885	0.186523	-0.195313
1229.0	5.606774	-2.855731	7.519617	0.109895	-0.054658	-0.061	-0.548096	0.188721	-0.20166
1230.0	5.59517	-2.746727	7.53963	0.118446	-0.064974	-0.060706	-0.554932	0.192871	-0.193115
1231.0	5.768897	-2.713758	7.497924	0.125901	-0.087247	-0.050246	-0.550537	0.190674	-0.193115
1232.0	5.77146	-2.775512	7.486334	0.087101	-0.061174	-0.042136	-0.557129	0.192871	-0.188721
1233.0	5.722388	-2.824845	7.567217	0.066661	-0.061082	-0.048174	-0.552246	0.184326	-0.188721
1234.0	5.671496	-2.884686	7.544484	0.071651	-0.078763	-0.049032	-0.55249	0.188477	-0.190918
1235.0	5.720068	-3.184708	7.431959	0.053203	-0.099352	-0.06992	-0.556885	0.188721	-0.19751
1236.0	5.791485	-3.219737	7.379981	0.109861	-0.088713	-0.105038	-0.556885	0.190674	-0.186523
1237.0	5.827876	-2.968856	7.458529	0.152827	-0.091015	-0.126199	-0.550293	0.184326	-0.193115
1238.0	5.853872	-2.910133	7.510203	0.098644	-0.087482	-0.148174	-0.558838	0.184326	-0.188721
1239.0	5.832442	-3.063265	7.491431	0.069541	-0.084044	-0.17022	-0.552002	0.177734	-0.186523
1240.0	5.841983	-2.971247	7.474813	0.074704	-0.092701	-0.195528	-0.558594	0.175537	-0.186523
1241.0	5.854632	-2.892717	7.556711	0.038299	-0.106633	-0.204671	-0.554199	0.175537	-0.186523
1242.0	5.915977	-3.114601	7.452079	-0.005262	-0.129097	-0.225413	-0.556641	0.182129	-0.186523
1243.0	5.876963	-3.08234	7.513625	0.011066	-0.142352	-0.248198	-0.558594	0.177734	-0.188721
1244.0	5.876514	-2.907414	7.609898	-0.002697	-0.17279	-0.265861	-0.562988	0.179932	-0.184326
1245.0	5.888883	-3.072597	7.651595	-0.055314	-0.219389	-0.286889	-0.562988	0.175537	-0.188721
1246.0	5.822732	-3.121719	7.576929	-0.066625	-0.238977	-0.327051	-0.564941	0.171143	-0.177734
1247.0	5.76987	-3.125298	7.708754	-0.117903	-0.285684	-0.377643	-0.564697	0.166992	-0.182129
1248.0	6.022796	-3.139825	7.464187	-0.203804	-0.353446	-0.447645	-0.564697	0.168945	-0.169189
1249.0	5.897172	-3.188377	7.553563	-0.244078	-0.371842	-0.520692	-0.562256	0.1604	-0.177734
1250.0	5.936567	-2.768528	7.609653	-0.284074	-0.409372	-0.583069	-0.564453	0.162354	-0.166992
1251.0	6.113256	-2.699057	7.492091	-0.40202	-0.466449	-0.639609	-0.570801	0.158203	-0.169189
1252.0	6.18619	-2.386254	7.387772	-0.469233	-0.469225	-0.662482	-0.568604	0.155762	-0.1604
1253.0	5.942887	-2.227248	7.490997	-0.506945	-0.47081	-0.720324	-0.572998	0.155762	-0.1604
1254.0	6.136777	-2.327273	7.308447	-0.717815	-0.498093	-0.841714	-0.579102	0.142822	-0.1604
1255.0	6.434694	-3.114905	7.048662	-1.122196	-0.452994	-1.051063	-0.578857	0.142822	-0.151611
1256.0	6.403613	-3.983025	6.632783	-1.403604	-0.331546	-1.339941	-0.587402	0.13623	-0.147461
1257.0	6.526365	-4.312553	6.348862	-1.505741	-0.254969	-1.687001	-0.584473	0.118896	-0.14502
1258.0	6.857982	-4.273408	6.132132	-1.712036	-0.143811	-2.068653	-0.588867	0.118896	-0.138672
1259.0	7.154587	-4.574477	5.852767	-2.071993	0.017685	-2.429651	-0.588379	0.104004	-0.147217
1260.0	7.132642	-4.859892	5.867776	-2.318384	0.204329	-2.783422	-0.596191	0.084473	-0.140625
1261.0	8.183898	-8.348578	5.056436	-2.878236	0.177232	-2.87502	-0.586914	0.069336	-0.138428
1262.0	7.211271	-1.419584	6.661233	-0.96433	0.605668	-3.33621	-0.595215	0.054443	-0.138184
1263.0	4.150538	-1.623232	7.721424	-2.160929	0.701179	-3.608462	-0.594238	0.030762	-0.148926
1264.0	7.483259	-2.903508	5.267941	-3.772017	-0.066532	-3.766877	-0.591553	0.015625	-0.144531
1265.0	8.036375	-4.488128	6.453986	-3.266486	0.587684	-3.873734	-0.58374	-0.012207	-0.153076
1266.0	6.563696	-3.746732	6.20453	-2.522991	0.622393	-3.943704	-0.585205	-0.033447	-0.159424
1267.0	6.626519	-2.306911	6.803601	-2.577184	0.511942	-3.969361	-0.580078	-0.054932	-0.163818
1268.0	7.184653	-2.418104	6.499152	-2.905555	0.560515	-3.994884	-0.577148	-0.072021	-0.167969
1269.0	7.373871	-2.905001	6.330202	-2.939972	0.712242	-3.986337	-0.572021	-0.093506	-0.176514
1270.0	7.138469	-2.893831	6.404851	-2.719139	0.855843	-3.989211	-0.560303	-0.114746	-0.182861
1271.0	7.20938	-2.744292	6.455303	-2.679024	0.948346	-4.016037	-0.550781	-0.135986	-0.202393
1272.0	7.418308	-2.927333	6.749946	-2.831259	1.083671	-4.072065	-0.543701	-0.153076	-0.20874
1273.0	7.140498	-3.972795	6.63036	-2.91491	1.265288	-4.181844	-0.530029	-0.170166	-0.223877
1274.0	7.380088	-4.633468	6.68896	-2.870745	1.37378	-4.377478	-0.520508	-0.189209	-0.236572
1275.0	7.279682	-4.51028	7.107186	-2.612086	1.562996	-4.570668	-0.500244	-0.208252	-0.251709
1276.0	7.122138	-4.496666	7.08575	-2.655092	1.681746	-4.776949	-0.48877	-0.225342	-0.262451
1277.0	6.905189	-4.659686	7.080794	-2.797682	1.813304	-4.943638	-0.466309	-0.244385	-0.28833
1278.0	6.809283	-4.555868	6.721737	-2.81782	1.886926	-5.061974	-0.445801	-0.265625	-0.30127
1279.0	7.220807	-4.405819	7.059516	-3.167713	1.897415	-5.169209	-0.423584	-0.278076	-0.320557
1280.0	7.643385	-3.77482	7.158554	-3.333286	2.013222	-5.367985	-0.397217	-0.288574	-0.342041
1281.0	6.58213	-2.283087	6.951665	-3.36423	2.184139	-5.676377	-0.372559	-0.307373	-0.36792
1282.0	5.985362	-1.207639	7.077605	-3.785686	2.005518	-6.047349	-0.348145	-0.319824	-0.387451
1283.0	7.2011	-1.33508	7.17795	-4.256902	1.789529	-6.38177	-0.311279	-0.319336	-0.411133
1284.0	8.230091	-1.505145	6.964781	-4.134513	1.888126	-6.604931	-0.287109	-0.327637	-0.428467
1285.0	7.985703	-1.345926	6.798094	-3.913503	1.964547	-6.602243	-0.25	-0.331543	-0.449951
1286.0	7.95095	-2.01067	6.144375	-4.178209	1.797219	-6.47384	-0.224121	-0.324707	-0.473877
1287.0	8.542363	-2.217652	5.229498	-3.93324	1.517155	-6.074933	-0.193848	-0.322021	-0.497559
1288.0	8.634313	-0.440147	5.920681	-3.701817	1.238996	-5.572293	-0.167969	-0.317383	-0.512939
1289.0	8.633057	-0.720394	5.050882	-4.50078	0.933008	-5.119794	-0.14502	-0.293457	-0.536621
1290.0	8.475868	-2.856561	5.03152	-5.026301	0.67252	-4.770948	-0.130371	-0.273682	-0.552002
1291.0	8.376381	-2.758804	5.585922	-4.181925	0.524653	-4.423582	-0.109375	-0.256348	-0.564941
1292.0	7.450921	-0.892451	6.280515	-3.891625	0.372572	-4.07747	-0.101074	-0.247559	-0.58252
1293.0	6.937524	-0.995096	6.564695	-4.520799	0.095187	-3.716113	-0.086914	-0.219238	-0.604248
1294.0	6.841016	-2.447932	7.099541	-4.491268	-0.086159	-3.352068	-0.090088	-0.195313	-0.61084
1295.0	6.217331	-2.523027	7.72029	-3.888847	-0.153099	-2.990957	-0.077881	-0.171387	-0.628174
1296.0	5.392707	-1.589306	8.29781	-3.575662	-0.233391	-2.741209	-0.081055	-0.151855	-0.63916
1297.0	5.240665	-1.362573	8.949111	-3.572234	-0.31007	-2.631908	-0.075195	-0.132568	-0.641357
1298.0	4.911407	-1.267024	9.133468	-3.343129	-0.219542	-2.629725	-0.076172	-0.106689	-0.643799
1299.0	3.888354	-0.887165	9.001336	-3.234906	-0.128954	-2.678089	-0.079102	-0.089355	-0.654785
1300.0	3.211955	-1.143956	8.876478	-3.376444	-0.135753	-2.717491	-0.077881	-0.063477	-0.661377
1301.0	3.117092	-1.965411	8.953725	-3.475376	-0.141652	-2.702365	-0.081055	-0.039551	-0.670166
1302.0	3.124225	-3.174559	9.01772	-3.528326	-0.069045	-2.601635	-0.086182	-0.020264	-0.676758
1303.0	2.892837	-4.351272	9.09506	-3.433243	0.063442	-2.45657	-0.082764	0.005615	-0.678955
1304.0	2.182985	-4.989158	9.003601	-3.208272	0.216504	-2.282883	-0.083008	0.012207	-0.678955
1305.0	1.410963	-5.094635	8.887148	-3.087706	0.276333	-2.074637	-0.07959	0.038086	-0.683594
1306.0	1.224115	-5.427666	8.884432	-3.125901	0.281836	-1.856091	-0.084961	0.061523	-0.683594
1307.0	1.388916	-6.127596	8.932087	-3.129425	0.306967	-1.649927	-0.083496	0.083008	-0.675049
1308.0	1.391247	-6.468769	9.01323	-2.964249	0.402807	-1.480002	-0.085938	0.0896	-0.686035
1309.0	1.221339	-6.230322	9.125602	-2.843249	0.494907	-1.340222	-0.084717	0.111084	-0.683838
