Acquisition frequency: 100 Hz
PacketCounter	Acc_X	Acc_Y	Acc_Z	Gyr_X	Gyr_Y	Gyr_Z	Mag_X	Mag_Y	Mag_Z
1.0	8.528382	-0.011849	5.453349	0.032036	0.01335	0.017232	-0.324463	0.093018	-0.788574
2.0	8.542344	-0.044249	5.400731	0.026923	0.025153	0.013557	-0.324707	0.099609	-0.786621
3.0	8.541082	-0.043784	5.402731	0.026306	0.0214	0.009208	-0.324463	0.095215	-0.781738
4.0	8.585374	-0.025643	5.37987	0.02763	0.022784	0.004352	-0.320068	0.097412	-0.793457
5.0	8.580377	-0.069034	5.439699	0.025978	0.016318	0.006578	-0.324707	0.099609	-0.78418
6.0	8.614275	-0.029413	5.411281	0.02358	0.013538	0.000525	-0.320068	0.099609	-0.78418
7.0	8.624057	-0.049572	5.417854	0.019649	0.023524	-0.000585	-0.324707	0.099609	-0.78418
8.0	8.564477	-0.039779	5.46379	0.016764	0.02908	-0.001215	-0.327148	0.101807	-0.784424
9.0	8.523196	-0.016316	5.409006	0.016416	0.030557	-0.001377	-0.317627	0.093018	-0.786377
10.0	8.506763	-0.038439	5.46478	0.01337	0.030001	0.000208	-0.319824	0.093018	-0.788574
11.0	8.48708	-0.057926	5.419933	0.011939	0.029498	-0.00134	-0.324707	0.099609	-0.777344
12.0	8.529015	-0.03541	5.421822	0.009341	0.033726	-0.000253	-0.32251	0.101807	-0.784424
13.0	8.546441	-0.072486	5.45924	0.029467	0.048336	0.003262	-0.322266	0.097412	-0.786377
14.0	8.543402	-0.070945	5.464014	0.032372	0.062892	0.00019	-0.324463	0.093018	-0.783936
15.0	8.559378	-0.107124	5.503675	0.035401	0.07001	0.001056	-0.322266	0.093018	-0.781738
16.0	8.555467	-0.105116	5.509792	0.038106	0.072043	-0.000698	-0.320068	0.095215	-0.78418
17.0	8.607956	-0.107175	5.49635	0.027845	0.069118	-0.005303	-0.320068	0.099609	-0.786621
18.0	8.580265	-0.111217	5.526689	0.030267	0.072476	-0.00878	-0.319824	0.093018	-0.788574
19.0	8.585141	-0.071994	5.551687	0.020783	0.07942	-0.01128	-0.320068	0.097412	-0.788818
20.0	8.500373	-0.07218	5.602229	0.0152	0.082943	-0.010192	-0.324463	0.095215	-0.791016
21.0	8.408829	-0.060725	5.599811	0.011136	0.080255	-0.011565	-0.320068	0.099609	-0.786621
22.0	8.380484	-0.065738	5.630666	0.004968	0.079298	-0.006858	-0.317871	0.097412	-0.786377
23.0	8.300167	-0.076589	5.632419	0.007896	0.066463	-0.000694	-0.317871	0.099609	-0.786621
24.0	8.339997	-0.107782	5.647604	0.008488	0.057248	0.000307	-0.31543	0.095215	-0.786377
25.0	8.328377	-0.090647	5.622995	0.01064	0.048235	-0.000258	-0.31543	0.095215	-0.788818
26.0	8.35594	-0.095576	5.656072	0.010815	0.054344	-0.002494	-0.319824	0.09082	-0.790771
27.0	8.350613	-0.090047	5.684666	0.009776	0.058775	-0.002999	-0.313232	0.097412	-0.78418
28.0	8.347226	-0.089134	5.689653	0.010993	0.060454	-0.004737	-0.313477	0.099609	-0.79126
29.0	8.287129	-0.083994	5.71394	0.014643	0.064774	-0.001977	-0.31543	0.095215	-0.78418
30.0	8.294248	-0.104222	5.724392	0.010722	0.061779	-0.006474	-0.317627	0.093018	-0.783936
31.0	8.299827	-0.066076	5.747697	0.012457	0.054395	-0.005638	-0.313232	0.097412	-0.79126
32.0	8.268752	-0.064011	5.699181	0.010929	0.047628	-0.006516	-0.313232	0.097412	-0.788818
33.0	8.287981	-0.051954	5.702799	0.011899	0.04335	-0.004454	-0.311035	0.097412	-0.781738
34.0	8.264421	-0.008588	5.695409	0.00387	0.030536	-0.003241	-0.313232	0.093018	-0.788574
35.0	8.262892	-0.008085	5.697627	0.005604	0.023152	-0.002397	-0.311035	0.095215	-0.788818
36.0	8.250753	-0.039888	5.704514	0.004696	0.013584	-0.001375	-0.313232	0.095215	-0.791016
37.0	8.271867	-0.028746	5.705402	0.005172	0.011089	0.003641	-0.31543	0.09082	-0.793213
38.0	8.293413	-0.017794	5.705666	0.005029	-0.001586	0.003444	-0.31543	0.095215	-0.786377
39.0	8.352388	-0.026882	5.662743	0.002244	-0.003464	0.00674	-0.313232	0.095215	-0.791016
40.0	8.380627	-0.027984	5.715293	0.002114	-0.002447	0.001893	-0.311279	0.099609	-0.788818
41.0	8.39417	-0.000638	5.685764	-0.00202	-0.004985	0.002075	-0.313232	0.093018	-0.788574
42.0	8.429111	-0.015889	5.666777	-0.002915	-0.000861	-0.00155	-0.313232	0.095215	-0.793457
43.0	8.418121	-0.047973	5.671991	0.002331	-0.002906	-0.002784	-0.311035	0.095215	-0.791016
44.0	8.415935	-0.042984	5.69577	-0.000274	0.001324	-0.001728	-0.313232	0.095215	-0.793457
45.0	8.394261	-0.053658	5.695694	0.001602	-0.006367	-0.004	-0.311035	0.097412	-0.788818
46.0	8.364333	-0.047714	5.666184	-0.001385	-0.007074	-0.003992	-0.31543	0.09082	-0.788574
47.0	8.384427	-0.031666	5.689147	-0.002041	-0.010688	-0.006767	-0.315674	0.099609	-0.79126
48.0	8.352473	-0.020966	5.683184	-0.000692	-0.010028	-0.003654	-0.311035	0.097412	-0.786377
49.0	8.320554	-0.01051	5.677171	-0.003404	-0.012059	-0.001916	-0.317871	0.095215	-0.788818
50.0	8.353636	-0.020873	5.681474	-0.001529	-0.006768	-0.000874	-0.313232	0.097412	-0.788818
51.0	8.364988	0.011421	5.675706	0.002187	-0.002599	0.000333	-0.313232	0.095215	-0.791016
52.0	8.375894	-0.009801	5.680679	0.003955	-0.003569	0.002057	-0.31543	0.095215	-0.786377
53.0	8.40867	-0.020284	5.685426	-0.000597	-0.004478	0.00363	-0.317871	0.097412	-0.786377
54.0	8.4196	-0.041702	5.69036	0.002187	-0.0026	0.000333	-0.31543	0.095215	-0.78418
55.0	8.452123	-0.052025	5.695479	0.000729	0.003461	0.001216	-0.31543	0.09082	-0.786133
56.0	8.451773	-0.051898	5.695999	0.004241	0.008799	-0.000864	-0.313477	0.099609	-0.793457
57.0	8.416341	-0.036445	5.715744	0.002926	0.014553	-0.0031	-0.313232	0.097412	-0.79126
58.0	8.371702	-0.057831	5.717511	0.003106	0.020661	-0.005341	-0.313232	0.095215	-0.795654
59.0	8.383934	-0.02973	5.689885	-0.002378	0.017462	-0.008272	-0.308594	0.093018	-0.781738
60.0	8.31335	0.000932	5.728866	0.000465	0.018476	-0.005163	-0.313232	0.095215	-0.788818
61.0	8.3209	-0.015044	5.759317	-0.001611	0.014355	-0.009494	-0.315674	0.097412	-0.798096
62.0	8.31346	-0.056173	5.718225	-0.004945	0.015124	-0.009655	-0.313477	0.099609	-0.79126
63.0	8.256006	-0.051598	5.738307	-0.001756	0.014662	-0.006376	-0.315674	0.097412	-0.786377
64.0	8.309605	-0.050414	5.744409	0.000504	0.01191	-0.0076	-0.310791	0.093018	-0.786377
65.0	8.278713	-0.044232	5.71631	0.001125	0.009109	-0.005702	-0.313232	0.095215	-0.788818
66.0	8.321731	-0.021762	5.716956	0.000431	0.012063	-0.006042	-0.315674	0.097412	-0.788818
67.0	8.355798	-0.03643	5.699328	-6.2e-05	0.013846	-0.003093	-0.311279	0.099609	-0.79126
68.0	8.328862	-0.037742	5.748003	-0.001661	0.00723	-0.002407	-0.313232	0.095215	-0.793457
69.0	8.367706	-0.06218	5.682341	0.002326	0.010076	0.000531	-0.313232	0.097412	-0.79126
70.0	8.340788	-0.063584	5.730976	0.002326	0.010076	0.00053	-0.308838	0.097412	-0.786621
71.0	8.377295	-0.083116	5.689287	0.003966	0.010125	-0.002591	-0.313232	0.097412	-0.793457
72.0	8.376679	-0.082676	5.6902	0.00362	0.011601	-0.002761	-0.313232	0.095215	-0.786377
73.0	8.360819	-0.051461	5.733474	0.004313	0.008648	-0.002422	-0.315674	0.097412	-0.786377
74.0	8.332154	-0.050219	5.681625	0.004346	0.015062	-0.001546	-0.308838	0.095215	-0.786377
75.0	8.339982	-0.066457	5.711648	0.003093	0.00697	-0.00069	-0.313232	0.095215	-0.788818
76.0	8.317812	-0.077084	5.712274	0.005007	0.005695	-0.002082	-0.31543	0.093018	-0.788574
77.0	8.317453	-0.07674	5.712802	0.007773	0.006864	0.002589	-0.317871	0.099609	-0.786621
78.0	8.31699	-0.076493	5.713479	0.00566	0.009309	0.000693	-0.31543	0.095215	-0.793457
79.0	8.305784	-0.054917	5.708901	0.009267	0.007219	0.002586	-0.306641	0.099854	-0.788818
80.0	8.307712	-0.059395	5.685592	0.00812	0.005387	0.002759	-0.311035	0.097412	-0.788818
81.0	8.326539	-0.096917	5.720486	0.012527	0.006605	0.004309	-0.311035	0.097412	-0.79126
82.0	8.361425	-0.058263	5.691621	0.011578	0.003604	0.007771	-0.308838	0.099854	-0.79126
83.0	8.337259	-0.064539	5.715643	0.009631	-0.001534	0.008289	-0.311035	0.095215	-0.788818
84.0	8.372206	-0.079649	5.696823	0.011546	-0.00281	0.006897	-0.313232	0.097412	-0.79126
85.0	8.359397	-0.053627	5.715071	0.015004	-0.004593	0.011909	-0.313232	0.095215	-0.791016
86.0	8.362029	-0.058463	5.690732	0.015771	-0.0077	0.010692	-0.315674	0.097412	-0.788818
87.0	8.364756	-0.063277	5.666248	0.014278	-0.008055	0.010694	-0.308838	0.095215	-0.786377
88.0	8.37595	-0.084495	5.67084	0.017685	-0.008977	0.009299	-0.311035	0.097412	-0.793457
89.0	8.379032	-0.035528	5.635689	0.016993	-0.006024	0.008956	-0.317627	0.093018	-0.791016
90.0	8.361257	-0.053102	5.712355	0.017176	8.2e-05	0.006709	-0.313232	0.097412	-0.788818
91.0	8.368229	-0.067132	5.640663	0.015227	-0.005056	0.00723	-0.313232	0.097412	-0.79126
92.0	8.377025	-0.083083	5.669272	0.023808	-0.007871	0.006166	-0.315674	0.097412	-0.788818
93.0	8.368978	-0.066079	5.639564	0.021675	-0.006128	0.012232	-0.313232	0.097412	-0.79126
94.0	8.391137	-0.054757	5.638941	0.023316	-0.006085	0.00911	-0.313232	0.097412	-0.786377
95.0	8.410986	-0.038452	5.662201	0.02297	-0.004608	0.008937	-0.317871	0.095215	-0.791016
96.0	8.402343	-0.07491	5.643532	0.024119	-0.002778	0.00876	-0.313232	0.097412	-0.795898
97.0	8.435408	-0.031164	5.637759	0.022279	-0.001655	0.008592	-0.317871	0.097412	-0.788818
98.0	8.439981	-0.040075	5.590058	0.025068	0.000217	0.005293	-0.311035	0.095215	-0.791016
99.0	8.437722	-0.034553	5.613873	0.025121	-0.000635	0.011699	-0.313232	0.097412	-0.786377
100.0	8.453336	-0.011524	5.560816	0.019822	0.002266	0.006518	-0.317871	0.099609	-0.786621
101.0	8.452811	-0.06454	5.571799	0.020095	0.000946	0.008249	-0.313232	0.097412	-0.793457
102.0	8.450802	-0.005773	5.585043	0.019058	0.005376	0.00773	-0.313232	0.095215	-0.793457
103.0	8.461148	-0.026538	5.590927	0.02028	0.007049	0.005993	-0.317627	0.093018	-0.791016
104.0	8.404149	-0.021708	5.610254	0.017292	0.006342	0.006002	-0.315674	0.097412	-0.795898
105.0	8.406057	-0.025821	5.586984	0.020501	0.006577	0.001317	-0.313232	0.095215	-0.78418
106.0	8.386237	-0.040773	5.563716	0.016636	0.002722	0.003236	-0.311035	0.095215	-0.793457
107.0	8.362068	-0.046276	5.587787	0.015759	-0.000427	0.005147	-0.317871	0.095215	-0.791016
108.0	8.384003	-0.034542	5.587483	0.019732	-0.003304	-0.00075	-0.310791	0.09082	-0.788574
109.0	8.392674	-0.049794	5.616307	0.021844	-0.005746	0.001151	-0.317627	0.093018	-0.781738
110.0	8.369003	-0.05489	5.639647	0.017979	-0.0096	0.003072	-0.313232	0.093018	-0.788574
111.0	8.382921	-0.02669	5.609535	0.01778	-0.008439	-0.000219	-0.313232	0.097412	-0.786377
112.0	8.387933	-0.035509	5.561196	0.016286	-0.008792	-0.000214	-0.313232	0.097412	-0.79126
113.0	8.427048	-0.056331	5.618792	0.018929	-0.00661	-0.0004	-0.31543	0.095215	-0.788818
114.0	8.395032	-0.045273	5.61282	0.01519	-0.011465	0.006373	-0.313477	0.099609	-0.79126
115.0	8.415253	-0.028879	5.635486	0.016904	-0.011587	0.001692	-0.313232	0.095215	-0.78418
116.0	8.418196	-0.032869	5.610654	0.018817	-0.012869	0.000302	-0.31543	0.093018	-0.791016
117.0	8.440742	-0.021051	5.609398	0.018672	-0.012551	0.003418	-0.317627	0.095215	-0.78418
118.0	8.430704	0.00102	5.603013	0.019821	-0.010722	0.003236	-0.31543	0.095215	-0.793457
119.0	8.41122	-0.067458	5.589587	0.019476	-0.009246	0.003061	-0.31543	0.093018	-0.788574
120.0	8.407722	-0.003208	5.625372	0.018127	-0.009917	-5e-05	-0.317871	0.095215	-0.795654
121.0	8.410058	-0.060716	5.611789	0.017982	-0.009598	0.003066	-0.319824	0.09082	-0.790771
122.0	8.412848	-0.064879	5.587167	0.01656	-0.010111	0.001514	-0.31543	0.095215	-0.793457
123.0	8.400639	-0.037811	5.60448	0.014752	-0.015565	-0.001063	-0.320068	0.095215	-0.795654
124.0	8.434009	-0.047294	5.608422	0.017597	-0.014539	0.002038	-0.313477	0.099609	-0.793457
125.0	8.426471	-0.030284	5.577806	0.013805	-0.01855	0.00241	-0.320068	0.095215	-0.788818
126.0	8.457697	-0.034989	5.605412	0.017598	-0.014539	0.002036	-0.312988	0.09082	-0.793213
127.0	8.45848	-0.034397	5.604234	0.01412	-0.013448	0.004992	-0.319824	0.09082	-0.793213
128.0	8.424435	-0.018499	5.621794	0.016907	-0.011587	0.001684	-0.317871	0.097412	-0.793457
129.0	8.470373	-0.054261	5.607863	0.018788	-0.006292	0.0027	-0.315674	0.097412	-0.788818
130.0	8.436044	-0.038377	5.625859	0.014507	-0.008505	0.006015	-0.313232	0.093018	-0.797852
131.0	8.406161	-0.032341	5.596228	0.017437	-0.006967	-0.00041	-0.317627	0.093018	-0.788574
132.0	8.415302	0.005547	5.614025	0.015769	-0.000419	0.005119	-0.317871	0.095215	-0.788818
133.0	8.382449	-0.037101	5.619788	0.013542	-0.004237	0.003929	-0.317627	0.093018	-0.791016
134.0	8.406726	-0.030632	5.595388	0.015109	-0.004046	0.002362	-0.317627	0.093018	-0.788574
135.0	8.369932	-0.009771	5.637575	0.012852	-0.001285	0.003577	-0.317627	0.093018	-0.793213
136.0	8.380771	-0.030493	5.642805	0.015109	-0.004046	0.002362	-0.317627	0.093018	-0.791016
137.0	8.381051	-0.029879	5.642394	0.01396	-0.005874	0.002547	-0.317627	0.09082	-0.786133
138.0	8.403314	-0.01861	5.641496	0.011519	-0.009209	0.006032	-0.320068	0.095215	-0.795654
139.0	8.384188	-0.034268	5.617211	0.013085	-0.009018	0.004465	-0.315674	0.097412	-0.795898
140.0	8.406523	-0.02278	5.616199	0.016217	-0.008636	0.001331	-0.320068	0.095215	-0.795654
141.0	8.426728	-0.006299	5.638874	0.010512	-0.01136	0.003101	-0.320068	0.099609	-0.795898
142.0	8.418419	-0.043188	5.619856	0.009017	-0.011713	0.00311	-0.317627	0.093018	-0.793213
143.0	8.440906	-0.031995	5.618602	0.010512	-0.01136	0.003101	-0.317627	0.093018	-0.791016
144.0	8.443602	-0.036757	5.594047	0.009405	-0.00677	0.004129	-0.31543	0.095215	-0.793457
145.0	8.441825	-0.031338	5.617225	0.012882	-0.007866	0.00117	-0.320068	0.095215	-0.781738
146.0	8.452761	-0.052314	5.62232	0.006459	-0.001056	0.004989	-0.317871	0.095215	-0.791016
147.0	8.422948	0.006626	5.582029	0.008165	-0.00119	0.000306	-0.313232	0.095215	-0.791016
148.0	8.446581	-0.04035	5.569065	0.008307	-0.001515	-0.00281	-0.317627	0.093018	-0.786377
149.0	8.46398	-0.018811	5.616464	0.00536	0.004199	-0.00195	-0.319824	0.093018	-0.793213
150.0	8.43353	-0.013123	5.587659	0.00483	-0.000419	0.000148	-0.31543	0.095215	-0.786377
151.0	8.435793	-0.01769	5.563752	0.005387	-0.002382	-0.004349	-0.320068	0.095215	-0.788818
152.0	8.433774	-0.012126	5.587293	0.005592	-0.003533	-0.001056	-0.317627	0.09082	-0.790771
153.0	8.436102	-0.016887	5.563285	0.000416	-0.001639	-0.001381	-0.322266	0.093018	-0.791016
154.0	8.458111	-0.005727	5.562728	0.002672	-0.004401	-0.002595	-0.317871	0.097412	-0.788818
155.0	8.444901	-0.032495	5.592113	0.001636	2.7e-05	-0.003126	-0.317871	0.099609	-0.781982
156.0	8.447083	-0.037172	5.568326	0.001636	2.7e-05	-0.003126	-0.319824	0.09082	-0.788574
157.0	8.425202	-0.047727	5.568694	0.00129	0.001503	-0.003303	-0.320068	0.095215	-0.793457
158.0	8.44472	-0.031641	5.592391	0.000733	0.003467	0.001194	-0.322266	0.093018	-0.791016
159.0	8.435941	-0.015416	5.563534	0.000113	0.006257	-0.000718	-0.319824	0.09082	-0.795654
160.0	8.433421	-0.010291	5.58783	-0.001312	0.005741	-0.002266	-0.317627	0.093018	-0.786377
161.0	8.443843	-0.031467	5.593715	-0.002461	0.003913	-0.00208	-0.322266	0.095215	-0.791016
162.0	8.437414	-0.020325	5.540829	-7.1e-05	0.000163	0.001558	-0.32251	0.099609	-0.788818
163.0	8.424001	-0.04757	5.570512	-0.002186	0.002599	-0.000345	-0.324707	0.099609	-0.786621
164.0	8.445768	-0.03653	5.570324	0.001636	2.7e-05	-0.003126	-0.310791	0.093018	-0.795654
165.0	8.437137	-0.020027	5.541252	0.000529	0.004618	-0.002099	-0.320068	0.095215	-0.791016
166.0	8.434171	-0.068191	5.576787	0.003102	0.006962	-0.000737	-0.31958	0.086426	-0.790771
167.0	8.444981	-0.035833	5.571522	0.001953	0.005133	-0.000551	-0.31543	0.095215	-0.791016
168.0	8.44912	-0.045641	5.524322	0.008553	0.003754	0.001324	-0.313477	0.099609	-0.79126
169.0	8.477017	-0.045663	5.577464	0.006642	0.00504	0.002714	-0.319824	0.093018	-0.786377
170.0	8.474376	-0.040323	5.60193	0.011585	0.010879	0.002143	-0.317627	0.09082	-0.788574
171.0	8.423892	-0.050472	5.550232	0.010852	0.007411	0.00095	-0.317627	0.095215	-0.786377
172.0	8.455785	-0.060404	5.556401	0.015166	0.015377	0.006433	-0.317871	0.097412	-0.795898
173.0	8.468432	-0.033005	5.52791	0.013284	0.010082	0.005426	-0.322266	0.095215	-0.791016
174.0	8.457311	-0.011473	5.523078	0.01432	0.005654	0.005959	-0.317871	0.097412	-0.788818
175.0	8.465424	-0.02752	5.552924	0.013832	0.007456	0.008897	-0.317871	0.095215	-0.788818
176.0	8.462764	-0.022382	5.577397	0.013558	0.008769	0.007161	-0.317871	0.095215	-0.793457
177.0	8.477305	-0.053591	5.536194	0.016132	0.011113	0.008521	-0.317627	0.09082	-0.783936
178.0	8.428494	-0.065023	5.585401	0.015514	0.013901	0.006606	-0.31543	0.093018	-0.793213
179.0	8.438871	-0.03259	5.580792	0.016938	0.014417	0.008154	-0.322266	0.097412	-0.788818
180.0	8.407827	-0.026962	5.552899	0.020618	0.01217	0.008492	-0.317627	0.09082	-0.793213
181.0	8.426919	-0.01046	5.577203	0.020301	0.007062	0.005922	-0.31543	0.095215	-0.78418
182.0	8.437237	-0.031184	5.58327	0.01908	0.005398	0.007667	-0.315674	0.099609	-0.788818
183.0	8.424042	-0.004495	5.601967	0.019008	0.005563	0.009224	-0.322266	0.095215	-0.78418
184.0	8.404144	-0.020186	5.578891	0.019353	0.004087	0.009403	-0.317871	0.095215	-0.791016
185.0	8.425661	-0.009101	5.579104	0.015329	0.007811	0.008883	-0.319824	0.093018	-0.786377
186.0	8.405747	-0.024997	5.556057	0.01813	0.002424	0.011148	-0.31543	0.095215	-0.791016
187.0	8.390484	0.00645	5.598276	0.014795	0.003196	0.010987	-0.317627	0.093018	-0.783936
188.0	8.43569	-0.030376	5.585611	0.014796	0.003196	0.010987	-0.319824	0.09082	-0.786133
189.0	8.427184	-0.014242	5.556395	0.014133	-0.000438	0.008241	-0.320068	0.095215	-0.786377
190.0	8.433413	-0.025278	5.609459	0.012565	-0.000624	0.009808	-0.315674	0.099609	-0.793457
191.0	8.446899	0.001697	5.579742	0.011214	-0.001306	0.006702	-0.320068	0.095215	-0.786377
192.0	8.433471	-0.025229	5.609373	0.013789	0.001038	0.00806	-0.319824	0.088623	-0.793213
193.0	8.451201	-0.008347	5.532429	0.00991	0.004432	0.004424	-0.31543	0.093018	-0.788574
194.0	8.457016	-0.019131	5.58612	0.010373	0.009211	0.003873	-0.317627	0.093018	-0.793213
195.0	8.434646	-0.029857	5.587191	0.008806	0.009026	0.005439	-0.317871	0.095215	-0.788818
196.0	8.458275	-0.023843	5.563825	0.010861	0.007404	0.000938	-0.319824	0.093018	-0.791016
197.0	8.455453	-0.018393	5.588488	0.00927	0.013805	0.004887	-0.317627	0.093018	-0.793213
198.0	8.443488	-0.05036	5.595498	0.01111	0.012681	0.005058	-0.317871	0.099609	-0.786621
199.0	8.454017	-0.018025	5.590661	0.009686	0.012163	0.00351	-0.317871	0.095215	-0.788818
200.0	8.431428	-0.028713	5.592052	0.00927	0.013806	0.004886	-0.31543	0.093018	-0.791016
201.0	8.452466	-0.017704	5.593007	0.010423	0.015633	0.004695	-0.317627	0.093018	-0.788574
202.0	8.438014	-0.044511	5.624131	0.011159	0.019102	0.00588	-0.315674	0.097412	-0.786377
203.0	8.463189	-0.043691	5.578122	0.010274	0.023197	0.002221	-0.317871	0.095215	-0.793457
204.0	8.448982	-0.016954	5.598271	0.01312	0.024232	0.005316	-0.319824	0.093018	-0.788574
205.0	8.468658	-0.059246	5.611889	0.011331	0.031779	0.005963	-0.317627	0.093018	-0.786377
206.0	8.445653	-0.016528	5.603293	0.014667	0.031005	0.006126	-0.317627	0.095215	-0.786377
207.0	8.43859	-0.059209	5.665162	0.01045	0.035873	0.002299	-0.319824	0.093018	-0.793213
208.0	8.430402	-0.047769	5.615218	0.014252	0.039878	0.001908	-0.313232	0.097412	-0.79126
209.0	8.40165	-0.047605	5.666411	0.015406	0.041705	0.001715	-0.317627	0.09082	-0.786133
210.0	8.401746	-0.05217	5.645943	0.011948	0.036225	0.002285	-0.317871	0.095215	-0.788818
211.0	8.373	-0.052136	5.69702	0.014991	0.043349	0.003085	-0.313232	0.093018	-0.788574
212.0	8.367096	-0.045775	5.623458	0.013521	0.036409	0.000717	-0.313232	0.095215	-0.793457
213.0	8.362741	-0.039914	5.650214	0.015286	0.035451	0.002448	-0.317627	0.093018	-0.781738
214.0	8.371439	-0.060581	5.658717	0.01298	0.031798	0.002828	-0.313232	0.095215	-0.788818
215.0	8.38092	-0.028029	5.655471	0.011484	0.031447	0.002833	-0.31543	0.093018	-0.786377
216.0	8.392052	-0.054166	5.640121	0.00957	0.03274	0.004211	-0.31543	0.095215	-0.793457
217.0	8.379487	-0.032563	5.637357	0.010192	0.037183	0.000537	-0.31543	0.093018	-0.788574
218.0	8.366089	-0.064396	5.646403	0.009887	0.037855	0.006762	-0.313232	0.093018	-0.795654
219.0	8.385926	-0.053392	5.649234	0.009307	0.034049	0.002466	-0.310791	0.093018	-0.786377
220.0	8.405992	-0.042109	5.651739	0.011907	0.029804	0.001457	-0.313232	0.097412	-0.795898
221.0	8.382305	-0.052479	5.654613	0.010804	0.0344	0.002457	-0.313232	0.095215	-0.795654
222.0	8.391703	-0.020025	5.651528	0.009651	0.032573	0.002646	-0.313232	0.095215	-0.793457
223.0	8.378477	-0.051684	5.660291	0.010542	0.035708	0.000712	-0.310791	0.09082	-0.793213
224.0	8.400845	-0.045484	5.639262	0.009808	0.032237	-0.00047	-0.308838	0.095215	-0.788818
225.0	8.374747	-0.050786	5.665817	0.005163	0.031522	0.002656	-0.317871	0.099609	-0.795898
226.0	8.37294	-0.050453	5.66849	0.00981	0.032237	-0.000471	-0.310791	0.088623	-0.788574
227.0	8.36328	-0.033748	5.641274	0.007608	0.021824	-0.004011	-0.308594	0.093018	-0.795654
228.0	8.361947	-0.033256	5.643253	0.006609	0.02545	0.00184	-0.311035	0.095215	-0.798096
229.0	8.392978	-0.043558	5.650979	0.00212	0.024399	0.001852	-0.311035	0.095215	-0.788818
230.0	8.369726	-0.054262	5.653149	0.003776	0.024412	-0.001265	-0.310791	0.093018	-0.793213
231.0	8.344047	-0.059633	5.678977	0.004038	0.023105	0.000477	-0.310791	0.088623	-0.783936
232.0	8.388938	-0.042932	5.656979	0.005535	0.023455	0.000473	-0.312988	0.09082	-0.786133
233.0	8.365827	-0.053256	5.658926	0.007954	0.020348	-0.003826	-0.310791	0.09082	-0.786133
234.0	8.397146	-0.06312	5.666257	0.006559	0.019028	0.001032	-0.31543	0.093018	-0.786377
235.0	8.363547	-0.052691	5.662301	0.00414	0.022136	0.005329	-0.304199	0.097656	-0.788818
236.0	8.370425	-0.068751	5.693564	0.003226	0.019802	0.00085	-0.311035	0.097412	-0.788818
237.0	8.383187	-0.041848	5.665506	0.003828	0.01702	0.002781	-0.308838	0.095215	-0.793457
238.0	8.368363	-0.068542	5.696597	0.005145	0.018508	-0.000522	-0.310791	0.093018	-0.797852
239.0	8.359373	-0.052327	5.668465	0.006007	0.014419	0.003152	-0.311279	0.099609	-0.79126
240.0	8.38049	-0.041312	5.669499	0.005014	0.012254	0.00023	-0.311279	0.102051	-0.800537
241.0	8.38236	-0.046261	5.646728	0.008608	0.010172	0.002155	-0.308838	0.099854	-0.798096
242.0	8.357385	-0.051404	5.671403	0.007014	0.01079	-0.002698	-0.303955	0.09082	-0.791016
243.0	8.378623	-0.040096	5.672266	0.008267	0.011648	0.001967	-0.313232	0.095215	-0.791016
244.0	8.355993	-0.050774	5.67346	0.007422	0.014939	0.004703	-0.311035	0.097412	-0.79126
245.0	8.363218	-0.066671	5.70417	0.007845	0.013294	0.003335	-0.31543	0.095215	-0.791016
246.0	8.362411	-0.066394	5.705356	0.009082	0.014951	0.001588	-0.313232	0.097412	-0.793457
247.0	8.351098	-0.044769	5.700667	0.009764	0.011999	0.001964	-0.31543	0.095215	-0.795654
248.0	8.360955	-0.065612	5.707499	0.009764	0.011999	0.001964	-0.310791	0.093018	-0.791016
249.0	8.371682	-0.033207	5.702497	0.010364	0.009217	0.003896	-0.311035	0.097412	-0.788818
250.0	8.373603	-0.038199	5.679688	0.009683	0.012169	0.003519	-0.308594	0.09082	-0.797852
251.0	8.359073	-0.064823	5.710264	0.005275	0.010948	0.001969	-0.313232	0.093018	-0.791016
252.0	8.372349	-0.037893	5.681537	0.00703	0.009992	0.003712	-0.308838	0.095215	-0.793457
253.0	8.360377	-0.069793	5.688369	0.009683	0.012169	0.003519	-0.310791	0.093018	-0.797852
254.0	8.368464	-0.032117	5.707225	0.012677	0.01287	0.003514	-0.311035	0.093262	-0.814209
255.0	8.372832	-0.042371	5.660876	0.009601	0.012339	0.005074	-0.313232	0.097412	-0.795898
256.0	8.39401	-0.031417	5.661857	0.009601	0.012339	0.005073	-0.311035	0.095215	-0.795654
257.0	8.347007	-0.047629	5.6867	0.009684	0.012169	0.003517	-0.311035	0.095215	-0.791016
258.0	8.368126	-0.036346	5.687766	0.013917	0.014525	0.001767	-0.308838	0.099854	-0.795898
259.0	8.367464	-0.035867	5.688742	0.008951	0.008696	0.002341	-0.308594	0.093018	-0.788574
260.0	8.342454	-0.041049	5.713336	0.013018	0.011394	0.003702	-0.306641	0.097656	-0.793457
261.0	8.341812	-0.040834	5.714276	0.009859	0.011035	0.006816	-0.310791	0.093018	-0.793213
262.0	8.341221	-0.04066	5.71514	0.011862	0.009567	0.003893	-0.308838	0.095459	-0.798096
263.0	8.340777	-0.040389	5.71579	0.009549	0.005915	0.004276	-0.313232	0.095215	-0.78418
264.0	8.34295	-0.045447	5.692668	0.010706	0.007741	0.004084	-0.310791	0.093018	-0.795654
265.0	8.31812	-0.050798	5.71697	0.008052	0.005565	0.004277	-0.308838	0.097656	-0.793457
266.0	8.317618	-0.050552	5.717702	0.014434	0.011914	0.005254	-0.310791	0.093018	-0.791016
267.0	8.341451	-0.04472	5.69487	0.01178	0.009739	0.005447	-0.31543	0.095215	-0.795654
268.0	8.335832	-0.033899	5.74295	0.01246	0.006787	0.005828	-0.306396	0.093018	-0.793213
269.0	8.330045	-0.022911	5.690289	0.012287	0.00792	0.002526	-0.306396	0.095459	-0.793457
270.0	8.318293	-0.054607	5.696786	0.0128	0.005311	0.006018	-0.306396	0.09082	-0.797852
271.0	8.337349	-0.038289	5.720803	0.011643	0.003485	0.00621	-0.313477	0.099609	-0.795898
272.0	8.33719	-0.037962	5.721038	0.013647	0.002016	0.003288	-0.306396	0.095459	-0.795654
273.0	8.369461	-0.047936	5.727078	0.013563	0.002188	0.004843	-0.311035	0.097412	-0.78418
274.0	8.361541	-0.03169	5.69747	0.013086	-0.002589	0.005418	-0.308594	0.09082	-0.795654
275.0	8.361523	-0.031514	5.697497	0.010147	0.003136	0.00621	-0.308838	0.099854	-0.79126
276.0	8.396412	-0.046996	5.679793	0.01574	-0.000414	0.005223	-0.308594	0.093018	-0.793213
277.0	8.339325	-0.041795	5.698005	0.012039	0.008436	0.007187	-0.313477	0.099609	-0.786621
278.0	8.37997	-0.014627	5.722403	0.016191	0.01096	0.00699	-0.312988	0.09082	-0.795654
279.0	8.370671	-0.051633	5.705411	0.015796	0.006011	0.006011	-0.308838	0.095215	-0.788818
280.0	8.37022	-0.05133	5.706075	0.016448	0.009657	0.008736	-0.306396	0.095459	-0.798096
281.0	8.359223	-0.029934	5.700879	0.01529	0.007832	0.008929	-0.313232	0.093018	-0.795654
282.0	8.369307	-0.051037	5.707416	0.01563	0.006356	0.009121	-0.306396	0.09082	-0.793213
283.0	8.358305	-0.029597	5.702227	0.017607	0.011483	0.00854	-0.308594	0.09082	-0.788574
284.0	8.352575	-0.018677	5.750396	0.015291	0.007832	0.008928	-0.306396	0.095215	-0.791016
285.0	8.359756	-0.034586	5.680221	0.015771	0.012609	0.008348	-0.313232	0.097412	-0.78418
286.0	8.353951	-0.023632	5.728487	0.015036	0.009135	0.00718	-0.310791	0.09082	-0.795654
287.0	8.334066	-0.039559	5.705711	0.016111	0.011134	0.00854	-0.313232	0.093018	-0.791016
288.0	8.343971	-0.060598	5.712512	0.013539	0.008786	0.00718	-0.308594	0.093018	-0.797852
289.0	8.376883	-0.01765	5.707052	0.012719	0.005485	0.007568	-0.308594	0.09082	-0.786377
290.0	8.354646	-0.028258	5.707593	0.011051	0.006265	0.004266	-0.308594	0.093018	-0.793213
291.0	8.386625	-0.038362	5.7141	0.01546	0.007485	0.005816	-0.308838	0.097412	-0.79126
292.0	8.331905	-0.038511	5.708872	0.010544	0.008089	0.007182	-0.312988	0.09082	-0.795654
293.0	8.342862	-0.006444	5.703539	0.007379	0.008519	0.003882	-0.313232	0.097412	-0.798096
294.0	8.330936	-0.03843	5.710287	0.007295	0.008693	0.005436	-0.308838	0.095215	-0.795654
295.0	8.362868	-0.048817	5.716867	0.006304	0.00652	0.002522	-0.304443	0.097656	-0.795898
296.0	8.349389	-0.022091	5.735141	0.004468	0.007647	0.002329	-0.311279	0.099854	-0.798096
297.0	8.363024	0.004573	5.706043	0.001558	0.006775	0.000777	-0.310791	0.093018	-0.793213
298.0	8.348587	-0.021668	5.73631	0.004891	0.006775	-0.005444	-0.310791	0.093018	-0.797852
299.0	8.350686	-0.026687	5.713394	0.000542	0.011203	0.000196	-0.313232	0.097412	-0.798096
300.0	8.342256	-0.010457	5.684585	0.002801	0.009204	-0.007385	-0.306396	0.09082	-0.795654
301.0	8.384553	-0.041477	5.697327	-0.00203	0.009633	-0.007576	-0.306396	0.095215	-0.791016
302.0	8.351593	-0.03059	5.692239	-0.002453	0.011283	-0.006215	-0.306396	0.095459	-0.793457
303.0	8.35099	-0.030099	5.693127	-0.000532	0.009982	-0.007577	-0.308594	0.09082	-0.788574
304.0	8.380141	-0.034624	5.723628	-0.003866	0.01076	-0.00777	-0.306396	0.093262	-0.800293
305.0	8.349781	-0.029112	5.694904	-0.002368	0.011109	-0.007771	-0.304199	0.097656	-0.793457
306.0	8.349223	-0.028725	5.695725	-0.006522	0.008586	-0.007575	-0.306396	0.093018	-0.795654
307.0	8.359209	-0.049515	5.702437	-0.000193	0.008507	-0.007384	-0.313232	0.093018	-0.783936
308.0	8.348238	-0.027883	5.697173	-0.00511	0.009109	-0.006021	-0.302002	0.097656	-0.793457
309.0	8.346798	-0.080762	5.709906	-0.00169	0.008158	-0.007383	-0.308838	0.099609	-0.788818
310.0	8.357707	-0.048177	5.704649	-0.000531	0.009983	-0.007578	-0.306641	0.097656	-0.800537
311.0	8.356201	-0.10093	5.717488	-0.002114	0.009808	-0.006023	-0.306396	0.093018	-0.786377
312.0	8.356658	-0.047323	5.706193	-2.5e-05	0.00738	-0.00408	-0.306641	0.097656	-0.800537
313.0	8.331753	-0.052555	5.730398	-0.002767	0.005379	-0.002331	-0.306396	0.093018	-0.791016
314.0	8.32001	-0.084282	5.736883	0.001897	0.006079	-0.005441	-0.308838	0.097656	-0.795898
315.0	8.333774	-0.057433	5.707656	-0.001102	0.004601	0.000972	-0.308838	0.095215	-0.795654
316.0	8.341362	-0.073079	5.737668	0.003987	0.003652	-0.003498	-0.308838	0.097656	-0.795898
317.0	8.341238	-0.072733	5.737852	0.002995	0.000699	-0.0	-0.310791	0.093018	-0.795654
318.0	8.308904	-0.062103	5.731804	0.00517	-0.001903	0.000388	-0.308594	0.093018	-0.795654
319.0	8.35715	-0.10427	5.696351	0.006582	-0.001379	0.001943	-0.308594	0.093018	-0.783936
320.0	8.314502	-0.07249	5.684058	0.007512	-0.005632	0.00408	-0.304443	0.097656	-0.795898
321.0	8.34459	-0.077291	5.71318	0.012683	-0.007535	0.004468	-0.308838	0.097656	-0.793457
322.0	8.401848	-0.082242	5.694997	0.013413	-0.004838	0.012046	-0.306396	0.095459	-0.793457
323.0	8.374781	-0.082339	5.74215	0.010818	0.000192	0.006605	-0.311035	0.095215	-0.786377
324.0	8.423953	-0.071274	5.694674	0.016412	-0.003362	0.005632	-0.306396	0.095215	-0.791016
325.0	8.391539	-0.060563	5.688748	0.01596	0.00489	0.009322	-0.306641	0.097656	-0.79126
326.0	8.399122	-0.076175	5.718782	0.016385	0.00324	0.007961	-0.310791	0.09082	-0.795654
327.0	8.379665	-0.092141	5.69545	0.017797	0.003764	0.009515	-0.306641	0.097656	-0.800537
328.0	8.380457	-0.038695	5.683636	0.018136	0.002288	0.00971	-0.312988	0.088623	-0.793213
329.0	8.37662	-0.086504	5.719693	0.014292	0.004893	0.012429	-0.308838	0.097412	-0.788818
330.0	8.379737	-0.038675	5.684698	0.017266	0.012967	0.008341	-0.310791	0.09082	-0.788574
331.0	8.330156	-0.049067	5.73275	0.017883	0.003588	0.007959	-0.311035	0.095215	-0.786377
332.0	8.322023	-0.033038	5.703533	0.015286	0.007843	0.008928	-0.308594	0.09082	-0.797852
333.0	8.329355	-0.048711	5.733917	0.016698	0.008367	0.010481	-0.303955	0.088623	-0.786133
334.0	8.288786	-0.022499	5.698789	0.01404	0.006194	0.010678	-0.310791	0.09082	-0.795654
335.0	8.318206	-0.027464	5.728878	0.0163	0.003415	0.009514	-0.308594	0.093018	-0.788574
336.0	8.320641	-0.03286	5.705549	0.012967	0.004194	0.009319	-0.306641	0.097656	-0.802734
337.0	8.320552	-0.032914	5.705679	0.01573	-0.001184	0.011657	-0.306396	0.095215	-0.78418
338.0	8.325803	-0.043261	5.758868	0.014655	-0.003184	0.010299	-0.306396	0.095459	-0.795654
339.0	8.376876	-0.091341	5.699564	0.008098	-0.008407	0.006033	-0.306396	0.095215	-0.788818
340.0	8.414044	0.000128	5.757879	0.025229	-0.000923	0.008737	-0.310791	0.093018	-0.793213
341.0	8.448316	0.097469	5.840182	0.020231	0.00063	0.005238	-0.308838	0.095459	-0.798096
342.0	8.453589	0.086968	5.792928	0.012317	0.000542	0.006601	-0.311035	0.097412	-0.795898
343.0	8.428155	0.027804	5.728143	0.017144	-0.000657	0.013207	-0.311035	0.095215	-0.791016
344.0	8.454961	0.140031	5.780252	0.029902	-0.00914	0.022543	-0.308838	0.095215	-0.795654
345.0	8.496742	0.166367	5.802955	0.017408	-0.010092	0.025464	-0.311279	0.099609	-0.793457
346.0	8.508904	0.084337	5.696989	0.015683	0.010499	0.029112	-0.306641	0.097656	-0.793457
347.0	8.399538	0.082695	5.68625	0.035481	0.020146	0.031604	-0.311035	0.097412	-0.79126
348.0	8.332631	0.049713	5.688059	0.044634	0.020347	0.04131	-0.308594	0.09082	-0.795654
349.0	8.262712	-0.032344	5.624257	0.041507	-0.001334	0.050299	-0.311035	0.097412	-0.793457
350.0	8.232865	-0.083347	5.504993	0.05388	-0.028749	0.060464	-0.308838	0.095215	-0.795654
351.0	8.239156	-0.03753	5.465299	0.074094	-0.062517	0.068505	-0.313232	0.095215	-0.788818
352.0	8.278248	0.056158	5.440037	0.078306	-0.096072	0.082382	-0.308838	0.095215	-0.791016
353.0	8.331616	0.120749	5.294483	0.0795	-0.109729	0.096772	-0.308838	0.095215	-0.793457
354.0	8.345123	0.211694	5.213216	0.082935	-0.104834	0.104092	-0.308838	0.099609	-0.786621
355.0	8.350464	0.318471	5.203741	0.073046	-0.083559	0.115262	-0.312988	0.09082	-0.788574
356.0	8.373916	0.327223	5.119996	0.062904	-0.066847	0.115972	-0.308594	0.09082	-0.791016
357.0	8.387685	0.299158	5.120886	0.069285	-0.054471	0.127122	-0.308838	0.097412	-0.79126
358.0	8.449808	0.27991	5.074984	0.05908	-0.044919	0.133495	-0.313232	0.093018	-0.793213
359.0	8.528659	0.28201	5.076624	0.067359	-0.03974	0.134569	-0.313232	0.093018	-0.788574
360.0	8.65302	0.358252	5.065356	0.078568	-0.033703	0.13717	-0.312988	0.09082	-0.786133
361.0	8.751271	0.376864	5.090719	0.08215	-0.035058	0.132669	-0.313232	0.097412	-0.79126
362.0	8.866341	0.415717	5.062137	0.0622	-0.036307	0.121313	-0.315674	0.099609	-0.788818
363.0	8.913605	0.310993	5.036983	0.037893	-0.025507	0.113018	-0.312988	0.09082	-0.793213
364.0	9.007682	0.281704	5.098527	0.02741	-0.04808	0.103128	-0.313232	0.097412	-0.786377
365.0	9.173923	0.213208	5.099633	0.016908	-0.056498	0.092956	-0.313477	0.099609	-0.786621
366.0	9.240598	0.184107	5.107546	0.01687	-0.026739	0.079561	-0.313232	0.097412	-0.788818
367.0	9.121318	0.150137	5.202851	0.0222	0.007306	0.065719	-0.313232	0.095215	-0.788818
368.0	8.989501	0.137169	5.194166	0.028364	0.03729	0.05558	-0.313232	0.095215	-0.788818
369.0	8.846053	0.147085	5.181855	0.051419	0.068722	0.051909	-0.315674	0.099609	-0.79126
370.0	8.622867	0.095581	5.179042	0.063893	0.083139	0.056559	-0.306396	0.093018	-0.793213
371.0	8.438847	0.076629	5.223049	0.074692	0.08345	0.064619	-0.313232	0.095215	-0.788818
372.0	8.299601	-0.039254	5.24461	0.095507	0.073783	0.075809	-0.308594	0.093018	-0.791016
373.0	8.205079	-0.075566	5.274942	0.106911	0.056987	0.084597	-0.308838	0.095215	-0.788818
374.0	8.158143	-0.097206	5.279588	0.12346	0.038225	0.093774	-0.310791	0.093018	-0.791016
375.0	8.181125	-0.091514	5.359301	0.132764	0.03139	0.098031	-0.308594	0.093018	-0.786377
376.0	8.260725	-0.092417	5.421278	0.132923	0.03853	0.092304	-0.308594	0.09082	-0.791016
377.0	8.253143	-0.139424	5.46223	0.130539	0.05749	0.084901	-0.310791	0.088623	-0.790771
378.0	8.293883	-0.177822	5.456803	0.117386	0.068614	0.072014	-0.302002	0.095459	-0.795654
379.0	8.267067	-0.242504	5.554641	0.098357	0.094456	0.038042	-0.308594	0.093018	-0.786377
380.0	8.18577	-0.369799	5.616497	0.053209	0.153715	0.001962	-0.312988	0.088623	-0.790771
381.0	7.867061	-0.575651	5.501287	0.016746	0.211141	-0.049496	-0.302002	0.093262	-0.791016
382.0	7.621812	-0.825857	5.306202	0.000713	0.219571	-0.111034	-0.303955	0.09082	-0.791016
383.0	7.546515	-1.027664	5.091908	0.024413	0.20662	-0.184366	-0.299561	0.093262	-0.795654
384.0	7.497641	-1.097033	4.974214	0.062846	0.207738	-0.270328	-0.297119	0.088867	-0.793213
385.0	7.53787	-1.110706	5.056491	0.111995	0.174305	-0.349587	-0.301758	0.088623	-0.790771
386.0	7.842846	-0.924521	5.088746	0.177936	0.053035	-0.384367	-0.297363	0.091064	-0.795654
387.0	8.618152	-0.514227	5.186022	0.253329	-0.078479	-0.384163	-0.299072	0.079834	-0.792725
388.0	9.565927	0.05802	5.146942	0.309148	-0.19726	-0.342035	-0.30127	0.075439	-0.794922
389.0	9.499521	0.713588	5.207461	0.221893	-0.215026	-0.294735	-0.307861	0.075439	-0.781006
390.0	10.566476	0.647036	5.199262	0.167371	-0.393525	-0.207143	-0.307861	0.075439	-0.792725
391.0	10.926013	1.029074	5.208548	0.165983	-0.242858	-0.148695	-0.308105	0.079834	-0.785889
392.0	11.109642	1.108063	4.599562	0.020378	-0.199857	-0.035101	-0.307861	0.071045	-0.7854
393.0	11.082399	0.8345	4.402432	0.032443	-0.053538	0.026002	-0.310059	0.071045	-0.790283
394.0	10.456296	0.665353	4.50941	-0.086579	0.12627	0.080809	-0.310303	0.075439	-0.788086
395.0	9.593285	0.11545	4.450543	-0.211533	0.217421	0.123042	-0.308105	0.079834	-0.792725
396.0	8.941289	-0.37169	4.445914	-0.209529	0.172328	0.146945	-0.303711	0.079834	-0.78125
397.0	8.881273	-0.62242	4.357924	-0.196815	0.060589	0.163347	-0.310303	0.079834	-0.778809
398.0	8.897553	-0.916755	4.283803	-0.223764	0.065523	0.185571	-0.301514	0.082031	-0.790527
399.0	8.691082	-1.314722	4.313395	-0.212998	0.099389	0.206204	-0.301514	0.082031	-0.785889
400.0	8.484137	-1.488575	4.334451	-0.142384	0.077942	0.23158	-0.303467	0.077637	-0.788086
401.0	8.479213	-1.517047	4.416226	-0.086438	0.072126	0.257527	-0.299561	0.09082	-0.783936
402.0	8.383138	-1.52863	4.332277	-0.047941	0.095059	0.280526	-0.299316	0.086426	-0.790771
403.0	8.296456	-1.501145	4.265542	0.012252	0.071936	0.290086	-0.303955	0.09082	-0.783936
404.0	8.275501	-1.493918	4.209766	0.069755	0.024037	0.307798	-0.299561	0.088623	-0.788574
405.0	8.496284	-1.482079	4.076157	0.124184	-0.014847	0.305216	-0.301758	0.09082	-0.788574
406.0	8.673554	-1.429943	3.952188	0.196997	-0.006953	0.293343	-0.301514	0.084229	-0.78833
407.0	8.741871	-1.251567	3.937332	0.244976	0.020845	0.282636	-0.299561	0.088623	-0.783936
408.0	8.748865	-1.172659	3.867661	0.273768	0.021479	0.26581	-0.294922	0.08667	-0.786133
409.0	8.760321	-0.980225	3.792772	0.318265	0.013298	0.263263	-0.299316	0.086426	-0.779053
410.0	8.795047	-0.771629	3.815748	0.367125	-0.01499	0.257443	-0.297119	0.084229	-0.781494
411.0	8.938139	-0.684695	3.831044	0.342756	-0.019825	0.269958	-0.299316	0.084229	-0.783691
412.0	8.931786	-0.627726	3.709707	0.347066	-0.010909	0.281127	-0.299072	0.079834	-0.785889
413.0	9.06082	-0.634525	3.72426	0.368772	0.005174	0.294734	-0.299072	0.082031	-0.785889
414.0	9.194497	-0.5906	3.803291	0.36511	0.038997	0.293931	-0.296631	0.077637	-0.78125
415.0	9.333502	-0.693441	3.777467	0.352041	0.103687	0.291188	-0.291992	0.071045	-0.778564
416.0	9.435246	-0.83749	3.844349	0.366926	0.170961	0.288536	-0.291992	0.073242	-0.783203
417.0	9.510041	-0.982301	4.019407	0.390719	0.227251	0.275073	-0.289795	0.071045	-0.778564
418.0	9.585744	-1.072119	4.185697	0.40173	0.285269	0.259312	-0.294189	0.071045	-0.785645
419.0	9.570571	-1.270685	4.3072	0.408358	0.349502	0.248566	-0.289551	0.06665	-0.782959
420.0	9.444157	-1.335803	4.381502	0.447744	0.407356	0.245819	-0.280518	0.064453	-0.77832
421.0	9.128005	-1.389483	4.538107	0.492343	0.438075	0.253958	-0.280273	0.060059	-0.782715
422.0	8.795084	-1.33906	4.606658	0.525044	0.425296	0.261323	-0.275391	0.053467	-0.780273
423.0	8.480565	-1.265865	4.561196	0.546287	0.381213	0.273935	-0.273438	0.057861	-0.782715
424.0	8.174113	-1.137553	4.569041	0.582342	0.332892	0.291084	-0.270508	0.044678	-0.782227
425.0	7.97628	-0.94252	4.559442	0.587958	0.260753	0.313395	-0.268799	0.053467	-0.782471
426.0	7.964991	-0.881164	4.456081	0.577438	0.181084	0.33686	-0.270508	0.04248	-0.786865
427.0	7.91227	-0.773255	4.373715	0.543973	0.11469	0.352634	-0.275146	0.046875	-0.782227
428.0	8.19101	-0.771257	4.340575	0.540269	0.02509	0.358244	-0.270508	0.040283	-0.784424
429.0	8.65999	-0.784342	4.304944	0.507684	-0.026471	0.351091	-0.270264	0.038086	-0.777344
430.0	9.170729	-0.979794	4.20852	0.484315	-0.055866	0.319499	-0.270264	0.035889	-0.777344
431.0	9.738326	-1.049159	4.095277	0.502062	-0.066972	0.279248	-0.267822	0.031494	-0.772461
432.0	10.285008	-1.200767	4.067655	0.516089	-0.020827	0.228908	-0.265625	0.031494	-0.774902
433.0	10.823821	-1.338058	4.016659	0.518512	0.071764	0.184419	-0.267578	0.024902	-0.77002
434.0	11.057361	-1.269419	4.227481	0.584251	0.156187	0.138302	-0.265137	0.022705	-0.772217
435.0	11.770768	-1.241968	5.713289	0.745178	0.301564	0.106828	-0.258301	0.016113	-0.769531
436.0	12.614017	0.156907	10.327116	1.227091	0.608176	0.083388	-0.260254	0.013916	-0.781006
437.0	11.420346	4.882765	10.660711	0.510754	-0.001768	0.231282	-0.262451	0.011719	-0.771729
438.0	11.662823	4.064388	7.218364	-0.315732	-0.33744	0.445698	-0.260254	0.009521	-0.773926
439.0	10.399266	3.327862	7.086373	-0.299351	-0.106364	0.373803	-0.260498	0.018311	-0.769775
440.0	9.807708	2.441989	6.240491	-0.517613	-0.184021	0.21218	-0.264893	0.016113	-0.767334
441.0	10.108069	0.943302	4.953671	-0.622451	-0.014471	0.047092	-0.263184	0.0271	-0.77002
442.0	9.387929	-0.340362	4.341569	-0.598967	0.196402	-0.080203	-0.260986	0.029297	-0.767822
443.0	9.56531	-1.847898	4.523765	-0.518165	0.111389	-0.18045	-0.256348	0.0271	-0.762939
444.0	10.532814	-2.819092	5.161075	-0.25493	0.05323	-0.241477	-0.258789	0.029297	-0.772461
445.0	10.72098	-2.553938	6.608218	-0.034691	0.169896	-0.233999	-0.258545	0.0271	-0.779297
446.0	9.516635	-2.013279	6.918912	-0.127346	0.327993	-0.157566	-0.25415	0.024902	-0.77002
447.0	7.887393	-1.929856	6.769393	-0.067441	0.333674	-0.081003	-0.249756	0.031494	-0.7771
448.0	6.693176	-1.001404	7.119788	0.198842	0.100507	-0.031406	-0.251709	0.024902	-0.772217
449.0	6.322172	0.360074	7.312543	0.332487	-0.135023	0.025483	-0.249512	0.024902	-0.767578
450.0	6.28757	1.395125	7.510028	0.282772	-0.222942	0.076975	-0.251709	0.020508	-0.769775
451.0	6.501911	1.797244	7.087672	0.191683	-0.261516	0.118463	-0.249512	0.024902	-0.772217
452.0	6.728784	2.160966	6.892081	0.160771	-0.214307	0.142212	-0.251709	0.022705	-0.767578
453.0	6.537311	2.308027	6.999985	-0.017081	-0.135375	0.188142	-0.247314	0.0271	-0.767578
454.0	6.666949	2.027193	6.769338	-0.139339	-0.194198	0.225562	-0.251709	0.024902	-0.767578
455.0	7.125394	1.762489	6.516018	-0.111967	-0.200245	0.249647	-0.256348	0.029297	-0.763184
456.0	7.475946	1.73957	6.683823	-0.163626	-0.06349	0.19721	-0.25415	0.0271	-0.760742
457.0	7.769182	1.243724	6.732544	-0.296753	0.041036	0.086365	-0.254395	0.033691	-0.765625
458.0	8.075658	0.292716	6.446774	-0.380791	0.115024	-0.067272	-0.251953	0.0271	-0.77002
459.0	8.189194	-0.392897	6.114744	-0.322351	0.193015	-0.249379	-0.25	0.038086	-0.770508
460.0	7.756531	-0.365066	5.935804	-0.229809	0.217958	-0.419446	-0.249512	0.0271	-0.77002
461.0	7.329465	-0.25836	5.834358	-0.167704	0.155734	-0.544115	-0.247559	0.029297	-0.763184
462.0	7.177621	-0.1009	5.665266	-0.070315	0.012794	-0.630744	-0.247559	0.033691	-0.765625
463.0	6.674459	0.468989	5.676069	-0.008658	-0.031498	-0.669107	-0.25415	0.029297	-0.760742
464.0	6.512846	0.739874	5.556314	-0.007665	-0.159289	-0.66093	-0.242676	0.024902	-0.762939
465.0	6.736904	1.034075	5.473461	0.03377	-0.26665	-0.635034	-0.253906	0.024902	-0.760742
466.0	7.433357	1.332889	5.42122	0.005721	-0.357003	-0.602234	-0.249512	0.022705	-0.767578
467.0	8.080669	1.41686	5.176115	-0.109372	-0.36133	-0.578491	-0.253906	0.024902	-0.758301
468.0	8.283332	1.353363	4.874374	-0.223051	-0.311247	-0.582984	-0.251465	0.020508	-0.758057
469.0	8.246389	1.105192	4.770998	-0.310722	-0.314937	-0.578991	-0.258545	0.024902	-0.753662
470.0	8.222788	0.822244	4.520103	-0.379859	-0.362505	-0.581639	-0.258545	0.022705	-0.755859
471.0	8.159463	0.575374	4.191937	-0.407916	-0.405645	-0.603185	-0.260742	0.024902	-0.755859
472.0	8.281894	0.28523	4.031894	-0.426854	-0.431456	-0.618485	-0.260742	0.024902	-0.751221
473.0	8.382553	0.227163	3.757464	-0.407853	-0.35969	-0.621335	-0.267822	0.029297	-0.746826
474.0	8.19621	0.409258	3.813558	-0.395742	-0.219806	-0.625846	-0.256348	0.029297	-0.753906
475.0	8.03127	0.578323	3.757611	-0.421649	-0.135193	-0.619069	-0.263184	0.029297	-0.751465
476.0	8.044271	0.624556	3.488722	-0.443258	-0.064762	-0.607792	-0.260986	0.031494	-0.751465
477.0	8.025629	0.676692	3.273366	-0.463107	0.031312	-0.588263	-0.259033	0.035889	-0.74707
478.0	7.95628	0.77781	3.172737	-0.492746	0.115412	-0.587326	-0.26123	0.038086	-0.756348
479.0	8.034693	0.850789	3.187069	-0.523756	0.190917	-0.587995	-0.254395	0.035889	-0.751709
480.0	8.033756	0.912757	3.280699	-0.589272	0.310028	-0.575073	-0.252197	0.038086	-0.756348
481.0	7.994026	0.875779	3.408245	-0.66646	0.388951	-0.557246	-0.252441	0.044678	-0.751953
482.0	8.020597	0.694912	3.543944	-0.732386	0.485806	-0.532675	-0.239258	0.049316	-0.756836
483.0	7.869723	0.472349	3.900338	-0.7915	0.586175	-0.505364	-0.241455	0.049316	-0.752197
484.0	7.706998	0.365383	4.141583	-0.827858	0.611648	-0.482434	-0.237061	0.051514	-0.759277
485.0	7.654681	0.248163	4.373554	-0.821155	0.581858	-0.451855	-0.237305	0.058105	-0.754883
486.0	7.617526	0.151281	4.570996	-0.79169	0.554962	-0.417293	-0.228271	0.060303	-0.752686
487.0	7.57025	0.144916	5.120791	-0.703885	0.481625	-0.373657	-0.224365	0.069092	-0.764648
488.0	7.85998	0.108226	5.835016	-0.607372	0.340114	-0.331661	-0.221924	0.069092	-0.755371
489.0	8.117111	0.030271	6.080556	-0.569898	0.19949	-0.291854	-0.217773	0.078125	-0.753418
490.0	8.39015	-0.37801	5.935868	-0.5213	0.067137	-0.235146	-0.219971	0.075928	-0.760254
491.0	8.4842	-0.597973	5.848375	-0.399515	-0.080796	-0.192149	-0.219971	0.078125	-0.753418
492.0	8.713285	-0.627231	5.677001	-0.319402	-0.234191	-0.170494	-0.218018	0.080322	-0.750977
493.0	9.100736	-0.525124	5.111349	-0.238531	-0.348082	-0.164088	-0.224854	0.084473	-0.746582
494.0	9.454928	-0.096711	4.507657	-0.138681	-0.427806	-0.164564	-0.229248	0.082275	-0.753418
495.0	10.118992	0.381063	3.867927	-0.075588	-0.482657	-0.159895	-0.229248	0.084473	-0.749023
496.0	10.91055	0.767934	3.775022	0.009911	-0.452611	-0.146229	-0.229248	0.084473	-0.751221
497.0	12.197764	1.160794	5.978471	0.265254	-0.354591	-0.152316	-0.229004	0.077881	-0.748779
498.0	13.471885	1.524077	12.830786	0.479869	-0.047761	-0.246415	-0.229248	0.084473	-0.746582
499.0	13.952627	-1.750627	9.138375	-0.725287	-0.377397	-0.391586	-0.233887	0.08667	-0.746582
500.0	14.543198	-5.294861	7.40977	0.514418	-0.544374	-0.452773	-0.229004	0.077881	-0.748779
501.0	12.394378	-1.604242	9.920959	0.906674	-0.714597	-0.500213	-0.23999	0.071289	-0.736816
502.0	12.270542	-1.128478	6.967495	0.547183	-0.630784	-0.47011	-0.242188	0.066895	-0.74585
503.0	10.470018	1.1758	6.512186	0.747374	-0.097525	-0.411583	-0.244141	0.0625	-0.73877
504.0	8.649773	2.909979	7.210257	0.53726	0.213639	-0.315579	-0.241699	0.058105	-0.743164
505.0	6.859784	3.269179	7.785291	0.190063	0.529189	-0.23977	-0.237549	0.064697	-0.74585
506.0	5.743751	2.124652	7.833369	-0.096106	0.533393	-0.230289	-0.228516	0.0625	-0.743408
507.0	5.33426	1.388788	7.397093	-0.102144	0.365177	-0.263858	-0.228516	0.0625	-0.743408
508.0	5.170854	1.305948	7.230612	-0.086683	0.141435	-0.25758	-0.233154	0.064697	-0.748291
509.0	5.434181	0.920412	7.274533	-0.111542	-0.149823	-0.219457	-0.228516	0.064697	-0.750488
510.0	5.900716	0.696905	7.699794	-0.025505	-0.46851	-0.186249	-0.233154	0.069092	-0.746094
511.0	7.21343	0.694917	7.980153	0.014706	-0.827808	-0.179194	-0.242188	0.069092	-0.748291
512.0	8.964763	0.643527	7.410771	0.059367	-0.982417	-0.151243	-0.237549	0.066895	-0.739014
513.0	10.511102	0.627178	6.471668	0.054871	-0.757309	-0.104608	-0.248779	0.064697	-0.73877
514.0	11.774552	0.918071	5.685738	0.122906	-0.328245	-0.008082	-0.244629	0.069092	-0.741455
515.0	11.7606	1.401513	5.640034	0.087381	0.362333	0.129369	-0.246582	0.066895	-0.734375
516.0	10.385776	0.991522	5.965194	-0.161484	0.94761	0.278943	-0.22876	0.071289	-0.743896
517.0	7.845218	-0.062641	6.15692	-0.287004	1.254924	0.421287	-0.229004	0.075684	-0.746338
518.0	4.940526	-0.932291	6.547952	-0.363751	1.23673	0.518426	-0.220215	0.08252	-0.746582
519.0	4.001366	-1.832693	6.20702	-0.291732	0.683939	0.572899	-0.222656	0.086914	-0.749023
520.0	3.654418	-2.045127	5.801285	-0.119871	0.347403	0.630293	-0.218018	0.084717	-0.749023
521.0	3.804433	-2.27393	5.709356	-0.130112	0.102041	0.653062	-0.220703	0.093506	-0.746826
522.0	4.079862	-2.2299	5.28273	0.052847	-0.202613	0.683034	-0.216309	0.093506	-0.751465
523.0	4.249064	-1.763184	5.410891	0.172416	-0.463618	0.712192	-0.218506	0.0979	-0.74707
524.0	4.774307	-1.633567	5.284462	0.161338	-0.734914	0.749305	-0.220703	0.093506	-0.751465
525.0	5.913721	-1.627773	4.780851	0.309131	-0.986762	0.781578	-0.227783	0.102295	-0.742676
526.0	7.01375	-1.110591	4.670748	0.498442	-0.999005	0.80546	-0.236572	0.097656	-0.742432
527.0	7.816739	-0.664934	4.667176	0.525198	-0.859151	0.812586	-0.241455	0.102051	-0.740234
528.0	8.511846	-0.561661	4.35242	0.519381	-0.658766	0.790697	-0.236572	0.097656	-0.737793
529.0	9.085336	-0.570018	4.16391	0.600369	-0.412647	0.745481	-0.23877	0.095459	-0.73999
530.0	9.430146	-0.250236	4.027679	0.674317	-0.154638	0.699225	-0.243164	0.093262	-0.73291
531.0	9.373193	-0.012579	3.915684	0.654638	0.131799	0.674106	-0.245605	0.097656	-0.73999
532.0	8.881221	-0.012951	3.741083	0.598944	0.296266	0.652246	-0.236572	0.093262	-0.737549
533.0	8.467384	-0.24992	3.347627	0.623761	0.318921	0.619651	-0.238281	0.082275	-0.741943
534.0	8.324116	-0.296527	3.185717	0.702507	0.30118	0.567946	-0.231689	0.088867	-0.739746
535.0	8.313708	-0.387071	3.107259	0.733869	0.326097	0.514373	-0.233887	0.084473	-0.744385
536.0	8.264649	-0.504232	3.145429	0.774479	0.440697	0.456493	-0.226807	0.080078	-0.744141
537.0	8.1085	-0.435683	3.32914	0.851341	0.572911	0.402091	-0.227051	0.082275	-0.744141
538.0	8.005678	-0.300145	3.664043	0.890232	0.684231	0.357683	-0.222412	0.080078	-0.746338
539.0	7.851908	-0.229808	4.210315	0.881613	0.826761	0.322833	-0.213135	0.07373	-0.750732
540.0	7.447229	-0.098602	4.524788	0.84878	0.932425	0.312434	-0.206299	0.07373	-0.750732
541.0	7.267311	-0.19399	4.800886	0.780937	0.931605	0.305381	-0.199219	0.064941	-0.75293
542.0	7.585634	-0.529523	5.144962	0.785005	0.843209	0.294967	-0.192627	0.064941	-0.759766
543.0	8.278996	-0.429803	5.514438	0.849688	0.692443	0.270442	-0.192383	0.062744	-0.759766
544.0	8.716359	0.236907	6.001175	0.844828	0.531721	0.236525	-0.185303	0.053955	-0.747803
545.0	8.851509	1.155946	6.11343	0.737018	0.290755	0.214909	-0.190186	0.060547	-0.759766
546.0	9.065761	1.99566	5.880683	0.653539	-0.049235	0.214453	-0.189697	0.051758	-0.75
547.0	9.573123	2.676923	5.617766	0.562184	-0.314323	0.228327	-0.189697	0.053955	-0.750244
548.0	9.772902	2.960097	5.06799	0.397721	-0.424636	0.22859	-0.187256	0.049561	-0.754639
549.0	10.070936	2.598881	4.45897	0.227932	-0.529826	0.213784	-0.19458	0.05835	-0.750244
550.0	11.021545	1.305798	3.750608	0.049796	-0.54779	0.175974	-0.19873	0.049316	-0.747559
551.0	11.976746	-0.136016	4.661089	0.103335	-0.361122	0.116954	-0.198975	0.055908	-0.745605
552.0	13.212349	-0.607897	11.781171	0.53455	0.013571	0.063021	-0.192139	0.053955	-0.747803
553.0	13.081166	4.273861	12.550427	-0.082038	-0.347567	0.254054	-0.198975	0.05835	-0.752686
554.0	14.970109	2.697064	8.103269	-0.665298	-0.981779	0.611845	-0.197021	0.062744	-0.741211
555.0	12.164264	3.433227	10.127894	-0.263468	-0.68699	0.69304	-0.210693	0.071533	-0.748535
556.0	9.822721	2.000799	8.487919	-1.007541	-0.683467	0.555082	-0.213379	0.078125	-0.748779
557.0	8.96273	-0.306058	5.433868	-0.714529	-0.598108	0.412877	-0.21582	0.084717	-0.739746
558.0	8.065291	-0.85232	5.23882	-0.158836	-0.292951	0.255988	-0.215576	0.080078	-0.739502
559.0	7.063595	-0.536418	7.214404	-0.078899	-0.050702	0.208075	-0.213867	0.093506	-0.737549
560.0	6.846116	-0.501803	7.825689	-0.186444	-0.131462	0.2335	-0.213867	0.093506	-0.742188
561.0	7.36784	-0.682877	7.128932	-0.135547	-0.189533	0.319217	-0.213867	0.089111	-0.739746
562.0	7.533254	-1.029966	6.628044	-0.190061	-0.005563	0.418865	-0.214111	0.0979	-0.742432
563.0	7.031039	-1.049672	7.152184	-0.112203	-0.038173	0.521273	-0.220947	0.0979	-0.742432
564.0	7.100838	-0.724928	8.0736	0.045312	-0.504626	0.579307	-0.21875	0.102295	-0.738037
565.0	8.136918	-0.24366	8.361564	0.104009	-0.921463	0.571557	-0.223389	0.104492	-0.73584
566.0	10.126768	0.044778	7.753481	0.088959	-0.844705	0.429687	-0.227783	0.104492	-0.73584
567.0	11.948282	-0.526452	6.674581	-0.098797	-0.381906	0.195608	-0.230225	0.106689	-0.73584
568.0	12.694637	-1.002907	5.640367	0.020798	0.312181	-0.14108	-0.221436	0.111084	-0.736084
569.0	11.487564	0.092397	5.750392	0.143836	0.943889	-0.484219	-0.218994	0.108887	-0.733643
570.0	8.917572	1.397642	6.000396	0.118989	1.333143	-0.747892	-0.205566	0.106689	-0.742676
571.0	5.942286	2.790665	6.361622	0.070191	1.391619	-0.91007	-0.20752	0.104492	-0.747314
572.0	4.437788	3.302694	5.911552	0.059025	0.954234	-0.977018	-0.194092	0.102295	-0.751953
573.0	3.894221	3.582046	5.489876	0.055243	0.611108	-0.941073	-0.193848	0.100098	-0.751953
574.0	3.011968	3.552702	5.157125	-0.117923	0.424943	-0.847572	-0.19165	0.100098	-0.756592
575.0	2.74995	2.766487	4.648004	-0.198658	-0.027678	-0.733727	-0.194092	0.102295	-0.751953
576.0	3.376607	2.173287	4.589675	-0.147443	-0.515979	-0.66432	-0.193848	0.100098	-0.735596
577.0	4.350559	1.78822	4.709736	-0.19499	-0.841152	-0.625638	-0.200928	0.104492	-0.751953
578.0	5.320831	1.331243	4.7811	-0.332088	-0.960578	-0.617718	-0.202881	0.0979	-0.742432
579.0	6.134098	0.895619	4.774314	-0.45276	-1.015732	-0.619801	-0.212158	0.104492	-0.745117
580.0	7.078187	0.445687	4.453113	-0.556386	-0.974779	-0.633308	-0.221436	0.108887	-0.74292
581.0	7.751605	0.227467	3.977465	-0.611385	-0.754322	-0.626139	-0.228271	0.111084	-0.738281
582.0	8.040999	0.176147	3.802309	-0.614091	-0.517401	-0.599662	-0.223633	0.111084	-0.740723
583.0	8.271927	0.185895	3.694073	-0.568177	-0.296252	-0.585972	-0.226318	0.119873	-0.738525
584.0	8.680722	0.282086	3.719443	-0.520943	-0.135263	-0.564622	-0.233154	0.119873	-0.740967
585.0	9.005465	0.396869	3.539985	-0.556722	0.109605	-0.556198	-0.228516	0.119873	-0.738525
586.0	8.714306	0.299777	3.317601	-0.657923	0.373205	-0.537245	-0.222168	0.128662	-0.736572
587.0	8.130114	0.252103	3.238468	-0.650084	0.479169	-0.516198	-0.224365	0.130859	-0.739014
588.0	7.837836	0.39627	3.35963	-0.658826	0.502478	-0.464345	-0.215576	0.135254	-0.746094
589.0	7.740497	0.630579	3.553576	-0.717558	0.574875	-0.409611	-0.213379	0.137451	-0.739258
590.0	7.618267	0.89951	3.894369	-0.810177	0.65508	-0.35416	-0.213623	0.14209	-0.744141
591.0	7.345898	0.995682	4.094722	-0.953011	0.748791	-0.325328	-0.207275	0.150879	-0.744385
592.0	6.991109	1.014486	3.998729	-1.05981	0.796351	-0.328014	-0.198242	0.153076	-0.756104
593.0	6.891231	0.961557	4.138819	-1.068073	0.721212	-0.350089	-0.194092	0.161865	-0.74707
594.0	7.399014	1.117393	4.389664	-0.915148	0.600557	-0.392535	-0.192139	0.168457	-0.747314
595.0	8.236997	1.078488	5.293683	-0.833883	0.561764	-0.412555	-0.192383	0.172852	-0.75
596.0	8.711215	0.172629	6.315758	-0.849172	0.593115	-0.371897	-0.185791	0.17749	-0.743164
597.0	8.688441	-1.540912	6.277841	-0.90613	0.461196	-0.30167	-0.183838	0.188477	-0.750488
598.0	8.796129	-3.003513	5.922797	-0.653978	0.129141	-0.256838	-0.186035	0.181885	-0.750244
599.0	9.173084	-3.10592	5.740316	-0.341695	-0.229383	-0.256973	-0.186279	0.190674	-0.750488
600.0	10.062893	-2.388791	4.928672	-0.149565	-0.519554	-0.27502	-0.190674	0.186279	-0.748047
601.0	10.700263	-1.591265	3.987556	0.001082	-0.569271	-0.297579	-0.195068	0.186035	-0.741211
602.0	10.789016	-0.410956	3.550688	0.136644	-0.477215	-0.315242	-0.192871	0.188477	-0.74585
603.0	11.050006	0.707205	3.497627	0.180208	-0.404829	-0.308678	-0.201904	0.188232	-0.74585
604.0	12.082255	1.342971	5.962654	0.448507	-0.204106	-0.270789	-0.192627	0.181885	-0.752441
605.0	12.843933	1.864018	15.209172	0.708347	0.38708	-0.367801	-0.195068	0.186279	-0.755127
606.0	13.024504	-2.331919	9.983578	-1.03592	-0.173276	-0.504359	-0.195068	0.181641	-0.747803
607.0	13.293462	-7.011182	8.700828	1.034062	-0.697414	-0.481053	-0.206055	0.175049	-0.752197
608.0	10.779756	-1.628402	12.58676	1.340344	-1.144246	-0.541548	-0.217041	0.168457	-0.754395
609.0	11.901019	-2.008006	6.948552	0.698083	-1.319903	-0.503357	-0.217041	0.168457	-0.751953
610.0	10.325952	0.555804	5.520945	1.261742	-0.712181	-0.503729	-0.225342	0.155273	-0.746826
611.0	8.332609	2.840987	6.602895	0.777654	-0.066868	-0.405669	-0.223145	0.155273	-0.753906
612.0	6.126416	3.029026	7.586877	0.486301	0.52164	-0.306126	-0.220459	0.141846	-0.746338
613.0	4.384931	3.677524	8.102318	0.328542	0.53692	-0.356286	-0.2229	0.148682	-0.753662
614.0	4.820177	3.419441	6.293145	-0.001461	0.273428	-0.359371	-0.21582	0.139648	-0.746338
615.0	5.165024	2.843263	5.357141	-0.02686	0.340915	-0.315408	-0.218262	0.144287	-0.758057
616.0	4.80456	2.945827	7.293792	0.070886	0.103947	-0.224793	-0.216064	0.144287	-0.755859
617.0	5.657063	2.518223	8.54657	-0.068432	-0.618787	-0.134612	-0.218262	0.146484	-0.758301
618.0	8.299354	1.804764	8.270244	-0.072141	-1.242719	-0.040987	-0.229492	0.144043	-0.753418
619.0	11.135367	1.719873	7.517406	-0.006419	-1.327774	0.020548	-0.236572	0.150635	-0.749023
620.0	12.761476	1.33849	6.680329	-0.182014	-0.800879	0.094834	-0.238525	0.144043	-0.748779
621.0	12.490409	0.727609	6.062368	-0.250571	-0.101318	0.174515	-0.240967	0.150635	-0.749023
622.0	11.476057	0.463735	6.146627	-0.236256	0.374755	0.235593	-0.23877	0.148438	-0.749023
623.0	10.624071	-0.259924	6.189347	-0.383766	0.700917	0.30323	-0.22998	0.152832	-0.756104
624.0	8.476198	-1.403329	6.21797	-0.523671	1.12788	0.375119	-0.22583	0.164063	-0.756592
625.0	5.304348	-2.254316	6.372089	-0.525989	1.26387	0.449451	-0.219238	0.170654	-0.756836
626.0	3.251811	-2.715444	6.085824	-0.426627	0.809426	0.468699	-0.210205	0.16626	-0.76123
627.0	3.473898	-2.90227	5.309019	-0.116494	0.177582	0.49933	-0.215088	0.175049	-0.761475
628.0	3.556337	-2.421381	5.474763	-0.007827	-0.022039	0.538428	-0.208008	0.170654	-0.761475
629.0	4.144852	-2.486654	5.213709	-0.02015	-0.395463	0.563034	-0.215088	0.175049	-0.756836
630.0	4.866034	-2.324586	4.896811	0.203704	-0.570952	0.613515	-0.214844	0.172852	-0.752197
631.0	5.36213	-1.852725	5.167754	0.260665	-0.58558	0.659844	-0.223877	0.172852	-0.754639
632.0	5.889937	-1.692965	4.850929	0.267517	-0.676032	0.702725	-0.22168	0.172852	-0.761475
633.0	6.666499	-1.322142	4.672665	0.475992	-0.742906	0.726913	-0.226074	0.170654	-0.754395
634.0	7.357689	-0.605568	4.880059	0.619951	-0.749547	0.745535	-0.22583	0.16626	-0.759033
635.0	8.112419	-0.239695	4.667884	0.572212	-0.648899	0.732135	-0.237305	0.168457	-0.759033
636.0	8.902159	-0.310218	4.174176	0.545889	-0.470938	0.670759	-0.232666	0.168457	-0.756592
637.0	9.393519	-0.144852	3.745303	0.642795	-0.230528	0.604046	-0.235107	0.168457	-0.76123
638.0	9.487026	0.226781	3.596974	0.634754	0.084526	0.530004	-0.230225	0.161865	-0.760986
639.0	9.07733	0.330783	3.435181	0.561159	0.363718	0.479499	-0.232666	0.164063	-0.758789
640.0	8.334181	0.374922	3.174042	0.586302	0.476769	0.436067	-0.22998	0.155273	-0.763184
641.0	7.773677	0.380409	3.305706	0.619157	0.483236	0.401024	-0.225586	0.157471	-0.760986
642.0	7.401028	0.178372	3.525469	0.604234	0.490315	0.370143	-0.218506	0.150879	-0.760742
643.0	7.149887	0.01079	3.801658	0.637417	0.523758	0.336697	-0.216309	0.150879	-0.77002
644.0	7.170237	-0.11754	3.968211	0.682966	0.530254	0.324102	-0.213623	0.14209	-0.77417
645.0	7.427118	-0.245356	4.06263	0.70857	0.561502	0.324038	-0.209229	0.146484	-0.774414
646.0	7.70741	-0.540607	4.286572	0.745812	0.690372	0.338705	-0.204346	0.133301	-0.776367
647.0	7.768439	-0.784848	4.534261	0.774914	0.779136	0.352388	-0.199951	0.137695	-0.778809
648.0	7.877377	-0.845901	4.806696	0.849394	0.764637	0.357055	-0.192871	0.128906	-0.778564
649.0	8.236689	-0.495968	5.133936	0.887963	0.623035	0.347429	-0.190674	0.128906	-0.783203
650.0	8.690082	0.139069	5.341071	0.844165	0.417851	0.332502	-0.183594	0.122314	-0.782959
651.0	9.216125	0.933922	5.380913	0.757353	0.163772	0.318606	-0.185547	0.11792	-0.782715
652.0	9.819949	1.830136	5.376289	0.643451	-0.094692	0.311014	-0.185547	0.113525	-0.787109
653.0	10.42887	2.357533	5.227196	0.460795	-0.279776	0.310367	-0.189697	0.109131	-0.787109
654.0	10.67398	2.453527	4.683593	0.288262	-0.338476	0.307957	-0.185059	0.104736	-0.782227
655.0	10.685371	2.006777	4.047471	0.141033	-0.371764	0.288118	-0.196777	0.111328	-0.789307
656.0	11.138948	0.776876	3.281271	0.005166	-0.410819	0.231895	-0.194336	0.109131	-0.784668
657.0	11.745756	-0.397591	2.99974	0.06465	-0.297492	0.164013	-0.19873	0.109131	-0.791748
658.0	12.77526	-1.315513	7.023457	0.335114	-0.05229	0.072623	-0.196289	0.104736	-0.786865
659.0	13.116167	1.340605	13.810908	0.695256	0.390808	0.06263	-0.196289	0.102539	-0.791504
660.0	14.120412	5.04517	8.853333	-0.545196	-0.540347	0.469364	-0.203125	0.106934	-0.786865
661.0	14.018053	3.726022	7.970297	-0.267425	-0.591763	0.718276	-0.203613	0.11792	-0.789551
662.0	9.280198	5.773394	11.449698	-0.530669	-0.496659	0.728387	-0.201416	0.11792	-0.789551
663.0	8.460955	2.495027	7.497247	-1.540685	-0.858106	0.618733	-0.213623	0.137695	-0.790283
664.0	7.965592	0.1663	3.584057	-0.817552	-0.639943	0.483033	-0.213623	0.139893	-0.785889
665.0	6.984282	0.446879	6.071032	-0.120834	-0.164584	0.286416	-0.213379	0.135498	-0.788086
666.0	6.041897	0.761751	8.229296	-0.540819	-0.130557	0.176487	-0.220459	0.139893	-0.778809
667.0	6.480994	-0.718345	6.87468	-0.770519	-0.27888	0.189265	-0.2229	0.144287	-0.78125
668.0	7.69631	-1.270561	5.818857	-0.420576	-0.234913	0.223542	-0.220703	0.146484	-0.776855
669.0	7.836232	-0.67181	6.847437	-0.268209	-0.065512	0.31262	-0.221191	0.159668	-0.786621
670.0	7.995153	-0.57658	8.30512	-0.308844	-0.398446	0.393789	-0.223145	0.155273	-0.779297
671.0	9.801282	-1.421825	8.335845	-0.230335	-1.019408	0.44869	-0.232178	0.153076	-0.783936
672.0	12.034575	-1.460122	7.489209	-0.044638	-0.875491	0.381657	-0.236816	0.155273	-0.774658
673.0	12.954837	-1.451686	6.830068	-0.19667	-0.220237	0.213997	-0.232666	0.168457	-0.777588
674.0	12.510903	-2.215849	5.559827	-0.26256	0.358105	-0.066917	-0.232422	0.161865	-0.779541
675.0	11.252985	-1.773528	5.150387	0.103915	0.733113	-0.408539	-0.228027	0.164063	-0.781982
676.0	9.548542	0.024432	5.801506	0.271008	0.985965	-0.664558	-0.227539	0.153076	-0.781738
677.0	7.119304	1.611059	5.762987	0.132177	1.205245	-0.819863	-0.21875	0.153076	-0.791016
678.0	5.317959	2.308123	5.502835	0.106574	0.980211	-0.855313	-0.213867	0.146484	-0.78833
679.0	4.822516	2.724463	5.014957	0.225791	0.567132	-0.818975	-0.21167	0.148682	-0.793213
680.0	4.451759	2.993967	5.072745	0.124716	0.484442	-0.738019	-0.207275	0.148682	-0.793213
681.0	3.568132	2.602605	4.875611	-0.037359	0.377518	-0.621263	-0.207031	0.146484	-0.79541
682.0	3.445827	2.065551	4.694695	-0.032437	-0.001012	-0.528559	-0.20459	0.14209	-0.799805
683.0	4.52776	1.682542	4.464724	0.023701	-0.451642	-0.482488	-0.216064	0.144287	-0.785889
684.0	5.481733	1.557694	4.468501	-0.067286	-0.609831	-0.465536	-0.220459	0.144287	-0.78833
685.0	5.956391	1.115268	4.295092	-0.261639	-0.633215	-0.483013	-0.225342	0.148682	-0.78833
686.0	6.505527	0.56582	4.054278	-0.320575	-0.74049	-0.496728	-0.229492	0.14209	-0.788086
687.0	7.198879	0.303264	3.760415	-0.358912	-0.682667	-0.533001	-0.236328	0.146484	-0.786133
688.0	7.277015	0.310126	3.679988	-0.426884	-0.462221	-0.55732	-0.234131	0.144287	-0.785889
689.0	7.068273	0.352576	3.678414	-0.469814	-0.330435	-0.549716	-0.23877	0.14624	-0.786133
690.0	7.1682	0.385107	3.504826	-0.483709	-0.308639	-0.535436	-0.240967	0.14624	-0.78833
691.0	7.76422	0.439111	3.265956	-0.467459	-0.238151	-0.526743	-0.24585	0.155273	-0.791016
692.0	8.264236	0.604366	3.196651	-0.503974	-0.085092	-0.486726	-0.24585	0.157471	-0.788818
693.0	8.504888	0.524887	2.919602	-0.599976	0.09627	-0.449944	-0.250732	0.163818	-0.781982
694.0	8.316092	0.496607	2.757118	-0.602586	0.277537	-0.40133	-0.243652	0.159668	-0.78418
695.0	8.039803	0.569302	2.923593	-0.608528	0.383166	-0.32492	-0.243896	0.164063	-0.786621
696.0	7.873135	0.566419	3.075326	-0.668114	0.418899	-0.246472	-0.243896	0.16626	-0.786865
697.0	7.858287	0.518517	3.231746	-0.700611	0.493946	-0.179218	-0.237549	0.172852	-0.782471
698.0	7.825959	0.558979	3.515034	-0.706902	0.527087	-0.14279	-0.235107	0.170654	-0.796143
699.0	8.168472	0.663459	3.847495	-0.631161	0.49825	-0.139127	-0.237793	0.179443	-0.789551
700.0	8.839934	0.814062	4.157635	-0.579871	0.479234	-0.146805	-0.224365	0.181641	-0.787354
701.0	9.730547	0.589072	4.796281	-0.520545	0.5922	-0.155705	-0.229004	0.186035	-0.789795
702.0	9.847004	0.301525	5.989166	-0.541366	0.818972	-0.146252	-0.220215	0.19043	-0.780762
703.0	9.183712	-0.50781	6.277529	-0.669166	0.822254	-0.122298	-0.218262	0.197266	-0.790283
704.0	8.693203	-1.145872	5.970724	-0.51047	0.453657	-0.115608	-0.211182	0.190674	-0.790039
705.0	8.771907	-0.791305	5.671419	-0.305877	-0.017198	-0.134329	-0.216064	0.199463	-0.790283
706.0	9.223789	-0.244088	5.089416	-0.225243	-0.379445	-0.162103	-0.220215	0.195068	-0.790283
707.0	9.660282	0.258016	4.264227	-0.127474	-0.554945	-0.190098	-0.225098	0.199463	-0.794922
708.0	10.211263	1.118579	3.683093	-0.021925	-0.592744	-0.212751	-0.224854	0.197266	-0.787842
709.0	10.848726	1.851675	3.757458	0.016058	-0.485458	-0.227097	-0.229492	0.199219	-0.785645
710.0	12.022818	2.057053	7.00232	0.378542	-0.231101	-0.260801	-0.231445	0.192627	-0.7854
711.0	12.296491	2.622817	14.099763	0.352787	0.182758	-0.419965	-0.236084	0.194824	-0.7854
712.0	13.152072	-3.038897	9.420842	-1.018619	-0.392026	-0.527648	-0.238037	0.188232	-0.782959
713.0	12.473761	-6.032197	9.990457	1.017801	-0.70857	-0.543669	-0.242432	0.181641	-0.789551
714.0	10.557684	-1.919706	11.654151	0.808826	-1.195121	-0.612635	-0.253174	0.172852	-0.777832
715.0	11.52819	-1.932854	6.898453	0.422515	-1.40315	-0.563525	-0.264404	0.172607	-0.777588
716.0	9.997561	-0.223061	5.159153	0.778311	-0.788344	-0.603642	-0.270996	0.163818	-0.777344
717.0	7.945893	1.345184	5.774132	0.420751	-0.007331	-0.632028	-0.275391	0.163818	-0.777344
718.0	6.00933	1.764581	6.436003	0.330361	0.465517	-0.598853	-0.270264	0.150635	-0.783936
719.0	5.055726	2.675935	7.565763	0.375074	0.386865	-0.607828	-0.272705	0.150635	-0.774658
720.0	5.604355	2.342254	6.117748	-0.106351	0.295447	-0.540276	-0.265869	0.150635	-0.781494
721.0	5.762353	1.166309	5.332997	-0.095634	0.435263	-0.445624	-0.268066	0.150635	-0.783936
722.0	6.008008	1.82273	7.675924	0.355667	-0.015665	-0.321331	-0.267822	0.141846	-0.785889
723.0	8.091485	2.524409	9.026833	0.251527	-0.790158	-0.179554	-0.276855	0.14624	-0.785889
724.0	10.938318	1.874861	7.406757	-0.001729	-0.969685	-0.054637	-0.279053	0.144043	-0.776611
725.0	12.533484	1.05455	6.593919	-0.052165	-0.595129	0.038822	-0.290527	0.145996	-0.779053
726.0	12.034793	0.455501	6.369549	-0.148302	-0.006734	0.126855	-0.285889	0.141602	-0.776611
727.0	10.280195	-0.034712	6.198423	-0.244974	0.389174	0.218169	-0.286133	0.148438	-0.779053
728.0	9.555421	-0.545122	6.074827	-0.159294	0.441162	0.301936	-0.2771	0.148438	-0.781494
729.0	9.230128	-0.738289	5.957908	-0.096125	0.616378	0.415954	-0.279541	0.155029	-0.783936
730.0	7.775609	-1.257437	5.974851	-0.27043	0.925492	0.522761	-0.272461	0.148438	-0.786133
731.0	5.732113	-1.971777	5.810623	-0.310958	0.990026	0.587005	-0.261475	0.155029	-0.788574
732.0	4.797726	-2.087411	5.530861	-0.089187	0.661473	0.5938	-0.261719	0.157227	-0.78418
733.0	4.432784	-1.749805	5.53639	0.06528	0.385117	0.614493	-0.263916	0.159424	-0.793457
734.0	4.304873	-1.748882	5.373937	0.040908	0.118122	0.613447	-0.259277	0.157227	-0.788818
735.0	4.887739	-1.894233	4.998892	0.206621	-0.289646	0.646338	-0.259766	0.163818	-0.784424
736.0	5.425934	-1.501664	5.137259	0.350623	-0.464899	0.683175	-0.261475	0.152832	-0.783936
737.0	5.867821	-1.284667	5.1208	0.293215	-0.52602	0.701666	-0.270752	0.157227	-0.786377
738.0	6.238263	-1.246098	4.496573	0.332292	-0.579753	0.74166	-0.268311	0.152832	-0.788574
739.0	6.739023	-1.138136	4.523284	0.476757	-0.619894	0.752099	-0.272949	0.159424	-0.786377
740.0	7.399098	-0.67721	4.651658	0.583416	-0.642074	0.756887	-0.279541	0.152832	-0.783936
741.0	8.19175	-0.354599	4.463195	0.553829	-0.535505	0.742504	-0.279541	0.155029	-0.786377
742.0	8.961625	-0.489488	4.033372	0.543663	-0.316858	0.695442	-0.281494	0.14624	-0.78125
743.0	9.407602	-0.551214	3.651522	0.584182	0.004907	0.624444	-0.283447	0.141846	-0.785889
744.0	9.386661	-0.556069	3.684133	0.621346	0.290351	0.552415	-0.276855	0.141846	-0.778809
745.0	9.321074	-0.862497	3.504832	0.630837	0.444808	0.478458	-0.283447	0.139648	-0.790283
746.0	9.169891	-0.917199	3.403614	0.734113	0.538835	0.401861	-0.271973	0.133057	-0.787842
747.0	8.967055	-0.899115	3.387315	0.764866	0.632655	0.329583	-0.276367	0.133057	-0.790039
748.0	8.738268	-0.956526	3.275167	0.806095	0.731464	0.273358	-0.264648	0.117676	-0.794189
749.0	8.318665	-0.580844	3.565897	0.956664	0.841359	0.249881	-0.257813	0.115479	-0.801025
750.0	7.914177	0.162899	4.106327	0.984986	0.872812	0.240403	-0.252686	0.102295	-0.802979
751.0	7.637022	0.66492	4.135311	0.900051	0.875192	0.256177	-0.250488	0.104492	-0.812256
752.0	7.392424	0.819866	3.955607	0.844867	0.959758	0.290008	-0.243408	0.095703	-0.809814
753.0	7.231836	0.485011	4.391837	0.804215	0.969309	0.322067	-0.240967	0.093506	-0.812012
754.0	7.407193	0.081546	4.665507	0.813615	0.840551	0.336194	-0.229492	0.084717	-0.813965
755.0	7.720585	0.297122	4.924184	0.848539	0.651343	0.320807	-0.231445	0.080322	-0.820801
756.0	8.043519	0.83483	5.210178	0.824354	0.412046	0.308668	-0.22876	0.069336	-0.815674
757.0	8.518865	1.406825	5.311869	0.731083	0.138641	0.300815	-0.229004	0.071533	-0.818115
758.0	9.105666	1.856907	5.26461	0.633613	-0.097505	0.318838	-0.233154	0.064941	-0.81543
759.0	9.61534	2.174337	5.049406	0.498493	-0.229895	0.346946	-0.237549	0.062744	-0.820068
760.0	9.810057	2.204654	4.635297	0.352061	-0.289388	0.360825	-0.239746	0.058105	-0.815186
761.0	10.000604	1.645457	4.25635	0.189624	-0.340293	0.363126	-0.23999	0.067139	-0.820313
762.0	10.486447	0.55605	4.154406	0.09897	-0.305864	0.328619	-0.243896	0.051514	-0.817383
763.0	11.727996	-0.513748	8.535378	0.296575	-0.06568	0.256516	-0.246338	0.058105	-0.822266
764.0	11.906334	2.902908	12.53861	0.302677	0.147083	0.296385	-0.241455	0.049316	-0.807861
765.0	13.234883	4.068158	8.441418	-0.683508	-0.746076	0.654917	-0.250977	0.060303	-0.81543
766.0	12.903075	3.800057	8.973102	-0.197308	-0.857643	0.805326	-0.261963	0.053711	-0.817383
767.0	10.529553	5.266714	10.852293	-0.646925	-1.086262	0.776187	-0.26709	0.069092	-0.815674
768.0	10.838187	1.849338	7.069041	-1.572153	-0.906361	0.569528	-0.267334	0.073486	-0.802002
769.0	9.429639	-0.589756	4.437917	-1.089795	-0.363299	0.384095	-0.2771	0.091064	-0.804932
770.0	7.412691	-0.68843	5.750266	-0.539464	-0.199574	0.189192	-0.276855	0.084473	-0.804688
771.0	7.126237	-0.703701	6.875297	-0.515305	-0.280928	0.095671	-0.286133	0.093262	-0.80249
772.0	7.664964	-1.144965	7.331459	-0.441258	-0.276016	0.108208	-0.281738	0.097656	-0.802734
773.0	8.035777	-1.095754	6.707345	-0.410521	-0.14478	0.125513	-0.2771	0.093262	-0.802734
774.0	7.972312	-1.253837	6.05323	-0.325206	0.01052	0.188336	-0.283936	0.093262	-0.800293
775.0	7.678697	-0.920676	7.097379	-0.082348	-0.097185	0.25371	-0.288574	0.097656	-0.800537
776.0	8.464401	-0.524919	8.235987	-0.048607	-0.598803	0.308215	-0.292969	0.097656	-0.798096
777.0	10.753922	-0.873307	7.644734	-0.148459	-0.864933	0.299639	-0.302002	0.097656	-0.800537
778.0	12.053419	-0.617454	6.893384	-0.062156	-0.367164	0.21801	-0.302246	0.099854	-0.798096
779.0	11.814807	-0.497124	6.279874	-0.359506	0.235283	0.041021	-0.302246	0.099854	-0.798096
780.0	11.264355	-1.177047	4.993877	-0.295352	0.57338	-0.21314	-0.293213	0.099854	-0.802734
781.0	9.940772	0.053213	5.062629	0.027305	0.910124	-0.501592	-0.293213	0.099854	-0.807373
782.0	7.893901	1.833726	5.848831	0.00052	1.088747	-0.724336	-0.283936	0.093262	-0.80957
783.0	6.066208	2.44254	5.64399	-0.199239	1.047736	-0.842199	-0.283936	0.095459	-0.81665
784.0	4.870469	2.372659	4.98383	-0.154009	0.809218	-0.887474	-0.274902	0.095459	-0.807373
785.0	4.129453	2.461489	4.796308	-0.083727	0.61586	-0.874845	-0.274902	0.093262	-0.80957
786.0	3.579856	2.299981	4.78906	-0.1307	0.411854	-0.807232	-0.274414	0.084473	-0.816162
787.0	3.519991	1.834317	4.518482	-0.161083	0.065089	-0.738213	-0.274902	0.095459	-0.814209
788.0	4.111859	1.525776	4.376965	-0.113056	-0.285718	-0.692441	-0.276611	0.082275	-0.811523
789.0	4.947933	1.277701	4.435925	-0.157951	-0.550721	-0.679146	-0.285889	0.088867	-0.816406
790.0	5.815949	0.851983	4.36747	-0.273353	-0.688336	-0.685606	-0.290283	0.084473	-0.804688
791.0	6.52514	0.456706	4.307161	-0.352766	-0.713184	-0.695507	-0.292725	0.08667	-0.818604
792.0	7.123034	0.037137	4.286924	-0.444628	-0.694137	-0.701572	-0.296875	0.077881	-0.802002
793.0	7.70142	-0.265751	3.871556	-0.501189	-0.619705	-0.681393	-0.30835	0.084229	-0.806885
794.0	8.069126	-0.350255	3.774153	-0.456009	-0.490457	-0.632422	-0.306152	0.088623	-0.797852
795.0	8.156584	-0.103285	3.821235	-0.42565	-0.383009	-0.580421	-0.310791	0.088623	-0.80249
796.0	8.666068	0.171872	3.643148	-0.395223	-0.347533	-0.530363	-0.317383	0.084229	-0.802246
797.0	9.40457	0.569367	3.397564	-0.38744	-0.221563	-0.487485	-0.317383	0.084229	-0.79541
798.0	9.644588	0.642301	2.904509	-0.506369	0.043401	-0.462368	-0.317139	0.082031	-0.799805
799.0	9.30288	0.568018	2.51215	-0.506314	0.280948	-0.451909	-0.319824	0.088623	-0.797852
800.0	8.845575	0.586106	2.740695	-0.495694	0.445159	-0.429395	-0.312988	0.086426	-0.797607
801.0	8.347052	0.559343	3.012559	-0.598376	0.581778	-0.382346	-0.312988	0.088623	-0.809326
802.0	7.855445	0.377218	3.206887	-0.711777	0.663442	-0.342128	-0.299561	0.088867	-0.811768
803.0	7.516013	0.263448	3.467552	-0.752924	0.683839	-0.314326	-0.302002	0.097656	-0.809814
804.0	7.425487	0.463358	3.83482	-0.687707	0.660988	-0.308616	-0.297607	0.095459	-0.812012
805.0	7.438456	0.986441	4.29796	-0.615158	0.654997	-0.317878	-0.293213	0.102051	-0.816895
806.0	7.994124	0.973314	4.669964	-0.61674	0.614996	-0.288567	-0.291016	0.099854	-0.819092
807.0	8.57846	0.633122	5.689775	-0.549433	0.681135	-0.248483	-0.284668	0.11084	-0.821777
808.0	8.472214	-0.05888	6.450486	-0.677783	0.728871	-0.181327	-0.279541	0.097656	-0.819092
809.0	7.900208	-1.162285	6.148364	-0.686789	0.511861	-0.121679	-0.275635	0.115479	-0.817383
810.0	7.759861	-1.561774	5.784593	-0.394258	0.064131	-0.099303	-0.280029	0.111084	-0.826416
811.0	8.374906	-1.130813	5.467338	-0.160375	-0.412581	-0.099565	-0.284424	0.106445	-0.823975
812.0	9.11847	-0.831884	4.789271	-0.075528	-0.712281	-0.117495	-0.288818	0.104248	-0.821533
813.0	9.903109	-0.488764	3.872361	0.025914	-0.902418	-0.144194	-0.300537	0.115234	-0.81958
814.0	10.773189	0.299316	3.5446	0.116639	-0.914337	-0.17483	-0.302246	0.104248	-0.819336
815.0	11.564985	1.128161	4.007295	0.154168	-0.729673	-0.195398	-0.304688	0.104248	-0.810059
816.0	13.048671	1.843282	9.050038	0.717723	-0.379531	-0.27774	-0.310791	0.091064	-0.80957
817.0	12.397031	2.250298	12.713717	-0.104885	-0.094656	-0.428355	-0.311035	0.097656	-0.809814
818.0	14.298221	-4.02754	7.588627	-0.290852	-0.685381	-0.511262	-0.319824	0.088623	-0.811768
819.0	12.082741	-3.453563	11.236121	1.38381	-0.707438	-0.542019	-0.324219	0.088623	-0.809326
820.0	11.041697	-0.992583	10.201278	0.448637	-1.322779	-0.539406	-0.330322	0.071045	-0.808838
821.0	11.261397	-1.884181	5.887924	0.597673	-1.325993	-0.499817	-0.341553	0.073242	-0.806396
822.0	10.001835	0.716637	5.089872	0.867366	-0.846192	-0.561021	-0.349854	0.05542	-0.803467
823.0	8.431346	2.07941	6.460018	0.531422	0.04872	-0.554326	-0.352295	0.057617	-0.80127
824.0	6.176879	2.526146	7.579261	0.367751	0.383572	-0.531457	-0.345215	0.046631	-0.798584
825.0	5.791031	2.23468	6.788731	0.099158	0.186609	-0.488009	-0.352295	0.059814	-0.805908
826.0	6.435402	1.415559	5.591062	0.043902	0.227429	-0.408722	-0.336182	0.046631	-0.803223
827.0	6.737621	1.928761	7.051051	0.259796	0.122018	-0.283737	-0.349365	0.042236	-0.807617
828.0	8.258661	2.425879	8.483554	0.236679	-0.548835	-0.158676	-0.349365	0.040039	-0.802979
829.0	11.416749	2.151954	7.629863	0.124456	-0.944906	-0.062839	-0.356201	0.044434	-0.800781
830.0	14.049278	1.716551	6.420776	0.091664	-0.597535	0.001857	-0.360352	0.033447	-0.795654
831.0	13.344925	1.226392	6.362548	-0.134596	0.30311	0.083161	-0.358398	0.040039	-0.805176
832.0	10.495737	0.306505	6.19917	-0.389571	0.795232	0.187229	-0.344971	0.044434	-0.800781
833.0	9.005481	-0.347969	5.833924	-0.237895	0.63844	0.277109	-0.345215	0.046631	-0.810059
834.0	8.770021	-0.23599	5.976025	-0.04625	0.602719	0.379938	-0.338135	0.042236	-0.814697
835.0	7.51021	-0.60679	6.318102	-0.26829	0.959524	0.489179	-0.341064	0.05542	-0.808105
836.0	5.116969	-1.582425	6.009929	-0.433652	1.108739	0.573938	-0.327393	0.055664	-0.808105
837.0	4.226529	-2.299016	5.531824	-0.242655	0.715015	0.607339	-0.327881	0.068848	-0.820313
838.0	4.2831	-2.128871	5.375974	0.05347	0.385517	0.645125	-0.325439	0.062256	-0.822266
839.0	3.990232	-1.886303	5.47975	0.013327	0.271479	0.67835	-0.323486	0.068848	-0.820313
840.0	4.345792	-2.117762	4.926765	0.10088	-0.132023	0.698999	-0.323486	0.068848	-0.82251
841.0	5.069753	-1.890244	4.882391	0.316566	-0.401641	0.727389	-0.325928	0.071045	-0.818115
842.0	5.568592	-1.427223	4.954241	0.323005	-0.418721	0.738924	-0.330322	0.068848	-0.815674
843.0	5.803096	-1.187552	4.539923	0.271852	-0.435463	0.754166	-0.337158	0.073242	-0.818115
844.0	6.02569	-0.960207	4.274839	0.385135	-0.522176	0.761348	-0.341309	0.06665	-0.813232
845.0	6.520201	-0.386945	4.456162	0.519458	-0.603745	0.751416	-0.341553	0.068848	-0.815674
846.0	7.17687	0.076657	4.44017	0.492992	-0.614509	0.726199	-0.346191	0.071045	-0.818115
847.0	8.031344	0.143068	4.124237	0.441114	-0.50063	0.674799	-0.35083	0.075439	-0.808838
848.0	8.774111	-0.075253	3.615455	0.442038	-0.281197	0.600338	-0.343994	0.075439	-0.811279
849.0	9.318133	-0.171423	3.250309	0.495614	0.006275	0.518202	-0.348389	0.071045	-0.808594
850.0	9.52351	-0.194502	3.225521	0.549942	0.265962	0.441945	-0.359131	0.059814	-0.80835
851.0	9.485394	-0.177748	3.166982	0.590782	0.442116	0.362684	-0.343506	0.062256	-0.817627
852.0	8.937734	-0.10564	3.144219	0.638104	0.59289	0.303313	-0.341064	0.057861	-0.817627
853.0	8.141016	-0.073271	3.436629	0.640713	0.676466	0.254579	-0.341064	0.055664	-0.822021
854.0	7.682322	-0.079489	3.691933	0.62303	0.652796	0.210424	-0.338623	0.053223	-0.817383
855.0	7.765221	-0.062899	3.774197	0.643506	0.607759	0.177094	-0.333984	0.049072	-0.826416
856.0	7.924532	0.058207	4.064702	0.677467	0.703877	0.158433	-0.32666	0.038086	-0.826172
857.0	7.946181	0.061642	4.427645	0.616911	0.846965	0.159131	-0.317871	0.040283	-0.830811
858.0	7.964109	-0.17464	4.901758	0.602354	0.912247	0.158291	-0.312988	0.031494	-0.837402
859.0	7.875945	-0.141719	5.227709	0.596476	0.843509	0.133436	-0.306152	0.031494	-0.839844
860.0	8.149238	-0.05941	5.652906	0.606653	0.683174	0.119781	-0.305908	0.024902	-0.837158
861.0	8.296286	0.551949	5.814413	0.627875	0.425725	0.090553	-0.30127	0.022705	-0.839355
862.0	8.426135	1.225086	5.806765	0.581884	0.124224	0.107754	-0.305664	0.018311	-0.841553
863.0	8.798913	1.718831	5.581101	0.518364	-0.159291	0.150297	-0.305908	0.022705	-0.841797
864.0	9.203726	2.25901	5.142757	0.444909	-0.34512	0.209158	-0.307861	0.013916	-0.84375
865.0	9.63835	2.28345	4.625798	0.287322	-0.41962	0.258555	-0.314453	0.011719	-0.841309
866.0	10.048404	1.512903	4.006069	0.091347	-0.431343	0.281939	-0.309814	0.009521	-0.838867
867.0	10.668573	0.258313	3.313641	-0.001624	-0.381711	0.256004	-0.317139	0.020508	-0.841797
868.0	11.474009	-0.707003	4.3604	0.129586	-0.270925	0.202459	-0.316895	0.016113	-0.846191
869.0	13.039682	-0.864608	10.204304	0.507855	0.037032	0.130112	-0.325684	0.013672	-0.841553
870.0	13.226768	3.780001	11.538356	0.120355	-0.121059	0.280964	-0.325684	0.009277	-0.832031
871.0	14.415004	3.77134	7.572734	-0.602396	-0.830386	0.648418	-0.333008	0.024658	-0.830322
872.0	11.682054	4.376939	9.40677	-0.316405	-0.620678	0.742776	-0.335449	0.03125	-0.830566
873.0	9.23521	3.472307	8.777229	-1.059681	-0.876121	0.620251	-0.342529	0.040039	-0.828369
874.0	9.443224	0.312235	4.974649	-1.055912	-0.863281	0.419286	-0.352051	0.048828	-0.826416
875.0	8.69353	-0.375771	4.682451	-0.336065	-0.448039	0.238804	-0.347412	0.048828	-0.828857
876.0	7.429329	0.433694	6.524035	-0.254267	-0.275682	0.160697	-0.349609	0.048828	-0.828857
877.0	7.361732	0.357038	6.995225	-0.419023	-0.349255	0.174982	-0.354492	0.057617	-0.822266
878.0	7.832483	0.001855	6.625479	-0.450197	-0.291012	0.208774	-0.359375	0.062012	-0.826904
879.0	8.212201	-0.008999	5.762972	-0.436565	-0.118829	0.253181	-0.359375	0.066406	-0.824707
880.0	7.944633	0.182248	6.491686	-0.323576	-0.029799	0.348613	-0.35498	0.068848	-0.827148
881.0	8.315335	-0.001462	7.602314	-0.356715	-0.445532	0.438744	-0.362061	0.075195	-0.825195
882.0	9.966834	-0.63994	7.369649	-0.24917	-0.847098	0.490602	-0.364258	0.075195	-0.811279
883.0	11.549455	-0.288418	7.380954	-0.194554	-0.586098	0.407885	-0.369141	0.081787	-0.811523
884.0	12.260569	-0.911124	6.605848	-0.494666	-0.140966	0.230022	-0.371338	0.083984	-0.820801
885.0	11.953477	-1.853584	5.126933	-0.443716	0.349219	-0.066794	-0.371582	0.090576	-0.816406
886.0	10.622117	-0.959447	5.191159	-0.049195	0.70702	-0.397028	-0.360352	0.086426	-0.820801
887.0	8.821615	0.671561	5.918953	-0.028181	0.877949	-0.659121	-0.355957	0.093018	-0.825684
888.0	7.15507	1.290533	5.614292	-0.180179	0.899572	-0.814261	-0.351074	0.082031	-0.827637
889.0	5.830701	1.631743	5.060387	-0.055149	0.738453	-0.878555	-0.349121	0.086426	-0.839355
890.0	4.973665	2.262489	5.07256	-0.040002	0.521291	-0.862513	-0.344238	0.077637	-0.834473
891.0	4.528399	2.154831	4.567135	-0.093313	0.324314	-0.778677	-0.341797	0.077637	-0.832275
892.0	4.175773	2.059055	4.495472	-0.103742	0.158817	-0.657976	-0.348633	0.075439	-0.827393
893.0	4.629147	1.666438	4.516147	-0.07941	-0.127683	-0.575109	-0.348633	0.077637	-0.832275
894.0	5.205405	1.524003	4.516965	-0.103914	-0.297513	-0.540734	-0.341797	0.073242	-0.827393
895.0	5.658513	1.422913	4.402507	-0.188836	-0.418945	-0.541559	-0.351074	0.082031	-0.827637
896.0	6.222476	1.247746	4.185582	-0.291401	-0.522561	-0.560368	-0.350586	0.071045	-0.822754
897.0	6.904938	0.943856	3.992276	-0.392098	-0.553052	-0.571155	-0.362305	0.084229	-0.823242
898.0	7.563891	0.703845	3.821605	-0.491251	-0.454276	-0.579366	-0.357666	0.077637	-0.820557
899.0	7.731006	0.461756	3.593479	-0.591863	-0.280004	-0.563066	-0.362305	0.084229	-0.820801
900.0	7.615535	0.542454	3.443217	-0.589419	-0.204035	-0.533276	-0.364746	0.084229	-0.820801
901.0	7.902592	0.686395	3.302162	-0.571376	-0.265144	-0.507209	-0.369141	0.083984	-0.818359
902.0	8.473015	0.858479	3.147677	-0.600873	-0.197483	-0.472099	-0.371582	0.088379	-0.818604
903.0	8.733002	0.875921	3.010152	-0.678472	0.011694	-0.443679	-0.367188	0.093018	-0.823486
904.0	8.57781	0.664829	2.85757	-0.751211	0.212014	-0.416441	-0.367432	0.099609	-0.81665
905.0	8.07571	0.458006	2.921252	-0.763579	0.444117	-0.379835	-0.369873	0.101807	-0.82373
906.0	7.524055	0.369677	3.255676	-0.798115	0.556017	-0.315166	-0.363281	0.106201	-0.821533
907.0	7.285967	0.170298	3.491661	-0.858156	0.543182	-0.254458	-0.359131	0.117188	-0.819824
908.0	7.285308	-0.094138	3.530357	-0.879227	0.526633	-0.205779	-0.352539	0.121582	-0.822266
909.0	7.513148	-0.145316	3.756979	-0.781293	0.53144	-0.196735	-0.352783	0.123779	-0.824707
910.0	8.069327	0.097633	4.425424	-0.671944	0.529438	-0.209702	-0.346191	0.126221	-0.829346
911.0	8.66923	0.006659	4.716168	-0.681053	0.569354	-0.215156	-0.351074	0.137207	-0.832031
912.0	8.847511	-0.541758	5.521026	-0.600691	0.702579	-0.211022	-0.3396	0.13501	-0.838867
913.0	8.407987	-1.150171	6.26205	-0.572839	0.688081	-0.206014	-0.333252	0.143799	-0.830078
914.0	8.010718	-1.831813	6.16514	-0.435876	0.417169	-0.195939	-0.333252	0.141602	-0.829834
915.0	7.930717	-1.485929	5.675952	-0.153594	0.016635	-0.201785	-0.331299	0.148193	-0.839355
916.0	8.380387	-0.682441	5.251347	0.004816	-0.305417	-0.210461	-0.339844	0.141602	-0.832275
917.0	8.848591	-0.095802	4.530273	0.053357	-0.505509	-0.20701	-0.344482	0.143799	-0.827637
918.0	9.572142	0.582715	3.903898	0.13216	-0.603869	-0.200877	-0.353516	0.143799	-0.827637
919.0	10.513498	1.464431	3.419975	0.136735	-0.577839	-0.193673	-0.351074	0.139404	-0.825195
920.0	11.350778	2.169042	3.269597	0.083022	-0.431108	-0.171076	-0.353271	0.137207	-0.825195
921.0	12.470508	2.518853	5.174189	0.24196	-0.245715	-0.158956	-0.362549	0.145752	-0.822998
922.0	13.508245	3.539639	11.975544	0.642095	0.155123	-0.247186	-0.357666	0.132568	-0.82251
923.0	13.295161	0.062081	10.078089	-0.887238	-0.093543	-0.313573	-0.360107	0.13916	-0.820557
924.0	14.218758	-5.058871	7.121915	0.442923	-0.410641	-0.381647	-0.364258	0.132568	-0.817871
925.0	10.870444	-2.099108	12.673269	1.150184	-0.618824	-0.479605	-0.37085	0.128174	-0.810791
926.0	11.005245	-2.713646	8.689733	0.242582	-1.430281	-0.511883	-0.379883	0.125977	-0.806152
927.0	11.101932	-1.975444	4.994349	0.825063	-1.063029	-0.537535	-0.386475	0.121338	-0.80127
928.0	8.754853	0.284132	6.089431	0.816769	-0.29867	-0.516202	-0.388184	0.108154	-0.810059
929.0	6.841631	1.006423	6.343741	0.50801	0.119802	-0.494328	-0.383545	0.105957	-0.802979
930.0	5.92812	1.588883	6.508248	0.551758	0.377383	-0.481159	-0.385498	0.097168	-0.807373
931.0	5.379734	1.828444	7.188887	0.393102	0.463008	-0.416055	-0.383545	0.105957	-0.807617
932.0	5.198684	0.972691	6.153472	0.058501	0.459037	-0.317593	-0.378662	0.094971	-0.807373
933.0	5.525296	0.423863	6.555973	0.325861	0.211098	-0.226102	-0.387695	0.097168	-0.80957
934.0	7.057156	1.455945	8.072285	0.608769	-0.549576	-0.136702	-0.382813	0.088379	-0.807129
935.0	10.283491	1.702849	7.793135	0.433195	-1.094852	-0.066696	-0.396484	0.092773	-0.807129
936.0	12.985831	1.397181	6.58439	0.382169	-0.887377	-0.015596	-0.400879	0.086182	-0.802246
937.0	13.170492	1.4962	6.213256	0.260457	-0.20988	0.044784	-0.40332	0.090576	-0.80249
938.0	11.732703	1.241203	5.838814	0.083961	0.218054	0.150061	-0.400635	0.083984	-0.795166
939.0	10.53081	0.979175	5.491098	0.101539	0.415881	0.293796	-0.398682	0.090576	-0.800049
940.0	10.043148	0.938595	5.423471	0.088629	0.519149	0.433602	-0.389648	0.088379	-0.79541
941.0	8.29255	0.542662	5.365625	-0.052174	0.881505	0.599715	-0.387695	0.094971	-0.814209
942.0	6.080519	-0.268963	5.487407	-0.250686	0.910778	0.683792	-0.378662	0.094971	-0.812012
943.0	5.419232	-1.095324	4.884779	-0.118858	0.45724	0.745559	-0.381348	0.105957	-0.80542
944.0	4.874418	-1.18265	4.813236	-0.014103	0.362363	0.755194	-0.37915	0.110596	-0.810059
945.0	4.73375	-1.543993	4.940737	-0.060039	0.129458	0.737215	-0.379395	0.112793	-0.814941
946.0	5.269739	-1.752977	4.58881	0.136985	-0.21719	0.744399	-0.381592	0.11499	-0.810303
947.0	5.837281	-1.417051	4.773609	0.268759	-0.341333	0.743366	-0.38623	0.116943	-0.808105
948.0	6.169022	-1.303625	4.583497	0.237905	-0.406005	0.765934	-0.384033	0.117188	-0.805664
949.0	6.405891	-1.342358	4.297992	0.309949	-0.442446	0.782489	-0.386475	0.121338	-0.798828
950.0	6.741801	-1.245757	4.075249	0.402166	-0.457574	0.783935	-0.384277	0.121338	-0.796631
951.0	7.076459	-0.962361	3.966698	0.489686	-0.427852	0.767746	-0.391113	0.128174	-0.803955
952.0	7.533967	-0.774972	4.052885	0.54081	-0.353271	0.732513	-0.395264	0.119141	-0.798828
953.0	8.020679	-0.618056	4.023605	0.555109	-0.245212	0.667672	-0.397705	0.123535	-0.796631
954.0	8.482422	-0.459028	3.815635	0.581619	-0.106023	0.628779	-0.397461	0.114746	-0.798584
955.0	8.730467	-0.306234	3.659022	0.587285	0.047466	0.564984	-0.397705	0.119141	-0.794189
956.0	8.914453	-0.275991	3.424156	0.604262	0.145783	0.499703	-0.395264	0.114746	-0.793945
957.0	9.017933	-0.175177	3.246251	0.670889	0.236123	0.426892	-0.397705	0.119141	-0.794189
958.0	8.952272	0.046767	2.994534	0.727118	0.317355	0.354004	-0.390381	0.108154	-0.800781
959.0	8.697712	0.206387	2.947313	0.738041	0.433566	0.301608	-0.390381	0.105957	-0.802979
960.0	8.306987	0.159754	3.03684	0.760659	0.563839	0.252015	-0.387695	0.099365	-0.802734
961.0	7.948433	0.138788	3.523051	0.802269	0.624327	0.21576	-0.385498	0.099365	-0.807373
962.0	8.031168	0.342957	3.81685	0.78324	0.635213	0.188626	-0.380615	0.088379	-0.811768
963.0	8.286131	0.539284	3.971795	0.772646	0.719889	0.185373	-0.376465	0.094971	-0.80957
964.0	8.303061	0.780037	4.392124	0.7366	0.858515	0.190652	-0.364502	0.081787	-0.806885
965.0	8.191116	0.845619	4.7532	0.599981	0.930556	0.199021	-0.358154	0.088623	-0.813965
966.0	8.240295	0.735696	4.966105	0.53796	0.820798	0.187545	-0.353516	0.084229	-0.825439
967.0	8.418594	1.138274	5.702764	0.541547	0.638969	0.164762	-0.353516	0.084229	-0.825439
968.0	8.443268	1.613536	6.125621	0.351948	0.405963	0.155079	-0.35083	0.075439	-0.822754
969.0	8.516955	1.478196	5.866118	0.157481	0.122304	0.157907	-0.355713	0.086426	-0.827881
970.0	8.827775	1.434219	5.533697	0.110124	-0.187846	0.178327	-0.35083	0.075439	-0.820557
971.0	9.570452	1.431865	5.364772	0.042007	-0.411227	0.184428	-0.362305	0.084229	-0.820801
972.0	10.362662	0.844697	4.834642	-0.085727	-0.465414	0.165972	-0.362305	0.07959	-0.818359
973.0	10.884079	-0.14999	3.978318	-0.156671	-0.357337	0.115965	-0.369385	0.090576	-0.818604
974.0	11.353051	-1.133386	3.283988	-0.12913	-0.254969	0.045439	-0.369141	0.083984	-0.816162
975.0	11.90501	-1.848073	3.2442	-0.013389	-0.147322	-0.03094	-0.371338	0.083984	-0.822998
976.0	12.836951	-2.339375	6.199453	0.18791	0.010672	-0.109604	-0.371338	0.083984	-0.816162
977.0	13.633125	-0.641777	11.548688	0.357106	0.414725	-0.120285	-0.371582	0.090576	-0.816406
978.0	13.956672	2.888218	8.074417	-0.33855	0.123365	0.189088	-0.366943	0.086182	-0.820801
979.0	13.171255	2.832236	7.477071	-0.222716	-0.175715	0.488178	-0.369629	0.093018	-0.816406
980.0	10.200395	4.67389	10.93753	-0.225306	-0.433071	0.618329	-0.376465	0.094971	-0.807373
981.0	10.066796	2.312637	8.59795	-1.155556	-0.877729	0.562383	-0.37915	0.108398	-0.814697
982.0	9.332108	0.098634	4.087221	-0.784407	-0.49474	0.451469	-0.383789	0.112793	-0.8125
983.0	6.930003	0.039583	5.823154	-0.192002	-0.15367	0.327955	-0.381836	0.117188	-0.805664
984.0	5.92264	0.147833	6.587232	-0.358829	-0.316655	0.201329	-0.384033	0.114746	-0.798828
985.0	6.352085	-0.552534	5.336007	-0.352415	-0.348278	0.211056	-0.391113	0.123535	-0.805908
986.0	6.470128	-0.261805	5.964098	-0.013638	-0.073096	0.225423	-0.388672	0.121338	-0.805908
987.0	6.088767	0.639357	6.553799	-0.100165	0.102072	0.252222	-0.384521	0.128174	-0.813232
988.0	6.049918	0.473776	6.482633	-0.256455	0.018964	0.333698	-0.38208	0.125977	-0.794434
989.0	6.599426	0.00995	6.690714	-0.16359	-0.26068	0.436399	-0.389404	0.136963	-0.804199
990.0	8.283988	-0.308926	7.78814	-0.067614	-0.725063	0.502965	-0.391357	0.132568	-0.797119
991.0	10.192471	-0.634139	7.556196	-0.18757	-0.949824	0.494586	-0.398438	0.141113	-0.790283
992.0	11.333325	-0.877336	6.462878	-0.208151	-0.659727	0.378217	-0.402832	0.136719	-0.785645
993.0	12.623729	-1.443788	5.941693	-0.118216	-0.260673	0.172584	-0.405518	0.145508	-0.795166
994.0	12.253905	-0.986738	5.135568	-0.034428	0.439186	-0.141945	-0.400879	0.141113	-0.794922
995.0	10.940731	-0.062303	5.482759	0.119858	0.725101	-0.429974	-0.400879	0.141357	-0.802002
996.0	9.05438	1.145575	5.702375	0.115832	0.903625	-0.648324	-0.391357	0.132568	-0.794678
997.0	6.985015	1.652777	5.521458	0.002323	0.950562	-0.763662	-0.38916	0.132568	-0.803955
998.0	5.531073	2.014613	4.988029	0.079614	0.718408	-0.789722	-0.388916	0.128174	-0.810791
999.0	4.975926	2.328952	4.812629	0.110214	0.42833	-0.726174	-0.382324	0.130371	-0.813232
1000.0	4.723269	2.265139	4.560881	0.074251	0.256805	-0.612297	-0.375	0.119385	-0.810547
1001.0	4.525974	1.971056	4.718985	0.023913	0.069217	-0.515282	-0.384277	0.123779	-0.812988
1002.0	5.338978	1.427584	4.600286	0.030221	-0.243428	-0.459754	-0.381592	0.11499	-0.805664
1003.0	6.213829	1.385672	4.551516	0.036047	-0.334679	-0.453244	-0.388672	0.121582	-0.80835
1004.0	6.546135	1.408793	4.586132	-0.104981	-0.320128	-0.46742	-0.388428	0.114746	-0.812744
1005.0	6.831781	0.897448	4.336794	-0.261317	-0.378367	-0.470705	-0.397705	0.121338	-0.805908
1006.0	7.259412	0.43264	4.043963	-0.290207	-0.43617	-0.47473	-0.39502	0.112549	-0.807861
1007.0	7.770715	0.334728	3.942528	-0.283291	-0.421102	-0.470491	-0.4021	0.116943	-0.803467
1008.0	8.103532	0.421686	3.911094	-0.297876	-0.334651	-0.43787	-0.401855	0.112549	-0.801025
1009.0	8.296455	0.493875	3.801496	-0.313053	-0.261878	-0.41651	-0.408936	0.121338	-0.798828
1010.0	8.817685	0.558045	3.511993	-0.307919	-0.202623	-0.38919	-0.404297	0.116943	-0.801025
1011.0	9.218172	0.688728	3.172078	-0.33379	-0.011199	-0.3675	-0.411133	0.119141	-0.803467
1012.0	9.081591	0.658966	3.014628	-0.402507	0.298814	-0.365843	-0.399902	0.116943	-0.803467
1013.0	8.427072	0.617707	3.106242	-0.448962	0.501372	-0.352298	-0.402344	0.125732	-0.803711
1014.0	7.840036	0.571416	3.129716	-0.513012	0.590881	-0.317954	-0.391113	0.123535	-0.805908
1015.0	7.464531	0.59341	3.220277	-0.562457	0.62939	-0.267446	-0.400391	0.130127	-0.808594
1016.0	7.032469	0.629368	3.424944	-0.627797	0.617943	-0.217096	-0.393555	0.128174	-0.810791
1017.0	6.903981	0.587319	3.654133	-0.67873	0.550167	-0.186418	-0.391602	0.134766	-0.815674
1018.0	6.985361	0.505773	3.966235	-0.680568	0.519197	-0.179911	-0.384766	0.134766	-0.822754
1019.0	7.324759	0.427544	4.122026	-0.673075	0.490644	-0.197622	-0.380615	0.143555	-0.818359
1020.0	8.178448	0.548634	4.560566	-0.48484	0.478559	-0.221079	-0.378418	0.143555	-0.827637
1021.0	9.015832	0.618256	5.524882	-0.427081	0.589793	-0.224578	-0.373779	0.143555	-0.822998
1022.0	9.013515	-0.108622	6.198059	-0.501523	0.739012	-0.184108	-0.36499	0.148193	-0.830078
1023.0	8.319198	-1.076128	6.192566	-0.473877	0.57387	-0.13889	-0.369629	0.150146	-0.827881
1024.0	8.32266	-1.48075	5.855519	-0.255694	0.09928	-0.113647	-0.367432	0.152588	-0.830322
1025.0	9.020549	-1.069	5.526656	-0.121179	-0.279994	-0.096936	-0.37207	0.154541	-0.828125
1026.0	9.480247	-0.657614	4.516695	-0.104374	-0.448838	-0.094291	-0.369629	0.147949	-0.825439
1027.0	9.888633	0.046593	4.066146	0.00353	-0.52109	-0.105701	-0.378662	0.152344	-0.827881
1028.0	10.502071	0.884167	3.674222	-0.043583	-0.485995	-0.124549	-0.378418	0.145752	-0.830078
1029.0	11.09901	1.298197	3.31767	-0.081713	-0.368945	-0.131531	-0.385498	0.152344	-0.825684
1030.0	12.097219	1.722659	4.855584	0.100287	-0.202006	-0.139528	-0.380859	0.147949	-0.83252
1031.0	13.303413	2.580214	10.891941	0.577534	0.205927	-0.243736	-0.383301	0.152344	-0.827881
1032.0	13.090799	0.490745	10.550288	-0.698506	0.22802	-0.362935	-0.380859	0.150146	-0.830322
1033.0	13.860125	-4.693849	7.338863	0.104159	-0.097185	-0.399041	-0.380615	0.145752	-0.832275
1034.0	11.31899	-2.259913	12.213023	1.146402	-0.407631	-0.481274	-0.386719	0.130371	-0.827148
1035.0	11.080728	-2.271935	9.502536	0.204264	-1.163996	-0.493907	-0.400391	0.132568	-0.817871
1036.0	10.772151	-1.768168	5.377297	0.698481	-0.905186	-0.508341	-0.402344	0.125732	-0.822266
1037.0	8.342282	0.861567	6.120489	0.761607	-0.339846	-0.490138	-0.406738	0.121338	-0.826904
1038.0	6.329551	1.613406	6.52104	0.465313	-0.022126	-0.473846	-0.404053	0.108154	-0.819336
1039.0	5.603058	1.638263	6.058659	0.345751	0.214032	-0.476047	-0.401611	0.10376	-0.826172
1040.0	5.243714	1.709479	6.647718	0.337199	0.407974	-0.455233	-0.39917	0.101563	-0.828369
1041.0	5.023117	1.452003	6.513771	0.077026	0.457182	-0.403047	-0.39917	0.101563	-0.835449
1042.0	5.005266	0.723833	6.386961	0.048458	0.372605	-0.318865	-0.39209	0.094971	-0.830566
1043.0	5.741461	0.871623	7.258393	0.296375	-0.137654	-0.241162	-0.396729	0.097168	-0.835205
1044.0	7.998094	1.381492	7.923873	0.399993	-0.758529	-0.171976	-0.403076	0.088379	-0.827881
1045.0	10.782762	1.443224	7.314663	0.28472	-0.886712	-0.101686	-0.409912	0.088379	-0.823242
1046.0	12.201508	1.070667	6.259607	0.15027	-0.489925	-0.032582	-0.407471	0.086182	-0.825439
1047.0	11.879193	0.731734	5.980779	0.106447	0.056487	0.076583	-0.409912	0.086182	-0.825439
1048.0	10.670471	0.674011	6.149076	0.097018	0.410643	0.190869	-0.412109	0.083984	-0.827637
1049.0	9.846833	0.610838	6.147867	0.073667	0.584679	0.315416	-0.400879	0.088379	-0.83252
1050.0	8.569312	0.323813	6.126659	0.023313	0.763723	0.468535	-0.394043	0.086182	-0.83252
1051.0	6.285041	-0.430616	6.221914	-0.19787	0.94314	0.573191	-0.394287	0.092773	-0.84668
1052.0	5.158107	-1.331221	5.731425	-0.132005	0.612954	0.651157	-0.383057	0.090576	-0.84668
1053.0	4.38747	-1.354082	5.62219	0.080114	0.365452	0.690816	-0.390137	0.099365	-0.846924
1054.0	4.052703	-1.513811	5.717577	0.00628	0.085811	0.707097	-0.385498	0.099609	-0.846924
1055.0	4.972897	-2.013692	5.150297	0.153569	-0.360978	0.732605	-0.390381	0.104004	-0.849365
1056.0	5.774041	-1.686689	5.310704	0.356352	-0.554732	0.756358	-0.385498	0.094971	-0.844482
1057.0	6.534692	-1.383364	5.349206	0.331591	-0.620961	0.766357	-0.394775	0.101563	-0.846924
1058.0	7.226891	-1.315599	4.766921	0.341308	-0.644719	0.787481	-0.396973	0.101563	-0.842285
1059.0	7.779809	-1.147999	4.514532	0.441266	-0.596263	0.800953	-0.403809	0.10376	-0.835449
1060.0	8.234233	-0.786027	4.223284	0.544729	-0.520267	0.782801	-0.403564	0.094971	-0.837402
1061.0	8.7389	-0.624171	4.095159	0.558377	-0.41379	0.75012	-0.412598	0.097168	-0.839844
1062.0	9.081353	-0.516498	4.033746	0.604352	-0.26607	0.705403	-0.405518	0.090576	-0.8396
1063.0	9.2998	-0.391022	3.702076	0.611913	-0.080593	0.654292	-0.408203	0.099365	-0.842285
1064.0	9.161442	-0.351611	3.503842	0.639893	0.116717	0.623909	-0.407715	0.086182	-0.841797
1065.0	8.863828	-0.275387	3.480408	0.669314	0.227192	0.574926	-0.405762	0.094971	-0.84668
1066.0	8.591526	-0.280761	3.370383	0.704364	0.281708	0.513846	-0.405273	0.086182	-0.841797
1067.0	8.32689	-0.218856	3.316942	0.75486	0.324707	0.459728	-0.400879	0.088379	-0.851074
1068.0	8.16639	-0.165279	3.198261	0.780065	0.367713	0.408857	-0.402588	0.070801	-0.850586
1069.0	8.019425	-0.283181	3.304701	0.808093	0.476939	0.359913	-0.400391	0.075195	-0.855225
1070.0	7.607519	-0.240863	3.762306	0.863953	0.625936	0.321443	-0.390869	0.064209	-0.850342
1071.0	7.233793	-0.049783	4.158203	0.873459	0.67356	0.29262	-0.390869	0.062012	-0.861816
1072.0	7.063511	0.100131	4.346031	0.859017	0.689837	0.279398	-0.383545	0.048828	-0.868164
1073.0	6.881555	0.305506	4.364388	0.84466	0.714385	0.267187	-0.37915	0.051025	-0.875244
1074.0	6.863106	0.446422	4.456731	0.821589	0.684272	0.254504	-0.374268	0.040039	-0.877197
1075.0	7.474749	0.477102	4.671898	0.848471	0.558916	0.246258	-0.369629	0.040039	-0.877197
1076.0	8.454376	1.062765	5.096913	0.844431	0.477348	0.214093	-0.367188	0.03125	-0.874512
1077.0	9.106709	1.830501	5.489886	0.673074	0.455693	0.174903	-0.362305	0.026855	-0.883789
1078.0	9.165028	2.466903	5.678111	0.443237	0.363725	0.16449	-0.362061	0.018066	-0.881104
1079.0	9.143535	2.702709	5.581496	0.262466	0.078702	0.184405	-0.35791	0.026855	-0.883789
1080.0	9.471363	2.650894	5.150414	0.140934	-0.234262	0.214757	-0.362305	0.022461	-0.881104
1081.0	9.722802	2.243759	4.691383	0.037116	-0.405381	0.216953	-0.369141	0.024658	-0.885986
1082.0	10.138316	1.286692	4.21816	-0.06562	-0.483633	0.170722	-0.366699	0.020264	-0.874268
1083.0	10.630389	0.018182	3.476378	-0.103337	-0.459414	0.097727	-0.371338	0.024658	-0.888184
1084.0	11.079554	-0.950849	3.413967	0.021432	-0.366114	0.016752	-0.375488	0.015869	-0.878662
1085.0	11.858401	-1.596344	5.341986	0.18697	-0.268685	-0.070477	-0.377686	0.013672	-0.878662
1086.0	13.425386	-1.433425	10.927801	0.45545	0.076235	-0.116662	-0.375488	0.013672	-0.887939
1087.0	13.506153	2.00746	10.044409	-0.093063	0.175681	0.055484	-0.375488	0.015869	-0.885498
1088.0	13.508468	1.525118	7.375432	-0.360697	-0.159241	0.348478	-0.380127	0.018066	-0.881104
1089.0	10.733665	3.574099	10.635111	0.241917	-0.425253	0.525999	-0.382324	0.018066	-0.883301
1090.0	9.621763	3.86726	9.937936	-0.574252	-0.969342	0.533937	-0.395996	0.02002	-0.878662
1091.0	9.773469	1.366321	5.608966	-0.693762	-0.821824	0.482155	-0.400879	0.03125	-0.876953
1092.0	8.14565	0.566783	4.997908	-0.141925	-0.372651	0.438553	-0.407715	0.031006	-0.874512
1093.0	6.673083	0.793653	6.116561	-0.078345	-0.243861	0.387879	-0.401123	0.037842	-0.877197
1094.0	6.433746	0.404781	6.232443	-0.22867	-0.261338	0.395463	-0.407471	0.028809	-0.865234
1095.0	6.41494	0.257561	6.310466	-0.155954	-0.093595	0.40156	-0.407959	0.0354	-0.872314
1096.0	6.139757	0.612411	6.299376	-0.23021	0.046781	0.416849	-0.403076	0.031006	-0.872314
1097.0	5.967702	0.43974	6.451063	-0.315238	0.000155	0.469354	-0.412598	0.039795	-0.879395
1098.0	6.546681	0.099576	6.960339	-0.308224	-0.362536	0.526121	-0.412598	0.041992	-0.870361
1099.0	8.363415	-0.450064	7.384515	-0.26371	-0.863345	0.556297	-0.421875	0.048584	-0.865967
1100.0	10.091139	-0.666817	7.139703	-0.24796	-0.972488	0.501775	-0.430664	0.041992	-0.863281
1101.0	11.332777	-0.675649	6.670219	-0.248458	-0.707233	0.337148	-0.43335	0.050781	-0.865967
1102.0	12.692775	-1.164462	5.743664	-0.219682	-0.304084	0.08141	-0.435303	0.046387	-0.858887
1103.0	12.55095	-0.621353	5.0108	-0.043205	0.405686	-0.233491	-0.43335	0.052979	-0.86377
1104.0	11.151845	0.388167	5.692964	0.020186	0.836355	-0.516253	-0.419434	0.044189	-0.870361
1105.0	8.539834	1.509001	5.923721	-0.04646	1.090399	-0.721674	-0.419434	0.041992	-0.877197
1106.0	6.447931	1.938505	5.765197	-0.154805	0.909775	-0.815792	-0.410156	0.037598	-0.877197
1107.0	5.51202	2.24532	5.187536	-0.038488	0.543742	-0.818271	-0.407959	0.035645	-0.884033
1108.0	5.134644	2.458426	5.017792	-0.088028	0.351456	-0.732086	-0.407471	0.028809	-0.883789
1109.0	4.679743	2.110392	4.76668	-0.174463	0.218204	-0.620449	-0.412109	0.028809	-0.885986
1110.0	4.423631	1.910823	4.765295	-0.140945	0.008889	-0.530955	-0.405273	0.024414	-0.888184
1111.0	5.098653	1.722686	4.860527	-0.121165	-0.312994	-0.49092	-0.412109	0.026611	-0.885986
1112.0	6.220984	1.525735	4.8077	-0.163454	-0.526421	-0.482841	-0.41626	0.022217	-0.883545
1113.0	7.150215	1.218514	4.675837	-0.288472	-0.557617	-0.508791	-0.425537	0.026611	-0.876709
1114.0	7.699338	0.734181	4.716274	-0.418276	-0.518864	-0.524974	-0.42749	0.02002	-0.876465
1115.0	8.158394	0.240644	4.201421	-0.498634	-0.471778	-0.543909	-0.425781	0.031006	-0.872314
1116.0	8.52043	0.033434	3.94894	-0.490993	-0.366319	-0.543495	-0.434082	0.017822	-0.876221
1117.0	8.568783	0.097255	3.905731	-0.472038	-0.261842	-0.523509	-0.429932	0.026611	-0.876709
1118.0	8.770183	0.058335	3.765516	-0.475934	-0.195897	-0.491851	-0.438721	0.017822	-0.869385
1119.0	8.946362	0.025775	3.492192	-0.496362	-0.064843	-0.45435	-0.438965	0.026611	-0.874268
1120.0	8.846731	-0.113999	3.269112	-0.506658	0.139441	-0.419568	-0.432129	0.02002	-0.876465
1121.0	8.372123	0.012803	3.289316	-0.482131	0.319819	-0.387398	-0.434814	0.031006	-0.87915
1122.0	7.868088	0.175317	3.487304	-0.521754	0.432295	-0.334999	-0.427734	0.024414	-0.888184
1123.0	7.488206	0.091534	3.510951	-0.584253	0.477756	-0.281353	-0.428223	0.0354	-0.88623
1124.0	7.272332	0.125385	3.569426	-0.602609	0.494743	-0.231416	-0.421143	0.031006	-0.883789
1125.0	7.105036	0.142148	3.796316	-0.623844	0.463688	-0.193109	-0.421387	0.037598	-0.895752
1126.0	7.090815	0.099437	4.004081	-0.656094	0.438618	-0.181794	-0.416992	0.037598	-0.884033
1127.0	7.169151	-0.057687	4.133354	-0.665827	0.427703	-0.178521	-0.415039	0.046631	-0.888916
1128.0	7.497332	-0.20639	4.09458	-0.626475	0.38834	-0.192886	-0.409912	0.033447	-0.890869
1129.0	8.383855	-0.217334	4.405269	-0.432477	0.378244	-0.217084	-0.408447	0.048828	-0.900635
1130.0	9.071792	0.075569	5.301149	-0.300306	0.477811	-0.226083	-0.408203	0.042236	-0.900391
1131.0	8.871015	-0.034556	6.094499	-0.322399	0.619763	-0.210357	-0.401855	0.051025	-0.905518
1132.0	7.884644	-0.460628	6.304617	-0.318757	0.476911	-0.188976	-0.401367	0.044434	-0.905273
1133.0	7.560565	-0.798144	5.78418	-0.219303	0.056023	-0.15587	-0.399658	0.05542	-0.905518
1134.0	7.860677	-0.533535	5.415449	-0.076125	-0.255708	-0.133513	-0.401367	0.042236	-0.902832
1135.0	8.195478	-0.090802	4.936156	-0.037107	-0.385955	-0.110946	-0.408203	0.046631	-0.903076
1136.0	8.582844	0.323968	4.200175	0.023466	-0.452919	-0.090062	-0.408203	0.044434	-0.902832
1137.0	9.17948	1.077383	3.71674	0.103115	-0.467505	-0.075041	-0.414795	0.042236	-0.893555
1138.0	10.044886	1.634356	3.600003	0.112223	-0.451114	-0.051454	-0.418945	0.031006	-0.895508
1139.0	11.07248	1.977653	4.057824	0.143442	-0.389661	-0.041646	-0.423584	0.0354	-0.893311
1140.0	12.57107	2.151732	7.155288	0.412489	-0.198429	-0.074281	-0.42334	0.026611	-0.890625
1141.0	13.042877	2.004147	10.656314	0.077448	0.052181	-0.208053	-0.423584	0.033203	-0.893066
1142.0	14.142532	-2.582061	7.448879	-0.515591	-0.151509	-0.362875	-0.425537	0.024414	-0.895264
1143.0	13.291751	-4.079301	9.06374	0.835259	-0.168115	-0.450084	-0.422852	0.017822	-0.892578
1144.0	11.153701	-1.784425	10.840586	0.590344	-0.55338	-0.538029	-0.431396	0.006836	-0.889893
1145.0	11.378468	-1.391919	7.155987	0.480277	-0.903025	-0.552007	-0.438232	0.006836	-0.885254
1146.0	10.052771	0.520718	6.499215	0.73563	-0.552463	-0.524631	-0.444336	-0.008789	-0.877686
1147.0	8.08082	1.706513	6.521853	0.404448	-0.153099	-0.485285	-0.440186	-0.002197	-0.882568
1148.0	6.5495	1.764865	6.106064	0.231432	0.174633	-0.461665	-0.441895	-0.017578	-0.884277
1149.0	5.530766	1.573912	6.443548	0.219954	0.316115	-0.448178	-0.435059	-0.017578	-0.884277
1150.0	5.20297	1.367133	6.371417	0.059121	0.278733	-0.446237	-0.43457	-0.028564	-0.884033
1151.0	5.293989	1.008728	5.921033	0.008133	0.213055	-0.402924	-0.437012	-0.026367	-0.881592
1152.0	5.444785	1.069008	6.303872	0.13292	0.016306	-0.349571	-0.43457	-0.030762	-0.883789
1153.0	6.38877	1.291843	6.899077	0.195037	-0.416453	-0.302876	-0.437012	-0.02417	-0.879395
1154.0	8.460826	1.290851	7.088451	0.236627	-0.794678	-0.26224	-0.440918	-0.039551	-0.876465
1155.0	10.267531	1.109891	6.886178	0.150841	-0.782608	-0.20417	-0.447998	-0.032959	-0.869873
1156.0	11.373269	0.612213	6.314358	0.038389	-0.584853	-0.120822	-0.44751	-0.039795	-0.85791
1157.0	11.820268	0.277591	6.000487	0.08379	-0.287053	-0.0174	-0.449951	-0.037354	-0.87207
1158.0	11.577147	0.294268	6.257109	0.07429	0.135767	0.102438	-0.452148	-0.041992	-0.869385
1159.0	11.015081	-0.173321	6.09628	-0.045673	0.481814	0.222851	-0.447754	-0.035156	-0.87207
1160.0	9.811357	-0.808954	5.891192	-0.039631	0.730585	0.37583	-0.440918	-0.037354	-0.876709
1161.0	7.317969	-0.969311	6.257891	-0.080527	0.911846	0.496907	-0.441162	-0.032959	-0.881348
1162.0	5.999638	-1.446499	6.074322	-0.10224	0.572266	0.564608	-0.436523	-0.032959	-0.876709
1163.0	5.429527	-1.563217	5.621636	0.060269	0.320481	0.604574	-0.432129	-0.030762	-0.883789
1164.0	4.663671	-1.305187	5.855965	0.063582	0.156734	0.623454	-0.432129	-0.035156	-0.883789
1165.0	5.063276	-1.641684	5.47295	0.063812	-0.237965	0.62575	-0.439209	-0.026367	-0.879395
1166.0	6.185916	-1.486847	5.243417	0.280223	-0.511827	0.636917	-0.445801	-0.030762	-0.881592
1167.0	7.053521	-0.920186	5.56268	0.328102	-0.479322	0.646022	-0.445801	-0.028564	-0.881592
1168.0	7.52102	-0.559713	5.366049	0.292243	-0.376407	0.641287	-0.450439	-0.026367	-0.872314
1169.0	7.731357	-0.39411	5.235935	0.333969	-0.358783	0.648822	-0.448242	-0.021973	-0.872559
1170.0	8.259209	-0.330465	5.118872	0.403082	-0.393047	0.627645	-0.461426	-0.031006	-0.869873
1171.0	8.742139	-0.26583	4.69613	0.430652	-0.328728	0.595429	-0.457275	-0.026367	-0.870117
1172.0	9.122032	-0.319638	4.383128	0.459008	-0.183649	0.531422	-0.461426	-0.0354	-0.860352
1173.0	9.234514	-0.196721	4.091839	0.522775	-0.014914	0.481586	-0.463867	-0.028809	-0.865234
1174.0	9.119451	0.048296	3.907124	0.551464	0.155184	0.43659	-0.456543	-0.039795	-0.860352
1175.0	8.65078	0.142636	3.819614	0.548838	0.301494	0.394378	-0.459229	-0.033203	-0.867432
1176.0	8.128534	0.198382	3.812264	0.562085	0.368577	0.369052	-0.458984	-0.039795	-0.869629
1177.0	7.744868	0.174447	3.8011	0.583015	0.376929	0.346627	-0.45459	-0.037598	-0.869629
1178.0	7.593079	0.140944	3.892188	0.612736	0.38305	0.334157	-0.447266	-0.046387	-0.874023
1179.0	7.57888	0.107652	4.022499	0.645835	0.411535	0.312678	-0.447266	-0.046143	-0.878662
1180.0	7.66392	0.069481	4.112523	0.647137	0.479671	0.295954	-0.44458	-0.057373	-0.868896
1181.0	7.737568	0.008782	4.277624	0.666242	0.541663	0.291422	-0.440186	-0.054932	-0.880615
1182.0	7.89401	-0.031117	4.360483	0.689739	0.57324	0.272123	-0.435547	-0.061523	-0.880371
1183.0	7.910886	0.103368	4.479839	0.686347	0.593956	0.238379	-0.435303	-0.068359	-0.875488
1184.0	7.821597	0.264968	4.661554	0.674577	0.599169	0.1896	-0.428223	-0.077148	-0.884521
1185.0	7.818279	0.531895	4.98688	0.649399	0.56543	0.143756	-0.426025	-0.07251	-0.884521
1186.0	7.813128	0.910762	5.185057	0.570528	0.52527	0.100419	-0.420654	-0.092529	-0.888428
1187.0	7.891443	1.225503	5.223565	0.448375	0.491463	0.068619	-0.421143	-0.081299	-0.888916
1188.0	7.933028	1.567652	5.234595	0.370342	0.419285	0.042771	-0.411621	-0.094727	-0.881592
1189.0	7.939429	1.916082	5.370992	0.290684	0.29456	0.037222	-0.416504	-0.087891	-0.886475
1190.0	8.065395	2.091195	5.49709	0.175343	0.117165	0.034546	-0.414063	-0.092285	-0.893066
1191.0	8.439456	2.003231	5.307668	0.069647	-0.026335	0.036626	-0.418701	-0.087891	-0.893311
1192.0	8.720232	1.523551	5.11022	-0.032702	-0.084124	0.031326	-0.413818	-0.099121	-0.888184
1193.0	8.965658	0.803668	4.764376	-0.101801	-0.112525	0.005979	-0.41626	-0.092529	-0.883789
1194.0	9.398914	-0.046602	4.517469	-0.109387	-0.115814	-0.033435	-0.41626	-0.094727	-0.893066
1195.0	9.861734	-0.786514	4.409653	-0.097531	-0.067643	-0.075072	-0.418457	-0.090088	-0.893311
1196.0	10.386976	-1.374368	4.623731	-0.039041	-0.044447	-0.116053	-0.416016	-0.096924	-0.883789
1197.0	11.420942	-1.754893	6.501468	0.060276	0.002243	-0.152775	-0.418457	-0.090332	-0.881592
1198.0	12.730522	-1.167394	10.026482	0.093821	0.218911	-0.151696	-0.416016	-0.096924	-0.881348
1199.0	13.025228	1.234743	8.631911	-0.308782	0.154555	-0.023369	-0.411621	-0.094482	-0.888428
1200.0	12.706454	2.041343	7.538349	-0.347657	-0.12344	0.206247	-0.420654	-0.092529	-0.88623
1201.0	10.857397	3.713191	9.78594	-0.402158	-0.447463	0.343486	-0.42334	-0.08374	-0.886475
1202.0	10.789282	2.288059	8.06104	-1.03813	-0.85054	0.330553	-0.425781	-0.081543	-0.891357
1203.0	10.569106	0.208093	4.827188	-0.874208	-0.504906	0.225999	-0.435059	-0.072754	-0.882324
1204.0	8.511399	-0.126686	5.767444	-0.645055	-0.242221	0.097485	-0.435059	-0.074951	-0.879883
1205.0	7.429753	-0.950807	5.363179	-0.773289	-0.376269	-0.012992	-0.437988	-0.054932	-0.875977
1206.0	7.341272	-1.798384	4.430573	-0.584328	-0.348142	-0.074796	-0.435303	-0.066162	-0.875488
1207.0	6.8675	-1.285104	4.944295	-0.345748	-0.138225	-0.085568	-0.440186	-0.055176	-0.875977
1208.0	6.265305	-0.525162	5.41904	-0.312645	0.013235	-0.063249	-0.442383	-0.057373	-0.878174
1209.0	5.655533	0.332404	5.768111	-0.260281	0.096288	-0.027946	-0.442627	-0.052979	-0.878418
1210.0	5.402733	1.2484	6.283549	-0.36156	0.11685	-0.017657	-0.435791	-0.052734	-0.880615
1211.0	5.471316	1.505808	6.481553	-0.574774	0.102896	-0.016581	-0.445068	-0.046143	-0.880859
1212.0	5.840005	1.533857	6.761517	-0.655727	-0.034947	-0.014679	-0.440674	-0.046143	-0.874023
1213.0	6.810551	1.859282	7.191087	-0.672351	-0.32719	-0.000962	-0.447754	-0.035156	-0.881348
1214.0	8.013493	2.506658	7.283718	-0.740998	-0.578194	0.011483	-0.452393	-0.032959	-0.87915
1215.0	9.334398	3.129391	7.075212	-0.853656	-0.704337	-0.013318	-0.455078	-0.02417	-0.879395
1216.0	10.804838	3.5416	6.836743	-0.974767	-0.636274	-0.100446	-0.459717	-0.019775	-0.870361
1217.0	11.665977	3.791742	6.243063	-1.106133	-0.193147	-0.25271	-0.458008	-0.006592	-0.873047
1218.0	11.165984	3.878897	6.198642	-1.384899	0.480548	-0.493512	-0.453125	-0.013184	-0.872803
1219.0	9.969861	2.518687	5.929249	-1.635383	0.733704	-0.727998	-0.444824	0.002197	-0.882813
1220.0	8.563414	1.477399	5.686163	-1.674862	0.760469	-0.992936	-0.435791	0.002197	-0.882813
1221.0	7.459173	1.008846	5.815479	-1.615113	0.641359	-1.22391	-0.434326	0.02002	-0.887939
1222.0	7.298706	0.901516	5.796776	-1.544972	0.401809	-1.387479	-0.427246	0.013428	-0.883057
1223.0	7.370134	0.989926	5.898375	-1.539996	0.290383	-1.480702	-0.429932	0.026611	-0.897461
1224.0	7.332723	1.00966	5.801764	-1.613916	0.223342	-1.527253	-0.427734	0.026611	-0.892822
1225.0	7.286311	1.223068	5.612305	-1.621792	0.146646	-1.559491	-0.430664	0.039795	-0.886475
1226.0	7.277541	1.440363	5.840836	-1.698398	0.081482	-1.589941	-0.425781	0.033203	-0.893066
1227.0	7.125015	1.531916	5.704646	-1.841595	0.019596	-1.627473	-0.428711	0.048584	-0.891357
1228.0	7.107993	1.370818	5.469891	-1.990439	-0.117345	-1.675401	-0.426514	0.048584	-0.891357
1229.0	8.389037	1.975354	4.95272	-1.95331	-0.383696	-1.689432	-0.429443	0.066406	-0.88501
1230.0	8.825507	2.589418	4.834501	-2.206199	-0.170491	-1.683932	-0.431641	0.064209	-0.887451
1231.0	8.398276	2.386353	4.426978	-2.464124	-0.056722	-1.672007	-0.432617	0.090576	-0.890625
1232.0	8.480268	2.286004	4.242569	-2.508811	-0.08615	-1.667621	-0.432617	0.088379	-0.885986
1233.0	8.695721	2.064082	4.290981	-2.666538	0.020366	-1.666278	-0.433105	0.10376	-0.884277
1234.0	8.426237	1.589423	4.073682	-2.767818	0.130544	-1.661398	-0.429199	0.116943	-0.880127
1235.0	8.209707	1.280349	4.126046	-2.822385	0.133594	-1.674547	-0.432129	0.134766	-0.883057
1236.0	8.16871	0.967317	4.010061	-2.898774	0.112259	-1.689228	-0.43457	0.141357	-0.878662
1237.0	8.149307	0.656099	4.04806	-2.946019	0.084161	-1.708382	-0.43335	0.16333	-0.877197
1238.0	8.300089	0.383782	4.236052	-3.005442	0.034468	-1.736304	-0.437744	0.16333	-0.872559
1239.0	8.523565	0.056545	4.287728	-3.061892	0.037833	-1.771336	-0.440918	0.1875	-0.868652
1240.0	8.638947	-0.263383	4.427432	-3.087216	0.065676	-1.808124	-0.441406	0.198486	-0.855225
1241.0	8.851134	-0.575649	4.436255	-3.071913	0.048665	-1.84156	-0.444336	0.21167	-0.855713
1242.0	9.096471	-0.668465	4.537084	-3.021229	0.056705	-1.869452	-0.44458	0.218262	-0.853516
1243.0	9.253589	-0.740537	4.674301	-2.982701	0.090813	-1.896864	-0.445313	0.236084	-0.847168
1244.0	9.182966	-0.653376	4.763995	-2.94441	0.114968	-1.909845	-0.452148	0.242432	-0.842773
1245.0	8.983017	-0.563892	4.895284	-2.90036	0.114827	-1.895801	-0.454834	0.253418	-0.831787
1246.0	8.761817	-0.454596	4.908419	-2.867751	0.080864	-1.871443	-0.450928	0.264648	-0.832031
1247.0	8.604396	-0.54365	4.946306	-2.827816	0.016118	-1.819843	-0.467041	0.275391	-0.818604
1248.0	8.469532	-0.740844	4.991191	-2.772719	-0.059519	-1.759296	-0.462891	0.282227	-0.818848
1249.0	8.515867	-0.549602	4.984359	-2.650558	-0.140932	-1.710317	-0.472168	0.293213	-0.805176
1250.0	8.707263	0.118148	4.911038	-2.614839	-0.142339	-1.669349	-0.470215	0.297607	-0.800781
1251.0	8.538009	0.301039	4.829736	-2.656902	-0.092329	-1.634771	-0.477783	0.31958	-0.799316
1252.0	8.476413	0.593145	4.632191	-2.588821	-0.160489	-1.610551	-0.484619	0.317139	-0.785156
1253.0	8.775826	1.399896	4.550744	-2.53112	-0.175713	-1.598766	-0.487061	0.325928	-0.776367
1254.0	8.960972	1.510818	4.723178	-2.615088	-0.116429	-1.604423	-0.491943	0.33252	-0.771973
1255.0	8.943908	0.993846	4.459574	-2.671647	-0.109935	-1.610868	-0.503418	0.341309	-0.760498
1256.0	9.135563	0.629571	4.467708	-2.601304	-0.149119	-1.621037	-0.503906	0.352295	-0.758789
1257.0	9.325457	0.133425	4.565668	-2.609944	-0.124712	-1.618023	-0.512939	0.354492	-0.740234
1258.0	9.378416	-0.295844	4.52938	-2.538874	-0.104398	-1.619442	-0.515381	0.358887	-0.738037
1259.0	9.505725	-0.313234	4.747436	-2.395456	-0.090506	-1.616957	-0.522461	0.365479	-0.731201
1260.0	9.775379	-0.290992	4.907678	-2.32901	-0.025501	-1.62642	-0.518066	0.367676	-0.726807
1261.0	9.873022	-0.357147	5.12775	-2.273908	0.079304	-1.622437	-0.536377	0.376465	-0.715332
1262.0	9.831511	-0.574943	5.389782	-2.241491	0.157877	-1.62899	-0.527344	0.376465	-0.708496
1263.0	9.636175	-0.738953	5.544936	-2.16895	0.200086	-1.630567	-0.534424	0.383057	-0.704102
1264.0	9.514686	-0.750349	5.708857	-2.082923	0.206624	-1.630747	-0.536621	0.380859	-0.699463
1265.0	9.295373	-0.606688	5.902644	-2.027056	0.260022	-1.624527	-0.543457	0.383057	-0.685547
1266.0	8.936615	-0.408902	5.938824	-1.977127	0.312126	-1.613088	-0.545654	0.380615	-0.689941
1267.0	8.553627	-0.26983	6.041149	-1.963379	0.300297	-1.594486	-0.547852	0.382813	-0.67627
1268.0	8.386816	-0.318331	6.004786	-1.940515	0.296463	-1.585516	-0.547852	0.382813	-0.678467
1269.0	8.296866	-0.227945	6.117804	-1.909396	0.294377	-1.573325	-0.559082	0.382813	-0.664551
1270.0	8.210039	-0.164081	6.321383	-1.887408	0.275275	-1.567311	-0.55249	0.38501	-0.671631
1271.0	8.311435	-0.330354	6.570106	-1.866675	0.225697	-1.579118	-0.559326	0.387207	-0.660156
1272.0	8.643851	-0.736573	6.742963	-1.847116	0.181062	-1.613955	-0.563721	0.38501	-0.655273
1273.0	8.913112	-1.322134	6.789839	-1.838985	0.183447	-1.650361	-0.57251	0.378418	-0.645752
1274.0	8.97697	-1.807695	6.694397	-1.77434	0.148828	-1.690459	-0.567871	0.376221	-0.655029
1275.0	9.208791	-1.664491	6.515003	-1.698659	0.124778	-1.694032	-0.579346	0.382568	-0.643555
1276.0	9.299901	-1.077379	6.306531	-1.694587	0.157139	-1.686378	-0.579102	0.373779	-0.636475
1277.0	9.168118	-0.271833	5.922387	-1.743357	0.183932	-1.655946	-0.590332	0.371582	-0.629395
1278.0	9.001465	0.588528	5.789665	-1.791002	0.172549	-1.616064	-0.590088	0.369385	-0.633789
1279.0	8.879727	1.377152	5.605251	-1.899912	0.172917	-1.56299	-0.594727	0.371582	-0.622314
1280.0	8.921705	1.779564	5.324467	-2.066294	0.199728	-1.50452	-0.599365	0.373779	-0.620117
1281.0	8.911313	1.753126	4.937622	-2.220169	0.263836	-1.45258	-0.606201	0.375977	-0.606201
1282.0	8.833789	1.250713	4.649183	-2.379528	0.312605	-1.410582	-0.599365	0.375977	-0.608643
1283.0	8.814037	0.43517	4.580158	-2.48784	0.323184	-1.391052	-0.608643	0.382324	-0.592529
1284.0	8.676658	-0.174649	4.635568	-2.551797	0.340776	-1.376713	-0.604248	0.382568	-0.597168
1285.0	8.51557	-0.625258	4.810578	-2.611671	0.315597	-1.364268	-0.61084	0.380127	-0.580811
1286.0	8.374643	-0.88578	4.848406	-2.631569	0.255544	-1.374025	-0.613281	0.384521	-0.585693
1287.0	8.218083	-1.026711	4.925195	-2.651307	0.186135	-1.390921	-0.615723	0.386719	-0.571777
1288.0	8.228587	-1.207264	4.902604	-2.649819	0.116444	-1.411651	-0.61792	0.388916	-0.564941
1289.0	8.286226	-1.279039	4.893453	-2.603076	0.090816	-1.442521	-0.629395	0.393311	-0.553467
1290.0	8.31677	-1.297843	4.978158	-2.558443	0.101945	-1.469401	-0.63623	0.393311	-0.544189
1291.0	8.327314	-1.382134	4.95942	-2.556322	0.129484	-1.497544	-0.631592	0.391113	-0.532471
1292.0	8.408913	-1.516113	4.942042	-2.542934	0.184461	-1.529012	-0.63623	0.395508	-0.532715
1293.0	8.46438	-1.635489	5.005295	-2.515183	0.221547	-1.559444	-0.649658	0.390869	-0.518555
1294.0	8.493834	-1.605507	5.052586	-2.473389	0.240361	-1.589678	-0.649414	0.388672	-0.513916
1295.0	8.546417	-1.477786	5.122726	-2.450612	0.26236	-1.622018	-0.647217	0.388672	-0.506836
1296.0	8.499624	-1.123502	5.186058	-2.435529	0.258466	-1.643707	-0.651611	0.388672	-0.502197
1297.0	8.543467	-0.751795	5.265491	-2.431879	0.236087	-1.660702	-0.6604	0.379883	-0.499512
1298.0	8.613605	-0.383654	5.201737	-2.441955	0.218778	-1.664418	-0.660645	0.384277	-0.495117
1299.0	8.643635	-0.083302	5.123453	-2.442407	0.198962	-1.669699	-0.671387	0.373047	-0.485352
1300.0	8.555364	0.076787	5.002181	-2.448944	0.18251	-1.678301	-0.671631	0.377441	-0.480957
1301.0	8.619627	0.078362	4.933665	-2.437991	0.153455	-1.68386	-0.680176	0.37085	-0.466797
1302.0	8.662148	-0.066111	4.887731	-2.439293	0.164161	-1.689356	-0.677979	0.368652	-0.468994
1303.0	8.65186	-0.239897	4.872992	-2.427977	0.166872	-1.68738	-0.693115	0.357422	-0.459229
1304.0	8.774796	-0.422506	5.003155	-2.413085	0.158941	-1.680288	-0.691162	0.364014	-0.454834
1305.0	8.924925	-0.707272	5.05307	-2.422897	0.169774	-1.671495	-0.697266	0.348633	-0.440186
1306.0	9.052632	-1.063204	4.974249	-2.419023	0.178276	-1.651452	-0.699951	0.357422	-0.440674
1307.0	9.132262	-1.321681	5.084428	-2.393164	0.197393	-1.634243	-0.703857	0.344238	-0.433105
1308.0	9.110804	-1.566957	5.150762	-2.368012	0.216371	-1.615353	-0.710693	0.344238	-0.428467
1309.0	9.095023	-1.728636	5.233708	-2.297804	0.22884	-1.588689	-0.716797	0.326416	-0.430176
1310.0	9.002446	-1.695281	5.429703	-2.234361	0.239159	-1.563022	-0.710205	0.330811	-0.421143
1311.0	8.754459	-1.772134	5.495484	-2.178937	0.24664	-1.536863	-0.7146	0.326416	-0.420898
1312.0	8.474136	-1.78364	5.518485	-2.111987	0.230906	-1.507173	-0.721436	0.328613	-0.420898
1313.0	8.329397	-1.803969	5.618571	-2.029238	0.20052	-1.474942	-0.725342	0.317627	-0.404297
1314.0	8.296809	-1.700153	5.716135	-1.986462	0.190667	-1.446182	-0.723145	0.317627	-0.411377
1315.0	8.199526	-1.78829	5.80181	-1.946791	0.212229	-1.419613	-0.731445	0.299805	-0.406006
1316.0	8.093442	-1.765595	5.804693	-1.901163	0.210346	-1.393021	-0.736084	0.302002	-0.403809
1317.0	8.074109	-1.800541	5.811687	-1.835236	0.208317	-1.361406	-0.740234	0.29541	-0.403564
1318.0	7.976821	-1.829201	5.880879	-1.788507	0.208022	-1.33813	-0.737793	0.291016	-0.398682
1319.0	7.917643	-1.933646	5.954494	-1.728803	0.206737	-1.309072	-0.744141	0.282227	-0.384521
1320.0	7.894866	-2.039254	6.020363	-1.647074	0.194293	-1.272741	-0.741699	0.277832	-0.393555
1321.0	7.885674	-2.184479	6.022552	-1.572952	0.200578	-1.23405	-0.748291	0.273438	-0.397949
1322.0	7.880965	-2.300789	6.054256	-1.479669	0.202695	-1.196714	-0.748047	0.266602	-0.390869
1323.0	7.826194	-2.464407	6.05417	-1.386337	0.201281	-1.157326	-0.754639	0.262207	-0.388184
1324.0	7.706352	-2.617034	5.936901	-1.289559	0.207857	-1.113923	-0.752441	0.26001	-0.381348
1325.0	7.593887	-2.746948	5.874061	-1.171274	0.197098	-1.071436	-0.753906	0.244629	-0.387695
1326.0	7.49383	-2.790699	5.832734	-1.069078	0.169165	-1.026479	-0.759033	0.255615	-0.383301
1327.0	7.403655	-2.774853	5.781402	-0.966795	0.13756	-0.98181	-0.756104	0.240234	-0.387451
