Acquisition frequency: 100 Hz
PacketCounter	Acc_X	Acc_Y	Acc_Z	Gyr_X	Gyr_Y	Gyr_Z	Mag_X	Mag_Y	Mag_Z
0.0	5.786032	-0.92733	7.977058	-0.004936	0.005628	-0.007059	-0.522461	0.039795	0.00708
1.0	5.831915	-0.883229	8.003451	-0.00032	0.005207	-0.000167	-0.524902	0.050537	0.00708
2.0	5.830995	-0.907761	7.999774	-0.009852	0.002123	0.000965	-0.522461	0.044189	0.000488
3.0	5.872718	-0.879681	7.968381	-0.00135	0.003495	0.004038	-0.5271	0.04834	0.004883
4.0	5.777875	-0.836341	8.01539	-0.015569	0.002404	0.009965	-0.524902	0.046143	0.002686
5.0	5.807412	-0.933967	7.986558	-0.032127	-0.007366	0.009917	-0.5271	0.046143	0.011475
6.0	5.839037	-0.9597	7.969049	-0.024359	-0.003342	0.012048	-0.518311	0.043945	0.00708
7.0	5.799398	-0.8936	8.015939	-0.001478	0.005751	0.007882	-0.526855	0.043945	0.00708
8.0	5.797905	-0.943666	8.008154	-0.03244	-0.002165	0.009761	-0.520264	0.041992	0.004883
9.0	5.838055	-0.990002	7.964676	-0.025633	-0.00142	0.004405	-0.520508	0.04834	0.00708
10.0	5.817125	-0.917286	7.967143	-0.006768	0.008136	0.0079	-0.518311	0.044189	0.004883
11.0	5.779829	-0.908575	8.060093	-0.031216	-0.003408	0.009571	-0.522461	0.043945	0.004883
12.0	5.815121	-0.994623	7.954941	-0.03352	-0.003198	0.006131	-0.520264	0.041748	0.009277
13.0	5.806192	-0.975988	7.980962	-0.010037	0.005501	0.006744	-0.5271	0.04834	0.00708
14.0	5.815981	-0.950458	7.962556	-0.026237	-0.000597	0.009403	-0.522705	0.046143	0.002686
15.0	5.815303	-0.977066	7.95837	-0.027995	-8.9e-05	0.002898	-0.524658	0.043945	0.00708
16.0	5.805137	-1.006138	7.976603	-0.009843	0.002117	0.000981	-0.518311	0.043945	0.00708
17.0	5.792407	-0.977642	7.949114	-0.012824	0.004288	0.004446	-0.5271	0.046143	0.000488
18.0	5.813298	-1.029138	7.950571	-0.013913	0.003268	0.000802	-0.524658	0.043945	0.00708
19.0	5.814224	-0.981903	7.958562	-0.011247	0.006304	-0.002821	-0.520508	0.04834	0.004883
20.0	5.804317	-0.985696	7.981133	-0.00384	0.006656	-0.003401	-0.520508	0.046143	0.011475
21.0	5.826935	-0.963868	7.99464	-0.007363	0.008105	-0.006643	-0.524902	0.04834	0.004883
22.0	5.790116	-0.980889	7.950383	-0.013616	0.007643	-0.00434	-0.520752	0.050537	0.002686
23.0	5.799125	-0.977857	7.928379	-0.004863	0.004511	-0.008967	-0.524902	0.04834	0.000488
24.0	5.80332	-0.938601	7.990517	-0.006108	0.015751	-0.004291	-0.522705	0.04834	0.013672
25.0	5.811317	-0.959518	7.964874	-0.007779	0.005554	-0.007424	-0.522705	0.046143	0.00708
26.0	5.846329	-0.967298	8.005967	-0.009248	0.010866	-0.009299	-0.524902	0.04834	0.004883
27.0	5.743857	-1.059249	7.975868	-0.014997	0.002242	-0.002841	-0.524658	0.043945	0.004883
28.0	5.875598	-0.860206	7.956145	0.032603	0.027301	-0.013818	-0.520508	0.046143	0.004883
29.0	5.757506	-0.966523	8.024733	-0.0324	-0.003058	-0.00976	-0.520264	0.043945	0.009277
30.0	5.879245	-1.050096	7.902869	-0.011595	0.00262	-0.005523	-0.520508	0.04834	0.009277
31.0	5.776103	-0.935567	7.98482	0.032185	0.024755	-0.014593	-0.518311	0.04834	0.009277
32.0	5.789007	-0.915754	8.020948	-0.018135	-0.002646	-0.007856	-0.524902	0.04834	0.009277
33.0	5.814212	-1.026467	7.934451	-0.00953	0.006059	-0.013925	-0.524902	0.046143	0.004883
34.0	5.828518	-0.958625	7.978331	0.018677	0.012102	-0.010264	-0.520508	0.04834	0.004883
35.0	5.796603	-0.934534	7.995868	-0.000303	0.004779	-0.00992	-0.520508	0.04834	0.00708
36.0	5.795104	-0.982255	7.988249	-0.004306	0.0048	-0.012023	-0.520752	0.052734	0.000488
37.0	5.827826	-0.932054	7.983515	0.006302	0.008918	-0.00951	-0.520752	0.050537	0.002686
38.0	5.7722	-0.954492	7.983872	0.002967	0.00741	-0.008752	-0.524658	0.041992	0.004883
39.0	5.780848	-0.97432	7.957932	0.005722	-0.000258	-0.009002	-0.529053	0.043945	0.00708
40.0	5.802993	-0.975164	7.967583	0.008972	0.011952	-0.013123	-0.524658	0.041992	0.004883
41.0	5.858809	-0.902155	7.976103	0.014213	0.001122	-0.005931	-0.524658	0.041992	0.000488
42.0	5.803537	-0.924235	7.976245	0.004737	0.006471	-0.012012	-0.520508	0.046143	0.00708
43.0	5.833854	-0.970165	7.955822	0.002968	0.007407	-0.00875	-0.529297	0.046143	0.004883
44.0	5.824415	-0.948366	7.982553	0.01201	0.009083	-0.008739	-0.518311	0.046143	0.00708
45.0	5.815495	-0.90243	8.013251	0.005754	0.008617	-0.006444	-0.526855	0.041748	0.009277
46.0	5.81439	-0.926106	8.009752	-0.00147	0.005307	-0.001874	-0.522461	0.041992	0.000488
47.0	5.809391	-0.965067	7.94838	0.003289	0.002202	-0.008595	-0.518066	0.041992	0.000488
48.0	5.831531	-0.966214	7.958006	0.007457	0.008806	-0.00778	-0.524658	0.043945	0.00708
49.0	5.8308	-0.965173	7.958667	0.007873	0.011354	-0.006995	-0.524902	0.04834	0.004883
50.0	5.811605	-0.946622	8.007849	0.012429	0.011628	-0.007948	-0.522705	0.04834	0.00708
51.0	5.798345	-0.915695	7.981004	0.011946	0.010206	-0.006809	-0.524658	0.041748	0.00708
52.0	5.827892	-0.985433	7.956929	0.00976	0.008594	-0.004333	-0.518311	0.046143	0.004883
53.0	5.795279	-0.985543	7.970536	0.014316	0.008868	-0.005285	-0.524658	0.041748	0.00708
54.0	5.808195	-0.965008	8.006677	0.02573	0.009208	-0.003743	-0.522461	0.041992	0.002686
55.0	5.817384	-0.934885	7.989267	0.029442	0.013948	-0.011545	-0.526855	0.043945	0.009277
56.0	5.849748	-0.883007	7.984892	0.017908	0.006296	-0.003955	-0.524658	0.043945	0.004883
57.0	5.783655	-0.956638	7.999648	0.011648	0.005832	-0.001668	-0.522705	0.046143	0.00708
58.0	5.815022	-0.953785	7.987298	0.017064	0.01076	-0.010808	-0.515869	0.041992	0.002686
59.0	5.814705	-0.927501	7.992078	0.024338	0.013373	-0.007525	-0.522705	0.046143	0.00708
60.0	5.805109	-0.904998	8.018891	0.01172	0.004701	-0.003584	-0.520508	0.044189	0.002686
61.0	5.813634	-0.92433	7.993224	0.016764	0.006393	-0.005668	-0.522461	0.043945	0.015869
62.0	5.799715	-0.941506	7.958265	0.016944	0.00345	-0.00167	-0.522461	0.043945	0.011475
63.0	5.822249	-0.917484	7.972018	0.02048	0.011124	-0.013468	-0.5271	0.046143	0.009277
64.0	5.822518	-0.866942	7.980613	0.02501	0.011842	-0.004653	-0.518066	0.041992	0.00708
65.0	5.831344	-0.862047	7.959023	0.0065	0.005946	-0.005493	-0.518311	0.044189	-0.001465
66.0	5.842018	-0.9388	7.979593	0.004367	0.012768	-0.010232	-0.522461	0.039795	0.004883
67.0	5.832666	-0.892691	8.010379	0.01523	0.012817	-0.005617	-0.522461	0.044189	0.002686
68.0	5.809324	-0.889565	8.001827	0.005696	0.009725	-0.004511	-0.520264	0.041992	0.004883
69.0	5.80865	-0.888994	8.002379	5.8e-05	0.008425	-0.00721	-0.524658	0.043945	0.00708
70.0	5.826502	-0.905889	7.954553	0.001764	0.008611	-0.008542	-0.524658	0.039795	0.000488
71.0	5.806829	-0.911885	7.999598	0.004548	0.009825	-0.006232	-0.520508	0.043945	0.004883
72.0	5.838575	-0.885753	7.991157	0.00218	0.011158	-0.007757	-0.522705	0.046143	0.004883
73.0	5.814952	-0.907447	7.97849	-0.00206	0.005688	-0.006658	-0.524902	0.046143	0.00708
74.0	5.823331	-0.927778	7.952891	-0.000117	0.011359	-0.011202	-0.520264	0.041748	0.011475
75.0	5.791067	-0.904505	7.970306	-0.000674	0.011071	-0.008145	-0.522461	0.041748	0.009277
76.0	5.812845	-0.906054	7.980183	-0.002235	0.008623	-0.010651	-0.518311	0.044189	0.002686
77.0	5.857154	-0.909516	7.999353	-0.000601	0.009939	-0.010063	-0.524902	0.046143	0.00708
78.0	5.811546	-0.904974	7.981252	0.00062	0.008708	-0.010259	-0.529297	0.04834	0.004883
79.0	5.820315	-0.901034	7.959633	-0.002482	0.012687	-0.012723	-0.524658	0.043945	0.00708
80.0	5.800523	-0.907138	8.004711	0.001769	0.008606	-0.008534	-0.520264	0.039795	0.000732
81.0	5.799818	-0.906603	8.005282	-0.002966	0.011267	-0.011586	-0.524658	0.041748	0.009277
82.0	5.840996	-0.877281	7.97468	-0.001332	0.012583	-0.010997	-0.518311	0.046143	0.009277
83.0	5.798161	-0.905694	8.006585	-0.002304	0.009748	-0.008726	-0.522461	0.043945	0.004883
84.0	5.80699	-0.902127	7.98489	-0.00401	0.00956	-0.007394	-0.522461	0.043945	0.004883
85.0	5.819132	-0.907333	8.017048	-0.004744	0.012207	-0.008331	-0.526855	0.043945	0.004883
86.0	5.796367	-0.881265	8.012135	-0.00801	0.009572	-0.009507	-0.524902	0.050293	0.011475
87.0	5.81327	-0.947051	7.956592	-0.009716	0.009384	-0.008175	-0.520508	0.046143	0.00708
88.0	5.82666	-0.9042	7.996257	-0.002054	0.005681	-0.00665	-0.522461	0.039795	0.002686
89.0	5.813136	-0.898767	7.965133	-0.006375	0.010887	-0.008915	-0.524902	0.046143	0.009277
90.0	5.825272	-0.903972	7.997294	-0.003521	0.010974	-0.008522	-0.522461	0.041992	0.004883
91.0	5.779056	-0.923954	7.975333	-0.004667	0.011073	-0.010244	-0.524902	0.04834	0.002686
92.0	5.801318	-0.901578	7.989073	-0.003932	0.008425	-0.009306	-0.522705	0.046143	0.004883
93.0	5.778201	-0.899149	7.980244	0.002262	0.010019	-0.009654	-0.524658	0.041992	0.002686
94.0	5.813298	-0.881622	8.025669	0.001042	0.011247	-0.009456	-0.522461	0.039795	0.004883
95.0	5.808586	-0.896247	7.968736	0.003237	0.012851	-0.011918	-0.5271	0.046143	0.004883
96.0	5.776751	-0.848682	7.989951	0.001777	0.0086	-0.008519	-0.522461	0.041992	0.00708
97.0	5.820345	-0.900319	8.001293	-0.004752	0.003327	-0.010877	-0.524658	0.044189	0.000488
98.0	5.797481	-0.897951	7.992266	0.005213	0.008303	-0.00335	-0.518066	0.039795	0.00708
99.0	5.819778	-0.874949	8.006045	0.006339	0.008875	-0.009453	-0.520264	0.041992	0.004883
100.0	5.819372	-0.874303	8.006411	-0.002461	0.003129	-0.007432	-0.522461	0.041992	0.00708
101.0	5.805619	-0.89287	7.971277	-0.003928	0.008419	-0.009302	-0.526855	0.041992	0.004883
102.0	5.827535	-0.894633	7.981065	-0.002125	0.006805	-0.004725	-0.52002	0.037598	0.00708
103.0	5.772	-0.917825	7.981148	-2.3e-05	0.01021	-0.01309	-0.526855	0.039795	0.00708
104.0	5.816369	-0.921085	8.000367	0.000805	0.005764	-0.00625	-0.520264	0.041992	0.00708
105.0	5.803065	-0.915254	7.969139	0.003658	0.005853	-0.005856	-0.52002	0.037598	0.011475
106.0	5.803289	-0.866053	7.977463	0.008949	0.013024	-0.01112	-0.522461	0.039795	0.004883
107.0	5.796215	-0.877052	8.054182	0.002268	0.010011	-0.009643	-0.526855	0.044189	0.002686
108.0	5.801512	-0.888677	7.974735	-0.002535	0.004256	-0.005511	-0.513916	0.043945	0.011475
109.0	5.791489	-0.891466	7.997335	0.005199	0.00897	-0.011166	-0.5271	0.04834	0.000488
110.0	5.791303	-0.866308	8.001761	0.007488	0.008774	-0.007721	-0.522461	0.043945	0.00708
111.0	5.835849	-0.869436	8.020879	-9.1e-05	0.001798	-0.005903	-0.524658	0.041992	0.004883
112.0	5.84454	-0.889773	7.995188	-0.002949	0.011242	-0.01156	-0.520508	0.046143	0.004883
113.0	5.798281	-0.909437	7.973286	0.005456	0.013775	-0.006538	-0.5271	0.04834	0.004883
114.0	5.811187	-0.865684	8.013289	0.004637	0.008682	-0.008112	-0.520264	0.043945	0.009277
115.0	5.820634	-0.837723	7.995402	-0.003267	0.006896	-0.006444	-0.520508	0.046143	0.00708
116.0	5.796035	-0.932173	7.97091	-0.004898	0.005577	-0.007035	-0.520508	0.046143	0.00708
117.0	5.799565	-0.892098	8.032921	0.006757	0.011415	-0.008649	-0.5271	0.046143	0.009277
118.0	5.818428	-0.86039	7.992997	0.001785	0.008589	-0.008504	-0.518066	0.041992	0.00708
119.0	5.817449	-0.883798	7.989626	0.001864	0.007457	-0.010422	-0.522461	0.044189	0.000488
120.0	5.807721	-0.86238	8.016158	0.001786	0.008588	-0.008503	-0.524902	0.04834	0.004883
121.0	5.793738	-0.880786	7.981259	-0.00351	0.01095	-0.008506	-0.529053	0.041992	0.002686
122.0	5.805939	-0.885798	8.01337	0.000731	0.006888	-0.004323	-0.520508	0.043945	0.004883
123.0	5.79309	-0.856101	7.985945	-0.000821	0.004438	-0.006833	-0.529053	0.041992	0.004883
124.0	5.791881	-0.904085	7.978545	-0.004407	0.006987	-0.008163	-0.522705	0.046143	0.009277
125.0	5.801282	-0.876274	7.960678	0.001708	0.009717	-0.006581	-0.5271	0.046143	0.004883
126.0	5.791075	-0.879355	7.983349	-0.000979	0.006699	-0.002996	-0.518066	0.041748	0.009277
127.0	5.822514	-0.877422	7.971063	-8e-06	0.010192	-0.013071	-0.526855	0.043945	0.00708
128.0	5.799306	-0.874748	7.962286	0.00505	0.011223	-0.007312	-0.520264	0.039795	0.00708
129.0	5.801924	-0.882674	8.016623	0.003665	0.005847	-0.005842	-0.526855	0.043945	0.004883
130.0	5.821019	-0.851473	7.9765	-0.004484	0.008115	-0.006243	-0.518066	0.041992	0.00708
131.0	5.810426	-0.878963	7.995267	-0.004484	0.008114	-0.006242	-0.524658	0.041992	0.004883
132.0	5.831862	-0.904415	8.001347	0.007496	0.008769	-0.007701	-0.522461	0.041992	0.002686
133.0	5.744989	-0.880749	8.021887	0.000488	0.01094	-0.00638	-0.518066	0.041992	0.00708
134.0	5.808526	-0.877125	7.99685	0.002606	0.00481	-0.009479	-0.522461	0.043945	0.004883
135.0	5.817028	-0.897	7.971431	0.00595	0.01518	-0.007645	-0.524902	0.046143	0.00708
136.0	5.819742	-0.88066	8.02983	0.004645	0.008674	-0.008095	-0.520264	0.041992	0.004883
137.0	5.806311	-0.874871	7.998706	-0.003912	0.008393	-0.009287	-0.522461	0.041992	0.000488
138.0	5.814513	-0.919103	7.969364	0.005135	0.010087	-0.009221	-0.518311	0.046387	0.000488
139.0	5.78281	-0.847327	7.994327	0.006766	0.011406	-0.008626	-0.522461	0.041748	0.009277
140.0	5.801008	-0.86386	7.946686	0.000164	0.007259	-0.009083	-0.520264	0.041992	0.004883
141.0	5.803329	-0.896065	7.99707	0.000165	0.007258	-0.009083	-0.52002	0.0354	0.000732
142.0	5.835555	-0.845523	7.992537	0.008641	0.008671	-0.005969	-0.522461	0.041748	0.009277
143.0	5.802553	-0.870385	8.001921	0.001306	0.007163	-0.00736	-0.526855	0.039795	0.000488
144.0	5.80143	-0.894015	7.998677	-0.002523	0.01376	-0.01075	-0.518311	0.046143	0.002686
145.0	5.823155	-0.895222	8.008719	0.004242	0.006125	-0.008877	-0.524902	0.046143	0.002686
146.0	5.800566	-0.868423	8.003575	0.00465	0.008669	-0.008086	-0.524658	0.039795	0.009277
147.0	5.809115	-0.88819	7.978185	0.005629	0.011495	-0.01034	-0.516113	0.043945	0.009277
148.0	5.808645	-0.86314	7.982732	0.003917	0.011307	-0.009016	-0.522461	0.039795	0.00708
149.0	5.830545	-0.839984	7.996777	0.005548	0.012626	-0.00842	-0.524658	0.039795	0.002686
150.0	5.774821	-0.863145	7.996881	0.000493	0.010929	-0.00637	-0.524414	0.0354	0.002686
151.0	5.786632	-0.867589	8.029312	0.00425	0.015636	-0.014115	-0.526855	0.039795	0.00708
152.0	5.827472	-0.861732	7.995174	0.001801	0.00857	-0.008481	-0.520264	0.039551	0.011475
153.0	5.794789	-0.862662	8.008381	0.001801	0.00857	-0.00848	-0.522461	0.041992	0.002686
154.0	5.816835	-0.839638	8.022298	0.002782	0.011395	-0.010732	-0.520264	0.039795	0.002686
155.0	5.79375	-0.837336	8.013345	-0.003254	0.006873	-0.006432	-0.522461	0.043945	0.00708
156.0	5.824559	-0.883865	7.993427	-0.003987	0.009509	-0.007362	-0.518066	0.039795	0.009277
157.0	5.791679	-0.885021	8.00674	0.00156	0.012618	-0.010533	-0.526855	0.039795	0.004883
158.0	5.790917	-0.884225	8.007379	0.002378	0.008848	-0.011518	-0.522461	0.041992	0.004883
159.0	5.822437	-0.881945	7.995185	0.001313	0.007154	-0.00735	-0.520264	0.039551	0.013672
160.0	5.809461	-0.827934	7.971897	-0.001533	0.016568	-0.012987	-0.518066	0.039795	0.00708
161.0	5.789008	-0.858426	8.013016	0.000248	0.005461	-0.003181	-0.526855	0.043945	0.00708
162.0	5.820429	-0.856247	8.000892	0.001001	0.012986	-0.015291	-0.52002	0.037598	0.013672
163.0	5.829914	-0.803985	7.987067	-0.001132	0.0096	-0.006957	-0.520264	0.039795	0.000732
164.0	5.796352	-0.877845	7.988606	-0.007732	0.00545	-0.007427	-0.524658	0.041992	0.004883
165.0	5.796127	-0.85367	7.992843	-0.002269	0.009691	-0.008677	-0.522461	0.039795	0.00708
166.0	5.795679	-0.829411	7.997249	-0.002931	0.010543	-0.003718	-0.526611	0.037598	0.002686
167.0	5.794734	-0.853672	7.993853	-0.010091	0.006763	-0.008952	-0.526611	0.037598	0.000732
168.0	5.816321	-0.879823	7.999869	-0.007325	0.007992	-0.006632	-0.524414	0.037598	0.004883
169.0	5.793514	-0.853809	7.994723	-0.000639	0.01101	-0.008076	-0.522217	0.037598	0.004883
170.0	5.815274	-0.855341	8.004737	-0.003249	0.006865	-0.006425	-0.520264	0.041992	0.002686
171.0	5.782937	-0.832796	8.021624	-0.004472	0.008088	-0.006229	-0.524414	0.037598	0.002686
172.0	5.823864	-0.851805	7.983389	-0.003248	0.006864	-0.006424	-0.524658	0.044189	0.000488
173.0	5.791127	-0.853266	7.99651	-0.003489	0.010911	-0.008475	-0.522461	0.041992	0.000488
174.0	5.803214	-0.858528	8.028637	-0.007814	0.006576	-0.005506	-0.520508	0.044189	0.002686
175.0	5.789615	-0.877621	7.993514	-0.006831	0.009399	-0.007752	-0.524658	0.044189	0.002686
176.0	5.789365	-0.853453	7.997766	-0.002023	0.00564	-0.006617	-0.52002	0.037598	0.00708
177.0	5.801884	-0.834554	8.033647	-0.007321	0.007986	-0.006628	-0.526855	0.041992	0.002686
178.0	5.810755	-0.855375	8.008014	-0.007234	0.006854	-0.008544	-0.522461	0.041748	0.009277
179.0	5.81023	-0.855512	8.00838	-0.008457	0.008076	-0.008347	-0.524658	0.041992	0.000488
180.0	5.796941	-0.85059	7.977092	-0.010171	0.007885	-0.007028	-0.520264	0.039795	0.004883
181.0	5.809131	-0.856168	8.009107	-0.007811	0.006572	-0.005502	-0.524658	0.039795	0.00708
182.0	5.818348	-0.853141	7.987268	-0.009526	0.006381	-0.004183	-0.522461	0.041748	0.009277
183.0	5.785505	-0.879304	7.996305	-0.010082	0.006752	-0.008942	-0.524902	0.046143	0.004883
184.0	5.785257	-0.855446	8.000525	-0.007318	0.007982	-0.006622	-0.522705	0.046143	0.009277
185.0	5.797484	-0.860984	8.032513	-0.008301	0.005158	-0.004377	-0.524658	0.041992	0.004883
186.0	5.816085	-0.878657	7.984694	-0.010256	0.009012	-0.005106	-0.518311	0.046143	0.004883
187.0	5.806024	-0.858367	8.011124	-0.007317	0.007981	-0.006619	-0.522461	0.043945	0.00708
188.0	5.828217	-0.836349	8.024856	-0.009435	0.005246	-0.006096	-0.520264	0.043945	0.009277
189.0	5.795375	-0.862643	8.033857	-0.010747	0.007598	-0.003981	-0.524658	0.043945	0.009277
190.0	5.813951	-0.88034	7.986062	-0.011301	0.007969	-0.008739	-0.520264	0.041992	0.004883
191.0	5.803881	-0.86017	8.012484	-0.007984	0.008828	-0.00166	-0.52002	0.037598	0.00708
192.0	5.813074	-0.857376	7.990654	-0.016267	0.005132	-0.008618	-0.522461	0.043945	0.00708
193.0	5.812872	-0.833775	7.994826	-0.007314	0.007978	-0.006614	-0.524658	0.044189	0.002686
194.0	5.792467	-0.865181	8.03568	-0.012118	0.011729	-0.007741	-0.520508	0.044189	0.000488
195.0	5.798534	-0.853386	7.960188	-0.008939	0.006654	-0.007211	-0.522461	0.044189	0.002686
196.0	5.800989	-0.862685	8.014307	-0.013593	0.00749	-0.004377	-0.520264	0.039795	0.000732
197.0	5.810238	-0.859715	7.992465	-0.007714	0.005433	-0.007407	-0.524658	0.041748	0.00708
198.0	5.800003	-0.863439	8.01494	-0.010803	0.009375	-0.009851	-0.513672	0.039795	0.00708
199.0	5.799044	-0.91204	8.007422	-0.008787	0.003737	-0.003248	-0.524658	0.043945	0.00708
200.0	5.796154	-0.855223	7.961723	-0.006147	0.008539	-0.012682	-0.518066	0.041992	0.00708
201.0	5.808112	-0.884456	7.989856	-0.004864	0.005534	-0.007002	-0.524658	0.043945	0.00708
202.0	5.795136	-0.854926	7.962497	-0.00112	0.009591	-0.006922	-0.522705	0.046143	0.002686
203.0	5.797433	-0.863423	8.016801	-0.002745	0.008268	-0.007521	-0.518066	0.039795	0.004883
204.0	5.797183	-0.839313	8.021066	-0.007711	0.005429	-0.007403	-0.520508	0.044189	0.002686
205.0	5.828526	-0.86162	8.004998	-0.00112	0.00959	-0.006919	-0.522461	0.043945	0.011475
206.0	5.818441	-0.840902	8.031471	-0.008351	0.00693	-0.010241	-0.522461	0.041992	0.002686
207.0	5.805314	-0.836139	8.000069	-0.014081	0.006067	-0.003252	-0.524658	0.041748	0.00708
208.0	5.804668	-0.861021	7.99637	-0.008876	0.004861	-0.001328	-0.522461	0.041748	0.009277
209.0	5.794781	-0.840963	8.022628	-0.006027	0.004965	-0.000926	-0.526855	0.043945	0.004883
210.0	5.80392	-0.862389	7.996766	-0.01742	0.004548	-0.002533	-0.524658	0.039795	0.00708
211.0	5.783811	-0.894296	8.037282	-0.005534	0.006377	-0.002043	-0.520264	0.039795	0.002686
212.0	5.825397	-0.865161	8.006894	-0.003818	0.006571	-0.00336	-0.522461	0.039795	0.002686
213.0	5.792556	-0.891326	8.015822	-0.00725	0.006183	-0.000725	-0.520508	0.046143	0.004883
214.0	5.802071	-0.864096	7.997923	-0.003178	0.005068	-0.000522	-0.520508	0.044189	0.002686
215.0	5.824019	-0.866131	8.007791	-0.007798	0.006555	-0.00548	-0.522461	0.039795	0.004883
216.0	5.778256	-0.910837	7.981157	0.000655	0.007998	-0.002355	-0.526855	0.041992	0.004883
217.0	5.832379	-0.886563	7.982609	-0.001608	0.008176	-0.005793	-0.524658	0.043945	0.00708
218.0	5.787261	-0.85847	7.967842	0.006443	0.007078	-0.003468	-0.520508	0.043945	0.004883
219.0	5.78957	-0.866509	8.022148	0.006936	0.00849	-0.004585	-0.520264	0.039795	0.002686
220.0	5.821011	-0.888278	8.006101	0.000347	0.004326	-0.005072	-0.515869	0.037598	0.00708
221.0	5.807807	-0.906714	7.970774	0.000839	0.005738	-0.00619	-0.520264	0.039795	0.00708
222.0	5.7978	-0.86106	8.001347	0.014111	0.012936	-0.00713	-0.524414	0.037598	0.011475
223.0	5.806906	-0.856509	7.979821	0.003195	0.00443	-0.004669	-0.522461	0.041748	0.009277
224.0	5.828934	-0.857892	7.989711	-0.002008	0.005632	-0.006592	-0.522461	0.039795	0.00708
225.0	5.805914	-0.879507	7.976583	0.014496	0.005979	-0.001137	-0.528809	0.039795	0.00708
226.0	5.795768	-0.857848	8.003164	0.0063	0.009988	-0.007418	-0.520508	0.04834	0.00708
227.0	5.807931	-0.862642	8.03525	-0.002993	0.002807	-0.004358	-0.520264	0.041992	0.000488
228.0	5.804597	-0.853391	7.981834	0.007431	0.009899	-0.005697	-0.520264	0.039795	0.002686
229.0	5.803907	-0.852519	7.982429	0.006939	0.008487	-0.004579	-0.522217	0.0354	0.011475
230.0	5.825817	-0.853803	7.992422	-0.001368	0.004129	-0.003755	-0.520264	0.043945	0.00708
231.0	5.82531	-0.853378	7.992837	0.002322	0.009969	-0.009538	-0.522461	0.039795	0.004883
232.0	5.814577	-0.880205	8.011666	0.005078	0.011203	-0.007216	-0.518066	0.041992	0.00708
233.0	5.801733	-0.826239	7.988301	0.000256	0.005452	-0.003152	-0.520264	0.039795	0.004883
234.0	5.791112	-0.853489	8.007	-0.000124	0.012403	-0.00914	-0.522461	0.041992	0.004883
235.0	5.800223	-0.849496	7.985429	-0.000287	0.005821	-0.007905	-0.53125	0.041748	0.00708
236.0	5.821955	-0.874848	7.991506	0.001337	0.007144	-0.007302	-0.524658	0.041992	0.004883
237.0	5.799395	-0.824445	7.990185	0.001244	0.008273	-0.005384	-0.526855	0.039795	0.002686
238.0	5.788887	-0.852011	8.008766	-0.006663	0.006456	-0.003763	-0.524658	0.041992	0.004883
239.0	5.797896	-0.896794	7.979108	-0.000237	0.00404	-0.002034	-0.520264	0.041992	0.004883
240.0	5.810403	-0.853488	8.019032	0.001832	0.008554	-0.008416	-0.524658	0.044189	0.002686
241.0	5.797219	-0.871905	7.983739	-0.000142	0.00291	-0.003951	-0.522461	0.041992	0.00708
242.0	5.819161	-0.84923	7.997756	-0.000216	0.013528	-0.007218	-0.518066	0.037598	0.004883
243.0	5.786248	-0.850554	8.010828	0.00134	0.007142	-0.007298	-0.522461	0.041992	0.004883
244.0	5.795063	-0.894704	7.9814	0.00174	0.009682	-0.006496	-0.518066	0.039795	0.000732
245.0	5.807324	-0.851086	8.021518	0.005812	0.008571	-0.006288	-0.520264	0.039795	0.004883
246.0	5.806748	-0.850409	8.022007	0.00247	0.007053	-0.005578	-0.520264	0.041992	0.004883
247.0	5.81565	-0.870241	7.996598	0.001059	0.012956	-0.015196	-0.524414	0.037598	0.004883
248.0	5.814947	-0.845246	8.001243	0.005083	0.011197	-0.007203	-0.526855	0.041748	0.00708
249.0	5.782231	-0.822333	8.018197	0.001247	0.008269	-0.005378	-0.522461	0.041748	0.009277
250.0	5.768781	-0.865024	7.979067	-0.004353	0.006924	-0.008108	-0.518066	0.041992	0.004883
251.0	5.810349	-0.811183	7.952912	0.001012	0.012306	-0.007409	-0.524658	0.041748	0.011475
252.0	5.824823	-0.848972	8.035087	-0.002094	0.00675	-0.004668	-0.520264	0.037598	0.002686
253.0	5.7894	-0.841909	7.994081	-0.004352	0.006923	-0.008106	-0.524658	0.043945	0.004883
254.0	5.821112	-0.815896	7.986011	-0.000567	0.009203	-0.002146	-0.520264	0.039551	0.011475
255.0	5.800812	-0.822959	8.030683	-0.0068	0.009354	-0.00771	-0.520264	0.039795	0.00708
256.0	5.787774	-0.841955	7.995254	-0.006233	0.000151	-0.005565	-0.524658	0.041992	0.002686
257.0	5.777699	-0.845787	8.0175	-0.007885	0.007663	-0.003563	-0.526855	0.041748	0.009277
258.0	5.819184	-0.840847	7.983297	-0.008283	0.005122	-0.004365	-0.522461	0.041992	0.004883
259.0	5.786656	-0.843184	7.995934	-0.01113	0.005014	-0.004772	-0.524658	0.041748	0.00708
260.0	5.808456	-0.86955	8.0019	-0.010634	0.006424	-0.005885	-0.52002	0.0354	0.004883
261.0	5.785584	-0.868298	7.992567	-0.010139	0.007833	-0.006998	-0.522461	0.041992	0.004883
262.0	5.807419	-0.846427	8.006584	-0.012587	0.010263	-0.0066	-0.520264	0.039795	0.009277
263.0	5.784345	-0.845071	7.997406	-0.009052	0.009523	-0.01114	-0.524658	0.044189	0.000488
264.0	5.806175	-0.84692	8.007434	-0.005434	0.005228	-0.003955	-0.522217	0.037598	0.00708
265.0	5.815444	-0.819583	7.989762	-0.011596	0.013081	-0.008823	-0.518066	0.041748	0.011475
266.0	5.81462	-0.820051	7.990313	-0.010233	0.008958	-0.005076	-0.520264	0.039551	0.011475
267.0	5.813827	-0.84487	7.986775	-0.015925	0.008738	-0.005888	-0.524658	0.041992	0.004883
268.0	5.803408	-0.849421	8.009174	-0.015292	0.00724	-0.003056	-0.520264	0.039795	0.004883
269.0	5.802797	-0.850314	8.009523	-0.011951	0.00876	-0.00376	-0.520264	0.041992	0.004883
270.0	5.779838	-0.849496	8.000196	-0.016418	0.007324	-0.004772	-0.524658	0.041748	0.00708
271.0	5.801566	-0.876495	8.00614	-0.017505	0.00563	-0.000628	-0.518066	0.041992	0.004883
272.0	5.788626	-0.871994	7.974617	-0.00543	0.005226	-0.003949	-0.522705	0.04834	0.011475
273.0	5.778359	-0.852	8.000997	-0.015425	0.010143	-0.006992	-0.520264	0.039795	0.009277
274.0	5.799851	-0.902562	8.003108	-0.009499	0.006328	-0.004154	-0.52002	0.037598	0.00708
275.0	5.819154	-0.871718	7.963258	-0.006653	0.006438	-0.003747	-0.520264	0.041992	0.00708
276.0	5.808907	-0.851375	7.989663	-0.003312	0.00796	-0.004452	-0.518066	0.041748	0.009277
277.0	5.798488	-0.855068	8.012137	-0.007284	0.007935	-0.006576	-0.520264	0.041992	0.00708
278.0	5.807698	-0.851835	7.990493	-0.011352	0.009036	-0.006781	-0.518066	0.041748	0.011475
279.0	5.797175	-0.855753	8.013014	-0.002284	0.009001	-0.000814	-0.526855	0.043945	0.00708
280.0	5.796746	-0.831939	8.017355	-0.008273	0.005111	-0.004352	-0.520264	0.041992	0.004883
281.0	5.805885	-0.877036	7.98763	-0.010721	0.007538	-0.00395	-0.524658	0.041992	0.002686
282.0	5.795479	-0.857083	8.014098	-0.007478	0.010187	-0.002736	-0.518311	0.046143	0.004883
283.0	5.804684	-0.853966	7.992456	-0.00837	0.006237	-0.002432	-0.524658	0.043945	0.009277
284.0	5.804163	-0.85465	7.992761	-0.012439	0.007338	-0.002637	-0.518311	0.043945	0.009277
285.0	5.803533	-0.87942	7.989076	-0.00837	0.006236	-0.002431	-0.522461	0.043945	0.00708
286.0	5.80306	-0.879943	7.989362	-0.009494	0.006322	-0.004148	-0.522461	0.044189	0.002686
287.0	5.790081	-0.874944	7.957935	-0.00268	0.00646	-0.001617	-0.522461	0.041992	0.004883
288.0	5.792279	-0.883935	8.012044	-0.002581	0.005334	-0.003535	-0.522705	0.046143	0.009277
289.0	5.811586	-0.876812	7.968224	-0.005425	0.005221	-0.003942	-0.520508	0.043945	0.004883
290.0	5.778898	-0.854433	7.985024	0.003372	0.011004	-0.00585	-0.52002	0.037598	0.00708
291.0	5.832661	-0.878065	7.978899	-0.003804	0.006545	-0.003334	-0.522461	0.044189	-0.001465
292.0	5.800073	-0.831817	7.999664	-0.001688	0.009281	-0.003835	-0.520264	0.043945	0.00708
293.0	5.799365	-0.831836	8.000176	-0.003407	0.009082	-0.002524	-0.524658	0.044189	0.002686
294.0	5.798727	-0.880382	7.992459	-0.008136	0.002199	-0.000411	-0.516113	0.043945	0.009277
295.0	5.820611	-0.858064	8.00656	0.00215	0.012215	-0.005645	-0.524902	0.046143	0.002686
296.0	5.79771	-0.832139	8.001344	-0.003175	0.005047	-0.000505	-0.522461	0.039795	0.002686
297.0	5.797234	-0.880729	7.993505	-0.00926	0.002284	-0.002129	-0.522461	0.039551	0.011475
298.0	5.806657	-0.877264	7.971767	3.4e-05	0.009479	-0.005143	-0.52002	0.0354	0.004883
299.0	5.796119	-0.856348	7.998414	0.003375	0.011002	-0.005844	-0.522461	0.041992	-0.001465
300.0	5.805418	-0.828499	7.980873	-0.005523	0.006344	-0.002021	-0.520264	0.041748	0.009277
301.0	5.794823	-0.880455	7.995282	-0.003306	0.007954	-0.00444	-0.520264	0.039795	0.00708
302.0	5.784487	-0.859852	8.021739	0.001886	0.006769	-0.002516	-0.517822	0.037598	0.013672
303.0	5.816182	-0.857828	8.009803	-0.004925	0.006628	-0.005048	-0.518066	0.037598	0.00708
304.0	5.803185	-0.852552	7.978432	-0.004428	0.008038	-0.006156	-0.520264	0.043945	0.011475
305.0	5.792728	-0.88016	7.996833	0.000266	0.005444	-0.003124	-0.524658	0.039795	0.009277
306.0	5.814544	-0.857781	8.010998	-0.006876	0.01046	-0.005752	-0.520264	0.037598	0.002686
307.0	5.823641	-0.878238	7.985466	-0.001584	0.008151	-0.005747	-0.526855	0.041748	0.00708
308.0	5.813162	-0.881661	8.007956	-0.001583	0.00815	-0.005747	-0.524658	0.039795	0.00708
309.0	5.777677	-0.874341	7.967011	0.001657	0.010801	-0.004527	-0.52002	0.037598	0.00708
310.0	5.811768	-0.857025	8.013092	-0.003929	0.009446	-0.007262	-0.522461	0.039795	0.002686
311.0	5.798557	-0.875675	7.977836	-0.003929	0.009445	-0.007261	-0.529053	0.039795	0.002686
312.0	5.820414	-0.853118	7.991994	-0.001978	0.005612	-0.006556	-0.518066	0.041992	0.004883
313.0	5.787473	-0.830781	8.008893	-0.00264	0.015928	-0.006744	-0.520264	0.039551	0.013672
314.0	5.796524	-0.875313	7.979353	-0.005815	0.002676	-0.004749	-0.524658	0.039795	0.00708
315.0	5.808644	-0.856651	8.015397	-0.004425	0.008033	-0.006151	-0.524902	0.046143	0.002686
316.0	5.785722	-0.854865	8.006097	-0.000459	0.008063	-0.004025	-0.522461	0.039795	0.004883
317.0	5.807407	-0.832591	8.020352	-0.007471	0.010169	-0.002721	-0.526611	0.0354	0.009277
318.0	5.816599	-0.853407	7.994741	-0.006642	0.006422	-0.003734	-0.520264	0.043945	0.009277
319.0	5.793762	-0.827957	7.989395	-0.007368	0.009042	-0.004639	-0.522461	0.039795	0.004883
320.0	5.793066	-0.852521	7.985786	-0.008465	0.007347	-0.000506	-0.518311	0.046143	0.004883
321.0	5.805013	-0.858487	8.017831	-0.011103	0.00498	-0.004752	-0.524658	0.043945	0.004883
322.0	5.78228	-0.857261	8.008327	-0.007762	0.006505	-0.005449	-0.515869	0.041748	0.009277
323.0	5.804071	-0.85942	8.018413	-0.009586	0.00743	-0.002221	-0.520508	0.043945	0.004883
324.0	5.813442	-0.880367	7.992659	-0.008259	0.005094	-0.004342	-0.520264	0.039795	0.00708
325.0	5.812971	-0.880889	7.992945	-0.009585	0.007428	-0.002219	-0.520508	0.04834	0.004883
326.0	5.802434	-0.860797	8.01945	-0.004025	0.010566	-0.00533	-0.520264	0.043945	0.00708
327.0	5.789237	-0.879907	7.984136	-0.010808	0.008637	-0.002016	-0.526855	0.043945	0.004883
328.0	5.811076	-0.85799	7.998266	-0.005415	0.005209	-0.003932	-0.522461	0.044189	0.002686
329.0	5.778259	-0.860304	8.010903	-0.005226	0.009993	0.000722	-0.524902	0.046143	0.009277
330.0	5.787585	-0.857177	7.98926	-0.009978	0.004891	-0.003031	-0.522461	0.041748	0.009277
331.0	5.764803	-0.856014	7.979776	-0.007861	0.007627	-0.003525	-0.524658	0.039795	0.002686
332.0	5.796387	-0.878326	7.963905	-0.002177	0.00786	-0.002707	-0.52002	0.037598	0.004883
333.0	5.776003	-0.861607	8.012389	-0.003297	0.007944	-0.004423	-0.520264	0.041992	-0.001465
334.0	5.807534	-0.88387	7.996567	-0.005122	0.008867	-0.001195	-0.524658	0.039795	0.004883
335.0	5.797069	-0.863578	8.02303	-0.004313	0.006904	-0.008059	-0.524658	0.043945	0.009277
336.0	5.79401	-0.878462	7.965619	0.000666	0.007975	-0.002296	-0.522705	0.046143	0.004883
337.0	5.815953	-0.855979	7.97975	-0.000725	0.002619	-0.000902	-0.520264	0.041992	0.00708
338.0	5.793248	-0.854301	7.970259	-0.003296	0.007943	-0.004422	-0.524658	0.041748	0.00708
339.0	5.815012	-0.856149	7.980417	-0.005516	0.00633	-0.002009	-0.524658	0.039795	0.004883
340.0	5.814523	-0.856254	7.980762	-0.003192	0.006818	-0.006341	-0.520264	0.039795	0.004883
341.0	5.794227	-0.863668	8.025073	-0.004292	0.005121	-0.002212	-0.522461	0.039795	0.009277
342.0	5.793647	-0.887907	8.021397	-0.005638	0.009235	-0.005933	-0.522461	0.043945	0.011475
343.0	5.790559	-0.854994	7.972139	-0.00736	0.009032	-0.004625	-0.524658	0.041748	0.00708
344.0	5.802586	-0.860414	8.004167	0.001722	0.000202	-0.001307	-0.520264	0.041992	0.004883
345.0	5.802087	-0.860312	8.00454	-0.005864	0.013263	-0.007936	-0.518066	0.037598	0.004883
346.0	5.801346	-0.860479	8.005059	-0.005515	0.006328	-0.002007	-0.520264	0.041992	0.004883
347.0	5.800773	-0.884827	8.001367	-0.005016	0.007738	-0.00311	-0.522461	0.043945	0.009277
348.0	5.81012	-0.881356	7.97978	-0.005016	0.007738	-0.00311	-0.518066	0.041992	0.002686
349.0	5.787235	-0.879892	7.970385	-0.006135	0.007821	-0.004826	-0.522705	0.046143	0.002686
350.0	5.808851	-0.881564	7.98068	-0.004533	0.010928	-0.010056	-0.524658	0.044189	0.000488
351.0	5.800701	-0.870206	8.06098	-0.002673	0.006444	-0.001595	-0.524658	0.043945	0.009277
352.0	5.80998	-0.866261	8.039498	0.002269	0.01108	-0.007518	-0.524658	0.044189	0.002686
353.0	5.78458	-0.855418	7.976433	-0.007856	0.007617	-0.003518	-0.524658	0.041992	0.000488
354.0	5.786345	-0.912749	8.022505	-0.001569	0.00814	-0.005721	-0.520508	0.043945	0.004883
355.0	5.81791	-0.862172	8.019015	0.004507	0.010911	-0.004082	-0.522461	0.041748	0.013672
356.0	5.772605	-0.858533	7.999946	-0.003291	0.007937	-0.004414	-0.520264	0.039795	0.004883
357.0	5.826554	-0.858284	7.998003	-0.006132	0.007818	-0.004824	-0.524658	0.039795	0.004883
358.0	5.781208	-0.854697	7.978954	0.005007	0.012321	-0.005182	-0.518311	0.043945	0.011475
359.0	5.792837	-0.85976	8.011296	-0.007144	0.006777	-0.00846	-0.524658	0.043945	0.00708
360.0	5.802245	-0.88029	7.985625	-0.002778	0.007565	0.000327	-0.518066	0.039795	0.011475
361.0	5.801462	-0.832166	7.994335	-0.003015	0.013372	-0.007514	-0.522461	0.039795	0.004883
362.0	5.790887	-0.884022	8.008614	-0.004682	0.002581	-0.003026	-0.518311	0.044189	0.004883
363.0	5.77823	-0.878798	7.977036	-0.004907	0.006608	-0.005025	-0.524658	0.043945	0.009277
364.0	5.799818	-0.880261	7.987391	0.00105	0.012283	-0.007305	-0.520264	0.041748	0.009277
365.0	5.799073	-0.880107	7.987949	-0.007247	0.007897	-0.006537	-0.520508	0.046143	0.009277
366.0	5.798326	-0.903807	7.984464	0.003381	0.012772	-0.01163	-0.518066	0.041992	0.000488
367.0	5.799968	-0.864215	8.046944	-0.004299	0.006892	-0.008046	-0.522461	0.041992	0.004883
368.0	5.774697	-0.877061	7.979786	0.002882	0.011361	-0.010526	-0.522461	0.041992	0.004883
369.0	5.808242	-0.835018	8.030413	0.006509	0.016547	-0.008475	-0.526855	0.041748	0.00708
370.0	5.763036	-0.855625	8.007153	-0.011978	0.001011	-0.004464	-0.520264	0.039795	0.009277
371.0	5.827121	-0.851547	7.983205	0.003393	0.010991	-0.005786	-0.524658	0.039795	0.00708
372.0	5.774129	-0.860699	8.039864	-0.001671	0.009257	-0.003791	-0.515869	0.041992	0.00708
373.0	5.80364	-0.849698	7.974258	-0.008637	0.00254	-0.005153	-0.524658	0.043945	0.00708
374.0	5.803228	-0.897786	7.966445	0.002893	0.00958	-0.004683	-0.520264	0.041992	0.00708
375.0	5.772744	-0.860707	8.040858	-0.005904	0.003783	-0.002821	-0.522461	0.041992	0.002686
376.0	5.814472	-0.879036	8.003087	-0.003402	0.01083	-0.008323	-0.522461	0.041992	0.00708
377.0	5.791589	-0.876967	7.993722	0.003725	0.005841	-0.005705	-0.528809	0.039551	0.009277
378.0	5.780971	-0.856093	8.020255	-0.001677	0.011033	-0.009626	-0.524902	0.046143	0.00708
379.0	5.790287	-0.876122	7.994758	-0.002678	0.008213	-0.007425	-0.524658	0.043945	0.004883
380.0	5.809674	-0.868352	7.951303	0.000163	0.008334	-0.007012	-0.522461	0.044189	0.000488
381.0	5.789109	-0.851253	7.99975	0.000271	0.007211	-0.008931	-0.524658	0.043945	0.004883
382.0	5.788447	-0.850676	8.00029	0.00228	0.01107	-0.007494	-0.518066	0.037598	0.00708
383.0	5.787931	-0.874483	7.996643	-0.005293	0.004066	-0.005841	-0.524658	0.043945	0.004883
384.0	5.819739	-0.848247	7.988939	-0.003791	0.008293	-0.009139	-0.518066	0.041748	0.013672
385.0	5.774431	-0.868735	7.965751	-0.000168	0.013479	-0.007083	-0.522461	0.041748	0.009277
386.0	5.79596	-0.845882	7.980247	-0.000227	0.0058	-0.007829	-0.522461	0.041748	0.009277
387.0	5.785456	-0.849187	8.002612	0.000165	0.008332	-0.007008	-0.522461	0.044189	0.002686
388.0	5.817132	-0.846874	7.990983	-0.0044	0.008005	-0.006117	-0.520264	0.041992	0.004883
389.0	5.806585	-0.874565	8.009301	-0.003789	0.00829	-0.009136	-0.522461	0.039795	0.004883
390.0	5.783625	-0.848597	8.003998	-0.001059	0.009535	-0.006802	-0.524658	0.041748	0.00708
391.0	5.805243	-0.874088	8.010325	-0.003898	0.009412	-0.007214	-0.526855	0.039795	0.004883
392.0	5.782332	-0.872194	8.000943	-0.000948	0.008411	-0.00872	-0.520264	0.039795	0.004883
393.0	5.771667	-0.851435	8.027448	-0.000947	0.008411	-0.00872	-0.520264	0.043945	0.011475
394.0	5.781044	-0.871442	8.001955	-0.00451	0.0109	-0.010027	-0.518311	0.04834	0.009277
395.0	5.800346	-0.863675	7.958619	-0.004399	0.009776	-0.011946	-0.522461	0.041748	0.009277
396.0	5.801892	-0.87256	8.01292	-0.003896	0.009409	-0.007211	-0.522461	0.043945	0.00708
397.0	5.778874	-0.846655	8.007634	-0.003284	0.009694	-0.010228	-0.520264	0.041992	0.004883
398.0	5.778243	-0.84648	8.008108	-0.006624	0.008161	-0.009543	-0.524658	0.041992	0.004883
399.0	5.800054	-0.872194	8.014289	-0.007124	0.006751	-0.008445	-0.522461	0.039795	0.009277
400.0	5.789412	-0.876088	8.036663	-0.009071	0.010567	-0.009133	-0.522461	0.041992	0.002686
401.0	5.808809	-0.844495	7.997287	-0.001947	0.005591	-0.006518	-0.520264	0.039795	0.004883
402.0	5.8082	-0.820357	8.001768	-0.007846	0.009362	-0.009336	-0.522461	0.041992	0.004883
403.0	5.797686	-0.848371	8.020008	-0.009961	0.006624	-0.008856	-0.520264	0.039795	0.004883
404.0	5.787199	-0.852533	8.042235	-0.010574	0.006337	-0.005839	-0.520264	0.039795	0.00708
405.0	5.806883	-0.869472	7.994556	-0.008847	0.006542	-0.007139	-0.520508	0.043945	0.004883
406.0	5.773963	-0.8239	8.015073	-0.010573	0.006336	-0.005837	-0.520264	0.039795	0.00708
407.0	5.783614	-0.868881	7.985276	-0.013021	0.008741	-0.005426	-0.522461	0.039795	0.009277
408.0	5.795228	-0.874941	8.017481	-0.010684	0.007457	-0.003915	-0.520264	0.039795	0.004883
409.0	5.782461	-0.84611	7.99001	-0.011073	0.004925	-0.004739	-0.524902	0.046143	0.004883
410.0	5.804452	-0.872505	7.99599	-0.011686	0.004638	-0.001722	-0.522461	0.039795	0.004883
411.0	5.781891	-0.895735	7.982175	-0.013408	0.006207	-0.006246	-0.520264	0.039795	0.004883
412.0	5.77141	-0.876175	8.00839	-0.010461	0.003434	-0.001926	-0.524658	0.043945	0.004883
413.0	5.793208	-0.854342	8.02261	-0.009457	0.006252	-0.004116	-0.516113	0.043945	0.015869
414.0	5.802926	-0.87519	7.996805	-0.008847	0.004762	-0.001305	-0.520264	0.039795	0.004883
415.0	5.78035	-0.874051	7.987074	-0.005896	0.003767	-0.002812	-0.520264	0.041992	0.004883
416.0	5.801884	-0.852183	8.001497	-0.01274	0.012388	-0.002671	-0.520264	0.043945	0.00708
417.0	5.811568	-0.89735	7.971635	-0.012072	0.002103	-0.002543	-0.522217	0.037598	0.00708
418.0	5.778703	-0.875894	7.988064	-0.004001	0.010524	-0.00527	-0.520264	0.041992	0.00708
419.0	5.812366	-0.858967	8.03444	-0.006116	0.007786	-0.004794	-0.524414	0.0354	0.000732
420.0	5.777403	-0.852406	7.992999	-0.013403	0.006202	-0.00624	-0.524902	0.04834	0.004883
421.0	5.789404	-0.906506	8.016806	-0.00823	0.005047	-0.004318	-0.522461	0.041992	0.004883
422.0	5.809023	-0.874811	7.977377	-0.000214	0.005798	-0.007807	-0.518066	0.041992	0.002686
423.0	5.798223	-0.8544	8.003914	-0.006335	0.011804	-0.006774	-0.522461	0.041992	0.00708
424.0	5.807653	-0.850735	7.982434	-0.007613	0.005333	-0.007332	-0.518311	0.04834	0.011475
425.0	5.829424	-0.876396	7.988651	-0.001163	0.010649	-0.004851	-0.518066	0.037598	0.004883
426.0	5.78609	-0.834265	8.031378	-0.005612	0.009192	-0.005884	-0.520264	0.041992	0.004883
427.0	5.805969	-0.875159	7.979562	-0.011567	0.003506	-0.003636	-0.522461	0.043945	0.00708
428.0	5.78548	-0.883103	8.023624	-0.003163	0.006789	-0.006296	-0.5271	0.046143	0.00708
429.0	5.805127	-0.87566	7.980119	-0.009452	0.006244	-0.004108	-0.526855	0.041992	0.004883
430.0	5.794608	-0.880104	8.002295	-0.012288	0.006114	-0.004521	-0.520264	0.041748	0.009277
431.0	5.80429	-0.876374	7.980649	0.003233	0.004437	-0.004581	-0.522461	0.043945	0.009277
432.0	5.80576	-0.885366	8.034904	-0.008049	0.013368	-0.011288	-0.518311	0.043945	0.009277
433.0	5.802949	-0.852033	7.985715	-0.002941	0.002769	-0.004314	-0.520264	0.041992	0.000488
434.0	5.802762	-0.899982	7.977751	-0.002156	0.009606	-0.008479	-0.520508	0.043945	0.004883
435.0	5.769692	-0.877994	7.994345	-0.005494	0.008067	-0.007799	-0.522461	0.043945	0.009277
436.0	5.801233	-0.851538	7.987015	-0.001046	0.009526	-0.006763	-0.520264	0.039551	0.011475
437.0	5.790603	-0.879327	8.005279	-0.006718	0.009266	-0.007591	-0.522461	0.043945	0.00708
438.0	5.789965	-0.879274	8.005746	-0.001548	0.008116	-0.005669	-0.518311	0.044189	0.000488
439.0	5.799389	-0.87529	7.984331	-0.001663	0.009236	-0.003748	-0.522705	0.046143	0.00708
440.0	5.788666	-0.879087	8.006706	-0.004383	0.007985	-0.006083	-0.520508	0.043945	0.004883
441.0	5.798064	-0.875241	7.985298	-0.006213	0.010673	-0.008681	-0.522217	0.037598	0.00708
442.0	5.787342	-0.879036	8.007669	-0.000941	0.006626	-0.002861	-0.522461	0.039795	0.004883
443.0	5.796681	-0.851042	7.990372	-0.002771	0.009314	-0.00546	-0.524658	0.041992	0.002686
444.0	5.763865	-0.877309	7.998622	-0.004382	0.007984	-0.006081	-0.524658	0.041992	0.000488
445.0	5.795746	-0.899104	7.982949	-0.004381	0.007983	-0.00608	-0.522705	0.046143	0.004883
446.0	5.807048	-0.856273	8.023543	0.000787	0.006835	-0.004159	-0.520264	0.037598	0.002686
447.0	5.806604	-0.880114	8.019835	-0.006094	0.009549	-0.010599	-0.518066	0.041992	0.000488
448.0	5.771606	-0.872919	7.97848	-0.003761	0.00827	-0.009091	-0.520264	0.041992	-0.001465
449.0	5.80534	-0.903672	8.016755	-0.002368	0.013616	-0.010443	-0.522705	0.046143	0.009277
450.0	5.792301	-0.873704	7.989648	0.0003	0.007201	-0.008882	-0.524658	0.039551	0.011475
451.0	5.791754	-0.873221	7.990097	-0.000924	0.0084	-0.008674	-0.526855	0.041748	0.00708
452.0	5.780732	-0.85256	8.016752	0.002181	0.01218	-0.005507	-0.522461	0.041992	0.000488
453.0	5.757751	-0.850734	8.007344	-0.005486	0.008057	-0.00779	-0.522461	0.043945	0.00708
454.0	5.779614	-0.876299	8.013548	-0.004261	0.006858	-0.007997	-0.518066	0.041992	0.002686
455.0	5.811256	-0.873681	8.002173	-0.002248	0.012492	-0.012358	-0.5271	0.04834	0.000488
456.0	5.778002	-0.851446	8.018839	0.001292	0.008241	-0.005244	-0.515869	0.039795	0.00708
457.0	5.787228	-0.82322	8.00166	-0.003371	0.010793	-0.008255	-0.520508	0.044189	0.002686
458.0	5.786995	-0.871218	7.993763	-0.004763	0.005447	-0.006905	-0.522705	0.046143	0.002686
459.0	5.786468	-0.87115	7.994152	-0.00498	0.009462	-0.008877	-0.524658	0.043945	0.00708
460.0	5.785355	-0.822676	8.00307	0.0023	0.011057	-0.00742	-0.518066	0.039795	0.004883
461.0	5.774785	-0.850548	8.021251	-0.01055	0.0063	-0.005815	-0.520264	0.043945	0.009277
462.0	5.794824	-0.891212	7.969521	-0.007814	0.009327	-0.009291	-0.522461	0.041992	0.002686
463.0	5.805966	-0.848541	8.010167	0.000168	0.006543	-0.001139	-0.520264	0.043945	0.009277
464.0	5.783211	-0.847143	8.00054	-0.010045	0.007707	-0.006903	-0.520264	0.039551	0.011475
465.0	5.805262	-0.873154	8.006581	-0.008602	0.002495	-0.00514	-0.522461	0.041992	0.004883
466.0	5.792513	-0.844066	7.979171	-0.009659	0.010234	-0.00607	-0.520264	0.039795	0.002686
467.0	5.793872	-0.85386	8.033319	-0.009442	0.006219	-0.004099	-0.520264	0.041992	0.00708
468.0	5.813852	-0.870657	7.985666	-0.010547	0.006296	-0.005811	-0.518311	0.046143	0.009277
469.0	5.781001	-0.873449	7.997856	-0.007831	0.007549	-0.003473	-0.518311	0.044189	0.002686
470.0	5.802402	-0.851539	8.012431	-0.01189	0.008611	-0.00368	-0.520508	0.043945	0.004883
471.0	5.781314	-0.83654	8.060689	-0.022743	0.007706	-0.00062	-0.524902	0.046143	0.004883
472.0	5.811561	-0.874756	7.986886	-0.029877	0.006761	-0.009806	-0.520264	0.041992	0.00708
473.0	5.811069	-0.900347	7.983018	-0.018395	0.012062	-0.003462	-0.520264	0.043945	0.009277
474.0	5.7674	-0.859611	8.025597	-0.01472	0.008472	-0.004088	-0.522461	0.039795	0.00708
475.0	5.809524	-0.87879	7.987925	-0.027661	0.006599	-0.006373	-0.524658	0.039795	0.002686
476.0	5.798567	-0.859901	8.014314	-0.011381	0.010014	-0.004756	-0.520264	0.041992	0.004883
477.0	5.799393	-0.822224	8.076888	-0.019279	0.008119	-0.003201	-0.526855	0.039795	0.004883
478.0	5.852714	-0.751201	8.08799	-0.029024	0.007127	0.001574	-0.518311	0.043945	0.00708
479.0	5.811395	-0.721913	8.183851	-0.044576	0.001097	0.000844	-0.524902	0.046143	0.00708
480.0	5.941582	-0.485957	8.231639	-0.055106	-0.024957	0.012059	-0.518311	0.046143	0.009277
481.0	5.982836	-0.484	8.441481	-0.156771	-0.015782	0.043048	-0.522461	0.043945	0.004883
482.0	6.171071	-0.48127	8.204224	-0.152968	0.014583	0.065893	-0.520508	0.04834	0.000488
483.0	5.881844	-0.608066	8.107385	-0.18128	0.056989	0.090014	-0.522705	0.04834	0.00708
484.0	5.847195	-0.922458	8.067461	-0.269514	0.028592	0.1003	-0.518555	0.050537	0.000488
485.0	5.862765	-1.119089	7.934768	-0.153694	0.046403	0.093971	-0.520508	0.046143	0.002686
486.0	6.685218	-0.956607	8.574893	-0.166884	0.035695	0.130617	-0.516113	0.046143	0.00708
487.0	7.034725	-0.276528	8.39041	-0.225366	0.160046	0.191942	-0.520752	0.050537	0.004883
488.0	5.93301	-0.273333	8.479807	-0.151906	0.351998	0.258952	-0.523193	0.061279	0.009277
489.0	5.805596	-0.471853	8.391926	-0.522973	0.266052	0.293845	-0.516602	0.059082	0.002686
490.0	5.850129	-1.268105	7.931923	-0.711928	0.219289	0.295545	-0.516602	0.059326	-0.001709
491.0	5.764386	-1.548112	7.673397	-0.441409	0.333639	0.241735	-0.519287	0.070068	-0.001709
492.0	5.728767	-1.180077	8.133301	-0.176476	0.438014	0.249411	-0.516846	0.065674	-0.001709
493.0	5.598959	-1.052547	8.333351	-0.323678	0.343836	0.246662	-0.512939	0.074463	-0.008301
494.0	6.034155	-1.404196	8.098811	-0.551392	0.295174	0.260668	-0.508545	0.074463	-0.008301
495.0	5.195146	-2.155504	7.803666	-0.445742	0.41582	0.223035	-0.504395	0.078857	-0.010498
496.0	6.599334	-1.503628	7.896558	-0.197582	0.377391	0.20568	-0.508789	0.080811	-0.006104
497.0	4.795403	-2.009957	7.937231	-0.163802	0.508161	0.232521	-0.504395	0.083008	-0.010498
498.0	5.940199	-1.929538	8.034266	-0.354351	0.284573	0.217381	-0.500244	0.087402	-0.014648
499.0	5.328289	-2.1002	7.629836	-0.082233	0.486877	0.160595	-0.502441	0.083252	-0.019043
500.0	5.246006	-1.736713	8.110951	0.083888	0.47134	0.114742	-0.498047	0.085205	-0.014648
501.0	5.385149	-1.657761	8.080242	-0.088721	0.432691	0.100531	-0.498291	0.0896	-0.016846
502.0	5.194184	-1.91046	7.96204	-0.101597	0.417341	0.069329	-0.496094	0.0896	-0.023438
503.0	4.976313	-1.849004	7.925884	0.02342	0.448159	0.01927	-0.493896	0.0896	-0.016846
504.0	4.89619	-1.687655	8.129233	0.056598	0.409584	0.005416	-0.489502	0.089844	-0.030029
505.0	4.887964	-1.617844	8.176102	-0.024163	0.345932	-0.013693	-0.487305	0.087646	-0.030029
506.0	4.853397	-1.645665	8.095425	-0.017471	0.319803	-0.037006	-0.493896	0.087891	-0.038574
507.0	4.926672	-1.399777	8.250942	0.062477	0.308109	-0.058599	-0.487305	0.085693	-0.03418
508.0	4.774093	-1.292744	8.271639	0.025319	0.278089	-0.060628	-0.489502	0.087891	-0.036377
509.0	4.516158	-1.461055	8.163223	-0.059538	0.21342	-0.070576	-0.489502	0.085693	-0.03418
510.0	4.606246	-1.692256	8.17869	-0.085671	0.157242	-0.078275	-0.485107	0.087891	-0.036377
511.0	4.588917	-1.719797	8.088062	-0.011627	0.14122	-0.084487	-0.491699	0.085693	-0.036377
512.0	4.44161	-1.507461	8.292613	0.077947	0.1361	-0.110313	-0.485107	0.083496	-0.038574
513.0	5.178977	-1.059182	8.4334	-0.002703	0.068943	-0.096576	-0.48291	0.083496	-0.042969
514.0	4.552193	-1.90444	8.18791	-0.19435	0.012125	-0.104291	-0.48291	0.083496	-0.040771
515.0	4.849778	-1.97727	7.940172	-0.039058	0.013301	-0.102672	-0.476318	0.085693	-0.040771
516.0	4.708487	-1.683635	8.214832	0.081633	0.026134	-0.111764	-0.485107	0.083496	-0.036377
517.0	4.531795	-1.500905	8.122803	0.029365	-0.020572	-0.1185	-0.487061	0.081299	-0.038574
518.0	4.374704	-1.611487	8.083373	-0.01226	-0.093488	-0.120787	-0.482666	0.079346	-0.040771
519.0	4.525862	-1.690296	8.110913	-0.013606	-0.149417	-0.116649	-0.489014	0.074951	-0.038574
520.0	4.836073	-1.739312	8.11707	-0.018371	-0.203483	-0.120371	-0.487061	0.079102	-0.038574
521.0	4.879122	-1.792904	8.04922	0.066011	-0.210084	-0.123031	-0.484863	0.081299	-0.03418
522.0	5.09266	-1.529338	8.153314	0.116283	-0.232682	-0.13866	-0.486816	0.076904	-0.036377
523.0	4.863556	-1.538298	8.136255	0.083547	-0.255624	-0.158478	-0.489014	0.076904	-0.027588
524.0	4.802401	-1.669035	8.097015	0.056342	-0.315698	-0.181802	-0.491211	0.074707	-0.029785
525.0	5.026306	-1.74991	8.167888	0.043997	-0.366426	-0.202243	-0.493164	0.070313	-0.025391
526.0	5.398841	-1.837338	8.1711	0.066937	-0.391943	-0.223949	-0.493408	0.074707	-0.025635
527.0	5.383738	-1.968974	8.058634	0.155183	-0.386645	-0.276551	-0.495117	0.066162	-0.023193
528.0	5.434239	-1.88036	8.34628	0.264928	-0.388171	-0.323604	-0.499756	0.070313	-0.025391
529.0	5.523332	-1.887234	8.544102	0.258039	-0.388516	-0.381121	-0.503906	0.065918	-0.019043
530.0	4.98007	-2.394378	8.706303	0.21796	-0.425069	-0.470469	-0.499512	0.063721	-0.014648
531.0	4.783137	-2.972589	9.34193	0.269316	-0.485761	-0.572885	-0.503418	0.052979	-0.010254
532.0	4.624877	-3.665273	9.875211	0.345058	-0.583535	-0.677284	-0.505371	0.048584	-0.010254
533.0	3.830968	-4.251603	9.95898	0.721196	-0.726147	-0.800277	-0.509277	0.039795	-0.001465
534.0	3.814626	-3.287073	11.031152	1.378793	-0.942308	-0.924043	-0.513428	0.03125	-0.001465
535.0	0.709627	-4.8877	14.104697	0.8638	-0.691825	-0.791699	-0.517578	0.024902	-0.003662
536.0	1.440882	-2.914171	16.178011	2.010585	-0.512832	-1.246818	-0.519287	0.013916	0.005127
537.0	6.377099	1.68832	15.546786	1.335507	-0.472531	-1.048406	-0.516602	0.003418	-0.005615
538.0	-2.331805	-3.942711	16.110213	-1.758695	-0.365066	-0.844446	-0.512451	0.009766	-0.001465
539.0	-0.563804	-9.489101	11.103358	-1.821338	-1.163761	-0.783999	-0.519043	0.009766	0.005127
540.0	-0.10444	-9.129798	10.8611	0.873146	-0.096198	-0.576603	-0.516846	0.005371	-0.003662
541.0	-2.381239	-4.45748	14.469446	1.419807	0.131258	-0.293626	-0.518799	0.001221	-0.007813
542.0	-2.987364	-3.323497	14.153358	-0.173571	-0.196879	0.104298	-0.514648	0.007813	-0.012207
543.0	-4.333831	-5.499291	12.020769	-0.804826	-0.219436	0.437144	-0.512939	0.016357	-0.016602
544.0	-5.394889	-5.393213	11.281461	-0.169868	-0.046546	0.646015	-0.510986	0.022949	-0.020996
545.0	-5.565405	-3.284694	12.097967	-0.017378	-0.044041	0.77586	-0.505127	0.03833	-0.042725
546.0	-4.314663	-1.906829	13.013517	-0.466275	-0.129414	0.892193	-0.500977	0.046875	-0.042725
547.0	-2.542079	-2.239111	13.307669	-0.993979	-0.089318	0.982108	-0.49292	0.062012	-0.049316
548.0	-0.967059	-3.018756	13.075148	-0.924189	0.210287	1.031841	-0.482666	0.07959	-0.06665
549.0	0.04373	-2.736069	13.075585	-0.449866	0.663876	1.044055	-0.457275	0.094727	-0.06665
550.0	0.659744	-1.800967	13.137701	-0.259436	0.985941	1.025932	-0.438232	0.10791	-0.084229
551.0	1.789158	-1.490921	12.783688	-0.336064	1.216437	0.981352	-0.416992	0.12085	-0.082031
552.0	2.441768	-1.850867	12.064142	-0.326721	1.459202	0.924323	-0.391357	0.133789	-0.077637
553.0	2.60131	-1.921734	11.298606	-0.152284	1.652956	0.831802	-0.370117	0.151123	-0.075439
554.0	2.808231	-1.874302	10.872937	-0.082899	1.735407	0.73092	-0.337891	0.159912	-0.071289
555.0	3.164265	-1.824085	10.364192	-0.018932	1.718902	0.640306	-0.323242	0.174805	-0.0625
556.0	3.272702	-1.643787	10.084606	0.035164	1.634159	0.590914	-0.306152	0.185547	-0.047363
557.0	3.609623	-1.550842	9.735509	-0.048747	1.417525	0.565393	-0.29126	0.195801	-0.021484
558.0	4.188723	-1.713013	9.465576	-0.137869	1.162445	0.552187	-0.282959	0.208496	-0.001953
559.0	4.660117	-1.633906	9.433066	-0.070736	0.934809	0.57675	-0.283447	0.221191	0.026123
560.0	5.612684	-1.109134	10.033508	-0.127253	0.656092	0.633601	-0.277344	0.233643	0.045654
561.0	7.546023	-0.498074	10.671882	-0.419237	0.428385	0.779698	-0.281982	0.241943	0.078125
562.0	9.706479	-0.350385	10.75385	-0.860656	0.377033	0.980613	-0.289063	0.258789	0.101807
563.0	11.219581	-1.308807	10.285366	-1.348335	0.484213	1.160188	-0.295898	0.269043	0.129883
564.0	11.545581	-3.007648	8.964141	-1.275011	0.786255	1.24289	-0.307129	0.281738	0.149414
565.0	11.149203	-2.89511	8.088624	-0.340547	1.314151	1.219544	-0.324707	0.285645	0.168701
566.0	10.428969	-0.43615	8.164761	0.283149	1.657732	1.164539	-0.331543	0.294189	0.166504
567.0	9.966172	1.201087	7.622072	0.158234	1.703634	1.100953	-0.349365	0.300537	0.170898
568.0	9.789078	1.799444	6.622604	-0.156975	1.706236	0.979155	-0.355957	0.304688	0.177246
569.0	9.79064	1.500457	5.607497	-0.525726	1.59898	0.797922	-0.375732	0.311279	0.166504
570.0	10.609659	0.794985	4.326029	-0.658596	1.549933	0.538603	-0.378174	0.317871	0.16626
571.0	10.694481	0.369729	3.064462	-0.360012	1.646188	0.262471	-0.391357	0.320068	0.159912
572.0	10.058747	0.956601	2.297609	0.109601	1.678163	-0.012942	-0.400146	0.322266	0.151123
573.0	9.726849	1.823127	1.54341	0.320461	1.464519	-0.244887	-0.406494	0.315918	0.133789
574.0	9.780379	2.142326	0.665903	0.075264	1.089656	-0.388863	-0.41333	0.32251	0.125
575.0	10.101661	1.820377	-0.076543	-0.525138	0.645778	-0.454126	-0.428467	0.315918	0.125
576.0	10.382708	0.661568	-0.730715	-0.820461	0.230814	-0.463989	-0.432861	0.32251	0.127197
577.0	10.795307	-0.325211	-1.065748	-0.633364	-0.113901	-0.438948	-0.443604	0.318115	0.122803
578.0	11.067586	-0.954981	-0.933163	-0.371299	-0.390152	-0.35753	-0.447998	0.318115	0.125
579.0	11.149641	-1.311075	-0.669951	-0.201474	-0.711446	-0.199326	-0.457031	0.324463	0.131592
580.0	10.712534	-1.875959	-0.340767	-0.172002	-1.007669	-0.015546	-0.463623	0.328613	0.140137
581.0	10.705175	-2.304427	0.374613	-0.091901	-1.342731	0.107616	-0.468018	0.332764	0.153076
582.0	10.338132	-5.816266	1.220367	-0.645859	-1.21273	0.346318	-0.477051	0.338867	0.166016
583.0	8.263722	-10.41747	0.672772	1.507928	-1.152617	-0.340511	-0.483398	0.33667	0.172607
584.0	5.427371	-4.914157	7.683062	4.96945	-0.248963	-0.873635	-0.483398	0.33252	0.159668
585.0	-7.171996	1.320648	24.938067	5.236648	-0.247112	-1.141692	-0.500488	0.325928	0.157471
586.0	-21.477076	-0.106524	25.48165	2.76633	-1.406972	-1.17078	-0.513428	0.321533	0.166016
587.0	-0.708455	0.439273	11.861085	1.391562	-4.029026	-0.216436	-0.52417	0.318848	0.196533
588.0	24.031175	5.938572	-1.569489	2.967148	-4.160914	-0.070729	-0.534912	0.320801	0.209473
589.0	12.954701	7.078622	-0.288569	1.563786	-1.532156	-0.857993	-0.543701	0.320557	0.222412
590.0	13.2384	6.911768	19.210371	-1.812989	-2.23741	-0.132723	-0.54834	0.326904	0.237549
591.0	13.003944	0.617505	13.847475	-2.858026	-2.934005	0.235996	-0.559326	0.333008	0.263428
592.0	7.156388	-5.872277	7.250808	-1.424177	-2.114189	0.037534	-0.561523	0.334961	0.276611
593.0	8.986352	-4.409143	7.037179	1.112217	-1.736998	-0.218228	-0.55957	0.339111	0.282959
594.0	9.782577	-1.383405	10.407451	1.167277	-1.457698	0.061608	-0.570313	0.338867	0.293701
595.0	9.929603	0.809694	10.388601	0.650566	-1.235782	0.112751	-0.568115	0.338867	0.30249
596.0	6.336361	1.853971	7.234992	1.229793	-0.525113	-0.051224	-0.55957	0.343262	0.295898
597.0	6.43707	3.036433	11.099406	1.132013	-0.470542	-0.065623	-0.568604	0.347412	0.295898
598.0	6.465721	0.987989	10.081017	-1.126758	-0.927027	0.002057	-0.570557	0.345215	0.31543
599.0	6.777236	-3.067844	7.836294	-2.208081	-1.147759	-0.04764	-0.574707	0.34082	0.317627
600.0	7.792268	-5.427423	5.44384	-0.442414	-0.519537	-0.138569	-0.57251	0.338623	0.324219
601.0	7.242153	-2.626134	7.036994	1.680105	0.354967	-0.340374	-0.568115	0.338623	0.319824
602.0	5.890767	0.515378	8.943434	1.826284	0.468351	-0.355299	-0.574707	0.338623	0.313232
603.0	5.692465	1.529537	9.437591	0.542482	0.082736	-0.307249	-0.574707	0.338623	0.31543
604.0	6.141203	0.279696	8.7499	-0.434389	-0.147196	-0.261607	-0.568115	0.33667	0.311035
605.0	6.309259	-1.028074	7.750306	-0.182133	-0.043634	-0.250453	-0.576904	0.338623	0.31543
606.0	5.876246	-0.760586	8.141847	0.389383	0.159208	-0.275687	-0.572266	0.329834	0.322021
607.0	5.482512	0.014336	8.578377	0.365659	0.123379	-0.253406	-0.574463	0.334229	0.317627
608.0	5.756531	0.036941	8.333996	0.043041	-0.01557	-0.191329	-0.574463	0.334473	0.313232
609.0	5.840382	-0.374505	8.144881	0.022939	0.00079	-0.174102	-0.57251	0.336426	0.319824
610.0	5.798025	-0.31221	8.184517	0.136335	0.028434	-0.153558	-0.578857	0.334473	0.311035
611.0	5.86193	-0.375272	8.209063	0.01872	-0.009695	-0.132545	-0.574463	0.330078	0.313232
612.0	5.740016	-0.809731	8.000618	-0.017383	-0.00813	-0.128951	-0.574219	0.327881	0.317627
613.0	5.683014	-0.944155	7.987268	0.0828	0.013317	-0.133508	-0.574463	0.332031	0.319824
614.0	5.706227	-0.856478	8.007218	0.13455	0.027239	-0.136068	-0.576416	0.330078	0.317627
615.0	5.580097	-1.081595	8.01017	0.086837	0.048935	-0.178501	-0.578613	0.330078	0.313232
616.0	5.782702	-1.157509	7.968558	0.165517	0.066897	-0.221186	-0.578613	0.327881	0.311279
617.0	5.704106	-0.824712	7.941607	0.334769	0.138905	-0.262046	-0.583008	0.327881	0.311279
618.0	5.668681	-0.402266	8.108852	0.396793	0.148985	-0.270534	-0.580322	0.317139	0.313477
619.0	5.627881	-0.241409	8.194581	0.337733	0.125977	-0.259703	-0.578369	0.321533	0.309082
620.0	5.696071	-0.000787	8.173872	0.362733	0.105846	-0.238847	-0.571777	0.319336	0.309082
621.0	5.667497	0.104998	8.283761	0.319762	0.096748	-0.212113	-0.578369	0.323486	0.313477
622.0	5.693551	0.166044	8.278384	0.275357	0.057203	-0.184765	-0.578369	0.319336	0.309082
623.0	5.76358	0.180071	8.180559	0.233698	0.061299	-0.159555	-0.58252	0.317139	0.306885
624.0	5.703866	-0.039227	8.166251	0.14159	0.062384	-0.149944	-0.57373	0.312988	0.309082
625.0	5.82914	-0.178959	8.003167	0.126874	0.048709	-0.137334	-0.577881	0.310791	0.309082
626.0	5.823156	0.108235	8.081178	0.2561	0.094758	-0.132517	-0.580322	0.317139	0.309082
627.0	5.718161	0.408357	8.357788	0.207039	0.089878	-0.105258	-0.584473	0.312988	0.304688
628.0	5.670978	0.153658	8.375656	0.035832	0.030463	-0.090265	-0.580322	0.317139	0.306885
629.0	5.777932	-0.210004	8.077813	0.004397	0.028508	-0.093814	-0.586914	0.319336	0.306885
630.0	5.5264	-0.097237	8.372768	0.15635	0.022066	-0.095238	-0.580322	0.317139	0.311279
631.0	5.68558	0.242876	8.338657	0.153151	0.010538	-0.098777	-0.584229	0.306396	0.304688
632.0	5.718015	0.401754	8.390341	0.092178	-0.033756	-0.073858	-0.580322	0.312988	0.309082
633.0	5.740221	0.680779	8.415252	0.103469	-0.044668	-0.039873	-0.584717	0.317139	0.309082
634.0	5.574537	0.601781	8.53796	-0.03671	-0.124126	-0.00868	-0.580322	0.312988	0.309082
635.0	5.478617	-0.286032	8.441324	-0.252567	-0.234981	-0.022368	-0.580078	0.310547	0.315674
636.0	5.664379	-0.691023	8.125371	-0.067388	-0.267009	-0.081902	-0.580078	0.308594	0.313477
637.0	5.376571	0.278747	8.73737	0.159619	-0.220268	-0.177234	-0.582275	0.310547	0.315674
638.0	5.542793	-0.156439	8.643561	-0.446148	-0.480993	-0.226184	-0.577881	0.306396	0.320068
639.0	5.983234	-0.501256	8.156486	-0.213938	-0.474485	-0.216325	-0.586426	0.306152	0.324219
640.0	5.779136	-0.025053	8.321295	0.002856	-0.479898	-0.227848	-0.588623	0.303955	0.328613
641.0	5.497711	0.424891	8.606046	0.040345	-0.604296	-0.179458	-0.586182	0.301758	0.326416
642.0	5.563525	0.746662	8.974427	-0.043564	-0.726349	-0.104504	-0.588379	0.299561	0.330811
643.0	6.950262	-0.966519	9.005854	-0.340419	-1.188627	0.146292	-0.586426	0.303711	0.341553
644.0	4.326307	-1.118664	8.398329	-0.098421	-0.974463	-0.164084	-0.57959	0.301514	0.348145
645.0	3.140249	0.002661	9.390555	1.035211	-1.380838	-0.093134	-0.592529	0.292969	0.354736
646.0	6.802933	1.892319	10.032514	0.729378	-1.7393	0.062757	-0.585938	0.294922	0.365479
647.0	5.474218	0.411803	9.699633	-0.694374	-2.1842	-0.02475	-0.587891	0.290283	0.380615
648.0	4.73294	-1.355586	8.823763	-0.154734	-2.597594	0.01729	-0.587891	0.290039	0.397949
649.0	4.266815	-0.995062	9.962177	0.435253	-2.759447	-0.086611	-0.589844	0.287842	0.415283
650.0	4.112093	-0.184352	10.489287	0.499577	-3.3794	-0.090869	-0.583252	0.2854	0.430664
651.0	5.456453	-0.317294	10.423135	0.071551	-4.071734	-0.065005	-0.582764	0.272217	0.456787
652.0	5.074065	-1.816553	9.717773	-0.262224	-4.700928	-0.194626	-0.584717	0.271729	0.484863
653.0	3.633422	-1.66169	9.956285	0.590979	-5.204917	-0.457175	-0.575684	0.264893	0.519531
654.0	2.326763	-0.350114	10.70628	0.782298	-6.252005	-0.77909	-0.564453	0.255859	0.554199
655.0	2.735778	0.852803	10.182694	-0.004367	-7.667599	-1.138215	-0.550781	0.244385	0.608643
656.0	1.872013	-0.496757	8.103747	-1.105464	-9.172007	-1.439642	-0.534668	0.224121	0.671631
657.0	5.187096	-1.88776	5.428141	-1.79593	-10.897061	-1.881323	-0.505371	0.199707	0.741211
658.0	6.320271	-2.80518	4.868331	-1.73608	-11.934754	-2.339394	-0.456299	0.17749	0.814941
659.0	27.098366	5.854124	10.310215	-1.692077	-13.05875	-2.226486	-0.406982	0.144287	0.880371
660.0	46.765192	7.501235	13.307363	-4.460133	-10.205765	-2.117402	-0.370117	0.094482	0.921875
661.0	12.065534	-14.364542	13.261071	-6.024261	-5.680271	-2.308845	-0.3396	0.038574	0.935059
662.0	16.388456	-12.532789	12.677806	0.703209	-6.93179	-3.113348	-0.312744	0.020996	0.963379
663.0	27.548849	0.313219	20.417721	-1.306954	-4.631889	-2.229593	-0.296143	-0.015625	0.972412
664.0	15.061402	-3.568658	18.112207	-5.71559	-3.09022	-1.438877	-0.293945	-0.071533	0.976807
665.0	22.515874	-6.570507	16.064661	-4.455803	-2.330376	-1.834616	-0.305176	-0.118896	0.9729
666.0	9.496014	-18.659488	4.121635	-3.561044	1.573889	-1.735698	-0.334229	-0.155273	0.942627
667.0	17.022506	-25.642602	12.418409	-0.243914	2.023615	-0.558994	-0.377686	-0.159424	0.933838
668.0	18.278775	-8.643216	12.233891	4.043051	6.537567	0.438494	-0.430908	-0.139893	0.894531
669.0	-5.358316	-5.60789	8.656968	3.762207	7.031628	0.397643	-0.494873	-0.120117	0.853271
670.0	-13.126368	-3.673168	7.558957	2.454608	5.628146	0.132781	-0.534424	-0.108887	0.798828
671.0	-3.860674	2.469889	9.329204	1.569938	3.778079	0.665293	-0.569824	-0.099854	0.757568
672.0	4.906896	4.606015	8.910091	-0.859908	3.279033	0.641524	-0.578613	-0.103271	0.697021
673.0	1.716732	-1.235282	8.736805	-4.06567	3.917489	1.015138	-0.587402	-0.104736	0.634033
674.0	4.202489	-7.449808	6.398593	-3.752033	3.739455	0.933684	-0.587646	-0.101563	0.566895
675.0	7.988643	-6.48336	4.815458	0.655059	5.624783	0.855958	-0.572754	-0.094238	0.508301
676.0	4.521608	0.321072	8.19801	2.645026	6.831202	0.624173	-0.552979	-0.099854	0.458496
677.0	2.728406	3.931369	8.815634	1.450224	6.773868	0.546091	-0.526855	-0.101563	0.419678
678.0	1.995173	4.000547	7.754114	-1.189775	6.348609	0.777285	-0.504395	-0.120361	0.387207
679.0	1.758565	1.837993	5.947635	-2.596105	5.854606	1.033831	-0.491211	-0.128418	0.356934
680.0	1.486828	0.880805	6.991184	-2.241305	6.071424	1.218783	-0.481934	-0.141113	0.337646
681.0	6.031254	1.860726	7.253441	-2.004683	5.025905	1.818037	-0.483887	-0.149414	0.313721
682.0	7.219616	0.566636	8.55877	-3.10309	4.577149	2.259948	-0.492676	-0.146973	0.289795
683.0	8.507297	-2.3946	8.566935	-3.179985	4.272601	2.970839	-0.510742	-0.135742	0.263672
684.0	12.140042	-4.858367	8.005839	-2.069457	4.261885	3.482872	-0.526611	-0.120361	0.229004
685.0	12.627847	-4.586351	8.518238	-0.158104	4.690901	3.725766	-0.53833	-0.100586	0.196289
686.0	11.771463	-0.924869	10.793134	0.700267	4.753559	3.950991	-0.558838	-0.076416	0.159424
687.0	13.102055	0.568259	12.922098	-0.080963	4.285465	4.176096	-0.568848	-0.045898	0.115723
688.0	12.842089	0.23073	12.714428	-0.357595	4.10881	4.210584	-0.564209	-0.002197	0.078857
689.0	14.056518	1.258381	13.853339	-0.305636	3.766118	4.023059	-0.554932	0.037109	0.035156
690.0	15.602259	2.11739	13.797598	-0.731649	3.55815	3.729971	-0.534912	0.080811	-0.019043
691.0	18.912063	-2.45103	14.562651	-1.875803	2.989829	3.7039	-0.490723	0.11792	-0.045166
692.0	20.301738	-10.241302	3.440175	-0.780082	2.824359	2.67632	-0.443115	0.125	-0.071289
693.0	24.967596	-0.457339	3.5255	5.669476	3.65936	1.157566	-0.387695	0.095215	-0.083984
694.0	21.30225	9.314546	10.08924	5.407546	4.273927	0.675449	-0.333984	0.059082	-0.088135
695.0	26.30874	12.941777	11.327467	-0.796541	2.306614	0.797522	-0.312256	0.058838	-0.079346
696.0	28.487783	4.302745	2.732136	-5.402491	2.209341	2.335226	-0.280029	0.071777	-0.072754
697.0	24.138271	-4.883749	-3.902329	-4.778199	2.915596	2.445143	-0.260498	0.078125	-0.057617
698.0	20.005255	-4.065187	-7.22666	0.162612	3.357704	1.417269	-0.246826	0.058838	-0.046631
699.0	17.710035	2.787181	-6.977458	2.843369	2.897494	0.742189	-0.235107	0.039307	-0.046631
700.0	19.668405	8.644277	-9.497327	0.067633	1.845168	0.460564	-0.228271	0.030762	-0.037842
701.0	17.229568	5.301384	-12.795921	-1.534455	1.103146	1.500606	-0.221924	0.034912	-0.029297
702.0	15.909548	0.452112	-15.938163	-0.818257	-0.248958	1.046971	-0.223389	0.021729	-0.013916
703.0	17.697185	-0.021066	-17.682593	1.46492	-0.914336	0.105423	-0.220703	0.004639	-0.007324
704.0	18.648079	-0.203369	-14.965482	3.097348	-2.006201	-0.26191	-0.224609	-0.004395	0.007813
705.0	17.587075	-0.056058	-12.298098	4.289656	-3.069116	-0.740388	-0.227539	-0.039063	0.025391
706.0	-4.402199	4.845368	12.609061	3.762176	-0.395132	-1.684609	-0.220459	-0.056396	0.040527
707.0	-8.789751	6.714034	35.31092	0.874426	-5.675928	-0.203613	-0.235352	-0.058838	0.062256
708.0	38.06258	4.059383	8.706663	-2.244807	-6.620778	0.820839	-0.241699	-0.065674	0.07959
709.0	18.168696	0.136854	-1.325761	3.415447	-1.112061	-1.01029	-0.238525	-0.087402	0.097168
710.0	8.699671	10.027281	17.904728	3.875629	-2.236025	-1.751487	-0.240234	-0.102539	0.114502
711.0	29.233952	11.327036	21.824977	-2.130599	-3.495284	-0.815058	-0.246826	-0.098389	0.116699
712.0	16.004403	-4.265829	5.599696	-4.351388	-1.667308	0.557333	-0.240723	-0.089844	0.116699
713.0	-0.049923	-13.10694	3.373152	-0.525549	-0.968482	-0.619272	-0.24707	-0.094238	0.121094
714.0	9.277552	-2.852388	8.228546	3.285068	-1.257017	-0.543997	-0.248779	-0.10498	0.125244
715.0	7.252101	3.527261	7.747987	3.31143	-0.005008	-0.916546	-0.241943	-0.113525	0.129639
716.0	5.750537	6.320706	12.212301	1.604249	-0.35879	-0.489662	-0.246094	-0.11792	0.138428
717.0	7.596012	2.068781	10.587327	-1.970855	-1.033561	0.057161	-0.246338	-0.113525	0.131836
718.0	7.380669	-2.386783	7.341055	-2.25643	-0.871724	0.023217	-0.244141	-0.113525	0.131836
719.0	7.221219	-2.897533	6.801859	0.624108	-0.002393	-0.105731	-0.246338	-0.11377	0.134033
720.0	5.66178	-0.235077	8.982366	1.405691	0.36405	-0.161132	-0.246094	-0.11792	0.13623
721.0	5.59704	0.949268	9.347132	0.30213	0.015826	-0.148311	-0.241699	-0.120117	0.129883
722.0	6.211681	0.142868	8.553252	-0.329195	-0.084903	-0.115801	-0.241455	-0.124268	0.13208
723.0	6.348035	-0.161337	7.996501	0.045776	0.026218	-0.071093	-0.241699	-0.11792	0.134033
724.0	6.074109	0.885767	8.677907	0.346851	0.119608	0.00609	-0.243652	-0.124512	0.13208
725.0	5.769898	1.294403	8.750416	-0.040906	-0.016033	0.097434	-0.243896	-0.11792	0.13623
726.0	5.806811	0.687566	8.641404	-0.36609	-0.113881	0.203843	-0.241943	-0.113525	0.129639
727.0	5.772875	-0.362019	8.321676	-0.501337	-0.175525	0.245786	-0.250488	-0.11792	0.13623
728.0	5.549725	-1.393294	7.873549	-0.48196	-0.19403	0.221717	-0.241699	-0.115967	0.138428
729.0	5.434022	-2.253223	7.728803	-0.391538	-0.195482	0.126054	-0.241943	-0.11377	0.13623
730.0	5.72083	-2.398061	7.564921	-0.124826	-0.141745	0.020995	-0.248291	-0.115723	0.134033
731.0	5.734053	-2.115087	7.665827	0.069144	-0.058803	-0.083643	-0.241699	-0.115723	0.131836
732.0	5.715093	-1.961941	7.746529	0.078742	-0.015449	-0.175156	-0.237549	-0.113525	0.134033
733.0	5.875517	-1.354885	7.765383	0.288383	0.041947	-0.24304	-0.243896	-0.11792	0.13623
734.0	5.935435	-0.51388	8.084747	0.348321	0.096701	-0.278751	-0.246094	-0.120117	0.138428
735.0	5.68958	-0.286941	8.289068	0.239017	0.076636	-0.270017	-0.243896	-0.11792	0.134033
736.0	5.772973	-0.226269	8.22828	0.204743	0.032788	-0.254158	-0.239258	-0.122314	0.13623
737.0	5.758059	-0.270474	8.245345	0.180352	0.021644	-0.248439	-0.241455	-0.122314	0.140625
738.0	5.744898	-0.287009	8.209431	0.174501	-0.003456	-0.239918	-0.243652	-0.124512	0.138428
739.0	5.811033	-0.254387	8.131754	0.166846	-0.025839	-0.234237	-0.24585	-0.124512	0.13623
740.0	5.935025	-0.126183	8.061169	0.180572	-0.018792	-0.224423	-0.239258	-0.124512	0.138428
741.0	5.78397	-0.124112	8.093518	0.138947	-0.021013	-0.197303	-0.239014	-0.130859	0.138428
742.0	5.733197	-0.457941	7.929696	0.02929	-0.075699	-0.210456	-0.241211	-0.128662	0.134277
743.0	5.820586	-0.73475	7.887987	0.058182	-0.073508	-0.223284	-0.243652	-0.126709	0.138428
744.0	5.832448	-0.575605	8.006117	0.165961	-0.056913	-0.244312	-0.236816	-0.128662	0.138428
745.0	5.7367	-0.369409	8.239947	0.155868	-0.048388	-0.272151	-0.23877	-0.135254	0.138428
746.0	5.667134	-0.395679	8.277556	0.044535	-0.088548	-0.309885	-0.240967	-0.137207	0.134277
747.0	5.836018	-0.56326	8.143329	-0.02668	-0.117414	-0.360623	-0.236816	-0.128906	0.147217
748.0	5.915349	-0.397194	8.179356	0.049749	-0.123558	-0.399543	-0.236572	-0.135254	0.147217
749.0	5.87821	-0.03659	8.308856	0.061163	-0.164168	-0.415192	-0.240723	-0.141846	0.14502
750.0	5.800884	0.172537	8.456731	-0.008728	-0.242804	-0.397267	-0.232178	-0.137451	0.147217
751.0	6.978385	-1.197353	8.232381	-0.305283	-0.46532	-0.275	-0.240723	-0.141846	0.147217
752.0	7.192144	-2.857355	6.747993	-0.549282	-0.594748	-0.115019	-0.240967	-0.139648	0.140625
753.0	1.512426	-1.537714	9.134678	1.674298	0.197759	-0.570642	-0.240723	-0.144043	0.158203
754.0	6.37537	3.231852	9.701815	2.420008	-0.771012	-0.350333	-0.244629	-0.152588	0.156006
755.0	7.008367	4.48591	9.365917	-0.04134	-0.7349	-0.233601	-0.242676	-0.14624	0.156006
756.0	2.988489	1.669322	10.482998	-1.170041	-1.158834	0.063019	-0.246826	-0.150635	0.162354
757.0	6.096236	0.415846	8.437293	-0.645039	-1.824977	0.210418	-0.249268	-0.146484	0.166748
758.0	6.14095	0.233458	9.064121	0.158548	-1.750808	0.236344	-0.253418	-0.148682	0.179688
759.0	4.773989	0.716802	9.913304	0.56085	-2.200543	0.324153	-0.26001	-0.146729	0.190674
760.0	4.134235	0.993898	10.587015	0.416912	-2.7246	0.402266	-0.262207	-0.144775	0.197021
761.0	3.854219	0.433223	10.801523	-0.205727	-3.358812	0.411919	-0.270996	-0.142822	0.216553
762.0	4.027002	-0.726443	10.429144	-0.440364	-4.00482	0.384252	-0.270996	-0.145264	0.231689
763.0	5.61502	-1.404647	10.409592	-0.429313	-4.63496	0.307061	-0.277344	-0.149902	0.251221
764.0	4.057789	-2.02906	10.849646	-0.052246	-5.063987	0.125557	-0.279297	-0.154297	0.270752
765.0	1.477762	-2.524665	11.544722	0.351476	-5.990795	-0.045229	-0.279053	-0.154785	0.294678
766.0	1.859472	-1.156309	9.673984	0.632634	-7.347308	-0.332378	-0.278809	-0.163818	0.329346
767.0	3.284625	1.235846	8.513846	0.517904	-8.889261	-0.571284	-0.263184	-0.170654	0.368408
768.0	3.022474	0.815713	7.042279	-0.764253	-10.634786	-0.664791	-0.251709	-0.179932	0.414063
769.0	2.987539	-0.630334	4.961615	-2.111143	-12.49672	-0.856589	-0.225342	-0.186768	0.453125
770.0	19.474136	6.626978	10.351664	-2.274363	-14.393612	-1.223796	-0.185547	-0.199951	0.48584
771.0	47.699853	8.97324	17.09289	-7.066955	-12.552302	-0.57681	-0.15625	-0.223633	0.492432
772.0	15.887185	-23.859569	6.237105	-9.697334	-7.128614	-1.403741	-0.122803	-0.247314	0.505615
773.0	16.746692	-17.158867	12.559578	2.962435	-7.679322	-3.644867	-0.092041	-0.248047	0.559814
774.0	27.754528	3.138497	19.355669	0.763175	-5.723435	-2.450831	-0.067627	-0.258789	0.575195
775.0	22.158924	-2.96913	19.191734	-5.535385	-4.274102	-0.762119	-0.036377	-0.280518	0.588379
776.0	21.351025	-7.881085	19.828303	-2.870839	-1.638643	-1.381272	-0.029541	-0.283203	0.629395
777.0	12.246547	-9.147607	5.235809	-0.824366	0.845391	-2.947121	-0.020752	-0.287842	0.659912
778.0	4.114107	-12.748999	24.13696	-1.253234	2.427108	-2.945198	-0.033691	-0.290283	0.687988
779.0	31.042727	-7.169804	15.502402	-1.560713	3.834656	-1.478886	-0.062012	-0.286377	0.709717
780.0	2.415984	-12.483584	9.616473	0.8066	7.518722	-1.200305	-0.099121	-0.282715	0.731201
781.0	-12.005939	-11.139033	6.263298	1.688712	6.736022	-2.179214	-0.140869	-0.270264	0.754883
782.0	-4.139877	-2.209196	8.764415	2.394537	5.423822	-2.313308	-0.171631	-0.261719	0.76123
783.0	6.392627	5.733987	10.466357	1.003327	4.890423	-2.224498	-0.197998	-0.257568	0.765625
784.0	4.265536	3.025426	8.345295	-3.213489	5.194379	-1.087117	-0.240967	-0.270752	0.759033
785.0	3.408242	-6.446083	6.362807	-4.882435	5.087198	0.047451	-0.279785	-0.281494	0.748291
786.0	5.886462	-9.819628	2.691822	-2.565869	5.639674	0.193073	-0.332031	-0.279541	0.752441
787.0	3.477063	-5.218314	4.159174	0.052533	6.78829	0.594007	-0.386719	-0.273438	0.756592
788.0	1.469771	-0.551299	5.358539	-0.356203	6.541682	1.06501	-0.454834	-0.260498	0.743408
789.0	1.208915	0.592585	5.522368	-1.862237	5.863035	1.842334	-0.542236	-0.25	0.736816
790.0	2.963432	-0.409277	5.917917	-2.516033	5.070582	2.604634	-0.636963	-0.222168	0.723389
791.0	5.27718	-0.876274	7.37093	-2.627444	4.554298	3.30489	-0.740967	-0.181396	0.703613
792.0	7.465294	-1.713116	8.424209	-2.790464	4.349649	3.890611	-0.849609	-0.131836	0.66626
793.0	8.989017	-1.995844	8.657425	-2.073347	4.497799	4.309234	-0.955322	-0.049561	0.594238
794.0	9.045747	-0.431957	8.755816	-1.036966	4.679121	4.421613	-1.026123	0.031006	0.502686
795.0	7.974604	1.47252	11.287449	-0.620537	5.047794	4.250287	-1.068359	0.109619	0.406738
796.0	10.998058	1.544309	11.220159	-1.092845	4.509277	4.184415	-1.092285	0.156006	0.306885
797.0	11.532527	0.602488	10.825678	-0.671852	4.641283	3.695737	-1.102783	0.194092	0.200439
798.0	11.656846	2.293703	12.927076	0.438309	4.860638	3.259079	-1.109863	0.206299	0.085449
799.0	14.151327	3.514838	14.375699	-0.027773	4.772747	2.8817	-1.088867	0.220947	-0.029541
800.0	15.66379	2.119716	15.156318	-0.371799	4.83761	2.435198	-1.048096	0.224854	-0.150879
801.0	16.418893	2.352244	14.123674	0.468019	5.144629	1.960648	-0.980957	0.22876	-0.263428
802.0	16.03275	4.465146	14.928006	0.457602	5.061262	1.579395	-0.88501	0.223633	-0.334717
803.0	17.957037	0.166742	12.38962	-1.69716	4.268371	1.654823	-0.79834	0.229004	-0.375732
804.0	19.113116	-4.826676	3.446696	-0.860328	3.649294	0.823865	-0.732178	0.207764	-0.392822
805.0	21.731191	-0.657534	1.750692	2.017097	3.262453	0.279319	-0.678711	0.177979	-0.390381
806.0	19.189753	2.24492	3.234078	0.553181	2.71129	0.004064	-0.643555	0.169434	-0.385986
807.0	24.73891	3.463507	3.398164	-1.316895	1.522604	0.260706	-0.61792	0.180176	-0.375244
808.0	26.466387	3.295854	0.133878	-1.725768	1.595129	0.801762	-0.585938	0.199707	-0.375244
809.0	24.767764	5.343069	-0.977504	-1.571132	1.717404	1.256076	-0.563232	0.227539	-0.371094
810.0	23.876815	6.387576	-3.555423	-2.574499	1.296911	1.983343	-0.538574	0.266113	-0.358154
811.0	23.644389	3.356678	-9.079471	-3.264389	0.462567	3.005171	-0.522461	0.304932	-0.347412
812.0	22.787364	-1.910453	-14.89557	-2.682494	0.183728	3.414604	-0.497803	0.343506	-0.330322
813.0	21.593719	-3.014947	-15.79394	0.154158	0.355022	2.82053	-0.472168	0.356445	-0.328125
814.0	20.394761	1.152167	-13.298782	3.51243	0.391357	1.857879	-0.449951	0.341553	-0.33667
815.0	17.500983	5.070374	-11.46563	3.687561	0.195159	0.946528	-0.438721	0.333008	-0.338867
816.0	15.387977	4.791608	-9.647358	2.492062	-1.362101	0.44606	-0.447266	0.328613	-0.330078
817.0	17.320134	1.210118	-9.972072	2.271201	-2.806949	0.261015	-0.45166	0.330566	-0.32373
818.0	2.262198	0.686525	4.160551	3.708977	-0.813385	-0.48288	-0.451172	0.320068	-0.343018
819.0	-27.184438	1.882182	36.856283	3.722758	-3.09018	-1.165414	-0.474854	0.313232	-0.321533
820.0	24.713233	8.296857	18.450194	-1.498481	-7.484949	0.42047	-0.508301	0.333984	-0.269531
821.0	38.158922	7.817872	-7.129342	1.553068	-4.489256	-0.189432	-0.52124	0.331787	-0.269531
822.0	8.737871	5.046675	11.112029	0.635639	-0.023451	-1.365991	-0.52124	0.329834	-0.27832
823.0	25.200627	4.296107	29.798238	-2.050751	-3.964537	-0.696195	-0.54834	0.357178	-0.239502
824.0	21.130204	-8.611256	2.385561	-5.231548	-2.935792	0.548377	-0.55542	0.376221	-0.217773
825.0	-0.212892	-17.988409	-2.556253	0.630579	-0.266105	-0.720018	-0.555176	0.365479	-0.22876
826.0	6.525167	-2.123487	9.891405	6.279304	-0.442494	-0.844425	-0.547119	0.324707	-0.237061
827.0	7.667547	9.880503	11.846266	4.769768	-0.058838	-1.455939	-0.559326	0.303223	-0.245605
828.0	6.560243	10.324732	13.094141	-0.08205	-0.611218	-0.713821	-0.561768	0.30957	-0.239258
829.0	6.930898	-0.008166	10.294225	-3.738015	-1.53823	0.457677	-0.569336	0.3396	-0.219971
830.0	7.923548	-6.568166	5.206033	-2.819885	-1.399976	-0.057171	-0.571777	0.345703	-0.204834
831.0	8.53519	-3.302054	5.136285	2.342111	0.492302	-0.283623	-0.571045	0.328613	-0.217773
832.0	5.300669	1.283987	10.455515	2.936283	0.987911	-0.231119	-0.559814	0.318115	-0.230713
833.0	4.754238	2.265449	10.726457	-0.226837	-0.205702	-0.147313	-0.562256	0.32251	-0.226318
834.0	6.012001	-1.048626	8.500071	-1.654188	-0.491337	-0.094768	-0.569092	0.331055	-0.224121
835.0	6.734822	-3.192319	6.729385	-0.519737	-0.228831	-0.120355	-0.573242	0.330811	-0.219727
836.0	6.943346	-1.292032	7.330202	0.811741	0.271784	-0.161639	-0.568604	0.32251	-0.230713
837.0	5.465079	0.624991	9.009523	0.874152	0.35713	-0.113964	-0.566406	0.320313	-0.228516
838.0	5.410491	0.726112	8.945141	-0.06845	-0.092121	-0.061044	-0.568604	0.32251	-0.226318
839.0	5.959876	-0.985908	7.895438	-0.577702	-0.2363	-0.038869	-0.568848	0.32666	-0.221924
840.0	5.960979	-1.912912	7.473691	-0.037702	-0.089525	-0.071031	-0.572998	0.322266	-0.224121
841.0	5.784328	-1.189271	7.956747	0.323035	0.017291	-0.103344	-0.575195	0.324707	-0.23291
842.0	5.598939	-1.270947	8.045594	0.024975	-0.057223	-0.126724	-0.572998	0.322266	-0.221924
843.0	5.851562	-2.056683	7.636993	-0.006483	-0.058644	-0.166633	-0.575195	0.322266	-0.224121
844.0	5.883583	-1.867552	7.672691	0.282499	0.073127	-0.224759	-0.568604	0.318115	-0.219727
845.0	5.815728	-1.29319	7.929365	0.292237	0.125303	-0.276474	-0.570557	0.315918	-0.232666
846.0	5.925271	-1.347428	7.850187	0.210601	0.129036	-0.306629	-0.568359	0.311523	-0.224121
847.0	5.99937	-0.696959	7.915513	0.442495	0.211943	-0.314225	-0.570313	0.30957	-0.226318
848.0	5.814164	0.251634	8.323648	0.500886	0.234534	-0.287126	-0.565674	0.301025	-0.230469
849.0	5.673359	0.47681	8.508009	0.234905	0.121315	-0.219256	-0.563721	0.307373	-0.228271
850.0	5.667286	0.182237	8.289825	0.096191	0.05402	-0.156216	-0.567871	0.302979	-0.228271
851.0	5.762406	-0.304541	8.125744	0.024753	0.010479	-0.119263	-0.570313	0.305176	-0.234863
852.0	5.809012	-0.59265	7.928771	0.064802	0.019989	-0.113866	-0.572021	0.296631	-0.228271
853.0	6.023669	-0.710124	7.97038	0.101249	0.043197	-0.125956	-0.565674	0.301025	-0.228271
854.0	5.69764	-0.892323	7.824093	0.117025	0.110013	-0.153103	-0.56543	0.296631	-0.228271
855.0	5.845904	-0.722223	8.034102	0.205812	0.12875	-0.177314	-0.563477	0.298828	-0.232666
856.0	5.835338	-0.676969	8.101308	0.188532	0.178489	-0.192785	-0.563232	0.29248	-0.234863
857.0	5.888668	-0.495958	8.052169	0.225662	0.189562	-0.197989	-0.567627	0.294678	-0.239258
858.0	5.809177	-0.223847	8.111785	0.256872	0.231388	-0.188811	-0.563232	0.294678	-0.237061
859.0	5.639762	-0.168398	8.378593	0.228496	0.178738	-0.175305	-0.558838	0.29248	-0.234863
860.0	5.572006	0.04867	8.461138	0.229043	0.158	-0.121732	-0.558838	0.290283	-0.239014
861.0	5.606673	0.446889	8.688362	0.26725	0.065449	-0.080107	-0.558594	0.28833	-0.243408
862.0	5.378123	0.504079	8.766517	0.013066	-0.091767	-0.009505	-0.562988	0.290283	-0.237061
863.0	5.401796	0.590528	8.854806	-0.064103	-0.197157	0.029562	-0.562988	0.288086	-0.237061
864.0	5.480896	0.326144	9.145884	-0.229579	-0.376407	0.043703	-0.565186	0.288086	-0.234863
865.0	5.476937	-0.034483	8.738369	-0.321526	-0.561468	0.121199	-0.567627	0.292236	-0.230469
866.0	5.485038	0.180176	9.221412	-0.14926	-0.712059	0.191145	-0.573975	0.292236	-0.221924
867.0	6.25947	-0.436503	9.012096	-0.351367	-1.102001	0.289943	-0.578613	0.300537	-0.208984
868.0	5.967643	-1.788669	9.343115	-0.587712	-1.476863	0.3588	-0.584961	0.291748	-0.200195
869.0	0.687543	-2.700237	10.332062	0.494153	-1.104795	0.064029	-0.591309	0.287598	-0.197998
870.0	3.965841	0.392693	10.340229	0.832661	-2.195346	0.091743	-0.601807	0.282715	-0.169922
871.0	7.210909	-0.306576	10.640981	-0.659249	-3.067911	0.150861	-0.619385	0.288818	-0.143799
872.0	4.873621	-3.052084	9.021418	0.018341	-3.192849	0.027526	-0.62793	0.281982	-0.12207
873.0	3.593264	-1.634164	10.066678	1.14245	-3.494769	-0.191053	-0.638184	0.268555	-0.091797
874.0	2.443805	0.70636	12.796102	0.672892	-4.11547	-0.238625	-0.648682	0.259521	-0.059326
875.0	3.078569	0.094315	11.901558	-0.109734	-5.241346	-0.095566	-0.65918	0.254639	-0.011475
876.0	4.214789	-1.122086	10.866447	-0.189245	-5.875678	-0.124892	-0.671875	0.245361	0.033936
877.0	1.206578	-1.861223	10.666263	0.461679	-6.688601	-0.287861	-0.686523	0.238037	0.094727
878.0	2.037398	0.741567	9.884438	1.102072	-8.177702	-0.468356	-0.687988	0.221924	0.159912
879.0	2.967664	2.102735	9.407017	0.252355	-9.689946	-0.496153	-0.683105	0.212158	0.250977
880.0	1.663594	-0.628684	7.87348	-1.200656	-11.362462	-0.497554	-0.673584	0.198242	0.333252
881.0	6.524803	-1.260206	6.222818	-2.020396	-13.004827	-0.825943	-0.659912	0.186035	0.435303
882.0	27.278009	7.792963	10.729893	-1.607473	-13.792322	-1.200314	-0.619873	0.165771	0.522217
883.0	43.588375	3.886135	13.792109	-7.094793	-11.438813	-0.463327	-0.578857	0.124023	0.5896
884.0	13.738821	-24.501363	7.869946	-6.274398	-6.697227	-1.692616	-0.533691	0.082764	0.633301
885.0	21.260201	-7.958172	12.454439	3.781833	-6.976978	-3.445279	-0.482178	0.05249	0.666016
886.0	28.684595	4.724913	17.977149	-1.03943	-4.86279	-1.928878	-0.434814	0.009277	0.690186
887.0	19.526484	-5.621245	17.93761	-5.867445	-3.555544	-0.932738	-0.389404	-0.038086	0.694824
888.0	19.217046	-10.586034	15.257272	-2.030306	-0.923133	-2.193104	-0.348633	-0.080811	0.699463
889.0	1.289617	-8.621475	5.522172	0.850481	1.888828	-4.759931	-0.310303	-0.117188	0.695313
890.0	17.142415	-2.099205	25.590218	-1.366445	1.319905	-2.847596	-0.282715	-0.151611	0.693359
891.0	19.595127	-0.428997	18.397123	-3.299324	4.648194	-2.114161	-0.266113	-0.192139	0.671875
892.0	1.454723	-14.998701	7.115579	-5.016465	5.159265	-1.768026	-0.249268	-0.228516	0.661377
893.0	-5.25331	-19.162325	0.257512	-0.099791	5.811026	-2.223622	-0.233398	-0.247803	0.665771
894.0	-0.211184	-5.062436	7.244762	3.08503	5.894053	-2.364489	-0.230713	-0.262939	0.674561
895.0	4.210766	2.166496	8.72075	1.383334	5.259628	-1.936644	-0.227783	-0.275879	0.681152
896.0	2.538232	1.428064	8.95165	-2.294844	4.826276	-0.849455	-0.23584	-0.297363	0.672607
897.0	3.342714	-4.238969	6.527118	-5.013431	4.349751	0.262344	-0.248047	-0.320801	0.657471
898.0	5.217451	-9.905669	2.71006	-3.606484	4.805586	1.034002	-0.262451	-0.340332	0.65332
899.0	4.203538	-7.021691	3.829853	-0.211965	6.009995	1.306643	-0.297119	-0.34668	0.648926
900.0	2.861415	-1.31744	7.391799	0.306433	6.381289	1.713331	-0.329834	-0.342529	0.644531
901.0	5.081757	0.478336	7.726364	-1.622838	5.54962	2.594723	-0.368896	-0.348877	0.622803
902.0	4.947484	-1.794235	6.48002	-2.794706	5.522382	3.070053	-0.414551	-0.35083	0.592285
903.0	4.268898	-3.157549	6.097208	-1.70473	5.600758	3.439175	-0.456299	-0.346191	0.561768
904.0	4.576025	-1.526437	7.477333	-1.20359	5.562953	3.601081	-0.500488	-0.328857	0.53125
905.0	5.532696	-0.851622	8.532689	-1.431447	5.281518	3.729252	-0.540527	-0.311035	0.48999
906.0	7.683072	-0.445994	8.945701	-1.321228	5.111624	3.874231	-0.578613	-0.282715	0.444336
907.0	9.72641	-0.319571	9.700036	-1.248869	4.976963	4.067656	-0.608398	-0.248047	0.411621
908.0	11.33278	-0.295768	9.328946	-0.883742	4.944047	4.150918	-0.631592	-0.210693	0.363525
909.0	11.029235	-0.848078	10.448825	-0.406637	4.866964	4.066081	-0.653076	-0.167236	0.320068
910.0	13.305788	-0.112865	11.795144	-0.050647	4.845446	3.98322	-0.661133	-0.128174	0.293701
911.0	15.089225	0.805198	12.621244	0.457636	4.770888	3.787782	-0.669189	-0.093262	0.252441
912.0	13.682691	2.961331	14.13867	1.117401	4.913078	3.453954	-0.675293	-0.049805	0.219727
913.0	15.723303	5.740122	16.390708	0.38837	4.681351	3.130374	-0.680908	-0.01709	0.182617
914.0	20.895601	5.160107	16.31138	-1.416087	4.133334	2.820595	-0.673828	0.022217	0.149902
915.0	20.546026	1.50842	12.46256	-2.227584	4.159784	2.43652	-0.662354	0.059326	0.115234
916.0	22.525997	-0.839517	9.046945	-2.111186	3.779103	2.024701	-0.652344	0.083252	0.086914
917.0	23.073184	-2.201966	3.736094	-1.749163	3.516969	1.595148	-0.635742	0.105225	0.058594
918.0	23.645202	-1.86689	0.545481	-1.320531	3.050419	1.220242	-0.618652	0.112061	0.032471
919.0	26.687885	-0.02831	-0.870888	-1.214834	2.543239	0.999695	-0.612549	0.12085	0.030273
920.0	29.09031	2.133494	-2.38732	-0.99164	2.51766	1.025244	-0.602051	0.127441	0.010986
921.0	26.137213	3.42435	-5.928595	-0.370452	2.659648	1.145383	-0.595459	0.125488	0.002197
922.0	22.878078	4.250282	-9.834951	0.028849	2.333114	1.313545	-0.584961	0.138672	-0.012939
923.0	20.830753	4.345266	-12.529693	0.081773	1.675794	1.412064	-0.584961	0.138672	-0.012939
924.0	20.691017	4.457965	-14.028856	0.431864	0.961299	1.191271	-0.584961	0.134521	-0.023926
925.0	19.78709	5.577632	-13.94636	1.585818	0.31661	0.734683	-0.587158	0.136719	-0.019531
926.0	17.157902	4.201965	-11.896799	1.567941	-0.198198	0.321144	-0.597412	0.119385	-0.017334
927.0	16.551556	0.599442	-11.404044	1.866309	-1.707282	-0.507775	-0.603516	0.108398	0.000244
928.0	18.178914	1.134273	-10.925407	3.8263	-2.588896	-1.669991	-0.615234	0.077881	0.013184
929.0	5.241842	5.185413	9.062212	6.576109	-0.031399	-2.433605	-0.613525	0.034912	0.022217
930.0	-26.001389	5.444527	42.700444	4.515816	-2.68237	-1.565421	-0.628174	0.019287	0.05249
931.0	10.703285	1.599443	16.256724	-3.344821	-7.647214	1.71263	-0.653076	0.048584	0.113037
932.0	41.08915	1.363785	-6.098234	-0.922194	-5.965147	1.65973	-0.668213	0.048096	0.136963
933.0	11.599393	-0.099066	-1.41709	3.720651	-1.312282	-0.299812	-0.672119	0.037109	0.154297
934.0	19.311928	7.579553	29.746998	1.351599	-2.671917	-0.322831	-0.680664	0.030273	0.180176
935.0	24.314356	3.633834	17.416476	-2.928328	-3.359657	-0.310103	-0.685059	0.032227	0.199707
936.0	6.47027	-7.828891	0.040408	-3.24535	-1.717709	-0.122294	-0.687012	0.029785	0.208496
937.0	5.970595	-6.202635	5.678639	2.356642	-1.126023	-0.357239	-0.687012	0.031738	0.221436
938.0	12.486498	4.832701	11.27165	4.725877	-0.125188	-0.687787	-0.684326	0.014648	0.219482
939.0	5.873111	6.830316	11.154659	3.511703	0.694288	-0.849286	-0.688477	0.010498	0.215088
940.0	4.541871	4.459732	12.732525	-1.022428	-0.840819	0.036141	-0.686035	0.008057	0.228027
941.0	7.910962	1.106989	9.173106	-3.869488	-1.653375	0.320351	-0.692871	0.014404	0.230225
942.0	7.809193	-2.895683	6.200073	-1.83782	-0.659035	0.236994	-0.695068	0.014404	0.236572
943.0	6.092977	-2.787686	7.843434	0.913301	0.224784	0.198522	-0.68457	0.025391	0.228027
944.0	5.743882	-0.749294	9.229791	0.43075	0.054902	0.137134	-0.690918	0.016602	0.230225
945.0	5.903779	-0.422165	8.935876	-0.330434	-0.07697	0.116998	-0.699951	0.027344	0.23877
946.0	6.028508	-1.172902	8.188174	-0.339884	-0.079101	0.120247	-0.693115	0.020996	0.232422
947.0	6.200685	-0.856256	8.147354	-0.093425	0.018605	0.142126	-0.693359	0.023193	0.228027
948.0	5.943678	-0.038733	8.644686	0.023517	0.085693	0.18162	-0.695801	0.031738	0.232178
949.0	5.525745	-0.476363	8.547096	-0.446665	-0.053672	0.236968	-0.687012	0.031738	0.236572
950.0	5.784418	-1.281621	7.995973	-0.596876	-0.129427	0.246861	-0.693604	0.031738	0.236572
951.0	5.712008	-1.681955	7.873333	-0.345583	-0.039731	0.224451	-0.689209	0.031738	0.236572
952.0	5.353828	-2.222345	7.722951	-0.413734	-0.087253	0.159856	-0.689209	0.033691	0.236572
953.0	5.396705	-2.670242	7.342263	-0.330066	-0.102703	0.09708	-0.693604	0.033691	0.240967
954.0	5.500335	-2.325555	7.517719	0.007629	-0.023964	0.011646	-0.69165	0.035889	0.236572
955.0	5.400893	-1.877589	7.856775	0.027614	-0.018171	-0.052814	-0.69165	0.035889	0.236572
956.0	5.582268	-2.014979	7.732306	-0.080018	-0.062798	-0.109116	-0.687256	0.033936	0.22998
957.0	5.639523	-2.213426	7.452282	0.020724	0.001726	-0.185113	-0.691406	0.033691	0.236572
958.0	5.347675	-2.182653	7.500111	0.174987	0.060898	-0.273423	-0.689209	0.033691	0.23877
959.0	5.299574	-1.902736	7.680835	0.271983	0.035758	-0.335633	-0.693359	0.0271	0.247559
960.0	5.461651	-1.578723	7.723722	0.303088	0.018818	-0.382626	-0.688721	0.020996	0.234375
961.0	5.424401	-1.72655	7.709146	0.282186	0.012222	-0.433107	-0.688965	0.027344	0.236572
962.0	5.711879	-1.760867	7.681384	0.313734	0.003789	-0.466636	-0.692871	0.012207	0.23877
963.0	5.934258	-1.48115	7.636739	0.473136	0.061912	-0.50027	-0.694824	0.01001	0.23877
964.0	5.872447	-1.011632	7.972811	0.574574	0.113587	-0.526895	-0.688232	0.005859	0.232422
965.0	6.042281	-0.601743	8.198514	0.55119	0.105824	-0.509118	-0.690186	0.003662	0.236816
966.0	6.150371	-0.305209	8.184473	0.512562	0.128037	-0.504454	-0.69458	0.001465	0.236816
967.0	5.672267	-0.68878	8.286063	0.297078	0.150098	-0.461333	-0.692139	-0.002686	0.236816
968.0	5.838416	-0.791159	8.1443	0.343365	0.094272	-0.473333	-0.689941	-0.004883	0.234619
969.0	5.957478	-0.284157	8.133706	0.535222	0.138363	-0.451551	-0.6875	-0.013428	0.236816
970.0	5.564258	-0.282391	8.460794	0.357463	0.088076	-0.431802	-0.689697	-0.013428	0.236816
971.0	5.768878	-0.280251	8.481916	0.347123	-0.001221	-0.422521	-0.69165	-0.017822	0.239014
972.0	5.910655	-0.140343	8.592666	0.357733	0.003235	-0.398586	-0.685059	-0.022217	0.234619
973.0	5.069601	-0.014913	8.747869	0.273389	-0.026917	-0.380743	-0.685059	-0.022217	0.239014
974.0	5.240394	0.220962	9.148275	0.024437	-0.245387	-0.392903	-0.686768	-0.028564	0.234863
975.0	5.691288	-0.170868	8.637943	-0.137572	-0.396582	-0.379245	-0.68457	-0.028809	0.245605
976.0	5.603533	0.123701	8.941313	-0.013695	-0.450145	-0.315786	-0.686768	-0.028809	0.245605
977.0	5.59205	0.049521	9.251821	-0.016403	-0.682532	-0.221407	-0.691162	-0.031006	0.25415
978.0	8.729181	-2.121147	8.672519	-0.466799	-1.475582	0.24805	-0.691162	-0.026855	0.262939
979.0	3.127022	-2.141756	9.12016	0.146912	-0.467526	-0.450167	-0.690918	-0.033203	0.265137
980.0	0.696122	1.148251	10.459059	2.161234	-1.114666	-0.221702	-0.695313	-0.035645	0.275879
981.0	6.767857	3.124559	10.289802	0.911546	-2.191312	0.177963	-0.693115	-0.029541	0.304199
982.0	6.948499	1.584236	10.670727	-1.08921	-2.577997	0.15445	-0.69751	-0.029785	0.321533
983.0	3.547395	-1.828319	9.487416	-0.229237	-3.03643	0.211344	-0.699707	-0.027832	0.34082
984.0	3.868766	-1.133941	10.352077	0.875189	-3.384143	0.081464	-0.695313	-0.030273	0.364746
985.0	2.488295	0.136823	12.601359	0.753217	-3.921955	0.039571	-0.69751	-0.026611	0.408203
986.0	3.419576	-0.298024	12.199285	-0.190138	-5.179609	0.121373	-0.70166	-0.031494	0.449219
987.0	3.463212	-1.959586	11.183063	-0.512771	-5.956646	-0.026201	-0.688477	-0.030029	0.501465
988.0	1.486704	-2.435004	10.506437	0.345213	-6.855332	-0.314201	-0.681641	-0.034912	0.55127
989.0	2.075506	0.872112	10.251246	1.12744	-8.217195	-0.675898	-0.668457	-0.033936	0.625
990.0	2.016313	1.466539	9.924619	-0.275781	-10.025938	-0.844299	-0.630615	-0.052002	0.705322
991.0	1.610183	-2.041489	6.572016	-2.435196	-12.154693	-1.012935	-0.582031	-0.063721	0.790039
992.0	8.813466	-1.937226	5.496649	-2.607129	-13.237268	-1.544006	-0.515625	-0.083984	0.883301
993.0	34.480511	8.333783	15.291275	-1.998434	-13.235004	-1.573999	-0.445068	-0.106201	0.94873
994.0	38.570434	-1.319894	11.418408	-7.213133	-9.89381	-1.199981	-0.394775	-0.166504	0.9729
995.0	5.415135	-23.6487	9.747408	-3.763087	-6.579366	-2.952474	-0.342041	-0.173584	1.029297
996.0	19.348514	-2.683685	14.216936	4.478721	-7.420059	-3.475482	-0.299072	-0.158936	1.068359
997.0	28.886008	5.681835	19.24295	-2.161161	-5.817848	-1.63014	-0.265381	-0.182861	1.094482
998.0	23.330563	-4.226676	18.944725	-6.546587	-3.823986	-0.594889	-0.25293	-0.223877	1.103516
999.0	22.530493	-9.10898	13.855347	-3.143544	-0.70328	-1.300827	-0.26123	-0.232422	1.114258
1000.0	2.002579	-11.058864	7.912828	-0.529057	2.188931	-3.692447	-0.289307	-0.241455	1.12085
1001.0	21.756512	-11.913876	25.518615	-3.126969	1.477312	-1.16268	-0.332275	-0.256592	1.118652
1002.0	19.647819	-12.473359	11.095392	-0.075333	6.608528	-0.659883	-0.422363	-0.237305	1.103271
1003.0	-6.935426	-13.69499	6.270329	2.452183	7.06646	-1.277833	-0.501709	-0.209473	1.083496
1004.0	-12.176875	-6.663413	5.403228	3.618656	6.326939	-1.893204	-0.566162	-0.179199	1.054932
1005.0	-1.325953	6.3514	11.099335	3.721938	4.687732	-1.883136	-0.62793	-0.159668	1.028809
1006.0	5.219302	9.908072	11.458264	-1.830366	4.398586	-1.516655	-0.694824	-0.174072	0.96582
1007.0	5.643965	-0.902015	6.357773	-6.021057	4.544331	0.645783	-0.757813	-0.182129	0.898682
1008.0	4.485579	-12.876381	3.727999	-4.8305	4.955968	0.890407	-0.803955	-0.178955	0.816162
1009.0	6.059436	-10.822519	1.918211	0.047659	6.161784	0.787083	-0.851318	-0.141113	0.718262
1010.0	2.189338	-2.254961	6.562044	1.564999	6.912851	0.814723	-0.869629	-0.120605	0.627197
1011.0	3.505823	2.271068	7.016112	-0.537993	6.284523	1.382795	-0.869141	-0.084961	0.525146
1012.0	3.61442	1.139074	6.247071	-2.175593	5.939424	2.186303	-0.850342	-0.070557	0.421143
1013.0	2.830457	-1.46344	5.948531	-2.486116	5.473859	2.614248	-0.814209	-0.052246	0.349609
1014.0	4.579032	-1.54754	6.601598	-2.117679	5.218171	2.910162	-0.77124	-0.040283	0.282227
1015.0	6.156716	-0.63965	8.068093	-1.842184	4.93562	3.262931	-0.72168	-0.026611	0.243408
1016.0	8.174242	-0.463858	9.03628	-2.045137	4.574484	3.613748	-0.684814	-0.026123	0.20874
1017.0	10.092613	-1.62694	9.174435	-2.120537	4.424643	3.915307	-0.650146	-0.025635	0.187012
1018.0	11.919846	-3.635779	9.048212	-1.661861	4.463318	4.033787	-0.634521	-0.036133	0.167725
1019.0	12.6423	-4.909501	8.208785	-0.348843	4.799349	3.908849	-0.625732	-0.037842	0.150391
1020.0	12.91311	-2.881656	9.994441	1.426894	5.04532	3.571911	-0.628174	-0.035645	0.133057
1021.0	12.732251	1.617091	11.347484	2.2293	5.19718	3.191787	-0.628174	-0.035156	0.111328
1022.0	12.866279	5.840683	15.384139	1.412035	4.941866	2.836925	-0.639893	-0.015381	0.078613
1023.0	17.460863	6.526373	16.952771	-1.035201	4.500755	2.862048	-0.636719	0.012939	0.039551
1024.0	19.050787	1.806661	13.989395	-2.20093	4.490441	2.717982	-0.622803	0.047852	0.004639
1025.0	19.344308	-0.652778	12.425291	-1.487769	4.566306	2.311157	-0.610596	0.070068	-0.027832
1026.0	20.82449	-0.362103	10.237825	-0.995649	4.559296	1.858085	-0.587402	0.085693	-0.064697
1027.0	21.935502	-0.550443	7.642392	-1.092016	4.23919	1.500901	-0.564209	0.103271	-0.093018
1028.0	20.42557	-0.881912	2.727561	-1.057469	3.84612	1.056962	-0.536133	0.10791	-0.112549
1029.0	21.186335	1.807026	0.298334	-0.607962	2.903253	0.718999	-0.521484	0.121338	-0.13623
1030.0	21.967549	2.776994	-1.638265	-1.876712	2.174745	0.877797	-0.502441	0.132324	-0.142822
1031.0	23.955845	1.463036	-4.036761	-2.469291	1.43524	0.97803	-0.487549	0.145264	-0.142822
1032.0	24.858727	1.180877	-7.023424	-1.835666	1.136591	1.061134	-0.481445	0.156006	-0.147217
1033.0	24.122851	1.281008	-8.944107	-0.924851	1.105739	1.230349	-0.46875	0.1604	-0.153809
1034.0	23.55211	2.004515	-10.444794	0.160659	0.806594	1.219356	-0.455566	0.162598	-0.156006
1035.0	22.37387	4.029395	-12.242596	1.22682	0.632886	1.056855	-0.453125	0.154053	-0.160156
1036.0	20.103271	6.074963	-11.850756	1.604949	0.410075	0.887554	-0.452881	0.145508	-0.160156
1037.0	17.382895	6.840087	-10.483593	0.919606	-0.350259	0.738254	-0.455078	0.145508	-0.162354
1038.0	16.522809	3.138404	-8.412116	-0.383732	-1.342835	0.891134	-0.452881	0.145508	-0.157959
1039.0	16.541348	-6.969187	-10.557139	-0.979864	-2.048314	0.58656	-0.466064	0.151611	-0.140625
1040.0	15.341513	-11.643153	-9.769128	3.137876	-1.778768	-0.807957	-0.46875	0.11084	-0.144775
1041.0	2.678732	0.510816	22.623881	9.271076	-0.637597	-0.707392	-0.475586	0.061279	-0.138184
1042.0	-26.884313	6.950532	41.291778	4.446639	-2.7794	-0.479457	-0.485596	0.039551	-0.118408
1043.0	-0.242939	4.167709	14.410071	-0.944919	-6.395727	1.898769	-0.518555	0.049561	-0.07959
1044.0	37.130327	14.235268	-2.320963	4.303072	-5.479243	0.475822	-0.539307	0.023193	-0.055664
1045.0	12.752406	14.048799	-3.701938	0.74848	-1.975134	-0.802448	-0.534912	0.020996	-0.049072
1046.0	20.631072	5.206212	29.904772	-3.639236	-2.899158	-0.32733	-0.550293	0.029297	-0.027588
1047.0	33.965762	-3.970626	16.443745	-4.004883	-3.590264	0.125437	-0.562012	0.052734	-0.012451
1048.0	1.31383	-17.381244	-9.640157	-0.462133	-0.234349	-0.665945	-0.566162	0.041992	-0.012451
1049.0	4.456739	-7.78443	9.835072	4.685663	-0.429595	-0.834707	-0.560547	0.013916	-0.012451
1050.0	9.944632	7.096875	10.982541	6.168686	-0.09917	-1.192559	-0.561279	-0.022705	-0.005615
1051.0	4.666348	13.148674	13.430235	3.057562	0.39929	-1.392329	-0.558838	-0.029053	-0.003418
1052.0	5.537178	6.262031	12.875338	-2.711399	-1.398966	0.279415	-0.570557	-0.011963	-0.001465
1053.0	8.035665	-4.911227	7.469062	-5.742429	-2.01553	0.603735	-0.575439	0.00293	0.009277
1054.0	9.032457	-9.8079	1.386463	-0.182519	-0.428875	-0.290347	-0.572998	-0.001465	0.007324
1055.0	6.73827	-0.868915	7.993298	4.626694	1.342863	-0.520979	-0.565674	-0.020508	0.00293
1056.0	3.548991	3.126152	12.14505	2.318292	0.549721	-0.327068	-0.567871	-0.024902	0.007324
1057.0	5.321801	1.936241	9.916177	-1.487347	-0.558693	-0.265723	-0.572266	-0.020752	0.005127
1058.0	6.489884	-2.881415	7.532156	-2.085574	-0.598755	-0.28074	-0.574463	-0.020752	0.007324
1059.0	6.942749	-4.498147	5.376762	0.209881	0.053142	-0.373488	-0.565674	-0.022949	0.011719
1060.0	6.585842	-0.133919	7.87587	1.944377	0.670481	-0.45572	-0.562988	-0.035645	0.003174
1061.0	5.025259	2.424357	9.839882	1.482223	0.511109	-0.338303	-0.569092	-0.044434	0.005371
1062.0	5.086403	1.806482	9.52949	-0.350361	-0.132789	-0.226765	-0.56958	-0.037842	0.003174
1063.0	5.966676	-0.699898	7.97047	-0.934552	-0.300756	-0.175313	-0.569336	-0.042236	0.000977
1064.0	6.03229	-1.859954	7.229171	0.051888	-0.025076	-0.181385	-0.56958	-0.037842	0.005371
1065.0	5.637487	-0.605793	8.20671	0.558479	0.142587	-0.220652	-0.562988	-0.037842	0.005371
1066.0	5.544133	-0.52692	8.335478	0.071542	0.01052	-0.24787	-0.567139	-0.044434	0.005371
1067.0	5.790141	-1.564862	7.745755	-0.011276	0.00672	-0.286467	-0.568848	-0.052979	0.007568
1068.0	5.998917	-1.405358	7.679286	0.37311	0.150081	-0.358208	-0.571289	-0.046387	0.000977
1069.0	5.90186	-0.588077	7.985604	0.495346	0.235336	-0.397206	-0.5625	-0.050781	0.000977
1070.0	5.567816	-0.011509	8.013545	0.492004	0.276914	-0.401077	-0.562012	-0.061523	0.000977
1071.0	5.605036	0.615517	8.320359	0.477333	0.243209	-0.351297	-0.562012	-0.059326	-0.001221
1072.0	5.516329	0.806135	8.414502	0.27958	0.197166	-0.302554	-0.563965	-0.070068	-0.005371
1073.0	5.514868	0.648129	8.333586	0.124835	0.133304	-0.23975	-0.561768	-0.067871	-0.003174
1074.0	5.626498	0.505645	8.256419	0.127429	0.131472	-0.180941	-0.563721	-0.074219	-0.007568
1075.0	5.650423	0.455309	8.194262	0.101235	0.129457	-0.136521	-0.561768	-0.067871	-0.005371
1076.0	5.553942	0.268011	8.251558	0.039962	0.104466	-0.109616	-0.561523	-0.072021	-0.005371
1077.0	5.629218	-0.087326	8.193543	-0.032511	0.086249	-0.111707	-0.561523	-0.072021	-0.005371
1078.0	5.650192	-0.371439	8.137938	-0.006224	0.091173	-0.132736	-0.559326	-0.072266	0.001221
1079.0	5.643959	-0.331948	8.090659	0.096285	0.105725	-0.1562	-0.559326	-0.076416	-0.007568
1080.0	5.574052	-0.173658	8.213313	0.15539	0.126502	-0.176246	-0.559326	-0.078613	-0.007568
1081.0	5.627331	-0.078749	8.2593	0.133681	0.111168	-0.200764	-0.554932	-0.076416	-0.000977
1082.0	5.530088	-0.057346	8.2738	0.15269	0.124681	-0.231501	-0.559082	-0.078613	-0.003174
1083.0	5.489042	0.183959	8.389609	0.220012	0.116071	-0.220004	-0.55249	-0.084961	-0.009766
1084.0	5.39764	0.544357	8.595324	0.235756	0.095829	-0.202911	-0.556885	-0.080566	-0.007568
1085.0	5.230555	0.628582	8.790685	0.130273	-0.004857	-0.159437	-0.554443	-0.087158	-0.007568
1086.0	5.531414	0.516202	8.55118	-0.012433	-0.10612	-0.145017	-0.554443	-0.087158	-0.011719
1087.0	5.081102	0.627805	9.080556	-0.020252	-0.142743	-0.153766	-0.556885	-0.084961	-0.003174
1088.0	5.120425	0.400719	9.090659	-0.306803	-0.359179	-0.176408	-0.556641	-0.087158	0.001221
1089.0	5.408187	0.443261	9.068828	-0.226779	-0.500906	-0.159809	-0.556641	-0.087158	-0.000977
1090.0	5.147355	0.394321	9.422634	-0.257749	-0.685838	-0.083731	-0.561035	-0.0896	0.009766
1091.0	8.505647	-2.56292	9.098539	-0.761314	-1.580301	0.344361	-0.572266	-0.076904	0.018555
1092.0	3.558622	-1.390516	9.306897	0.131919	-0.591307	-0.468099	-0.567627	-0.085449	0.016357
1093.0	-0.869965	0.034088	10.663313	1.485045	-1.304186	-0.208462	-0.571777	-0.089844	0.035889
1094.0	7.320327	2.7062	10.73583	0.293164	-2.481297	0.022515	-0.58252	-0.092285	0.046631
1095.0	6.6807	-0.492305	9.934689	-1.122696	-2.661915	-0.067099	-0.591309	-0.090576	0.068359
1096.0	3.949643	-2.350942	9.897148	0.466152	-3.082107	-0.124816	-0.593262	-0.09082	0.092285
1097.0	2.032727	-0.242051	12.352137	1.3464	-3.470434	-0.229036	-0.608398	-0.095459	0.120361
1098.0	1.782393	0.958456	12.521095	0.44296	-4.601574	-0.119324	-0.612549	-0.098145	0.150635
1099.0	3.071016	-0.233319	11.560937	-0.164545	-5.540614	-0.045825	-0.621094	-0.098633	0.185303
1100.0	-2.324309	-2.032336	11.495849	0.124751	-6.50549	-0.333166	-0.627197	-0.105957	0.246094
1101.0	5.018151	1.863667	11.040999	0.763593	-8.643692	-0.768501	-0.626953	-0.113281	0.313232
1102.0	3.969599	3.343179	10.300697	-0.205144	-9.435869	-1.210942	-0.626465	-0.118408	0.376221
1103.0	0.596968	-0.659533	7.59737	-2.068833	-11.630603	-1.66179	-0.612305	-0.140869	0.447754
1104.0	3.188107	-4.776063	4.316515	-2.823221	-13.014972	-2.38898	-0.581055	-0.161377	0.536865
1105.0	16.78372	-0.468215	15.948903	-1.426795	-12.907539	-2.473121	-0.540771	-0.181641	0.61499
1106.0	35.233727	3.925214	6.827172	-1.317043	-12.000822	-2.049891	-0.494141	-0.205811	0.667236
1107.0	31.160765	-5.927644	10.576459	-3.500407	-7.996441	-2.298814	-0.454102	-0.221191	0.704346
1108.0	12.148381	-6.380159	13.060986	0.259605	-7.097596	-2.533419	-0.416748	-0.232422	0.741211
1109.0	22.11142	3.320089	18.63644	-0.458502	-6.805093	-1.982092	-0.381348	-0.247559	0.758789
1110.0	26.460164	0.994654	18.666278	-5.40303	-4.808468	-0.936605	-0.358398	-0.275391	0.763184
1111.0	29.366131	-7.181255	17.013861	-6.659798	-1.988226	-1.13753	-0.333496	-0.301025	0.754639
1112.0	11.290987	-17.086983	-1.095538	-1.50101	1.884611	-2.415102	-0.332764	-0.318359	0.754883
1113.0	5.339977	-18.062505	25.017734	-0.47718	2.721897	-2.017652	-0.334961	-0.320313	0.752686
1114.0	26.960078	-7.776699	11.843215	1.564939	5.644582	-0.687203	-0.36792	-0.313965	0.741699
1115.0	-8.232921	-10.505021	6.867019	2.863797	7.592436	-1.124124	-0.387695	-0.30957	0.730957
1116.0	-15.855243	-7.740329	4.593865	3.021017	5.522512	-2.250859	-0.400879	-0.301025	0.730713
1117.0	-2.644123	4.570766	8.110957	4.898787	4.327237	-1.921457	-0.414551	-0.285889	0.73291
1118.0	6.499534	13.205862	12.373604	2.40667	4.143716	-1.706433	-0.438232	-0.29248	0.721924
1119.0	2.747646	6.929392	10.88961	-6.957081	3.634368	-0.07694	-0.456787	-0.321777	0.670166
1120.0	3.93494	-5.952425	5.305204	-11.16486	3.067869	1.383689	-0.484619	-0.338379	0.615967
1121.0	10.74563	-20.877811	-2.814015	-5.302912	4.034401	1.633752	-0.504639	-0.329346	0.57251
1122.0	5.218377	-8.625188	3.462068	3.74854	6.770278	1.39616	-0.525391	-0.30542	0.539795
1123.0	3.223167	1.946713	8.752227	3.703114	6.572576	1.596693	-0.550049	-0.289795	0.505127
1124.0	3.879971	5.516904	9.171569	-0.129248	6.08983	2.203925	-0.561523	-0.276367	0.459473
1125.0	3.453862	3.765059	8.175731	-3.240337	5.539568	2.942766	-0.56665	-0.258545	0.405273
1126.0	4.000672	0.776373	7.23776	-4.060189	4.986028	3.553263	-0.573486	-0.249268	0.353027
1127.0	4.979428	-0.955465	7.041722	-3.075807	5.117097	3.851546	-0.57666	-0.229248	0.311768
1128.0	5.376825	-0.622999	8.207793	-1.801888	5.094753	4.087532	-0.574951	-0.21582	0.274902
1129.0	7.449936	0.489895	9.318533	-1.954184	4.86676	4.097758	-0.573486	-0.200439	0.244385
1130.0	8.337045	0.068883	9.415254	-1.745313	4.821376	4.034881	-0.580566	-0.187012	0.216309
1131.0	8.394588	-0.493248	9.972531	-1.401612	4.754266	3.847025	-0.590088	-0.171631	0.187988
1132.0	10.014692	-2.288023	11.193212	-1.360207	4.311456	3.710683	-0.599365	-0.154297	0.164063
1133.0	13.153009	-3.621607	10.898899	-0.517645	4.359599	3.35882	-0.615234	-0.138672	0.131348
1134.0	13.754262	-1.024968	13.348184	1.377033	4.86004	3.080889	-0.624756	-0.121094	0.105225
1135.0	15.151935	3.659354	15.790721	1.643608	4.919832	2.865076	-0.62793	-0.096924	0.057373
1136.0	17.213681	6.505491	16.239184	0.523836	4.711234	2.600694	-0.624512	-0.077148	0.022705
1137.0	17.242945	7.095131	16.171138	-1.136637	4.509832	2.394894	-0.617188	-0.046387	-0.022949
1138.0	20.646681	3.018834	14.492325	-3.252911	3.712811	2.283651	-0.596436	-0.017822	-0.059814
1139.0	18.736107	-4.783073	5.898834	-3.770098	3.659489	1.888495	-0.580322	0.008789	-0.103271
1140.0	23.215266	-2.867002	3.064692	0.294661	3.123222	1.024458	-0.55835	0.00708	-0.129395
1141.0	22.488681	2.736714	2.422516	0.917556	3.488382	0.669707	-0.536621	0.003174	-0.155273
1142.0	25.194106	6.555778	3.475195	-1.127744	2.365112	0.695332	-0.517334	0.01416	-0.168213
1143.0	24.546439	2.92629	-4.338484	-4.21588	1.722024	1.30829	-0.507324	0.035889	-0.179199
1144.0	23.040003	-1.034101	-8.497465	-3.579227	1.687814	1.206125	-0.49292	0.05542	-0.192383
1145.0	23.153712	0.497167	-10.696653	-0.872341	1.409237	0.963725	-0.490967	0.059814	-0.19873
1146.0	22.620794	2.388734	-12.616102	-0.018491	1.134142	0.998279	-0.482178	0.057861	-0.211914
1147.0	21.718483	3.076918	-14.301351	0.480062	0.744472	1.024714	-0.47998	0.057861	-0.211914
1148.0	19.346591	4.340202	-14.084665	1.892781	0.390477	0.713583	-0.483887	0.044922	-0.21167
1149.0	18.041018	5.98955	-11.474513	2.302279	-0.351596	0.374386	-0.492188	0.03418	-0.205322
1150.0	15.823321	1.659598	-12.138877	1.629575	-1.056239	0.300371	-0.498291	0.025391	-0.19873
1151.0	18.109555	-2.00073	-13.031002	3.426651	-2.712292	-0.805918	-0.514404	-0.009277	-0.187744
1152.0	5.712186	1.860189	2.981855	6.414604	-0.122451	-2.170661	-0.512207	-0.067383	-0.176514
1153.0	-26.742703	8.870112	46.183009	5.44601	-2.134334	-1.987896	-0.535156	-0.087158	-0.154785
1154.0	8.40685	4.67238	16.2886	-2.746152	-7.068357	0.63285	-0.572754	-0.072754	-0.11377
1155.0	40.407361	0.755736	-5.343695	1.026055	-5.183065	0.512694	-0.591797	-0.081787	-0.092041
1156.0	7.853008	4.394308	2.354656	3.421278	-1.706706	-1.589308	-0.599609	-0.10791	-0.07251
1157.0	24.365422	12.878906	26.364518	0.054097	-3.538323	-0.655895	-0.614746	-0.106201	-0.048584
1158.0	30.69551	2.183018	17.776656	-4.215875	-3.266921	0.652344	-0.62207	-0.089111	-0.042236
1159.0	2.847628	-14.340271	-3.553232	-2.439727	-0.820335	-0.395919	-0.624268	-0.086914	-0.042236
1160.0	2.125486	-7.524856	7.134885	4.041929	-0.868618	-0.880669	-0.627686	-0.113037	-0.022705
1161.0	12.591339	6.488744	12.273973	5.031382	-0.516785	-1.159734	-0.624268	-0.141113	-0.009521
1162.0	5.649427	10.211678	10.835859	1.736225	0.199856	-1.370692	-0.626221	-0.145508	-0.013916
1163.0	6.514775	3.638485	11.923574	-2.082941	-0.858915	0.044274	-0.633057	-0.136963	-0.007324
1164.0	8.354216	-4.115001	6.91211	-3.585458	-1.285686	0.107346	-0.62915	-0.128174	-0.011719
1165.0	8.787553	-4.59473	4.154085	0.961925	0.225237	-0.347762	-0.628906	-0.132568	-0.009521
1166.0	5.687875	1.019364	9.337263	3.23441	1.022768	-0.383424	-0.624268	-0.141113	-0.020264
1167.0	5.155891	2.981112	10.902751	0.621992	0.090636	-0.215796	-0.626465	-0.143311	-0.011719
1168.0	5.993054	0.096631	8.517082	-1.73955	-0.389783	-0.131342	-0.628418	-0.143311	-0.007324
1169.0	5.97047	-2.993383	7.331909	-1.028386	-0.251678	-0.147692	-0.62207	-0.143311	-0.013916
1170.0	6.276934	-2.043438	7.314692	0.68585	0.152511	-0.204766	-0.62207	-0.143311	-0.013916
1171.0	5.440902	-0.041861	8.697052	0.765044	0.234971	-0.211327	-0.626221	-0.149658	-0.013672
1172.0	5.744345	0.203428	8.591391	-0.001181	-0.05859	-0.176356	-0.621582	-0.15625	-0.013672
1173.0	6.061357	-0.857042	7.842697	-0.190079	-0.076423	-0.111715	-0.628174	-0.149658	-0.009521
1174.0	5.902713	-0.939155	7.882192	0.155218	0.036366	-0.090741	-0.628174	-0.151855	-0.009521
1175.0	5.697098	-0.558858	8.203865	0.138745	0.020809	-0.084089	-0.626221	-0.149902	-0.007324
1176.0	5.824987	-0.922057	7.928323	-0.011504	-0.010892	-0.082261	-0.623535	-0.158447	-0.011475
1177.0	5.728361	-0.960144	7.899994	0.152248	0.049432	-0.102417	-0.624023	-0.149658	-0.009521
1178.0	5.53802	-0.958071	8.109949	0.103729	0.03657	-0.112648	-0.625732	-0.158447	-0.007324
1179.0	5.765516	-1.333463	7.802743	0.047988	0.02556	-0.140746	-0.619385	-0.15625	-0.011475
1180.0	5.901875	-1.00275	7.766879	0.271302	0.113581	-0.17639	-0.625977	-0.15625	-0.009521
1181.0	5.842044	-0.444319	8.062196	0.317393	0.161359	-0.188962	-0.619141	-0.158447	-0.005127
1182.0	5.736552	-0.313141	8.206107	0.191332	0.128168	-0.18533	-0.614502	-0.166748	-0.013672
1183.0	5.755276	-0.170745	8.109171	0.227804	0.132558	-0.178969	-0.623291	-0.166992	-0.011475
1184.0	5.84142	0.239872	8.259033	0.265385	0.155029	-0.154128	-0.619141	-0.162598	-0.013672
1185.0	5.766113	0.399133	8.338959	0.135653	0.123827	-0.117006	-0.625244	-0.169189	-0.005127
1186.0	5.868424	0.202311	8.285339	-0.008357	0.077832	-0.078059	-0.618896	-0.168945	-0.013672
1187.0	5.833891	-0.362695	8.069697	-0.107874	0.044125	-0.072903	-0.618652	-0.171143	-0.018066
1188.0	5.71116	-1.098322	7.970521	-0.076188	0.025947	-0.122923	-0.616699	-0.171143	-0.013672
1189.0	5.880747	-1.152388	7.802274	0.133615	0.074144	-0.188507	-0.616699	-0.171143	-0.018066
1190.0	5.750007	-0.595676	8.054832	0.303425	0.128166	-0.227447	-0.618896	-0.168945	-0.011475
1191.0	5.7202	-0.433066	8.210762	0.22196	0.084267	-0.260749	-0.612061	-0.175537	-0.009277
1192.0	5.786231	-0.782346	8.135135	0.124425	0.059729	-0.301728	-0.612061	-0.177734	-0.011475
1193.0	5.709554	-0.625259	8.121716	0.331732	0.077829	-0.32441	-0.614014	-0.179688	-0.011475
1194.0	5.627003	-0.050294	8.421939	0.42116	0.066108	-0.328269	-0.618164	-0.186279	-0.004883
1195.0	5.329012	0.530168	8.547265	0.346218	-0.000452	-0.339172	-0.615967	-0.186279	-0.004883
1196.0	5.215685	0.604426	9.1823	0.02696	-0.159499	-0.354162	-0.61377	-0.186279	-0.013672
1197.0	5.773047	0.018754	8.491581	-0.340283	-0.355914	-0.369705	-0.615967	-0.188477	-0.004883
1198.0	5.926869	-0.088389	8.239067	-0.099103	-0.356075	-0.351695	-0.613525	-0.192871	-0.00708
1199.0	5.533879	0.291508	8.752892	-0.019704	-0.419291	-0.29836	-0.619873	-0.195068	-0.000488
1200.0	8.663428	-2.389921	9.028962	-0.372473	-0.985851	0.053937	-0.615723	-0.190918	0.008057
1201.0	4.762895	-0.889716	6.489452	0.100619	-0.505488	-0.395346	-0.624023	-0.203613	0.003906
1202.0	0.301121	0.304207	10.975296	2.139374	-0.287612	-0.169659	-0.623779	-0.208252	0.025635
1203.0	7.520872	4.255028	10.546428	2.111573	-1.558835	0.03869	-0.623779	-0.206299	0.029785
1204.0	5.869422	4.369088	10.421449	-0.806337	-1.493174	0.140206	-0.632568	-0.204102	0.038574
1205.0	2.692313	0.943779	11.053575	-1.2909	-2.420942	0.416548	-0.645752	-0.200195	0.060059
1206.0	5.980383	0.074289	8.64399	-0.498332	-3.120299	0.57595	-0.650391	-0.194092	0.081787
1207.0	4.175773	-0.983611	10.388028	0.212799	-3.034116	0.576745	-0.667969	-0.188232	0.109863
1208.0	2.896599	-0.618513	11.001636	0.403964	-3.738881	0.40024	-0.667725	-0.192871	0.140137
1209.0	3.686404	-0.400828	11.712742	0.285308	-4.525677	0.452547	-0.683105	-0.182617	0.177002
1210.0	3.775664	-1.57531	11.410195	-0.185469	-5.352829	0.348149	-0.698486	-0.176758	0.216064
1211.0	4.658085	-2.571484	10.890967	-0.131759	-6.192779	0.191638	-0.700439	-0.181641	0.261475
1212.0	0.362222	-3.729204	11.45935	0.770224	-6.799556	-0.128771	-0.706787	-0.184814	0.324463
1213.0	-0.235774	-2.159511	11.013453	1.413201	-8.366453	-0.370537	-0.704346	-0.185791	0.393799
1214.0	2.282811	-0.860062	9.584365	0.974965	-9.855069	-0.392618	-0.697754	-0.182373	0.476074
1215.0	4.602214	-0.293628	8.424928	0.4559	-11.012934	-0.607783	-0.675781	-0.185791	0.567139
1216.0	9.43313	2.695792	12.218949	-0.629066	-12.081944	-0.596555	-0.646729	-0.199707	0.654053
1217.0	23.395764	6.219351	-0.204089	-1.211349	-13.355425	-0.751025	-0.594238	-0.200684	0.738525
1218.0	47.725281	7.936058	15.306484	-4.662134	-10.807263	-0.708239	-0.564941	-0.227051	0.775635
1219.0	17.381526	-11.871238	12.616714	-6.052565	-6.159616	-0.879808	-0.533203	-0.255127	0.801758
1220.0	19.065356	-9.047554	15.071795	-0.942131	-6.950236	-1.888548	-0.49585	-0.263916	0.830078
1221.0	31.835689	-1.366163	17.944811	-3.092916	-4.453691	-1.276537	-0.475586	-0.28125	0.834473
1222.0	20.793519	-7.475078	16.262068	-4.157642	-0.914368	-1.539194	-0.474854	-0.30249	0.823975
1223.0	11.8597	-5.385428	8.161804	-0.322776	0.592012	-3.338232	-0.469727	-0.321777	0.815186
1224.0	2.298312	-5.366426	24.208807	-1.423648	3.031075	-3.727591	-0.466553	-0.344971	0.785156
1225.0	19.425375	-0.725063	19.579855	-3.627319	2.62334	-2.805458	-0.474365	-0.374756	0.750488
1226.0	2.214415	-9.584851	7.783985	-3.444118	5.461052	-2.536875	-0.48877	-0.395508	0.698486
1227.0	-8.063931	-13.937485	2.236787	-1.612947	4.009154	-2.813743	-0.481689	-0.412354	0.66626
1228.0	0.045933	-6.150163	7.343249	1.166165	3.906464	-2.279341	-0.488037	-0.418457	0.637939
1229.0	6.962222	-1.536578	9.519947	-0.410209	3.469501	-1.632955	-0.494141	-0.430908	0.616455
1230.0	4.178897	-6.092358	7.679935	-3.267265	3.607235	-0.617541	-0.493896	-0.438965	0.572998
1231.0	4.735049	-11.952027	4.870701	-2.673874	3.769885	0.207874	-0.49585	-0.449219	0.529785
1232.0	4.182201	-9.085625	4.826123	0.392372	5.007345	0.746219	-0.504639	-0.446533	0.497314
1233.0	4.899507	-3.837488	8.642422	0.963992	5.138084	1.359722	-0.511719	-0.437744	0.468994
1234.0	4.936075	-0.468361	6.593514	0.303824	5.501779	1.855276	-0.5271	-0.435059	0.436523
1235.0	2.162892	-0.000442	7.646732	-0.260663	5.57489	2.382338	-0.527344	-0.428223	0.406006
1236.0	3.241196	0.29665	6.994191	-1.127003	5.535072	2.734757	-0.536377	-0.423584	0.366943
1237.0	2.433697	0.582825	7.010854	-1.067185	5.573796	2.956567	-0.545654	-0.412354	0.332275
1238.0	2.350212	1.761244	8.388467	-1.265171	5.642882	3.087804	-0.557129	-0.398926	0.303955
1239.0	6.851714	2.839257	9.366818	-2.090192	5.074049	3.378322	-0.574707	-0.396484	0.273682
1240.0	7.520732	2.149569	9.664421	-2.69372	5.259046	3.516544	-0.590332	-0.385254	0.230225
1241.0	8.034871	-0.792631	8.622406	-2.971872	4.79404	3.737835	-0.608643	-0.363281	0.195313
1242.0	9.432972	-3.071209	7.389541	-2.065686	4.849931	3.558497	-0.631592	-0.334961	0.15625
1243.0	10.680903	-3.380493	8.585048	-0.237466	5.042532	3.410692	-0.654297	-0.315186	0.116943
1244.0	11.639591	-1.189128	10.001075	0.607829	5.175001	3.177296	-0.655518	-0.288574	0.069336
1245.0	12.731344	0.746595	12.41332	0.811202	5.128285	3.102922	-0.65625	-0.270996	0.032227
1246.0	13.162502	2.101055	13.042983	0.280615	4.99725	3.010109	-0.644043	-0.248779	-0.004639
1247.0	15.935697	1.550692	15.460614	-0.976378	4.529408	3.022833	-0.640381	-0.235352	-0.045898
1248.0	19.817617	-1.159479	13.37457	-1.703733	4.470335	3.113085	-0.616943	-0.219727	-0.074219
1249.0	20.373692	-1.126876	11.756937	-0.472054	4.878929	2.977988	-0.606445	-0.210693	-0.102295
1250.0	22.075861	1.299968	11.448212	-0.070011	4.678231	2.798744	-0.588867	-0.216797	-0.132568
1251.0	20.294112	2.207256	8.676863	-0.384534	4.53122	2.468975	-0.575928	-0.214355	-0.154297
1252.0	21.923901	1.346809	6.564585	-1.467853	3.738166	2.174076	-0.570068	-0.203125	-0.173828
1253.0	23.412209	-1.598319	1.782944	-1.963045	3.182053	1.767489	-0.570068	-0.200684	-0.195557
1254.0	25.33946	-0.740049	-1.025404	-0.569497	2.874317	1.218662	-0.572021	-0.209229	-0.215088
1255.0	24.555058	1.48445	-3.626478	0.401714	2.694973	0.922563	-0.567139	-0.219727	-0.223633
1256.0	23.948877	2.857223	-6.809862	0.3314	2.016745	0.601791	-0.577881	-0.228271	-0.22998
1257.0	24.500613	4.708651	-10.53244	0.101376	1.265165	0.481351	-0.581787	-0.236816	-0.236572
1258.0	24.99197	6.098038	-12.541942	-0.114957	0.741849	0.781212	-0.592773	-0.239014	-0.240967
1259.0	23.745558	5.538003	-13.289146	-0.745626	0.155331	1.194222	-0.605957	-0.232422	-0.247314
1260.0	22.707623	2.937491	-14.111389	-1.126999	-0.63528	1.403275	-0.625732	-0.230225	-0.251709
1261.0	21.487656	-0.333047	-13.895161	-0.488434	-1.185297	1.311704	-0.643066	-0.228271	-0.249756
1262.0	18.463942	-4.232308	-14.206593	0.761601	-1.280126	0.778463	-0.666504	-0.241455	-0.234375
1263.0	16.783625	-3.366279	-13.049801	4.158146	-2.338511	-0.313102	-0.68457	-0.282715	-0.210449
1264.0	5.945164	2.218015	8.343836	6.571078	-0.01334	-0.534052	-0.693359	-0.33252	-0.197266
1265.0	-27.417924	4.798592	45.090623	4.851149	-2.789479	-0.193234	-0.729004	-0.365479	-0.151611
1266.0	4.042428	5.173431	18.510905	-0.123087	-6.362354	1.631735	-0.787842	-0.364258	-0.106201
1267.0	35.496873	11.468337	-1.758367	3.142175	-5.414018	0.507628	-0.805908	-0.401611	-0.053955
1268.0	6.093148	11.140125	-2.748506	1.892213	-1.696202	-1.312615	-0.813721	-0.423096	-0.047363
1269.0	20.499436	10.724991	27.658843	-3.056982	-3.631006	-0.2399	-0.844482	-0.417236	-0.021484
1270.0	37.637353	-1.388395	22.329325	-7.909353	-5.16915	1.221036	-0.861328	-0.374268	-0.02832
1271.0	5.238933	-28.268377	-17.221432	-5.087459	-1.850589	0.239784	-0.863281	-0.378662	-0.019531
1272.0	3.881727	-13.367048	4.727745	8.04856	0.530398	-1.306975	-0.859131	-0.428467	0.019775
1273.0	11.395782	11.510939	14.890068	10.758371	1.192565	-2.124246	-0.852539	-0.480713	0.05249
1274.0	3.444419	18.759075	14.771691	3.6115	0.17745	-1.885239	-0.852051	-0.49585	0.059082
1275.0	5.486496	7.707863	12.680699	-5.593294	-1.845047	0.66834	-0.862061	-0.463379	0.039307
1276.0	8.280273	-5.763516	6.943753	-8.033765	-2.460709	1.035691	-0.869385	-0.443848	0.02417
1277.0	9.260809	-13.338038	-0.445208	0.275838	-0.228609	-0.329714	-0.866455	-0.458984	0.039307
1278.0	6.928845	-1.747972	7.590956	4.918523	1.397202	-0.646744	-0.865967	-0.476318	0.041504
1279.0	4.73364	2.785431	11.407465	2.87424	0.901365	-0.511525	-0.861084	-0.489258	0.050293
1280.0	4.873102	2.761282	10.196543	-0.260649	-0.114329	-0.361895	-0.865479	-0.484863	0.048096
1281.0	6.000334	-0.391591	8.616086	-2.239937	-0.555484	-0.29722	-0.861328	-0.482666	0.032959
1282.0	6.773017	-3.156033	6.098633	-0.843011	-0.224797	-0.286404	-0.863281	-0.487061	0.039551
1283.0	6.45486	-1.209403	7.333939	1.431031	0.459057	-0.306854	-0.86084	-0.493408	0.039551
1284.0	5.361559	1.512167	9.315988	1.394354	0.440784	-0.248358	-0.856445	-0.497559	0.037354
1285.0	5.392043	1.96928	9.467667	0.133159	-0.035487	-0.122229	-0.856445	-0.495605	0.043945
1286.0	5.650242	-0.069206	8.558518	-0.838806	-0.30494	-0.034832	-0.863037	-0.495605	0.037354
1287.0	6.020375	-2.117903	7.314776	-0.577749	-0.278225	-0.037915	-0.858643	-0.497803	0.041748
1288.0	6.196315	-2.142405	7.248862	0.277498	0.009046	-0.100615	-0.858643	-0.495605	0.050293
1289.0	5.665653	-0.888289	8.157121	0.468568	0.12967	-0.144943	-0.856201	-0.501953	0.046143
1290.0	5.637326	-0.594112	8.237958	0.118112	0.01846	-0.158438	-0.860596	-0.5	0.043945
1291.0	5.921017	-1.20625	7.731575	0.025282	0.013943	-0.186726	-0.860596	-0.5	0.046143
1292.0	5.88171	-0.873221	7.838244	0.317656	0.12655	-0.220591	-0.860352	-0.506348	0.043945
1293.0	5.783349	-0.085845	8.194364	0.375451	0.158868	-0.227332	-0.85376	-0.508301	0.039551
1294.0	5.703184	0.183903	8.302586	0.186612	0.092591	-0.218013	-0.855957	-0.506348	0.043945
1295.0	5.811999	-0.02406	8.174146	0.056305	0.043239	-0.194474	-0.851318	-0.512695	0.041748
1296.0	5.881294	-0.230601	7.968156	0.045698	0.054351	-0.20084	-0.851318	-0.514893	0.037598
1297.0	5.945537	-0.327339	7.885017	0.044952	0.084623	-0.204202	-0.857666	-0.519287	0.043945
1298.0	5.885813	-0.440434	7.9308	0.027558	0.097658	-0.204928	-0.855713	-0.514893	0.041748
1299.0	5.914786	-0.648416	7.958726	0.011931	0.124496	-0.231045	-0.855469	-0.521484	0.041748
1300.0	5.635921	-0.89126	8.043569	0.077184	0.159195	-0.243703	-0.855469	-0.523438	0.039795
1301.0	5.967728	-0.530068	7.998309	0.214784	0.165325	-0.280624	-0.846436	-0.531982	0.037598
1302.0	5.546086	-0.58591	8.253688	0.139136	0.187766	-0.27687	-0.848633	-0.529785	0.0354
1303.0	5.888545	-0.178945	8.080671	0.27001	0.14398	-0.301384	-0.846436	-0.531982	0.033203
1304.0	5.573292	-0.09948	8.294133	0.224232	0.166676	-0.272944	-0.846191	-0.53418	0.0354
1305.0	5.72946	0.108053	8.355907	0.23806	0.091111	-0.264212	-0.846191	-0.536377	0.039795
1306.0	5.519074	-0.023864	8.426581	0.130645	0.065059	-0.252374	-0.843994	-0.538574	0.041992
1307.0	5.582818	0.065862	8.305119	0.18457	0.017459	-0.222768	-0.841553	-0.544922	0.039795
1308.0	5.671695	0.509384	8.652698	0.179187	-0.001028	-0.252323	-0.839111	-0.547119	0.037598
1309.0	4.977144	-0.04014	9.071224	-0.197975	-0.121816	-0.268691	-0.841309	-0.547119	0.039795
1310.0	5.826794	0.489225	8.594422	-0.05212	-0.293775	-0.250207	-0.843506	-0.549316	0.039795
1311.0	5.521568	0.821114	8.829628	-0.127155	-0.32058	-0.175996	-0.843506	-0.547119	0.041992
1312.0	5.082726	-0.110035	9.356927	-0.437971	-0.609788	-0.092457	-0.8479	-0.545166	0.048584
1313.0	8.081065	-2.995475	8.790642	-0.582992	-1.205151	0.146483	-0.852539	-0.538818	0.052734
1314.0	5.17292	-1.171585	7.156554	0.06871	-0.812295	-0.289317	-0.852295	-0.545166	0.059326
1315.0	0.083481	-0.608853	11.06212	1.992399	-0.488021	-0.158149	-0.854004	-0.556396	0.0896
1316.0	6.980575	3.160941	11.10866	1.782875	-1.874841	-0.031152	-0.866943	-0.556641	0.109131
1317.0	5.933889	2.39953	10.409209	-0.848683	-2.072955	0.003037	-0.864746	-0.556885	0.122314
1318.0	3.918557	-0.842589	10.45087	-0.853786	-2.950021	0.19443	-0.871826	-0.544434	0.150391
1319.0	3.884154	-1.428747	9.498598	0.469224	-3.16647	0.104754	-0.880127	-0.547119	0.187256
1320.0	2.208326	-0.396216	11.597143	1.057063	-3.528562	0.091238	-0.890869	-0.552002	0.228271
1321.0	2.97247	0.675106	11.981374	0.5389	-4.596926	0.102863	-0.895264	-0.550537	0.282471
1322.0	5.326798	-0.862415	11.513475	-0.527771	-5.771666	0.134114	-0.903809	-0.549316	0.334473
