Acquisition frequency: 100 Hz
PacketCounter	Acc_X	Acc_Y	Acc_Z	Gyr_X	Gyr_Y	Gyr_Z	Mag_X	Mag_Y	Mag_Z
0.0	9.507993	-1.632335	2.798838	0.008768	0.017934	-0.005492	-0.535889	0.250488	-0.659668
1.0	9.498516	-1.590534	2.802585	0.009542	0.018483	-0.000236	-0.533447	0.248291	-0.657227
2.0	9.481647	-1.608044	2.80537	0.012269	0.017922	-0.00498	-0.538086	0.248291	-0.659668
3.0	9.481146	-1.607551	2.807346	0.008614	0.020223	0.000754	-0.538086	0.250488	-0.659668
4.0	9.480601	-1.607247	2.809358	0.003933	0.020095	-0.003448	-0.538086	0.252686	-0.659668
5.0	9.507745	-1.600049	2.791906	0.005117	0.020237	0.000238	-0.538086	0.250488	-0.657471
6.0	9.493608	-1.618885	2.829227	0.006609	0.020897	0.000205	-0.544922	0.252686	-0.662109
7.0	9.490208	-1.617846	2.796801	0.007642	0.018232	0.001362	-0.535889	0.254883	-0.659912
8.0	9.517481	-1.610713	2.778937	0.005439	0.012364	-0.002095	-0.54248	0.250488	-0.668945
9.0	9.514811	-1.64056	2.797158	0.006564	0.017165	-0.000178	-0.542725	0.252686	-0.664307
10.0	9.483833	-1.646162	2.783969	0.010374	0.017671	-0.003382	-0.540527	0.254883	-0.657471
11.0	9.527475	-1.620509	2.765669	0.014849	0.019651	-0.003478	-0.540283	0.248291	-0.650391
12.0	9.52925	-1.589732	2.751085	0.01243	0.020732	-0.002458	-0.540527	0.254883	-0.659912
13.0	9.52135	-1.648492	2.752305	0.014438	0.02006	-0.001911	-0.535889	0.250488	-0.662109
14.0	9.479059	-1.642754	2.7578	0.014393	0.016327	-0.00229	-0.542725	0.254883	-0.664551
15.0	9.469614	-1.600844	2.7614	0.017893	0.016316	-0.001774	-0.533447	0.248535	-0.666504
16.0	9.506021	-1.634455	2.741853	0.020268	0.011502	-0.003174	-0.535889	0.250488	-0.655029
17.0	9.505807	-1.633557	2.743128	0.023722	0.007757	-0.003035	-0.537842	0.246094	-0.664063
18.0	9.522032	-1.614653	2.743354	0.021817	0.007506	-0.001435	-0.540283	0.250488	-0.662109
19.0	9.494155	-1.620747	2.763734	0.022747	0.005765	-0.002425	-0.531006	0.246094	-0.659424
20.0	9.493985	-1.620028	2.764741	0.021405	0.007915	0.000132	-0.538086	0.248291	-0.664307
21.0	9.493764	-1.619324	2.76591	0.024804	0.008828	-0.001503	-0.540039	0.246094	-0.664063
22.0	9.477097	-1.636701	2.768124	0.023461	0.010979	0.001053	-0.533447	0.248291	-0.664307
23.0	9.479174	-1.605768	2.752601	0.029652	0.006667	-0.003546	-0.53125	0.250732	-0.666748
24.0	9.501571	-1.627435	2.716992	0.02562	0.013121	0.004122	-0.538086	0.248291	-0.666504
25.0	9.522568	-1.579507	2.735654	0.027374	0.018951	-0.001412	-0.538086	0.250488	-0.662109
26.0	9.535683	-1.559829	2.702697	0.02243	0.022036	-0.001526	-0.533691	0.25293	-0.662109
27.0	9.529228	-1.549406	2.79249	0.023925	0.022697	-0.001562	-0.535889	0.250488	-0.662109
28.0	9.509473	-1.565986	2.761513	0.018003	0.023789	-0.001062	-0.533447	0.248291	-0.659668
29.0	9.522964	-1.577261	2.779878	0.01585	0.021647	-0.004136	-0.533447	0.248291	-0.659668
30.0	9.489187	-1.581884	2.732833	0.012497	0.024471	-0.002134	-0.538086	0.248291	-0.661865
31.0	9.50546	-1.593994	2.785315	0.009318	0.016601	-0.004961	-0.537842	0.246094	-0.668701
32.0	9.519157	-1.605143	2.803022	0.011228	0.016852	-0.006563	-0.54248	0.248291	-0.666504
33.0	9.476958	-1.599188	2.808108	0.009834	0.01527	-0.004379	-0.535645	0.248291	-0.657227
34.0	9.487998	-1.609893	2.791086	0.005454	0.012367	-0.00213	-0.544922	0.250488	-0.659668
35.0	9.504072	-1.591447	2.791504	0.006948	0.013028	-0.002163	-0.533447	0.246094	-0.661865
36.0	9.490017	-1.609717	2.828282	0.009836	0.015271	-0.004381	-0.54248	0.250488	-0.662109
37.0	9.47055	-1.626289	2.796521	0.010301	0.018595	-0.005583	-0.535889	0.250488	-0.664307
38.0	9.509191	-1.630021	2.760934	0.01101	0.023814	-0.002112	-0.54248	0.250488	-0.657471
39.0	9.485788	-1.606845	2.800341	0.010816	0.025656	-0.00642	-0.538086	0.248291	-0.664307
40.0	9.512917	-1.599359	2.78364	0.008073	0.026228	-0.001685	-0.538086	0.248291	-0.666504
41.0	9.509571	-1.598246	2.751846	0.008074	0.026229	-0.001687	-0.535645	0.248291	-0.659668
42.0	9.536988	-1.621982	2.78625	0.000191	0.023333	4e-05	-0.54248	0.248291	-0.666504
43.0	9.538749	-1.5918	2.771492	0.005556	0.01984	-0.001405	-0.531006	0.246094	-0.661865
44.0	9.538262	-1.591475	2.773354	0.004995	0.017436	-0.002356	-0.533447	0.250732	-0.666748
45.0	9.521439	-1.609205	2.775902	0.005509	0.016105	-0.001771	-0.529053	0.250732	-0.671387
46.0	9.521062	-1.608846	2.777405	0.004948	0.013701	-0.002722	-0.540283	0.250488	-0.664307
47.0	9.534484	-1.589616	2.743624	0.003921	0.016364	-0.003895	-0.533447	0.248535	-0.668945
48.0	9.497207	-1.554598	2.766123	0.001819	0.017953	-0.006603	-0.535645	0.248535	-0.673584
49.0	9.51733	-1.606431	2.747873	0.005834	0.016614	-0.005495	-0.535645	0.243896	-0.67334
50.0	9.521819	-1.576507	2.767369	0.002944	0.022763	-0.004705	-0.540283	0.248291	-0.661865
51.0	9.521267	-1.575751	2.769696	0.006257	0.024595	-0.008491	-0.535645	0.248535	-0.673584
52.0	9.50693	-1.593375	2.807421	0.00859	0.024435	-0.011659	-0.529053	0.250732	-0.668945
53.0	9.492337	-1.580276	2.794004	0.008315	0.027663	-0.007576	-0.540283	0.248291	-0.655029
54.0	9.491591	-1.579277	2.797101	0.008832	0.034725	-0.008421	-0.535889	0.25293	-0.664307
55.0	9.521249	-1.571957	2.815438	0.006639	0.028842	-0.011859	-0.533447	0.246094	-0.666504
56.0	9.495029	-1.547718	2.820872	0.003422	0.034484	-0.007354	-0.533447	0.250488	-0.662109
57.0	9.486979	-1.606203	2.823292	0.002302	0.029674	-0.009255	-0.533447	0.250488	-0.659668
58.0	9.521464	-1.569853	2.859158	0.003426	0.034485	-0.00736	-0.533447	0.246094	-0.664063
59.0	9.501775	-1.586309	2.828795	0.004782	0.032332	-0.009908	-0.533447	0.250488	-0.662109
60.0	9.484676	-1.603389	2.832614	0.002309	0.029676	-0.009262	-0.540283	0.248291	-0.671143
61.0	9.484039	-1.602303	2.835359	0.005672	0.026853	-0.011251	-0.53125	0.248535	-0.668945
62.0	9.511307	-1.594382	2.818859	0.00483	0.027677	-0.00812	-0.53125	0.248535	-0.671143
63.0	9.45735	-1.577212	2.842704	0.000302	0.021952	-0.008392	-0.531494	0.25293	-0.666748
64.0	9.468362	-1.58758	2.826545	0.006791	0.023273	-0.007922	-0.533447	0.248535	-0.666504
65.0	9.486641	-1.538529	2.811001	-0.000768	0.020878	-0.009933	-0.533447	0.250732	-0.666748
66.0	9.453435	-1.573845	2.81468	-0.000207	0.023285	-0.008986	-0.535889	0.250732	-0.668945
67.0	9.499676	-1.548827	2.831118	-0.001659	0.017965	-0.00716	-0.526855	0.250732	-0.664307
68.0	9.51084	-1.55925	2.814498	-0.003329	0.019141	-0.011445	-0.529053	0.250732	-0.666748
69.0	9.468598	-1.553408	2.819215	-0.003151	0.017302	-0.007133	-0.53125	0.246338	-0.668701
70.0	9.493755	-1.575893	2.818543	-0.002727	0.016891	-0.008701	-0.535889	0.250732	-0.673584
71.0	9.491023	-1.574602	2.785553	-0.007632	0.015312	-0.007049	-0.533447	0.248291	-0.659668
72.0	9.474406	-1.591988	2.787625	-0.000856	0.013406	-0.010655	-0.538086	0.248291	-0.668945
73.0	9.492881	-1.573778	2.822664	0.002867	0.0153	-0.005451	-0.529053	0.248535	-0.661865
74.0	9.490163	-1.603174	2.840964	-0.003708	0.014897	-0.008085	-0.538086	0.250488	-0.666748
75.0	9.489916	-1.602473	2.842184	-0.00226	0.011823	-0.008472	-0.533203	0.243896	-0.661865
76.0	9.475776	-1.589839	2.827106	-0.001749	0.010492	-0.007883	-0.533447	0.250732	-0.666748
77.0	9.491905	-1.601805	2.878676	-0.000679	0.011567	-0.006345	-0.533447	0.246094	-0.668701
78.0	9.472972	-1.618567	2.84607	-0.000254	0.011156	-0.007911	-0.533447	0.250732	-0.668945
79.0	9.491523	-1.569779	2.829451	-0.000167	0.010236	-0.005755	-0.531006	0.243896	-0.664063
80.0	9.502872	-1.611154	2.863428	0.003333	0.010233	-0.00522	-0.535645	0.246094	-0.666504
81.0	9.463188	-1.575768	2.850382	0.000518	0.007065	-0.000851	-0.535889	0.25293	-0.664307
82.0	9.486186	-1.628542	2.865725	0.00879	0.005824	-0.004481	-0.535645	0.246094	-0.668701
83.0	9.488472	-1.598018	2.849505	0.010457	0.004649	-0.000195	-0.531494	0.25293	-0.666748
84.0	9.476727	-1.586433	2.868537	0.01144	0.006644	-0.000813	-0.535889	0.25293	-0.664307
85.0	9.47656	-1.58615	2.869246	0.012038	0.004393	0.001934	-0.533447	0.246094	-0.661865
86.0	9.527501	-1.601616	2.814198	0.013108	0.005469	0.003472	-0.533447	0.248535	-0.671143
87.0	9.473763	-1.585469	2.83629	0.011747	0.007624	0.006013	-0.524414	0.246338	-0.666504
88.0	9.512933	-1.620514	2.851254	0.015075	0.00946	0.002233	-0.533691	0.25293	-0.666748
89.0	9.47556	-1.585803	2.872738	0.016948	0.005974	0.000282	-0.531006	0.246338	-0.666504
90.0	9.489342	-1.597409	2.889548	0.010546	0.00373	0.001961	-0.535645	0.246094	-0.666504
91.0	9.486904	-1.596477	2.855581	0.013402	0.002239	-0.000609	-0.535645	0.246094	-0.671143
92.0	9.503176	-1.577977	2.85528	0.016477	0.002648	0.001492	-0.538086	0.248291	-0.664307
93.0	9.48913	-1.565863	2.839626	0.014558	0.002397	0.003086	-0.533203	0.243896	-0.666504
94.0	9.502898	-1.577418	2.856514	0.017934	0.00797	-0.000341	-0.535645	0.248291	-0.664307
95.0	9.525909	-1.599325	2.820884	0.018871	0.006226	-0.001316	-0.535889	0.250488	-0.666748
96.0	9.486038	-1.594436	2.859595	0.017605	0.01586	0.001929	-0.533447	0.250732	-0.664307
97.0	9.499674	-1.574982	2.82606	0.021739	0.01313	-0.005338	-0.529053	0.248535	-0.666504
98.0	9.485314	-1.592721	2.862951	0.022384	0.01462	-0.002237	-0.533691	0.255127	-0.669189
99.0	9.482601	-1.591248	2.83031	0.021875	0.015952	-0.002831	-0.529053	0.250732	-0.662109
100.0	9.484523	-1.590997	2.866528	0.018886	0.014623	-0.002775	-0.535889	0.250488	-0.664307
101.0	9.470254	-1.578372	2.851926	0.019908	0.011963	-0.00159	-0.533447	0.250488	-0.662109
102.0	9.511919	-1.582724	2.850149	0.019388	0.004899	-0.000726	-0.533447	0.248535	-0.673584
103.0	9.481444	-1.588461	2.835746	0.017005	0.009718	0.000624	-0.531494	0.25293	-0.666748
104.0	9.511476	-1.581635	2.852234	0.018368	0.00756	-0.001914	-0.538086	0.248291	-0.666504
105.0	9.480923	-1.587475	2.838038	0.015643	0.011877	0.003159	-0.531494	0.25293	-0.666748
106.0	9.48536	-1.557517	2.856762	0.021787	0.008475	-0.00354	-0.533447	0.248535	-0.666504
107.0	9.496777	-1.567937	2.839682	0.019356	0.009555	-0.00254	-0.531006	0.246094	-0.661865
108.0	9.480227	-1.585304	2.841575	0.020378	0.006896	-0.001353	-0.537842	0.246094	-0.666504
109.0	9.498685	-1.566912	2.876239	0.020295	0.007811	-0.003514	-0.533691	0.25293	-0.664307
110.0	9.479852	-1.583521	2.843818	0.020771	0.011136	-0.004733	-0.535645	0.248535	-0.671143
111.0	9.495793	-1.594928	2.895814	0.020855	0.010222	-0.002575	-0.53125	0.248535	-0.673584
112.0	9.509572	-1.575261	2.862092	0.02475	0.014461	-0.00542	-0.538086	0.25293	-0.671387
113.0	9.502353	-1.533371	2.899307	0.02278	0.010473	-0.004172	-0.533203	0.243896	-0.668701
114.0	9.467158	-1.567933	2.867916	0.024194	0.012052	-0.006364	-0.528809	0.244141	-0.666504
115.0	9.478609	-1.577948	2.851049	0.022142	0.008978	-0.007275	-0.535645	0.243896	-0.664063
116.0	9.492349	-1.588388	2.868579	0.023129	0.010973	-0.007902	-0.535889	0.250732	-0.668945
117.0	9.494572	-1.557134	2.852967	0.020696	0.012054	-0.006904	-0.531006	0.244141	-0.671143
118.0	9.47803	-1.573952	2.855181	0.021635	0.010309	-0.007875	-0.535645	0.246094	-0.671143
119.0	9.477856	-1.572688	2.856456	0.021719	0.009396	-0.005715	-0.53125	0.248535	-0.661865
120.0	9.50326	-1.594472	2.855751	0.022066	0.009893	-0.009443	-0.533447	0.248535	-0.671143
121.0	9.491389	-1.581997	2.875281	0.025946	0.009985	7.8e-05	-0.529053	0.25293	-0.671387
122.0	9.532968	-1.586118	2.874036	0.022838	0.01422	-0.003845	-0.533447	0.250732	-0.668945
123.0	9.502343	-1.591459	2.860479	0.026901	0.016634	-0.002374	-0.533447	0.248535	-0.666504
124.0	9.48333	-1.608257	2.828888	0.026474	0.017052	-0.000811	-0.533447	0.248535	-0.666504
125.0	9.503628	-1.590012	2.899056	0.024388	0.018627	-0.003542	-0.533447	0.248535	-0.671143
126.0	9.517271	-1.570445	2.865904	0.026396	0.017965	-0.002978	-0.535889	0.250732	-0.668945
127.0	9.516832	-1.569447	2.86791	0.027419	0.015308	-0.001784	-0.533447	0.250732	-0.668945
128.0	9.521025	-1.538926	2.8873	0.02589	0.019295	-0.003581	-0.533447	0.248535	-0.671143
129.0	9.518289	-1.537506	2.855199	0.02645	0.021708	-0.002648	-0.53125	0.246338	-0.668701
130.0	9.531644	-1.548225	2.87379	0.026405	0.017968	-0.002987	-0.526611	0.248535	-0.671143
131.0	9.517251	-1.535482	2.859745	0.024957	0.021044	-0.002623	-0.531006	0.246094	-0.654785
132.0	9.474753	-1.529454	2.864965	0.027444	0.023705	-0.003287	-0.533447	0.246094	-0.668701
133.0	9.457826	-1.546551	2.868337	0.024962	0.021046	-0.002628	-0.533203	0.241943	-0.677979
134.0	9.46895	-1.557168	2.852551	0.024613	0.020556	0.001097	-0.535645	0.248291	-0.666504
135.0	9.442864	-1.533395	2.856406	0.022002	0.015064	-0.000738	-0.537842	0.246094	-0.67334
136.0	9.454169	-1.544003	2.840064	0.023932	0.015311	-0.002335	-0.537842	0.246094	-0.671143
137.0	9.449145	-1.572973	2.824476	0.018657	0.013243	0.003049	-0.537842	0.246094	-0.668701
138.0	9.453372	-1.543129	2.843192	0.021606	0.010834	0.002654	-0.540283	0.248291	-0.668945
139.0	9.476497	-1.565324	2.808369	0.023888	0.01157	-0.002671	-0.533447	0.248535	-0.666504
140.0	9.476191	-1.564482	2.809871	0.021451	0.012652	-0.001678	-0.531006	0.241699	-0.66626
141.0	9.522438	-1.539046	2.825877	0.023333	0.009157	-0.003604	-0.528809	0.246338	-0.666504
142.0	9.52224	-1.538167	2.827022	0.021914	0.007583	-0.001409	-0.533447	0.248535	-0.668945
143.0	9.538414	-1.519125	2.827177	0.022778	0.006743	-0.004537	-0.533203	0.243896	-0.671143
144.0	9.51024	-1.524885	2.847025	0.017853	0.005164	-0.002878	-0.533203	0.243896	-0.668701
145.0	9.521898	-1.535589	2.829574	0.018872	0.002509	-0.001676	-0.537842	0.243896	-0.67334
146.0	9.510101	-1.523429	2.848271	0.016356	0.004498	-0.002848	-0.533447	0.246094	-0.666504
147.0	9.491529	-1.540505	2.815572	0.018335	0.008486	-0.004117	-0.535645	0.246094	-0.671143
148.0	9.482057	-1.498407	2.817599	0.013379	0.011556	-0.004296	-0.535645	0.246094	-0.666504
149.0	9.493156	-1.539092	2.852532	0.01338	0.011556	-0.004297	-0.535645	0.243896	-0.668701
150.0	9.492914	-1.53812	2.853861	0.013735	0.012041	-0.008027	-0.535645	0.246094	-0.668701
151.0	9.478484	-1.555352	2.890475	0.010739	0.010707	-0.007962	-0.535645	0.248535	-0.675781
152.0	9.462351	-1.5424	2.840867	0.01023	0.012034	-0.008566	-0.538086	0.248291	-0.675781
153.0	9.492344	-1.534786	2.85755	0.009674	0.009619	-0.009494	-0.5354	0.241699	-0.670898
154.0	9.490129	-1.533412	2.824148	0.009674	0.009619	-0.009495	-0.535645	0.248535	-0.671143
155.0	9.489994	-1.53234	2.825183	0.007744	0.009374	-0.0079	-0.537842	0.243896	-0.666504
156.0	9.499173	-1.572583	2.825283	0.007187	0.006958	-0.008828	-0.535645	0.248535	-0.675781
157.0	9.478028	-1.518997	2.844958	0.004314	0.008461	-0.006273	-0.535645	0.248535	-0.673584
158.0	9.517331	-1.552929	2.860585	0.006246	0.008707	-0.007869	-0.538086	0.248291	-0.668945
159.0	9.473166	-1.54712	2.829614	0.001441	0.009964	-0.003718	-0.5354	0.241699	-0.668701
160.0	9.493415	-1.528643	2.898707	0.007236	0.010702	-0.008505	-0.537842	0.246094	-0.668701
161.0	9.512189	-1.580389	2.846571	0.007945	0.011308	-0.003245	-0.535889	0.250732	-0.668945
162.0	9.51848	-1.550386	2.899547	0.00492	0.01462	-0.005025	-0.533447	0.250732	-0.668945
163.0	9.487968	-1.556228	2.885586	0.00591	0.016615	-0.005662	-0.531006	0.244141	-0.67334
164.0	9.485021	-1.585397	2.904739	0.005524	0.02078	-0.003777	-0.535645	0.246094	-0.67334
165.0	9.491108	-1.555452	2.958217	0.003979	0.01637	-0.004068	-0.535645	0.246094	-0.668701
166.0	9.484098	-1.584218	2.908395	0.004386	0.020596	-0.007477	-0.535645	0.246338	-0.675781
167.0	9.474344	-1.542307	2.910966	0.00398	0.01637	-0.00407	-0.533447	0.246338	-0.671143
168.0	9.4694	-1.57127	2.895549	0.004897	0.01927	-0.006874	-0.540039	0.246094	-0.671143
169.0	9.485266	-1.552323	2.896554	0.008912	0.017953	-0.00573	-0.535889	0.250488	-0.666748
170.0	9.473019	-1.540062	2.916461	0.004898	0.019271	-0.006877	-0.535156	0.237305	-0.66626
171.0	9.500718	-1.532516	2.89936	0.009857	0.016205	-0.006689	-0.538086	0.248291	-0.666504
172.0	9.500318	-1.531654	2.901127	0.008915	0.017954	-0.005732	-0.533203	0.243896	-0.67334
173.0	9.48805	-1.519465	2.921012	0.008481	0.018377	-0.004171	-0.538086	0.248291	-0.666504
174.0	9.457517	-1.525321	2.907162	0.009933	0.015302	-0.004523	-0.533447	0.246338	-0.671143
175.0	9.468891	-1.536293	2.890865	0.006112	0.018553	-0.001016	-0.53125	0.248535	-0.671143
176.0	9.484692	-1.518012	2.891716	0.005195	0.015654	0.001788	-0.533447	0.246338	-0.671143
177.0	9.465319	-1.565827	2.911796	0.002147	0.023614	-0.001848	-0.533447	0.246338	-0.671143
178.0	9.469251	-1.535931	2.93084	0.006067	0.01481	-0.001337	-0.535645	0.246338	-0.677979
179.0	9.480702	-1.547041	2.914266	0.005004	0.01372	-0.002869	-0.531006	0.244141	-0.671143
180.0	9.452833	-1.523382	2.882507	0.008971	0.00866	-0.002038	-0.533447	0.246338	-0.671143
181.0	9.478281	-1.545853	2.88189	0.009844	0.007815	-0.005162	-0.531006	0.243896	-0.668701
182.0	9.475613	-1.574922	2.900102	0.011415	0.007579	-0.003025	-0.535889	0.25293	-0.671387
183.0	9.482422	-1.514856	2.900801	0.006338	0.007804	-0.005707	-0.533447	0.248535	-0.671143
184.0	9.491667	-1.555303	2.900837	0.013304	0.004082	-0.004937	-0.535645	0.246094	-0.671143
185.0	9.48229	-1.513083	2.902155	0.018746	0.004339	-0.005987	-0.533447	0.248535	-0.673584
186.0	9.519682	-1.546799	2.883392	0.009917	0.006912	-0.002996	-0.533447	0.250732	-0.673584
187.0	9.489474	-1.552611	2.86859	0.012289	0.006735	-0.006152	-0.53125	0.246338	-0.668701
188.0	9.493865	-1.522118	2.886349	0.010307	0.002745	-0.004875	-0.537842	0.246094	-0.671143
189.0	9.47564	-1.539541	2.853067	0.008878	0.001173	-0.002675	-0.533203	0.241699	-0.668701
190.0	9.493878	-1.520971	2.886911	0.010886	0.000516	-0.0021	-0.535645	0.246094	-0.67334
191.0	9.489537	-1.550138	2.869721	0.009848	-0.005224	-0.001777	-0.531006	0.243896	-0.668701
192.0	9.505911	-1.531499	2.868841	0.004864	0.002487	-0.003827	-0.53125	0.246338	-0.671143
193.0	9.489604	-1.549234	2.869986	0.01045	0.000939	-0.000539	-0.537842	0.246094	-0.668701
194.0	9.461428	-1.555431	2.88919	0.009871	0.003168	-0.003316	-0.538086	0.25293	-0.673584
195.0	9.461352	-1.554992	2.889676	0.008998	0.004015	-0.000192	-0.533447	0.250732	-0.673584
196.0	9.479501	-1.536469	2.92375	0.011879	0.002511	-0.002741	-0.535645	0.243896	-0.67334
197.0	9.515015	-1.570537	2.870222	0.009506	0.002689	0.000415	-0.533447	0.248535	-0.678223
198.0	9.484869	-1.576916	2.854946	0.010014	0.001363	0.001023	-0.533447	0.248535	-0.671143
199.0	9.503023	-1.558612	2.888876	0.011514	0.002033	0.00099	-0.533447	0.248535	-0.673584
200.0	9.530529	-1.581407	2.922271	0.013451	0.002278	-0.000604	-0.540039	0.243896	-0.671143
201.0	9.489067	-1.546496	2.873236	0.014148	0.002894	0.004656	-0.535645	0.246094	-0.671143
202.0	9.49079	-1.546752	2.908267	0.009259	0.005055	0.006628	-0.53125	0.248535	-0.673584
203.0	9.472898	-1.535317	2.823558	0.006673	0.007939	0.003274	-0.533691	0.255127	-0.671387
204.0	9.49273	-1.51744	2.892539	0.007736	0.009032	0.004803	-0.533447	0.246338	-0.671143
205.0	9.487942	-1.547325	2.876502	0.005221	0.011015	0.003619	-0.531006	0.243896	-0.668701
206.0	9.459453	-1.554126	2.896352	0.004666	0.008596	0.002698	-0.540039	0.243896	-0.675781
207.0	9.48736	-1.547671	2.878235	0.004181	0.005275	0.003947	-0.533447	0.250732	-0.671387
208.0	9.512841	-1.570992	2.877172	0.004134	0.00153	0.003634	-0.537842	0.246094	-0.668701
209.0	9.482665	-1.577687	2.861835	0.005563	0.003101	0.001432	-0.535645	0.243896	-0.666504
210.0	9.510646	-1.571146	2.843544	0.001667	0.007258	0.002762	-0.531006	0.246338	-0.666504
211.0	9.495973	-1.589389	2.879801	0.00409	0.010823	-8.2e-05	-0.533203	0.241943	-0.677979
212.0	9.510061	-1.571067	2.845543	0.00409	0.010823	-8.2e-05	-0.53125	0.246338	-0.668701
213.0	9.483445	-1.57765	2.900046	0.006653	0.012586	0.001414	-0.535645	0.248291	-0.664307
214.0	9.509328	-1.5709	2.848085	0.008154	0.013255	0.001381	-0.538086	0.248291	-0.668945
215.0	9.510844	-1.570875	2.883831	0.009169	0.010604	0.002599	-0.533447	0.246338	-0.67334
216.0	9.510477	-1.570711	2.885128	0.010093	0.013499	-0.000213	-0.535889	0.250732	-0.673584
217.0	9.486284	-1.54758	2.922495	0.010788	0.014118	0.005046	-0.533203	0.244141	-0.675781
218.0	9.495859	-1.559037	2.871505	0.008594	0.012831	-0.000182	-0.53125	0.246338	-0.67334
219.0	9.509217	-1.570282	2.889512	0.007581	0.015482	-0.001402	-0.526611	0.248535	-0.673584
220.0	9.480601	-1.576651	2.90987	0.00765	0.014582	0.000768	-0.538086	0.250488	-0.664307
221.0	9.481981	-1.576679	2.945898	0.004767	0.016089	0.003312	-0.535645	0.248535	-0.673584
222.0	9.463341	-1.594857	2.913829	0.002136	0.015226	-0.000356	-0.53125	0.250732	-0.673584
223.0	9.462842	-1.594877	2.91544	0.002254	0.018071	0.002123	-0.53125	0.248535	-0.673584
224.0	9.464875	-1.565198	2.899737	0.012223	0.015689	0.002842	-0.537842	0.243896	-0.668701
225.0	9.473767	-1.606164	2.900816	0.004516	0.015045	-0.003512	-0.533447	0.248535	-0.666504
226.0	9.450283	-1.553047	2.886306	0.009154	0.015252	0.000734	-0.538086	0.25293	-0.668945
227.0	9.489221	-1.587403	2.903059	0.011601	0.01417	-0.000249	-0.535645	0.246094	-0.666504
228.0	9.47428	-1.605333	2.94002	0.010218	0.016347	0.002261	-0.538086	0.25293	-0.671387
229.0	9.48646	-1.587023	2.871882	0.012665	0.015266	0.001278	-0.533447	0.246338	-0.671143
230.0	9.50905	-1.639664	2.889581	0.012732	0.014366	0.003448	-0.533691	0.255127	-0.673828
231.0	9.471057	-1.604769	2.910419	0.020628	0.013541	0.001422	-0.538086	0.248291	-0.675781
232.0	9.485112	-1.586361	2.876694	0.016242	0.01438	0.003993	-0.529053	0.248535	-0.671143
233.0	9.474546	-1.574853	2.93049	0.015819	0.010161	0.007418	-0.53125	0.248535	-0.673584
234.0	9.502358	-1.568253	2.913083	0.022705	0.011986	0.004169	-0.538086	0.250488	-0.671387
235.0	9.47938	-1.616089	2.864095	0.022384	0.01526	0.008204	-0.53125	0.248535	-0.673584
236.0	9.483188	-1.586382	2.883021	0.021814	0.017485	0.005419	-0.53125	0.248535	-0.668945
237.0	9.470634	-1.574849	2.90294	0.020937	0.018339	0.008536	-0.533203	0.243896	-0.668701
238.0	9.477544	-1.6163	2.870048	0.021883	0.016588	0.007587	-0.53125	0.248535	-0.68042
239.0	9.451357	-1.593126	2.873204	0.022765	0.015734	0.004466	-0.529053	0.250732	-0.678223
240.0	9.450848	-1.592915	2.874995	0.023271	0.014409	0.005077	-0.529053	0.25293	-0.668945
241.0	9.468344	-1.574694	2.910486	0.02295	0.017687	0.009108	-0.533203	0.241699	-0.668701
242.0	9.481459	-1.586224	2.92895	0.021772	0.013741	0.005106	-0.537598	0.241699	-0.67334
243.0	9.481851	-1.55661	2.878626	0.021333	0.01417	0.006664	-0.53125	0.246338	-0.671143
244.0	9.480426	-1.586133	2.93234	0.022838	0.014839	0.00663	-0.535645	0.246338	-0.675781
245.0	9.494464	-1.567951	2.898845	0.022271	0.017061	0.003842	-0.53125	0.246338	-0.675781
246.0	9.477587	-1.585904	2.90164	0.024343	0.01551	0.006594	-0.535645	0.246338	-0.68042
247.0	9.478768	-1.58561	2.937978	0.022778	0.015737	0.004452	-0.533447	0.248535	-0.675781
248.0	9.49017	-1.596972	2.922057	0.022276	0.017063	0.003836	-0.533447	0.248535	-0.675781
249.0	9.477621	-1.58521	2.941893	0.021396	0.017922	0.006951	-0.533447	0.246338	-0.671143
250.0	9.433419	-1.580331	2.911274	0.018273	0.013732	0.004545	-0.533447	0.250732	-0.664307
251.0	9.486876	-1.59681	2.892919	0.01922	0.011978	0.003601	-0.526855	0.250732	-0.668945
252.0	9.43085	-1.5803	2.879722	0.016835	0.012169	0.006749	-0.533203	0.243896	-0.671143
253.0	9.490332	-1.567236	2.912728	0.014387	0.013255	0.007724	-0.531006	0.244141	-0.677979
254.0	9.506181	-1.549343	2.913287	0.016837	0.01217	0.006747	-0.53125	0.248535	-0.671143
255.0	9.462079	-1.544648	2.882314	0.014327	0.01415	0.005548	-0.53125	0.248535	-0.671143
256.0	9.488868	-1.567605	2.917297	0.012258	0.0157	0.002791	-0.53125	0.250732	-0.668945
257.0	9.473	-1.556347	2.867928	0.014384	0.017899	0.00584	-0.526611	0.246338	-0.67334
258.0	9.475744	-1.555913	2.938859	0.012758	0.019018	0.001524	-0.53125	0.246338	-0.677979
259.0	9.48277	-1.597141	2.906169	0.012759	0.019019	0.001523	-0.53125	0.246338	-0.67334
260.0	9.473019	-1.555483	2.908162	0.013588	0.014409	-0.001886	-0.533447	0.250732	-0.673584
261.0	9.456275	-1.573237	2.910577	0.009696	0.013934	0.001294	-0.533447	0.250732	-0.668945
262.0	9.48417	-1.56653	2.893416	0.009636	0.014827	-0.00088	-0.531006	0.244141	-0.67334
263.0	9.48537	-1.566033	2.929493	0.007187	0.015914	9.3e-05	-0.533447	0.246338	-0.675781
264.0	9.511612	-1.559501	2.877958	0.013149	0.014841	-0.00033	-0.531494	0.25293	-0.673584
265.0	9.480132	-1.59491	2.915984	0.005001	0.019249	-0.007017	-0.533447	0.246338	-0.675781
266.0	9.483983	-1.564533	2.934778	0.009695	0.018577	-0.000593	-0.524414	0.246338	-0.68042
267.0	9.495415	-1.57583	2.919043	0.008691	0.021226	-0.001828	-0.529053	0.250732	-0.676025
268.0	9.469178	-1.552301	2.922336	0.011258	0.022996	-0.000338	-0.533447	0.248535	-0.673584
269.0	9.475056	-1.622766	2.942137	0.013266	0.022341	0.000246	-0.531006	0.241943	-0.67334
270.0	9.463456	-1.581476	2.910314	0.012881	0.026522	0.00209	-0.529053	0.248535	-0.668945
271.0	9.473617	-1.621956	2.947214	0.012091	0.023027	-0.005631	-0.529053	0.250732	-0.671387
272.0	9.475697	-1.591722	2.932095	0.008253	0.026301	-0.002167	-0.533447	0.248535	-0.671143
273.0	9.476572	-1.590858	2.969145	0.013155	0.024129	-0.00411	-0.53125	0.246338	-0.671143
274.0	9.474352	-1.590669	2.937011	0.007811	0.022093	0.001274	-0.535645	0.246094	-0.67334
275.0	9.472233	-1.590644	2.904511	0.01065	0.016825	-0.00154	-0.53125	0.248535	-0.671143
276.0	9.45971	-1.578572	2.924036	0.0082	0.017912	-0.000571	-0.53125	0.246338	-0.675781
277.0	9.460781	-1.578104	2.960147	0.006193	0.013926	0.00073	-0.528809	0.246338	-0.67334
278.0	9.44246	-1.596436	2.927998	0.007254	0.015027	0.002254	-0.535889	0.250732	-0.671387
279.0	9.474733	-1.5601	2.927607	0.007642	0.010846	0.000411	-0.533447	0.246338	-0.677979
280.0	9.441679	-1.596172	2.930662	0.0077	0.014596	0.000696	-0.53125	0.248535	-0.678223
281.0	9.453268	-1.607923	2.914391	0.0038	0.014122	0.003872	-0.53125	0.248535	-0.673584
282.0	9.425862	-1.614075	2.969176	0.01077	0.019684	0.000917	-0.533447	0.250732	-0.668945
283.0	9.428052	-1.584444	2.953449	0.00581	0.018109	0.002567	-0.528809	0.246338	-0.675781
284.0	9.41118	-1.602473	2.956059	0.008707	0.01659	4.2e-05	-0.53833	0.255127	-0.669189
285.0	9.455388	-1.57785	2.938372	0.007817	0.017455	0.003154	-0.53125	0.248535	-0.675781
286.0	9.426521	-1.58438	2.958367	0.007255	0.010388	0.004141	-0.535889	0.250732	-0.676025
287.0	9.481588	-1.601013	2.974667	0.007314	0.014138	0.004424	-0.531006	0.241699	-0.66626
288.0	9.4513	-1.607611	2.960058	0.009598	0.011083	-0.001179	-0.53125	0.248535	-0.673584
289.0	9.491422	-1.612769	2.925019	0.014279	0.010419	0.005254	-0.529053	0.250732	-0.673584
290.0	9.466946	-1.589297	2.961532	0.008148	0.009523	0.001028	-0.533691	0.250732	-0.680664
291.0	9.462345	-1.619049	2.945789	0.009208	0.010626	0.002551	-0.524414	0.248535	-0.671143
292.0	9.464863	-1.589496	2.92906	0.007643	0.006206	0.0023	-0.529053	0.248535	-0.673584
293.0	9.451085	-1.578154	2.912995	0.005191	0.007294	0.003266	-0.533447	0.246338	-0.67334
294.0	9.449508	-1.607475	2.965849	0.006137	0.005537	0.002332	-0.524658	0.250732	-0.673584
295.0	9.461306	-1.619333	2.948967	0.007757	0.009066	0.004758	-0.529053	0.248535	-0.671143
296.0	9.44465	-1.637738	2.95066	0.005246	0.006404	0.005442	-0.529053	0.250732	-0.680664
297.0	9.459318	-1.649099	3.002835	0.01127	0.009081	0.005315	-0.522461	0.25293	-0.668945
298.0	9.460355	-1.620131	2.95158	0.006752	0.007074	0.00541	-0.53125	0.250732	-0.676025
299.0	9.447974	-1.608682	2.97008	0.008259	0.007743	0.005378	-0.528809	0.246338	-0.668701
300.0	9.443359	-1.638749	2.954229	0.009266	0.009736	0.004724	-0.529053	0.248535	-0.675781
301.0	9.445881	-1.609515	2.937372	0.005746	0.005081	0.006062	-0.528809	0.246338	-0.668701
302.0	9.459135	-1.621283	2.954855	0.008759	0.006419	0.005998	-0.533447	0.250732	-0.673584
303.0	9.445387	-1.610068	2.938658	0.006639	0.004213	0.002951	-0.53125	0.250732	-0.676025
304.0	9.490015	-1.614585	3.006513	0.0077	0.005317	0.004475	-0.529053	0.248535	-0.673584
305.0	9.458464	-1.621562	2.956849	0.010607	0.008434	5.7e-05	-0.524414	0.246338	-0.67334
306.0	9.471705	-1.632972	2.974554	0.006754	0.007075	0.005407	-0.528809	0.246338	-0.675781
307.0	9.468582	-1.662587	2.993081	0.01066	0.007545	0.002233	-0.529053	0.250732	-0.678223
308.0	9.442678	-1.639455	2.994876	0.011274	0.009082	0.005311	-0.526611	0.244141	-0.67334
309.0	9.427426	-1.657209	3.031242	0.012168	0.008214	0.002201	-0.526855	0.250732	-0.671387
310.0	9.413574	-1.645657	3.015555	0.01223	0.011965	0.002479	-0.526611	0.248535	-0.668945
311.0	9.425376	-1.657259	2.998875	0.012107	0.004463	0.001922	-0.533447	0.248535	-0.675781
312.0	9.400954	-1.633642	3.035007	0.009717	0.009304	0.003163	-0.529053	0.250732	-0.673584
313.0	9.441145	-1.638825	3.00005	0.012626	0.012419	-0.001255	-0.533447	0.246094	-0.668701
314.0	9.428674	-1.626871	3.018994	0.006766	0.011717	0.003503	-0.526855	0.250732	-0.676025
315.0	9.428199	-1.626982	3.020415	0.010341	0.015483	0.004339	-0.5271	0.259521	-0.678711
316.0	9.457541	-1.620419	3.037934	0.009334	0.013491	0.004993	-0.526855	0.25293	-0.666748
317.0	9.439288	-1.639062	3.005757	0.012847	0.013505	0.005551	-0.526611	0.248535	-0.671143
318.0	9.425264	-1.62784	2.990484	0.015416	0.015279	0.007041	-0.529053	0.250732	-0.673584
319.0	9.439688	-1.638713	3.043322	0.013131	0.011095	-0.000635	-0.533447	0.248535	-0.678223
320.0	9.421606	-1.656851	3.010924	0.011176	0.010862	0.00095	-0.529053	0.250732	-0.676025
321.0	9.422637	-1.656276	3.046604	0.016747	0.009335	0.004279	-0.524658	0.25293	-0.673584
322.0	9.408806	-1.644713	3.030912	0.011178	0.010862	0.000949	-0.53125	0.250732	-0.668945
323.0	9.420612	-1.656221	3.014379	0.010616	0.008434	5e-05	-0.529053	0.248535	-0.668945
324.0	9.424589	-1.625971	3.032203	0.011626	0.010427	-0.000606	-0.528809	0.241943	-0.675537
325.0	9.436335	-1.637497	3.015867	0.008227	0.013277	0.001285	-0.524414	0.248535	-0.673584
326.0	9.421091	-1.626436	2.965828	0.00672	0.012608	0.001316	-0.531494	0.25293	-0.671387
327.0	9.437135	-1.608303	2.96601	0.001635	0.008172	0.000514	-0.522217	0.248535	-0.671143
328.0	9.433942	-1.637453	2.984876	0.007069	0.013946	-0.004594	-0.526855	0.25293	-0.676025
329.0	9.449947	-1.61892	2.985392	0.003157	0.013481	-0.001424	-0.528809	0.246338	-0.678223
330.0	9.463041	-1.62986	3.003694	0.003058	0.015255	-0.005781	-0.53125	0.250732	-0.678223
331.0	9.4492	-1.618055	2.988222	0.001152	0.014135	-0.002018	-0.524658	0.250732	-0.678223
332.0	9.459352	-1.65865	3.024287	0.000655	0.015458	-0.002643	-0.53125	0.246338	-0.675781
333.0	9.449728	-1.61703	3.025573	0.00311	0.014368	-0.003604	-0.526611	0.248535	-0.673584
334.0	9.445165	-1.646458	3.010118	0.002548	0.01194	-0.004501	-0.53125	0.248535	-0.671143
335.0	9.44914	-1.6159	3.028012	0.001441	0.011721	-0.008202	-0.521973	0.244141	-0.671143
336.0	9.443299	-1.645503	2.978109	-0.000949	0.016564	-0.006971	-0.529053	0.250732	-0.676025
337.0	9.459309	-1.626815	2.978695	4.7e-05	0.013917	-0.005721	-0.526855	0.250732	-0.676025
338.0	9.418375	-1.620753	3.01593	-0.00252	0.012142	-0.007213	-0.524658	0.250732	-0.673584
339.0	9.449464	-1.584461	2.981046	-0.002905	0.016331	-0.005389	-0.526855	0.25293	-0.676025
340.0	9.433999	-1.601717	3.01788	-0.002904	0.016331	-0.005389	-0.533691	0.25293	-0.678223
341.0	9.445734	-1.613065	3.001848	-0.003401	0.017655	-0.006016	-0.526611	0.246338	-0.678223
342.0	9.460408	-1.594859	2.968055	-0.002453	0.015896	-0.006944	-0.524414	0.248535	-0.673584
343.0	9.428567	-1.630103	3.005809	-0.003896	0.018979	-0.006643	-0.526855	0.25293	-0.673584
344.0	9.443174	-1.611885	2.972269	-0.004392	0.020302	-0.00727	-0.531494	0.257324	-0.673828
345.0	9.454908	-1.623207	2.956333	-0.006413	0.016316	-0.005958	-0.522217	0.250732	-0.678223
346.0	9.455803	-1.622204	2.992312	-0.000492	0.016131	-0.00853	-0.529053	0.25293	-0.671387
347.0	9.466402	-1.633764	2.941624	-0.00346	0.013904	-0.006291	-0.53125	0.246338	-0.675781
348.0	9.458083	-1.591592	2.977205	-0.001455	0.013251	-0.005696	-0.53125	0.248535	-0.68042
349.0	9.454865	-1.620573	2.996159	0.00055	0.012598	-0.0051	-0.524658	0.250732	-0.671387
350.0	9.465487	-1.632203	2.945433	0.003069	0.015261	-0.005786	-0.529053	0.250732	-0.678223
351.0	9.440732	-1.607982	2.982121	0.002573	0.016585	-0.006413	-0.524658	0.250732	-0.673584
352.0	9.453764	-1.618759	3.000609	0.004624	0.015045	-0.003638	-0.533691	0.255127	-0.671387
353.0	9.45215	-1.6187	2.967604	0.004624	0.015045	-0.003638	-0.529053	0.248535	-0.68042
354.0	9.466308	-1.629246	3.02077	0.000228	0.02054	-0.003011	-0.53125	0.248535	-0.673584
355.0	9.493073	-1.622913	2.969948	0.001692	0.022098	-0.005221	-0.533447	0.250732	-0.671387
356.0	9.451712	-1.617009	3.008006	-0.000762	0.023188	-0.004267	-0.53125	0.250732	-0.680664
357.0	9.465046	-1.599254	2.940433	-0.000805	0.024076	-0.006448	-0.526611	0.248535	-0.671143
358.0	9.47787	-1.610067	2.95955	-0.001816	0.022082	-0.005793	-0.524658	0.255127	-0.673828
359.0	9.436447	-1.604359	2.997597	-0.003668	0.024713	-0.001764	-0.521973	0.244141	-0.671143
360.0	9.434686	-1.604471	2.965122	-0.000369	0.019	-0.006093	-0.522461	0.25293	-0.678467
361.0	9.423143	-1.591583	3.019041	0.001096	0.020559	-0.008303	-0.524658	0.250732	-0.676025
362.0	9.4431	-1.644357	2.968853	-0.003944	0.01523	-0.006934	-0.531494	0.255127	-0.673828
363.0	9.46316	-1.595952	2.986253	-0.002845	0.015448	-0.00323	-0.526611	0.248535	-0.671143
364.0	9.459767	-1.625039	3.005603	-0.00237	0.019654	-0.006695	-0.531494	0.257324	-0.673828
365.0	9.445919	-1.613146	2.99038	0.00013	0.017678	-0.005468	-0.526611	0.248535	-0.68042
366.0	9.40242	-1.60792	2.958798	-0.002474	0.016789	-0.009146	-0.529053	0.25293	-0.673584
367.0	9.428892	-1.629821	2.99411	-0.002538	0.013036	-0.009415	-0.526611	0.248535	-0.675781
368.0	9.444992	-1.611103	2.994405	-0.001959	0.009936	-0.004426	-0.531494	0.257324	-0.67627
369.0	9.431357	-1.599351	2.978452	-0.002949	0.012584	-0.005683	-0.526855	0.250732	-0.678223
370.0	9.456774	-1.621977	2.97888	0.002502	0.008196	-0.004777	-0.522217	0.246338	-0.68042
371.0	9.443177	-1.610242	2.962808	0.001099	0.010391	-0.002301	-0.522217	0.246338	-0.675781
372.0	9.456291	-1.621107	2.980886	0.006532	0.011534	-0.005489	-0.524658	0.250732	-0.678223
373.0	9.460135	-1.590457	2.998742	0.005973	0.009103	-0.006385	-0.524658	0.25293	-0.678467
374.0	9.455877	-1.619608	2.983011	0.010538	0.010229	-0.004288	-0.522461	0.25293	-0.678467
375.0	9.473181	-1.600199	3.017612	0.008368	0.004262	-0.007604	-0.529053	0.248535	-0.675781
376.0	9.430141	-1.594631	2.984824	0.011321	0.001851	-0.007927	-0.529053	0.25293	-0.676025
377.0	9.442386	-1.60559	2.967849	0.008513	0.00624	-0.002976	-0.53125	0.248535	-0.675781
378.0	9.472064	-1.598123	2.984506	0.008346	-0.00038	-0.00569	-0.526611	0.246338	-0.675781
379.0	9.454722	-1.615973	2.950907	0.0094	0.000727	-0.004166	-0.522217	0.248535	-0.68042
380.0	9.44254	-1.603392	2.968547	0.010804	-0.001467	-0.006642	-0.524658	0.255127	-0.673828
381.0	9.457843	-1.58484	2.933502	0.012416	0.002071	-0.004223	-0.524414	0.246338	-0.67334
382.0	9.430376	-1.589934	2.986589	0.013367	0.000312	-0.005146	-0.533447	0.248535	-0.673584
383.0	9.454927	-1.612671	2.952056	0.014483	0.005174	-0.003357	-0.524658	0.25293	-0.676025
384.0	9.454853	-1.611998	2.952662	0.007956	0.00381	-0.003874	-0.529053	0.250732	-0.673584
385.0	9.467026	-1.623164	2.935855	0.01153	0.007585	-0.003037	-0.526855	0.250732	-0.676025
386.0	9.455725	-1.610298	2.98853	0.011963	0.002508	-0.002672	-0.52002	0.25293	-0.676025
387.0	9.467927	-1.621482	2.971625	0.01403	0.005611	-0.001806	-0.526855	0.25293	-0.676025
388.0	9.467828	-1.620861	2.972278	0.011469	0.003831	-0.003302	-0.53125	0.250732	-0.678223
389.0	9.482989	-1.602519	2.937599	0.012978	0.004503	-0.003331	-0.529053	0.250732	-0.678223
390.0	9.481099	-1.630648	2.990443	0.01238	0.002958	-0.006407	-0.524414	0.248535	-0.675781
391.0	9.454354	-1.60715	2.956897	0.013929	0.002744	-0.004254	-0.522461	0.25293	-0.673828
392.0	9.469588	-1.588706	2.922044	0.014425	0.001422	-0.003624	-0.529053	0.25293	-0.680664
393.0	9.439111	-1.623192	2.993085	0.013434	0.004067	-0.004885	-0.524414	0.248535	-0.678223
394.0	9.466539	-1.616595	2.941042	0.015541	0.006286	-0.001839	-0.53125	0.246338	-0.675781
395.0	9.4511	-1.633509	2.977377	0.017568	0.010276	-0.003159	-0.522461	0.25293	-0.673828
396.0	9.425172	-1.609603	2.9791	0.015565	0.010927	-0.003762	-0.524658	0.250732	-0.673584
397.0	9.453522	-1.602436	2.962111	0.01757	0.010277	-0.003161	-0.5271	0.255127	-0.676025
398.0	9.453273	-1.601514	2.963406	0.017532	0.011162	-0.005345	-0.526855	0.25293	-0.676025
399.0	9.463476	-1.641235	2.999498	0.016519	0.009168	-0.004685	-0.524414	0.248535	-0.678223
400.0	9.466235	-1.610896	2.982753	0.017015	0.007846	-0.004055	-0.529297	0.255127	-0.678467
401.0	9.466061	-1.609878	2.983855	0.018486	0.009403	-0.006268	-0.524414	0.246338	-0.678223
402.0	9.491514	-1.631974	2.98468	0.01557	0.010929	-0.003768	-0.531494	0.25293	-0.668945
403.0	9.453285	-1.59607	3.003842	0.017992	0.010726	-0.006902	-0.52002	0.250732	-0.668945
404.0	9.478742	-1.617929	3.004789	0.019503	0.011399	-0.006932	-0.524658	0.255127	-0.673828
405.0	9.452846	-1.593633	3.006516	0.019999	0.010078	-0.006301	-0.524414	0.248535	-0.678223
406.0	9.46503	-1.604277	2.990135	0.016424	0.006299	-0.007133	-0.526855	0.250732	-0.671387
407.0	9.448626	-1.621096	2.991979	0.01891	0.009851	-0.01001	-0.524658	0.25293	-0.668945
408.0	9.489491	-1.625153	2.957365	0.020397	0.005886	-0.008113	-0.529297	0.255127	-0.676025
409.0	9.493387	-1.593944	2.974894	0.023493	0.005467	-0.003805	-0.526611	0.246338	-0.67334
410.0	9.493338	-1.592745	2.975695	0.024904	0.003268	-0.006276	-0.522217	0.250732	-0.685303
411.0	9.554484	-1.548622	2.956855	0.027948	0.009254	-0.008268	-0.524414	0.248535	-0.678223
412.0	9.508309	-1.572183	2.942955	0.029064	0.014123	-0.006494	-0.526855	0.25293	-0.676025
413.0	9.510957	-1.541355	2.926762	0.033571	0.011507	-0.004656	-0.53125	0.250732	-0.676025
414.0	9.555556	-1.515443	2.909529	0.037151	0.01529	-0.003833	-0.529053	0.250732	-0.673584
415.0	9.510176	-1.538553	2.930773	0.040768	0.018192	-0.000826	-0.526611	0.246338	-0.678223
416.0	9.554582	-1.512796	2.914102	0.044288	0.018221	-0.000257	-0.533447	0.248535	-0.675781
417.0	9.511091	-1.50707	2.883169	0.04823	0.01869	-0.003427	-0.526611	0.248535	-0.675781
418.0	9.514575	-1.475143	2.90218	0.049152	0.01781	-0.006535	-0.524414	0.248535	-0.678223
419.0	9.542844	-1.466659	2.886327	0.052081	0.016284	-0.009039	-0.526611	0.248535	-0.678223
420.0	9.603757	-1.421718	2.868624	0.056595	0.013674	-0.007202	-0.526611	0.246338	-0.68042
421.0	9.633043	-1.412284	2.887233	0.058634	0.017666	-0.008547	-0.526611	0.248535	-0.678223
422.0	9.624114	-1.367828	2.92383	0.059756	0.022543	-0.006792	-0.526611	0.248535	-0.678223
423.0	9.648285	-1.389237	2.89221	0.064794	0.023251	-0.006262	-0.526611	0.244141	-0.685059
424.0	9.603866	-1.410033	2.948548	0.071585	0.013797	-0.010232	-0.53125	0.248535	-0.678223
425.0	9.540459	-1.451454	2.901856	0.080251	0.011912	-0.00257	-0.52002	0.248535	-0.675781
426.0	9.537404	-1.477908	2.921686	0.088535	-0.001499	-0.004622	-0.519775	0.244141	-0.677979
427.0	9.520307	-1.493943	2.889244	0.100103	-0.004033	-0.001652	-0.53125	0.246338	-0.675781
428.0	9.477472	-1.487211	2.856875	0.104768	-0.004616	0.004789	-0.526611	0.246338	-0.678223
429.0	9.448886	-1.491172	2.875996	0.105888	-0.009857	0.012614	-0.528809	0.244141	-0.677979
430.0	9.453882	-1.432217	2.805782	0.106045	-0.00783	0.0172	-0.524414	0.246338	-0.682861
431.0	9.474908	-1.382157	2.856274	0.094322	-0.006296	0.029117	-0.521973	0.241943	-0.682617
432.0	9.482584	-1.296502	2.767544	0.082001	-0.006329	0.037978	-0.522217	0.246338	-0.682861
433.0	9.494989	-1.180651	2.729648	0.062186	0.00414	0.041145	-0.521973	0.241943	-0.680176
434.0	9.544072	-1.127854	2.762606	0.046486	0.016221	0.047937	-0.526611	0.246338	-0.68042
435.0	9.529706	-1.12055	2.747488	0.02604	0.020497	0.050015	-0.52417	0.244141	-0.68042
436.0	9.53061	-1.096933	2.697015	0.007567	0.025002	0.050505	-0.52417	0.241943	-0.680176
437.0	9.596005	-1.13111	2.664193	-0.008894	0.028868	0.051596	-0.52417	0.244141	-0.682617
438.0	9.620195	-1.159185	2.667353	-0.011884	0.037636	0.04554	-0.533447	0.246338	-0.677979
439.0	9.611563	-1.22324	2.672987	-0.017411	0.038253	0.044361	-0.52002	0.248535	-0.682861
440.0	9.631536	-1.281162	2.660672	-0.021417	0.045034	0.038984	-0.517822	0.250732	-0.678223
441.0	9.552795	-1.344482	2.720753	-0.014779	0.050169	0.03969	-0.524414	0.246338	-0.678223
442.0	9.555258	-1.421125	2.675735	-0.013851	0.049269	0.036587	-0.53125	0.248535	-0.689697
443.0	9.519838	-1.462201	2.647614	-0.008876	0.046211	0.036888	-0.517822	0.250732	-0.680664
444.0	9.462954	-1.449726	2.635268	0.000112	0.041859	0.038406	-0.526611	0.248535	-0.68042
445.0	9.448203	-1.466763	2.778144	0.010585	0.039043	0.037701	-0.517822	0.250732	-0.673584
446.0	9.431715	-1.461426	2.695768	0.016261	0.040451	0.043473	-0.52002	0.250732	-0.682861
447.0	9.416994	-1.453665	2.682078	0.029014	0.029878	0.039203	-0.522217	0.250732	-0.680664
448.0	9.420387	-1.425297	2.736178	0.030648	0.033445	0.041568	-0.522217	0.250732	-0.682861
449.0	9.392589	-1.406399	2.704978	0.029167	0.031914	0.043785	-0.52417	0.241943	-0.67334
450.0	9.333615	-1.421004	2.744302	0.044493	0.023124	0.040998	-0.517578	0.248535	-0.664307
451.0	9.33186	-1.424508	2.711991	0.05518	0.008562	0.038104	-0.52002	0.248535	-0.68042
452.0	9.206178	-1.409224	2.749813	0.062884	-0.002717	0.033312	-0.52002	0.248535	-0.678223
453.0	9.163443	-1.406115	2.715652	0.061736	-0.025128	0.024581	-0.517334	0.239746	-0.682617
454.0	9.164848	-1.405049	2.747924	0.058174	-0.041814	0.014815	-0.522461	0.25293	-0.678467
455.0	9.182252	-1.386265	2.744153	0.061079	-0.036167	0.003777	-0.515381	0.244141	-0.677979
456.0	9.28783	-1.426479	2.533245	0.048383	-0.038479	-0.000949	-0.524658	0.250732	-0.682861
457.0	9.440402	-1.463195	2.564703	0.030689	0.005407	-0.002756	-0.517822	0.248535	-0.675781
458.0	9.469919	-1.556831	2.554237	0.002219	0.07278	-0.014626	-0.515625	0.250732	-0.678223
459.0	9.456794	-1.643243	2.584956	-0.038409	0.142007	-0.034782	-0.517822	0.248535	-0.678223
460.0	9.238253	-1.772236	2.644387	-0.074214	0.208732	-0.065876	-0.52002	0.250732	-0.676025
461.0	9.109837	-1.850673	2.704593	-0.104553	0.268217	-0.098527	-0.515381	0.248535	-0.68042
462.0	8.929179	-1.881366	2.732368	-0.124492	0.30159	-0.143756	-0.517822	0.250732	-0.678223
463.0	8.991596	-1.897783	2.757374	-0.138003	0.310158	-0.202767	-0.51123	0.25293	-0.687744
464.0	9.161974	-1.842686	2.745747	-0.127716	0.316133	-0.254853	-0.508545	0.246338	-0.6875
465.0	9.492371	-1.756507	2.837669	-0.10097	0.309928	-0.306137	-0.510742	0.246338	-0.682861
466.0	9.864525	-1.676073	2.688982	-0.085853	0.281699	-0.33724	-0.510742	0.244141	-0.687256
467.0	10.083164	-1.582573	2.556612	-0.083181	0.248789	-0.357621	-0.503906	0.244141	-0.687256
468.0	10.299916	-1.51746	2.371484	-0.090256	0.221624	-0.358558	-0.503906	0.239746	-0.687256
469.0	10.391947	-1.439641	2.147679	-0.067146	0.165289	-0.332158	-0.506104	0.241943	-0.682617
470.0	10.468104	-1.380518	2.023561	-0.032284	0.124317	-0.269867	-0.503906	0.241943	-0.682617
471.0	10.554622	-1.369553	1.862671	-0.009508	0.087591	-0.193214	-0.508545	0.241943	-0.682617
472.0	10.525284	-1.396029	1.663677	0.027157	0.049336	-0.109475	-0.508301	0.239746	-0.682617
473.0	10.380536	-1.549965	1.845593	0.045277	0.056164	-0.028537	-0.501709	0.241943	-0.691895
474.0	10.334566	-1.701979	1.995836	0.05166	0.088244	0.042922	-0.506104	0.241943	-0.684814
475.0	10.048032	-1.850925	2.027187	0.059406	0.146493	0.10142	-0.501465	0.237549	-0.684814
476.0	9.591845	-1.953059	2.215268	0.060135	0.196336	0.131036	-0.501953	0.246338	-0.68042
477.0	9.351487	-2.112333	2.582923	0.069102	0.219237	0.144584	-0.501465	0.235352	-0.69165
478.0	9.227329	-2.248716	2.780211	0.088424	0.230424	0.170664	-0.497314	0.244141	-0.694336
479.0	9.037828	-2.3319	2.888903	0.102651	0.233056	0.186668	-0.494873	0.241943	-0.694336
480.0	8.935458	-2.395321	2.947312	0.105171	0.248495	0.185635	-0.494873	0.239746	-0.691895
481.0	8.891051	-2.348042	2.86375	0.122567	0.203995	0.182726	-0.490479	0.241943	-0.694336
482.0	8.795895	-2.382662	2.829077	0.131105	0.146165	0.17128	-0.495117	0.244141	-0.705811
483.0	8.796576	-2.370952	2.65263	0.139866	0.104573	0.167439	-0.492676	0.241943	-0.698975
484.0	8.883997	-2.335355	2.560229	0.12303	0.063202	0.153129	-0.494873	0.239746	-0.696533
485.0	8.954561	-2.218798	2.426688	0.113684	0.045759	0.148004	-0.48584	0.23999	-0.696533
486.0	9.163928	-2.125802	2.346715	0.117713	0.00087	0.137572	-0.492676	0.244141	-0.701172
487.0	9.287165	-1.955914	2.170632	0.126273	-0.040792	0.133925	-0.48584	0.237793	-0.703369
488.0	9.391333	-1.833268	2.009702	0.134686	-0.068945	0.127892	-0.492676	0.241943	-0.696533
489.0	9.453428	-1.83657	1.833594	0.148941	-0.085508	0.12145	-0.490234	0.239746	-0.694092
490.0	9.462562	-1.790301	1.72224	0.182072	-0.092318	0.117853	-0.488281	0.244141	-0.691895
491.0	9.511734	-1.878216	1.635536	0.208309	-0.094223	0.119851	-0.488037	0.237549	-0.696289
492.0	9.463677	-2.040861	1.637814	0.227853	-0.084877	0.120978	-0.494873	0.239746	-0.694092
493.0	9.404514	-2.15798	1.708493	0.249297	-0.081177	0.1158	-0.488037	0.237549	-0.69165
494.0	9.336901	-2.234305	1.74397	0.270444	-0.071547	0.107837	-0.490234	0.237549	-0.69165
495.0	9.281476	-2.223086	1.724582	0.289566	-0.063382	0.094615	-0.492188	0.22876	-0.696045
496.0	9.241765	-2.287064	1.816157	0.305345	-0.032562	0.094239	-0.492432	0.235352	-0.694092
497.0	9.16645	-2.282941	1.940952	0.313146	0.000368	0.082212	-0.480713	0.226563	-0.691406
498.0	9.195901	-2.339261	2.09242	0.326903	0.028881	0.078711	-0.487793	0.230957	-0.689209
499.0	9.1801	-2.326773	2.120141	0.32753	0.056732	0.078579	-0.480957	0.22876	-0.698486
500.0	9.203633	-2.311771	2.254077	0.313049	0.070618	0.074807	-0.485596	0.233154	-0.700928
501.0	9.256103	-2.19367	2.329079	0.283562	0.075614	0.074328	-0.480469	0.222168	-0.681885
502.0	9.33109	-2.132609	2.357035	0.258497	0.093121	0.068834	-0.482666	0.217773	-0.700195
503.0	9.338533	-2.043059	2.381966	0.238441	0.109706	0.068344	-0.480469	0.219971	-0.693359
504.0	9.35714	-1.960996	2.460332	0.224789	0.120935	0.065985	-0.48291	0.222168	-0.695801
505.0	9.332024	-1.909759	2.453813	0.231602	0.121847	0.057406	-0.480225	0.213379	-0.690918
506.0	9.365713	-1.845001	2.447626	0.241921	0.120627	0.044925	-0.482666	0.219971	-0.688721
507.0	9.455879	-1.897595	2.435121	0.255297	0.090304	0.026547	-0.478271	0.219971	-0.702637
508.0	9.502968	-1.935993	2.488774	0.287384	0.084476	0.00721	-0.47583	0.217773	-0.695557
509.0	9.740698	-2.093018	2.385486	0.301374	0.055798	-0.00813	-0.477783	0.211182	-0.699951
510.0	9.914615	-2.185282	2.325725	0.313153	0.04924	-0.02526	-0.484619	0.211182	-0.699951
511.0	10.090082	-2.279613	2.232532	0.331382	0.051351	-0.038069	-0.475342	0.206787	-0.695313
512.0	10.096346	-2.301659	2.318887	0.365803	0.049911	-0.038936	-0.477783	0.206787	-0.695313
513.0	10.19956	-2.2942	2.232184	0.353147	0.059202	-0.031199	-0.475342	0.20459	-0.69751
514.0	10.249567	-2.277574	2.09113	0.345008	0.068187	-0.016937	-0.477539	0.202393	-0.695068
515.0	10.276222	-2.204778	1.995231	0.341388	0.075442	-0.002871	-0.475098	0.195801	-0.692627
516.0	10.26935	-2.214094	1.787024	0.350402	0.093402	0.01741	-0.472656	0.193604	-0.704102
517.0	10.276296	-2.200668	1.647496	0.359216	0.106089	0.042095	-0.474854	0.191406	-0.692383
518.0	10.316541	-2.209629	1.63447	0.361097	0.10911	0.057339	-0.468018	0.191406	-0.69458
519.0	10.579251	-2.29379	2.32001	0.354577	0.121177	0.075874	-0.463623	0.191406	-0.699219
520.0	11.691363	-2.070458	4.715697	0.359173	0.270018	0.144634	-0.470215	0.191406	-0.699219
521.0	13.202115	-1.310094	3.756771	0.135658	0.396371	0.350208	-0.463379	0.189209	-0.703857
522.0	13.393654	-1.398344	3.756279	-0.187962	0.432159	0.395216	-0.461426	0.195801	-0.711182
523.0	12.383862	-0.66567	3.618558	-0.415547	0.442767	0.344534	-0.458984	0.191406	-0.703857
524.0	12.179752	-1.345923	3.013508	-0.31466	0.483593	0.37255	-0.452637	0.202637	-0.706787
525.0	11.073881	-1.51357	3.796966	-0.314279	0.350733	0.329484	-0.452637	0.200439	-0.708984
526.0	10.234038	-1.535069	3.819742	-0.318234	0.141811	0.224194	-0.450684	0.209229	-0.707031
527.0	9.729187	-2.009137	3.671335	-0.286847	-0.031911	0.14303	-0.452637	0.202637	-0.706787
528.0	9.5794	-2.572678	3.035977	-0.253239	-0.118624	0.085165	-0.455078	0.204834	-0.706787
529.0	9.640639	-2.899961	2.72806	-0.156557	-0.146252	0.027783	-0.443848	0.204834	-0.706787
530.0	9.730672	-3.208288	3.029248	-0.030668	-0.1727	-0.000772	-0.453125	0.209229	-0.716309
531.0	9.757152	-3.441743	3.406	0.071177	-0.203303	-0.009553	-0.455078	0.207031	-0.706787
532.0	9.355043	-3.458778	3.682427	0.160709	-0.253872	-0.014489	-0.457275	0.204834	-0.69751
533.0	8.78702	-3.040821	3.848223	0.264293	-0.270452	0.006593	-0.452637	0.200439	-0.697266
534.0	8.174272	-2.39696	4.129271	0.384181	-0.213585	0.049064	-0.454834	0.200439	-0.704346
535.0	7.548233	-1.700545	4.479681	0.491279	-0.117593	0.132165	-0.454834	0.200195	-0.695068
536.0	7.178691	-1.13274	4.705414	0.526695	-0.025591	0.213568	-0.452637	0.198242	-0.704346
537.0	7.429704	-0.955093	5.170627	0.507311	0.053176	0.271526	-0.45459	0.193604	-0.699463
538.0	7.75147	-0.733559	5.092591	0.474868	0.060663	0.305989	-0.450195	0.198242	-0.699707
539.0	7.982292	-0.37438	4.829204	0.441872	0.03889	0.309065	-0.450195	0.196045	-0.701904
540.0	8.075099	0.121006	4.866297	0.393467	0.044502	0.28816	-0.452393	0.191406	-0.699219
541.0	8.128376	0.42497	5.018033	0.34979	0.104599	0.275197	-0.449951	0.191406	-0.699219
542.0	8.432557	0.384531	5.044651	0.263536	0.107034	0.275962	-0.452393	0.195801	-0.699463
543.0	8.778407	0.103557	4.935271	0.148595	0.053779	0.279015	-0.449951	0.189209	-0.703857
544.0	9.092228	-0.290605	4.820986	0.05612	-0.002525	0.254126	-0.450195	0.193848	-0.706299
545.0	9.206947	-0.696178	4.660211	-0.031464	-0.039739	0.194162	-0.445557	0.19165	-0.70874
546.0	9.290648	-0.94018	4.344851	-0.068121	-0.08956	0.093491	-0.447998	0.193848	-0.70166
547.0	9.207511	-0.997809	4.023904	-0.072082	-0.123029	-0.034533	-0.447754	0.191406	-0.692383
548.0	9.131442	-0.962203	3.828255	-0.0446	-0.135851	-0.170153	-0.447754	0.191406	-0.697021
549.0	9.005566	-0.78587	3.661573	-0.009971	-0.151637	-0.306918	-0.452148	0.187012	-0.696777
550.0	8.94431	-0.820314	3.655708	0.020501	-0.162872	-0.428401	-0.452148	0.187012	-0.699219
551.0	8.990212	-0.926303	3.578954	0.033999	-0.175982	-0.518484	-0.452148	0.187012	-0.699219
552.0	8.985136	-1.009131	3.478811	0.038735	-0.191258	-0.570035	-0.449951	0.187012	-0.696777
553.0	9.07796	-1.117002	3.36819	0.028822	-0.201688	-0.589403	-0.454102	0.178223	-0.69873
554.0	9.20509	-1.18389	3.286251	0.003899	-0.201625	-0.579442	-0.456299	0.178223	-0.696533
555.0	9.180706	-1.148239	3.130244	-0.026418	-0.171712	-0.550387	-0.456299	0.178223	-0.689453
556.0	9.14814	-1.137118	3.033051	-0.02652	-0.131962	-0.517581	-0.460693	0.173828	-0.69165
557.0	9.052718	-1.179165	2.892978	0.000208	-0.096761	-0.466525	-0.453857	0.171631	-0.689209
558.0	8.926243	-1.229468	2.773331	0.025344	-0.06803	-0.412152	-0.460693	0.176025	-0.696533
559.0	8.753863	-1.217721	2.592304	0.063489	-0.031356	-0.357666	-0.455811	0.165039	-0.686768
560.0	8.530082	-1.215464	2.53632	0.100733	-0.001811	-0.312605	-0.462891	0.171631	-0.703125
561.0	8.311727	-1.059908	2.456893	0.107891	0.013162	-0.272448	-0.451416	0.167236	-0.691406
562.0	8.172987	-0.90799	2.451992	0.107368	0.050286	-0.226285	-0.458008	0.165039	-0.693604
563.0	8.191574	-0.695902	2.532398	0.07493	0.091869	-0.193505	-0.451172	0.160645	-0.693604
564.0	8.2279	-0.529708	2.430558	0.034908	0.125632	-0.161689	-0.455811	0.165039	-0.696045
565.0	8.243435	-0.280189	2.350613	-0.017391	0.149488	-0.130584	-0.453613	0.167236	-0.703125
566.0	8.315373	-0.065572	2.438482	-0.065564	0.189293	-0.101542	-0.448975	0.165039	-0.698242
567.0	8.440845	0.220222	2.466376	-0.139496	0.197432	-0.077447	-0.446533	0.162842	-0.693604
568.0	8.464766	0.361419	2.497207	-0.234756	0.206064	-0.040581	-0.449219	0.169434	-0.698486
569.0	8.551792	0.444297	2.557983	-0.319896	0.190985	-0.029324	-0.449219	0.169434	-0.698486
570.0	8.61857	0.304736	2.563535	-0.442117	0.153352	-0.024588	-0.448975	0.167236	-0.691406
571.0	8.726944	0.135845	2.343309	-0.54927	0.098906	-0.0371	-0.447021	0.173828	-0.69165
572.0	8.86998	-0.089482	2.163125	-0.622034	0.069223	-0.062271	-0.444824	0.173828	-0.696289
573.0	8.972156	-0.228767	2.104049	-0.668483	0.04597	-0.091859	-0.436035	0.178223	-0.691895
574.0	9.135032	-0.278232	2.137764	-0.657408	0.025823	-0.134948	-0.440674	0.182617	-0.694336
575.0	9.49516	-0.296431	2.246549	-0.630418	0.018856	-0.185396	-0.443115	0.187256	-0.696777
576.0	9.77767	-0.486233	2.5992	-0.616262	0.043009	-0.214514	-0.440918	0.19165	-0.689941
577.0	10.104012	-0.851546	2.869672	-0.608529	0.065137	-0.234378	-0.440918	0.19165	-0.692383
578.0	10.345368	-1.205283	3.16686	-0.575245	0.079235	-0.222736	-0.443115	0.189453	-0.697021
579.0	10.451421	-1.51972	3.223211	-0.521957	0.068527	-0.18913	-0.434326	0.196045	-0.687988
580.0	10.50291	-1.770176	2.934718	-0.493104	0.02655	-0.157979	-0.436768	0.196045	-0.687988
581.0	10.47054	-1.879941	2.640033	-0.45952	-0.011014	-0.133596	-0.432373	0.200439	-0.697266
582.0	10.435595	-1.725684	2.353287	-0.430727	-0.042411	-0.118727	-0.43457	0.198242	-0.685547
583.0	10.386294	-1.367866	1.927708	-0.414886	-0.047374	-0.109868	-0.429932	0.198242	-0.695068
584.0	10.399645	-0.967815	1.453113	-0.448782	-0.051074	-0.096879	-0.432617	0.204834	-0.683594
585.0	10.702972	-0.70727	1.548263	-0.495206	0.003364	-0.090009	-0.430176	0.204834	-0.692871
586.0	12.25132	-1.072069	5.177773	-0.39862	0.327223	-0.147312	-0.428223	0.211426	-0.690918
587.0	15.080646	-2.973035	8.690606	-0.311829	0.225419	-0.406586	-0.428223	0.207031	-0.688232
588.0	14.800467	-3.467094	2.78353	-0.164949	-0.547955	-0.493007	-0.428223	0.209229	-0.683838
589.0	12.320945	-3.666493	4.307481	0.269702	-0.446346	-0.643481	-0.432617	0.207031	-0.678955
590.0	11.793605	-2.736056	3.447698	0.185933	-0.506763	-0.694005	-0.432617	0.204834	-0.681152
591.0	11.270604	-1.322019	3.060806	0.205268	-0.423244	-0.603955	-0.439453	0.207031	-0.678955
592.0	11.177953	-0.537465	3.052379	0.187394	-0.369306	-0.430754	-0.436768	0.200439	-0.681152
593.0	10.78918	-0.068229	3.358229	0.090552	-0.183958	-0.240944	-0.436768	0.200439	-0.68335
594.0	10.106665	0.254943	4.269994	-0.098356	-0.016607	-0.145071	-0.443604	0.197998	-0.674072
595.0	9.46081	0.468232	4.408175	-0.259266	0.085287	-0.130563	-0.441406	0.200439	-0.678711
596.0	8.838608	0.416087	4.914769	-0.361935	0.06519	-0.198852	-0.44165	0.209229	-0.683838
597.0	8.255864	0.173018	5.290784	-0.385758	-0.006951	-0.297909	-0.439453	0.209229	-0.679199
598.0	8.042899	-0.150564	5.265245	-0.405147	-0.020997	-0.365233	-0.435059	0.211426	-0.681396
599.0	8.233694	-0.636016	4.932268	-0.452714	-0.021545	-0.426299	-0.437256	0.211426	-0.681396
600.0	8.249545	-1.249642	4.713293	-0.473747	-0.054206	-0.500994	-0.444092	0.211426	-0.672119
601.0	8.320606	-1.738201	4.482447	-0.440991	-0.100495	-0.541399	-0.439697	0.213623	-0.681641
602.0	8.349874	-1.998255	4.564226	-0.389736	-0.104999	-0.538716	-0.442139	0.218018	-0.679443
603.0	8.52521	-1.908323	4.465636	-0.315169	-0.114828	-0.494679	-0.437256	0.209229	-0.681396
604.0	8.543195	-1.701254	4.445631	-0.183257	-0.12023	-0.417124	-0.444092	0.211426	-0.669922
605.0	8.766055	-1.801114	4.375379	-0.050861	-0.121634	-0.301535	-0.444092	0.213623	-0.674561
606.0	9.296592	-2.192073	4.220492	0.052399	-0.14986	-0.170937	-0.444092	0.213623	-0.674561
607.0	9.806571	-2.366576	3.900762	0.07828	-0.169052	-0.024012	-0.444336	0.21582	-0.679443
608.0	9.84229	-2.303005	3.402034	0.123592	-0.16258	0.128949	-0.446533	0.21582	-0.677002
609.0	9.466381	-2.19539	3.306126	0.147296	-0.137918	0.296966	-0.442139	0.218018	-0.672363
610.0	8.96195	-2.00722	3.191517	0.197257	-0.083081	0.430812	-0.442139	0.218018	-0.667725
611.0	8.520447	-1.932769	3.173608	0.258501	-0.063023	0.544583	-0.437744	0.224609	-0.672607
612.0	8.189424	-1.883335	3.162658	0.304591	-0.037961	0.615006	-0.439941	0.222412	-0.672607
613.0	7.951521	-1.808281	3.362634	0.294351	-0.016574	0.635666	-0.442139	0.222412	-0.672607
614.0	7.874346	-1.639703	3.52864	0.211007	0.007998	0.615475	-0.444824	0.229004	-0.668213
615.0	7.909845	-1.59209	3.548103	0.135874	0.048405	0.571577	-0.437744	0.224609	-0.67041
616.0	8.10378	-1.579955	3.402337	0.093024	0.079055	0.520356	-0.436035	0.233398	-0.673096
617.0	8.389602	-1.670635	3.300553	0.073792	0.09995	0.467394	-0.437988	0.229004	-0.670654
618.0	8.641477	-1.85952	3.170246	0.101572	0.109387	0.429264	-0.436035	0.237793	-0.675537
619.0	8.729036	-1.944038	3.08254	0.143417	0.082016	0.418074	-0.431641	0.237793	-0.680176
620.0	8.576571	-2.051102	2.953074	0.200817	0.046141	0.404606	-0.427246	0.242188	-0.677979
621.0	8.500593	-2.056535	2.889036	0.286068	0.030097	0.389488	-0.427246	0.23999	-0.677979
622.0	8.440075	-2.072294	2.775053	0.36795	0.024292	0.376268	-0.431641	0.23999	-0.675537
623.0	8.37707	-2.148204	2.597101	0.442709	0.022447	0.342955	-0.427246	0.23999	-0.67334
624.0	8.252799	-2.225279	2.557979	0.528333	0.012387	0.29309	-0.429688	0.244385	-0.677979
625.0	8.094841	-2.273555	2.361821	0.597042	-0.000131	0.231568	-0.424561	0.231201	-0.67749
626.0	8.032785	-2.167616	2.278515	0.656013	-0.013508	0.194286	-0.429199	0.235596	-0.675537
627.0	8.037606	-2.075723	2.30093	0.716483	-0.03925	0.161	-0.422363	0.231201	-0.679932
628.0	7.915405	-1.875157	2.237109	0.738061	-0.083232	0.14378	-0.424805	0.237793	-0.680176
629.0	7.860353	-1.688703	2.275534	0.789495	-0.120336	0.119423	-0.426758	0.226807	-0.675049
630.0	7.740083	-1.643813	2.217138	0.80398	-0.201648	0.117032	-0.426758	0.231201	-0.682373
631.0	7.879608	-1.441705	2.088381	0.823545	-0.259039	0.128232	-0.428955	0.226807	-0.67749
632.0	8.346604	-1.288993	1.774461	0.841111	-0.2619	0.153325	-0.424316	0.222412	-0.675049
633.0	8.996123	-1.337671	1.748556	0.839699	-0.211816	0.186161	-0.428467	0.21582	-0.677002
634.0	9.689793	-1.440662	1.924706	0.799772	-0.154946	0.239013	-0.424072	0.220215	-0.677246
635.0	10.024679	-1.548409	2.189286	0.771182	-0.068159	0.273056	-0.426025	0.213623	-0.683838
636.0	10.253291	-1.693937	2.484501	0.71039	0.011839	0.30523	-0.421875	0.218018	-0.681885
637.0	10.359466	-1.90526	2.745287	0.64415	0.085619	0.319086	-0.421631	0.211426	-0.679199
638.0	10.392641	-1.995789	2.956503	0.578459	0.123645	0.317773	-0.424072	0.220215	-0.688721
639.0	10.549459	-1.944905	2.900286	0.523413	0.119393	0.315939	-0.416748	0.207031	-0.681396
640.0	10.787817	-1.547922	2.564865	0.481713	0.043188	0.301593	-0.419434	0.213623	-0.683838
641.0	10.817203	-0.988561	2.022707	0.448546	-0.067122	0.261771	-0.421631	0.211426	-0.683838
642.0	10.747632	-0.719433	1.377918	0.43416	-0.166519	0.211828	-0.421631	0.211426	-0.681641
643.0	10.649081	-0.853145	0.940945	0.403098	-0.258658	0.148144	-0.421143	0.204834	-0.681396
644.0	10.554442	-1.185996	0.870529	0.330575	-0.353673	0.091407	-0.428467	0.213623	-0.688477
645.0	11.230578	-2.05611	3.713934	0.326858	-0.336082	0.063804	-0.421387	0.209229	-0.679199
646.0	13.791802	-1.35112	4.536065	0.074406	-0.062721	0.231857	-0.423828	0.213623	-0.679199
647.0	16.274935	-2.15926	2.748233	0.157653	0.576334	0.321843	-0.416992	0.211426	-0.683838
648.0	14.754301	0.098677	7.174729	-0.364363	0.285467	0.362038	-0.415283	0.222412	-0.681885
649.0	13.546843	-0.282689	3.511327	-0.40152	0.22505	0.390383	-0.408203	0.218262	-0.684082
650.0	12.249247	-1.83909	5.315083	-0.133455	0.049781	0.396772	-0.413086	0.227051	-0.682129
651.0	12.211806	-2.772609	5.039102	-0.068444	-0.206548	0.392848	-0.408691	0.229248	-0.679932
652.0	10.616992	-2.05476	4.228738	0.056265	-0.382037	0.393189	-0.415771	0.233643	-0.677734
653.0	8.134918	-1.12852	3.882641	0.169419	-0.70038	0.315267	-0.415771	0.233643	-0.679932
654.0	7.426308	-1.111194	3.516326	0.347396	-0.596414	0.310453	-0.420166	0.231201	-0.672852
655.0	7.704223	-1.60095	4.909152	0.477666	-0.207362	0.384718	-0.417725	0.229004	-0.67749
656.0	8.147978	-2.02292	5.833493	0.400923	-0.054594	0.415987	-0.422363	0.233398	-0.682373
657.0	8.877703	-1.938474	4.932756	0.254841	-0.106634	0.428944	-0.411133	0.23584	-0.680176
658.0	9.035468	-1.537646	3.986129	0.289796	-0.060699	0.407798	-0.415771	0.23584	-0.677734
659.0	8.788964	-1.385854	3.974379	0.325219	0.048534	0.378551	-0.413574	0.240234	-0.675537
660.0	8.882941	-1.50792	4.311203	0.294254	0.200878	0.366509	-0.415771	0.23584	-0.682373
661.0	9.048419	-1.581497	4.752626	0.183415	0.295357	0.331311	-0.406738	0.233643	-0.687012
662.0	9.398619	-1.654222	5.139568	-0.016163	0.283423	0.242516	-0.404785	0.242432	-0.682617
663.0	9.709517	-1.515523	4.869975	-0.221681	0.179867	0.103847	-0.404785	0.242432	-0.687256
664.0	9.788608	-1.149671	4.436548	-0.314432	0.056657	-0.025696	-0.407227	0.249023	-0.682861
665.0	9.561414	-0.654689	4.150931	-0.315875	-0.009872	-0.139731	-0.402588	0.246826	-0.678223
666.0	9.276713	-0.142187	3.935568	-0.261787	-0.007469	-0.22086	-0.407227	0.246826	-0.6875
667.0	8.927588	0.206835	3.778727	-0.182075	-0.009927	-0.29425	-0.402588	0.244629	-0.68042
668.0	8.441617	0.360166	3.526924	-0.107297	-0.006207	-0.349062	-0.407227	0.249023	-0.685303
669.0	8.057263	0.150015	3.389121	-0.040403	0.023324	-0.401937	-0.40918	0.242432	-0.68042
670.0	7.713894	0.015981	3.290498	0.003546	0.060901	-0.448968	-0.404541	0.240234	-0.682617
671.0	7.491469	-0.162872	3.21955	0.031184	0.062594	-0.490019	-0.404541	0.240234	-0.687256
672.0	7.438721	-0.339471	3.288555	0.020727	0.070585	-0.51885	-0.404785	0.242432	-0.694336
673.0	7.574162	-0.605523	3.323871	-0.018137	0.091704	-0.534198	-0.402344	0.240234	-0.689453
674.0	7.747364	-0.731257	3.366085	-0.077081	0.115263	-0.534849	-0.411377	0.240234	-0.689453
675.0	7.960728	-0.721146	3.256338	-0.157278	0.116077	-0.524314	-0.406738	0.238037	-0.691895
676.0	8.066152	-0.704746	3.00319	-0.210878	0.099714	-0.512293	-0.402588	0.242432	-0.68042
677.0	8.079949	-0.615761	2.838864	-0.241324	0.082966	-0.489365	-0.401855	0.229248	-0.68457
678.0	8.064669	-0.55263	2.590264	-0.269743	0.075791	-0.446783	-0.40918	0.242432	-0.687256
679.0	8.045021	-0.511602	2.397661	-0.294644	0.065852	-0.394626	-0.402344	0.240234	-0.694092
680.0	8.007394	-0.465552	2.344089	-0.321943	0.081169	-0.331807	-0.40918	0.240234	-0.696533
681.0	7.89829	-0.507849	2.39607	-0.34676	0.115652	-0.284558	-0.404785	0.244629	-0.689697
682.0	8.006033	-0.528598	2.411814	-0.381932	0.137214	-0.241446	-0.402588	0.244629	-0.689697
683.0	8.005951	-0.552103	2.252009	-0.404065	0.160529	-0.202997	-0.402588	0.244629	-0.6875
684.0	8.127107	-0.606772	2.187212	-0.452541	0.152288	-0.153897	-0.402832	0.251221	-0.692383
685.0	8.122752	-0.651704	2.115713	-0.520141	0.125258	-0.094381	-0.400391	0.246826	-0.689697
686.0	8.234149	-0.582841	1.98649	-0.624969	0.074121	-0.036187	-0.405273	0.253418	-0.685303
687.0	8.273186	-0.643332	1.908358	-0.716015	0.037624	0.01215	-0.400879	0.26001	-0.697266
688.0	8.547845	-0.611375	1.903531	-0.76741	0.016498	0.028363	-0.398926	0.264404	-0.683594
689.0	8.915059	-0.678857	1.790478	-0.813405	-0.026363	0.029953	-0.396484	0.262207	-0.685791
690.0	9.100185	-0.724419	2.0862	-0.737673	-0.044817	-0.00376	-0.403809	0.273193	-0.686035
691.0	9.464002	-0.85694	1.870343	-0.630798	-0.112102	-0.055903	-0.392578	0.273438	-0.683838
692.0	10.098701	-1.167781	1.852696	-0.556414	-0.111326	-0.117356	-0.401855	0.284424	-0.681885
693.0	10.652001	-1.385114	2.534289	-0.503498	-0.077217	-0.178126	-0.399658	0.282227	-0.681885
694.0	10.990559	-1.504136	3.220188	-0.426697	-0.039838	-0.224916	-0.399658	0.286621	-0.681885
695.0	11.159758	-1.620701	3.38691	-0.341125	0.013415	-0.247821	-0.401855	0.284424	-0.681885
696.0	11.111526	-1.748185	3.124816	-0.280395	0.088338	-0.240586	-0.397461	0.286621	-0.684326
697.0	10.792504	-1.82537	2.595023	-0.267764	0.073206	-0.196002	-0.397461	0.286621	-0.679688
698.0	10.346045	-1.800512	1.977646	-0.291679	0.021241	-0.1419	-0.397705	0.288818	-0.686768
699.0	10.212871	-1.552235	1.130633	-0.373151	0.016191	-0.107771	-0.397705	0.288818	-0.679688
700.0	10.364619	-0.990559	0.801599	-0.490566	0.115618	-0.084001	-0.402344	0.297607	-0.682373
701.0	11.249684	-0.531547	2.513159	-0.567198	0.322586	-0.100759	-0.395508	0.293213	-0.679932
702.0	13.291665	-1.622894	8.318152	-0.416167	0.688194	-0.262511	-0.393555	0.299805	-0.689453
703.0	15.272533	-2.416679	5.034223	-0.418053	-0.486026	-0.508296	-0.391113	0.297607	-0.687012
704.0	14.393269	-2.997553	3.397937	-0.001112	-0.411903	-0.683102	-0.402344	0.29541	-0.677734
705.0	12.49837	-2.433529	4.992072	0.05337	-0.457976	-0.846282	-0.404541	0.291016	-0.67749
706.0	11.521398	-1.425	3.991717	0.112771	-0.25678	-0.797236	-0.406494	0.288818	-0.67749
707.0	11.008226	-0.739599	4.947519	0.160351	-0.222802	-0.635967	-0.410889	0.281982	-0.681885
708.0	10.190186	-1.06079	5.069615	0.048428	-0.148501	-0.479953	-0.408936	0.288818	-0.679688
709.0	8.766112	-1.030857	4.130188	-0.080095	-0.268368	-0.392709	-0.410889	0.28418	-0.679688
710.0	7.577672	-1.282157	4.290454	-0.107179	-0.249824	-0.384622	-0.422119	0.28418	-0.679688
711.0	8.139651	-1.467057	4.745859	-0.217878	-0.135793	-0.434978	-0.413086	0.281982	-0.679443
712.0	8.947683	-1.496016	5.262699	-0.295859	-0.09814	-0.475522	-0.424561	0.28418	-0.677246
713.0	9.27512	-1.480296	4.971492	-0.3528	-0.181973	-0.538587	-0.422119	0.279785	-0.677002
714.0	9.294953	-1.517036	4.348965	-0.330208	-0.183991	-0.605718	-0.424805	0.290771	-0.682129
715.0	9.227931	-1.488333	4.053552	-0.173601	-0.150561	-0.606716	-0.424316	0.279785	-0.677002
716.0	9.185173	-1.490894	3.98983	-0.003664	-0.149689	-0.542872	-0.426758	0.286377	-0.672607
717.0	9.764822	-1.303826	3.709132	0.128711	-0.143336	-0.379446	-0.424072	0.277588	-0.674805
718.0	10.512008	-1.002928	3.519142	0.253853	-0.227399	-0.158909	-0.428711	0.279785	-0.677002
719.0	11.230114	-0.701916	3.383615	0.244702	-0.313864	0.16078	-0.433105	0.277588	-0.681641
720.0	10.425991	-0.339975	2.978209	0.253397	-0.336058	0.394055	-0.435791	0.28418	-0.677246
721.0	9.84833	-0.738572	2.961828	0.224288	-0.300067	0.542241	-0.42627	0.275391	-0.677002
722.0	9.344461	-1.742504	2.760784	0.20214	-0.212709	0.654707	-0.44043	0.288574	-0.675049
723.0	8.442001	-2.45727	2.920846	0.222106	-0.097154	0.707188	-0.431152	0.28418	-0.686523
724.0	7.601906	-2.717171	3.161021	0.238712	0.010082	0.700726	-0.431396	0.288574	-0.67749
725.0	7.000294	-2.612595	3.531144	0.234385	0.082906	0.659484	-0.427002	0.288574	-0.684326
726.0	6.717936	-2.326552	3.743424	0.189983	0.086765	0.598316	-0.429199	0.290771	-0.679932
727.0	6.689578	-2.092155	3.798861	0.147241	0.08983	0.517637	-0.422363	0.288574	-0.682129
728.0	6.987737	-2.075451	3.626517	0.115723	0.111197	0.436348	-0.424805	0.295166	-0.679932
729.0	7.391755	-2.1819	3.378291	0.100536	0.107519	0.364149	-0.424805	0.290771	-0.682129
730.0	7.71296	-2.281793	3.130495	0.091009	0.087718	0.315515	-0.425049	0.299561	-0.684814
731.0	7.846591	-2.261646	2.82073	0.123123	0.053342	0.271583	-0.420166	0.288574	-0.688965
732.0	8.035432	-2.11062	2.63512	0.192972	0.016225	0.253991	-0.422607	0.295166	-0.689209
733.0	8.208695	-1.821395	2.399897	0.268563	-0.011965	0.253583	-0.420166	0.290771	-0.689209
734.0	8.300926	-1.503368	2.075215	0.389992	-0.009519	0.235087	-0.425049	0.299805	-0.69165
735.0	8.265094	-1.557424	2.017887	0.517455	0.012634	0.224619	-0.424561	0.288574	-0.693604
736.0	8.300192	-1.762624	1.998832	0.602091	0.052331	0.220602	-0.422363	0.288574	-0.696045
737.0	8.277718	-1.956899	1.935314	0.687629	0.110534	0.203598	-0.420166	0.286377	-0.695801
738.0	8.351989	-2.161895	1.931969	0.731529	0.142642	0.190042	-0.417725	0.28418	-0.695801
739.0	8.353337	-2.23012	1.985601	0.74238	0.128867	0.161529	-0.41748	0.279785	-0.695557
740.0	8.253894	-2.177503	2.004837	0.768573	0.070275	0.103227	-0.415283	0.281982	-0.697998
741.0	8.188686	-2.088706	1.9772	0.781248	-0.028515	0.064781	-0.415039	0.270996	-0.70459
742.0	8.337651	-2.159369	1.876204	0.817224	-0.134905	0.033959	-0.421631	0.270996	-0.70459
743.0	8.82589	-1.950398	1.878221	0.809878	-0.159566	0.024851	-0.421387	0.264404	-0.704346
744.0	9.290864	-1.692968	1.849071	0.786323	-0.146456	0.024288	-0.421387	0.262207	-0.704346
745.0	9.449495	-1.231281	1.836056	0.794719	-0.121559	0.048858	-0.421143	0.257813	-0.701904
746.0	9.735571	-1.054759	1.958276	0.77341	-0.068398	0.090315	-0.418945	0.255615	-0.706299
747.0	9.997942	-0.965721	2.065438	0.706588	0.018075	0.147654	-0.422852	0.244629	-0.706055
748.0	10.39955	-1.165801	2.218086	0.660165	0.118658	0.211827	-0.420898	0.253418	-0.70874
749.0	10.572861	-1.219504	2.317441	0.611958	0.169539	0.262259	-0.418457	0.244629	-0.715332
750.0	10.736718	-1.081943	2.379882	0.540289	0.216249	0.290776	-0.41626	0.246826	-0.710693
751.0	10.915881	-0.806959	2.395858	0.460112	0.252504	0.293391	-0.413818	0.244629	-0.717529
752.0	10.971521	-0.54076	2.182713	0.388395	0.22609	0.278162	-0.416016	0.240234	-0.717529
753.0	10.724178	-0.493563	1.839016	0.325848	0.171659	0.224574	-0.411377	0.240234	-0.715088
754.0	10.563508	-0.827071	1.468967	0.272541	0.083192	0.153206	-0.411621	0.246826	-0.715332
755.0	10.615142	-1.507681	1.279034	0.192863	0.009936	0.077811	-0.40918	0.240234	-0.719727
756.0	11.249235	-2.365573	3.644229	0.161299	-0.012173	0.024616	-0.411377	0.240234	-0.724365
757.0	13.510511	-1.726684	4.933454	-0.017069	0.104697	0.185962	-0.40918	0.242432	-0.724365
758.0	15.774926	-2.27628	3.548909	0.062764	0.600567	0.305964	-0.407227	0.244629	-0.726807
759.0	14.698094	0.129254	7.69946	-0.428904	0.531584	0.32983	-0.402832	0.249023	-0.727051
760.0	13.837817	0.042713	3.477483	-0.652897	0.428343	0.406158	-0.403076	0.255859	-0.736572
761.0	12.612886	-1.66996	4.330509	-0.380103	0.270528	0.393613	-0.398682	0.255859	-0.729736
762.0	12.03706	-2.713953	4.090408	-0.325053	-0.094086	0.332208	-0.401123	0.262451	-0.734619
763.0	10.447248	-2.252435	3.449181	-0.155646	-0.266873	0.331024	-0.407715	0.260254	-0.727539
764.0	8.5511	-1.719934	3.054021	-0.060095	-0.513641	0.264765	-0.4104	0.266846	-0.72998
765.0	7.785336	-1.80249	2.908674	0.096643	-0.422195	0.248692	-0.410156	0.264648	-0.725342
766.0	7.897341	-1.766252	4.045006	0.283967	-0.119167	0.334716	-0.405762	0.269043	-0.739502
767.0	8.272219	-1.680555	5.50768	0.299222	0.083519	0.408802	-0.405762	0.266846	-0.727783
768.0	9.36767	-1.358314	5.589606	0.16996	0.108414	0.432734	-0.408203	0.269043	-0.741699
769.0	10.132564	-1.136766	4.191437	0.1737	0.113766	0.418426	-0.407959	0.264648	-0.725342
770.0	9.791769	-1.24636	3.804455	0.252369	0.170746	0.370101	-0.407959	0.266846	-0.737061
771.0	9.270801	-1.613699	4.072467	0.210896	0.276	0.321362	-0.405518	0.262451	-0.72998
772.0	9.087478	-2.080508	4.2093	0.074116	0.364316	0.283028	-0.398926	0.266846	-0.734619
773.0	9.375566	-2.450903	4.728614	-0.146307	0.344886	0.189918	-0.403564	0.269043	-0.734863
774.0	9.421195	-2.403595	4.250829	-0.431722	0.174145	0.049566	-0.401611	0.275635	-0.732666
775.0	9.188154	-1.766982	3.873219	-0.509068	0.058364	-0.138213	-0.396973	0.27124	-0.734863
776.0	8.959686	-1.054845	3.763053	-0.526728	0.009648	-0.274452	-0.401611	0.275635	-0.737305
777.0	9.039509	-0.399604	3.495641	-0.436138	-0.021635	-0.375806	-0.401611	0.273438	-0.739502
778.0	8.992326	0.037928	3.210324	-0.336973	-0.029214	-0.43795	-0.401611	0.277832	-0.730469
779.0	8.558963	0.092594	3.061106	-0.221785	-0.020716	-0.491363	-0.410645	0.273438	-0.734863
780.0	8.025839	0.122462	3.148479	-0.118336	0.013366	-0.529942	-0.40625	0.277832	-0.737305
781.0	7.600549	0.088267	3.111425	-0.02484	0.05601	-0.551796	-0.406006	0.273438	-0.746582
782.0	7.28306	0.031479	3.151805	0.018352	0.071317	-0.56783	-0.412598	0.27124	-0.737061
783.0	7.159474	-0.193301	3.122499	0.010344	0.072071	-0.573944	-0.407959	0.264648	-0.739258
784.0	7.221913	-0.410409	3.164458	-0.008458	0.090631	-0.576203	-0.410645	0.273438	-0.739502
785.0	7.281026	-0.470465	3.123116	-0.063158	0.129114	-0.566265	-0.414795	0.266846	-0.734619
786.0	7.489921	-0.472223	3.074014	-0.136614	0.155929	-0.547265	-0.4104	0.269043	-0.737061
787.0	7.690287	-0.363364	2.862215	-0.19032	0.147328	-0.523241	-0.410156	0.262451	-0.736816
788.0	7.768522	-0.353215	2.596682	-0.225062	0.12845	-0.492665	-0.412598	0.266846	-0.748535
789.0	7.859764	-0.47705	2.390406	-0.235543	0.085528	-0.447125	-0.410156	0.262451	-0.741455
790.0	7.814859	-0.582465	2.154955	-0.228121	0.036647	-0.389697	-0.408203	0.269043	-0.741699
791.0	7.814705	-0.796311	2.306371	-0.234538	0.01046	-0.316229	-0.4104	0.266846	-0.734619
792.0	7.825524	-0.814476	2.347608	-0.294848	0.028151	-0.242865	-0.414795	0.264648	-0.736816
793.0	7.835351	-0.772409	2.203786	-0.337944	0.104404	-0.171428	-0.4104	0.266846	-0.746338
794.0	7.860769	-0.797548	2.181555	-0.389368	0.144121	-0.114254	-0.412842	0.273438	-0.737305
795.0	7.994462	-0.777462	2.049377	-0.438957	0.145049	-0.045796	-0.415039	0.275635	-0.737305
796.0	8.05331	-0.744567	2.03414	-0.462744	0.128013	0.011725	-0.412842	0.275635	-0.744385
797.0	8.262315	-0.739325	2.09576	-0.500371	0.091155	0.073287	-0.412842	0.273438	-0.734863
798.0	8.478725	-0.686635	2.111176	-0.542177	0.056307	0.110028	-0.408936	0.286621	-0.73999
799.0	8.772879	-0.698314	2.171038	-0.560933	0.009533	0.113281	-0.404297	0.284424	-0.742188
800.0	9.141956	-0.762334	2.062063	-0.52181	-0.048922	0.087398	-0.413574	0.291016	-0.744873
801.0	9.726176	-0.476176	2.027347	-0.387078	-0.081815	0.014608	-0.408936	0.291016	-0.737793
802.0	10.407642	-0.694598	2.507222	-0.254355	-0.06747	-0.059747	-0.413574	0.29541	-0.731201
803.0	11.038596	-1.029405	2.931296	-0.232705	-0.085122	-0.122326	-0.413818	0.29541	-0.740479
804.0	10.991339	-1.389856	3.28416	-0.174394	-0.076157	-0.15612	-0.413818	0.297607	-0.738037
805.0	10.827237	-1.849943	3.542116	-0.136916	-0.089187	-0.161766	-0.415771	0.291016	-0.733154
806.0	10.512741	-2.167773	3.023312	-0.137162	-0.122227	-0.13398	-0.417969	0.291016	-0.735596
807.0	10.09138	-2.028118	2.31519	-0.129393	-0.132106	-0.097656	-0.413574	0.29541	-0.731201
808.0	10.176909	-1.633349	1.482725	-0.171684	-0.125068	-0.058132	-0.420654	0.299805	-0.73584
809.0	10.52195	-1.218361	0.867857	-0.283113	-0.040029	-0.009989	-0.415771	0.293213	-0.72876
810.0	11.211483	-0.759965	1.698298	-0.414856	0.133275	0.020358	-0.418457	0.302002	-0.731445
811.0	13.500569	-0.84221	6.989412	-0.311547	0.680032	-0.059193	-0.413818	0.297607	-0.738037
812.0	15.732754	-2.756648	8.278781	-0.270239	-0.025262	-0.307637	-0.418457	0.302002	-0.738281
813.0	16.528617	-3.890005	3.150533	0.028803	-0.453227	-0.473924	-0.415771	0.291016	-0.737793
814.0	12.655736	-3.778228	6.20761	0.295035	-0.427799	-0.703276	-0.429199	0.291016	-0.735596
815.0	11.702984	-2.93533	3.964387	0.327218	-0.371442	-0.721474	-0.43335	0.281982	-0.73291
816.0	10.163304	-0.95121	4.304592	0.385697	-0.261532	-0.548204	-0.433594	0.286621	-0.733154
817.0	9.294989	-0.247174	3.382379	0.283819	-0.158285	-0.341585	-0.431152	0.279785	-0.730469
818.0	8.343691	0.046229	4.158945	0.113397	0.047269	-0.201529	-0.431152	0.279785	-0.73291
819.0	8.05114	-0.04349	4.727732	0.017256	0.027852	-0.211489	-0.437744	0.279785	-0.735107
820.0	9.05247	-0.139155	4.638932	0.022322	-0.131143	-0.314899	-0.442627	0.28418	-0.73291
821.0	9.737297	-0.230957	4.95068	-0.050604	-0.192046	-0.396847	-0.435303	0.273193	-0.725586
822.0	9.821073	-0.708204	5.035321	-0.25171	-0.192132	-0.495379	-0.446777	0.277588	-0.735107
823.0	9.71546	-1.402977	4.587219	-0.350323	-0.12832	-0.605401	-0.448975	0.275391	-0.728027
824.0	9.577655	-1.748921	4.445158	-0.324367	-0.069102	-0.667317	-0.450928	0.270996	-0.730225
825.0	9.417735	-1.567648	4.138525	-0.206778	-0.030226	-0.655987	-0.44873	0.268799	-0.725342
826.0	9.745461	-1.383113	3.898605	-0.027631	-0.006887	-0.498878	-0.448975	0.275391	-0.730225
827.0	10.291738	-1.114961	3.828838	0.060311	0.001858	-0.227442	-0.44873	0.268799	-0.727783
828.0	10.421787	-0.878343	3.957807	0.102731	-0.072534	0.051864	-0.453369	0.273193	-0.734863
829.0	9.93655	-0.796534	3.737086	0.104922	-0.119302	0.267768	-0.453125	0.266602	-0.727783
830.0	9.528527	-1.168804	3.396029	0.076812	-0.124206	0.39972	-0.455566	0.270996	-0.730225
831.0	9.037101	-1.825708	3.090085	0.056571	-0.102121	0.508128	-0.455322	0.268799	-0.723145
832.0	8.389563	-2.10698	2.966406	0.088048	-0.04806	0.568347	-0.453369	0.275391	-0.725586
833.0	7.743368	-2.004365	3.237079	0.078245	0.040559	0.592169	-0.453369	0.275391	-0.732666
834.0	7.203424	-1.661643	3.571315	0.024377	0.109259	0.583454	-0.455811	0.275391	-0.730225
835.0	6.909582	-1.311493	3.700903	-0.06186	0.14122	0.545359	-0.451172	0.277588	-0.72583
836.0	6.686518	-1.098323	3.623102	-0.137983	0.157892	0.484684	-0.456055	0.28418	-0.730713
837.0	6.725777	-1.031147	3.517048	-0.193783	0.207999	0.417053	-0.449219	0.279785	-0.735107
838.0	6.958708	-1.283236	3.352306	-0.231649	0.252295	0.361313	-0.449707	0.292969	-0.730957
839.0	7.236307	-1.476873	3.184456	-0.235691	0.290703	0.312832	-0.449463	0.288574	-0.733154
840.0	7.384848	-1.686469	3.03592	-0.19322	0.29137	0.267094	-0.442871	0.292969	-0.733398
841.0	7.543379	-1.773437	2.873183	-0.134326	0.245274	0.236279	-0.44751	0.292969	-0.730957
842.0	7.695306	-1.823589	2.634681	-0.055735	0.183539	0.200115	-0.442627	0.288574	-0.737793
843.0	7.763166	-1.851333	2.493096	0.039334	0.114305	0.174646	-0.440674	0.290771	-0.730957
844.0	7.826704	-1.965905	2.341371	0.123703	0.05663	0.145363	-0.447266	0.290771	-0.737793
845.0	7.909748	-2.141791	2.334536	0.181675	0.010015	0.10763	-0.442627	0.288574	-0.735352
846.0	8.056863	-2.317825	2.155467	0.260044	-0.014286	0.053251	-0.442627	0.28418	-0.730713
847.0	8.082002	-2.525785	2.170676	0.34443	-0.014794	-0.004425	-0.445068	0.288574	-0.742432
848.0	8.266287	-2.545553	2.135839	0.418737	-0.014834	-0.0588	-0.448975	0.277588	-0.735107
849.0	8.399011	-2.43466	2.259073	0.474684	-0.015235	-0.103457	-0.449219	0.279785	-0.73291
850.0	8.450456	-2.320681	2.309959	0.550458	-0.045668	-0.133482	-0.446533	0.273193	-0.732666
851.0	8.459368	-2.189508	2.424	0.639961	-0.117186	-0.146233	-0.44873	0.268799	-0.741699
852.0	8.764705	-2.204041	2.298866	0.698847	-0.210987	-0.11368	-0.45752	0.266602	-0.743896
853.0	9.132209	-1.999232	2.06526	0.770841	-0.251803	-0.075756	-0.457275	0.26001	-0.741455
854.0	9.583478	-1.911118	2.001257	0.781846	-0.293331	0.001025	-0.464111	0.26001	-0.739014
855.0	9.906471	-1.633552	1.912346	0.739116	-0.290739	0.097179	-0.457031	0.251221	-0.73877
856.0	10.324916	-1.521963	1.972585	0.652348	-0.210161	0.198806	-0.461426	0.248779	-0.738525
857.0	10.841658	-1.706958	2.201558	0.509613	-0.018976	0.288519	-0.465576	0.23999	-0.740723
858.0	11.265343	-1.945302	2.896148	0.34812	0.170893	0.356912	-0.457031	0.249023	-0.743164
859.0	11.535004	-1.977576	3.38588	0.223025	0.241084	0.409072	-0.45459	0.246826	-0.747803
860.0	11.680339	-1.547987	3.185267	0.160215	0.201176	0.417737	-0.457031	0.251221	-0.750244
861.0	11.428854	-0.919485	2.486995	0.173997	0.065946	0.362465	-0.461182	0.242188	-0.752197
862.0	10.969603	-0.478452	1.804349	0.239706	-0.105392	0.270461	-0.456787	0.246826	-0.750244
863.0	10.645089	-0.830922	1.285356	0.324428	-0.24953	0.176365	-0.461182	0.244385	-0.745361
864.0	10.526537	-1.55922	1.579455	0.414597	-0.352205	0.087106	-0.468018	0.242188	-0.745361
865.0	11.552319	-2.220454	6.322589	0.475274	-0.26845	0.073083	-0.471924	0.231201	-0.749512
866.0	15.282414	-2.003329	2.838086	0.057087	0.146061	0.306983	-0.469971	0.237793	-0.747559
867.0	14.878888	-0.916853	6.036905	0.048746	0.333115	0.35975	-0.463379	0.23999	-0.740723
868.0	13.2608	0.648487	5.817883	-0.560516	-0.06906	0.391525	-0.463379	0.244385	-0.747803
869.0	11.703495	-0.989132	3.940554	-0.2368	-0.002374	0.47158	-0.463379	0.23999	-0.75
870.0	10.94237	-2.83934	4.909124	-0.044998	-0.175227	0.517008	-0.46582	0.249023	-0.752441
871.0	9.781921	-2.371107	4.842587	0.131915	-0.326757	0.604864	-0.474609	0.242188	-0.747559
872.0	7.70391	-0.488819	4.043849	0.341641	-0.450554	0.637682	-0.475098	0.253174	-0.748047
873.0	6.324082	0.216557	3.973776	0.368041	-0.418434	0.595832	-0.477295	0.248779	-0.740967
874.0	7.313367	-0.668986	4.746746	0.306361	-0.149849	0.537529	-0.477295	0.248779	-0.747803
875.0	9.574005	-1.795245	4.741268	0.304714	0.068504	0.578638	-0.477051	0.246582	-0.740723
876.0	10.430174	-1.980734	4.396386	0.223584	0.014473	0.607928	-0.477295	0.248779	-0.743164
877.0	10.626883	-1.116604	3.995452	0.126255	-0.029866	0.609413	-0.477539	0.255371	-0.74585
878.0	10.123923	-0.438319	4.106143	0.030516	0.047847	0.597664	-0.477539	0.257568	-0.743652
879.0	10.089396	-0.492018	4.166316	-0.149184	0.115738	0.541618	-0.477295	0.253174	-0.74585
880.0	10.63017	-1.173399	4.235123	-0.330324	0.145634	0.395423	-0.477539	0.257568	-0.74585
881.0	10.979408	-1.857759	3.699991	-0.491001	0.029821	0.132041	-0.475586	0.261963	-0.746094
882.0	10.455946	-2.127908	3.327162	-0.554718	-0.071028	-0.148176	-0.478027	0.268555	-0.741699
883.0	9.725462	-1.615098	3.110859	-0.506937	-0.112415	-0.360531	-0.482422	0.26416	-0.736816
884.0	9.503507	-0.775626	2.986678	-0.398418	-0.111948	-0.473426	-0.487305	0.272949	-0.739502
885.0	9.211664	-0.121825	2.98228	-0.275354	-0.070998	-0.491538	-0.482178	0.261963	-0.750732
886.0	8.861898	0.123709	2.960409	-0.178115	-0.04003	-0.464234	-0.491455	0.266357	-0.746094
887.0	8.449424	0.156524	2.826011	-0.100112	0.002168	-0.416911	-0.490967	0.255371	-0.73877
888.0	8.054263	-0.063118	2.760809	-0.041352	0.063372	-0.363086	-0.489014	0.261963	-0.739014
889.0	7.594644	-0.324387	2.882917	-0.017432	0.104461	-0.331214	-0.491211	0.259766	-0.74585
890.0	7.209437	-0.679788	2.917206	-0.022457	0.126194	-0.324856	-0.495605	0.255371	-0.74585
891.0	6.9682	-1.136975	2.969511	-0.039093	0.15447	-0.338577	-0.495605	0.257568	-0.74585
892.0	6.821045	-1.449966	2.993592	-0.067767	0.181258	-0.35514	-0.497559	0.253174	-0.748047
893.0	6.941834	-1.489961	2.928239	-0.099529	0.189645	-0.368181	-0.493164	0.255371	-0.748047
894.0	7.265251	-1.193727	2.780494	-0.126412	0.177451	-0.360344	-0.495361	0.253174	-0.750244
895.0	7.535872	-0.732364	2.706821	-0.162464	0.135271	-0.347466	-0.497559	0.250977	-0.745605
896.0	7.788061	-0.31441	2.499656	-0.212272	0.099168	-0.324808	-0.499756	0.250977	-0.745605
897.0	7.962158	-0.06533	2.270523	-0.277693	0.07861	-0.297703	-0.497559	0.248779	-0.747803
898.0	8.066448	-0.108969	2.305265	-0.338155	0.083452	-0.258862	-0.497559	0.253174	-0.748047
899.0	7.996453	-0.237829	2.109683	-0.387398	0.120677	-0.222229	-0.499756	0.248779	-0.750244
900.0	7.938421	-0.354344	2.071577	-0.41907	0.174594	-0.180393	-0.497559	0.253174	-0.750244
901.0	7.83152	-0.404333	2.007241	-0.473396	0.250254	-0.108292	-0.502197	0.253174	-0.752686
902.0	8.054708	-0.507528	2.081098	-0.519068	0.314513	-0.044193	-0.498047	0.261963	-0.75293
903.0	8.400567	-0.542852	2.079457	-0.58777	0.357165	0.017614	-0.502441	0.259766	-0.748291
904.0	8.635059	-0.540978	2.141925	-0.630393	0.337736	0.055036	-0.493896	0.268555	-0.750977
905.0	8.704497	-0.674684	2.059821	-0.677662	0.250879	0.052578	-0.49585	0.261963	-0.755371
906.0	8.831822	-1.052559	2.004817	-0.70564	0.192007	0.046365	-0.496094	0.270752	-0.755615
907.0	8.945785	-1.182982	1.942416	-0.70418	0.134221	0.007087	-0.496094	0.272949	-0.748779
908.0	9.15027	-1.424029	2.168389	-0.626351	0.061878	-0.047048	-0.503174	0.277344	-0.749023
909.0	9.470826	-1.442453	2.643196	-0.501693	0.01351	-0.104484	-0.496338	0.277344	-0.744385
910.0	9.816723	-1.383934	3.074715	-0.399819	0.008969	-0.149861	-0.496582	0.279541	-0.749023
911.0	10.195433	-1.3238	3.419016	-0.329749	-0.04996	-0.18896	-0.498535	0.275146	-0.748779
912.0	10.33608	-1.545758	3.264345	-0.256528	-0.056008	-0.206659	-0.500977	0.279541	-0.744385
913.0	10.330483	-1.962195	3.072384	-0.215569	-0.08179	-0.211209	-0.503662	0.28833	-0.749268
914.0	10.272341	-2.274815	2.326185	-0.194291	-0.115856	-0.198578	-0.500977	0.281738	-0.756104
915.0	10.190778	-2.106806	1.618082	-0.1426	-0.078844	-0.16818	-0.505371	0.275146	-0.748779
916.0	10.237277	-1.547751	1.157208	-0.113474	-0.040867	-0.129203	-0.507813	0.283936	-0.73999
917.0	10.772054	-1.030242	1.571674	-0.126513	0.080826	-0.095208	-0.507568	0.277344	-0.741943
918.0	12.934046	-1.296225	5.926224	0.005648	0.578779	-0.16315	-0.503174	0.275146	-0.751221
919.0	15.338909	-2.854739	7.309206	0.075043	0.292393	-0.409529	-0.507568	0.275146	-0.751221
920.0	15.399278	-3.45569	3.649186	0.321432	-0.338686	-0.538577	-0.507324	0.270752	-0.750977
921.0	13.496964	-3.750781	5.198352	0.654214	-0.316989	-0.745952	-0.518066	0.257568	-0.755127
922.0	12.758946	-2.721423	3.777959	0.639701	-0.530801	-0.831084	-0.524902	0.255127	-0.750488
923.0	12.25095	-0.783303	3.055531	0.75585	-0.482175	-0.727771	-0.524414	0.248535	-0.745605
924.0	12.533047	0.423921	3.593419	0.734659	-0.29527	-0.477991	-0.530762	0.237549	-0.749756
925.0	11.520678	1.31646	2.772734	0.555868	-0.191387	-0.19913	-0.530518	0.230957	-0.744873
926.0	9.923297	1.788709	3.350767	0.323189	0.037402	0.012975	-0.530762	0.237549	-0.747559
927.0	9.096177	1.749091	4.012675	-0.00442	0.184899	0.052243	-0.526123	0.233154	-0.75415
928.0	8.792079	1.394859	4.367309	-0.178485	0.1428	-0.01876	-0.528564	0.237549	-0.752197
929.0	8.051956	0.745746	5.078158	-0.208844	0.056323	-0.141977	-0.528076	0.226563	-0.744629
930.0	7.942045	-0.178015	5.02857	-0.278364	0.015556	-0.248119	-0.52832	0.233154	-0.747314
931.0	8.505681	-1.074286	4.894779	-0.388363	-0.010492	-0.367599	-0.535156	0.230957	-0.744873
932.0	8.955672	-1.816858	4.869117	-0.414072	-0.063521	-0.486998	-0.542236	0.239746	-0.749756
933.0	9.248438	-2.380781	4.547717	-0.352457	-0.131371	-0.55469	-0.537109	0.226563	-0.742432
934.0	9.311018	-2.461032	4.315335	-0.257837	-0.163797	-0.531335	-0.537354	0.233154	-0.742676
935.0	9.334492	-1.9801	4.139374	-0.142222	-0.178621	-0.447865	-0.539795	0.233154	-0.740234
936.0	9.932546	-1.532668	3.788799	0.017102	-0.179971	-0.293917	-0.548828	0.237549	-0.742676
937.0	9.998265	-1.449334	3.887204	0.11312	-0.183228	-0.092046	-0.54834	0.222168	-0.744629
938.0	9.864568	-1.575972	3.657184	0.136471	-0.198021	0.105428	-0.550781	0.22876	-0.742432
939.0	9.594796	-1.903024	3.380001	0.124022	-0.150156	0.271122	-0.54834	0.226563	-0.737793
940.0	9.092434	-2.342121	2.876588	0.177331	-0.08298	0.37878	-0.551025	0.233154	-0.738037
941.0	8.452749	-2.665258	2.853403	0.23341	-0.026738	0.484253	-0.54834	0.224121	-0.737549
942.0	7.737552	-2.584989	2.909035	0.284329	0.019422	0.566656	-0.553467	0.237549	-0.740479
943.0	7.301916	-2.219639	2.987677	0.333649	0.063456	0.603901	-0.546143	0.22876	-0.737793
944.0	6.890745	-1.898339	3.31753	0.326727	0.113128	0.592057	-0.548828	0.237549	-0.738037
945.0	6.753753	-1.820375	3.403323	0.246862	0.138639	0.549063	-0.548828	0.237549	-0.745117
946.0	6.81614	-1.759079	3.371541	0.181196	0.171801	0.499374	-0.544189	0.233154	-0.742676
947.0	7.14224	-1.796444	3.270351	0.140579	0.202484	0.45359	-0.546631	0.239746	-0.74292
948.0	7.537302	-1.860572	3.175655	0.117238	0.210344	0.427982	-0.544678	0.244141	-0.745361
949.0	7.792435	-1.950092	2.978351	0.114716	0.181947	0.407289	-0.542236	0.241943	-0.745361
950.0	8.052299	-2.01212	2.75814	0.1603	0.1276	0.366655	-0.540039	0.241943	-0.752197
951.0	8.15585	-1.929963	2.582067	0.207218	0.067766	0.32162	-0.546875	0.241943	-0.747559
952.0	8.163784	-1.976382	2.473061	0.283082	0.030127	0.27418	-0.540039	0.244141	-0.752441
953.0	8.246013	-1.864461	2.288594	0.321436	0.003814	0.237168	-0.546631	0.239746	-0.754395
954.0	8.163892	-1.870126	2.067384	0.406764	0.013689	0.185841	-0.542236	0.241943	-0.75
955.0	8.071656	-1.940704	1.983389	0.504774	0.063628	0.134684	-0.544189	0.235352	-0.747314
956.0	7.955217	-1.771262	2.025783	0.591242	0.142569	0.081241	-0.542236	0.237549	-0.756836
957.0	7.950144	-1.87682	2.158323	0.680276	0.220176	0.030095	-0.537109	0.226563	-0.756348
958.0	8.025851	-1.897016	2.21434	0.716688	0.226057	-0.004239	-0.539307	0.222168	-0.756104
959.0	8.092395	-1.873344	2.262173	0.722704	0.179226	-0.031055	-0.54126	0.215576	-0.755859
960.0	8.129559	-1.889985	2.276939	0.73517	0.088932	-0.048653	-0.543457	0.215576	-0.758301
961.0	8.303838	-1.932043	2.063146	0.725092	-0.033021	-0.054458	-0.54541	0.208984	-0.762695
962.0	8.860808	-1.980613	1.87021	0.721358	-0.076839	-0.030627	-0.543213	0.208984	-0.764893
963.0	9.448645	-1.820432	1.736377	0.716737	-0.071402	0.014091	-0.552002	0.199951	-0.757568
964.0	9.976009	-1.496067	1.701605	0.677748	-0.069175	0.080182	-0.549805	0.202148	-0.76709
965.0	10.539581	-1.194788	1.756469	0.639346	-0.018527	0.160002	-0.547119	0.193359	-0.761963
966.0	10.937207	-1.339253	2.037466	0.564317	0.080758	0.245438	-0.549316	0.193359	-0.769043
967.0	11.107768	-1.522966	2.491829	0.460084	0.168948	0.319202	-0.544922	0.195557	-0.769043
968.0	11.157118	-1.553019	2.752832	0.352598	0.224103	0.370809	-0.540283	0.193359	-0.77124
969.0	11.230899	-1.277776	2.566016	0.248329	0.228283	0.376955	-0.540283	0.191162	-0.766602
970.0	11.29432	-0.827053	2.203722	0.182783	0.153969	0.330152	-0.542725	0.195557	-0.771484
971.0	11.191359	-0.633423	1.603758	0.167964	0.010187	0.246521	-0.547119	0.191162	-0.766602
972.0	11.145624	-1.115129	1.466456	0.20861	-0.110029	0.150193	-0.535889	0.193604	-0.77124
973.0	12.146273	-1.926014	5.506544	0.289589	-0.022546	0.109601	-0.544678	0.186768	-0.766357
974.0	15.460205	-1.305856	3.750812	-0.058104	0.334725	0.281333	-0.544922	0.193359	-0.780518
975.0	15.752462	-0.754382	4.765883	0.050908	0.61721	0.368061	-0.538086	0.193604	-0.773682
976.0	14.164789	0.764703	6.336247	-0.561305	0.254245	0.403129	-0.536377	0.20459	-0.781006
977.0	14.016602	-0.673333	4.0436	-0.503491	0.349742	0.466754	-0.531738	0.20459	-0.77417
978.0	12.542424	-2.05241	5.394693	-0.398871	0.18559	0.424429	-0.530029	0.215576	-0.772217
979.0	11.579142	-3.208726	4.810725	-0.366512	-0.002798	0.295489	-0.536621	0.211182	-0.779053
980.0	10.075743	-2.999921	3.890683	-0.186008	-0.335661	0.246634	-0.539063	0.217773	-0.776855
981.0	7.987033	-2.113083	3.259429	-0.011271	-0.711658	0.115394	-0.536865	0.217773	-0.774658
982.0	7.325351	-2.061691	2.772922	0.231946	-0.623734	0.069571	-0.545654	0.215576	-0.762939
983.0	7.416627	-1.974874	3.934027	0.464362	-0.317108	0.179871	-0.550293	0.217773	-0.765381
984.0	7.523206	-1.682802	5.901604	0.45343	-0.110185	0.308057	-0.545898	0.217773	-0.774658
985.0	8.145022	-1.549398	5.569194	0.233566	-0.085081	0.385198	-0.547852	0.211182	-0.762695
986.0	9.019599	-1.609961	3.838491	0.197847	-0.076231	0.426316	-0.543701	0.222168	-0.767822
987.0	9.466272	-1.573151	3.257058	0.317515	0.033712	0.437794	-0.541504	0.219971	-0.772217
988.0	9.473445	-1.43166	3.747891	0.400648	0.225652	0.442596	-0.548096	0.219971	-0.767578
989.0	9.303378	-1.318267	4.134434	0.367727	0.345411	0.457909	-0.541504	0.219971	-0.767578
990.0	9.16005	-1.534238	4.770462	0.118056	0.323146	0.441534	-0.541748	0.226563	-0.774902
991.0	9.158066	-1.618834	4.828423	-0.186389	0.280791	0.327171	-0.537109	0.224365	-0.7771
992.0	9.247715	-1.508701	4.272405	-0.36649	0.174213	0.138652	-0.539551	0.22876	-0.772705
993.0	9.1933	-1.146973	3.856132	-0.457143	0.070144	-0.056857	-0.541748	0.22876	-0.777344
994.0	9.049629	-0.633738	3.720631	-0.386517	0.008412	-0.219463	-0.535156	0.230957	-0.770508
995.0	8.915576	-0.179105	3.461405	-0.27419	-0.030279	-0.315551	-0.546387	0.22876	-0.772705
996.0	8.614827	-0.058157	3.286383	-0.130334	-0.025501	-0.367534	-0.537354	0.230957	-0.775146
997.0	8.273916	-0.052935	3.178382	0.023055	-0.003323	-0.407091	-0.537109	0.226563	-0.767822
998.0	7.808352	-0.079637	3.132264	0.148662	0.020674	-0.428634	-0.546143	0.222168	-0.77002
999.0	7.376989	-0.072081	3.080041	0.220053	0.037747	-0.446141	-0.54834	0.224365	-0.774902
1000.0	7.084108	-0.310553	3.182423	0.245735	0.029565	-0.474686	-0.541504	0.222168	-0.77002
1001.0	7.003375	-0.628137	3.400017	0.219641	0.031618	-0.493588	-0.545654	0.215576	-0.783691
1002.0	7.074313	-0.901539	3.397989	0.142255	0.058111	-0.501444	-0.552246	0.211182	-0.779053
1003.0	7.232201	-0.95539	3.218312	0.040092	0.091318	-0.493856	-0.547607	0.206787	-0.778809
1004.0	7.487967	-0.843492	2.980941	-0.054134	0.091189	-0.487033	-0.547852	0.211182	-0.779053
1005.0	7.695802	-0.64455	2.772095	-0.115913	0.067986	-0.483325	-0.547607	0.202393	-0.781006
1006.0	7.900627	-0.486657	2.518389	-0.155398	0.032228	-0.472975	-0.543213	0.206787	-0.776367
1007.0	8.077121	-0.436424	2.271983	-0.175982	0.023502	-0.444699	-0.547363	0.199951	-0.778564
1008.0	8.200586	-0.472977	2.027787	-0.189671	0.038231	-0.398094	-0.547607	0.20459	-0.785645
1009.0	8.304849	-0.37475	1.875144	-0.198805	0.078185	-0.324795	-0.547363	0.197754	-0.776123
1010.0	8.241091	-0.303236	1.848281	-0.210215	0.089611	-0.24875	-0.547852	0.208984	-0.78125
1011.0	8.021295	-0.128758	1.983803	-0.227315	0.076763	-0.173055	-0.547363	0.200195	-0.787842
1012.0	7.940416	-0.13841	1.882921	-0.254032	0.065865	-0.092331	-0.547607	0.20459	-0.77417
1013.0	7.935212	-0.163242	1.910581	-0.276945	0.04697	-0.035359	-0.547607	0.206787	-0.776367
1014.0	8.100618	-0.309501	1.970319	-0.349605	0.005607	0.028111	-0.541016	0.211182	-0.771973
1015.0	8.305744	-0.374264	1.794185	-0.411941	-0.035645	0.05254	-0.549805	0.206787	-0.776367
1016.0	8.659737	-0.344006	2.307922	-0.43315	-0.062773	0.042853	-0.54126	0.217773	-0.772217
1017.0	9.037653	-0.137496	1.909832	-0.479288	-0.148486	0.008219	-0.550293	0.217773	-0.772217
1018.0	9.618372	-0.262863	1.767603	-0.493058	-0.148768	-0.042366	-0.546143	0.222168	-0.772461
1019.0	10.444483	-0.678502	1.961145	-0.547119	-0.125069	-0.114871	-0.550537	0.224365	-0.772461
1020.0	10.925362	-1.019048	2.846519	-0.56749	-0.097287	-0.182134	-0.550781	0.22876	-0.770264
1021.0	11.192897	-1.195404	3.353273	-0.533664	-0.08498	-0.231742	-0.55542	0.22876	-0.768066
1022.0	11.142807	-1.245555	3.469179	-0.47743	-0.11076	-0.249015	-0.55542	0.233154	-0.758789
1023.0	10.875807	-1.38861	3.009062	-0.477063	-0.182766	-0.231671	-0.557617	0.233154	-0.756592
1024.0	10.231374	-1.333101	2.280334	-0.467236	-0.260504	-0.219415	-0.560059	0.235352	-0.76123
1025.0	9.913622	-1.130641	1.183055	-0.429598	-0.296057	-0.189096	-0.560059	0.237549	-0.756592
1026.0	10.2142	-1.032817	1.060525	-0.376866	-0.185916	-0.151846	-0.560059	0.237549	-0.756592
1027.0	12.885763	-2.487887	6.77306	-0.180195	0.451314	-0.229358	-0.558105	0.239746	-0.759033
1028.0	16.505005	-3.756069	8.941954	-0.428462	0.200604	-0.526347	-0.564941	0.244141	-0.759277
1029.0	15.350323	-4.532096	4.25366	-0.108266	-0.605415	-0.614659	-0.564697	0.235352	-0.765869
1030.0	13.646318	-4.283001	4.839167	0.282849	-0.422059	-0.845062	-0.573486	0.235107	-0.76123
1031.0	12.080249	-2.893031	4.402173	0.258687	-0.573892	-0.844634	-0.566406	0.224121	-0.751465
1032.0	11.272975	-1.193479	5.04704	0.465516	-0.255514	-0.668639	-0.575195	0.221924	-0.751465
1033.0	11.595394	-0.635003	5.010907	0.328417	-0.030466	-0.472121	-0.572754	0.215332	-0.749023
1034.0	10.079579	-0.244084	3.223512	0.209502	-0.131699	-0.290487	-0.566162	0.219727	-0.744385
1035.0	8.342459	0.089197	4.277476	0.108765	-0.073323	-0.172402	-0.574951	0.215332	-0.751221
1036.0	8.894974	0.292555	4.467517	-0.059128	0.101148	-0.160208	-0.570557	0.217529	-0.755859
1037.0	10.173544	0.244871	5.193008	-0.142674	0.252489	-0.176786	-0.572998	0.219727	-0.756104
1038.0	10.247126	-0.15357	5.213112	-0.31384	0.032685	-0.252468	-0.577393	0.217529	-0.760498
1039.0	10.06908	-0.436674	4.377756	-0.389472	-0.141967	-0.399165	-0.577393	0.215332	-0.753662
1040.0	9.704089	-0.660278	4.273775	-0.337967	-0.124542	-0.505609	-0.575195	0.221924	-0.753906
1041.0	9.9165	-0.909984	4.226447	-0.271066	-0.103997	-0.505063	-0.577393	0.215332	-0.746582
1042.0	10.34017	-0.950064	3.955856	-0.209512	-0.124428	-0.401032	-0.582031	0.219727	-0.744385
1043.0	10.104332	-0.807751	3.687348	-0.14809	-0.151386	-0.22782	-0.57959	0.217529	-0.741943
1044.0	9.81918	-0.787896	3.50585	-0.090693	-0.136686	-0.040199	-0.584229	0.219727	-0.749023
1045.0	9.398355	-1.017417	3.363276	-0.082187	-0.086513	0.121888	-0.591064	0.221924	-0.742188
1046.0	8.751915	-1.603964	3.311328	-0.128358	-0.026734	0.251413	-0.577637	0.224121	-0.73999
1047.0	8.156048	-2.400748	3.016746	-0.141726	0.034401	0.357245	-0.580322	0.23291	-0.740234
1048.0	7.457396	-2.851162	2.930204	-0.104998	0.093042	0.429197	-0.578125	0.237305	-0.745117
1049.0	6.804031	-2.800037	3.13696	-0.040096	0.141134	0.452156	-0.58252	0.235107	-0.744873
1050.0	6.439554	-2.456797	3.447504	-0.016284	0.177043	0.452711	-0.576172	0.241699	-0.745361
1051.0	6.226374	-2.074178	3.512893	-0.02136	0.215959	0.425384	-0.571533	0.241699	-0.745361
1052.0	6.278685	-1.879219	3.475843	-0.037151	0.231925	0.375528	-0.580811	0.248291	-0.745605
1053.0	6.498116	-1.824428	3.361889	-0.039011	0.247007	0.324962	-0.56958	0.246338	-0.754639
1054.0	6.787527	-1.828775	3.209834	-0.032265	0.280656	0.279798	-0.574219	0.25293	-0.748047
1055.0	7.114968	-1.887467	3.106855	-0.009049	0.313123	0.242098	-0.572021	0.250732	-0.747803
1056.0	7.449451	-1.85857	2.976792	0.032163	0.307282	0.212346	-0.56543	0.257324	-0.74585
1057.0	7.760637	-1.811602	2.809529	0.086177	0.268143	0.183307	-0.567383	0.250732	-0.754883
1058.0	7.915888	-1.825715	2.626826	0.128443	0.205066	0.189439	-0.56543	0.257324	-0.752686
1059.0	8.149115	-1.778509	2.417364	0.192934	0.162275	0.19495	-0.565186	0.248535	-0.754883
1060.0	8.291157	-1.844081	2.220422	0.233861	0.124058	0.19182	-0.56543	0.257324	-0.750488
1061.0	8.478564	-1.995197	2.1431	0.265058	0.09784	0.188234	-0.558594	0.25293	-0.752686
1062.0	8.546411	-1.931389	2.200655	0.330563	0.090963	0.163626	-0.560791	0.25293	-0.754883
1063.0	8.61023	-2.035887	2.130254	0.43338	0.074516	0.118373	-0.562988	0.250732	-0.754883
1064.0	8.722822	-1.888611	2.036783	0.534628	0.037831	0.054682	-0.56543	0.255127	-0.752686
1065.0	8.757882	-2.011467	2.003575	0.609547	-0.028065	-0.013772	-0.560547	0.248535	-0.75708
1066.0	8.770093	-2.191714	1.837029	0.652306	-0.101432	-0.051696	-0.560547	0.246338	-0.752441
1067.0	8.561531	-2.493125	1.946736	0.669033	-0.149375	-0.067898	-0.564941	0.241943	-0.75
1068.0	8.724019	-2.611976	1.737181	0.672176	-0.169718	-0.042039	-0.569092	0.235107	-0.754395
1069.0	9.011564	-2.499007	1.838642	0.703713	-0.124541	0.006628	-0.568604	0.224121	-0.756104
1070.0	9.333817	-2.174892	2.055831	0.701557	-0.082686	0.093564	-0.571045	0.228516	-0.75415
1071.0	9.665947	-1.815152	2.36991	0.691848	-0.027038	0.173425	-0.566406	0.224121	-0.751465
1072.0	10.056402	-1.738788	2.520993	0.606927	0.052752	0.236679	-0.568848	0.230713	-0.758789
1073.0	10.455579	-1.824349	2.77056	0.509501	0.17251	0.275286	-0.564209	0.226318	-0.760986
1074.0	10.800394	-1.799201	3.070013	0.422733	0.22135	0.315415	-0.564209	0.226318	-0.756348
1075.0	11.036822	-1.639476	2.974712	0.344888	0.18413	0.342592	-0.564209	0.226318	-0.758545
1076.0	11.157918	-1.174793	2.451004	0.295015	0.112899	0.326443	-0.560059	0.233154	-0.756592
1077.0	11.091086	-0.693746	1.652671	0.30866	0.005638	0.256522	-0.564209	0.226318	-0.756348
1078.0	10.893477	-0.657555	1.250855	0.369836	-0.143842	0.166634	-0.566406	0.224121	-0.753906
1079.0	10.743973	-1.213608	1.295951	0.395372	-0.285929	0.093877	-0.573242	0.228516	-0.75415
1080.0	11.601858	-1.944048	5.660428	0.468091	-0.263083	0.069877	-0.566406	0.224121	-0.746826
1081.0	14.778707	-1.091378	3.327441	0.023881	0.056902	0.314437	-0.566406	0.224121	-0.756104
1082.0	15.463171	-0.665073	4.78171	0.090651	0.445909	0.392837	-0.56665	0.230713	-0.75415
1083.0	14.105528	1.151141	6.555077	-0.665272	0.096763	0.451346	-0.566895	0.237305	-0.749756
1084.0	13.462747	-0.129767	4.020589	-0.563898	0.125848	0.566605	-0.562744	0.248535	-0.752441
1085.0	12.069929	-1.927224	5.302074	-0.495921	-0.03297	0.567513	-0.562744	0.246338	-0.747803
1086.0	11.078112	-2.140192	5.600017	-0.422577	-0.167323	0.512594	-0.56543	0.255127	-0.748047
1087.0	9.601406	-1.619216	4.379502	-0.118427	-0.343978	0.534334	-0.565186	0.25293	-0.745605
1088.0	7.507992	-0.760069	4.127373	0.030238	-0.71768	0.416008	-0.570313	0.263916	-0.746094
1089.0	6.808968	-0.53873	3.777224	0.17258	-0.555405	0.321616	-0.574707	0.263916	-0.736816
1090.0	8.117792	-1.700586	5.056166	0.3422	-0.097123	0.351564	-0.574463	0.259521	-0.736572
1091.0	9.117176	-2.469643	6.114216	0.267727	0.00631	0.413738	-0.576904	0.259277	-0.736572
1092.0	9.807584	-2.265594	4.919345	0.075247	-0.099958	0.4613	-0.570313	0.263916	-0.732178
1093.0	9.801587	-1.517113	3.606028	0.169479	-0.057145	0.467923	-0.577148	0.270508	-0.737061
1094.0	9.369444	-1.327525	3.656914	0.292091	0.085229	0.455293	-0.568115	0.270508	-0.737061
1095.0	9.5095	-1.704552	4.176901	0.168795	0.244612	0.453933	-0.572754	0.272705	-0.737061
1096.0	9.994142	-2.217683	4.349988	-0.068005	0.290895	0.367413	-0.566162	0.2771	-0.732666
1097.0	10.289792	-2.721494	4.064058	-0.316851	0.145855	0.189396	-0.568604	0.279297	-0.737305
1098.0	9.811707	-2.765096	3.740375	-0.455157	-0.009576	-0.023628	-0.566406	0.283691	-0.73291
1099.0	9.127983	-2.200229	3.610005	-0.459707	-0.054768	-0.202522	-0.573242	0.283691	-0.730469
1100.0	9.109328	-1.117894	3.543685	-0.3809	-0.038348	-0.317949	-0.568848	0.288086	-0.730713
1101.0	9.164749	-0.103038	3.347492	-0.289557	-0.033322	-0.373699	-0.570801	0.2771	-0.725586
1102.0	8.821627	0.356356	3.272022	-0.199205	-0.022577	-0.371769	-0.573242	0.281494	-0.735107
1103.0	8.270039	0.367119	3.092277	-0.088095	0.006304	-0.36176	-0.571045	0.281494	-0.732666
1104.0	7.732056	0.18976	2.925985	0.011642	0.090312	-0.346086	-0.577393	0.274902	-0.737061
1105.0	7.239191	0.045001	2.80955	0.07827	0.144793	-0.335399	-0.577637	0.2771	-0.734863
1106.0	6.960387	-0.123055	2.917063	0.103605	0.185141	-0.335876	-0.570801	0.279297	-0.735107
1107.0	6.828099	-0.1609	3.014755	0.0851	0.199232	-0.356436	-0.574951	0.268311	-0.72998
1108.0	6.835501	-0.345093	3.062904	0.034786	0.221124	-0.380427	-0.572998	0.274902	-0.739502
1109.0	7.059692	-0.392722	3.120706	-0.046794	0.251325	-0.400574	-0.579346	0.266113	-0.739258
1110.0	7.344305	-0.35406	3.054932	-0.132412	0.256098	-0.414822	-0.572754	0.272705	-0.737061
1111.0	7.627227	-0.265727	2.888907	-0.211262	0.227614	-0.418996	-0.572754	0.268311	-0.741699
1112.0	7.834155	-0.158291	2.625803	-0.292075	0.189363	-0.404788	-0.574951	0.268311	-0.736816
1113.0	7.992865	0.034216	2.392627	-0.374212	0.158352	-0.379875	-0.57251	0.263916	-0.736816
1114.0	8.162213	-0.043888	2.203919	-0.460915	0.148874	-0.343312	-0.572754	0.270508	-0.737061
1115.0	8.212152	-0.176918	2.038527	-0.548049	0.145878	-0.287859	-0.572754	0.270508	-0.737061
1116.0	8.181854	-0.269254	2.090097	-0.607845	0.197854	-0.222645	-0.570801	0.279297	-0.735107
1117.0	8.047775	-0.410994	2.130914	-0.64918	0.253532	-0.152756	-0.575195	0.2771	-0.739502
1118.0	7.964984	-0.564766	2.229401	-0.675185	0.290933	-0.087475	-0.572998	0.2771	-0.741943
1119.0	7.973006	-0.714248	2.063294	-0.70457	0.244927	-0.024785	-0.568604	0.281494	-0.739746
1120.0	8.020958	-0.865142	2.139657	-0.691407	0.192016	0.008986	-0.56665	0.288086	-0.73999
1121.0	8.087003	-1.08466	2.081056	-0.747272	0.117423	0.028478	-0.566895	0.29248	-0.735596
1122.0	8.546537	-1.307619	1.897092	-0.766911	0.07047	0.006958	-0.569336	0.299072	-0.73584
1123.0	9.029946	-1.472284	2.049482	-0.736777	0.015791	-0.048745	-0.571533	0.299072	-0.733398
1124.0	9.702153	-1.209947	2.175725	-0.656702	-0.015139	-0.118885	-0.562988	0.307861	-0.733887
1125.0	10.096507	-1.361275	2.806457	-0.565371	-0.040798	-0.193087	-0.56958	0.303467	-0.729004
1126.0	10.43942	-1.540464	2.962782	-0.525554	-0.066321	-0.235341	-0.572021	0.307861	-0.726807
1127.0	10.599899	-1.806468	3.188154	-0.459992	-0.073117	-0.261516	-0.576416	0.307861	-0.726807
1128.0	10.676417	-2.330458	3.28256	-0.429795	-0.115079	-0.27249	-0.572021	0.307861	-0.722168
1129.0	10.472255	-2.595334	2.705766	-0.414627	-0.193717	-0.271471	-0.576904	0.318848	-0.729492
1130.0	10.151195	-2.413396	1.935134	-0.320436	-0.282033	-0.256048	-0.581299	0.314453	-0.724609
1131.0	10.15592	-1.868787	1.151686	-0.220916	-0.332479	-0.215597	-0.578857	0.312256	-0.719971
1132.0	10.460894	-1.266559	0.76203	-0.172425	-0.298115	-0.16	-0.588135	0.314453	-0.719971
1133.0	11.413324	-0.882534	1.800138	-0.190177	-0.091332	-0.131882	-0.583252	0.310059	-0.722168
1134.0	14.281584	-1.711935	6.537632	-0.04925	0.505943	-0.260632	-0.583496	0.31665	-0.722412
1135.0	16.697464	-3.045421	5.643665	-0.040463	-0.009161	-0.479502	-0.583252	0.310059	-0.724609
1136.0	15.004486	-3.053275	3.906241	0.311596	-0.360497	-0.540083	-0.592041	0.303467	-0.721924
1137.0	12.777295	-2.763367	5.32754	0.375243	-0.472729	-0.691748	-0.594238	0.299072	-0.714844
1138.0	12.016079	-1.651361	3.637988	0.343675	-0.403125	-0.647851	-0.594238	0.30127	-0.719482
1139.0	11.571204	-0.34304	4.651921	0.398709	-0.131307	-0.453369	-0.596191	0.294678	-0.726318
1140.0	11.520711	0.070288	4.653067	0.236445	0.090042	-0.286317	-0.593994	0.29248	-0.723877
1141.0	10.181619	0.589046	3.888687	0.072176	-0.040581	-0.166804	-0.602783	0.290039	-0.723877
1142.0	8.55156	0.920551	4.081014	-0.083892	-0.186987	-0.145891	-0.600586	0.290039	-0.719238
1143.0	7.854429	0.918192	4.317115	-0.236305	-0.235233	-0.212324	-0.607422	0.292236	-0.721436
1144.0	8.283357	0.450465	5.068454	-0.256791	0.003481	-0.280205	-0.600586	0.292236	-0.723877
1145.0	8.833624	-0.666524	5.27226	-0.39555	0.055769	-0.345754	-0.605225	0.294434	-0.719238
1146.0	9.313529	-1.216555	4.854065	-0.484567	-0.022884	-0.465646	-0.605225	0.292236	-0.72168
1147.0	9.164878	-1.317729	4.485865	-0.421543	-0.106051	-0.542018	-0.607178	0.283447	-0.721191
1148.0	9.05136	-1.348119	4.403149	-0.31666	-0.127359	-0.549369	-0.609131	0.28125	-0.721191
1149.0	9.28956	-1.297578	4.395339	-0.208795	-0.122833	-0.488604	-0.61377	0.279053	-0.714111
1150.0	9.713295	-1.397405	4.25339	-0.101668	-0.16777	-0.365111	-0.614014	0.290039	-0.7146
1151.0	10.165276	-1.77833	3.998965	-0.028651	-0.199737	-0.174681	-0.61377	0.279053	-0.714111
1152.0	10.061595	-1.93757	3.92173	-0.019818	-0.218574	0.053388	-0.614014	0.285645	-0.709717
1153.0	9.70513	-2.009341	3.304888	0.004639	-0.193989	0.225193	-0.615967	0.283447	-0.711914
1154.0	9.29561	-2.393481	3.073531	0.030797	-0.112662	0.37504	-0.62085	0.290039	-0.70752
1155.0	8.786796	-2.761404	3.05516	0.083403	-0.030126	0.48738	-0.614014	0.290039	-0.70752
1156.0	8.140558	-2.597006	3.123245	0.155647	0.057693	0.566351	-0.616699	0.298828	-0.717041
1157.0	7.578722	-2.233797	3.351702	0.170195	0.118632	0.59724	-0.616455	0.292236	-0.723877
1158.0	7.214687	-1.856926	3.63859	0.119984	0.172305	0.592253	-0.609863	0.298828	-0.72168
1159.0	7.128115	-1.495866	3.694043	0.038235	0.245868	0.552414	-0.614258	0.296631	-0.726318
1160.0	7.067242	-1.387657	3.555691	-0.015248	0.280177	0.499646	-0.610107	0.301025	-0.721924
1161.0	7.250472	-1.469397	3.449227	-0.059828	0.308887	0.464669	-0.603516	0.310059	-0.726807
1162.0	7.459284	-1.603763	3.334651	-0.073375	0.323042	0.414668	-0.599121	0.310059	-0.726807
1163.0	7.627631	-1.809611	3.089042	-0.054562	0.314598	0.401106	-0.601318	0.307861	-0.729004
1164.0	7.795942	-1.78821	2.886954	-0.011296	0.278445	0.379776	-0.598877	0.305664	-0.731445
1165.0	7.903431	-1.680641	2.670499	0.072418	0.21297	0.358497	-0.601807	0.318848	-0.729492
1166.0	7.985432	-1.540078	2.514925	0.161645	0.13568	0.327407	-0.596924	0.312256	-0.727051
1167.0	7.980341	-1.443536	2.391818	0.263337	0.087472	0.27499	-0.594971	0.318848	-0.73877
1168.0	7.953832	-1.641175	2.266791	0.333756	0.059941	0.215541	-0.594971	0.31665	-0.731689
1169.0	7.90728	-1.910489	2.151034	0.402099	0.041792	0.143379	-0.597168	0.314453	-0.743164
1170.0	7.835268	-2.187464	1.986173	0.468915	0.040765	0.065893	-0.592529	0.312256	-0.740967
1171.0	7.896398	-2.459623	1.988977	0.533785	0.047698	-0.001198	-0.592285	0.310059	-0.738525
1172.0	7.969452	-2.450035	1.958082	0.564827	0.051834	-0.041536	-0.594727	0.310059	-0.743164
1173.0	7.987817	-2.188967	2.009195	0.58579	0.004119	-0.05541	-0.594238	0.299072	-0.745117
1174.0	8.138185	-2.184608	1.890242	0.606252	-0.037743	-0.06102	-0.593994	0.296875	-0.747314
1175.0	8.211776	-2.327283	2.153543	0.609152	-0.111719	-0.060739	-0.596191	0.294678	-0.744873
1176.0	8.768765	-2.330411	1.888669	0.646002	-0.167264	-0.035188	-0.598389	0.29248	-0.758789
1177.0	9.539223	-2.296951	1.870686	0.687716	-0.127021	0.030029	-0.600342	0.283691	-0.756104
1178.0	10.045446	-2.019325	2.061114	0.646239	-0.079366	0.114115	-0.602539	0.283447	-0.751465
1179.0	10.212279	-1.678174	2.309993	0.574453	-0.041802	0.192626	-0.598145	0.283691	-0.756104
1180.0	10.513284	-1.512326	2.438325	0.467521	0.027347	0.272932	-0.5979	0.279297	-0.762939
1181.0	10.892483	-1.548244	2.843931	0.367409	0.159076	0.345462	-0.595459	0.2771	-0.760498
1182.0	11.285324	-1.464361	3.145863	0.260444	0.203098	0.399473	-0.593506	0.281494	-0.760742
1183.0	11.409318	-1.057733	2.802834	0.18575	0.130535	0.410261	-0.598145	0.283691	-0.760742
1184.0	11.303404	-0.44191	2.04032	0.155578	0.006985	0.361553	-0.593506	0.281494	-0.765381
1185.0	11.028445	-0.195618	1.224206	0.189972	-0.128589	0.258325	-0.591309	0.283691	-0.760742
1186.0	10.956814	-0.651479	0.779193	0.233405	-0.248156	0.155557	-0.593506	0.281494	-0.762939
1187.0	11.327351	-1.629136	2.629669	0.315088	-0.269668	0.075734	-0.597656	0.274902	-0.765137
1188.0	14.070156	-1.77598	6.418438	0.115315	-0.097651	0.178331	-0.595947	0.283691	-0.765381
1189.0	16.450925	-2.56918	1.264989	-0.028147	0.094745	0.344155	-0.5979	0.2771	-0.771973
1190.0	13.728425	-0.006403	6.74013	-0.206521	-0.028279	0.32905	-0.59375	0.288086	-0.770264
1191.0	13.389432	-0.580092	3.603312	-0.362689	0.016081	0.375715	-0.59375	0.290283	-0.767822
1192.0	12.494685	-2.746966	4.894492	-0.11075	0.099793	0.398949	-0.591553	0.290283	-0.774902
1193.0	12.107756	-3.716634	5.756348	-0.126463	-0.056262	0.380848	-0.60083	0.294678	-0.770508
1194.0	10.720378	-3.088335	4.283107	0.032122	-0.241855	0.355823	-0.598633	0.296875	-0.768066
1195.0	7.724491	-1.432675	3.804913	0.248859	-0.744487	0.248828	-0.607666	0.294678	-0.765869
1196.0	6.85989	-1.487869	3.16272	0.485458	-0.768945	0.241882	-0.607422	0.29248	-0.765625
1197.0	7.372239	-2.142541	3.77507	0.640004	-0.347535	0.326391	-0.609619	0.290283	-0.765625
1198.0	8.240781	-2.471375	5.195042	0.608626	-0.156663	0.416566	-0.614014	0.287842	-0.767822
1199.0	8.611871	-2.006683	4.289599	0.49455	-0.246802	0.473733	-0.611816	0.288086	-0.770264
1200.0	8.91326	-1.327934	3.480437	0.555772	-0.194875	0.497557	-0.609619	0.288086	-0.772461
1201.0	8.857966	-0.849034	3.463327	0.613931	-0.042516	0.492893	-0.614014	0.285889	-0.7771
1202.0	9.009612	-0.913508	3.661066	0.603829	0.140199	0.497604	-0.609619	0.288086	-0.779541
1203.0	9.191007	-1.110853	4.193756	0.588352	0.293347	0.477742	-0.611572	0.279053	-0.776855
1204.0	9.575852	-1.41868	4.713537	0.430715	0.311864	0.390539	-0.602783	0.288086	-0.781738
1205.0	9.908404	-1.633617	4.54423	0.137335	0.172186	0.259404	-0.609375	0.281494	-0.781494
1206.0	9.702018	-1.523618	4.091873	-0.065435	0.011505	0.068831	-0.607178	0.285889	-0.783936
1207.0	9.553153	-1.250523	3.712536	-0.11664	-0.05714	-0.119084	-0.609375	0.285889	-0.779297
1208.0	9.550514	-0.580987	3.445143	-0.079723	-0.08137	-0.260482	-0.611572	0.283691	-0.783936
1209.0	9.152078	0.018599	3.356532	-0.017895	-0.112238	-0.347446	-0.615723	0.274658	-0.776611
1210.0	8.668758	0.266671	3.485104	0.074054	-0.106423	-0.398373	-0.613525	0.276855	-0.783691
1211.0	8.087397	0.208215	3.410762	0.152374	-0.064684	-0.412634	-0.617676	0.268066	-0.781006
1212.0	7.6355	0.144312	3.288443	0.211386	-0.030012	-0.413927	-0.622314	0.268066	-0.785645
1213.0	7.330807	0.215535	3.18716	0.237834	0.000874	-0.415412	-0.615234	0.263672	-0.783203
1214.0	7.098094	0.15437	3.26571	0.229846	0.013176	-0.437553	-0.61499	0.254883	-0.789795
1215.0	7.032966	-0.03671	3.346282	0.174226	0.031525	-0.469599	-0.621582	0.250488	-0.784912
1216.0	7.133477	-0.222725	3.26908	0.085774	0.080156	-0.494968	-0.616943	0.248291	-0.791992
1217.0	7.505858	-0.303389	3.153241	-0.022083	0.150731	-0.499405	-0.621338	0.243896	-0.775391
1218.0	7.830483	-0.217631	2.977693	-0.135024	0.168251	-0.49121	-0.623535	0.243896	-0.791748
1219.0	8.071755	0.025943	2.848405	-0.23263	0.149078	-0.479057	-0.625488	0.237305	-0.796143
1220.0	8.262756	0.215887	2.731826	-0.305506	0.119455	-0.455646	-0.628174	0.243896	-0.803223
1221.0	8.38709	0.41315	2.539802	-0.364594	0.107909	-0.41587	-0.62793	0.237305	-0.793701
1222.0	8.615321	0.370827	2.322749	-0.410823	0.08929	-0.348989	-0.623291	0.239502	-0.796143
1223.0	8.709838	0.174456	2.226886	-0.439642	0.056801	-0.263848	-0.629883	0.235107	-0.796143
1224.0	8.449356	-0.029123	2.170151	-0.479955	0.029822	-0.185711	-0.628174	0.243896	-0.791748
1225.0	8.260877	-0.364133	2.143344	-0.515197	0.056952	-0.11482	-0.630127	0.237305	-0.79834
1226.0	8.028505	-0.741973	2.069969	-0.568039	0.107093	-0.065722	-0.628174	0.246094	-0.801025
1227.0	8.010841	-1.127608	1.947534	-0.639762	0.102811	-0.017931	-0.623779	0.248291	-0.796631
1228.0	8.030667	-1.312166	2.021714	-0.739085	0.090286	0.025698	-0.630615	0.252686	-0.80127
1229.0	8.339511	-1.472796	2.041113	-0.825058	0.072543	0.04115	-0.628418	0.250488	-0.794189
1230.0	8.746988	-1.355289	2.070775	-0.859005	0.018119	0.002663	-0.626709	0.263672	-0.797119
1231.0	9.341557	-0.98322	2.019046	-0.803058	-0.047071	-0.062848	-0.631348	0.265869	-0.806396
1232.0	9.962972	-0.953072	2.175605	-0.720784	-0.112456	-0.138866	-0.628906	0.265869	-0.799561
1233.0	10.488508	-1.268158	2.459258	-0.681107	-0.133347	-0.203972	-0.635742	0.265869	-0.785645
1234.0	10.635799	-1.574345	2.707815	-0.621898	-0.116832	-0.24559	-0.633545	0.268066	-0.794922
1235.0	10.725154	-2.018162	2.747994	-0.576992	-0.11736	-0.267094	-0.638184	0.268066	-0.797363
1236.0	10.630344	-2.297836	2.540598	-0.53238	-0.137704	-0.26484	-0.642822	0.272461	-0.792725
1237.0	10.241173	-2.187833	2.100519	-0.455233	-0.197658	-0.241898	-0.640381	0.270264	-0.792725
1238.0	10.03972	-1.710496	1.255596	-0.384036	-0.290887	-0.200956	-0.646973	0.268066	-0.785645
1239.0	10.22846	-1.276934	0.689234	-0.332554	-0.29983	-0.142645	-0.649414	0.270264	-0.790283
1240.0	10.602761	-0.973462	0.884402	-0.34136	-0.225416	-0.103333	-0.654053	0.270264	-0.788086
1241.0	12.269653	-1.357469	4.387737	-0.256032	0.157387	-0.141489	-0.651855	0.272461	-0.785889
1242.0	15.724867	-3.128706	6.400331	-0.354454	0.511296	-0.487722	-0.649414	0.272461	-0.788086
1243.0	15.501294	-4.353324	3.998382	-0.119054	-0.355591	-0.636907	-0.655762	0.261475	-0.79248
1244.0	12.806583	-3.918483	3.692575	0.221564	-0.436602	-0.774171	-0.659912	0.252441	-0.782715
1245.0	11.511613	-3.144773	3.006695	0.27368	-0.388305	-0.859517	-0.659668	0.24585	-0.780273
1246.0	11.548797	-1.380954	4.455779	0.418809	-0.158766	-0.721792	-0.661865	0.243652	-0.782471
1247.0	12.263779	-0.663266	5.105118	0.437486	6.1e-05	-0.511301	-0.672852	0.234863	-0.784424
1248.0	11.726591	-0.378961	4.291961	0.342347	0.21482	-0.364506	-0.668213	0.232666	-0.789063
1249.0	9.291639	0.124295	4.501066	0.358316	0.077797	-0.245999	-0.667969	0.228271	-0.793457
1250.0	8.437839	-0.121191	4.893939	0.134693	-0.055032	-0.232235	-0.672363	0.22168	-0.786133
1251.0	9.376169	0.113143	4.47376	-0.169001	-0.064473	-0.271857	-0.669922	0.219482	-0.788574
1252.0	9.544624	0.313339	5.184361	-0.325383	0.090623	-0.291009	-0.672363	0.22168	-0.786133
1253.0	9.221539	0.002787	4.690865	-0.542112	0.037866	-0.331947	-0.672119	0.219482	-0.79541
1254.0	9.017407	-0.337663	4.126563	-0.590618	-0.01987	-0.414371	-0.670166	0.223877	-0.786377
1255.0	8.809445	-0.682956	3.869512	-0.53686	-0.069943	-0.479642	-0.678711	0.212646	-0.78125
1256.0	8.909188	-0.746757	3.979691	-0.456976	-0.042155	-0.467956	-0.674072	0.212646	-0.783691
1257.0	9.360732	-0.732519	4.125059	-0.381539	-0.021661	-0.366751	-0.681152	0.219238	-0.786133
1258.0	10.051349	-0.875247	4.225412	-0.357571	-0.046505	-0.204713	-0.681152	0.217041	-0.786133
1259.0	10.298571	-1.165129	4.013006	-0.340745	-0.092099	-0.048987	-0.678711	0.212646	-0.785889
1260.0	10.010274	-1.474896	3.766609	-0.326789	-0.102389	0.054166	-0.68335	0.217041	-0.781494
1261.0	9.550118	-1.912298	3.495789	-0.320921	-0.063801	0.114371	-0.685547	0.217041	-0.783691
1262.0	9.142533	-2.394609	3.20028	-0.289496	0.01706	0.14373	-0.688232	0.223633	-0.781738
1263.0	8.565177	-2.933008	3.294995	-0.259887	0.10584	0.199454	-0.685791	0.223633	-0.786377
1264.0	7.973917	-2.918383	3.419352	-0.244781	0.151381	0.233308	-0.683838	0.230225	-0.781982
1265.0	7.382981	-2.531803	3.645875	-0.2213	0.187497	0.250558	-0.674805	0.228271	-0.78418
1266.0	7.123104	-2.035039	3.715734	-0.207896	0.196801	0.227481	-0.679199	0.228271	-0.78418
1267.0	7.047589	-1.801438	3.663708	-0.193537	0.209169	0.182312	-0.681641	0.232666	-0.784424
1268.0	7.223481	-1.84555	3.561724	-0.181686	0.207927	0.1471	-0.677246	0.234863	-0.789063
1269.0	7.489475	-1.902183	3.32573	-0.156097	0.195123	0.120357	-0.684082	0.232666	-0.789063
1270.0	7.729484	-1.967414	3.072266	-0.11296	0.160978	0.117076	-0.672852	0.237061	-0.784424
1271.0	8.00759	-1.88211	2.701143	-0.047837	0.132621	0.10237	-0.675049	0.234863	-0.79126
1272.0	8.209667	-1.816098	2.503651	0.055967	0.122408	0.111596	-0.675049	0.234863	-0.789063
1273.0	8.437196	-1.763758	2.379609	0.137838	0.123141	0.135624	-0.67041	0.230469	-0.79126
1274.0	8.520818	-1.924281	2.515813	0.206912	0.129404	0.180767	-0.677246	0.232666	-0.79834
1275.0	8.524312	-2.06555	2.527329	0.26582	0.121767	0.200135	-0.672607	0.232666	-0.793701
1276.0	8.581169	-2.311147	2.518581	0.32906	0.115532	0.213917	-0.672363	0.226074	-0.800293
1277.0	8.597323	-2.495525	2.503335	0.381211	0.090925	0.217239	-0.670166	0.226074	-0.798096
1278.0	8.606683	-2.55491	2.4232	0.429729	0.085149	0.200987	-0.672363	0.226074	-0.800293
1279.0	8.6162	-2.545164	2.405846	0.468249	0.078194	0.181267	-0.667969	0.226074	-0.802734
1280.0	8.465681	-2.379085	2.344705	0.527214	0.040123	0.139275	-0.672363	0.22168	-0.800049
1281.0	8.260827	-2.157987	2.338173	0.591854	-0.058404	0.100089	-0.669678	0.215088	-0.811523
1282.0	8.119544	-1.992763	2.193528	0.65366	-0.15838	0.080007	-0.674072	0.212891	-0.802246
1283.0	8.209857	-1.860303	2.245364	0.696642	-0.26894	0.088137	-0.678711	0.210449	-0.806641
1284.0	8.372891	-1.728348	1.959703	0.725058	-0.325799	0.100227	-0.682861	0.206055	-0.794922
1285.0	8.739863	-1.72862	1.696851	0.739506	-0.301281	0.117313	-0.68042	0.197266	-0.799316
1286.0	9.231529	-1.757222	1.776728	0.757551	-0.223253	0.141586	-0.684814	0.195068	-0.806152
1287.0	9.616225	-1.76936	2.065805	0.763901	-0.152693	0.188423	-0.687012	0.192871	-0.799072
1288.0	9.831139	-1.819848	2.275844	0.740616	-0.061406	0.234161	-0.686523	0.186279	-0.805908
1289.0	9.995668	-1.917513	2.572818	0.694343	0.048561	0.279203	-0.684082	0.181885	-0.803223
1290.0	10.080378	-1.986885	3.06549	0.657916	0.12656	0.308343	-0.681885	0.179688	-0.803223
1291.0	10.195075	-1.784014	3.086598	0.622978	0.126354	0.329894	-0.688477	0.17749	-0.80542
1292.0	10.250296	-1.401111	2.780602	0.596142	0.075702	0.332374	-0.681885	0.17749	-0.80542
1293.0	10.166409	-0.930731	2.316423	0.582545	0.003232	0.310857	-0.686035	0.173096	-0.807617
1294.0	9.994006	-0.835908	1.827087	0.563735	-0.127047	0.266733	-0.679199	0.170898	-0.802979
1295.0	9.861465	-1.11795	1.533301	0.531488	-0.252078	0.227551	-0.687988	0.166504	-0.802734
1296.0	10.237619	-1.70241	3.354123	0.534948	-0.267614	0.202904	-0.69043	0.168701	-0.802734
1297.0	12.361957	-0.988711	3.922016	0.341631	-0.078958	0.361403	-0.685791	0.166504	-0.807373
1298.0	14.271277	-0.776259	2.643898	0.342767	0.393934	0.48499	-0.688232	0.168701	-0.805176
1299.0	13.524413	0.448874	6.252877	-0.021883	0.245273	0.56523	-0.679443	0.173096	-0.816895
1300.0	13.571563	0.408103	4.047219	-0.378333	0.110712	0.646565	-0.681641	0.173096	-0.810059
1301.0	12.884751	-0.80446	4.080197	-0.245219	0.125124	0.696192	-0.686523	0.181885	-0.817139
1302.0	11.809386	-1.791056	4.750362	-0.267358	-0.00798	0.604903	-0.682129	0.186279	-0.815186
1303.0	11.128862	-2.135948	4.221798	-0.215294	-0.099951	0.517647	-0.689209	0.192871	-0.80835
1304.0	9.6074	-1.86885	3.7405	-0.063324	-0.384953	0.428911	-0.687012	0.195068	-0.81543
1305.0	8.608597	-1.598604	3.576022	0.097006	-0.680198	0.262154	-0.693359	0.188477	-0.798828
1306.0	8.413541	-1.950635	3.227065	0.291866	-0.67374	0.170519	-0.697998	0.190674	-0.799072
1307.0	8.484787	-2.216156	3.725398	0.441866	-0.484852	0.209366	-0.702637	0.192871	-0.799072
1308.0	8.447521	-1.697944	4.265897	0.397452	-0.363432	0.304837	-0.704834	0.190674	-0.789795
1309.0	8.461908	-0.920525	4.568502	0.311427	-0.254563	0.386788	-0.707031	0.19043	-0.787354
1310.0	8.743304	-0.473221	4.328134	0.373404	-0.15024	0.436862	-0.700195	0.188477	-0.791992
1311.0	8.995145	-0.631787	3.547991	0.421769	-0.087716	0.471882	-0.700195	0.186279	-0.794189
1312.0	9.455451	-0.831378	3.421187	0.405043	0.019813	0.50385	-0.700439	0.190674	-0.789795
1313.0	9.743046	-1.147373	3.839351	0.344039	0.183811	0.521301	-0.707031	0.190674	-0.799072
1314.0	10.094584	-1.714366	4.529494	0.145692	0.261635	0.519567	-0.698242	0.195068	-0.794434
1315.0	10.336598	-1.960818	4.921388	-0.200666	0.239141	0.481194	-0.700439	0.192871	-0.796875
1316.0	10.430367	-1.59412	4.841097	-0.448322	0.152724	0.366849	-0.69873	0.203857	-0.797119
1317.0	10.207759	-1.07256	4.469471	-0.55441	0.028155	0.207029	-0.703125	0.203857	-0.804199
1318.0	10.045833	-0.652488	4.103252	-0.542876	-0.056227	0.050041	-0.698486	0.203857	-0.783203
1319.0	9.685713	-0.471021	3.856853	-0.436493	-0.070379	-0.081474	-0.698975	0.210449	-0.792725
1320.0	9.378882	-0.48219	3.554976	-0.336225	-0.063172	-0.183555	-0.703125	0.206055	-0.794922
1321.0	9.025397	-0.310606	3.323962	-0.191137	-0.022447	-0.270053	-0.705566	0.206055	-0.797363
1322.0	8.544042	-0.273136	3.276598	-0.043677	0.034816	-0.346227	-0.698975	0.210449	-0.797363
1323.0	8.25417	0.023196	3.330967	0.049019	0.074287	-0.41553	-0.702881	0.199463	-0.799316
