Acquisition frequency: 100 Hz
PacketCounter	Acc_X	Acc_Y	Acc_Z	Gyr_X	Gyr_Y	Gyr_Z	Mag_X	Mag_Y	Mag_Z
0.0	4.734133	2.942385	8.800814	0.005776	0.023742	-0.025904	-0.550293	-0.159668	-0.55835
1.0	4.703555	2.951079	8.832696	0.008181	0.022337	-0.018704	-0.554688	-0.157471	-0.56543
2.0	4.763316	2.908317	8.822744	0.003406	0.021106	-0.024209	-0.550293	-0.159668	-0.560791
3.0	4.712767	2.93463	8.832692	0.009903	0.025882	-0.019201	-0.55249	-0.157471	-0.56543
4.0	4.796231	2.908889	8.841151	0.016879	0.033037	-0.021751	-0.556885	-0.157471	-0.567627
5.0	4.748957	2.881022	8.829641	0.023518	0.042671	-0.028147	-0.550537	-0.155273	-0.567627
6.0	4.719774	2.86856	8.812742	0.033178	0.048147	-0.03199	-0.550293	-0.161865	-0.565186
7.0	4.676696	2.933832	8.842778	0.036329	0.04292	-0.035412	-0.550293	-0.159668	-0.560791
8.0	4.71434	2.912352	8.811027	0.041237	0.043105	-0.035871	-0.550293	-0.159668	-0.562988
9.0	4.748184	2.914559	8.828467	0.038698	0.043741	-0.040542	-0.550293	-0.157471	-0.562988
10.0	4.64768	2.969367	8.846787	0.043513	0.034261	-0.042485	-0.55249	-0.161865	-0.565186
11.0	4.735574	2.949788	8.878456	0.049584	0.03188	-0.042797	-0.554443	-0.164063	-0.560547
12.0	4.72983	2.930964	8.805617	0.053306	0.032779	-0.04685	-0.55249	-0.161865	-0.567627
13.0	4.63319	3.052859	8.791572	0.050578	0.02669	-0.043571	-0.550293	-0.159668	-0.562988
14.0	4.688392	3.038571	8.829987	0.044637	0.022094	-0.043789	-0.545898	-0.159668	-0.565186
15.0	4.694016	3.022937	8.804518	0.043877	0.030014	-0.042053	-0.547852	-0.16626	-0.562988
16.0	4.684664	3.026454	8.78101	0.037825	0.032423	-0.041733	-0.550293	-0.161865	-0.565186
17.0	4.660452	3.048954	8.759407	0.032631	0.036605	-0.041666	-0.550049	-0.164063	-0.565186
18.0	4.675991	3.036057	8.782318	0.028927	0.035737	-0.037602	-0.550049	-0.16626	-0.55835
19.0	4.721753	2.952027	8.82989	0.031344	0.04029	-0.035827	-0.548096	-0.159668	-0.560791
20.0	4.691376	2.972176	8.785105	0.038036	0.051863	-0.038753	-0.550293	-0.161865	-0.565186
21.0	4.579606	3.079492	8.800896	0.034251	0.04131	-0.036162	-0.547852	-0.16626	-0.562988
22.0	4.724263	3.012736	8.800094	0.028881	0.044693	-0.033585	-0.545654	-0.168457	-0.567383
23.0	4.579385	3.066186	8.777723	0.024959	0.039274	-0.033914	-0.545898	-0.159668	-0.567627
24.0	4.691145	3.061343	8.82913	0.022598	0.038492	-0.028775	-0.547852	-0.164063	-0.569824
25.0	4.638341	3.031237	8.793896	0.023368	0.049185	-0.025033	-0.545898	-0.159668	-0.560791
26.0	4.609663	3.07525	8.822015	0.016181	0.037428	-0.026886	-0.547852	-0.16626	-0.560547
27.0	4.643074	3.049411	8.767384	0.019261	0.041099	-0.026294	-0.547607	-0.168457	-0.560547
28.0	4.601388	3.023001	8.779463	0.015146	0.032994	-0.027562	-0.547607	-0.170654	-0.565186
29.0	4.639388	3.088517	8.765777	0.010256	0.03468	-0.023666	-0.545654	-0.164063	-0.562988
30.0	4.59308	3.116552	8.79908	0.003091	0.026657	-0.018627	-0.547852	-0.164063	-0.562988
31.0	4.648915	3.039689	8.794477	-0.003179	0.024486	-0.02272	-0.54126	-0.168457	-0.562744
32.0	4.641947	3.006394	8.799706	-0.002494	0.025478	-0.02045	-0.545898	-0.161865	-0.560791
33.0	4.609714	3.04604	8.803828	0.001577	0.027654	-0.01374	-0.545654	-0.168457	-0.560547
34.0	4.631039	3.063337	8.823376	-0.005057	0.02201	-0.016255	-0.545654	-0.168457	-0.562744
35.0	4.6183	3.059146	8.777073	-0.008611	0.021909	-0.014729	-0.545654	-0.164063	-0.55835
36.0	4.606528	3.080517	8.803519	-0.011	0.019232	-0.013052	-0.545654	-0.164063	-0.562988
37.0	4.657764	3.05797	8.820289	-0.013702	0.019039	-0.015224	-0.541504	-0.161865	-0.565186
38.0	4.636998	3.042787	8.826917	-0.016098	0.014486	-0.016997	-0.545654	-0.168457	-0.567383
39.0	4.581031	3.095776	8.784843	-0.020193	0.011988	-0.007928	-0.548096	-0.161865	-0.565186
40.0	4.63834	3.074156	8.825336	-0.026637	0.009016	-0.009513	-0.545654	-0.16626	-0.560547
41.0	4.599009	3.074676	8.80949	-0.030252	0.001081	-0.006013	-0.543457	-0.164063	-0.562988
42.0	4.632423	3.0672	8.803654	-0.037552	-0.003672	-0.007352	-0.550049	-0.164063	-0.565186
43.0	4.628623	3.030121	8.808471	-0.037915	-0.007139	-0.005771	-0.545654	-0.16626	-0.565186
44.0	4.648998	3.009628	8.8316	-0.039442	-0.008029	-0.004341	-0.547852	-0.164063	-0.569824
45.0	4.673587	3.02329	8.850717	-0.036069	-0.01059	-0.0068	-0.545654	-0.164063	-0.562988
46.0	4.663853	3.016314	8.803829	-0.036377	-0.008093	-0.010642	-0.545654	-0.164063	-0.562988
47.0	4.664107	3.013774	8.804564	-0.029928	-0.003251	-0.005602	-0.545654	-0.164063	-0.562988
48.0	4.669311	3.013565	8.829091	-0.030423	-0.003426	-0.010383	-0.547852	-0.164063	-0.562988
49.0	4.635937	3.016243	8.836579	-0.026555	-0.00581	-0.008063	-0.550293	-0.161865	-0.567627
50.0	4.654773	3.028877	8.831899	-0.030238	-0.002615	-0.012892	-0.548096	-0.161865	-0.569824
51.0	4.630817	3.009922	8.814241	-0.031945	-0.004311	-0.008949	-0.546143	-0.157471	-0.560791
52.0	4.640135	3.043396	8.835048	-0.036166	-0.003525	-0.006237	-0.548096	-0.161865	-0.567627
53.0	4.673737	3.035679	8.829165	-0.038862	-0.003706	-0.008405	-0.547852	-0.16626	-0.55835
54.0	4.635115	3.035255	8.813303	-0.04088	-0.002905	-0.008303	-0.55249	-0.159668	-0.565186
55.0	4.63523	3.032074	8.814338	-0.037006	-0.003427	-0.002532	-0.550293	-0.159668	-0.560791
56.0	4.694089	3.008504	8.854502	-0.046134	-0.006562	-0.006284	-0.548096	-0.159668	-0.567627
57.0	4.680896	2.934921	8.839351	-0.037127	0.001753	-0.005423	-0.548096	-0.157471	-0.560791
58.0	4.694071	2.945046	8.811353	-0.027819	0.003842	-0.007633	-0.547852	-0.164063	-0.567383
59.0	4.639808	3.022535	8.842379	-0.027324	0.002152	-0.006305	-0.545654	-0.164063	-0.562988
60.0	4.649068	2.998918	8.817952	-0.030875	0.000191	-0.008231	-0.545898	-0.159668	-0.567627
61.0	4.663581	2.977012	8.81734	-0.035097	-0.000883	-0.008972	-0.54541	-0.172852	-0.564941
62.0	4.647407	3.02582	8.792534	-0.034234	0.002765	-0.005754	-0.550293	-0.161865	-0.565186
63.0	4.715237	2.981556	8.807355	-0.036439	-0.000961	-0.010052	-0.545654	-0.164063	-0.562988
64.0	4.628061	3.005254	8.800128	-0.041324	0.002568	-0.002691	-0.548096	-0.159668	-0.569824
65.0	4.671679	3.000961	8.842113	-0.044201	-0.002126	-0.00926	-0.550293	-0.161865	-0.55835
66.0	4.651854	3.014597	8.821208	-0.047427	-0.002872	-0.000435	-0.552734	-0.155273	-0.56543
67.0	4.64708	3.008102	8.798784	-0.058067	-0.00688	-0.002757	-0.550293	-0.161865	-0.562988
68.0	4.610452	2.97337	8.810612	-0.061653	-0.012956	0.004175	-0.550293	-0.159668	-0.562988
69.0	4.659083	2.975553	8.775903	-0.069098	-0.018474	0.005346	-0.543701	-0.161865	-0.560791
70.0	4.652687	2.957879	8.829898	-0.075863	-0.023016	0.008791	-0.550293	-0.159668	-0.565186
71.0	4.708441	2.928697	8.84617	-0.072481	-0.023704	0.009781	-0.545898	-0.159668	-0.567627
72.0	4.69226	2.907104	8.852286	-0.072155	-0.028041	0.010161	-0.55249	-0.159668	-0.572021
73.0	4.868041	2.847395	8.869541	-0.055179	-0.011774	0.002348	-0.54834	-0.155273	-0.560791
74.0	4.700542	2.841387	8.832174	-0.045528	-0.006222	-0.001427	-0.550537	-0.155273	-0.562988
75.0	4.707823	2.938226	8.799012	-0.041128	-0.004334	-0.003195	-0.550537	-0.155273	-0.567627
76.0	4.699867	2.923439	8.852769	-0.045523	-0.00805	-0.004882	-0.548096	-0.159668	-0.562988
77.0	4.699299	2.952076	8.826461	-0.0435	-0.008842	-0.004987	-0.548096	-0.159668	-0.565186
78.0	4.738645	2.945394	8.844207	-0.049056	-0.009973	-0.006802	-0.554688	-0.157471	-0.56543
79.0	4.643124	2.93222	8.816815	-0.05106	-0.007319	-0.003223	-0.55249	-0.159668	-0.562988
80.0	4.695393	2.969758	8.778516	-0.061404	-0.019803	0.003667	-0.550537	-0.155273	-0.560791
81.0	4.693818	2.954405	8.856167	-0.065059	-0.01286	0.00581	-0.55249	-0.157471	-0.56543
82.0	4.7048	2.927131	8.831836	-0.069442	-0.016555	0.004126	-0.550293	-0.161865	-0.565186
83.0	4.691594	2.940041	8.835011	-0.070091	-0.013816	0.008794	-0.550537	-0.153076	-0.563232
84.0	4.756965	2.857698	8.852861	-0.068868	-0.008534	0.007021	-0.552734	-0.155273	-0.562988
85.0	4.77345	2.8002	8.879556	-0.053502	-0.001044	0.002554	-0.557129	-0.151123	-0.563232
86.0	4.77329	2.796038	8.880954	-0.040338	0.004584	-0.002763	-0.557129	-0.151123	-0.560791
87.0	4.743237	2.831858	8.885973	-0.030401	0.005751	-0.006188	-0.552979	-0.151123	-0.560791
88.0	4.737182	2.828179	8.86328	-0.02517	0.007573	-0.011661	-0.54834	-0.153076	-0.560791
89.0	4.731134	2.825307	8.840329	-0.014425	0.004502	-0.009957	-0.550537	-0.153076	-0.570068
90.0	4.729119	2.856903	8.814055	-0.018275	0.00694	-0.012234	-0.550537	-0.155273	-0.56543
91.0	4.733358	2.857743	8.838624	-0.014071	0.006157	-0.014968	-0.552979	-0.150879	-0.56543
92.0	4.747027	2.83809	8.837389	-0.007667	0.009058	-0.013385	-0.550781	-0.150879	-0.563232
93.0	4.711074	2.875218	8.818066	-0.00749	0.009887	-0.015891	-0.54834	-0.153076	-0.56543
94.0	4.75239	2.906384	8.832408	-0.008827	0.011645	-0.013501	-0.554932	-0.155273	-0.562988
95.0	4.731067	2.923851	8.811342	-0.01169	0.010673	-0.013154	-0.554688	-0.157471	-0.567627
96.0	4.697299	2.895331	8.846299	-0.014865	0.014065	-0.013156	-0.550537	-0.155273	-0.562988
97.0	4.73491	2.835081	8.817755	-0.011014	0.011629	-0.010878	-0.554932	-0.153076	-0.567627
98.0	4.72908	2.856919	8.868274	-0.017053	0.014046	-0.010534	-0.552734	-0.155273	-0.56543
99.0	4.707491	2.873918	8.847493	-0.011324	0.015997	-0.011223	-0.554932	-0.153076	-0.567627
100.0	4.705706	2.873318	8.848637	-0.014679	0.016732	-0.012188	-0.550537	-0.153076	-0.56543
101.0	4.752249	2.848701	8.840914	-0.014185	0.015027	-0.010876	-0.554932	-0.15332	-0.558594
102.0	4.721394	2.830101	8.79951	-0.011812	0.017712	-0.01253	-0.557129	-0.15332	-0.563232
103.0	4.739096	2.8685	8.868901	-0.015525	0.013131	-0.015425	-0.552734	-0.153076	-0.563232
104.0	4.723057	2.830892	8.825454	-0.006262	0.017009	-0.014179	-0.554688	-0.159668	-0.565186
105.0	4.730329	2.866671	8.847095	-0.010467	0.014136	-0.018385	-0.550537	-0.155273	-0.562988
106.0	4.727332	2.899156	8.821129	-0.009794	0.015088	-0.016109	-0.550537	-0.153076	-0.560791
107.0	4.702948	2.850025	8.83027	-0.010643	0.01331	-0.015879	-0.54834	-0.153076	-0.567627
108.0	4.773378	2.842605	8.841135	-0.006928	0.016069	-0.016449	-0.555176	-0.148926	-0.56543
109.0	4.737836	2.847446	8.84905	-0.003214	0.018829	-0.017019	-0.552979	-0.151123	-0.563232
110.0	4.739552	2.882238	8.846904	0.000321	0.020757	-0.015084	-0.556885	-0.157471	-0.567627
111.0	4.713613	2.866264	8.829081	-0.006923	0.016076	-0.016447	-0.557129	-0.15332	-0.56543
112.0	4.712805	2.834032	8.856986	-0.003209	0.018837	-0.017016	-0.552734	-0.155273	-0.56543
113.0	4.690793	2.852209	8.836028	-0.003388	0.018006	-0.014511	-0.548584	-0.148682	-0.567871
114.0	4.707536	2.867782	8.831829	0.002834	0.016428	-0.017353	-0.557129	-0.151123	-0.563232
115.0	4.700487	2.867033	8.808768	-0.00204	0.016257	-0.016898	-0.550781	-0.150879	-0.56543
116.0	4.703866	2.86921	8.833321	-0.003066	0.011817	-0.017637	-0.554932	-0.155273	-0.572266
117.0	4.720973	2.884479	8.829038	-0.005751	0.0135	-0.016329	-0.554688	-0.157471	-0.560791
118.0	4.739381	2.867136	8.851665	-0.003913	0.010038	-0.017408	-0.548584	-0.150879	-0.567627
119.0	4.715337	2.818658	8.860376	-0.001722	0.011895	-0.016552	-0.552734	-0.153076	-0.570068
120.0	4.764497	2.862702	8.822229	0.006553	0.019207	-0.017911	-0.550537	-0.153076	-0.56543
121.0	4.714919	2.855498	8.858691	0.011117	0.023758	-0.018702	-0.55249	-0.157471	-0.562988
122.0	4.760719	2.83352	8.85077	0.008256	0.022781	-0.018362	-0.554932	-0.153076	-0.56543
123.0	4.718114	2.870723	8.807751	0.012821	0.027335	-0.019151	-0.555176	-0.148926	-0.563232
124.0	4.720321	2.874342	8.832456	0.01131	0.024607	-0.021198	-0.552734	-0.155273	-0.56543
125.0	4.75716	2.841179	8.877295	0.014536	0.029092	-0.023068	-0.550781	-0.150879	-0.567627
126.0	4.756304	2.779072	8.932025	0.026495	0.029493	-0.026572	-0.554932	-0.151123	-0.567627
127.0	4.819676	2.775036	8.918919	0.046747	0.035402	-0.034891	-0.557129	-0.15332	-0.56543
128.0	4.75658	2.801927	8.880312	0.060766	0.044724	-0.036903	-0.550781	-0.150879	-0.572266
129.0	4.680754	2.915897	8.81308	0.067896	0.041323	-0.046877	-0.54834	-0.155273	-0.56543
130.0	4.652133	2.907209	8.794226	0.064849	0.041361	-0.04056	-0.55249	-0.157471	-0.567627
131.0	4.651242	2.94859	8.791086	0.05561	0.03747	-0.041821	-0.550293	-0.157471	-0.569824
132.0	4.680489	2.950811	8.784443	0.050382	0.033802	-0.039833	-0.552734	-0.155273	-0.56543
133.0	4.650283	3.029041	8.784986	0.037064	0.035146	-0.033962	-0.550537	-0.155273	-0.562988
134.0	4.696172	2.977475	8.804169	0.030959	0.031503	-0.02829	-0.554932	-0.15332	-0.563232
135.0	4.712253	2.963729	8.827061	0.023088	0.035538	-0.030368	-0.548096	-0.157471	-0.562988
136.0	4.684331	2.95035	8.809384	0.022733	0.043589	-0.023786	-0.550293	-0.157471	-0.562988
137.0	4.699636	2.936119	8.832884	0.025609	0.044598	-0.02411	-0.546143	-0.157471	-0.569824
138.0	4.744312	2.883925	8.853166	0.030741	0.053535	-0.028924	-0.550293	-0.159668	-0.567627
139.0	4.59732	2.967977	8.803053	0.028495	0.045625	-0.024425	-0.548096	-0.161865	-0.562988
140.0	4.693471	2.958639	8.784484	0.023644	0.043604	-0.027452	-0.550293	-0.161865	-0.572021
141.0	4.588137	2.974473	8.80565	0.01772	0.040782	-0.024293	-0.545898	-0.159668	-0.569824
142.0	4.631874	2.985763	8.771352	0.009616	0.024522	-0.027032	-0.550293	-0.157471	-0.562988
143.0	4.672404	2.986585	8.813487	-0.000381	0.025111	-0.020216	-0.548096	-0.161865	-0.567627
144.0	4.612662	2.974842	8.802256	-0.006906	0.017653	-0.026262	-0.547852	-0.16626	-0.565186
145.0	4.649351	2.972511	8.820458	-0.012262	0.009712	-0.015486	-0.554688	-0.159668	-0.569824
146.0	4.644419	2.938081	8.824522	-0.012882	0.006926	-0.021222	-0.548096	-0.157471	-0.56543
147.0	4.648208	2.939569	8.849049	-0.015263	0.004213	-0.019583	-0.550293	-0.157471	-0.56543
148.0	4.659996	2.984517	8.793717	-0.017842	0.00066	-0.015446	-0.550293	-0.157471	-0.56543
149.0	4.645778	2.970349	8.823068	-0.02136	-0.001294	-0.017395	-0.552734	-0.155273	-0.569824
150.0	4.642069	2.934899	8.826818	-0.024103	-0.007518	-0.014221	-0.550293	-0.157471	-0.56543
151.0	4.661104	2.948055	8.822294	-0.031368	-0.010438	-0.012158	-0.545898	-0.161865	-0.567627
152.0	4.636716	2.985671	8.849915	-0.037947	-0.01423	-0.011281	-0.55249	-0.157471	-0.567627
153.0	4.628184	2.978873	8.802666	-0.044267	-0.018749	-0.003132	-0.543701	-0.159668	-0.567627
154.0	4.666963	3.005059	8.793329	-0.04693	-0.018897	-0.0053	-0.550293	-0.161865	-0.569824
155.0	4.635062	3.004638	8.800582	-0.059948	-0.02198	0.000885	-0.554688	-0.159668	-0.562988
156.0	4.613994	2.982091	8.782323	-0.071238	-0.033008	0.001577	-0.550293	-0.157471	-0.56543
157.0	4.670891	2.953613	8.79837	-0.081021	-0.041278	0.004325	-0.554932	-0.155273	-0.572266
158.0	4.693434	2.960681	8.794057	-0.092482	-0.043408	0.009117	-0.55249	-0.159668	-0.562988
159.0	4.751931	2.922362	8.910483	-0.083052	-0.036767	0.011393	-0.550293	-0.159668	-0.569824
160.0	4.811426	2.804045	8.907142	-0.074382	-0.027676	0.005088	-0.550537	-0.155273	-0.56543
161.0	4.809386	2.7642	8.911127	-0.050239	-0.00651	-0.00115	-0.55249	-0.157471	-0.56543
162.0	4.724585	2.853351	8.873564	-0.031375	0.003042	-0.003566	-0.552734	-0.155273	-0.567627
163.0	4.727798	2.885122	8.871521	-0.029816	0.002152	-0.008444	-0.552734	-0.155273	-0.56543
164.0	4.757037	2.844961	8.868861	-0.020222	0.009589	-0.008681	-0.554932	-0.153076	-0.567627
165.0	4.73205	2.827382	8.850935	-0.012615	0.01601	-0.012275	-0.559326	-0.155518	-0.567627
166.0	4.705163	2.86719	8.879455	-0.004195	0.016329	-0.014233	-0.55249	-0.157471	-0.56543
167.0	4.735548	2.896112	8.846774	-0.001334	0.017325	-0.014561	-0.550781	-0.150879	-0.570068
168.0	4.70998	2.879847	8.828726	-0.004711	0.019867	-0.012067	-0.556885	-0.157471	-0.572266
169.0	4.706657	2.912653	8.802854	-0.007507	0.015249	-0.018674	-0.55249	-0.157471	-0.569824
170.0	4.691122	2.899249	8.832517	-0.009716	0.0152	-0.016069	-0.550537	-0.153076	-0.56543
171.0	4.727815	2.896505	8.850781	-0.011079	0.016943	-0.013684	-0.55249	-0.157471	-0.562988
172.0	4.701067	2.912156	8.806004	-0.01306	0.015932	-0.017043	-0.55249	-0.157471	-0.560791
173.0	4.735427	2.842333	8.854272	-0.014423	0.017675	-0.014658	-0.548096	-0.161865	-0.565186
174.0	4.744952	2.788765	8.856546	-0.006849	0.016206	-0.016391	-0.550537	-0.155273	-0.56543
175.0	4.784446	2.821386	8.871896	0.010962	0.032836	-0.014454	-0.552734	-0.155273	-0.569824
176.0	4.707741	2.862832	8.835417	0.019942	0.02782	-0.022036	-0.55249	-0.159668	-0.569824
177.0	4.727731	2.882277	8.855435	0.019297	0.036601	-0.022692	-0.550781	-0.150879	-0.563232
178.0	4.68182	2.853442	8.842275	0.022649	0.035885	-0.02171	-0.55249	-0.159668	-0.569824
179.0	4.66189	2.908073	8.818122	0.018141	0.029493	-0.024413	-0.554932	-0.155273	-0.562988
180.0	4.730861	2.904111	8.829698	0.015085	0.027649	-0.021592	-0.550293	-0.157471	-0.574463
181.0	4.708934	2.891449	8.835481	0.01694	0.033914	-0.021052	-0.550293	-0.159668	-0.572021
182.0	4.695152	2.914829	8.862145	0.019647	0.032255	-0.022344	-0.550293	-0.159668	-0.562988
183.0	4.721675	2.879323	8.85966	0.018481	0.034857	-0.022453	-0.545654	-0.164063	-0.569824
184.0	4.697881	2.899624	8.838685	0.019534	0.037517	-0.025161	-0.550293	-0.157471	-0.569824
185.0	4.650846	2.903318	8.798461	0.021679	0.031485	-0.022435	-0.550293	-0.157471	-0.567627
186.0	4.642097	2.928542	8.84874	0.018663	0.027823	-0.023084	-0.550293	-0.157471	-0.567627
187.0	4.653022	2.94443	8.820778	0.011938	0.021355	-0.023196	-0.550537	-0.155273	-0.567627
188.0	4.670583	2.928666	8.843609	0.004479	0.017568	-0.018655	-0.550781	-0.150879	-0.572266
189.0	4.693847	2.890201	8.816981	0.005372	0.017556	-0.022337	-0.54834	-0.155273	-0.567627
190.0	4.720912	2.87782	8.887623	0.009286	0.021219	-0.025364	-0.54834	-0.155273	-0.572266
191.0	4.716756	2.912891	8.861365	0.022022	0.027136	-0.022083	-0.550537	-0.155273	-0.567627
192.0	4.670388	2.916557	8.820725	0.018933	0.026902	-0.029024	-0.550293	-0.159668	-0.567627
193.0	4.652142	2.938673	8.82306	0.02139	0.026207	-0.024353	-0.55249	-0.161865	-0.572021
194.0	4.649056	2.941809	8.823642	0.020321	0.025179	-0.031394	-0.550293	-0.161865	-0.569824
195.0	4.689078	2.944393	8.865608	0.020276	0.027002	-0.027926	-0.545898	-0.159668	-0.572021
196.0	4.692757	2.892809	8.843774	0.025369	0.028084	-0.030831	-0.550293	-0.161865	-0.569824
197.0	4.731037	2.928794	8.858734	0.031948	0.031917	-0.031675	-0.548096	-0.159668	-0.572021
198.0	4.635145	2.956576	8.826024	0.030783	0.034525	-0.031787	-0.545898	-0.159668	-0.565186
199.0	4.604374	3.033023	8.826794	0.027135	0.029906	-0.034713	-0.550537	-0.155273	-0.56543
200.0	4.640646	3.009585	8.771655	0.009967	0.022215	-0.023071	-0.550293	-0.161865	-0.565186
201.0	4.644194	2.980606	8.823281	0.005625	0.018455	-0.024815	-0.550293	-0.161865	-0.569824
202.0	4.626905	3.000932	8.825575	-0.001156	0.01377	-0.021478	-0.55249	-0.161865	-0.574463
203.0	4.606756	2.986244	8.830999	-0.009264	0.009004	-0.019232	-0.543701	-0.159668	-0.567627
204.0	4.644071	2.983816	8.84921	-0.014718	0.004393	-0.014807	-0.545898	-0.161865	-0.562988
205.0	4.699296	2.905298	8.819494	-0.014716	0.004395	-0.014807	-0.545898	-0.159668	-0.572021
206.0	4.623772	2.967365	8.8553	-0.013929	0.008016	-0.011559	-0.550293	-0.161865	-0.565186
207.0	4.648491	2.927093	8.828832	-0.013119	0.003522	-0.019669	-0.55249	-0.159668	-0.565186
208.0	4.679904	2.955372	8.796105	-0.013869	0.006205	-0.01502	-0.55249	-0.157471	-0.574463
209.0	4.654694	2.962166	8.850868	-0.012692	0.003613	-0.014901	-0.547852	-0.164063	-0.574219
210.0	4.672347	2.976915	8.846753	-0.01254	0.006287	-0.013929	-0.548096	-0.159668	-0.569824
211.0	4.682087	2.95572	8.821792	-0.014167	0.000866	-0.016961	-0.550293	-0.157471	-0.569824
212.0	4.667498	2.941791	8.850955	-0.013172	0.005345	-0.016203	-0.548096	-0.159668	-0.572021
213.0	4.662015	2.939564	8.82765	-0.016183	0.00166	-0.016861	-0.550293	-0.157471	-0.572266
214.0	4.664665	2.973153	8.825129	-0.016182	0.001662	-0.01686	-0.550293	-0.159668	-0.567627
215.0	4.659555	2.970352	8.801827	-0.024978	-0.002244	-0.013432	-0.550293	-0.159668	-0.562988
216.0	4.680532	2.919077	8.851693	-0.021271	0.00058	-0.013957	-0.548096	-0.157471	-0.56543
217.0	4.669627	2.938527	8.877846	-0.022744	-0.002165	-0.016018	-0.547852	-0.164063	-0.562988
218.0	4.673718	2.947522	8.802026	-0.020574	-0.00028	-0.015142	-0.552246	-0.164063	-0.562988
219.0	4.664288	2.934588	8.855037	-0.019396	-0.002872	-0.015025	-0.54834	-0.155273	-0.560791
220.0	4.6978	2.929988	8.849074	-0.01584	-0.00272	-0.016524	-0.550293	-0.159668	-0.572021
221.0	4.692634	2.927855	8.825581	-0.011987	0.002774	-0.016075	-0.550293	-0.161865	-0.567627
222.0	4.716346	2.912192	8.872199	-0.005423	0.006613	-0.016913	-0.550537	-0.153076	-0.570068
223.0	4.675501	2.94715	8.82815	-0.00885	0.002852	-0.022338	-0.550293	-0.157471	-0.56543
224.0	4.682437	2.983377	8.849448	-0.004096	0.006693	-0.015823	-0.550293	-0.157471	-0.572266
225.0	4.68866	2.928724	8.827405	-0.009394	0.006391	-0.020175	-0.55249	-0.161865	-0.565186
226.0	4.672085	2.947914	8.829704	-0.00771	0.010006	-0.0206	-0.550293	-0.157471	-0.56543
227.0	4.650798	2.965352	8.808142	-0.009456	0.0082	-0.016711	-0.552246	-0.164063	-0.572021
228.0	4.669605	2.947956	8.831002	-0.010925	0.005456	-0.018773	-0.554688	-0.157471	-0.569824
229.0	4.679328	2.927145	8.805947	-0.012606	0.001846	-0.018347	-0.545898	-0.161865	-0.569824
230.0	4.686493	2.962771	8.827322	-0.011976	0.002787	-0.01607	-0.550537	-0.155273	-0.569824
231.0	4.66739	2.946893	8.832527	-0.019018	0.000678	-0.016535	-0.550293	-0.161865	-0.569824
232.0	4.669976	2.980343	8.830126	-0.015528	0.002637	-0.01457	-0.548096	-0.161865	-0.569824
233.0	4.710421	2.92123	8.801756	-0.012668	0.003657	-0.01488	-0.54834	-0.157471	-0.572266
234.0	4.7141	2.922361	8.826363	-0.015024	0.008849	-0.015104	-0.552734	-0.155273	-0.572266
235.0	4.66399	2.944497	8.835122	-0.013148	0.005393	-0.016179	-0.554688	-0.157471	-0.56543
236.0	4.678311	2.925095	8.834096	-0.01447	0.00532	-0.017266	-0.55249	-0.159668	-0.572021
237.0	4.672591	2.92303	8.81089	-0.013629	0.007129	-0.017476	-0.54834	-0.155273	-0.569824
238.0	4.67454	2.956975	8.808676	-0.011465	0.009013	-0.016599	-0.550293	-0.159668	-0.565186
239.0	4.678024	2.958139	8.833365	-0.015858	0.007052	-0.014888	-0.548096	-0.157471	-0.56543
240.0	4.687902	2.936596	8.808494	-0.021233	0.000613	-0.013944	-0.554688	-0.159668	-0.565186
241.0	4.725751	2.93338	8.826776	-0.019766	0.003359	-0.011878	-0.55249	-0.157471	-0.567627
242.0	4.720161	2.930862	8.803663	-0.015015	0.008867	-0.015095	-0.55249	-0.159668	-0.57666
243.0	4.69915	2.93874	8.882573	-0.013066	0.009878	-0.01173	-0.548584	-0.150879	-0.56543
244.0	4.700641	2.881783	8.836882	-0.011387	0.013495	-0.01215	-0.550293	-0.159668	-0.565186
245.0	4.686872	2.934707	8.836592	-0.009153	0.013581	-0.014735	-0.550293	-0.159668	-0.567627
246.0	4.695856	2.914147	8.811881	-0.005669	0.015537	-0.012768	-0.550293	-0.159668	-0.574463
247.0	4.66822	2.953745	8.84002	-0.00581	0.01287	-0.013746	-0.55249	-0.157471	-0.562988
248.0	4.681888	2.934916	8.839164	-0.007614	0.014533	-0.016131	-0.548096	-0.161865	-0.569824
249.0	4.675955	2.933021	8.816032	-0.014039	0.005408	-0.012498	-0.547852	-0.164063	-0.565186
250.0	4.6978	2.949636	8.836105	-0.008451	0.012729	-0.015919	-0.55249	-0.157471	-0.562988
251.0	4.688682	2.913518	8.815909	-0.014305	0.008021	-0.016279	-0.55249	-0.159668	-0.569824
252.0	4.690491	2.947269	8.813868	-0.014162	0.010693	-0.015299	-0.548096	-0.159668	-0.569824
253.0	4.686124	2.912521	8.817597	-0.012981	0.008098	-0.015189	-0.554932	-0.155273	-0.567627
254.0	4.669642	2.931038	8.820037	-0.011659	0.008173	-0.0141	-0.55249	-0.159668	-0.565186
255.0	4.673328	2.932013	8.844656	-0.017511	0.003463	-0.014463	-0.55249	-0.157471	-0.569824
256.0	4.701711	2.925902	8.815178	-0.019528	0.004253	-0.014362	-0.554688	-0.159668	-0.560791
257.0	4.674671	2.964346	8.843344	-0.017851	0.007874	-0.014777	-0.554443	-0.164063	-0.567383
258.0	4.695163	2.92236	8.792938	-0.020845	0.004186	-0.015448	-0.548096	-0.157471	-0.569824
259.0	4.701988	2.957019	8.814857	-0.02092	0.005981	-0.011982	-0.554443	-0.161865	-0.572021
260.0	4.685821	2.974567	8.81746	-0.023076	0.004103	-0.012861	-0.556885	-0.157471	-0.562988
261.0	4.682137	2.938627	8.821193	-0.027465	0.002135	-0.011157	-0.550293	-0.159668	-0.572021
262.0	4.701598	2.919139	8.844378	-0.031714	0.002837	-0.00847	-0.554932	-0.155273	-0.567627
263.0	4.665975	2.953005	8.824853	-0.031989	-0.002495	-0.010432	-0.554688	-0.157471	-0.562988
264.0	4.669223	2.984386	8.822912	-0.04036	-0.006381	-0.002264	-0.55249	-0.157471	-0.56543
265.0	4.682202	2.92741	8.824887	-0.05016	-0.011291	-0.00589	-0.552734	-0.155273	-0.56543
266.0	4.693652	2.902768	8.800231	-0.050713	-0.007753	-0.003712	-0.55249	-0.157471	-0.56543
267.0	4.616438	3.024947	8.783451	-0.063739	-0.018936	0.004196	-0.550537	-0.155273	-0.56543
268.0	4.699652	2.925909	8.799593	-0.071234	-0.01928	0.002442	-0.554932	-0.155273	-0.572266
269.0	4.703051	2.886564	8.827425	-0.071511	-0.018356	0.008402	-0.550781	-0.150879	-0.56543
270.0	4.694151	2.900113	8.854418	-0.073513	-0.017541	0.008517	-0.556885	-0.157471	-0.569824
271.0	4.780137	2.834799	8.86786	-0.069385	-0.012927	0.00305	-0.552979	-0.148682	-0.572266
272.0	4.778233	2.794767	8.871711	-0.056169	-0.010527	0.004195	-0.554932	-0.153076	-0.567627
273.0	4.697623	2.882764	8.858242	-0.054278	-0.006015	0.001313	-0.550537	-0.155273	-0.562988
274.0	4.767235	2.838113	8.873374	-0.052117	-0.004132	0.002201	-0.557129	-0.153076	-0.572266
275.0	4.822634	2.780082	8.916884	-0.042301	0.002496	-0.003889	-0.55542	-0.144531	-0.565674
276.0	4.72501	2.798987	8.860988	-0.025547	0.012983	-0.006043	-0.552979	-0.150879	-0.570068
277.0	4.706824	2.849049	8.837595	-0.022758	0.00956	-0.010814	-0.548584	-0.150879	-0.570068
278.0	4.734986	2.842688	8.808331	-0.023729	0.005094	-0.011602	-0.554932	-0.151123	-0.56543
279.0	4.704929	2.846093	8.839556	-0.018803	0.009752	-0.007555	-0.552979	-0.150879	-0.567627
280.0	4.722192	2.860051	8.836196	-0.02345	0.010425	-0.009617	-0.548096	-0.161865	-0.567627
281.0	4.734668	2.872768	8.808961	-0.017752	0.012453	-0.010234	-0.550781	-0.150879	-0.572266
282.0	4.719742	2.857199	8.838427	-0.027749	0.006695	-0.011384	-0.552979	-0.148926	-0.570068
283.0	4.732404	2.869367	8.811285	-0.026156	0.012085	-0.00831	-0.548584	-0.150879	-0.563232
284.0	4.746523	2.848453	8.810714	-0.029001	0.011077	-0.008	-0.554932	-0.151123	-0.560791
285.0	4.697636	2.835774	8.846749	-0.027252	0.012924	-0.011871	-0.556885	-0.157471	-0.56543
286.0	4.711525	2.815029	8.846224	-0.026631	0.013844	-0.00959	-0.557129	-0.155273	-0.569824
287.0	4.725727	2.794597	8.84543	-0.021481	0.005221	-0.014183	-0.552979	-0.148926	-0.570068
288.0	4.7032	2.843691	8.797963	-0.024887	0.00773	-0.011685	-0.55957	-0.146729	-0.570068
289.0	4.706843	2.84323	8.82299	-0.027732	0.006722	-0.011375	-0.555176	-0.148926	-0.56543
290.0	4.730562	2.825171	8.869992	-0.023783	0.006903	-0.008118	-0.554932	-0.155273	-0.56543
291.0	4.752773	2.85044	8.790375	-0.025232	0.004185	-0.010198	-0.554932	-0.151123	-0.560791
292.0	4.693839	2.85801	8.851781	-0.027379	0.002323	-0.011083	-0.557129	-0.153076	-0.570068
293.0	4.742451	2.833776	8.844465	-0.02939	0.003122	-0.010972	-0.554932	-0.151123	-0.570068
294.0	4.723765	2.816199	8.849666	-0.029874	-0.003091	-0.010487	-0.557129	-0.151123	-0.570068
295.0	4.688577	2.850027	8.830351	-0.03924	-0.007926	-0.009365	-0.550781	-0.148682	-0.56543
296.0	4.652337	2.816017	8.83977	-0.040069	-0.009726	-0.009164	-0.559326	-0.151123	-0.567627
297.0	4.699345	2.756412	8.834398	-0.040334	-0.01504	-0.011157	-0.555176	-0.146729	-0.572266
298.0	4.721806	2.803161	8.828052	-0.039846	-0.016782	-0.009872	-0.557373	-0.148926	-0.567871
299.0	4.707946	2.818807	8.830236	-0.043786	-0.024908	-0.011361	-0.546387	-0.148682	-0.570068
300.0	4.746349	2.846408	8.821744	-0.045442	-0.020543	-0.012721	-0.552979	-0.148926	-0.567871
301.0	4.724931	2.825819	8.802544	-0.052113	-0.020834	-0.004949	-0.550781	-0.150879	-0.567627
302.0	4.76998	2.820343	8.844434	-0.054812	-0.027137	-0.001878	-0.555176	-0.146729	-0.572266
303.0	4.830213	2.79587	8.884424	-0.053841	-0.014693	-0.002819	-0.552979	-0.151123	-0.563232
304.0	4.767066	2.742607	8.850233	-0.045119	-0.012555	0.003488	-0.550781	-0.146729	-0.565674
305.0	4.790824	2.755482	8.870625	-0.038738	-0.003419	-7.6e-05	-0.552979	-0.148926	-0.56543
306.0	4.82315	2.78228	8.838874	-0.031659	-0.003104	-0.00309	-0.566162	-0.148926	-0.570068
307.0	4.753952	2.819274	8.826362	-0.036161	0.000252	-0.004135	-0.551025	-0.144531	-0.565674
308.0	4.770834	2.764595	8.851396	-0.02978	0.001417	-0.005951	-0.557617	-0.142334	-0.567871
309.0	4.819604	2.740596	8.843715	-0.021178	0.002683	-0.01036	-0.554932	-0.150879	-0.572266
310.0	4.756119	2.747324	8.881074	-0.015416	0.002943	-0.014459	-0.557373	-0.146729	-0.567871
311.0	4.782503	2.77568	8.825295	-0.008639	0.012072	-0.013264	-0.555176	-0.146729	-0.570068
312.0	4.799522	2.791084	8.821767	-0.010701	0.008466	-0.017631	-0.559814	-0.144531	-0.57251
313.0	4.769153	2.795152	8.852874	-0.014933	0.009163	-0.014923	-0.557129	-0.151123	-0.567627
314.0	4.798604	2.757264	8.849513	-0.00711	0.013033	-0.014653	-0.55957	-0.146729	-0.56543
315.0	4.804501	2.792806	8.87215	-0.007592	0.01479	-0.015927	-0.55542	-0.142334	-0.565674
316.0	4.756705	2.759853	8.833695	-0.001912	0.016805	-0.016545	-0.557129	-0.151123	-0.572266
317.0	4.811557	2.773992	8.847793	0.00334	0.01701	-0.012214	-0.55542	-0.144531	-0.57251
318.0	4.755745	2.795979	8.83304	0.005083	0.018874	-0.016078	-0.557617	-0.144531	-0.570068
319.0	4.787463	2.793807	8.827456	0.004172	0.018821	-0.012405	-0.552979	-0.148682	-0.572266
320.0	4.785249	2.795012	8.828275	0.008058	0.022544	-0.015378	-0.552979	-0.146729	-0.570068
321.0	4.749168	2.799507	8.835461	0.005004	0.020633	-0.012596	-0.557129	-0.151123	-0.567627
322.0	4.736057	2.820515	8.862356	0.005835	0.022443	-0.012787	-0.55957	-0.148926	-0.572266
323.0	4.749222	2.80249	8.861264	-0.001854	0.021226	-0.012057	-0.557129	-0.151123	-0.567627
324.0	4.765414	2.818659	8.857969	0.001556	0.018731	-0.014566	-0.559326	-0.151123	-0.572266
325.0	4.740375	2.802649	8.839186	-0.001152	0.020381	-0.013253	-0.557373	-0.146729	-0.56543
326.0	4.769295	2.765555	8.835987	-0.003422	0.015866	-0.015149	-0.557373	-0.148926	-0.567871
327.0	4.787347	2.748419	8.858794	0.000161	0.020437	-0.012167	-0.555176	-0.148926	-0.567871
328.0	4.77256	2.802294	8.859617	0.002391	0.020549	-0.014753	-0.559814	-0.144531	-0.57251
329.0	4.781425	2.783275	8.834424	0.003356	0.017037	-0.012201	-0.55542	-0.142334	-0.57251
330.0	4.783895	2.785705	8.859106	0.011396	0.02183	-0.014389	-0.557373	-0.146729	-0.56543
331.0	4.747509	2.790732	8.866194	0.013886	0.027261	-0.014961	-0.561523	-0.151123	-0.570068
332.0	4.755808	2.772762	8.840996	0.014241	0.022849	-0.01469	-0.555176	-0.148926	-0.570068
333.0	4.751568	2.807855	8.815613	0.013062	0.025461	-0.014767	-0.553223	-0.144531	-0.563232
334.0	4.753461	2.810925	8.840387	0.013765	0.024615	-0.015962	-0.555176	-0.148926	-0.574707
335.0	4.789161	2.810585	8.858998	0.006295	0.024298	-0.017715	-0.555176	-0.146729	-0.567871
336.0	4.729968	2.798455	8.846391	0.008088	0.022597	-0.015353	-0.557129	-0.151123	-0.572266
337.0	4.739597	2.847358	8.792961	0.002851	0.022389	-0.019691	-0.555176	-0.148926	-0.56543
338.0	4.723388	2.833667	8.82219	-0.006372	0.020199	-0.017588	-0.55957	-0.146729	-0.572266
339.0	4.75681	2.797576	8.843191	-0.00541	0.016684	-0.015036	-0.550781	-0.146729	-0.567871
340.0	4.73488	2.815335	8.822203	-0.008027	0.016581	-0.017206	-0.550537	-0.153076	-0.56543
341.0	4.752795	2.797999	8.845215	-0.005665	0.019359	-0.01878	-0.554932	-0.150879	-0.572266
342.0	4.746104	2.797323	8.822273	-0.001736	0.01952	-0.015523	-0.557617	-0.144531	-0.565674
343.0	4.737191	2.818935	8.873309	-0.003396	0.02389	-0.016876	-0.552979	-0.148926	-0.567871
344.0	4.745926	2.799525	8.84842	-0.004476	0.016759	-0.018698	-0.557373	-0.148926	-0.574707
345.0	4.757745	2.814461	8.821193	-0.004474	0.016762	-0.018697	-0.557373	-0.146729	-0.563232
346.0	4.737419	2.799284	8.826318	-0.005176	0.017613	-0.0175	-0.554932	-0.150879	-0.572266
347.0	4.742575	2.835074	8.849137	-0.007186	0.018412	-0.017389	-0.55957	-0.148926	-0.567871
348.0	4.706843	2.838184	8.856304	-0.012287	0.01287	-0.018993	-0.557373	-0.148926	-0.572266
349.0	4.749911	2.815086	8.825215	-0.010628	0.016499	-0.019369	-0.555176	-0.148926	-0.567871
350.0	4.734294	2.800388	8.854376	-0.013212	0.01281	-0.015325	-0.555176	-0.148926	-0.574707
351.0	4.750953	2.81567	8.851209	-0.013589	0.012826	-0.020076	-0.55957	-0.146729	-0.56543
352.0	4.74042	2.813021	8.80424	-0.013209	0.012815	-0.015323	-0.550537	-0.153076	-0.567627
353.0	4.761566	2.829308	8.825091	-0.015822	0.012713	-0.017494	-0.552979	-0.148682	-0.572266
354.0	4.7462	2.814235	8.854214	-0.017251	0.010003	-0.019587	-0.55957	-0.148926	-0.570068
355.0	4.762963	2.829068	8.851155	-0.022579	0.011546	-0.020452	-0.557373	-0.146729	-0.572266
356.0	4.71613	2.794475	8.812524	-0.022221	0.007126	-0.020186	-0.557617	-0.142334	-0.567871
357.0	4.753141	2.791604	8.831372	-0.019483	0.009894	-0.017003	-0.557373	-0.148926	-0.572266
358.0	4.7717	2.77339	8.854339	-0.013803	0.011935	-0.017595	-0.552979	-0.150879	-0.572266
359.0	4.774487	2.774401	8.879244	-0.008124	0.013976	-0.018186	-0.552979	-0.146729	-0.567871
360.0	4.734168	2.7767	8.862338	-0.002801	0.020444	-0.01904	-0.554932	-0.151123	-0.563232
361.0	4.734551	2.81183	8.861212	-0.001388	0.018755	-0.02143	-0.553223	-0.144531	-0.570068
362.0	4.709558	2.795772	8.842327	-0.002198	0.021348	-0.016755	-0.552979	-0.150879	-0.570068
363.0	4.74374	2.827776	8.835176	-0.003395	0.019557	-0.021318	-0.552979	-0.146729	-0.56543
364.0	4.747633	2.796318	8.886261	-0.003621	0.018641	-0.018848	-0.552979	-0.148926	-0.570068
365.0	4.736626	2.794573	8.839302	-0.004326	0.01949	-0.017651	-0.555176	-0.148926	-0.567871
366.0	4.741431	2.830451	8.862266	-0.006934	0.019391	-0.019823	-0.548584	-0.150879	-0.570068
367.0	4.752326	2.777528	8.863457	-0.013327	0.013791	-0.022527	-0.552979	-0.148926	-0.570068
368.0	4.748413	2.810854	8.838504	-0.006811	0.022061	-0.018808	-0.555176	-0.146729	-0.570068
369.0	4.712352	2.814075	8.845649	-0.007277	0.015819	-0.018362	-0.552979	-0.148926	-0.567871
370.0	4.768515	2.794755	8.886706	-0.011777	0.019177	-0.019415	-0.555176	-0.146729	-0.570068
371.0	4.752946	2.791516	8.816002	-0.005979	0.02389	-0.018987	-0.552979	-0.150879	-0.567627
372.0	4.725249	2.797285	8.871213	-0.002549	0.021409	-0.021484	-0.55957	-0.148926	-0.574707
373.0	4.74095	2.813955	8.868212	0.001595	0.022488	-0.020688	-0.555176	-0.148926	-0.570068
374.0	4.704571	2.817929	8.875231	-0.000533	0.020623	-0.02159	-0.552979	-0.150879	-0.56543
375.0	4.744656	2.761979	8.846317	0.002308	0.021651	-0.021879	-0.555176	-0.146729	-0.567871
376.0	4.710786	2.800604	8.851194	0.005743	0.023576	-0.019886	-0.555176	-0.148926	-0.574707
377.0	4.710928	2.836453	8.849939	0.005511	0.018253	-0.021908	-0.552979	-0.148926	-0.570068
378.0	4.704517	2.836477	8.826674	-0.001699	0.015229	-0.019949	-0.557373	-0.148926	-0.570068
379.0	4.701783	2.769596	8.855636	-0.004303	0.015129	-0.022123	-0.557373	-0.148926	-0.570068
380.0	4.700713	2.837853	8.828258	-0.003824	0.013364	-0.020851	-0.552979	-0.150879	-0.56543
381.0	4.734616	2.802157	8.849166	-0.008674	0.013132	-0.020454	-0.550781	-0.148682	-0.56543
382.0	4.706027	2.840643	8.877863	-0.010323	0.009494	-0.020088	-0.557129	-0.151123	-0.567627
383.0	4.713333	2.786543	8.854781	-0.008312	0.013107	-0.015704	-0.552979	-0.148926	-0.567871
384.0	4.718658	2.822256	8.877459	-0.004878	0.010629	-0.018199	-0.557129	-0.155273	-0.56543
385.0	4.731019	2.837386	8.850102	-0.004643	0.011557	-0.020663	-0.546387	-0.148682	-0.567871
386.0	4.724637	2.76886	8.854876	-0.011967	0.005861	-0.019721	-0.555176	-0.146729	-0.572266
387.0	4.710309	2.822006	8.855323	-0.004989	0.007972	-0.019209	-0.550781	-0.148682	-0.567871
388.0	4.713484	2.823643	8.879766	-0.0038	0.00536	-0.019134	-0.557129	-0.15332	-0.567627
389.0	4.723813	2.804363	8.854239	-0.007113	0.006103	-0.020114	-0.557373	-0.146729	-0.563232
390.0	4.72496	2.83893	8.852844	-0.008898	0.012225	-0.01798	-0.555176	-0.148926	-0.572266
391.0	4.719483	2.837668	8.829511	-0.013019	0.00312	-0.017073	-0.552979	-0.148926	-0.570068
392.0	4.71859	2.837496	8.830043	-0.009357	0.005974	-0.017541	-0.552979	-0.150879	-0.567627
393.0	4.721872	2.838362	8.854673	-0.013616	0.00663	-0.014864	-0.55542	-0.144531	-0.57251
394.0	4.736716	2.81913	8.853394	-0.017865	0.002887	-0.016677	-0.557129	-0.153076	-0.570068
395.0	4.735928	2.818439	8.854036	-0.016327	0.00387	-0.018051	-0.548584	-0.148682	-0.574707
396.0	4.703679	2.854842	8.85862	-0.018574	0.003734	-0.01548	-0.552979	-0.150879	-0.56543
397.0	4.750041	2.79811	8.853495	-0.020585	0.004528	-0.015372	-0.55542	-0.142334	-0.570313
398.0	4.751029	2.763931	8.880256	-0.015147	0.005661	-0.013483	-0.557373	-0.148926	-0.574707
399.0	4.763882	2.778338	8.852925	-0.008526	0.007814	-0.017714	-0.557373	-0.146729	-0.567871
400.0	4.751156	2.798071	8.879565	-0.006527	0.011419	-0.013328	-0.552979	-0.148926	-0.567871
401.0	4.766862	2.747089	8.90435	0.009535	0.021153	-0.017582	-0.552734	-0.153076	-0.567627
402.0	4.744508	2.766587	8.882915	0.017698	0.020656	-0.016993	-0.555176	-0.148926	-0.570068
403.0	4.77815	2.800908	8.875596	0.02383	0.028985	-0.017994	-0.555176	-0.146729	-0.56543
404.0	4.841178	2.719817	8.99248	0.034119	0.030369	-0.016492	-0.552979	-0.148926	-0.570068
405.0	4.858093	2.707591	9.01466	0.058522	0.02547	-0.026406	-0.550781	-0.150879	-0.56543
406.0	4.832051	2.563519	9.049816	0.084754	0.010074	-0.042929	-0.554688	-0.157471	-0.569824
407.0	4.874865	2.597444	8.889502	0.127194	0.003512	-0.056465	-0.552979	-0.148926	-0.56543
408.0	4.56931	3.074927	8.742737	0.139729	-0.009957	-0.06127	-0.548096	-0.159668	-0.560791
409.0	4.608763	3.053493	8.782763	0.097886	-0.018297	-0.059875	-0.552734	-0.153076	-0.56543
410.0	4.709254	2.98922	8.790144	0.08913	-0.007009	-0.070649	-0.554932	-0.151123	-0.563232
411.0	4.699143	2.996416	8.739662	0.062692	-0.001354	-0.060655	-0.554932	-0.153076	-0.56543
412.0	4.649395	2.92426	8.800557	0.043592	0.001984	-0.049889	-0.552979	-0.150879	-0.567627
413.0	4.902542	2.94168	8.952406	0.053488	0.019535	-0.056566	-0.55249	-0.157471	-0.558594
414.0	4.873843	2.774026	8.891795	0.064755	0.047864	-0.062876	-0.550293	-0.159668	-0.569824
415.0	4.696159	2.829331	8.89501	0.07464	0.046721	-0.067086	-0.54834	-0.153076	-0.563232
416.0	4.762658	2.970208	8.849966	0.07529	0.043266	-0.069253	-0.554932	-0.155273	-0.562988
417.0	4.777753	2.986992	8.969899	0.07012	0.043068	-0.073591	-0.545898	-0.161865	-0.565186
418.0	4.987579	2.918376	9.036175	0.063271	0.047242	-0.079296	-0.55249	-0.161865	-0.55835
419.0	4.907252	2.974794	8.89814	0.062592	0.066888	-0.080563	-0.547852	-0.164063	-0.562988
420.0	4.798302	3.025417	8.915019	0.053519	0.089485	-0.068335	-0.550537	-0.155273	-0.562988
421.0	5.027442	3.233662	9.013953	0.044492	0.126634	-0.080905	-0.541504	-0.164063	-0.569824
422.0	4.914427	3.100372	8.921649	0.024821	0.18521	-0.062052	-0.547852	-0.164063	-0.569824
423.0	4.788547	3.220695	8.76811	0.002685	0.212662	-0.063467	-0.548096	-0.157471	-0.562988
424.0	4.501913	3.411784	8.786593	-0.03392	0.215068	-0.058607	-0.545898	-0.159668	-0.565186
425.0	4.58136	3.30047	8.813072	-0.082646	0.206926	-0.056997	-0.541504	-0.164063	-0.569824
426.0	4.639536	3.234425	8.79222	-0.131674	0.209395	-0.043036	-0.535156	-0.157471	-0.569824
427.0	4.463743	3.181938	8.834046	-0.164882	0.210196	-0.030034	-0.532959	-0.157471	-0.56543
428.0	4.512957	3.229842	8.809944	-0.198899	0.202089	-0.022351	-0.539551	-0.157471	-0.574463
429.0	4.449133	3.300368	8.828192	-0.24184	0.190617	-0.000818	-0.5354	-0.150879	-0.56543
430.0	4.356506	3.311453	8.780752	-0.292794	0.166111	0.024403	-0.533203	-0.153076	-0.574463
431.0	4.430119	3.225711	8.812302	-0.3469	0.138037	0.044099	-0.537598	-0.148682	-0.574707
432.0	4.560032	3.307311	8.903052	-0.392567	0.153679	0.072651	-0.529053	-0.148682	-0.574707
433.0	4.438993	3.270995	8.89087	-0.450246	0.165598	0.088089	-0.535889	-0.14209	-0.57251
434.0	4.509514	3.009387	8.859904	-0.495775	0.177495	0.107652	-0.5271	-0.144287	-0.57251
435.0	4.390565	2.897012	8.900503	-0.525565	0.177979	0.119766	-0.531738	-0.137695	-0.577148
436.0	4.397629	2.826114	8.946013	-0.544585	0.179249	0.127651	-0.529785	-0.131104	-0.581787
437.0	4.466836	2.713469	8.958952	-0.558769	0.186364	0.132649	-0.531738	-0.133301	-0.57959
438.0	4.43191	2.435435	9.062251	-0.564008	0.187754	0.132589	-0.523438	-0.124512	-0.57959
439.0	4.305959	2.12721	9.026854	-0.530229	0.171802	0.123389	-0.528076	-0.122314	-0.577393
440.0	4.294691	2.042039	9.069057	-0.482839	0.152532	0.109642	-0.523682	-0.122314	-0.579834
441.0	4.331811	2.096655	9.127476	-0.433163	0.131742	0.105097	-0.526367	-0.109375	-0.584473
442.0	4.43677	2.218873	9.127574	-0.411421	0.122177	0.086527	-0.52417	-0.111572	-0.58667
443.0	4.389228	2.250498	9.0736	-0.398064	0.10666	0.072169	-0.52002	-0.10498	-0.582275
444.0	4.324581	2.094867	9.117168	-0.385917	0.099317	0.05525	-0.52417	-0.109375	-0.589111
445.0	4.302804	1.991519	9.055529	-0.355607	0.082303	0.038404	-0.522217	-0.102783	-0.584717
446.0	4.266422	2.11618	9.146691	-0.326814	0.061259	0.026392	-0.524414	-0.102783	-0.58252
447.0	4.250103	2.05317	9.082569	-0.312339	0.048226	0.029418	-0.518066	-0.100586	-0.584717
448.0	4.156171	2.099536	9.153355	-0.288324	0.023986	0.02119	-0.522461	-0.100586	-0.586914
449.0	4.317985	1.99326	9.11159	-0.269898	-0.001011	0.006154	-0.518311	-0.096191	-0.587158
450.0	4.120051	1.828262	9.136902	-0.242799	-0.027717	-0.009552	-0.524902	-0.093994	-0.589355
451.0	4.292065	1.552548	9.231175	-0.182827	-0.053413	-0.037244	-0.520508	-0.093994	-0.587158
452.0	4.577279	1.400076	9.189635	-0.115305	-0.041775	-0.048175	-0.524902	-0.091797	-0.587158
453.0	4.284241	1.469397	9.156396	-0.038319	-0.035558	-0.041976	-0.522461	-0.098389	-0.58252
454.0	4.2849	1.766278	9.11712	0.021954	-0.04508	-0.052244	-0.522705	-0.096191	-0.580322
455.0	4.420221	1.988608	9.080799	0.054727	-0.040955	-0.052315	-0.522705	-0.093994	-0.589355
456.0	4.114291	2.108397	8.925286	0.057754	-0.058266	-0.033316	-0.5271	-0.093994	-0.584961
457.0	4.202171	2.17617	8.986703	0.060404	-0.066736	-0.009632	-0.529297	-0.093994	-0.58252
458.0	4.146711	2.170686	8.916148	0.066363	-0.080391	0.010312	-0.526855	-0.098389	-0.587158
459.0	4.126031	2.435954	8.948741	0.051591	-0.110587	0.028455	-0.524902	-0.096191	-0.58252
460.0	4.303697	2.496322	8.848832	0.00135	-0.131935	0.058683	-0.526855	-0.096191	-0.58252
461.0	4.223475	2.23727	8.921048	-0.021654	-0.138491	0.092658	-0.529297	-0.093994	-0.58252
462.0	4.468314	2.055561	9.025645	-0.016594	-0.134127	0.11725	-0.53125	-0.098389	-0.58252
463.0	4.522644	1.988874	9.209733	-0.00873	-0.123225	0.139168	-0.531494	-0.093994	-0.578125
464.0	4.602	2.077578	9.371184	0.009866	-0.116728	0.125808	-0.542236	-0.094238	-0.58252
465.0	4.827295	2.071136	9.508351	0.010605	-0.106966	0.07806	-0.535645	-0.096191	-0.584717
466.0	4.897808	1.821578	9.559626	0.020558	-0.096882	0.024783	-0.535889	-0.093994	-0.584717
467.0	4.769385	1.50637	9.611666	0.070528	-0.09958	-0.035067	-0.540283	-0.092041	-0.578125
468.0	4.847658	1.499644	9.495874	0.152381	-0.092681	-0.078536	-0.542236	-0.094238	-0.58252
469.0	4.646693	1.732673	9.278994	0.224987	-0.084228	-0.097437	-0.5354	-0.100586	-0.58252
470.0	4.55293	1.80247	9.286611	0.274416	-0.080754	-0.109581	-0.546387	-0.10083	-0.580078
471.0	4.403127	2.107933	9.159555	0.312057	-0.085642	-0.116992	-0.546387	-0.102783	-0.580078
472.0	4.514646	2.238361	9.110993	0.314297	-0.085993	-0.116889	-0.546143	-0.107178	-0.580078
473.0	4.538563	2.306176	8.974573	0.311712	-0.084621	-0.097419	-0.545898	-0.109375	-0.580078
474.0	4.3687	2.419313	8.91702	0.292724	-0.103443	-0.078569	-0.534912	-0.111572	-0.575439
475.0	4.349912	3.001605	8.695419	0.231153	-0.134513	-0.031111	-0.543945	-0.109375	-0.584473
476.0	4.175942	3.357835	8.790782	0.103337	-0.168187	0.035868	-0.543701	-0.11377	-0.575439
477.0	4.658429	3.01387	8.780495	-0.022826	-0.163958	0.100517	-0.545898	-0.109375	-0.580078
478.0	4.366852	2.816545	8.67262	-0.108203	-0.15378	0.179739	-0.550293	-0.109375	-0.577637
479.0	4.290055	3.302125	8.816605	-0.210009	-0.167518	0.249316	-0.552734	-0.107422	-0.577637
480.0	4.40493	3.757729	8.814073	-0.398734	-0.180661	0.344355	-0.557129	-0.105225	-0.575439
481.0	4.630929	3.524365	8.937649	-0.57826	-0.140472	0.42617	-0.548584	-0.098633	-0.577881
482.0	4.920576	2.816505	9.065021	-0.676511	-0.085795	0.45865	-0.559814	-0.092041	-0.578125
483.0	5.107774	2.364901	9.237954	-0.709068	-0.016099	0.465339	-0.553711	-0.083252	-0.578125
484.0	5.039746	1.657878	9.33742	-0.677902	0.042842	0.438046	-0.558594	-0.074707	-0.580566
485.0	4.987599	1.585716	9.23623	-0.619388	0.077411	0.40252	-0.554199	-0.070313	-0.589844
486.0	4.808781	1.578845	9.306862	-0.585023	0.083828	0.365745	-0.554688	-0.063721	-0.583252
487.0	4.844215	1.420808	9.282793	-0.537831	0.082683	0.325192	-0.561279	-0.061523	-0.583252
488.0	5.025587	1.130281	9.272934	-0.49755	0.076204	0.276663	-0.554688	-0.059326	-0.587891
489.0	4.915797	1.133818	9.352829	-0.438671	0.082062	0.235692	-0.550781	-0.050537	-0.583496
490.0	4.960795	1.28006	9.220515	-0.377599	0.071714	0.185846	-0.55957	-0.052734	-0.592529
491.0	4.979395	0.86544	9.292609	-0.338418	0.092352	0.165701	-0.55957	-0.052734	-0.583252
492.0	4.870725	1.345895	9.311777	-0.278387	0.089718	0.128871	-0.55542	-0.046143	-0.592529
493.0	4.835251	1.040568	9.32339	-0.226304	0.087268	0.120352	-0.555664	-0.041748	-0.590332
494.0	4.836694	1.314811	9.281641	-0.194487	0.055343	0.099038	-0.555664	-0.041748	-0.590332
495.0	4.836215	1.171834	9.274164	-0.170489	0.034528	0.09055	-0.553467	-0.039551	-0.590332
496.0	4.782563	1.214569	9.241706	-0.144601	0.025372	0.080753	-0.553467	-0.039551	-0.588135
497.0	4.815352	1.19464	9.238885	-0.127296	0.018201	0.071794	-0.555908	-0.0354	-0.588135
498.0	4.866705	1.119453	9.276445	-0.101059	0.006789	0.052238	-0.560059	-0.037598	-0.590576
499.0	4.744976	1.032492	9.337794	-0.06507	0.000305	0.034154	-0.547119	-0.037354	-0.592773
500.0	4.755227	0.86489	9.394119	-0.014671	-0.027021	0.008302	-0.555664	-0.037598	-0.58374
501.0	4.716327	0.765419	9.412984	0.041634	-0.060405	-0.025456	-0.555908	-0.0354	-0.588135
502.0	4.616484	0.872134	9.434652	0.089525	-0.120202	-0.063519	-0.555664	-0.037354	-0.588135
503.0	4.613301	1.577629	9.498677	0.078001	-0.198016	-0.078925	-0.562256	-0.037598	-0.588135
504.0	4.756068	1.424468	9.377144	0.050301	-0.262678	-0.091191	-0.555664	-0.039551	-0.592773
505.0	4.930888	0.90469	9.435474	0.0521	-0.321433	-0.125479	-0.557861	-0.039795	-0.583496
506.0	4.908618	1.382031	9.123998	0.051243	-0.386257	-0.156964	-0.564209	-0.041992	-0.583496
507.0	7.601505	0.622877	9.326905	-0.030247	-0.463521	-0.200257	-0.559814	-0.043945	-0.581299
508.0	0.214631	1.328638	10.322023	0.105404	-0.526375	-0.245909	-0.564209	-0.044189	-0.57666
509.0	6.220838	2.443951	9.630875	-0.047009	-0.650437	-0.260084	-0.566406	-0.041992	-0.574463
510.0	4.60434	1.836387	9.644646	-0.084462	-0.707283	-0.223568	-0.572754	-0.046387	-0.565186
511.0	4.587782	1.918404	9.762121	-0.203298	-0.80416	-0.238411	-0.581543	-0.046387	-0.565186
512.0	4.711244	1.697167	9.696451	-0.214034	-0.901407	-0.223301	-0.586182	-0.041992	-0.560791
513.0	4.9127	1.633753	9.700907	-0.257274	-1.015063	-0.196241	-0.585938	-0.044189	-0.553955
514.0	4.790462	1.051148	9.667541	-0.210011	-1.159413	-0.186165	-0.590088	-0.048584	-0.556152
515.0	4.822276	1.187704	9.645339	-0.161205	-1.317255	-0.181545	-0.594727	-0.046631	-0.54248
516.0	4.865046	1.069528	9.614179	-0.083174	-1.486293	-0.181324	-0.601074	-0.046631	-0.537842
517.0	4.83533	1.154119	9.644788	-0.001357	-1.668759	-0.17201	-0.612061	-0.046631	-0.52417
518.0	4.852267	1.470993	9.634131	0.067408	-1.864834	-0.146836	-0.618652	-0.044678	-0.510498
519.0	4.903883	1.772427	9.608428	0.095407	-2.071069	-0.109994	-0.625244	-0.046875	-0.501221
520.0	4.904859	1.579268	10.062029	0.134436	-2.308518	-0.095564	-0.629395	-0.046875	-0.48999
521.0	4.703557	1.971363	10.242743	0.096631	-2.630062	-0.127527	-0.640381	-0.044922	-0.469482
522.0	4.941834	2.557532	9.655362	0.062975	-2.944207	-0.122569	-0.651123	-0.049316	-0.455566
523.0	5.143855	1.669979	9.627821	0.17803	-3.216225	-0.001985	-0.657959	-0.045166	-0.4375
524.0	5.123832	2.439116	9.793898	0.259821	-3.573689	0.067141	-0.670898	-0.049561	-0.414551
525.0	4.928338	2.062127	9.702147	0.191766	-3.954187	0.11853	-0.681885	-0.047607	-0.391846
526.0	5.001857	1.703573	9.322671	0.257225	-4.384286	0.156985	-0.699219	-0.047607	-0.366699
527.0	4.892043	2.178199	9.293765	0.293005	-4.841135	0.150209	-0.705566	-0.050049	-0.339355
528.0	4.759366	2.042593	9.017285	0.225698	-5.31553	0.105631	-0.718994	-0.043457	-0.31665
529.0	4.799642	1.75077	8.624823	0.220274	-5.851628	0.059011	-0.721436	-0.039307	-0.273438
530.0	5.234122	1.401322	8.113164	0.347307	-6.393732	0.011244	-0.732178	-0.041748	-0.236816
531.0	5.653922	1.105365	7.919091	0.522461	-6.94434	-0.091287	-0.738525	-0.043945	-0.198242
532.0	6.682983	-0.337611	7.541672	0.672298	-7.558415	-0.247061	-0.74707	-0.048584	-0.147949
533.0	10.270798	-2.475623	4.992104	1.06034	-8.262317	-0.383133	-0.749512	-0.046387	-0.100098
534.0	18.786548	-6.303811	-9.311724	2.226092	-9.516136	-0.596463	-0.753418	-0.053223	-0.042969
535.0	33.77191	9.509749	13.632297	4.236467	-9.033959	-1.511856	-0.735596	-0.064209	0.005127
536.0	26.8683	12.208592	16.511522	1.428906	-5.989065	1.43548	-0.72168	-0.033447	0.03418
537.0	4.104571	5.164652	9.975967	0.672484	-5.704112	2.465297	-0.700439	-0.018311	0.063477
538.0	9.564525	6.364382	9.627142	1.933374	-6.148348	1.342584	-0.670654	-0.00293	0.088135
539.0	15.027078	6.913276	10.921956	2.174611	-5.62874	1.536186	-0.647461	0.016846	0.10376
540.0	17.163728	2.498583	11.615799	2.179482	-4.273488	1.833747	-0.615723	0.039063	0.105469
541.0	18.101979	3.959008	10.222233	2.595135	-2.425224	1.922554	-0.585938	0.054443	0.105225
542.0	17.369594	7.602995	13.597545	2.471147	-0.956426	2.083003	-0.54541	0.074463	0.077393
543.0	18.188964	4.773384	15.579256	2.333517	1.498599	2.133004	-0.507324	0.098633	0.049561
544.0	12.390533	4.56817	12.081745	2.204457	3.44053	2.307711	-0.466553	0.114258	0.019531
545.0	7.309277	6.694849	11.980101	2.251561	4.301491	2.27481	-0.413086	0.138672	-0.008301
546.0	4.965887	6.75141	13.731039	1.667132	5.139096	2.483947	-0.357178	0.154541	-0.033936
547.0	4.827588	3.707337	10.930754	1.411826	5.199197	2.365762	-0.299072	0.174561	-0.048096
548.0	1.287506	6.437462	7.410929	1.275998	5.065894	2.037757	-0.231934	0.183594	-0.052734
549.0	-1.590003	10.383413	6.864172	0.842844	4.892193	1.282038	-0.175781	0.199219	-0.039551
550.0	-1.084541	8.916299	6.815881	0.34891	4.72612	0.399255	-0.12207	0.214844	-0.008057
551.0	0.083124	5.813677	6.860161	0.014503	4.65092	-0.193703	-0.085938	0.239014	0.028076
552.0	1.829505	4.447843	6.871811	-0.027827	4.667594	-0.702573	-0.052246	0.260986	0.079834
553.0	2.455045	3.966768	7.318697	0.019712	4.936912	-1.245756	-0.048828	0.282471	0.134277
554.0	1.576827	3.090708	7.493969	0.132141	5.275628	-1.66752	-0.05835	0.304199	0.193115
555.0	0.088336	2.080706	7.157229	0.289038	5.404579	-1.846324	-0.083252	0.325684	0.240479
556.0	-0.377215	1.585028	6.976558	0.46615	5.290633	-1.835969	-0.12793	0.349365	0.287842
557.0	0.86504	1.290661	7.185124	0.596175	5.148701	-1.790047	-0.183105	0.362061	0.310547
558.0	3.084442	0.673886	7.736514	0.735205	5.107678	-1.749526	-0.253174	0.368164	0.326416
559.0	4.835978	0.856515	8.469461	0.876767	5.159808	-1.691927	-0.316895	0.378662	0.321777
560.0	5.937534	1.459544	9.135049	0.890798	5.242959	-1.645693	-0.384033	0.369385	0.310547
561.0	6.41704	1.169826	9.975223	0.818644	5.275754	-1.649857	-0.442383	0.358398	0.274414
562.0	6.724809	0.408554	10.687022	0.882393	5.215278	-1.691365	-0.498779	0.349365	0.233643
563.0	8.487094	1.220557	11.464823	1.031014	5.149305	-1.852016	-0.546387	0.338135	0.183838
564.0	9.877412	3.329341	12.353664	0.86909	5.145453	-1.988573	-0.577881	0.312012	0.134277
565.0	9.149777	3.722669	13.010866	0.475042	5.079349	-2.051825	-0.598389	0.285645	0.077881
566.0	9.034296	2.293168	13.879522	0.35563	4.867451	-2.242942	-0.616943	0.257324	0.021484
567.0	10.836358	1.620968	15.084791	0.585463	4.639446	-2.631069	-0.621826	0.222656	-0.034912
568.0	13.736338	2.903089	15.937943	0.813179	4.515057	-3.062389	-0.624756	0.187744	-0.088867
569.0	16.865655	4.459248	15.620332	0.697749	4.523034	-3.356561	-0.62085	0.148682	-0.126953
570.0	17.726752	4.197693	14.052685	0.403123	4.452146	-3.549165	-0.608154	0.109619	-0.171631
571.0	18.171804	3.550553	12.499874	0.335564	4.178762	-3.736517	-0.595459	0.072754	-0.214355
572.0	20.965512	4.472069	11.492212	0.41474	3.900028	-3.859182	-0.584961	0.033447	-0.240967
573.0	23.629642	4.704292	10.031934	0.245711	3.78477	-3.771419	-0.563965	-0.001221	-0.272217
574.0	23.014513	2.540364	7.536331	0.023471	3.683237	-3.543708	-0.549316	-0.035889	-0.301025
575.0	21.512617	2.653455	4.615967	-0.018734	3.370332	-3.303883	-0.532959	-0.057617	-0.31665
576.0	21.218588	3.746231	1.708575	-0.333522	2.897818	-2.946189	-0.508057	-0.079346	-0.339111
577.0	21.243489	2.32182	-1.135258	-0.666299	2.314799	-2.527402	-0.500732	-0.098877	-0.361328
578.0	21.674728	0.109265	-3.306711	-0.680663	1.673868	-2.211072	-0.482666	-0.111816	-0.372559
579.0	22.88239	-2.32378	-5.605568	-0.24985	1.042353	-1.960235	-0.475342	-0.126953	-0.381348
580.0	24.778997	-1.818548	-7.540642	0.20915	0.485312	-1.587706	-0.470459	-0.137939	-0.385742
581.0	24.572511	-0.984144	-8.276512	0.241051	-0.055302	-0.937247	-0.461426	-0.146484	-0.385498
582.0	23.251269	-1.263038	-7.644536	0.032702	-0.64652	-0.290043	-0.466064	-0.14209	-0.385742
583.0	22.033412	-0.678821	-5.625115	-0.179794	-1.217069	0.210507	-0.476807	-0.144531	-0.374268
584.0	21.381765	1.020647	-2.679028	-0.416891	-1.695455	0.527026	-0.487793	-0.140137	-0.367432
585.0	19.525283	4.354656	2.067476	-1.174812	-2.034883	0.878209	-0.497314	-0.127197	-0.365479
586.0	-8.166194	0.15844	21.207192	-2.001239	-3.095663	1.78573	-0.512695	-0.12085	-0.351807
587.0	-46.324621	9.350386	25.610949	-0.672874	-4.661291	2.128411	-0.528809	-0.105713	-0.331543
588.0	15.925605	9.088449	16.745748	-0.927867	-4.072817	-1.212168	-0.539307	-0.112305	-0.313232
589.0	48.744284	-10.404936	4.056366	-1.63054	-2.967306	1.070174	-0.550781	-0.097168	-0.302246
590.0	12.097119	-8.7495	2.62227	-0.439666	-2.840686	0.670496	-0.563965	-0.094971	-0.288574
591.0	8.675545	2.157835	15.820696	0.228153	-3.085228	0.098003	-0.572754	-0.097412	-0.270264
592.0	11.703849	-0.040743	17.49734	0.323049	-2.125691	0.110054	-0.581543	-0.095215	-0.265625
593.0	4.99445	4.470198	11.706486	0.632828	-1.573274	0.180735	-0.583496	-0.099609	-0.258789
594.0	5.465268	5.341552	8.65006	0.436338	-1.600454	-0.287721	-0.585449	-0.101807	-0.247314
595.0	12.490752	3.265785	9.538113	0.160929	-1.328606	-0.367052	-0.594238	-0.101807	-0.238281
596.0	9.660017	3.029516	9.058708	-0.059916	-0.784445	-0.13182	-0.596191	-0.106201	-0.238037
597.0	4.668694	3.592884	8.981761	-0.152865	-0.584286	-0.095499	-0.593994	-0.106201	-0.226807
598.0	5.570668	3.274319	9.711202	-0.230398	-0.550185	-0.192472	-0.596191	-0.106201	-0.233643
599.0	6.246769	1.145186	9.6913	-0.240896	-0.418523	-0.215306	-0.596191	-0.108398	-0.226563
600.0	5.09751	1.049185	9.449453	-0.054172	-0.306207	-0.178114	-0.598389	-0.106445	-0.224365
601.0	4.669884	3.11531	9.329369	0.013143	-0.225367	-0.12142	-0.60083	-0.104248	-0.222168
602.0	4.649172	3.621707	9.198794	-0.081361	-0.13263	-0.034119	-0.600586	-0.106445	-0.224365
603.0	4.701097	3.105693	8.921685	-0.172333	-0.037944	0.067932	-0.596436	-0.104248	-0.224365
604.0	5.340644	2.071874	9.006453	-0.180627	0.023034	0.129371	-0.598389	-0.106445	-0.222168
605.0	6.010451	1.029232	9.007539	-0.081074	0.06892	0.069129	-0.596191	-0.108398	-0.222168
606.0	5.391802	1.165141	9.165342	0.091683	0.097268	0.028075	-0.593994	-0.106201	-0.226807
607.0	4.6316	1.95435	9.225415	0.18089	0.06893	-0.002981	-0.60083	-0.104248	-0.229004
608.0	4.83454	1.677034	9.120689	0.232233	0.013318	-0.039884	-0.596191	-0.108398	-0.224365
609.0	5.168437	1.634597	9.096782	0.32613	-0.016376	-0.076946	-0.594238	-0.102051	-0.217773
610.0	4.371909	3.313618	8.979477	0.321698	-0.012798	-0.043804	-0.598389	-0.108398	-0.224365
611.0	4.754954	4.33454	8.675997	0.160093	-0.036307	-0.035604	-0.598145	-0.110596	-0.224365
612.0	4.805661	3.779996	8.943587	-0.005867	-0.02742	0.011707	-0.598145	-0.110596	-0.219727
613.0	4.365761	3.251487	8.966834	-0.088401	-0.023329	0.063227	-0.602783	-0.108643	-0.222168
614.0	4.805845	3.307838	8.960057	-0.160114	-0.026306	0.121984	-0.602783	-0.106445	-0.219971
615.0	5.119855	2.478285	9.149892	-0.17509	-0.02066	0.168869	-0.598633	-0.102051	-0.222168
616.0	4.860736	2.304809	9.200139	-0.097146	-0.005225	0.211597	-0.598633	-0.102051	-0.226807
617.0	4.683954	2.609484	9.150113	-0.072399	-0.036281	0.251618	-0.60083	-0.099854	-0.226807
618.0	4.835981	2.458885	9.116323	-0.067915	-0.07036	0.276421	-0.60083	-0.104248	-0.224365
619.0	4.998234	2.382222	8.957188	-0.057541	-0.102429	0.294763	-0.605469	-0.097656	-0.217773
620.0	5.034012	2.43505	8.876905	-0.068097	-0.155668	0.293652	-0.598877	-0.097656	-0.222412
621.0	4.736592	2.678588	8.896494	-0.110339	-0.222951	0.310302	-0.605713	-0.088867	-0.227051
622.0	5.080265	2.783968	8.804568	-0.162516	-0.269504	0.321952	-0.603271	-0.095459	-0.217773
623.0	5.122302	2.816966	8.847062	-0.22829	-0.286438	0.326555	-0.605713	-0.088867	-0.215576
624.0	5.04466	2.934744	8.746712	-0.303685	-0.283522	0.35198	-0.607666	-0.093262	-0.220215
625.0	5.14888	2.749689	8.720457	-0.396295	-0.274805	0.370256	-0.608154	-0.08252	-0.213379
626.0	5.223393	1.813655	8.730964	-0.378776	-0.272053	0.389965	-0.610596	-0.080322	-0.211182
627.0	5.628186	4.880926	8.842593	-0.428021	-0.258784	0.480958	-0.61499	-0.078125	-0.208984
628.0	5.606788	1.440234	8.732491	-0.625662	-0.189355	0.512656	-0.608643	-0.07373	-0.211426
629.0	5.359379	2.647896	8.689542	-0.502198	-0.182622	0.519563	-0.611328	-0.060547	-0.209473
630.0	5.608953	3.188102	8.746781	-0.55986	-0.15674	0.610369	-0.615723	-0.060547	-0.209473
631.0	5.322687	1.288297	8.812119	-0.458385	-0.166937	0.681166	-0.61377	-0.05835	-0.216309
632.0	5.018202	1.241162	9.059036	-0.254432	-0.254532	0.665212	-0.618408	-0.052002	-0.205078
633.0	5.103837	0.856382	9.278014	-0.125226	-0.354184	0.623125	-0.614258	-0.043213	-0.209717
634.0	4.753867	0.471262	9.641504	0.010293	-0.487139	0.533622	-0.616455	-0.04541	-0.198242
635.0	4.719211	0.229014	9.840088	0.098657	-0.659528	0.408917	-0.616699	-0.041016	-0.202881
636.0	4.805151	-0.326925	9.972217	0.175903	-0.858291	0.257548	-0.623047	-0.043213	-0.200684
637.0	4.596011	-0.326692	10.053793	0.260069	-1.099128	0.081178	-0.618652	-0.043213	-0.189209
638.0	4.735474	-0.350094	10.191209	0.292238	-1.364937	-0.10941	-0.625244	-0.04541	-0.182373
639.0	4.642005	-0.097732	10.236171	0.3311	-1.667243	-0.286	-0.629395	-0.045654	-0.170898
640.0	4.791459	0.463078	10.335218	0.384017	-2.011335	-0.413853	-0.631348	-0.052246	-0.154785
641.0	4.682411	0.967225	10.347907	0.445991	-2.368696	-0.48313	-0.631592	-0.050049	-0.136719
642.0	4.54353	1.631908	10.410924	0.494454	-2.749677	-0.483514	-0.641846	-0.063232	-0.118164
643.0	4.622279	1.643546	10.371247	0.605995	-3.147073	-0.440442	-0.64209	-0.058838	-0.095459
644.0	4.561546	1.889698	10.142642	0.762232	-3.56339	-0.394025	-0.645752	-0.069824	-0.074707
645.0	4.456926	1.972271	10.419542	0.923669	-4.06741	-0.335551	-0.647949	-0.070068	-0.040527
646.0	3.833654	1.376569	11.621699	1.061631	-4.708802	-0.33264	-0.649902	-0.074463	-0.012939
647.0	3.36314	3.160975	10.83299	1.052653	-5.498152	-0.404394	-0.647705	-0.07666	0.028076
648.0	3.402295	2.914989	10.642623	1.238814	-6.189915	-0.305238	-0.645264	-0.081055	0.064453
649.0	3.208564	1.037223	10.660927	1.803623	-7.071591	-0.176715	-0.640625	-0.085693	0.112549
650.0	3.415997	2.471441	11.185054	2.209931	-8.104544	-0.185725	-0.634277	-0.081299	0.167236
651.0	2.842236	1.061848	11.001841	2.486767	-9.143746	-0.341316	-0.612549	-0.079102	0.228516
652.0	5.051136	0.920013	10.601859	3.035631	-10.352031	-0.581566	-0.593018	-0.081299	0.29248
653.0	13.693747	0.135242	-0.168891	3.825663	-11.687459	-0.785684	-0.554443	-0.066162	0.367188
654.0	24.220169	9.410102	4.389209	6.225556	-12.746076	-1.539002	-0.502441	-0.054932	0.433105
655.0	42.485157	22.741142	21.004678	4.440555	-8.920158	0.156946	-0.470459	-0.039551	0.467041
656.0	22.065509	11.574038	12.971128	-0.005056	-6.226796	3.572129	-0.446777	-0.030762	0.496338
657.0	10.107697	1.20627	10.497044	0.332654	-5.862878	3.743558	-0.425781	-0.013184	0.511963
658.0	18.263769	3.750847	12.969794	2.556879	-4.582416	2.711596	-0.405029	0.008545	0.529785
659.0	18.811945	6.522258	15.157851	3.800196	-2.342529	2.2479	-0.395264	0.034912	0.522461
660.0	14.672054	13.432132	17.215424	4.099615	-0.148243	2.00803	-0.393799	0.05249	0.519775
661.0	14.149536	12.063067	13.645394	3.585453	2.374033	1.932301	-0.412598	0.078613	0.507813
662.0	12.608304	13.153022	13.179713	2.708024	3.996735	2.114572	-0.43042	0.087158	0.47583
663.0	8.069753	10.982909	14.904385	1.103839	5.592863	2.568953	-0.452881	0.104492	0.452637
664.0	7.555365	5.488653	12.757183	0.32553	5.949681	2.337325	-0.472656	0.106689	0.413818
665.0	4.856783	3.97965	6.966286	0.312703	6.304447	2.273803	-0.490234	0.111084	0.377441
666.0	0.168752	5.836112	5.464576	0.608028	6.509812	1.857956	-0.507813	0.111084	0.345459
667.0	-5.18531	7.926828	4.488618	0.477632	5.828269	1.288471	-0.514404	0.115479	0.309082
668.0	-3.949869	7.225888	4.343128	0.297351	5.129878	0.826506	-0.529541	0.108887	0.286377
669.0	0.385174	5.961901	5.087341	-0.220867	4.927062	0.646388	-0.525391	0.113281	0.258789
670.0	1.417918	4.809287	5.35326	-0.553482	4.94706	0.187835	-0.533691	0.104736	0.236328
671.0	1.270965	4.429559	6.134548	-0.608937	5.136441	-0.401517	-0.533203	0.09375	0.209229
672.0	0.507903	3.66579	6.179899	-0.548891	5.361499	-0.947274	-0.539307	0.087158	0.184082
673.0	-0.32196	2.656542	6.012676	-0.355325	5.400327	-1.396147	-0.542969	0.067627	0.157227
674.0	-0.173823	2.076527	6.09918	-0.138074	5.347325	-1.666205	-0.540283	0.059082	0.145996
675.0	0.715858	1.597795	6.574695	0.074496	5.281649	-1.864478	-0.544434	0.054688	0.121094
676.0	1.728276	1.42131	7.476273	0.245796	5.231443	-2.035411	-0.550781	0.045898	0.109863
677.0	2.778583	1.06114	8.716977	0.358755	5.222015	-2.140467	-0.561279	0.037109	0.084961
678.0	3.948673	0.420982	10.012995	0.491843	5.273904	-2.193257	-0.560547	0.021973	0.060059
679.0	5.186441	0.178524	11.569611	0.68623	5.368454	-2.237883	-0.573975	0.028564	0.032715
680.0	6.679628	0.355004	13.070186	0.850124	5.497352	-2.243513	-0.579834	0.015381	0.007813
681.0	8.462732	0.908368	14.219221	0.94058	5.649272	-2.25158	-0.590576	0.013184	-0.030762
682.0	10.318905	1.649006	14.983729	0.90386	5.796285	-2.206045	-0.59668	0.000244	-0.083008
683.0	11.413739	2.61236	15.667503	0.77874	5.876757	-2.099571	-0.580811	-0.014648	-0.155518
684.0	11.887871	3.881824	16.466388	0.579498	5.840701	-1.999291	-0.536377	-0.029541	-0.209961
685.0	13.303226	5.010115	17.583993	0.402529	5.689085	-2.043007	-0.44873	-0.037598	-0.257813
686.0	17.207349	5.348589	18.310333	0.294698	5.531274	-2.361906	-0.337891	-0.030518	-0.242188
687.0	20.616488	6.002073	17.437023	0.136129	5.378955	-2.777723	-0.259033	0.011475	-0.181641
688.0	21.497265	6.784257	14.951352	-0.136968	5.01939	-3.054175	-0.230713	0.057129	-0.098145
689.0	22.894194	6.21409	11.561524	-0.299349	4.408006	-3.22043	-0.252197	0.100586	-0.035156
690.0	25.368361	2.358776	8.089529	-0.101689	3.692171	-3.353408	-0.29248	0.12207	0.005371
691.0	28.574233	0.930394	4.866154	0.679477	3.102744	-3.512621	-0.347656	0.13916	0.018799
692.0	31.438168	5.227201	1.38809	0.776897	2.826695	-3.472354	-0.384521	0.134521	0.016602
693.0	28.91794	4.942104	-3.052762	-0.010846	2.516922	-3.006671	-0.412842	0.134277	0.003174
694.0	27.152527	-0.216802	-7.46162	-0.553217	1.824683	-2.666566	-0.440918	0.125488	-0.005859
695.0	30.712894	-5.491078	-11.490911	-0.393057	1.09201	-2.582641	-0.456299	0.129883	-0.019531
696.0	32.715256	-6.375799	-15.602603	-0.211575	0.39916	-2.381973	-0.475586	0.123047	-0.008057
697.0	29.301595	-3.079697	-16.074465	-0.735632	-0.524863	-1.483262	-0.478271	0.131836	-0.003662
698.0	26.579246	-4.147432	-13.178548	-1.395486	-1.541061	-0.373769	-0.48291	0.140381	0.016602
699.0	26.605889	-4.626961	-7.677931	-1.581773	-2.320436	0.369782	-0.48584	0.157715	0.036865
700.0	25.858145	-4.080552	-1.202903	-1.374499	-2.64353	1.088801	-0.478027	0.175293	0.068359
701.0	12.694296	-3.661862	20.233529	-1.096264	-2.679397	1.835782	-0.472412	0.197021	0.09082
702.0	-43.232358	12.876167	40.206891	0.058205	-3.172587	3.660153	-0.458252	0.221191	0.119873
703.0	-43.793137	14.943727	20.886668	0.330828	-3.51844	0.437187	-0.471924	0.234131	0.140137
704.0	58.381928	-0.265028	-2.819542	-0.008347	-3.61864	-1.038122	-0.463379	0.240479	0.169678
705.0	36.438814	-11.534385	-9.013053	0.706054	-3.832793	-0.558403	-0.455078	0.251465	0.196777
706.0	9.550604	12.230115	17.160418	0.698563	-4.393179	-1.156318	-0.452881	0.249268	0.219727
707.0	14.211967	4.07869	25.537532	-0.274688	-2.809214	-0.106771	-0.446777	0.260254	0.237549
708.0	8.830674	-1.624646	11.351518	-0.098621	-1.090105	0.242171	-0.44043	0.262451	0.242188
709.0	5.95931	-0.685659	6.706478	0.608088	-1.279032	0.079313	-0.436035	0.262451	0.246826
710.0	13.28731	10.293658	9.768036	0.407339	-1.086484	-0.100533	-0.431641	0.264648	0.258057
711.0	7.743459	5.251946	9.309903	-0.532322	-0.540055	0.113327	-0.431885	0.266846	0.258057
712.0	5.012551	0.194746	9.721643	-0.39135	-0.443336	0.041268	-0.431641	0.262451	0.264893
713.0	6.392951	0.209756	9.666742	-0.081836	-0.334087	-0.044301	-0.425293	0.266846	0.26709
714.0	5.473969	1.912311	9.083967	0.107823	-0.241254	-0.096332	-0.42749	0.266846	0.269531
715.0	5.503928	3.742199	9.102799	0.096388	-0.195201	-0.125673	-0.423096	0.266846	0.273926
716.0	5.214842	3.737852	8.999579	-0.036871	-0.06137	-0.041155	-0.432129	0.270996	0.271729
717.0	4.164741	2.631681	9.209065	-0.044108	-0.006301	0.040246	-0.425537	0.270996	0.26709
718.0	5.060825	3.013274	9.026004	-0.002839	0.070892	0.087487	-0.431885	0.268799	0.269287
719.0	5.114698	2.875765	8.54903	-0.047781	0.130878	0.154801	-0.42334	0.27124	0.26709
720.0	5.039479	2.576239	9.088263	-0.062217	0.128741	0.158583	-0.425293	0.266846	0.269531
721.0	5.415118	1.924772	9.147354	0.022337	0.185381	0.128414	-0.42334	0.27124	0.264648
722.0	4.784641	2.006858	9.06631	0.128435	0.199307	0.122172	-0.427734	0.270996	0.264893
723.0	4.702682	2.479572	9.08619	0.188649	0.163256	0.10767	-0.430176	0.275391	0.262451
724.0	4.942537	2.485782	9.02045	0.222324	0.148612	0.092567	-0.421387	0.277588	0.26001
725.0	4.617806	2.646721	8.951489	0.225075	0.118205	0.087636	-0.427979	0.277588	0.262451
726.0	4.926234	2.380753	8.995718	0.237378	0.079016	0.05776	-0.427979	0.277588	0.269287
727.0	4.815527	2.535879	8.812766	0.266287	0.076506	0.053247	-0.419189	0.275635	0.26001
728.0	4.638249	3.223536	8.636787	0.237987	0.045842	0.05447	-0.421631	0.281982	0.264648
729.0	4.843096	3.467828	8.546808	0.148128	0.035428	0.087913	-0.423828	0.279785	0.257813
730.0	4.629423	3.223751	8.681456	0.068665	0.028361	0.13313	-0.423828	0.279785	0.262207
731.0	4.606947	3.66689	8.608245	-0.003849	0.037052	0.201666	-0.421631	0.281982	0.26001
732.0	4.567378	3.942107	8.494273	-0.137653	0.039022	0.266186	-0.421631	0.281982	0.264648
733.0	4.81434	3.640692	8.638944	-0.268246	0.043804	0.328203	-0.419678	0.288574	0.266602
734.0	5.008184	3.341678	8.795541	-0.338932	0.080165	0.383341	-0.421631	0.28418	0.266846
735.0	4.769314	3.234309	8.703644	-0.387239	0.101418	0.429262	-0.422119	0.292969	0.264404
736.0	4.712726	3.070465	8.75603	-0.477964	0.082272	0.470851	-0.419922	0.290771	0.266602
737.0	4.789801	2.709355	8.858223	-0.53392	0.05784	0.479512	-0.422119	0.292969	0.266602
738.0	4.854023	2.154449	8.978854	-0.522748	0.009175	0.459726	-0.417725	0.292969	0.266602
739.0	4.825175	1.792478	9.061495	-0.491243	-0.053964	0.406618	-0.422363	0.297363	0.270996
740.0	4.982186	1.59344	9.087475	-0.416516	-0.101516	0.34669	-0.422119	0.295166	0.264404
741.0	5.006952	1.527349	9.035967	-0.345884	-0.136548	0.288817	-0.418213	0.303955	0.275391
742.0	4.929058	1.920804	8.966945	-0.296072	-0.176579	0.232561	-0.417969	0.295166	0.278076
743.0	4.819652	2.000563	9.113601	-0.296174	-0.223306	0.188973	-0.411377	0.297363	0.273438
744.0	4.706881	1.867552	9.423839	-0.29368	-0.287471	0.152374	-0.417969	0.299561	0.275635
745.0	4.683785	1.535048	9.606597	-0.232843	-0.376957	0.101084	-0.414063	0.306152	0.275391
746.0	4.754994	1.884046	9.727616	-0.177303	-0.485003	0.089228	-0.409424	0.299561	0.284668
747.0	4.67712	1.58922	9.763654	-0.105862	-0.60427	0.084181	-0.411621	0.301758	0.280029
748.0	4.624715	1.925797	9.823337	0.047448	-0.738307	0.100407	-0.409424	0.301758	0.289307
749.0	4.846635	1.693334	10.143753	-0.046021	-0.910773	0.086156	-0.405273	0.30835	0.286865
750.0	4.786883	-0.062032	10.083015	0.148732	-1.17153	-0.028101	-0.405029	0.301758	0.293701
751.0	4.809345	0.937496	10.343963	0.318697	-1.452115	-0.097794	-0.402832	0.301758	0.300537
752.0	4.291533	0.425171	10.474346	0.567884	-1.789496	-0.133407	-0.391846	0.299561	0.300537
753.0	4.417595	1.282248	10.510614	0.88149	-2.201197	-0.161849	-0.398682	0.306152	0.312012
754.0	3.937388	3.467684	10.609674	0.961339	-2.665278	-0.112786	-0.387695	0.301758	0.314209
755.0	4.159025	3.891194	10.697652	0.82653	-3.13705	-0.024769	-0.378906	0.303955	0.323242
756.0	4.45273	3.519624	11.083527	0.667466	-3.615369	0.027276	-0.365723	0.301758	0.336914
757.0	3.705435	2.448216	12.632415	0.720651	-4.235481	0.101613	-0.359619	0.30835	0.350586
758.0	2.935565	3.994664	12.162953	0.712903	-5.028707	0.154074	-0.341797	0.304199	0.366699
759.0	3.041384	3.767559	11.835376	0.910078	-5.845231	0.352832	-0.327148	0.312988	0.382324
760.0	2.310221	2.974147	12.755568	1.28057	-6.81509	0.595611	-0.303223	0.31958	0.398193
761.0	0.836167	3.376543	13.006844	1.593567	-7.992928	0.768183	-0.268799	0.328369	0.418457
762.0	0.295319	2.819088	12.370922	1.861642	-9.339435	0.752006	-0.232422	0.341797	0.447754
763.0	2.158158	1.44291	11.680221	2.093594	-10.778723	0.597307	-0.189209	0.350586	0.463379
764.0	6.327455	-0.590324	8.847163	2.733491	-12.15053	0.275146	-0.124512	0.366455	0.481445
765.0	16.780916	-5.351977	-4.38834	5.342262	-14.317902	-0.552431	-0.069092	0.397217	0.485107
766.0	47.800662	15.96207	17.650942	7.080992	-12.110502	-1.222268	-0.039551	0.419189	0.477783
767.0	36.818639	27.167527	23.50085	1.708737	-7.623337	2.92864	-0.015137	0.412842	0.503174
768.0	11.748689	4.425021	15.1394	-1.065776	-6.008988	4.444293	-0.008301	0.40625	0.514648
769.0	13.440609	-0.094408	14.153364	1.26791	-5.021594	2.893894	-0.000244	0.417236	0.528076
770.0	18.966868	6.653312	17.203306	2.955561	-2.832473	1.900707	-0.026367	0.416992	0.539551
771.0	17.658432	11.777099	22.54701	3.011689	-0.075664	1.665899	-0.068115	0.425537	0.541748
772.0	10.28483	11.243006	17.477558	1.947293	2.320644	2.175803	-0.109131	0.414307	0.555664
773.0	5.582535	11.657982	15.622539	0.704326	3.47136	2.834171	-0.166016	0.42041	0.548584
774.0	8.171266	6.948161	15.699511	0.118109	5.068151	3.089434	-0.229004	0.411377	0.539795
775.0	8.557411	1.113171	12.430375	0.307098	6.275952	2.896725	-0.300781	0.410889	0.505615
776.0	3.935342	2.884429	8.247367	0.843639	6.897196	3.022099	-0.361328	0.399902	0.448975
777.0	-2.59855	7.73872	6.968772	0.680802	6.846568	2.93488	-0.398438	0.399658	0.387451
778.0	-3.877998	8.844556	5.848398	0.178196	6.431416	2.37007	-0.413086	0.384521	0.323975
779.0	-2.409151	7.808918	5.434684	-0.337982	6.202145	1.834369	-0.404053	0.375977	0.264893
780.0	-0.886839	4.894101	4.835692	-0.679281	6.114065	1.38422	-0.379639	0.367676	0.219482
781.0	0.015656	2.666309	4.496714	-0.465064	6.022425	0.719961	-0.343994	0.352539	0.199219
782.0	-0.721375	3.763024	4.876618	-0.129973	5.985206	0.118779	-0.306885	0.348389	0.206055
783.0	-1.927116	4.228344	5.084654	-0.010522	5.841161	-0.468759	-0.287109	0.346191	0.233398
784.0	-1.880897	2.701618	5.757783	0.150075	5.571891	-1.00063	-0.289551	0.350586	0.279053
785.0	-0.511234	1.423671	6.74474	0.509325	5.269999	-1.471356	-0.328857	0.354492	0.324463
786.0	1.954585	1.665038	7.955927	0.930476	5.151269	-1.968901	-0.398682	0.351807	0.347412
787.0	4.360696	2.239392	9.458165	1.205111	5.237766	-2.368831	-0.489502	0.338135	0.3479
788.0	5.673782	2.522962	11.178066	1.321414	5.436695	-2.591292	-0.584229	0.309326	0.321289
789.0	6.642829	2.151725	12.753242	1.434531	5.661251	-2.706417	-0.665527	0.273926	0.262695
790.0	8.122417	1.959208	14.221208	1.651853	5.853354	-2.799313	-0.734863	0.212646	0.193359
791.0	10.212972	2.874914	15.578916	1.793267	6.019709	-2.820028	-0.782715	0.160156	0.112305
792.0	12.880215	4.510625	16.553503	1.756759	6.183689	-2.747269	-0.814941	0.103271	0.033691
793.0	16.238593	6.542092	16.811296	1.476938	6.348102	-2.630587	-0.825439	0.04248	-0.049316
794.0	18.352853	7.428629	16.518341	0.94284	6.416811	-2.570757	-0.824951	-0.01416	-0.116455
795.0	18.15913	6.468672	15.81864	0.522237	6.162918	-2.628493	-0.807861	-0.057617	-0.197754
796.0	20.680486	6.368546	15.444106	0.412717	5.686886	-2.958401	-0.772705	-0.109619	-0.256104
797.0	25.794442	6.856025	14.040426	0.330215	5.345302	-3.38428	-0.734131	-0.144043	-0.307861
798.0	28.027132	7.624316	11.097427	0.081822	5.111548	-3.603301	-0.688965	-0.178711	-0.341309
799.0	25.942141	6.236415	7.038131	-0.198958	4.697393	-3.630673	-0.651123	-0.195801	-0.366211
800.0	22.794739	-3.763688	3.173223	0.071616	3.758473	-3.756831	-0.612793	-0.223877	-0.381592
801.0	22.93193	-2.707331	0.73495	1.100093	2.733532	-4.090133	-0.579346	-0.239014	-0.388184
802.0	24.468955	2.746995	-1.317954	0.924575	1.863523	-4.140838	-0.554688	-0.256348	-0.378906
803.0	25.902829	0.88451	-3.664002	0.058096	1.133046	-3.480951	-0.537109	-0.260498	-0.390137
804.0	31.819374	-4.764407	-6.887122	-0.077263	0.707558	-2.899174	-0.525879	-0.264893	-0.385498
805.0	35.615107	-8.24244	-12.022341	0.307909	0.621853	-2.208378	-0.510254	-0.273438	-0.394531
806.0	28.682762	-6.866922	-15.098115	0.634883	0.085973	-1.022813	-0.514648	-0.273438	-0.380859
807.0	23.793408	-4.168138	-12.758918	0.69196	-0.984573	0.128761	-0.514648	-0.273438	-0.364746
808.0	26.550692	-1.488641	-7.406014	0.317452	-1.719206	0.957136	-0.521484	-0.269287	-0.362549
809.0	25.77148	2.144491	-1.352827	-0.390312	-1.959505	1.393708	-0.543701	-0.256348	-0.349121
810.0	19.3209	7.582324	7.371136	-1.859408	-2.044501	1.575125	-0.55542	-0.23877	-0.342773
811.0	-26.76177	3.705349	35.792937	-2.551245	-4.335377	3.452852	-0.585205	-0.206299	-0.322754
812.0	-56.441509	12.3903	25.36271	-1.631457	-4.316498	2.043536	-0.594238	-0.202148	-0.302246
813.0	55.091831	-2.974713	7.209241	-1.262687	-3.447235	-2.112507	-0.601074	-0.195557	-0.28418
814.0	45.625152	-18.734623	-6.825589	-1.00805	-3.580713	1.119973	-0.612061	-0.193604	-0.263672
815.0	8.426022	-2.479477	14.388912	0.640438	-3.990337	-0.326475	-0.622803	-0.197998	-0.238525
816.0	7.671879	0.074886	21.924732	0.467885	-2.982424	-0.078167	-0.631592	-0.196045	-0.224854
817.0	1.16974	-2.245868	11.221987	1.306814	-2.380628	0.268708	-0.638184	-0.193848	-0.204346
818.0	10.711929	9.259741	10.800334	1.820262	-2.292372	-0.211104	-0.637695	-0.204834	-0.188232
819.0	19.549207	12.586696	8.978116	0.396486	-1.481491	-0.326943	-0.635498	-0.202637	-0.186035
820.0	8.205465	4.897066	8.216634	-0.493424	-0.946449	-0.021289	-0.64209	-0.200684	-0.177002
821.0	5.015281	1.815886	9.73035	-0.491702	-0.758749	-0.015014	-0.644531	-0.196289	-0.177002
822.0	7.113967	0.385907	9.906357	-0.298569	-0.481451	0.033888	-0.648926	-0.198486	-0.172363
823.0	5.69674	3.293365	9.278962	-0.231971	-0.335717	-0.026972	-0.648926	-0.194092	-0.181641
824.0	5.73205	4.5808	8.962341	-0.42011	-0.246204	0.026704	-0.646729	-0.194092	-0.167969
825.0	4.975559	4.679482	8.768756	-0.657721	-0.094212	0.239965	-0.647217	-0.1875	-0.172607
826.0	3.954914	4.927776	8.820775	-0.935481	-0.002908	0.476592	-0.651611	-0.1875	-0.172607
827.0	5.103703	3.923048	8.866913	-1.107314	0.098476	0.587644	-0.649658	-0.180908	-0.177246
828.0	5.598092	1.365909	8.867008	-1.113318	0.185527	0.597197	-0.651855	-0.180908	-0.184082
829.0	5.921187	-0.144923	9.050702	-0.893188	0.208786	0.52718	-0.6521	-0.172363	-0.179688
830.0	5.530615	2.13031	9.161063	-0.750969	0.24406	0.49423	-0.654541	-0.165771	-0.182129
831.0	5.006915	2.223453	9.191437	-0.784326	0.289152	0.502928	-0.652588	-0.161377	-0.186768
832.0	5.447642	1.433398	9.214617	-0.746584	0.328695	0.482642	-0.657227	-0.15918	-0.189209
833.0	5.154779	2.600932	9.129615	-0.740366	0.353387	0.441908	-0.65332	-0.148193	-0.198486
834.0	4.901183	2.111424	9.013728	-0.8054	0.327613	0.367512	-0.657715	-0.145996	-0.203125
835.0	5.146071	1.751628	9.101381	-0.798222	0.378056	0.309783	-0.655518	-0.143799	-0.203125
836.0	4.413487	1.750983	9.098927	-0.790885	0.386464	0.301709	-0.653564	-0.141602	-0.209961
837.0	4.998299	1.111211	9.169162	-0.735088	0.35339	0.258157	-0.658203	-0.137207	-0.212402
838.0	5.203934	1.420372	9.114102	-0.705355	0.348599	0.247186	-0.6604	-0.133057	-0.210205
839.0	5.162734	0.233321	9.111319	-0.679775	0.354443	0.243993	-0.65625	-0.128662	-0.214844
840.0	4.656592	-0.256839	9.378862	-0.517826	0.320808	0.21627	-0.658691	-0.126465	-0.219482
841.0	4.456783	0.329401	9.361095	-0.381563	0.273468	0.201704	-0.654541	-0.119873	-0.217285
842.0	5.159922	0.981119	9.142027	-0.326701	0.253747	0.198358	-0.656494	-0.126465	-0.219482
843.0	5.165678	1.30366	9.063975	-0.338447	0.273908	0.208065	-0.654297	-0.126221	-0.223877
844.0	4.941937	1.044081	9.170948	-0.356166	0.281598	0.223649	-0.656738	-0.117676	-0.226318
845.0	4.881281	1.142102	9.291181	-0.358069	0.274699	0.23579	-0.657227	-0.111084	-0.22876
846.0	4.873929	1.04443	9.298032	-0.384904	0.267793	0.246716	-0.66333	-0.117676	-0.22876
847.0	4.778433	0.391519	9.390916	-0.373412	0.25414	0.231215	-0.655029	-0.111084	-0.22876
848.0	4.507907	-0.001531	9.566322	-0.308818	0.190673	0.1791	-0.652832	-0.108887	-0.233398
849.0	4.41082	-0.018803	9.609466	-0.223368	0.113457	0.109647	-0.655273	-0.102295	-0.233643
850.0	4.370363	0.38477	9.694721	-0.159965	0.047277	0.056891	-0.657227	-0.106689	-0.231201
851.0	4.457378	0.417607	9.695645	-0.137937	-0.023268	0.012213	-0.657471	-0.102295	-0.233643
852.0	4.484951	0.586367	9.849922	-0.125791	-0.099304	-0.023721	-0.657227	-0.108887	-0.233398
853.0	4.22106	0.567888	10.146723	-0.119066	-0.214562	-0.04888	-0.657227	-0.106689	-0.233398
854.0	4.343875	1.121988	10.504431	-0.028546	-0.42445	-0.016236	-0.652832	-0.111084	-0.224365
855.0	3.711128	0.33663	10.688489	-0.080208	-0.652237	0.009103	-0.652832	-0.108887	-0.226563
856.0	4.212571	0.127916	10.817932	0.045408	-0.948579	-0.024592	-0.661621	-0.106689	-0.215332
857.0	3.766227	-0.370394	10.925975	0.151383	-1.261676	-0.037024	-0.663818	-0.108887	-0.206055
858.0	3.569683	-0.6834	11.111516	0.315296	-1.643194	-0.109729	-0.668213	-0.106934	-0.190186
859.0	3.684564	0.317785	11.413868	0.350455	-2.043433	-0.222716	-0.674805	-0.104736	-0.181152
860.0	3.45415	0.390055	11.627664	0.261488	-2.465573	-0.31274	-0.676514	-0.11792	-0.155762
861.0	3.070106	0.725177	11.786398	0.253516	-2.979488	-0.361627	-0.681152	-0.109375	-0.137695
862.0	3.113864	0.918982	11.739665	0.307136	-3.581164	-0.361716	-0.680908	-0.115967	-0.116943
863.0	3.217382	1.708014	11.735027	0.416567	-4.222109	-0.308958	-0.6875	-0.111572	-0.085205
864.0	3.197067	2.142884	11.665685	0.550156	-4.891003	-0.179204	-0.698486	-0.114014	-0.044189
865.0	2.705902	2.156687	12.25327	0.786525	-5.600844	0.029267	-0.694336	-0.107422	0.001221
866.0	2.1551	2.916074	13.486845	0.968763	-6.465263	0.182573	-0.69873	-0.107666	0.044678
867.0	0.695621	4.789771	12.886003	0.856717	-7.550321	0.373717	-0.690186	-0.101074	0.096924
868.0	-0.42354	1.626088	12.602711	1.061	-8.888451	0.733803	-0.682129	-0.085938	0.167236
869.0	-0.947461	1.974762	11.810405	1.466962	-10.396391	0.84686	-0.665283	-0.070801	0.237549
870.0	0.194897	3.180862	3.169392	1.545051	-12.302062	0.89078	-0.632813	-0.068604	0.326416
871.0	9.487446	-2.875368	-7.525181	1.955505	-15.319553	0.616715	-0.572754	-0.042236	0.414795
872.0	49.268038	-5.400609	16.975948	5.778199	-14.401639	-1.883749	-0.514648	-0.029053	0.496338
873.0	44.86776	28.417895	25.141228	5.74351	-9.364996	0.703835	-0.477051	0.010498	0.529785
874.0	13.008608	10.695511	22.574982	-0.98545	-7.017614	4.620119	-0.438477	0.028076	0.561279
875.0	7.563506	-7.838811	14.361277	0.482743	-6.841204	3.686973	-0.398193	0.054443	0.590332
876.0	15.42628	-2.608867	11.806481	3.674699	-5.524334	1.433359	-0.373291	0.083008	0.598877
877.0	20.103037	12.427745	17.684761	4.900295	-3.154735	0.86739	-0.357666	0.122314	0.60498
878.0	20.809853	17.323305	22.473166	3.914836	0.436324	0.860553	-0.365479	0.148438	0.59082
879.0	15.560402	14.696279	19.118353	1.529973	3.396461	1.276508	-0.379395	0.170166	0.57666
880.0	2.663132	9.574846	15.355413	-0.531953	4.618559	2.0775	-0.401611	0.174561	0.55835
881.0	3.371128	3.26832	11.527339	-0.745486	5.149091	2.670577	-0.421875	0.191895	0.539795
882.0	7.613343	-1.710413	7.291673	0.078116	6.027701	2.658967	-0.442383	0.209229	0.514404
883.0	0.436823	2.90439	5.573281	0.949399	6.567649	2.613003	-0.469482	0.230957	0.484375
884.0	-5.086784	6.17825	6.317272	1.150061	6.204084	2.111211	-0.487793	0.252686	0.452148
885.0	-3.512416	8.461629	6.231982	1.016129	5.585555	1.393071	-0.508301	0.268066	0.422119
886.0	-0.823167	7.961566	5.194802	0.37353	5.275173	0.862198	-0.52832	0.281006	0.401367
887.0	0.017383	5.434829	4.602642	-0.216774	5.214483	0.500053	-0.539795	0.291992	0.380615
888.0	0.126748	3.083445	4.553286	-0.088889	5.150215	-0.307486	-0.568359	0.293945	0.35791
889.0	0.741699	2.978204	5.554284	0.373483	5.080077	-1.313339	-0.590332	0.29834	0.328369
890.0	0.138594	3.94797	6.349051	0.571469	5.019958	-2.075025	-0.614014	0.291504	0.307861
891.0	-0.560506	3.646449	6.841021	0.569388	4.910026	-2.687379	-0.637695	0.287109	0.273926
892.0	0.935984	2.56181	7.604705	0.600268	4.783096	-3.196968	-0.665771	0.27832	0.246582
893.0	3.347117	0.991163	8.811202	0.718787	4.769395	-3.510115	-0.689209	0.265137	0.215088
894.0	4.693044	0.227315	10.271793	0.871189	4.863585	-3.69421	-0.716553	0.243408	0.174561
895.0	5.715043	0.113435	11.786272	0.943259	4.999713	-3.789342	-0.729004	0.228027	0.135986
896.0	7.84005	-0.322016	13.247567	0.957535	5.143148	-3.728608	-0.749756	0.208252	0.102295
897.0	10.682376	-1.238181	14.258356	0.951292	5.32816	-3.577659	-0.764648	0.19751	0.059326
898.0	13.065809	-1.788724	14.795977	0.935175	5.531012	-3.346448	-0.779053	0.177734	0.009521
899.0	14.459322	-1.083609	15.19911	0.819843	5.726952	-3.0148	-0.793945	0.169189	-0.040527
900.0	15.319466	-0.058216	15.447459	0.560889	5.871026	-2.576042	-0.804199	0.154053	-0.094727
901.0	16.405512	0.853443	15.62586	0.287789	5.951375	-2.102252	-0.810059	0.138672	-0.153809
902.0	17.341019	0.617679	15.418015	0.081574	5.92098	-1.795338	-0.807373	0.125732	-0.215088
903.0	18.296034	1.627043	15.252901	0.040809	5.716476	-1.734245	-0.797852	0.108643	-0.276367
904.0	21.141538	3.783276	14.951299	-0.138141	5.504877	-1.855147	-0.777344	0.087158	-0.335205
905.0	24.357358	4.507869	13.176084	-0.490883	5.415297	-2.004307	-0.754639	0.072021	-0.394043
906.0	24.774454	4.155347	9.64883	-0.628763	5.270377	-1.96355	-0.723145	0.050537	-0.452881
907.0	23.493533	4.081189	5.732257	-0.405417	4.851725	-1.849239	-0.689697	0.029053	-0.491455
908.0	22.325277	0.26111	1.611896	0.008213	4.087643	-1.73286	-0.666992	0.011719	-0.518311
909.0	21.734928	-3.171107	-1.869767	1.087265	3.05641	-1.869546	-0.637207	-0.018555	-0.542969
910.0	23.030912	2.272373	-4.042118	1.267002	2.053226	-2.17579	-0.616699	-0.042236	-0.551514
911.0	24.92361	3.612473	-5.863751	0.216648	1.137814	-1.9816	-0.609375	-0.057617	-0.562744
912.0	29.220128	-1.584533	-8.79876	-0.719535	0.450783	-1.749748	-0.595703	-0.070557	-0.560059
913.0	33.405853	-6.920573	-11.982105	-0.893969	0.152446	-1.77497	-0.589111	-0.074951	-0.564697
914.0	28.563118	-7.415094	-13.755753	-0.635054	-0.259557	-1.450011	-0.59082	-0.083496	-0.562256
915.0	22.67268	-5.09119	-12.066207	-0.28998	-1.215152	-0.924938	-0.599365	-0.088135	-0.557617
916.0	24.112345	-3.090766	-8.040106	-0.170286	-2.118129	-0.18325	-0.612061	-0.094727	-0.539063
917.0	25.077843	-1.762303	-1.536117	-0.186919	-2.571546	0.924945	-0.628174	-0.077393	-0.532715
918.0	-12.598557	0.992821	23.496929	-0.914635	-4.004366	1.784833	-0.656738	-0.073242	-0.498535
919.0	-46.027696	16.276179	27.94933	0.042779	-5.657757	2.902213	-0.681396	-0.058105	-0.478271
920.0	41.1533	2.829932	18.930012	0.049179	-3.679847	-1.041564	-0.696533	-0.05835	-0.448486
921.0	42.825158	-6.144224	-1.190636	-1.093912	-2.655312	1.590338	-0.710205	-0.04541	-0.428223
922.0	2.769128	-1.383436	1.108592	0.227154	-3.74001	-0.412638	-0.725342	-0.050049	-0.398682
923.0	24.976216	5.356046	26.879059	0.59057	-3.485052	-0.189681	-0.734131	-0.047852	-0.387207
924.0	18.226865	0.620427	15.78519	-0.326904	-0.606095	0.610545	-0.740723	-0.045654	-0.38501
925.0	-8.305917	-0.492203	5.55701	-0.221497	-0.854157	0.630652	-0.743164	-0.041504	-0.369141
926.0	6.215087	6.079945	9.711964	0.545024	-1.496097	-0.010753	-0.751709	-0.045898	-0.362061
927.0	15.968043	8.121485	9.578863	-0.663618	-0.69734	0.1623	-0.749756	-0.037109	-0.351074
928.0	5.456087	3.364224	8.166839	-1.139184	-0.227456	0.256073	-0.74585	-0.02832	-0.35791
929.0	6.373298	2.106805	9.244192	-1.095801	-0.125869	0.204158	-0.748047	-0.026123	-0.35791
930.0	6.995602	-1.77117	9.761206	-0.823939	0.169171	0.248144	-0.748291	-0.023926	-0.360352
931.0	3.963962	0.350344	9.416563	-0.447894	0.124985	0.10798	-0.750732	-0.019531	-0.367188
932.0	6.010807	1.651894	9.403198	-0.345855	0.09932	0.072046	-0.75293	-0.017578	-0.367188
933.0	5.136605	2.101801	9.31164	-0.329405	0.174332	0.100264	-0.746582	-0.015381	-0.360596
934.0	4.665393	1.587364	9.21946	-0.3032	0.186115	0.118332	-0.739746	-0.017334	-0.36499
935.0	4.995007	0.892056	9.489498	-0.234695	0.192786	0.09633	-0.744629	-0.008789	-0.367432
936.0	4.6154	-0.137631	9.345025	-0.081412	0.14778	0.053913	-0.746582	-0.010986	-0.365234
937.0	5.411782	0.305887	9.337956	0.128326	0.085	-0.035943	-0.748779	-0.012939	-0.374268
938.0	4.743237	1.407084	9.389723	0.206744	0.055956	-0.073715	-0.744385	-0.015137	-0.369629
939.0	4.695501	0.999876	9.375568	0.258616	-0.002613	-0.091065	-0.748535	-0.019531	-0.367188
940.0	4.839714	1.470811	9.344746	0.349503	-0.042395	-0.109968	-0.748291	-0.023926	-0.367188
941.0	4.885132	2.609576	9.061601	0.351077	-0.054404	-0.089051	-0.746338	-0.017334	-0.371826
942.0	5.231837	2.716361	9.03657	0.27381	-0.035022	-0.0598	-0.752686	-0.021729	-0.362549
943.0	4.840383	2.010095	9.215409	0.234549	-0.03133	-0.044636	-0.746094	-0.021729	-0.362549
944.0	4.678555	2.122522	9.163874	0.255987	-0.047227	-0.018533	-0.74585	-0.02832	-0.364746
945.0	4.942261	2.467347	9.073578	0.237494	-0.035572	0.011303	-0.748291	-0.023926	-0.367188
946.0	4.990726	2.234486	8.966634	0.197104	-0.029588	0.044005	-0.747803	-0.034912	-0.35791
947.0	4.926104	2.485414	9.013546	0.166684	-0.018245	0.072404	-0.748535	-0.019531	-0.362793
948.0	4.765497	2.512482	8.959105	0.109605	-0.002024	0.121703	-0.748047	-0.026123	-0.355713
949.0	4.988734	2.03087	8.964986	0.078497	0.002643	0.160565	-0.750732	-0.017578	-0.362793
950.0	5.116059	1.970075	8.843744	0.070941	0.007649	0.171814	-0.748535	-0.019531	-0.369629
951.0	5.042632	2.13988	8.817102	0.019618	0.01057	0.172609	-0.750732	-0.019531	-0.36499
952.0	5.075575	2.132988	8.789518	-0.021679	0.032312	0.187956	-0.748535	-0.017334	-0.362793
953.0	5.072038	2.258299	8.779206	-0.076528	0.061155	0.202169	-0.750732	-0.015381	-0.362793
954.0	5.200546	2.311769	8.724562	-0.149897	0.090618	0.215618	-0.746338	-0.019531	-0.360352
955.0	5.158693	2.319546	8.717729	-0.228618	0.131388	0.235585	-0.746826	-0.008789	-0.367432
956.0	5.05265	2.012304	8.894513	-0.283478	0.156781	0.238334	-0.746582	-0.010986	-0.369629
957.0	4.788407	2.063271	9.096945	-0.315581	0.161402	0.237852	-0.744629	-0.006592	-0.37207
958.0	4.81089	1.890661	9.218881	-0.344326	0.141628	0.244931	-0.749023	-0.004395	-0.367676
959.0	4.80798	1.670853	9.263976	-0.339986	0.11188	0.249108	-0.749512	0.002197	-0.374512
960.0	4.908687	1.799322	9.277424	-0.326613	0.073666	0.264026	-0.745117	0.004395	-0.365479
961.0	5.043984	1.620602	9.404193	-0.338119	0.036813	0.255111	-0.745361	0.008789	-0.370117
962.0	4.66023	0.758471	9.69382	-0.314599	-0.030032	0.197843	-0.749512	0.004395	-0.374512
963.0	4.339887	0.790012	9.96162	-0.235526	-0.172309	0.104363	-0.745361	0.008789	-0.372314
964.0	4.393469	0.709358	10.164748	-0.163904	-0.358162	0.031234	-0.75	0.013184	-0.370117
965.0	4.244117	0.62222	10.236629	-0.070432	-0.587153	-0.0249	-0.75	0.013184	-0.361084
966.0	4.323846	0.375897	10.40151	0.03291	-0.82212	-0.08514	-0.753906	0.004395	-0.351807
967.0	4.17946	-0.11525	10.612897	0.17886	-1.110518	-0.17553	-0.758545	0.010742	-0.342773
968.0	3.99907	-0.189609	10.871333	0.359931	-1.465626	-0.277098	-0.764404	-0.002441	-0.331055
969.0	3.967108	-0.002094	10.97929	0.539587	-1.882231	-0.366726	-0.775146	-0.006836	-0.31958
970.0	3.817522	0.322607	11.192115	0.727787	-2.341833	-0.42885	-0.785889	-0.01123	-0.299072
971.0	3.477261	0.101898	11.201696	0.906762	-2.843643	-0.474168	-0.790039	-0.013672	-0.269287
972.0	3.32036	1.310412	11.096555	1.1207	-3.399549	-0.460489	-0.800537	-0.026855	-0.241699
973.0	3.277947	2.887162	11.609404	1.178947	-3.982524	-0.374619	-0.809326	-0.024658	-0.209717
974.0	2.825533	3.587164	12.558966	1.058882	-4.704716	-0.315531	-0.81543	-0.035889	-0.168701
975.0	3.145032	5.20315	10.967879	0.829716	-5.392704	-0.214387	-0.828369	-0.036133	-0.118408
976.0	2.969223	3.762159	11.698745	0.958683	-6.03556	0.091452	-0.836914	-0.03833	-0.070557
977.0	1.425975	3.014891	12.058705	1.412462	-6.979787	0.43503	-0.839355	-0.036377	-0.004395
978.0	0.966516	3.805701	11.944165	1.696246	-8.233026	0.637714	-0.841553	-0.034424	0.063965
979.0	0.863396	2.995163	12.058815	1.950266	-9.516722	0.749011	-0.826904	-0.021484	0.150146
980.0	1.364385	3.264327	11.438407	2.082777	-10.765823	0.736352	-0.813965	-0.017334	0.243652
981.0	5.840931	1.87063	8.214555	2.389283	-12.039027	0.588441	-0.781738	-0.006348	0.348145
982.0	16.701983	-1.784992	-5.254144	4.384434	-14.001687	-0.151345	-0.723145	0.004639	0.448242
983.0	41.948782	9.438356	11.861068	6.860294	-12.575103	-1.630223	-0.674072	0.024414	0.522949
984.0	37.520231	26.758166	23.253736	3.500654	-8.435343	1.663186	-0.638184	0.052979	0.570068
985.0	15.537428	8.454103	15.997637	-0.840121	-6.615966	4.382436	-0.597412	0.070557	0.606201
986.0	9.737432	3.341409	15.415528	-0.056066	-6.398867	4.325748	-0.557373	0.099121	0.637451
987.0	18.77748	3.524496	16.207852	1.754962	-4.714816	3.001959	-0.525391	0.116699	0.659912
988.0	19.194191	8.332678	18.729119	3.181593	-2.042097	1.584889	-0.513672	0.147217	0.66626
989.0	17.066715	13.403535	19.441998	3.815869	1.043035	0.446359	-0.530029	0.171143	0.645264
990.0	11.078776	15.450218	15.073889	2.408037	3.027858	0.279316	-0.551758	0.171143	0.62915
991.0	4.452675	15.208151	15.933439	0.232703	4.21835	0.89695	-0.576172	0.179688	0.606445
992.0	4.559697	4.980065	14.967681	-0.921779	5.157456	1.228338	-0.604492	0.175293	0.574463
993.0	8.210639	-0.918367	10.519136	-0.310199	5.989588	1.034904	-0.63501	0.179688	0.528809
994.0	3.166918	2.168996	8.012261	0.413111	6.892955	1.156118	-0.663574	0.183838	0.485596
995.0	-2.829015	3.955598	7.940707	0.662378	6.911431	0.675434	-0.692383	0.194824	0.439697
996.0	-3.792019	5.076923	7.28987	0.718509	6.378756	0.075605	-0.726807	0.183838	0.396729
997.0	-1.176561	6.353555	6.565677	0.186218	6.294696	-0.22237	-0.741943	0.179443	0.34668
998.0	0.215116	5.516459	6.733861	-0.662305	6.430021	-0.174753	-0.765625	0.170654	0.305908
999.0	1.361177	2.619882	6.76944	-1.0864	6.503803	-0.451879	-0.782715	0.161865	0.251465
1000.0	1.571298	0.386506	6.474297	-0.909242	6.639906	-0.855571	-0.799316	0.144531	0.203857
1001.0	-1.146293	1.030154	6.112729	-0.604153	6.561378	-1.089719	-0.807373	0.131348	0.149414
1002.0	-2.294546	1.374447	6.308562	-0.366161	6.179732	-1.370975	-0.817383	0.109619	0.106689
1003.0	-0.126845	0.714498	7.155738	-0.108065	5.811223	-1.575541	-0.818848	0.090088	0.059082
1004.0	2.638467	0.41948	8.343252	0.199319	5.650162	-1.71687	-0.817871	0.068359	0.013916
1005.0	4.398334	0.440925	9.923657	0.499566	5.679237	-1.81577	-0.823242	0.046631	-0.028809
1006.0	5.242682	0.611298	11.672698	0.728239	5.780091	-1.886902	-0.809082	0.020752	-0.076172
1007.0	6.286191	0.600367	13.36423	0.916468	5.869334	-1.946786	-0.803955	0.001221	-0.112305
1008.0	8.076554	1.003388	14.83828	1.048495	5.926661	-1.993415	-0.791748	-0.0271	-0.157471
1009.0	10.089105	1.980336	16.227495	1.045765	5.93437	-1.907919	-0.77124	-0.044189	-0.202637
1010.0	12.730425	3.952081	17.645746	0.949371	5.93025	-1.710823	-0.76123	-0.07251	-0.231689
1011.0	16.489043	5.726601	18.409808	0.693008	6.001183	-1.541618	-0.736816	-0.083008	-0.274902
1012.0	19.497473	7.268628	18.133328	0.34651	6.077039	-1.478299	-0.716553	-0.098145	-0.306396
1013.0	21.020541	8.086756	16.622922	-0.112863	5.959	-1.522585	-0.69873	-0.108887	-0.354248
1014.0	22.243949	8.154002	14.024284	-0.512305	5.552057	-1.620833	-0.673828	-0.125977	-0.383545
1015.0	24.278612	7.530415	10.528872	-0.763737	4.926516	-1.735667	-0.653809	-0.136719	-0.415283
1016.0	25.031263	-0.72303	7.016814	-0.642952	4.075481	-1.983361	-0.635742	-0.149658	-0.433105
1017.0	26.753143	-3.716936	3.410302	0.62688	3.14844	-2.78133	-0.619629	-0.171387	-0.44873
1018.0	31.081207	3.124793	1.081157	1.166286	2.510563	-3.542946	-0.598877	-0.19751	-0.459717
1019.0	35.282338	6.947349	-1.987854	0.434884	2.351918	-3.622963	-0.573975	-0.216797	-0.470703
1020.0	34.580895	4.815276	-6.441876	-1.070598	2.364053	-3.189405	-0.556152	-0.225342	-0.484131
1021.0	29.353578	-4.077341	-11.80516	-1.734222	1.968304	-2.849129	-0.546875	-0.236328	-0.504639
1022.0	29.372963	-10.700144	-18.18637	-0.937889	0.995903	-2.893541	-0.5354	-0.24707	-0.501953
1023.0	30.437392	-7.620617	-20.023114	-0.17283	-0.245562	-2.350463	-0.537109	-0.258057	-0.499512
1024.0	27.217045	-4.435058	-15.854775	-0.061153	-1.452205	-1.162476	-0.539063	-0.262451	-0.490479
1025.0	28.765799	-2.88117	-9.053939	-0.259493	-2.245697	-0.284393	-0.554443	-0.260254	-0.479004
1026.0	29.970546	-1.012363	-0.761497	-0.64114	-2.44388	0.900208	-0.570068	-0.253906	-0.469971
1027.0	-17.095235	-0.759694	26.859874	-1.424398	-4.185533	2.564082	-0.60376	-0.230225	-0.436279
1028.0	-57.567173	18.677089	30.778927	-0.029448	-5.543986	3.532283	-0.630615	-0.217285	-0.402344
1029.0	59.385119	-1.441906	16.926779	-1.017682	-3.101769	-0.250965	-0.64624	-0.20874	-0.397949
1030.0	45.083318	-20.573841	-8.189761	-1.15234	-2.636402	2.614282	-0.659912	-0.193604	-0.375244
1031.0	1.886957	4.153355	10.048628	0.91326	-3.843712	0.50082	-0.679443	-0.196045	-0.350098
1032.0	24.024636	11.757871	30.083805	0.978209	-2.412796	0.099949	-0.681885	-0.193848	-0.343506
1033.0	6.583075	8.417171	6.986913	-0.786203	-0.640381	0.690177	-0.688477	-0.189453	-0.338867
1034.0	-0.521138	-3.660189	7.520913	-0.228419	-1.464623	-0.153685	-0.692871	-0.191895	-0.322998
1035.0	17.041014	2.127953	11.011879	0.069794	-0.997118	-0.200096	-0.697021	-0.194092	-0.318359
1036.0	6.817644	1.561375	9.606715	-0.160014	-0.285178	0.179203	-0.697021	-0.194092	-0.313721
1037.0	5.206819	4.957007	9.242705	-0.183376	-0.349211	-0.001574	-0.699463	-0.1875	-0.316162
1038.0	7.708751	1.056246	9.825535	-0.381962	-0.282191	-0.140248	-0.699463	-0.1875	-0.313965
1039.0	5.161552	-2.404148	9.509857	-0.027586	-0.121247	-0.214894	-0.699219	-0.191895	-0.313721
1040.0	4.131868	1.604367	9.31822	0.389047	-0.105608	-0.263091	-0.696777	-0.198486	-0.320557
1041.0	5.248318	5.45044	9.055248	0.207625	-0.048901	-0.178308	-0.698975	-0.198486	-0.306885
1042.0	4.738065	3.194989	9.020931	-0.059623	0.02055	-0.057893	-0.699219	-0.196289	-0.311523
1043.0	4.251144	1.267162	9.401377	-0.012343	0.062929	0.009095	-0.698975	-0.198486	-0.309082
1044.0	4.644797	1.43592	8.94899	0.097906	0.051769	0.015885	-0.696777	-0.198486	-0.311279
1045.0	5.682982	1.697065	8.994187	0.135146	0.057206	-0.001656	-0.703613	-0.191895	-0.313721
1046.0	4.808961	1.653262	9.308971	0.187832	0.074015	-0.014298	-0.694824	-0.196289	-0.309082
1047.0	4.368628	2.018986	9.199017	0.224329	0.052391	-0.017696	-0.698975	-0.198486	-0.315918
1048.0	5.150918	2.054974	9.086721	0.242802	0.035932	-0.025728	-0.694336	-0.204834	-0.304443
1049.0	4.741358	2.779228	9.130669	0.23616	0.049676	0.002777	-0.69873	-0.205078	-0.311279
1050.0	4.36841	3.245662	8.987671	0.134464	0.044142	0.035954	-0.700928	-0.205078	-0.306641
1051.0	4.898219	3.000269	8.896438	0.017355	0.047244	0.065276	-0.69873	-0.202881	-0.311279
1052.0	4.651342	3.094664	8.905449	-0.077404	0.07348	0.096632	-0.697021	-0.196289	-0.309082
1053.0	4.644833	3.273051	8.749672	-0.20521	0.099822	0.140556	-0.692627	-0.196289	-0.311523
1054.0	5.140473	3.092386	8.73012	-0.321155	0.151708	0.169885	-0.697021	-0.194092	-0.313721
1055.0	4.980078	2.995038	8.813252	-0.409047	0.238047	0.217683	-0.695068	-0.191895	-0.318359
1056.0	4.789002	3.080592	8.839752	-0.497296	0.299583	0.272914	-0.697266	-0.189697	-0.320557
1057.0	4.786945	2.794357	8.85752	-0.582929	0.344401	0.330713	-0.69751	-0.180908	-0.323242
1058.0	4.888725	2.393715	8.908589	-0.632389	0.369598	0.366732	-0.693359	-0.178711	-0.327637
1059.0	5.001593	2.075094	8.938083	-0.654619	0.395312	0.385059	-0.69165	-0.167725	-0.337158
1060.0	5.016656	1.607776	9.08552	-0.648578	0.399202	0.381616	-0.693848	-0.165527	-0.337158
1061.0	4.906717	1.403478	9.209369	-0.614585	0.391436	0.378619	-0.694092	-0.161133	-0.334961
1062.0	4.763249	1.200128	9.356208	-0.588113	0.370947	0.357999	-0.692139	-0.156738	-0.343994
1063.0	4.619181	0.862107	9.509632	-0.516388	0.330579	0.331627	-0.687988	-0.152344	-0.346436
1064.0	4.429271	1.005409	9.608147	-0.462758	0.264344	0.282708	-0.692383	-0.150146	-0.348877
1065.0	4.326432	1.18181	9.60263	-0.411965	0.186375	0.230722	-0.69043	-0.145996	-0.351074
1066.0	4.494915	0.663805	9.599877	-0.352877	0.102822	0.181161	-0.694824	-0.143799	-0.348877
1067.0	4.465261	0.861774	9.681826	-0.290207	0.024396	0.114773	-0.688232	-0.145752	-0.348877
1068.0	4.366936	0.578518	9.808233	-0.228226	-0.067322	0.05463	-0.690674	-0.141602	-0.355713
1069.0	4.21398	0.683427	10.124454	-0.158235	-0.194151	-0.012399	-0.690674	-0.141602	-0.348877
1070.0	3.892746	1.024854	10.449897	-0.12313	-0.368435	-0.064238	-0.695068	-0.139404	-0.349121
1071.0	4.114836	1.181369	10.611812	-0.102449	-0.590565	-0.091131	-0.695068	-0.139404	-0.339844
1072.0	3.971268	1.78995	10.723797	-0.103097	-0.846311	-0.077383	-0.699219	-0.145996	-0.339844
1073.0	4.206147	1.807002	10.975566	-0.211022	-1.108438	-0.043554	-0.708252	-0.137207	-0.330811
1074.0	3.766081	0.617649	11.088127	-0.242741	-1.416123	-0.085385	-0.708252	-0.139648	-0.317139
1075.0	3.820961	1.819757	11.420208	-0.261011	-1.806294	-0.115525	-0.712646	-0.139648	-0.298828
1076.0	3.73692	1.518177	11.628886	-0.37879	-2.240268	-0.057082	-0.721191	-0.141846	-0.294189
1077.0	3.17224	0.892269	11.624924	-0.274669	-2.730195	-0.031479	-0.734375	-0.139893	-0.266846
1078.0	3.138943	1.37356	11.519367	-0.121525	-3.283777	0.008718	-0.747559	-0.135498	-0.244141
1079.0	3.243303	1.140867	11.541239	0.109853	-3.885355	0.075038	-0.75415	-0.137939	-0.212158
1080.0	3.024559	1.614657	12.110886	0.331004	-4.560068	0.192103	-0.767578	-0.129395	-0.173584
1081.0	2.178365	1.399813	13.554365	0.497508	-5.388359	0.277879	-0.776123	-0.131592	-0.132568
1082.0	1.929188	3.886351	11.861252	0.459598	-6.256421	0.297484	-0.787109	-0.129639	-0.071045
1083.0	1.956654	2.173501	12.33378	0.77049	-7.177614	0.646134	-0.793945	-0.121094	-0.016602
1084.0	0.330927	0.374385	13.047015	1.392033	-8.392512	1.051035	-0.796387	-0.119141	0.051758
1085.0	-1.926214	3.887075	12.855053	1.453207	-9.907501	1.220922	-0.78833	-0.104004	0.140381
1086.0	-1.84203	3.49951	6.956654	1.37068	-11.640532	1.219873	-0.775391	-0.095459	0.242676
1087.0	3.199193	-0.20367	-5.591028	1.869702	-14.180305	1.321594	-0.737061	-0.075928	0.358643
1088.0	27.948556	0.331084	6.51362	3.022682	-15.981682	0.442654	-0.676514	-0.064941	0.463135
1089.0	51.328748	11.12336	14.97624	6.430538	-12.173498	-1.288215	-0.629639	-0.038574	0.537842
1090.0	30.730146	20.825542	24.146786	2.403828	-8.52812	2.039876	-0.589111	-0.016602	0.585205
1091.0	12.593451	-0.120401	21.636335	-0.269361	-7.135568	4.09546	-0.553223	0.009766	0.623291
1092.0	14.62249	-0.774104	16.342266	1.959569	-6.003294	3.358354	-0.522217	0.046875	0.6521
1093.0	18.248742	10.172819	17.134678	3.567238	-3.588325	1.381466	-0.503906	0.073242	0.665283
1094.0	19.226494	17.807155	20.577484	3.817155	-0.28379	0.093884	-0.513428	0.090576	0.651367
1095.0	13.806519	15.521117	19.633901	2.170819	2.450253	-0.029185	-0.524902	0.105957	0.63501
1096.0	2.980808	11.292236	16.039322	-0.311391	3.213961	0.970142	-0.557373	0.101318	0.625977
1097.0	1.613945	6.908071	13.221313	-1.23045	3.318079	1.467348	-0.57959	0.107666	0.605469
1098.0	6.028685	1.5774	10.830122	-0.942262	4.349989	1.499089	-0.605957	0.112061	0.578125
1099.0	3.434703	1.49654	8.639784	-0.176983	5.492963	1.094534	-0.63623	0.109619	0.541748
1100.0	-1.941528	3.281046	8.551828	0.463909	5.714039	0.578346	-0.669434	0.118408	0.50293
1101.0	-4.300569	5.320526	8.606481	0.720287	5.418303	0.269519	-0.691406	0.122559	0.46167
1102.0	-1.705163	6.118215	7.494855	0.504519	5.3027	0.063214	-0.719727	0.122559	0.429932
1103.0	0.307254	5.426501	7.10941	0.065714	5.462457	-0.046003	-0.739502	0.124756	0.38208
1104.0	1.245828	4.105215	7.289556	-0.18212	5.640168	-0.39922	-0.767578	0.115967	0.338867
1105.0	2.906172	3.157614	7.391195	-0.163514	5.885426	-0.819343	-0.784424	0.10498	0.293457
1106.0	3.148935	3.547805	7.491137	-0.099179	6.125609	-1.111724	-0.803955	0.100586	0.248047
1107.0	2.330505	3.302369	7.422031	-0.022926	6.262055	-1.399812	-0.816162	0.081055	0.189209
1108.0	2.543857	2.509944	7.429229	0.140293	6.305661	-1.727526	-0.828613	0.068115	0.141602
1109.0	3.224184	2.036984	7.981503	0.368487	6.274604	-1.89846	-0.834473	0.050781	0.091797
1110.0	3.780439	1.102997	8.775641	0.70869	6.167703	-2.008658	-0.835449	0.026855	0.030762
1111.0	4.958913	0.975374	10.010788	1.097675	6.034108	-2.190255	-0.837158	0.011719	-0.01001
1112.0	7.002228	1.048954	11.846966	1.404421	5.929153	-2.389377	-0.831543	-0.014404	-0.064209
1113.0	9.520951	0.846889	13.477699	1.638903	5.886286	-2.549292	-0.828125	-0.040527	-0.109131
1114.0	12.572847	0.916933	15.029523	1.801858	5.921944	-2.722414	-0.816162	-0.066406	-0.156494
1115.0	15.553848	1.806252	16.061853	1.8381	6.036491	-2.874179	-0.803955	-0.09668	-0.20166
1116.0	17.691706	3.160088	16.348832	1.612732	6.144791	-2.964662	-0.785156	-0.125	-0.246582
1117.0	18.343118	4.559303	16.332976	1.176548	6.111031	-2.925163	-0.757813	-0.150879	-0.293945
1118.0	19.36516	5.007304	15.94761	0.661807	5.924453	-2.898547	-0.734619	-0.181152	-0.332275
1119.0	21.067193	5.038233	14.604955	0.20727	5.660179	-2.963336	-0.714111	-0.200439	-0.368408
1120.0	22.744558	5.673081	12.672967	-0.171043	5.304474	-2.998044	-0.678467	-0.219971	-0.408936
1121.0	25.226662	5.309825	10.089715	-0.40721	4.941742	-3.018369	-0.660156	-0.239258	-0.44043
1122.0	26.472166	4.240087	6.432514	-0.44929	4.57733	-3.014698	-0.626465	-0.260742	-0.467529
1123.0	24.34964	-3.391175	2.21718	-0.092996	3.79278	-3.064433	-0.605957	-0.282471	-0.48999
1124.0	24.562331	-0.204625	-0.714058	0.63052	2.87874	-3.256766	-0.585205	-0.304199	-0.500977
1125.0	26.738359	4.148984	-3.274148	0.013477	2.127067	-3.165154	-0.558594	-0.312744	-0.516602
1126.0	25.435545	1.241263	-5.851117	-1.18859	1.42652	-2.678372	-0.544678	-0.332275	-0.523193
1127.0	27.963361	-4.760091	-8.800805	-1.425927	0.647966	-2.611723	-0.544678	-0.33667	-0.525391
1128.0	33.167658	-5.968069	-12.106087	-1.098577	0.235691	-2.522488	-0.533691	-0.336426	-0.534424
1129.0	28.438177	-6.892578	-13.94471	-0.691153	-0.272283	-1.729229	-0.533203	-0.345215	-0.529785
1130.0	23.154404	-6.062857	-12.077111	-0.094391	-1.228866	-1.042909	-0.541748	-0.349609	-0.518311
1131.0	24.404161	-1.545707	-7.788673	0.009038	-2.005907	-0.384945	-0.556641	-0.356445	-0.509033
1132.0	24.608553	0.996688	-3.517593	-0.489245	-2.45408	0.386826	-0.57251	-0.347656	-0.495361
1133.0	16.187602	3.5289	4.455193	-1.686312	-2.658926	1.349903	-0.592529	-0.334717	-0.486572
1134.0	-28.705973	4.838968	27.440449	-1.847398	-5.318373	2.767549	-0.640137	-0.298096	-0.455322
1135.0	-24.0723	10.253582	26.061887	-1.241113	-5.063579	1.908089	-0.657959	-0.289551	-0.428223
1136.0	59.942802	-5.927467	15.138369	-1.770275	-2.919754	0.28235	-0.677979	-0.276611	-0.421631
1137.0	23.023896	-16.292666	-4.395488	-2.081209	-2.581011	3.001564	-0.698975	-0.250488	-0.408447
1138.0	3.09529	-4.987517	8.940467	0.457394	-3.765965	0.616224	-0.718262	-0.255127	-0.383057
1139.0	29.586098	10.683776	28.163436	0.764445	-2.333906	0.643627	-0.725098	-0.250732	-0.369629
1140.0	2.536155	11.543593	7.805951	-0.916317	-0.773782	1.148326	-0.72998	-0.235596	-0.36084
1141.0	-0.705209	0.927128	8.696903	-1.026376	-1.585209	0.059874	-0.736816	-0.233398	-0.351563
1142.0	18.841603	-2.743186	11.427417	-0.935448	-0.850241	-0.230959	-0.73877	-0.235596	-0.347168
1143.0	5.682464	-4.114627	9.287586	-0.477855	-0.140791	0.004087	-0.73877	-0.235596	-0.356201
1144.0	4.567557	5.010438	8.982951	-0.077862	-0.124172	-0.224636	-0.739014	-0.231201	-0.354004
1145.0	9.144666	2.785313	9.661032	-0.447361	-0.008889	-0.231518	-0.73877	-0.235596	-0.363037
1146.0	4.472569	-1.045483	9.350565	-0.261545	0.147898	-0.148078	-0.732178	-0.237793	-0.35376
1147.0	4.474421	2.805074	9.335762	-0.079049	0.132693	-0.077668	-0.732422	-0.231201	-0.358643
1148.0	6.145041	3.94353	8.904607	-0.312079	0.201341	0.07469	-0.734619	-0.233398	-0.36084
1149.0	5.58161	1.694186	9.033159	-0.478085	0.289554	0.179558	-0.734863	-0.224609	-0.365479
1150.0	4.510422	0.530782	9.512132	-0.392556	0.295786	0.216006	-0.73291	-0.222412	-0.365479
1151.0	4.77358	1.03819	9.104535	-0.293625	0.253559	0.246422	-0.735107	-0.218262	-0.365723
1152.0	5.604118	1.011548	9.274061	-0.269639	0.219361	0.219664	-0.734863	-0.224609	-0.370117
1153.0	4.586121	0.462482	9.415591	-0.228998	0.185554	0.168134	-0.733154	-0.216064	-0.370361
1154.0	4.594526	0.245375	9.539368	-0.134735	0.116223	0.129643	-0.733154	-0.21582	-0.374756
1155.0	4.724095	1.745337	9.300237	-0.07746	0.08327	0.119504	-0.735352	-0.216064	-0.372559
1156.0	5.079952	1.900063	9.196877	-0.153792	0.106624	0.127327	-0.733154	-0.218018	-0.374756
1157.0	4.794456	1.235292	9.228532	-0.165812	0.115269	0.110341	-0.737793	-0.21167	-0.375
1158.0	4.831056	1.736559	9.268028	-0.173105	0.121466	0.091654	-0.737793	-0.21167	-0.375
1159.0	4.89121	1.521427	9.188544	-0.216221	0.139458	0.090647	-0.731201	-0.209473	-0.375
1160.0	5.005202	1.54159	9.268494	-0.224823	0.143065	0.082424	-0.733643	-0.207275	-0.377197
1161.0	4.614908	1.304513	9.205721	-0.272794	0.144114	0.088928	-0.73584	-0.205078	-0.381836
1162.0	5.106723	1.001348	9.268417	-0.258677	0.135055	0.105987	-0.727295	-0.202881	-0.379639
1163.0	4.610182	0.687008	9.322348	-0.221987	0.119197	0.118374	-0.734131	-0.194092	-0.386719
1164.0	4.699148	0.981255	9.227684	-0.200314	0.099039	0.138633	-0.733643	-0.202881	-0.388672
1165.0	5.071209	0.904222	9.189978	-0.214579	0.103022	0.144881	-0.731689	-0.200684	-0.379639
1166.0	4.975085	0.797887	9.140514	-0.208655	0.101428	0.139771	-0.733643	-0.202881	-0.381836
1167.0	4.761396	0.924601	9.2435	-0.189529	0.083124	0.148658	-0.734131	-0.194092	-0.386719
1168.0	4.719704	1.00126	9.270526	-0.157714	0.052675	0.171896	-0.731934	-0.194092	-0.391113
1169.0	4.890921	1.111651	9.333833	-0.129738	0.030228	0.224039	-0.734375	-0.1875	-0.391357
1170.0	5.037894	0.212529	9.254703	-0.054975	0.011004	0.27617	-0.736572	-0.189697	-0.384521
1171.0	5.010824	-0.256237	9.343221	0.113028	-0.05475	0.280984	-0.732178	-0.189697	-0.386719
1172.0	4.758221	0.055471	9.44566	0.208357	-0.129689	0.241989	-0.736572	-0.1875	-0.386719
1173.0	4.66549	0.374488	9.47977	0.260128	-0.212033	0.179189	-0.740967	-0.185303	-0.382324
1174.0	4.634161	1.278484	9.68685	0.20472	-0.301545	0.129408	-0.740967	-0.1875	-0.377686
1175.0	4.672759	1.266093	9.514294	0.144241	-0.382726	0.092567	-0.743408	-0.18335	-0.373047
1176.0	4.769859	0.512441	9.722776	0.082404	-0.43772	0.040412	-0.745117	-0.189941	-0.373047
1177.0	4.21422	-0.182907	10.081402	0.103222	-0.566878	-0.086935	-0.745117	-0.192139	-0.368408
1178.0	4.24599	0.159753	10.290797	0.111235	-0.760819	-0.229839	-0.749268	-0.194336	-0.361572
1179.0	4.484443	0.438936	10.405783	0.144008	-0.98295	-0.318385	-0.751953	-0.187744	-0.350342
1180.0	4.087824	0.033101	10.619298	0.168787	-1.229074	-0.374546	-0.751465	-0.196533	-0.338623
1181.0	3.998167	-0.219414	10.795901	0.205083	-1.536988	-0.450898	-0.762207	-0.19873	-0.327148
1182.0	3.999004	-0.406689	11.04263	0.265683	-1.906755	-0.54636	-0.770752	-0.205322	-0.315674
1183.0	3.665832	-0.74643	11.196989	0.401461	-2.366321	-0.610621	-0.779297	-0.209961	-0.28833
1184.0	3.410379	-1.045711	11.233656	0.646965	-2.891725	-0.6385	-0.783447	-0.212158	-0.265381
1185.0	3.287008	-1.348816	11.082816	1.048486	-3.465629	-0.658278	-0.791748	-0.220947	-0.237793
1186.0	3.54648	1.81688	10.900909	1.395515	-4.056853	-0.641792	-0.800049	-0.232178	-0.198975
1187.0	3.976018	3.643991	11.063189	1.290321	-4.554995	-0.531279	-0.808594	-0.236572	-0.15332
1188.0	3.269622	2.326392	12.360026	1.292299	-5.102009	-0.41893	-0.817139	-0.239014	-0.103027
1189.0	2.345362	3.853637	11.706264	1.186894	-5.915674	-0.386044	-0.827881	-0.243652	-0.055176
1190.0	2.525794	5.098267	11.187467	1.184941	-6.748405	-0.184765	-0.82959	-0.250244	0.006592
1191.0	1.757873	0.907427	11.220565	1.659743	-7.779575	0.161494	-0.821289	-0.241699	0.079346
1192.0	1.469528	3.267865	11.206518	2.120403	-9.109601	0.292135	-0.82373	-0.235352	0.165771
1193.0	1.656162	3.065755	12.171874	2.263681	-10.251272	0.24046	-0.806396	-0.233398	0.263672
1194.0	2.733972	1.348504	11.374638	2.640797	-11.605607	0.093232	-0.767578	-0.222412	0.359131
1195.0	12.088159	-0.76324	-0.54566	3.923574	-13.394065	-0.189371	-0.71582	-0.209229	0.477295
1196.0	37.607155	6.190868	9.015589	6.378623	-13.229989	-1.600507	-0.651367	-0.185059	0.577148
1197.0	41.977897	26.423828	21.154687	3.396653	-9.534763	0.977932	-0.604492	-0.163086	0.631348
1198.0	19.65739	5.631913	15.166682	-0.615281	-7.326308	3.697379	-0.572998	-0.136719	0.674072
1199.0	13.002046	-0.350695	13.573607	0.840772	-6.668668	3.551705	-0.541504	-0.106201	0.709961
1200.0	20.820083	5.579935	16.08246	2.79109	-4.531998	2.70569	-0.512451	-0.075439	0.739014
1201.0	17.699389	10.530145	18.939164	3.514487	-2.09426	1.94984	-0.509766	-0.036133	0.744873
1202.0	16.729573	12.342706	20.423478	3.290612	0.738782	1.394744	-0.524414	-0.003418	0.737549
1203.0	13.36992	10.542155	16.582814	2.142446	3.201023	1.792023	-0.549805	0.029053	0.723145
1204.0	7.978687	10.807734	18.814482	1.260286	4.927118	2.232882	-0.587891	0.050781	0.695557
1205.0	6.280283	3.627324	19.238499	0.907619	6.479786	2.593715	-0.63501	0.083252	0.660645
1206.0	6.838496	1.488156	13.14341	1.186099	6.973254	2.59047	-0.679932	0.109375	0.619141
1207.0	1.458278	6.091831	7.046518	1.315571	7.398356	2.536559	-0.722656	0.137451	0.568604
1208.0	-3.690069	9.830489	6.68551	0.884685	7.329588	2.067746	-0.759033	0.170166	0.522461
1209.0	-3.529322	7.461124	5.956046	0.293283	7.046239	1.489168	-0.79248	0.185303	0.476563
1210.0	-0.924527	5.318548	5.37212	-0.072289	6.781127	1.185609	-0.822021	0.211426	0.428223
1211.0	-0.009767	3.990461	5.053388	-0.212686	6.69428	0.739229	-0.857666	0.22876	0.380127
1212.0	-0.245126	2.885655	5.041059	0.080882	6.681012	-0.006866	-0.877686	0.237549	0.334229
1213.0	-1.797809	3.49081	5.230023	0.383192	6.515234	-0.646653	-0.91333	0.254883	0.286133
1214.0	-2.769099	3.441604	5.115613	0.52621	6.158928	-1.204096	-0.931152	0.263672	0.238281
1215.0	-2.139351	2.383964	5.956953	0.757338	5.719272	-1.68698	-0.966553	0.274414	0.192383
1216.0	-0.318451	1.568964	7.456697	1.182377	5.356396	-2.153823	-0.992432	0.265625	0.15625
1217.0	2.63598	1.610604	9.378458	1.677328	5.213465	-2.633516	-1.036621	0.280762	0.103516
1218.0	5.441263	2.523087	11.316135	1.96773	5.311268	-2.983876	-1.091064	0.276123	0.044434
1219.0	7.142698	2.900078	12.895404	1.955777	5.502234	-3.217192	-1.151611	0.265137	-0.032715
1220.0	8.588473	2.27929	14.25988	1.850561	5.627109	-3.358643	-1.224854	0.247314	-0.121338
1221.0	11.212512	1.848731	15.564242	1.826633	5.703389	-3.446691	-1.278076	0.2146	-0.236816
1222.0	15.008984	3.238529	16.803377	1.759568	5.824271	-3.410092	-1.336914	0.166504	-0.363281
1223.0	18.150308	5.687002	17.55318	1.270459	6.041999	-3.245442	-1.382813	0.12085	-0.519775
1224.0	19.407708	5.910953	17.199166	0.580662	6.20269	-3.020028	-1.406982	0.075195	-0.696533
1225.0	20.306173	4.880516	15.816348	0.159886	6.105687	-2.910551	-1.395264	0.005859	-0.893555
1226.0	22.18651	5.315773	14.472164	0.01118	5.803004	-2.953883	-1.319824	-0.069336	-1.097168
1227.0	24.720898	6.655816	13.170565	-0.173545	5.466072	-3.024066	-1.183594	-0.142334	-1.264648
1228.0	26.977344	6.33382	10.670021	-0.330826	5.169102	-3.079951	-1.009277	-0.191162	-1.364014
1229.0	26.922568	4.409873	6.992369	-0.263258	4.791682	-3.095816	-0.828369	-0.233398	-1.427246
1230.0	23.741448	-3.667887	3.354952	0.322836	3.983465	-3.24323	-0.674316	-0.265137	-1.436035
1231.0	23.311522	0.172345	1.284914	1.211416	3.001876	-3.592619	-0.542236	-0.292725	-1.415039
1232.0	25.520994	5.934454	-0.908644	0.554219	2.174086	-3.544486	-0.437256	-0.303223	-1.378418
1233.0	26.15717	3.073154	-3.985371	-0.793873	1.481846	-2.989056	-0.355469	-0.278809	-1.344971
1234.0	27.915112	-3.836453	-7.727336	-1.121484	0.743288	-2.673393	-0.292725	-0.263184	-1.295166
1235.0	32.582777	-6.32411	-11.493395	-0.668019	0.194788	-2.34777	-0.256592	-0.243408	-1.261475
1236.0	31.435951	-8.450001	-13.555818	-0.049191	-0.309933	-1.521571	-0.232666	-0.241211	-1.220459
1237.0	26.921201	-6.258731	-11.973582	0.509734	-1.062984	-0.791054	-0.22168	-0.243164	-1.204346
1238.0	25.655643	-0.961605	-7.800151	0.216062	-1.74607	-0.119147	-0.219482	-0.243408	-1.186279
1239.0	23.652217	1.244124	-3.515696	-0.607829	-2.194119	0.413528	-0.213867	-0.221436	-1.188965
1240.0	19.654169	3.725899	2.828896	-1.420952	-2.604664	0.663229	-0.225586	-0.204102	-1.187012
1241.0	-8.876612	2.44849	28.571414	-2.059993	-3.980619	1.582807	-0.257324	-0.180176	-1.191895
1242.0	-61.812328	14.756184	29.348941	-1.156593	-5.35998	2.639609	-0.282471	-0.1521	-1.146973
1243.0	15.988396	5.799068	14.178854	-1.090615	-4.193416	-2.080418	-0.289795	-0.132568	-1.094971
1244.0	61.819164	-17.680244	-5.695492	-1.266276	-3.9097	-0.042886	-0.310059	-0.117676	-1.063232
1245.0	13.046466	-9.384377	-0.263549	0.316475	-4.560475	-0.389134	-0.329834	-0.117676	-1.049561
1246.0	12.219635	6.275203	26.435244	0.699365	-4.407051	-0.12993	-0.349121	-0.122314	-1.026611
1247.0	25.580807	-0.744758	24.129245	0.50556	-1.628453	0.594546	-0.347412	-0.113525	-1.017822
1248.0	3.106863	4.653954	4.991112	0.109004	-0.830617	0.42816	-0.355957	-0.115967	-0.999512
1249.0	6.203398	8.12977	8.340966	0.394511	-1.478947	-0.093638	-0.362793	-0.11377	-0.990234
1250.0	13.024953	7.338292	10.257467	-0.794209	-0.93791	-0.125124	-0.365234	-0.107178	-0.990479
1251.0	3.91547	-2.238375	9.135569	-0.746577	-0.599778	-0.102075	-0.369873	-0.10083	-0.983643
1252.0	6.347343	1.621707	9.36679	-0.307203	-0.533608	-0.135274	-0.365479	-0.10083	-0.979248
1253.0	6.533092	2.839415	9.607503	-0.343472	-0.322262	-0.14439	-0.369873	-0.098633	-0.986084
1254.0	5.214225	3.611046	9.003199	-0.356982	-0.188117	-0.129905	-0.369873	-0.098633	-0.986084
1255.0	4.930863	4.557022	9.12782	-0.475413	-0.038445	0.046339	-0.368408	-0.085449	-0.984131
1256.0	4.576742	4.391611	8.725157	-0.602488	0.143661	0.178879	-0.366211	-0.083252	-0.990967
1257.0	5.781932	2.957169	8.822914	-0.734495	0.27167	0.275333	-0.358154	-0.070068	-0.984375
1258.0	5.668626	0.233987	9.06348	-0.622779	0.31482	0.26589	-0.362549	-0.067871	-0.989014
1259.0	5.090029	0.835579	9.393801	-0.416318	0.285114	0.190625	-0.351807	-0.063477	-0.991455
1260.0	5.002316	0.812555	9.320982	-0.311004	0.217693	0.149589	-0.354492	-0.054688	-0.991455
1261.0	5.277999	0.593051	9.349096	-0.15947	0.161948	0.06608	-0.349854	-0.059082	-0.996094
1262.0	4.917677	1.554453	9.209081	-0.056001	0.101675	-0.000129	-0.347656	-0.056885	-0.989258
1263.0	5.049644	1.291939	9.34053	-0.006513	0.038647	-0.058725	-0.347656	-0.056885	-0.996094
1264.0	4.660875	1.347957	9.393395	0.083267	-0.027212	-0.116035	-0.352051	-0.059082	-0.991455
1265.0	4.718917	2.152054	9.17063	0.130055	-0.078639	-0.114561	-0.352051	-0.056885	-0.991455
1266.0	4.936066	2.343935	9.255195	0.110306	-0.081646	-0.134716	-0.349854	-0.059082	-0.984619
1267.0	4.703748	1.506194	8.964782	0.158016	-0.11827	-0.155585	-0.349854	-0.059082	-0.97998
1268.0	5.014198	2.85539	9.030913	0.126398	-0.11886	-0.106183	-0.349854	-0.061279	-0.982178
1269.0	4.753399	2.003768	9.066992	0.11005	-0.119138	-0.067155	-0.354004	-0.065674	-0.982178
1270.0	4.756937	2.783561	8.939397	0.108897	-0.11267	-0.023469	-0.354004	-0.063477	-0.97998
1271.0	4.916096	2.982345	8.808557	0.042953	-0.081366	0.061545	-0.356201	-0.065674	-0.986816
1272.0	5.077378	2.742152	8.761189	-0.009619	-0.041053	0.119484	-0.358643	-0.059326	-0.975342
1273.0	5.06578	2.409287	8.804934	-0.045483	-0.002879	0.1669	-0.356689	-0.054932	-0.970947
1274.0	4.954679	2.634996	8.870679	-0.067492	0.009985	0.207954	-0.356201	-0.065674	-0.97998
1275.0	5.069541	2.654028	8.814071	-0.120677	0.026013	0.259721	-0.358643	-0.059326	-0.975342
1276.0	5.150051	2.567872	8.804005	-0.1867	0.05131	0.298066	-0.356201	-0.061523	-0.968506
1277.0	5.109301	2.319849	8.795583	-0.240462	0.081146	0.313936	-0.356934	-0.04834	-0.971191
1278.0	5.037543	2.056273	8.988492	-0.281309	0.086334	0.32463	-0.354736	-0.04834	-0.975586
1279.0	4.858851	1.843835	9.075402	-0.274008	0.054598	0.323281	-0.359375	-0.043945	-0.968994
1280.0	4.932892	1.685391	9.108601	-0.2689	0.002895	0.323634	-0.359619	-0.037354	-0.9646
1281.0	5.099626	1.738106	9.078049	-0.255409	-0.041903	0.314288	-0.361816	-0.037354	-0.973633
1282.0	5.208903	1.934308	8.972057	-0.267135	-0.068724	0.299628	-0.361816	-0.033203	-0.9646
1283.0	5.275618	1.971764	9.076023	-0.319019	-0.079925	0.288965	-0.366455	-0.031006	-0.971436
1284.0	5.070837	1.756424	9.133163	-0.342815	-0.101835	0.27552	-0.368896	-0.024414	-0.964844
1285.0	4.971713	1.391789	9.328013	-0.327747	-0.158523	0.256063	-0.366699	-0.024414	-0.960205
1286.0	4.769591	1.086886	9.538681	-0.282568	-0.256975	0.225096	-0.380127	-0.017822	-0.960205
1287.0	4.699381	0.786079	9.725766	-0.201716	-0.401678	0.173712	-0.375732	-0.017822	-0.964844
1288.0	4.618412	0.524433	9.712496	-0.076477	-0.578295	0.117805	-0.391113	-0.015869	-0.958008
1289.0	4.852051	0.69212	9.781776	0.005866	-0.749266	0.052416	-0.401855	-0.018066	-0.948975
1290.0	4.581044	0.574085	9.876987	0.105777	-0.934052	-0.014949	-0.412842	-0.016113	-0.932861
1291.0	4.641297	0.845188	9.970535	0.178023	-1.146521	-0.083428	-0.425781	-0.018311	-0.921387
1292.0	4.708439	1.171196	10.086347	0.221128	-1.381602	-0.140352	-0.438965	-0.018555	-0.912354
1293.0	4.553764	1.927759	10.143462	0.27352	-1.644691	-0.146747	-0.460693	-0.018555	-0.891846
1294.0	4.69846	2.304998	10.082751	0.288709	-1.930544	-0.089166	-0.482422	-0.023193	-0.875732
1295.0	4.744838	2.351896	10.142022	0.320075	-2.219545	0.016885	-0.50415	-0.023438	-0.853027
1296.0	4.564037	2.387987	10.483381	0.392006	-2.550098	0.123768	-0.536621	-0.025879	-0.821045
1297.0	4.180154	2.458203	11.694095	0.438391	-3.00365	0.210445	-0.5625	-0.032715	-0.793457
1298.0	3.984959	3.96593	11.006961	0.330983	-3.531038	0.242933	-0.5979	-0.02417	-0.748047
1299.0	4.331943	3.099757	10.806376	0.371264	-4.075116	0.386901	-0.63916	-0.024658	-0.702393
1300.0	3.774112	1.398342	11.451315	0.719071	-4.785052	0.62209	-0.67627	-0.0271	-0.643066
1301.0	2.915621	2.562228	12.08146	0.944494	-5.665414	0.737732	-0.717529	-0.027588	-0.576904
1302.0	1.903158	1.628957	11.844023	1.15108	-6.6967	0.780111	-0.761475	-0.021484	-0.492432
1303.0	1.612688	2.354188	11.80175	1.398727	-7.854849	0.80277	-0.796387	-0.019775	-0.396729
1304.0	2.01029	4.656153	10.751607	1.385974	-9.067559	0.816316	-0.82959	-0.011719	-0.280762
1305.0	4.755523	2.677444	6.667174	1.266446	-10.270258	0.883644	-0.849365	-0.005615	-0.144043
1306.0	11.790156	-1.635545	-0.549745	2.272297	-11.901795	0.527745	-0.849365	-0.008057	-0.007324
1307.0	36.510949	4.389532	11.612291	4.310057	-11.524134	-0.409899	-0.849365	-0.006104	0.115723
1308.0	40.446992	14.801963	20.603754	2.933629	-8.029808	1.474177	-0.850342	0.017578	0.217773
1309.0	16.043699	6.009502	15.913623	0.379143	-5.817259	3.500499	-0.847412	0.047852	0.303955
1310.0	8.497935	-0.697938	12.691517	1.360424	-5.609044	2.768515	-0.831299	0.078369	0.387451
1311.0	18.102528	6.675158	13.535192	2.900845	-4.273184	2.049843	-0.819336	0.106689	0.439453
1312.0	19.705241	12.420659	16.555973	2.921576	-1.86334	1.937425	-0.818604	0.13501	0.468506
1313.0	18.118045	11.742355	20.686412	1.495019	1.45844	2.189479	-0.834961	0.161133	0.46582
1314.0	7.339448	3.637717	19.743954	0.660957	3.846551	2.789251	-0.849121	0.185059	0.45166
1315.0	-0.663757	0.207737	17.625825	1.084608	5.011639	3.905007	-0.866211	0.228516	0.42334
1316.0	-0.898571	3.320967	11.650421	1.488169	5.115923	4.664316	-0.877197	0.276611	0.392822
