Acquisition frequency: 100 Hz
PacketCounter	Acc_X	Acc_Y	Acc_Z	Gyr_X	Gyr_Y	Gyr_Z	Mag_X	Mag_Y	Mag_Z
0.0	9.454265	-1.520724	3.079281	0.009446	0.003671	-0.002424	-0.519775	0.241943	-0.677979
1.0	9.462177	-1.494155	3.032495	0.006043	0.005686	-0.005139	-0.524414	0.246338	-0.678223
2.0	9.45408	-1.519451	3.080477	0.009318	0.005291	-0.004186	-0.521973	0.241943	-0.67334
3.0	9.454059	-1.518783	3.080871	0.002993	0.001078	-0.005945	-0.521973	0.241943	-0.677979
4.0	9.427452	-1.537397	3.09105	0.00558	0.002023	-0.010306	-0.521973	0.239746	-0.675537
5.0	9.454123	-1.517054	3.081526	0.005637	0.005553	-0.003557	-0.52417	0.241943	-0.680176
6.0	9.435729	-1.54394	3.038465	0.007206	-0.000669	-0.006396	-0.52417	0.239746	-0.677979
7.0	9.420524	-1.524808	3.033412	0.008578	-0.000123	-0.006009	-0.521973	0.239746	-0.682617
8.0	9.408962	-1.527717	3.054692	0.01363	0.000161	-0.006251	-0.52417	0.244141	-0.677979
9.0	9.428038	-1.56714	3.086279	0.015534	-0.000778	-0.005686	-0.526367	0.241943	-0.675537
10.0	9.409183	-1.52562	3.055059	0.01594	-0.000645	-0.00727	-0.517334	0.241943	-0.675537
11.0	9.412933	-1.546638	3.081599	0.019649	0.000861	-0.004526	-0.524414	0.248535	-0.673584
12.0	9.424654	-1.541805	3.060793	0.01363	0.000162	-0.006254	-0.519531	0.239746	-0.675537
13.0	9.413112	-1.544603	3.082072	0.017439	-0.001716	-0.005122	-0.52417	0.241943	-0.682617
14.0	9.451808	-1.554427	3.045224	0.015563	0.000991	-0.002314	-0.51709	0.235352	-0.675293
15.0	9.440137	-1.557454	3.066784	0.016806	0.003155	-0.003691	-0.521729	0.235352	-0.670654
16.0	9.478498	-1.533277	3.036	0.017034	-0.001847	-0.003539	-0.515137	0.241943	-0.67334
17.0	9.440275	-1.555818	3.067191	0.016628	-0.001979	-0.001957	-0.517334	0.241943	-0.680176
18.0	9.455416	-1.539491	3.078226	0.014013	-0.004689	-0.000967	-0.517334	0.241943	-0.677979
19.0	9.448674	-1.528492	3.019229	0.01967	-0.01104	-0.006016	-0.526611	0.246338	-0.675781
20.0	9.455974	-1.537707	3.077405	0.016628	-0.001977	-0.001959	-0.521973	0.241943	-0.677979
21.0	9.441134	-1.552738	3.066109	0.01876	-0.007917	-0.00124	-0.52417	0.239746	-0.675537
22.0	9.441048	-1.51812	3.071652	0.012642	-0.005234	-0.001355	-0.519531	0.239746	-0.682617
23.0	9.444875	-1.53958	3.097799	0.015257	-0.002523	-0.002348	-0.52417	0.244141	-0.682617
24.0	9.441234	-1.516906	3.07168	0.013253	0.001801	-0.001305	-0.52417	0.241943	-0.677979
25.0	9.414513	-1.535882	3.08215	0.01272	0.003286	-0.001485	-0.521973	0.239746	-0.682617
26.0	9.463441	-1.544133	3.136471	0.012059	0.006388	-0.00343	-0.515137	0.239746	-0.67334
27.0	9.459648	-1.521463	3.110807	0.01272	0.003287	-0.001486	-0.526367	0.239746	-0.677979
28.0	9.471175	-1.517165	3.090314	0.008378	0.006647	-0.002799	-0.522217	0.246338	-0.678223
29.0	9.455708	-1.498446	3.085764	0.007134	0.004484	-0.00142	-0.521973	0.241943	-0.677979
30.0	9.452466	-1.543917	3.048525	0.010459	0.010844	-0.003974	-0.521973	0.239746	-0.677979
31.0	9.451893	-1.509367	3.055475	0.008811	0.00855	-0.001011	-0.52417	0.239746	-0.682617
32.0	9.440223	-1.54686	3.071879	0.008177	0.013422	0.000415	-0.523926	0.233154	-0.682373
33.0	9.463121	-1.539131	3.031035	0.008177	0.013422	0.000414	-0.526611	0.244141	-0.67334
34.0	9.439353	-1.546438	3.074762	0.00574	0.015845	-0.000334	-0.512939	0.241943	-0.677979
35.0	9.435179	-1.524274	3.050079	0.008077	0.01681	0.00202	-0.521973	0.241943	-0.687256
36.0	9.47334	-1.534834	3.014718	0.00287	0.016366	-0.002872	-0.52417	0.241943	-0.677979
37.0	9.434224	-1.523865	3.053237	0.005867	0.01423	0.00143	-0.528564	0.235352	-0.682373
38.0	9.433715	-1.523901	3.054792	0.004395	0.01707	0.002649	-0.521729	0.237549	-0.677734
39.0	9.433162	-1.523852	3.056524	0.006578	0.01788	-0.000133	-0.517578	0.244141	-0.68042
40.0	9.447624	-1.507892	3.069372	0.005207	0.017332	-0.000519	-0.521973	0.241943	-0.675537
41.0	9.42044	-1.527098	3.081073	0.007518	0.016526	-0.001536	-0.52417	0.239746	-0.682617
42.0	9.458589	-1.537662	3.045892	0.005639	0.019236	0.001267	-0.521729	0.237549	-0.675537
43.0	9.466106	-1.511603	3.000312	0.007392	0.018142	-0.003303	-0.526611	0.244141	-0.68042
44.0	9.469189	-1.533247	3.028537	0.006045	0.019368	-0.000319	-0.521973	0.241943	-0.675537
45.0	9.468605	-1.532787	3.030595	0.008105	0.021793	-0.004867	-0.521973	0.244141	-0.68042
46.0	9.422751	-1.5454	3.005232	0.00823	0.020178	-0.003101	-0.521973	0.244141	-0.68042
47.0	9.440474	-1.517176	3.050426	0.005614	0.017466	-0.002109	-0.521973	0.239746	-0.680176
48.0	9.421437	-1.510554	3.014559	0.00668	0.014496	-0.001743	-0.521973	0.241943	-0.680176
49.0	9.436403	-1.528376	3.021142	0.010057	0.010719	-0.002391	-0.523926	0.237549	-0.675537
50.0	9.397397	-1.517054	3.059112	0.00922	0.008685	-0.002594	-0.521973	0.239746	-0.677979
51.0	9.435891	-1.527318	3.023275	0.013332	0.010331	-0.001434	-0.521973	0.244141	-0.68042
52.0	9.450936	-1.544968	3.029706	0.012369	0.009913	-0.003405	-0.521973	0.241943	-0.67334
53.0	9.450256	-1.510151	3.036977	0.01529	0.016145	-0.004381	-0.528809	0.246338	-0.678223
54.0	9.480428	-1.545722	3.049448	0.011358	0.019634	-0.007291	-0.514893	0.237549	-0.684814
55.0	9.464659	-1.526421	3.046094	0.013795	0.017213	-0.006537	-0.519531	0.239746	-0.682617
56.0	9.46101	-1.53743	3.015739	0.013795	0.017214	-0.006538	-0.517334	0.239746	-0.680176
57.0	9.445222	-1.518292	3.012365	0.017089	0.018603	-0.002212	-0.526611	0.244141	-0.685059
58.0	9.448342	-1.539389	3.040615	0.014328	0.01573	-0.006356	-0.526611	0.244141	-0.675781
59.0	9.444436	-1.516629	3.015666	0.013331	0.010337	-0.001438	-0.521729	0.237549	-0.677734
60.0	9.459203	-1.500235	3.027664	0.014502	0.003976	-0.002668	-0.521973	0.241943	-0.682617
61.0	9.450943	-1.525138	3.075775	0.013007	0.005041	-0.004824	-0.522217	0.246338	-0.6875
62.0	9.462588	-1.520573	3.055438	0.012474	0.006527	-0.00501	-0.521973	0.239746	-0.680176
63.0	9.435313	-1.505166	3.072265	0.013615	0.012082	-0.004793	-0.522217	0.248535	-0.682861
64.0	9.450287	-1.522464	3.079115	0.011055	0.016118	-0.007321	-0.526367	0.241943	-0.677979
65.0	9.449548	-1.487315	3.08655	0.010094	0.015698	-0.009293	-0.517334	0.237549	-0.682373
66.0	9.45274	-1.508234	3.114581	0.009275	0.015441	-0.006126	-0.526367	0.241943	-0.680176
67.0	9.437306	-1.523154	3.105406	0.009882	0.022482	-0.006098	-0.521973	0.239746	-0.675537
68.0	9.424678	-1.491848	3.134158	0.014862	0.01425	-0.006178	-0.521729	0.237549	-0.673096
69.0	9.424691	-1.524769	3.130065	0.009561	0.017185	-0.009483	-0.519775	0.244141	-0.677979
70.0	9.420753	-1.501804	3.105319	0.009275	0.015443	-0.006129	-0.521973	0.241943	-0.680176
71.0	9.420451	-1.500862	3.106688	0.009916	0.010566	-0.007541	-0.519775	0.241943	-0.680176
72.0	9.393515	-1.51926	3.117894	0.011162	0.012731	-0.008925	-0.517578	0.244141	-0.68042
73.0	9.423528	-1.520584	3.135597	0.008546	0.010016	-0.007929	-0.52417	0.239746	-0.677979
74.0	9.404943	-1.513465	3.098916	0.006874	0.005945	-0.008329	-0.517578	0.244141	-0.677979
75.0	9.435499	-1.54901	3.110388	0.00593	0.007302	-0.006933	-0.517334	0.241943	-0.680176
76.0	9.407903	-1.499505	3.132501	0.008777	0.005011	-0.007755	-0.517334	0.239746	-0.682617
77.0	9.447128	-1.543561	3.09067	0.004149	0.006622	-0.005737	-0.526367	0.237549	-0.675537
78.0	9.434797	-1.512364	3.11828	0.009079	0.008533	-0.007743	-0.517334	0.239746	-0.682617
79.0	9.45035	-1.563697	3.118974	0.009505	0.010441	-0.00596	-0.521973	0.239746	-0.677979
80.0	9.431631	-1.556829	3.08264	0.00993	0.012349	-0.004177	-0.519531	0.237549	-0.687012
81.0	9.419524	-1.559892	3.104979	0.011423	0.011287	-0.002019	-0.521973	0.239746	-0.680176
82.0	9.434073	-1.543596	3.117398	0.013751	0.012261	0.000339	-0.510742	0.244141	-0.68042
83.0	9.421913	-1.546885	3.13975	0.011012	0.011159	-0.000436	-0.519775	0.241943	-0.680176
84.0	9.43294	-1.508766	3.125631	0.014285	0.010777	0.000526	-0.517334	0.239746	-0.675537
85.0	9.432998	-1.542255	3.121311	0.014039	0.014004	-0.00302	-0.526367	0.241943	-0.684814
86.0	9.432661	-1.541688	3.12261	0.019995	0.007978	0.002251	-0.515137	0.241943	-0.680176
87.0	9.440623	-1.515729	3.076269	0.015654	0.011331	0.00091	-0.519775	0.246338	-0.68042
88.0	9.428496	-1.518919	3.098535	0.01523	0.009422	-0.000873	-0.521973	0.241943	-0.684814
89.0	9.452308	-1.54502	3.051778	0.014806	0.007513	-0.002655	-0.521973	0.241943	-0.680176
90.0	9.439867	-1.513918	3.07948	0.016175	0.008065	-0.002269	-0.517334	0.239746	-0.677979
91.0	9.424763	-1.529132	3.069335	0.014394	0.007386	-0.001072	-0.52417	0.239746	-0.680176
92.0	9.443036	-1.534527	3.107628	0.018311	0.002126	-0.001512	-0.519531	0.239746	-0.677979
93.0	9.397785	-1.547456	3.080708	0.015352	0.007812	0.000897	-0.522217	0.248535	-0.675781
94.0	9.442704	-1.533419	3.109185	0.019146	0.004164	-0.001316	-0.521973	0.241943	-0.682617
95.0	9.400568	-1.533981	3.114374	0.019146	0.004164	-0.001317	-0.528809	0.244141	-0.68042
96.0	9.42711	-1.513851	3.105226	0.017667	0.007008	-0.000113	-0.514893	0.237549	-0.682373
97.0	9.403266	-1.520554	3.148227	0.01957	0.006076	0.000463	-0.519775	0.241943	-0.680176
98.0	9.423664	-1.524954	3.074784	0.020104	0.004592	0.000652	-0.519531	0.239746	-0.684814
99.0	9.441842	-1.530279	3.113347	0.022187	0.008794	-0.000541	-0.52417	0.241943	-0.677979
100.0	9.435085	-1.519968	3.055641	0.017244	0.005099	-0.001897	-0.515137	0.241943	-0.680176
101.0	9.426194	-1.51071	3.109533	0.018735	0.004041	0.000264	-0.521729	0.237549	-0.682373
102.0	9.42614	-1.510079	3.110001	0.017476	9.2e-05	-0.001711	-0.519775	0.244141	-0.68042
103.0	9.434899	-1.518109	3.05714	0.013258	0.001831	-0.001282	-0.528809	0.241943	-0.684814
104.0	9.43795	-1.505156	3.089632	0.015985	0.001151	-0.003874	-0.517334	0.241943	-0.682617
105.0	9.434929	-1.516651	3.057771	0.012835	-8.1e-05	-0.003062	-0.526611	0.244141	-0.677979
106.0	9.453398	-1.521653	3.095569	0.012701	-0.000257	-0.008201	-0.514893	0.235352	-0.679932
107.0	9.43821	-1.502538	3.090113	0.01063	-0.002671	-0.003643	-0.514893	0.237549	-0.680176
108.0	9.408078	-1.499548	3.073653	0.009028	0.001783	-0.004217	-0.521973	0.241943	-0.680176
109.0	9.454126	-1.553289	3.090337	0.01092	-0.000935	-0.007003	-0.521973	0.244141	-0.682617
110.0	9.438426	-1.500193	3.090592	0.005756	0.002161	-0.005181	-0.52417	0.239746	-0.677979
111.0	9.453743	-1.517793	3.096411	0.006713	0.00259	-0.003211	-0.52417	0.239746	-0.682617
112.0	9.43005	-1.524304	3.138988	0.008372	0.004879	-0.006186	-0.519531	0.239746	-0.684814
113.0	9.441741	-1.520022	3.118672	0.007849	0.008151	-0.003015	-0.521973	0.244141	-0.682617
114.0	9.456808	-1.537759	3.125192	0.006368	0.010995	-0.001815	-0.517334	0.237549	-0.677734
115.0	9.441261	-1.518967	3.12064	0.005935	0.007294	-0.006956	-0.517578	0.244141	-0.675781
116.0	9.429726	-1.555872	3.137004	0.003085	0.009585	-0.006142	-0.521973	0.241943	-0.682617
117.0	9.464493	-1.51059	3.080431	0.002683	0.011248	-0.001195	-0.517578	0.244141	-0.685059
118.0	9.437494	-1.529711	3.091506	0.005411	0.010568	-0.003786	-0.52417	0.244141	-0.68042
119.0	9.436784	-1.495123	3.098055	-0.000599	0.009837	-0.005522	-0.519531	0.239746	-0.682617
120.0	9.436561	-1.49462	3.098975	-0.000599	0.009837	-0.005522	-0.514893	0.237549	-0.682373
121.0	9.452118	-1.546451	3.099894	0.000357	0.010266	-0.003552	-0.52417	0.241943	-0.680176
122.0	9.436576	-1.527761	3.095268	0.00362	0.008101	-0.00595	-0.517334	0.237549	-0.677734
123.0	9.42156	-1.542983	3.085014	0.00362	0.008102	-0.005951	-0.521973	0.244141	-0.682617
124.0	9.421317	-1.542549	3.085974	0.002682	0.01125	-0.001197	-0.51709	0.235352	-0.679932
125.0	9.408659	-1.511623	3.113792	0.004755	0.013664	-0.005757	-0.52417	0.239746	-0.682617
126.0	9.435546	-1.525599	3.099473	0.007314	0.009639	-0.003208	-0.526367	0.241943	-0.682617
127.0	9.435263	-1.524987	3.100635	0.006658	0.012734	-0.005179	-0.528809	0.241943	-0.677979
128.0	9.420068	-1.540353	3.090878	0.0072	0.013039	-0.001624	-0.517334	0.241943	-0.677979
129.0	9.437564	-1.511596	3.135365	0.008562	0.011804	-0.004601	-0.521973	0.241943	-0.680176
130.0	9.407588	-1.542701	3.11442	0.010465	0.010875	-0.004021	-0.519531	0.239746	-0.689453
131.0	9.4221	-1.526175	3.126799	0.005711	0.014095	-0.00379	-0.521973	0.244141	-0.68042
132.0	9.434114	-1.556041	3.101583	0.015105	0.011055	-0.00267	-0.515137	0.241943	-0.680176
133.0	9.421541	-1.524757	3.129175	0.009211	0.006922	-0.005992	-0.524414	0.244141	-0.687256
134.0	9.406038	-1.505808	3.124507	0.012903	0.008462	-0.003249	-0.524414	0.246338	-0.68042
135.0	9.418224	-1.535686	3.098811	0.013558	0.005368	-0.001277	-0.521973	0.244141	-0.685059
136.0	9.421094	-1.522724	3.131511	0.015041	0.002524	-0.002474	-0.521729	0.237549	-0.677734
137.0	9.415063	-1.546791	3.067923	0.014926	0.005924	-0.000892	-0.524414	0.246338	-0.678223
138.0	9.433109	-1.551885	3.106717	0.018256	0.012292	-0.003487	-0.521973	0.241943	-0.682617
139.0	9.447602	-1.535232	3.119178	0.016059	0.011489	-0.000705	-0.521973	0.244141	-0.68042
140.0	9.443823	-1.512945	3.093828	0.016594	0.010005	-0.000511	-0.517334	0.237549	-0.684814
141.0	9.428693	-1.52823	3.083992	0.015105	0.011059	-0.002677	-0.519775	0.241943	-0.680176
142.0	9.428393	-1.527591	3.085227	0.016594	0.010006	-0.000512	-0.521973	0.244141	-0.685059
143.0	9.469649	-1.491705	3.08742	0.015346	0.007843	0.000881	-0.526367	0.239746	-0.680176
144.0	9.427934	-1.526646	3.087098	0.017364	0.003513	-0.000118	-0.521729	0.237549	-0.677734
145.0	9.454493	-1.506536	3.077907	0.018078	0.007162	-0.001709	-0.521973	0.241943	-0.682617
146.0	9.439571	-1.521677	3.067539	0.020631	0.001348	-0.002512	-0.517334	0.241943	-0.682617
147.0	9.442438	-1.50848	3.100228	0.020515	0.00475	-0.000934	-0.519775	0.241943	-0.684814
148.0	9.427441	-1.523779	3.090016	0.017663	0.00704	-0.000127	-0.515137	0.241943	-0.689453
149.0	9.457443	-1.525357	3.107459	0.014508	0.004012	-0.002673	-0.521973	0.244141	-0.68042
150.0	9.453928	-1.502893	3.081421	0.018194	0.003763	-0.003291	-0.52417	0.244141	-0.682617
151.0	9.441973	-1.505632	3.103027	0.01314	0.003456	-0.00306	-0.517578	0.244141	-0.677979
152.0	9.441879	-1.505011	3.103615	0.015461	0.004446	-0.000705	-0.52417	0.241943	-0.680176
153.0	9.415095	-1.523858	3.114119	0.013674	0.001972	-0.002864	-0.519775	0.241943	-0.675537
154.0	9.460043	-1.50948	3.142205	0.015163	0.000922	-0.000698	-0.517334	0.241943	-0.680176
155.0	9.426878	-1.51927	3.093952	0.013144	0.005253	0.000297	-0.526611	0.244141	-0.68042
156.0	9.459801	-1.508474	3.143417	0.010702	0.005869	-0.003841	-0.523926	0.237549	-0.684814
157.0	9.456776	-1.52022	3.112003	0.014508	0.004014	-0.002677	-0.517578	0.244141	-0.682617
158.0	9.414639	-1.520841	3.116971	0.012605	0.004942	-0.003259	-0.517334	0.241943	-0.682617
159.0	9.429413	-1.504104	3.128507	0.012722	0.001539	-0.004836	-0.519531	0.239746	-0.677979
160.0	9.426033	-1.481533	3.102101	0.013671	0.000178	-0.006224	-0.510498	0.239746	-0.687256
161.0	9.429547	-1.502236	3.129	0.013256	5.6e-05	-0.004639	-0.526367	0.239746	-0.680176
162.0	9.427226	-1.547959	3.091771	0.013256	5.6e-05	-0.00464	-0.519775	0.241943	-0.680176
163.0	9.414885	-1.516505	3.118342	0.011888	-0.000501	-0.005025	-0.521973	0.239746	-0.680176
164.0	9.411432	-1.49436	3.09194	0.008624	0.003464	0.000723	-0.515381	0.244141	-0.671143
165.0	9.426756	-1.511976	3.097893	0.008617	-0.000131	-0.005992	-0.519531	0.239746	-0.687256
166.0	9.414294	-1.480681	3.124719	0.008384	0.006676	-0.002843	-0.517334	0.241943	-0.680176
167.0	9.444857	-1.516413	3.136647	0.008086	0.003151	-0.002833	-0.52417	0.241943	-0.680176
168.0	9.414688	-1.513656	3.120319	0.012307	0.00142	-0.003253	-0.519531	0.239746	-0.677979
169.0	9.456727	-1.511716	3.11629	0.008621	0.001668	-0.002635	-0.519531	0.239746	-0.677979
170.0	9.430063	-1.530497	3.12651	0.011889	-0.0005	-0.005025	-0.517334	0.239746	-0.682617
171.0	9.441971	-1.526495	3.105709	0.009158	0.001983	0.000919	-0.528809	0.241943	-0.684814
172.0	9.441442	-1.491703	3.11136	0.012184	0.001227	-0.008395	-0.521973	0.241943	-0.682617
173.0	9.402844	-1.513951	3.142726	0.01243	0.001615	0.001886	-0.521973	0.239746	-0.682617
174.0	9.444883	-1.512162	3.138623	0.011474	-0.00062	-0.003441	-0.521973	0.241943	-0.680176
175.0	9.384626	-1.507376	3.105382	0.010109	0.000621	-0.000469	-0.526367	0.241943	-0.675537
176.0	9.402879	-1.51254	3.1433	0.009156	0.000185	-0.002438	-0.52417	0.241943	-0.680176
177.0	9.430084	-1.526744	3.128282	0.012309	0.003221	0.000101	-0.521973	0.244141	-0.682617
178.0	9.402708	-1.511795	3.144169	0.011359	0.004584	0.001487	-0.514893	0.237549	-0.680176
179.0	9.432701	-1.513375	3.161579	0.012485	0.006551	-0.005054	-0.526367	0.241943	-0.680176
180.0	9.42676	-1.537822	3.098242	0.009871	0.005631	-0.000682	-0.517334	0.241943	-0.684814
181.0	9.411296	-1.519171	3.093181	0.014508	0.004022	-0.002687	-0.528564	0.239746	-0.682617
182.0	9.429405	-1.524206	3.131565	0.009871	0.005632	-0.000683	-0.521973	0.241943	-0.684814
183.0	9.456508	-1.538493	3.116858	0.010406	0.004148	-0.000484	-0.52417	0.239746	-0.680176
184.0	9.413796	-1.505264	3.127063	0.01219	0.004827	-0.001686	-0.521973	0.244141	-0.677979
185.0	9.428969	-1.522998	3.133464	0.010824	0.00607	0.001286	-0.521973	0.244141	-0.682617
186.0	9.44071	-1.519087	3.113167	0.013973	0.005506	-0.002888	-0.521729	0.237549	-0.680176
187.0	9.458266	-1.490229	3.156709	0.008327	0.001747	0.004088	-0.526611	0.246338	-0.682861
188.0	9.410313	-1.516491	3.097482	0.008384	0.006678	-0.002854	-0.521973	0.239746	-0.682617
189.0	9.440368	-1.518148	3.11466	0.012012	-0.000301	0.000114	-0.526611	0.244141	-0.68042
190.0	9.413053	-1.503281	3.130253	0.004936	0.003718	0.001335	-0.521973	0.241943	-0.680176
191.0	9.424796	-1.499811	3.109749	0.005769	0.00576	0.001518	-0.526611	0.246338	-0.68042
192.0	9.428584	-1.555275	3.131893	0.006601	0.006	-0.001653	-0.515137	0.239746	-0.682617
193.0	9.412537	-1.502686	3.13209	0.006601	0.006	-0.001653	-0.521973	0.239746	-0.682617
194.0	9.424828	-1.533011	3.106493	0.004698	0.006925	-0.002237	-0.524414	0.246338	-0.6875
195.0	9.466704	-1.531314	3.102893	0.006601	0.006	-0.001653	-0.530762	0.239746	-0.677734
196.0	9.424411	-1.53253	3.107998	0.00565	0.009167	0.003086	-0.521973	0.244141	-0.68042
197.0	9.436044	-1.529058	3.087865	0.003747	0.008289	-0.000852	-0.526611	0.244141	-0.677979
198.0	9.435791	-1.528944	3.088695	0.003331	0.008169	0.000733	-0.52417	0.239746	-0.682617
199.0	9.444644	-1.537988	3.036345	0.004817	0.005322	-0.000452	-0.528809	0.241943	-0.680176
200.0	9.435446	-1.528646	3.089896	0.002081	0.004204	-0.001219	-0.517334	0.237549	-0.682373
201.0	9.435399	-1.52847	3.090127	0.003687	-0.000246	-0.000617	-0.526367	0.237549	-0.682373
202.0	9.459237	-1.521524	3.048167	0.002736	0.001118	0.000767	-0.517334	0.239746	-0.687256
203.0	9.459248	-1.521527	3.04813	-0.004103	-0.001676	-0.001151	-0.514893	0.237549	-0.682373
204.0	9.417267	-1.522876	3.052197	-0.000833	-0.002042	-0.000183	-0.519531	0.237549	-0.680176
205.0	9.459361	-1.52155	3.047769	-0.004638	-0.000193	-0.001352	-0.517578	0.244141	-0.675781
206.0	9.48667	-1.536156	3.03238	-0.002319	-0.000998	-0.002353	-0.521729	0.237549	-0.677734
207.0	9.45318	-1.512377	2.988801	-0.002855	0.000486	-0.002554	-0.528809	0.244141	-0.682617
208.0	9.453236	-1.512225	2.988701	-0.003687	-0.001557	-0.002737	-0.517578	0.244141	-0.682617
209.0	9.456183	-1.499409	3.020568	-0.001903	-0.000878	-0.003939	-0.517334	0.237549	-0.677734
210.0	9.468695	-1.529856	2.994307	-0.000119	0.001603	-0.001786	-0.521973	0.239746	-0.677979
211.0	9.453461	-1.511355	2.988431	-0.001368	-0.004165	-0.007093	-0.526367	0.237549	-0.684814
212.0	9.483754	-1.512887	3.004919	-0.001487	-0.000758	-0.005524	-0.52417	0.241943	-0.680176
213.0	9.453755	-1.510322	2.988023	0.002319	-0.002608	-0.004356	-0.524414	0.246338	-0.68042
214.0	9.495967	-1.508244	2.983583	0.001664	-0.001323	-0.009697	-0.521973	0.244141	-0.682617
215.0	9.484722	-1.544903	2.999452	0.002912	0.002642	-0.007745	-0.524414	0.246338	-0.685059
216.0	9.49954	-1.528059	3.010745	0.002912	0.002642	-0.007745	-0.521973	0.241943	-0.677979
217.0	9.475744	-1.534192	3.053017	0.003032	0.001039	-0.005959	-0.528564	0.237549	-0.675537
218.0	9.461007	-1.54931	3.04236	0.004576	0.004925	-0.010734	-0.521973	0.244141	-0.682617
219.0	9.460422	-1.514273	3.048099	0.008502	0.003276	-0.004424	-0.524414	0.246338	-0.68042
220.0	9.445558	-1.529628	3.037723	0.000354	0.008456	-0.006963	-0.523926	0.237549	-0.673096
221.0	9.4636	-1.534369	3.076355	0.005408	0.008771	-0.007196	-0.524414	0.246338	-0.678223
222.0	9.464013	-1.567476	3.072144	0.007072	0.011054	-0.010185	-0.519531	0.237549	-0.682373
223.0	9.433106	-1.530202	3.061807	0.004753	0.011858	-0.009185	-0.524414	0.248535	-0.68042
224.0	9.447657	-1.513242	3.073916	0.001601	0.010619	-0.008367	-0.519531	0.239746	-0.680176
225.0	9.420744	-1.531959	3.084981	-0.000718	0.011423	-0.007367	-0.521973	0.241943	-0.675537
226.0	9.416997	-1.509914	3.059461	0.003382	0.014906	-0.002861	-0.519775	0.241943	-0.677979
227.0	9.432028	-1.527639	3.066403	-0.001015	0.0097	-0.003995	-0.528809	0.244141	-0.685059
228.0	9.419889	-1.530561	3.088285	0.006895	0.00773	-0.005026	-0.52417	0.239746	-0.680176
229.0	9.428905	-1.539132	3.035897	0.002913	0.004447	-0.004392	-0.519775	0.244141	-0.677979
230.0	9.443608	-1.522506	3.047348	0.005233	0.003643	-0.005392	-0.521973	0.244141	-0.682617
231.0	9.443631	-1.521838	3.04761	0.008209	-0.000247	-0.004404	-0.52417	0.244141	-0.68042
232.0	9.414165	-1.553338	3.025798	0.008623	0.001677	-0.002635	-0.517334	0.239746	-0.680176
233.0	9.44712	-1.54217	3.074763	0.010112	-0.00117	-0.003818	-0.521973	0.241943	-0.67334
234.0	9.401704	-1.521386	3.052392	0.01231	0.001434	-0.003252	-0.517334	0.241943	-0.67334
235.0	9.431901	-1.522815	3.069192	0.015941	-0.005542	-0.000274	-0.52417	0.244141	-0.67334
236.0	9.434838	-1.509666	3.101064	0.018139	-0.002937	0.000291	-0.52417	0.241943	-0.675537
237.0	9.432707	-1.555725	3.063994	0.017901	0.000269	-0.003285	-0.52417	0.241943	-0.677979
238.0	9.435502	-1.542466	3.096352	0.019385	0.001032	0.00224	-0.519775	0.244141	-0.677979
239.0	9.435412	-1.541907	3.096906	0.022416	0.003875	-0.000368	-0.528809	0.244141	-0.68042
240.0	9.450003	-1.525199	3.108687	0.01956	0.006163	0.000429	-0.521973	0.244141	-0.675781
241.0	9.434489	-1.506566	3.103633	0.020633	0.003197	0.000833	-0.52417	0.241943	-0.675537
242.0	9.43441	-1.506008	3.104143	0.019802	0.001154	0.000651	-0.519775	0.241943	-0.682617
243.0	9.431626	-1.51813	3.072358	0.02141	-0.003295	0.001259	-0.52417	0.241943	-0.675537
244.0	9.446983	-1.535735	3.078403	0.017481	0.001958	0.00165	-0.519775	0.246338	-0.682861
245.0	9.431581	-1.517371	3.07287	0.02004	-0.002047	0.004227	-0.526611	0.244141	-0.682617
246.0	9.446914	-1.535048	3.078958	0.023072	0.000795	0.001616	-0.524414	0.248535	-0.675781
247.0	9.416707	-1.532664	3.062679	0.019799	0.002964	0.003998	-0.519775	0.241943	-0.677979
248.0	9.446649	-1.534338	3.080123	0.01968	0.004565	0.002208	-0.521729	0.239746	-0.673096
249.0	9.449863	-1.555368	3.107778	0.019144	0.006049	0.002004	-0.526367	0.241943	-0.680176
250.0	9.434213	-1.537059	3.102962	0.018605	0.009342	0.00515	-0.52417	0.241943	-0.670898
251.0	9.457235	-1.495873	3.067015	0.018194	0.005606	3.4e-05	-0.52417	0.239746	-0.675537
252.0	9.430323	-1.514837	3.077976	0.015338	0.007893	0.000829	-0.526611	0.244141	-0.675781
253.0	9.47212	-1.513146	3.074692	0.016824	0.006855	0.003001	-0.526611	0.244141	-0.682617
254.0	9.445216	-1.532188	3.085585	0.016827	0.005045	-0.00035	-0.521973	0.241943	-0.675537
255.0	9.453616	-1.506973	3.038401	0.01314	0.005288	0.000267	-0.52417	0.244141	-0.68042
256.0	9.483579	-1.508487	3.055846	0.014093	0.003923	-0.001115	-0.521973	0.241943	-0.675537
257.0	9.456787	-1.527468	3.066427	0.010941	0.002683	-0.000294	-0.521973	0.241943	-0.680176
258.0	9.438507	-1.521795	3.029225	0.012604	0.006772	6.1e-05	-0.519775	0.241943	-0.675537
259.0	9.453719	-1.539485	3.035711	0.007671	0.003042	-0.001263	-0.526611	0.248535	-0.685059
260.0	9.43821	-1.52099	3.030555	0.007312	0.009652	-0.003287	-0.52417	0.239746	-0.682617
261.0	9.456159	-1.525668	3.069259	0.010704	0.005882	-0.003877	-0.526367	0.241943	-0.675537
262.0	9.467865	-1.521879	3.049263	0.006771	0.012947	-0.000144	-0.521973	0.241943	-0.680176
263.0	9.410128	-1.504904	3.048758	0.010164	0.009177	-0.000733	-0.52417	0.244141	-0.677979
264.0	9.440593	-1.54063	3.061438	0.009333	0.007133	-0.00091	-0.515381	0.244141	-0.68042
265.0	9.467071	-1.520747	3.052289	0.010582	0.009294	-0.00232	-0.528564	0.239502	-0.668457
266.0	9.424767	-1.521581	3.057517	0.010582	0.009294	-0.00232	-0.519775	0.244141	-0.682617
267.0	9.452436	-1.569829	3.038497	0.011831	0.011456	-0.003731	-0.524414	0.246338	-0.675781
268.0	9.43902	-1.504145	3.070593	0.010706	0.005883	-0.003878	-0.521973	0.239746	-0.677979
269.0	9.436701	-1.55055	3.034432	0.008797	0.008617	-0.001117	-0.526367	0.241943	-0.675537
270.0	9.45188	-1.567981	3.041178	0.011124	0.005999	-0.005464	-0.515137	0.239746	-0.682617
271.0	9.465921	-1.516952	3.05774	0.008508	0.003276	-0.004436	-0.526367	0.241943	-0.684814
272.0	9.451151	-1.532465	3.047234	0.00809	0.00316	-0.00285	-0.517334	0.237549	-0.670898
273.0	9.421032	-1.530024	3.030776	0.006723	0.002598	-0.003232	-0.519775	0.244141	-0.682617
274.0	9.481114	-1.53336	3.064953	0.00892	0.005206	-0.002675	-0.519531	0.239746	-0.677979
275.0	9.44757	-1.509647	3.0217	0.007671	0.003045	-0.001264	-0.526611	0.244141	-0.675781
276.0	9.450865	-1.530638	3.049039	0.010941	0.002688	-0.000294	-0.523926	0.237549	-0.673096
277.0	9.438678	-1.533573	3.070868	0.007724	0.011584	-0.001534	-0.526367	0.239746	-0.682617
278.0	9.42639	-1.53649	3.093005	0.013433	0.008825	0.000231	-0.524414	0.246338	-0.675781
279.0	9.440803	-1.519977	3.105069	0.010994	0.011228	-0.000565	-0.52417	0.244141	-0.677979
280.0	9.437701	-1.532484	3.074413	0.010039	0.012596	0.000814	-0.515381	0.244141	-0.675781
281.0	9.428674	-1.556794	3.123721	0.013728	0.012355	0.000198	-0.526611	0.244141	-0.68042
282.0	9.437558	-1.566	3.072117	0.015212	0.011321	0.002373	-0.52417	0.239746	-0.677979
283.0	9.409915	-1.55078	3.088338	0.012905	0.008494	-0.003325	-0.521973	0.244141	-0.675781
284.0	9.436415	-1.530809	3.079194	0.019142	0.00607	0.001997	-0.515137	0.241943	-0.677979
285.0	9.436811	-1.564491	3.075177	0.013853	0.008943	-0.001358	-0.531006	0.241943	-0.677979
286.0	9.421168	-1.545983	3.070378	0.014264	0.010875	0.000401	-0.52417	0.241943	-0.677979
287.0	9.435583	-1.529538	3.082372	0.01355	0.007232	0.002022	-0.52417	0.244141	-0.68042
288.0	9.47399	-1.506625	3.052375	0.011942	0.01168	0.001397	-0.519775	0.244141	-0.67334
289.0	9.444803	-1.572986	3.026836	0.011103	0.011452	0.004569	-0.526367	0.239746	-0.673096
290.0	9.458461	-1.522615	3.044064	0.014676	0.012808	0.002159	-0.522217	0.246338	-0.678223
291.0	9.446021	-1.525714	3.06647	0.019428	0.01142	0.005306	-0.521973	0.244141	-0.68042
292.0	9.446221	-1.559868	3.062857	0.017642	0.010743	0.00651	-0.517334	0.241943	-0.677979
293.0	9.430477	-1.541841	3.058126	0.013426	0.010649	0.003569	-0.521973	0.244141	-0.68042
294.0	9.442115	-1.53859	3.03831	0.018178	0.009262	0.006718	-0.519775	0.241943	-0.680176
295.0	9.417735	-1.545089	3.081338	0.019669	0.006411	0.005549	-0.52417	0.244141	-0.68042
296.0	9.429487	-1.541682	3.061256	0.020089	0.006525	0.003962	-0.52417	0.241943	-0.680176
297.0	9.432564	-1.562625	3.089124	0.021045	0.005156	0.002584	-0.521729	0.237549	-0.675537
298.0	9.447063	-1.546075	3.100878	0.019143	0.006076	0.001992	-0.522217	0.246338	-0.678223
299.0	9.443583	-1.524334	3.074653	0.022001	0.003788	0.001206	-0.526611	0.244141	-0.685059
300.0	9.443386	-1.524095	3.075378	0.019785	0.00482	0.00734	-0.517578	0.246338	-0.682861
301.0	9.428459	-1.540005	3.065266	0.021466	0.005271	0.000994	-0.519531	0.237549	-0.680176
302.0	9.424965	-1.518366	3.039054	0.020625	0.005047	0.004166	-0.519531	0.239746	-0.677979
303.0	9.454774	-1.52	3.056798	0.018723	0.005966	0.003573	-0.52417	0.244141	-0.68042
304.0	9.443056	-1.557059	3.074025	0.018904	0.011091	0.001735	-0.526367	0.241943	-0.675537
305.0	9.454663	-1.553434	3.054567	0.017298	0.015539	0.001101	-0.521973	0.241943	-0.675537
306.0	9.454169	-1.553006	3.056313	0.020567	0.015186	0.002072	-0.522217	0.246338	-0.682861
307.0	9.452934	-1.518377	3.063287	0.022526	0.022811	0.002367	-0.526855	0.250732	-0.676025
308.0	9.452823	-1.552264	3.06085	0.015682	0.021813	0.003804	-0.526367	0.241943	-0.677979
309.0	9.4215	-1.516193	3.050859	0.018233	0.01782	0.006405	-0.526367	0.239746	-0.682617
310.0	9.424214	-1.537202	3.079693	0.017834	0.01406	0.001308	-0.519775	0.241943	-0.675537
311.0	9.462626	-1.514433	3.049977	0.012061	0.010096	0.003169	-0.52417	0.244141	-0.677979
312.0	9.450227	-1.517456	3.072082	0.014384	0.00929	0.002175	-0.519775	0.241943	-0.677979
313.0	9.444072	-1.50904	3.014092	0.012186	0.006678	0.001626	-0.528564	0.239746	-0.673096
314.0	9.435019	-1.533262	3.062947	0.008496	0.00692	0.002238	-0.521973	0.239746	-0.680176
315.0	9.443551	-1.508694	3.015894	0.011002	0.011237	-0.000599	-0.526611	0.246338	-0.678223
316.0	9.434373	-1.532565	3.065285	0.008987	0.013748	-0.002992	-0.517334	0.239746	-0.684814
317.0	9.418706	-1.513912	3.060604	0.011311	0.012941	-0.003985	-0.517578	0.244141	-0.675781
318.0	9.461005	-1.546212	3.053326	0.009397	0.015686	-0.001239	-0.521973	0.244141	-0.68042
319.0	9.418446	-1.54721	3.058969	0.010341	0.016141	0.000727	-0.52417	0.241943	-0.680176
320.0	9.444774	-1.527473	3.05044	0.008988	0.013749	-0.002994	-0.512695	0.237549	-0.680176
321.0	9.432281	-1.530062	3.072964	0.013087	0.015446	-0.001853	-0.526611	0.246338	-0.682861
322.0	9.473934	-1.527997	3.070672	0.013932	0.015667	-0.005026	-0.52417	0.239746	-0.677979
323.0	9.431481	-1.528585	3.076151	0.016059	0.011565	-0.000832	-0.52417	0.241943	-0.684814
324.0	9.443297	-1.524711	3.056391	0.014706	0.009172	-0.004553	-0.521973	0.239746	-0.677979
325.0	9.431035	-1.527148	3.078231	0.012198	0.004856	-0.001714	-0.521973	0.241943	-0.677979
326.0	9.44559	-1.510507	3.089719	0.010409	0.00418	-0.000509	-0.521973	0.241943	-0.67334
327.0	9.446133	-1.544334	3.085414	0.009578	0.002132	-0.000675	-0.521973	0.239746	-0.680176
328.0	9.470229	-1.537695	3.04395	0.008508	0.005097	-0.001104	-0.519775	0.241943	-0.680176
329.0	9.443278	-1.556576	3.054818	0.00596	0.009089	-0.003715	-0.522217	0.246338	-0.678223
330.0	9.430321	-1.525066	3.081449	0.007438	0.008063	-0.001533	-0.517334	0.237549	-0.682373
331.0	9.42743	-1.537657	3.050811	0.008453	0.015235	-0.003218	-0.52417	0.241943	-0.682617
332.0	9.418132	-1.561361	3.100397	0.008988	0.013753	-0.003004	-0.521973	0.239746	-0.682617
333.0	9.426575	-1.536693	3.053935	0.009804	0.017632	0.0005	-0.528809	0.241943	-0.680176
334.0	9.443973	-1.54121	3.093579	0.012256	0.013403	-0.002028	-0.515137	0.241943	-0.680176
335.0	9.443557	-1.540719	3.095091	0.011298	0.014777	-0.000658	-0.526367	0.237549	-0.680176
336.0	9.457802	-1.523942	3.107539	0.014046	0.01408	-0.003235	-0.517334	0.239746	-0.682617
337.0	9.442689	-1.539477	3.098356	0.013918	0.017503	-0.0017	-0.52417	0.241943	-0.680176
338.0	9.457531	-1.556719	3.106312	0.013935	0.015673	-0.005039	-0.521973	0.239746	-0.682617
339.0	9.44241	-1.572086	3.097262	0.018975	0.017831	-0.001931	-0.526367	0.239746	-0.677979
340.0	9.424085	-1.566427	3.061145	0.01951	0.016349	-0.001716	-0.524414	0.244141	-0.685059
341.0	9.441339	-1.570534	3.10131	0.023904	0.021583	-0.000628	-0.517334	0.241943	-0.680176
342.0	9.395477	-1.549989	3.080284	0.018441	0.019317	-0.002152	-0.521973	0.241943	-0.684814
343.0	9.410159	-1.567192	3.088769	0.022003	0.022502	-0.001229	-0.52417	0.241943	-0.684814
344.0	9.423482	-1.515976	3.106754	0.020638	0.021936	-0.001611	-0.519531	0.237549	-0.684814
345.0	9.423503	-1.549389	3.104403	0.021173	0.020455	-0.001396	-0.524414	0.246338	-0.678223
346.0	9.431874	-1.524442	3.058641	0.022004	0.022506	-0.001235	-0.517334	0.237549	-0.682373
347.0	9.419713	-1.561023	3.077318	0.022114	0.020917	0.000568	-0.515381	0.246338	-0.675781
348.0	9.445877	-1.541002	3.069567	0.027706	0.019764	0.000558	-0.519775	0.241943	-0.682617
349.0	9.433073	-1.543277	3.092858	0.023905	0.021595	-0.000643	-0.52417	0.244141	-0.68042
350.0	9.447749	-1.560374	3.101428	0.023501	0.019653	-0.002393	-0.519775	0.241943	-0.682617
351.0	9.459375	-1.556355	3.082658	0.027302	0.017826	-0.001195	-0.521973	0.244141	-0.68042
352.0	9.404576	-1.559702	3.109494	0.027728	0.017934	-0.002784	-0.515381	0.246338	-0.682861
353.0	9.443075	-1.536314	3.08052	0.029737	0.015432	-0.00038	-0.526367	0.241943	-0.680176
354.0	9.400477	-1.536688	3.086296	0.027302	0.017831	-0.001203	-0.517578	0.246338	-0.68042
355.0	9.429912	-1.537281	3.105457	0.032491	0.014735	-0.002956	-0.522217	0.246338	-0.68042
356.0	9.401975	-1.521144	3.122058	0.029629	0.017026	-0.002194	-0.517334	0.237549	-0.680176
357.0	9.40152	-1.520016	3.123978	0.030699	0.014063	-0.001755	-0.521973	0.239746	-0.687256
358.0	9.41634	-1.536846	3.132247	0.02773	0.017943	-0.0028	-0.519531	0.237549	-0.689453
359.0	9.398829	-1.56515	3.091688	0.030057	0.017137	-0.003787	-0.52417	0.241943	-0.680176
360.0	9.415329	-1.534326	3.13652	0.030888	0.019191	-0.003631	-0.519531	0.237549	-0.687012
361.0	9.429463	-1.51675	3.149425	0.031127	0.014176	-0.003348	-0.519531	0.239746	-0.675537
362.0	9.396837	-1.526907	3.102196	0.032517	0.012906	-0.006302	-0.517334	0.241943	-0.682617
363.0	9.439244	-1.558523	3.095773	0.031638	0.01454	0.000199	-0.521973	0.244141	-0.682617
364.0	9.411349	-1.54236	3.112123	0.035356	0.012461	-0.003738	-0.52417	0.241943	-0.689453
365.0	9.425618	-1.524706	3.124632	0.030298	0.012131	-0.003516	-0.521973	0.241943	-0.684814
366.0	9.428327	-1.544413	3.153573	0.031235	0.012599	-0.001552	-0.521973	0.241943	-0.682617
367.0	9.436492	-1.485109	3.111331	0.032733	0.00974	-0.002694	-0.521973	0.239746	-0.682617
368.0	9.436867	-1.518147	3.108424	0.031236	0.012602	-0.001557	-0.514893	0.235352	-0.677734
369.0	9.436499	-1.517029	3.110087	0.031236	0.012604	-0.001559	-0.521729	0.237549	-0.684814
370.0	9.441451	-1.523408	3.171068	0.030997	0.017622	-0.001856	-0.515137	0.239746	-0.682617
371.0	9.453865	-1.553467	3.14789	0.031426	0.017727	-0.003445	-0.52417	0.239746	-0.682617
372.0	9.422759	-1.516387	3.137278	0.028563	0.020019	-0.00269	-0.51709	0.235352	-0.69165
373.0	9.44974	-1.530315	3.124953	0.031104	0.016044	-5.1e-05	-0.519775	0.241943	-0.689453
374.0	9.424747	-1.535012	3.168828	0.033327	0.016822	-0.002848	-0.519531	0.237549	-0.680176
375.0	9.394415	-1.532103	3.153616	0.031962	0.016252	-0.00323	-0.519531	0.239746	-0.677979
376.0	9.393998	-1.530801	3.155492	0.029767	0.013629	-0.003763	-0.521729	0.235352	-0.682373
377.0	9.423463	-1.530999	3.174583	0.029662	0.015214	-0.005579	-0.521973	0.239746	-0.682617
378.0	9.4231	-1.529703	3.176285	0.028508	0.011477	-0.002332	-0.517334	0.239746	-0.680176
379.0	9.405169	-1.523956	3.13975	0.028298	0.014645	-0.005962	-0.519775	0.241943	-0.682617
380.0	9.407765	-1.543456	3.16901	0.026904	0.015926	-0.003017	-0.515137	0.239746	-0.689453
381.0	9.434141	-1.523169	3.160779	0.028374	0.014917	-0.000827	-0.517334	0.239746	-0.687256
382.0	9.403888	-1.520487	3.145264	0.029769	0.013638	-0.003775	-0.519531	0.237549	-0.682373
383.0	9.433298	-1.520977	3.16435	0.027945	0.01482	0.000756	-0.519531	0.239746	-0.680176
384.0	9.402997	-1.518632	3.148821	0.02658	0.014249	0.000376	-0.521729	0.237549	-0.682373
385.0	9.417771	-1.535633	3.15727	0.027305	0.017886	-0.001292	-0.517334	0.237549	-0.689453
386.0	9.389678	-1.519614	3.173703	0.025941	0.017315	-0.001672	-0.519531	0.237549	-0.684814
387.0	9.443463	-1.514452	3.151543	0.021903	0.024151	-0.003197	-0.521729	0.237549	-0.682373
388.0	9.403629	-1.535599	3.185063	0.023906	0.021663	-0.000776	-0.526611	0.244141	-0.68042
389.0	9.429822	-1.51556	3.177282	0.021177	0.020517	-0.001533	-0.519287	0.233154	-0.682373
390.0	9.387107	-1.515904	3.183068	0.023939	0.019809	-0.004102	-0.514893	0.235352	-0.689209
391.0	9.411213	-1.509192	3.14329	0.021849	0.015601	-0.002812	-0.519775	0.241943	-0.689453
392.0	9.428283	-1.512651	3.183231	0.020588	0.013448	-0.001373	-0.517334	0.237549	-0.682373
393.0	9.398127	-1.510301	3.167312	0.018825	0.010918	-0.003486	-0.515381	0.244141	-0.687256
394.0	9.413134	-1.527094	3.17519	0.018324	0.010543	-0.007039	-0.517334	0.237549	-0.682373
395.0	9.425205	-1.523283	3.155511	0.015665	0.009673	-0.002656	-0.515137	0.239746	-0.682617
396.0	9.424161	-1.488183	3.161018	0.016391	0.013309	-0.004329	-0.514893	0.235352	-0.682373
397.0	9.424584	-1.521527	3.158211	0.017461	0.010347	-0.003867	-0.519531	0.239746	-0.684814
398.0	9.394449	-1.519382	3.142166	0.011833	0.013348	-0.000556	-0.514893	0.235352	-0.68457
399.0	9.411509	-1.523061	3.181936	0.017324	0.013787	-0.002367	-0.514893	0.237549	-0.680176
400.0	9.381328	-1.520824	3.166067	0.01596	0.013213	-0.002745	-0.515137	0.237549	-0.689453
401.0	9.40857	-1.535046	3.153268	0.018291	0.012405	-0.003724	-0.521729	0.237549	-0.687012
402.0	9.427828	-1.524842	3.22474	0.015425	0.014696	-0.00298	-0.521729	0.237549	-0.684814
403.0	9.395492	-1.536067	3.177215	0.015461	0.012836	-0.0063	-0.517334	0.241943	-0.680176
404.0	9.409675	-1.518652	3.18946	0.016393	0.013314	-0.004336	-0.517334	0.237549	-0.682373
405.0	9.436174	-1.498522	3.180855	0.016393	0.013315	-0.004337	-0.519775	0.241943	-0.682617
406.0	9.418464	-1.493382	3.143819	0.01337	0.008627	-0.005005	-0.514893	0.237549	-0.682373
407.0	9.423383	-1.499504	3.203892	0.009278	0.006902	-0.006137	-0.52417	0.239746	-0.682617
408.0	9.430537	-1.48885	3.124603	0.011177	0.005996	-0.005527	-0.517334	0.239746	-0.682617
409.0	9.433328	-1.508693	3.152886	0.008845	0.006805	-0.004551	-0.517334	0.239746	-0.684814
410.0	9.433159	-1.507897	3.153772	0.010107	0.008959	-0.005994	-0.514893	0.237549	-0.682373
411.0	9.406144	-1.526304	3.164728	0.007481	0.00623	-0.004929	-0.519531	0.235352	-0.687012
412.0	9.391495	-1.541937	3.154781	0.012006	0.008054	-0.005384	-0.521729	0.235352	-0.682373
413.0	9.432573	-1.505577	3.15663	0.009	0.013785	-0.003145	-0.519531	0.239746	-0.691895
414.0	9.39086	-1.540461	3.15739	0.011765	0.013074	-0.005709	-0.51709	0.235352	-0.689209
415.0	9.43188	-1.504088	3.15941	0.009535	0.012305	-0.002912	-0.523926	0.233154	-0.68457
416.0	9.431557	-1.503515	3.160648	0.01007	0.010824	-0.002679	-0.512695	0.235352	-0.682373
417.0	9.431276	-1.50278	3.161836	0.010937	0.011018	-0.005854	-0.52417	0.239746	-0.684814
418.0	9.435981	-1.508894	3.222349	0.009433	0.013884	-0.004736	-0.51709	0.235352	-0.68457
419.0	9.430648	-1.501223	3.164445	0.00914	0.010346	-0.004645	-0.521729	0.237549	-0.684814
420.0	9.415947	-1.516774	3.154741	0.010543	0.009059	-0.007585	-0.510498	0.235352	-0.68457
421.0	9.40262	-1.484383	3.180599	0.006948	0.007713	-0.005166	-0.523926	0.237549	-0.687012
422.0	9.403254	-1.517779	3.177392	0.014341	0.00725	-0.006362	-0.514893	0.235352	-0.69165
423.0	9.417573	-1.50045	3.18906	0.008311	0.00829	-0.00479	-0.521729	0.235352	-0.68457
424.0	9.399976	-1.495666	3.151701	0.010605	0.009346	-0.002448	-0.51709	0.235352	-0.68457
425.0	9.399709	-1.495103	3.152766	0.008706	0.010251	-0.003061	-0.517334	0.237549	-0.680176
426.0	9.401536	-1.480849	3.185448	0.007342	0.009675	-0.003438	-0.510498	0.235352	-0.679932
427.0	9.414416	-1.511978	3.161605	0.005939	0.010963	-0.000499	-0.519775	0.241943	-0.680176
428.0	9.416185	-1.497966	3.194321	0.005009	0.010483	-0.002465	-0.519531	0.239746	-0.684814
429.0	9.413893	-1.511125	3.163569	0.004222	0.00656	-0.005923	-0.515137	0.241943	-0.684814
430.0	9.41374	-1.510342	3.164399	0.006848	0.009292	-0.006992	-0.517334	0.239746	-0.680176
431.0	9.416405	-1.530199	3.192948	0.009241	0.008772	-0.002826	-0.512695	0.237549	-0.680176
432.0	9.413337	-1.508991	3.16624	0.008848	0.00681	-0.004556	-0.51709	0.230957	-0.682129
433.0	9.430506	-1.512304	3.205474	0.010111	0.008965	-0.006002	-0.521973	0.239746	-0.689453
434.0	9.428232	-1.525291	3.17481	0.01114	0.007869	-0.002214	-0.519531	0.235352	-0.68457
435.0	9.4012	-1.543694	3.185795	0.011081	0.007581	-0.007354	-0.517334	0.237549	-0.689453
436.0	9.400306	-1.508458	3.190528	0.010354	0.003945	-0.005672	-0.512451	0.230957	-0.686768
437.0	9.412621	-1.505009	3.170263	0.012211	0.004908	-0.001743	-0.521484	0.230957	-0.682129
438.0	9.412489	-1.504207	3.171036	0.014343	0.007255	-0.006365	-0.51709	0.233154	-0.682373
439.0	9.399137	-1.471691	3.196753	0.012545	0.006582	-0.005155	-0.521729	0.237549	-0.677734
440.0	9.397738	-1.518907	3.161995	0.011575	0.007967	-0.003805	-0.517334	0.237549	-0.682373
441.0	9.427258	-1.519514	3.18047	0.012938	0.008546	-0.003428	-0.521484	0.233154	-0.677734
442.0	9.396527	-1.483009	3.167926	0.009183	0.008485	-0.007972	-0.514893	0.237549	-0.680176
443.0	9.424825	-1.531478	3.150882	0.015664	0.009703	-0.002674	-0.521729	0.235352	-0.68457
444.0	9.426579	-1.517065	3.18365	0.010068	0.010835	-0.002693	-0.517334	0.237549	-0.682373
445.0	9.411045	-1.498612	3.177961	0.009676	0.008872	-0.004421	-0.517334	0.239746	-0.680176
446.0	9.437731	-1.478601	3.168765	0.012546	0.006584	-0.005157	-0.519531	0.235352	-0.68457
447.0	9.411537	-1.531204	3.175785	0.013374	0.008644	-0.005018	-0.517334	0.241943	-0.687256
448.0	9.411383	-1.530312	3.176672	0.014445	0.005682	-0.004543	-0.514648	0.230957	-0.682129
449.0	9.407547	-1.474618	3.153876	0.015273	0.007742	-0.004404	-0.517334	0.237549	-0.680176
450.0	9.395783	-1.510804	3.171671	0.016736	0.006745	-0.002202	-0.514893	0.235352	-0.68457
451.0	9.395627	-1.510074	3.172483	0.01401	0.005588	-0.002957	-0.512939	0.244141	-0.682617
452.0	9.39755	-1.495402	3.204759	0.015417	0.004298	-0.005895	-0.514893	0.235352	-0.682373
453.0	9.40988	-1.491724	3.184647	0.015809	0.006263	-0.004169	-0.519775	0.241943	-0.689453
454.0	9.423013	-1.522587	3.160596	0.012211	0.004916	-0.001748	-0.510254	0.233154	-0.68457
455.0	9.395215	-1.50687	3.175226	0.013183	0.00353	-0.003097	-0.526367	0.239746	-0.684814
456.0	9.434454	-1.484262	3.144748	0.013719	0.00205	-0.002859	-0.515137	0.239746	-0.694092
457.0	9.422787	-1.520706	3.162172	0.011775	0.004822	-0.000161	-0.521973	0.239746	-0.680176
458.0	9.424662	-1.50634	3.1944	0.012647	0.005012	-0.003337	-0.510498	0.235352	-0.687012
459.0	9.424563	-1.505706	3.194989	0.012747	0.003437	-0.001511	-0.515137	0.239746	-0.691895
460.0	9.410002	-1.521576	3.184947	0.013474	0.007072	-0.003201	-0.521484	0.233154	-0.69165
461.0	9.409852	-1.521106	3.185616	0.008613	0.003571	0.000672	-0.51709	0.233154	-0.689209
462.0	9.394493	-1.502868	3.179256	0.011821	0.002952	-0.003476	-0.514893	0.233154	-0.679932
463.0	9.419294	-1.496884	3.138051	0.009486	0.003759	-0.002504	-0.514893	0.235352	-0.679932
464.0	9.42124	-1.482521	3.170014	0.008659	0.0017	-0.002642	-0.510498	0.235352	-0.687012
465.0	9.421226	-1.481997	3.170302	0.008659	0.0017	-0.002642	-0.521973	0.241943	-0.682617
466.0	9.436501	-1.499254	3.177384	0.007296	0.00112	-0.003018	-0.508057	0.233154	-0.68457
467.0	9.406828	-1.4974	3.16002	0.009631	0.000313	-0.00399	-0.519531	0.235352	-0.68457
468.0	9.394444	-1.49931	3.181079	0.01143	0.000987	-0.005202	-0.515137	0.239746	-0.682617
469.0	9.407784	-1.530252	3.156525	0.007832	-0.00036	-0.002779	-0.517334	0.239746	-0.675537
470.0	9.409815	-1.515885	3.188211	0.009195	0.00022	-0.002403	-0.521973	0.239746	-0.675537
471.0	9.437501	-1.530371	3.174584	0.011285	0.004435	-0.003719	-0.519531	0.237549	-0.687012
472.0	9.451828	-1.513134	3.185922	0.009386	0.005335	-0.004335	-0.519531	0.237549	-0.684814
473.0	9.449719	-1.526371	3.15503	0.00705	0.006142	-0.003364	-0.515137	0.241943	-0.687256
474.0	9.436341	-1.494041	3.180313	0.008996	0.003369	-0.00606	-0.521729	0.235352	-0.687012
475.0	9.420923	-1.475733	3.174121	0.007004	0.008016	-5.2e-05	-0.519531	0.237549	-0.682373
476.0	9.418734	-1.489296	3.143337	0.009876	0.005729	-0.000784	-0.519531	0.237549	-0.684814
477.0	9.406194	-1.491506	3.164692	0.00676	0.002601	-0.00326	-0.521729	0.237549	-0.687012
478.0	9.421421	-1.508745	3.171958	0.006224	0.004082	-0.003501	-0.519287	0.233154	-0.682373
479.0	9.391637	-1.50699	3.154901	0.007587	0.004662	-0.003125	-0.517334	0.237549	-0.682373
480.0	9.408824	-1.510345	3.193762	0.006761	0.002602	-0.00326	-0.514893	0.235352	-0.68457
481.0	9.407884	-1.475515	3.198065	0.007587	0.004663	-0.003125	-0.512939	0.244141	-0.68042
482.0	9.405848	-1.48879	3.166998	0.005298	0.003595	-0.005466	-0.519531	0.237549	-0.687012
483.0	9.405769	-1.488258	3.167484	0.010412	0.004251	-0.000544	-0.521973	0.239746	-0.684814
484.0	9.405689	-1.487727	3.16797	0.005298	0.003595	-0.005466	-0.512695	0.237549	-0.687012
485.0	9.435278	-1.488483	3.186066	0.011337	0.004739	0.001419	-0.52417	0.239746	-0.684814
486.0	9.42072	-1.504639	3.175987	0.012211	0.004925	-0.001757	-0.512939	0.241943	-0.694092
487.0	9.43781	-1.50785	3.215164	0.013474	0.007079	-0.003211	-0.523926	0.237549	-0.682373
488.0	9.446373	-1.449848	3.171253	0.016835	0.005189	-0.000389	-0.514648	0.230957	-0.686768
489.0	9.417438	-1.482303	3.150518	0.017809	0.003802	-0.001737	-0.521729	0.237549	-0.682373
490.0	9.488406	-1.446959	3.168975	0.020928	-0.003505	-0.002118	-0.514893	0.233154	-0.689209
491.0	9.58147	-1.385949	3.117918	0.031929	-0.000427	0.002716	-0.523926	0.233154	-0.682373
492.0	9.667431	-1.368434	3.144086	0.040536	0.013593	0.006228	-0.521484	0.233154	-0.68457
493.0	9.657161	-1.390799	3.194901	0.03878	0.021485	0.006976	-0.523926	0.237549	-0.682373
494.0	9.625885	-1.437027	3.143983	0.045893	0.007056	0.003045	-0.519287	0.233154	-0.687012
495.0	9.603792	-1.42595	3.04703	0.051209	-0.005859	0.008778	-0.517334	0.237549	-0.680176
496.0	9.60478	-1.459642	3.043218	0.051018	-0.010967	0.010716	-0.514893	0.235352	-0.687012
497.0	9.604921	-1.458855	3.043151	0.057246	-0.006884	0.007197	-0.523926	0.237549	-0.682373
498.0	9.543656	-1.46953	2.976789	0.059436	-0.004235	0.007694	-0.514893	0.235352	-0.687012
499.0	9.445992	-1.439345	3.008638	0.064154	0.002717	0.00527	-0.52417	0.239746	-0.682617
500.0	9.45905	-1.469856	2.985562	0.057875	0.008776	0.006471	-0.521484	0.233154	-0.68457
501.0	9.414555	-1.484378	2.959084	0.059727	0.00977	0.010386	-0.517334	0.237549	-0.682373
502.0	9.372105	-1.484836	2.963781	0.06192	0.001973	0.008056	-0.523926	0.237549	-0.684814
503.0	9.36642	-1.443364	2.908819	0.066499	-0.006311	0.009894	-0.514893	0.237549	-0.680176
504.0	9.43182	-1.367534	2.871283	0.0629	-0.007645	0.012319	-0.514893	0.233154	-0.69165
505.0	9.511579	-1.275377	2.844352	0.058958	-0.002395	0.012543	-0.521729	0.235352	-0.68457
506.0	9.563576	-1.168077	2.83131	0.057595	-0.002973	0.012164	-0.519287	0.230957	-0.67749
507.0	9.630527	-1.16163	2.786775	0.052487	-0.001435	0.015689	-0.519287	0.233154	-0.682373
508.0	9.641058	-1.090795	2.773717	0.040075	0.007222	0.016619	-0.514893	0.235352	-0.68457
509.0	9.642217	-1.160189	2.768173	0.028199	0.0144	0.017798	-0.521729	0.237549	-0.687012
510.0	9.638793	-1.141085	2.742053	0.022066	0.017001	0.01753	-0.521484	0.230957	-0.686768
511.0	9.595517	-1.226379	2.709329	0.015058	0.027663	0.014801	-0.519531	0.237549	-0.680176
512.0	9.526095	-1.282102	2.72311	0.010928	0.046492	0.014144	-0.51709	0.230957	-0.689209
513.0	9.512748	-1.319669	2.745926	0.010013	0.064682	0.009332	-0.519531	0.237549	-0.680176
514.0	9.500904	-1.34248	2.80168	0.009246	0.079419	0.003053	-0.512695	0.237549	-0.687012
515.0	9.515422	-1.42865	2.809881	0.01495	0.084974	-0.000743	-0.514893	0.237549	-0.684814
516.0	9.561443	-1.501225	2.867342	0.010914	0.081336	-0.005168	-0.510498	0.235352	-0.689209
517.0	9.570135	-1.429188	2.861326	0.022112	0.079102	-0.005125	-0.514893	0.235352	-0.68457
518.0	9.584955	-1.431418	2.907824	0.027178	0.07947	-0.005359	-0.510254	0.22876	-0.691406
519.0	9.5658	-1.343622	2.915726	0.045576	0.082143	-0.00174	-0.512695	0.235352	-0.689209
520.0	9.534728	-1.292589	2.94131	0.059922	0.083401	0.0059	-0.510498	0.235352	-0.69165
521.0	9.476496	-1.260662	2.977374	0.079238	0.086588	0.01148	-0.512939	0.239746	-0.687256
522.0	9.432402	-1.212297	3.024298	0.089434	0.088008	0.02129	-0.516846	0.22876	-0.686768
523.0	9.385419	-1.227534	3.005709	0.093169	0.098623	0.02856	-0.514893	0.235352	-0.687012
524.0	9.367516	-1.244524	3.006087	0.098737	0.110261	0.039736	-0.505859	0.235352	-0.69165
525.0	9.419146	-1.276423	2.991554	0.091637	0.12478	0.043452	-0.512695	0.233154	-0.693848
526.0	9.413844	-1.243681	3.008242	0.096733	0.136014	0.051053	-0.505615	0.230957	-0.691406
527.0	9.440014	-1.232233	3.071745	0.092891	0.139759	0.053007	-0.512451	0.230957	-0.691406
528.0	9.445517	-1.212581	3.037327	0.085874	0.142257	0.055796	-0.505859	0.230957	-0.693848
529.0	9.465498	-1.176494	3.013358	0.083309	0.137656	0.053556	-0.507813	0.22876	-0.686768
530.0	9.48789	-1.160403	3.017219	0.071821	0.1364	0.053525	-0.503418	0.230957	-0.689209
531.0	9.479801	-1.158139	2.970855	0.052455	0.124666	0.048398	-0.503662	0.233154	-0.693848
532.0	9.54084	-1.102251	2.914045	0.036647	0.1169	0.05439	-0.503662	0.233154	-0.693848
533.0	9.57448	-1.031582	2.869019	0.022563	0.10084	0.054636	-0.503906	0.239746	-0.696533
534.0	9.600181	-1.037589	2.89738	0.005706	0.106178	0.057646	-0.503662	0.233154	-0.696289
535.0	9.577717	-0.986101	2.843031	-0.017529	0.09852	0.059631	-0.499268	0.235352	-0.696289
536.0	9.574582	-0.992273	2.851433	-0.03812	0.082711	0.052704	-0.505859	0.235352	-0.693848
537.0	9.55327	-1.024301	2.756471	-0.052069	0.062801	0.0464	-0.499268	0.237549	-0.694092
538.0	9.509068	-1.114652	2.725638	-0.072989	0.043814	0.044747	-0.501465	0.237549	-0.69873
539.0	9.467579	-1.176007	2.75631	-0.100022	0.049314	0.035978	-0.506104	0.241943	-0.696533
540.0	9.425663	-1.320907	2.750102	-0.133219	0.069902	0.032781	-0.501709	0.241943	-0.691895
541.0	9.453168	-1.398361	2.768189	-0.189587	0.103555	0.031734	-0.503906	0.244141	-0.698975
542.0	9.426452	-1.534884	2.836507	-0.246113	0.152841	0.032874	-0.501465	0.239746	-0.694092
543.0	9.311359	-1.620436	2.887043	-0.313745	0.203843	0.023432	-0.49707	0.241943	-0.696533
544.0	9.067282	-1.723472	2.913646	-0.377913	0.240008	0.000461	-0.490479	0.244141	-0.696533
545.0	8.778449	-1.771541	2.917513	-0.404276	0.258045	-0.037028	-0.497314	0.246338	-0.694336
546.0	8.573643	-1.828046	2.885988	-0.391921	0.270172	-0.091125	-0.495117	0.246338	-0.698975
547.0	8.554717	-1.879668	2.886377	-0.367823	0.256306	-0.143194	-0.488525	0.253174	-0.69458
548.0	8.67537	-1.865261	2.83741	-0.314731	0.234005	-0.188778	-0.486084	0.244385	-0.696533
549.0	8.956122	-1.836295	2.893474	-0.255733	0.192139	-0.227686	-0.488525	0.248779	-0.69458
550.0	9.248135	-1.770862	2.842183	-0.216929	0.180218	-0.262877	-0.486328	0.253174	-0.697021
551.0	9.686449	-1.790256	2.845876	-0.212069	0.159146	-0.277585	-0.493164	0.253174	-0.697021
552.0	10.000848	-1.879714	2.844269	-0.208642	0.15425	-0.271286	-0.483887	0.246582	-0.698975
553.0	10.243255	-2.036658	2.66563	-0.20073	0.151493	-0.229032	-0.486328	0.250977	-0.699219
554.0	10.301353	-2.098281	2.615742	-0.175898	0.154977	-0.167573	-0.483887	0.248779	-0.696777
555.0	10.314838	-2.134005	2.571261	-0.141018	0.141518	-0.079193	-0.486328	0.253174	-0.697021
556.0	10.182889	-2.135623	2.433226	-0.111206	0.104134	-0.008385	-0.481689	0.246582	-0.694336
557.0	10.022803	-2.123682	2.398336	-0.07213	0.119289	0.067911	-0.484131	0.255371	-0.699463
558.0	9.862719	-2.163989	2.327948	-0.042267	0.116698	0.110941	-0.477295	0.250977	-0.69458
559.0	9.690693	-2.225703	2.396681	-0.023008	0.129507	0.135712	-0.479492	0.253174	-0.69458
560.0	9.60764	-2.324565	2.762707	-0.003031	0.162486	0.144025	-0.477295	0.253174	-0.69458
561.0	9.786848	-2.343287	3.117988	0.000701	0.194462	0.160705	-0.477295	0.253174	-0.699219
562.0	9.745714	-2.303639	3.095646	-0.028998	0.218323	0.183741	-0.475098	0.250977	-0.699219
563.0	9.491356	-2.252056	3.04992	-0.078037	0.262452	0.183364	-0.4729	0.257568	-0.704102
564.0	9.236178	-2.182084	3.129892	-0.083329	0.310619	0.182004	-0.470703	0.257568	-0.70874
565.0	9.136356	-2.160283	3.345272	-0.075964	0.337112	0.194822	-0.468506	0.255371	-0.70166
566.0	9.047976	-2.094036	3.486109	-0.099768	0.320964	0.197611	-0.46875	0.261963	-0.713623
567.0	8.819118	-1.997096	3.496402	-0.126488	0.270087	0.189316	-0.46875	0.261963	-0.706543
568.0	8.651453	-1.967751	3.381184	-0.137629	0.228305	0.170361	-0.459473	0.257568	-0.701904
569.0	8.741699	-2.04175	3.309177	-0.131926	0.195627	0.161994	-0.461914	0.261963	-0.706543
570.0	8.806493	-2.189343	3.263624	-0.117943	0.150657	0.153853	-0.459717	0.261963	-0.706543
571.0	8.830805	-2.2855	3.100344	-0.104507	0.107141	0.145485	-0.464355	0.266357	-0.699707
572.0	8.912179	-2.392632	3.033176	-0.084356	0.070452	0.120082	-0.45752	0.264404	-0.708984
573.0	8.952605	-2.519092	2.990355	-0.058326	0.046637	0.097767	-0.459961	0.266357	-0.704346
574.0	9.065433	-2.64854	2.876464	-0.029267	0.044551	0.071806	-0.45752	0.266602	-0.708984
575.0	9.247805	-2.632131	2.743148	0.009218	0.007416	0.063395	-0.457764	0.270996	-0.699951
576.0	9.246719	-2.572577	2.661954	0.048374	-0.020931	0.052978	-0.455322	0.266602	-0.706787
577.0	9.231216	-2.403504	2.554678	0.080437	-0.037819	0.049744	-0.459717	0.26416	-0.704346
578.0	9.245788	-2.33849	2.451879	0.105919	-0.050438	0.045643	-0.455322	0.264404	-0.708984
579.0	9.23241	-2.334185	2.410131	0.122805	-0.052735	0.039598	-0.455566	0.270996	-0.707031
580.0	9.150069	-2.353108	2.283739	0.141541	-0.059216	0.037905	-0.45752	0.261963	-0.701904
581.0	9.12201	-2.379521	2.348391	0.168224	-0.058062	0.024681	-0.45752	0.26416	-0.702148
582.0	9.055109	-2.503773	2.248717	0.19541	-0.060028	0.013525	-0.457275	0.257568	-0.701904
583.0	9.18469	-2.677021	2.287062	0.21825	-0.034848	-0.006095	-0.459717	0.261963	-0.701904
584.0	9.341554	-2.759549	2.331283	0.257128	-0.004404	-0.042989	-0.457031	0.255371	-0.699463
585.0	9.329178	-2.813011	2.439828	0.309958	-0.020088	-0.077284	-0.46167	0.255371	-0.70166
586.0	9.359441	-2.730105	2.475019	0.362303	-0.043835	-0.100928	-0.46167	0.253174	-0.697021
587.0	9.375624	-2.612711	2.533174	0.394771	-0.051973	-0.110151	-0.456787	0.248779	-0.713135
588.0	9.391778	-2.473045	2.563122	0.428118	-0.055383	-0.107364	-0.461182	0.244385	-0.698975
589.0	9.408043	-2.325832	2.533088	0.449822	-0.054806	-0.105508	-0.459229	0.248779	-0.703857
590.0	9.354256	-2.232788	2.506204	0.479503	-0.053564	-0.092363	-0.45874	0.242188	-0.703613
591.0	9.315013	-2.193164	2.483795	0.496702	-0.053617	-0.076558	-0.467773	0.23999	-0.708008
592.0	9.331267	-2.137432	2.473869	0.520665	-0.047499	-0.062441	-0.453857	0.229004	-0.707764
593.0	9.348854	-2.170932	2.485847	0.53635	-0.047157	-0.057696	-0.453857	0.231201	-0.705566
594.0	9.421448	-2.107648	2.396633	0.548879	-0.061764	-0.051096	-0.458252	0.226807	-0.709961
595.0	9.523873	-2.110375	2.26047	0.553953	-0.071126	-0.049209	-0.460449	0.226807	-0.700684
596.0	9.626043	-2.119327	2.183608	0.552575	-0.069237	-0.047019	-0.459961	0.213623	-0.702393
597.0	9.728565	-2.144363	2.075404	0.557167	-0.078633	-0.043537	-0.458008	0.222412	-0.705078
598.0	9.87463	-2.219149	1.933353	0.561069	-0.088958	-0.047135	-0.45752	0.211426	-0.704834
599.0	9.90701	-2.258973	1.713729	0.552802	-0.09117	-0.03993	-0.459961	0.213623	-0.707031
600.0	9.910148	-2.270345	1.534883	0.545454	-0.11411	-0.035547	-0.457275	0.204834	-0.702148
601.0	9.912969	-2.274454	1.505251	0.532399	-0.110055	-0.032222	-0.46167	0.202393	-0.702148
602.0	10.186965	-2.368671	2.049719	0.512638	-0.100036	-0.010832	-0.454834	0.198242	-0.704346
603.0	11.603983	-2.312485	4.697727	0.483248	0.036475	0.079152	-0.457031	0.197998	-0.697266
604.0	13.476588	-1.418687	3.905899	0.204738	0.154972	0.31197	-0.450195	0.193848	-0.706299
605.0	13.49653	-1.013714	3.44481	-0.122064	0.302286	0.384879	-0.457275	0.202637	-0.704346
606.0	12.16939	-0.098341	3.73877	-0.294998	0.337216	0.360197	-0.445801	0.200439	-0.704346
607.0	11.989603	-1.028951	2.774605	-0.153901	0.321872	0.378273	-0.448242	0.202637	-0.706787
608.0	11.060964	-1.666427	3.586334	-0.06236	0.131263	0.318407	-0.439209	0.200439	-0.701904
609.0	10.268846	-1.708046	3.350608	0.033945	-0.107728	0.213921	-0.446045	0.202637	-0.706787
610.0	9.78046	-1.944172	3.210534	0.102161	-0.263816	0.116942	-0.448242	0.204834	-0.709229
611.0	9.521723	-2.434729	3.243041	0.126413	-0.33232	0.033683	-0.446045	0.204834	-0.709229
612.0	9.757977	-2.949271	3.238473	0.204499	-0.276807	-0.004383	-0.450439	0.198242	-0.708984
613.0	9.964997	-3.345309	3.885043	0.271239	-0.21426	0.015204	-0.450439	0.202637	-0.704346
614.0	9.904201	-3.386959	4.329075	0.303068	-0.245744	0.047802	-0.448242	0.202637	-0.706787
615.0	9.306699	-2.865222	4.413584	0.389515	-0.27727	0.109886	-0.459229	0.195801	-0.701904
616.0	8.496993	-2.083631	4.479068	0.512454	-0.232922	0.188253	-0.452393	0.191406	-0.69458
617.0	7.872293	-1.410558	4.88339	0.613176	-0.136461	0.270043	-0.456787	0.193604	-0.704102
618.0	7.552085	-0.990189	5.054236	0.638335	-0.028029	0.346637	-0.45459	0.191406	-0.697021
619.0	7.751655	-0.801079	5.468869	0.60072	0.05147	0.38085	-0.452393	0.19165	-0.710938
620.0	8.000693	-0.561307	5.173974	0.536131	0.003195	0.391898	-0.44751	0.182617	-0.706055
621.0	8.062205	-0.033003	4.882917	0.465592	-0.054822	0.373463	-0.45459	0.189209	-0.70166
622.0	8.019913	0.51277	4.894974	0.397364	-0.046262	0.343766	-0.452148	0.184814	-0.708496
623.0	8.000691	0.79673	4.838932	0.311149	0.015099	0.32568	-0.449951	0.187012	-0.703857
624.0	8.250316	0.654376	4.688577	0.220904	0.043769	0.307547	-0.447266	0.18042	-0.708252
625.0	8.676018	0.277484	4.550211	0.123213	-0.007212	0.282964	-0.452148	0.184814	-0.698975
626.0	9.073023	-0.151579	4.479158	0.047567	-0.066097	0.213072	-0.445068	0.182617	-0.701416
627.0	9.372876	-0.474299	4.183249	-0.005591	-0.115195	0.112672	-0.452148	0.187012	-0.703857
628.0	9.38343	-0.656813	3.974019	-0.036983	-0.153879	0.000291	-0.44751	0.184814	-0.701416
629.0	9.283721	-0.757454	3.682634	-0.037957	-0.1743	-0.117501	-0.452148	0.187012	-0.692139
630.0	9.301929	-0.846429	3.647496	-0.017359	-0.180713	-0.234269	-0.449707	0.184814	-0.694336
631.0	9.248474	-0.941804	3.503937	0.001958	-0.185661	-0.325979	-0.452148	0.187012	-0.701416
632.0	9.184387	-0.959825	3.379018	0.025302	-0.198909	-0.39141	-0.451904	0.18042	-0.694336
633.0	9.023013	-0.919464	3.245566	0.041946	-0.194615	-0.423565	-0.454102	0.178223	-0.691895
634.0	8.975158	-0.930685	3.221988	0.036872	-0.165938	-0.427742	-0.449219	0.173828	-0.696289
635.0	8.982432	-0.995924	3.210493	0.000825	-0.135154	-0.412114	-0.453857	0.176025	-0.691895
636.0	9.101115	-1.030948	3.158092	-0.025667	-0.100227	-0.394103	-0.453857	0.171631	-0.693848
637.0	9.121065	-1.11841	3.162398	-0.05409	-0.05254	-0.364496	-0.456055	0.173828	-0.694092
638.0	9.054958	-1.157206	3.141668	-0.060246	-0.020749	-0.341533	-0.447021	0.169434	-0.698486
639.0	8.972111	-1.148194	3.052612	-0.052343	-0.011519	-0.311273	-0.451416	0.171631	-0.689209
640.0	8.791007	-1.089796	3.017005	-0.043583	0.013354	-0.282768	-0.453613	0.169434	-0.693848
641.0	8.634811	-1.139322	2.884524	-0.028515	0.029977	-0.258128	-0.451416	0.171631	-0.696289
642.0	8.409521	-1.139237	2.823605	-0.021661	0.0278	-0.231689	-0.448975	0.165039	-0.693604
643.0	8.169758	-1.159566	2.75368	-0.020385	0.039637	-0.2122	-0.451416	0.171631	-0.696289
644.0	8.071688	-1.076079	2.778932	-0.032917	0.057175	-0.183736	-0.455566	0.160645	-0.691162
645.0	8.070699	-0.994491	2.782599	-0.053164	0.069464	-0.156888	-0.451416	0.167236	-0.693848
646.0	8.150233	-0.811	2.723641	-0.078296	0.079417	-0.145071	-0.448975	0.165039	-0.700684
647.0	8.341906	-0.696743	2.623947	-0.10637	0.090824	-0.125678	-0.45166	0.178223	-0.696533
648.0	8.645677	-0.529271	2.573127	-0.139968	0.126312	-0.116326	-0.446533	0.162842	-0.698242
649.0	8.90737	-0.362937	2.586914	-0.184976	0.156795	-0.108124	-0.44458	0.169434	-0.693848
650.0	9.109974	-0.182131	2.535015	-0.224385	0.166356	-0.106001	-0.444824	0.171631	-0.696289
651.0	9.258926	-0.089652	2.53581	-0.281611	0.155378	-0.096419	-0.446777	0.167236	-0.696045
652.0	9.23965	-0.071965	2.479239	-0.350628	0.131069	-0.097647	-0.440186	0.171631	-0.693848
653.0	9.209874	-0.159043	2.440461	-0.420881	0.107092	-0.106485	-0.442627	0.173828	-0.694092
654.0	9.098147	-0.317692	2.399684	-0.493534	0.088522	-0.120493	-0.433594	0.174072	-0.700928
655.0	8.833073	-0.464245	2.426989	-0.543907	0.059325	-0.129972	-0.442871	0.18042	-0.698975
656.0	8.764976	-0.571144	2.406994	-0.579183	0.015759	-0.140191	-0.436035	0.178223	-0.694336
657.0	8.793519	-0.587513	2.332971	-0.598145	-0.018754	-0.148255	-0.436279	0.187256	-0.69458
658.0	9.043029	-0.824844	2.397002	-0.620458	-0.022514	-0.148842	-0.436523	0.189453	-0.69458
659.0	9.539199	-1.181102	2.619721	-0.668629	-0.012616	-0.162798	-0.432129	0.193848	-0.690186
660.0	10.028302	-1.31267	2.817995	-0.657576	-0.001321	-0.173583	-0.432129	0.19165	-0.692383
661.0	10.209415	-1.413167	3.25193	-0.601137	0.014241	-0.196063	-0.434326	0.193848	-0.690186
662.0	10.266425	-1.3106	3.34751	-0.530923	-0.029526	-0.20975	-0.432129	0.196045	-0.690186
663.0	10.247462	-1.258025	2.789244	-0.513666	-0.076857	-0.205555	-0.432373	0.200439	-0.687988
664.0	10.462427	-1.29525	2.52859	-0.484803	-0.085134	-0.208179	-0.439209	0.202637	-0.69043
665.0	10.285741	-1.298654	2.59566	-0.452854	-0.089044	-0.215343	-0.4375	0.213623	-0.688477
666.0	10.224049	-1.208407	2.15784	-0.432762	-0.093246	-0.20719	-0.43042	0.207031	-0.688232
667.0	10.939213	-1.29121	3.158864	-0.376644	0.038231	-0.21577	-0.435059	0.211426	-0.683838
668.0	13.44695	-2.50276	6.716757	-0.323315	0.409611	-0.36451	-0.432617	0.204834	-0.685791
669.0	14.900561	-3.466862	5.87126	-0.296943	0.154272	-0.573172	-0.428223	0.209229	-0.688477
670.0	13.874817	-3.705454	4.8307	0.118699	-0.240181	-0.662414	-0.429932	0.198242	-0.685547
671.0	12.421948	-3.763402	4.073408	0.246547	-0.481152	-0.770343	-0.432373	0.202637	-0.685791
672.0	10.843808	-2.376619	2.491128	0.277054	-0.759014	-0.717012	-0.438965	0.193848	-0.678467
673.0	10.068153	-0.602112	1.400227	0.366356	-0.815819	-0.537416	-0.45459	0.191406	-0.673828
674.0	10.401689	0.602996	1.30984	0.370999	-0.617385	-0.286597	-0.445557	0.191406	-0.673828
675.0	11.037466	0.882568	2.019563	0.188884	-0.282967	-0.02046	-0.45459	0.195801	-0.674072
676.0	10.984482	0.937768	3.493319	-0.07236	0.049252	0.141137	-0.440918	0.189209	-0.676025
677.0	10.686149	0.937317	4.282759	-0.268397	0.172628	0.148233	-0.436523	0.19165	-0.676025
678.0	9.854382	0.923285	4.178464	-0.333326	0.097761	0.047094	-0.446045	0.202637	-0.678955
679.0	8.71872	0.806184	4.289155	-0.372706	-0.018009	-0.081569	-0.443604	0.202637	-0.681152
680.0	7.968782	0.19545	4.746077	-0.388568	-0.025202	-0.212308	-0.441406	0.200439	-0.676514
681.0	7.84498	-0.757271	4.792293	-0.405636	0.034799	-0.302707	-0.444092	0.209229	-0.672119
682.0	8.131819	-1.868351	5.103398	-0.45799	0.116191	-0.3623	-0.435059	0.211426	-0.676758
683.0	8.299489	-2.739954	5.334668	-0.525764	0.114702	-0.409676	-0.439453	0.209229	-0.683838
684.0	8.367764	-3.049498	4.901758	-0.533814	0.042086	-0.433603	-0.437012	0.202637	-0.678955
685.0	8.337747	-2.995295	4.602165	-0.497834	-0.029236	-0.417038	-0.439697	0.21582	-0.674805
686.0	8.417304	-2.790137	4.631149	-0.466962	-0.084709	-0.38552	-0.444092	0.211426	-0.676758
687.0	8.473869	-2.45746	4.433348	-0.42615	-0.127955	-0.337273	-0.444336	0.21582	-0.681641
688.0	8.740373	-2.299654	4.015024	-0.299928	-0.163412	-0.281968	-0.44873	0.218018	-0.679443
689.0	9.060405	-2.48175	3.59394	-0.138055	-0.191778	-0.195627	-0.448975	0.220215	-0.674805
690.0	9.291435	-2.355688	3.417005	0.004457	-0.173248	-0.073734	-0.444336	0.218018	-0.672363
691.0	9.386245	-2.046375	3.405859	0.088199	-0.122439	0.08527	-0.446777	0.220215	-0.670166
692.0	9.365989	-1.576891	3.306424	0.139324	-0.064721	0.264616	-0.439941	0.218018	-0.677002
693.0	9.022307	-1.242923	3.335658	0.13953	-0.011256	0.397176	-0.44458	0.222412	-0.672607
694.0	8.81997	-1.138795	3.446051	0.112129	0.044456	0.504403	-0.439941	0.222412	-0.67041
695.0	8.505374	-1.317682	3.583764	0.06723	0.072796	0.564762	-0.442383	0.226807	-0.675049
696.0	8.232468	-1.387047	3.713142	0.015631	0.09914	0.568606	-0.437988	0.229004	-0.675293
697.0	8.062411	-1.383735	3.775181	-0.033469	0.105349	0.528807	-0.438477	0.237793	-0.670898
698.0	8.176201	-1.239529	3.777591	-0.078669	0.088908	0.45489	-0.436035	0.235596	-0.680176
699.0	8.208848	-1.13881	3.687071	-0.100873	0.083073	0.355058	-0.436279	0.244385	-0.677979
700.0	8.408117	-1.296774	3.597153	-0.077171	0.066912	0.27276	-0.427246	0.242188	-0.668701
701.0	8.671182	-1.746176	3.408853	-0.022283	0.068153	0.23133	-0.431885	0.246582	-0.675781
702.0	8.73026	-2.083246	3.344304	0.034491	0.07156	0.21834	-0.433838	0.23999	-0.67334
703.0	8.664841	-2.287419	3.28215	0.097383	0.072639	0.210978	-0.429932	0.251221	-0.671387
704.0	8.710526	-2.329034	3.114606	0.164963	0.057247	0.216447	-0.431885	0.244385	-0.675781
705.0	8.685924	-2.372428	2.929073	0.224676	0.022305	0.213397	-0.432129	0.250977	-0.673584
706.0	8.662338	-2.428185	2.710329	0.272334	-0.011333	0.202831	-0.427246	0.23999	-0.680176
707.0	8.459697	-2.530886	2.514407	0.352144	-0.004033	0.177808	-0.42749	0.249023	-0.685303
708.0	8.3115	-2.519128	2.460914	0.434237	-0.014369	0.131806	-0.422852	0.246826	-0.668945
709.0	8.273693	-2.44205	2.399294	0.524028	-0.045157	0.094581	-0.42749	0.244629	-0.68042
710.0	8.147822	-2.220415	2.442324	0.600145	-0.109196	0.063526	-0.424805	0.237793	-0.677979
711.0	8.109013	-2.003511	2.443253	0.661478	-0.211755	0.04402	-0.427002	0.237793	-0.675537
712.0	8.091527	-1.928287	2.311956	0.722853	-0.307063	0.025643	-0.429199	0.231201	-0.675293
713.0	8.065343	-1.873783	2.221965	0.785144	-0.40861	0.007779	-0.429199	0.235596	-0.677734
714.0	8.361554	-1.875338	1.976011	0.860124	-0.445938	0.004352	-0.433594	0.229004	-0.670654
715.0	8.738958	-1.824456	1.756118	0.957327	-0.44434	0.014544	-0.442383	0.226807	-0.668213
716.0	9.130971	-1.823328	1.771498	1.014759	-0.419025	0.035988	-0.435303	0.218018	-0.667725
717.0	9.498736	-1.79564	1.888817	1.0084	-0.400291	0.083574	-0.439941	0.220215	-0.670166
718.0	9.738282	-1.795476	1.984794	0.967295	-0.334966	0.144479	-0.432861	0.211426	-0.669922
719.0	9.803606	-1.742462	2.099068	0.8511	-0.246639	0.214531	-0.446289	0.211426	-0.665283
720.0	9.952459	-1.726573	2.213332	0.728973	-0.130795	0.275421	-0.437012	0.204834	-0.667236
721.0	10.108315	-1.598163	2.545118	0.613982	-0.033437	0.32835	-0.437256	0.209229	-0.669922
722.0	10.151191	-1.323357	2.618491	0.494449	0.005098	0.367345	-0.432617	0.207031	-0.674316
723.0	10.766638	-0.703164	2.010612	0.384484	-0.065865	0.378028	-0.432617	0.207031	-0.662842
724.0	10.914485	-0.246234	1.788602	0.349704	-0.098979	0.338566	-0.435059	0.211426	-0.669922
725.0	10.45725	-0.015899	1.445802	0.310479	-0.20916	0.261972	-0.439453	0.207031	-0.674316
726.0	10.095133	-0.347569	0.802334	0.285525	-0.324928	0.173023	-0.432617	0.207031	-0.665039
727.0	10.355801	-1.119232	1.371594	0.300949	-0.338388	0.100713	-0.439697	0.213623	-0.667725
728.0	12.195717	-1.79387	5.444851	0.251525	-0.157632	0.133062	-0.441895	0.211426	-0.672119
729.0	15.167982	-1.232269	1.637427	-0.079121	0.106152	0.314153	-0.435303	0.218018	-0.670166
730.0	15.2888	-0.811013	4.770328	-0.132218	0.326447	0.330243	-0.432861	0.213623	-0.665283
731.0	13.364981	0.181459	4.251991	-0.465848	0.245641	0.305392	-0.430908	0.220215	-0.667969
732.0	12.746534	-1.522586	3.214293	-0.186221	0.229526	0.346994	-0.428955	0.226807	-0.668213
733.0	12.118731	-3.034936	4.217964	0.00324	-0.094828	0.323182	-0.428955	0.229004	-0.668213
734.0	11.061379	-2.896805	3.905079	0.067823	-0.381756	0.293388	-0.426514	0.224609	-0.667969
735.0	9.081181	-1.668395	3.396645	0.193738	-0.490051	0.245208	-0.435791	0.229004	-0.675293
736.0	7.809869	-1.377296	3.568017	0.260113	-0.519712	0.217697	-0.435791	0.231201	-0.658936
737.0	7.912511	-1.523386	3.591616	0.337236	-0.35817	0.291998	-0.44043	0.233398	-0.663818
738.0	8.261824	-1.5591	4.227538	0.419501	-0.078765	0.433609	-0.431152	0.229004	-0.666016
739.0	8.911537	-1.803684	5.177107	0.370914	0.101875	0.548728	-0.434082	0.242188	-0.668701
740.0	9.543338	-1.473863	4.819342	0.339613	0.11292	0.613457	-0.426758	0.231201	-0.670654
741.0	9.633262	-1.041079	4.058894	0.391588	0.097744	0.629413	-0.429199	0.235596	-0.668457
742.0	9.468808	-0.790519	4.029814	0.357071	0.159882	0.6199	-0.424805	0.235596	-0.66626
743.0	9.298364	-0.921525	4.393626	0.271574	0.327401	0.596869	-0.431885	0.242188	-0.664063
744.0	9.435149	-1.167666	4.703046	0.124059	0.400108	0.548089	-0.422852	0.246826	-0.671143
745.0	9.632196	-1.142912	4.978756	-0.04455	0.378776	0.45722	-0.420654	0.249023	-0.668945
746.0	9.8849	-0.814212	4.659812	-0.19502	0.220822	0.321928	-0.418457	0.246826	-0.673584
747.0	9.837133	-0.587651	4.206734	-0.292305	0.078667	0.14742	-0.418457	0.246826	-0.671143
748.0	9.633808	-0.474045	3.742145	-0.312313	0.025001	-0.039428	-0.414063	0.251221	-0.673828
749.0	9.607768	-0.413947	3.382946	-0.26068	0.012886	-0.204644	-0.418701	0.255615	-0.678467
750.0	9.402315	-0.480148	3.151666	-0.194351	0.004823	-0.334291	-0.411621	0.246826	-0.671143
751.0	9.013988	-0.470995	3.063239	-0.138186	0.001556	-0.438474	-0.423096	0.253418	-0.669189
752.0	8.573275	-0.469435	3.029924	-0.085686	0.011679	-0.509798	-0.420654	0.246826	-0.671143
753.0	8.156253	-0.588381	2.989195	-0.052701	0.039932	-0.541064	-0.418701	0.253418	-0.676025
754.0	7.924849	-0.748204	2.976885	-0.038266	0.076073	-0.533951	-0.41626	0.249023	-0.671387
755.0	7.878095	-0.89764	2.961823	-0.044353	0.102404	-0.512216	-0.420654	0.249023	-0.668945
756.0	8.097476	-1.054008	2.908417	-0.067578	0.138504	-0.492866	-0.416016	0.242432	-0.668701
757.0	8.301935	-1.072839	2.815148	-0.084653	0.149244	-0.477138	-0.418457	0.249023	-0.680664
758.0	8.433329	-0.971557	2.674901	-0.113543	0.136585	-0.458196	-0.418457	0.244629	-0.671143
759.0	8.480047	-0.732911	2.537068	-0.12699	0.122022	-0.436496	-0.411865	0.251221	-0.673828
760.0	8.56597	-0.617208	2.368389	-0.126552	0.112734	-0.404725	-0.411621	0.246826	-0.68042
761.0	8.377421	-0.539103	2.319597	-0.149028	0.113814	-0.349546	-0.418701	0.253418	-0.676025
762.0	8.133412	-0.502852	2.29603	-0.184627	0.143789	-0.279133	-0.411621	0.242432	-0.677979
763.0	7.90598	-0.420792	2.343216	-0.240443	0.205696	-0.22858	-0.411865	0.251221	-0.676025
764.0	7.854212	-0.343291	2.302569	-0.29542	0.255457	-0.181533	-0.409424	0.249023	-0.678223
765.0	7.833122	-0.407537	2.284786	-0.336608	0.294534	-0.14318	-0.407471	0.253418	-0.676025
766.0	7.757887	-0.545979	2.291751	-0.388153	0.304221	-0.097473	-0.402832	0.251221	-0.680664
767.0	7.863948	-0.564158	2.295955	-0.435607	0.281195	-0.065852	-0.409668	0.253418	-0.680664
768.0	7.933853	-0.603149	2.129882	-0.486752	0.235636	-0.036319	-0.400879	0.255615	-0.678467
769.0	8.069044	-0.522925	2.146592	-0.552236	0.177677	-0.016739	-0.405762	0.266602	-0.678955
770.0	8.319342	-0.529198	2.142555	-0.617302	0.11066	-0.003306	-0.401123	0.264404	-0.681152
771.0	8.429006	-0.574188	2.099735	-0.681661	0.049753	-0.001137	-0.401367	0.273193	-0.681396
772.0	8.772731	-0.592899	1.91015	-0.741839	-0.020372	-0.023102	-0.401367	0.270996	-0.672119
773.0	9.155685	-0.748624	1.848249	-0.741045	-0.062928	-0.062811	-0.399658	0.284424	-0.677246
774.0	9.45605	-0.793847	2.138857	-0.684897	-0.089506	-0.125451	-0.404053	0.279785	-0.679443
775.0	9.74773	-0.89321	2.183167	-0.615229	-0.14021	-0.176458	-0.406494	0.288818	-0.675049
776.0	10.295689	-1.061507	2.465591	-0.549409	-0.147756	-0.2291	-0.4021	0.286621	-0.675049
777.0	10.636741	-1.349645	3.012658	-0.458945	-0.079477	-0.263487	-0.406494	0.288574	-0.67041
778.0	11.004501	-1.832092	3.390323	-0.376605	-0.027812	-0.270939	-0.404297	0.286621	-0.67041
779.0	11.129987	-2.232954	3.216762	-0.316326	-0.027783	-0.247796	-0.404541	0.293213	-0.670654
780.0	10.848315	-2.483404	2.655392	-0.283263	-0.011318	-0.197902	-0.397461	0.288818	-0.665771
781.0	10.403497	-2.406506	2.228573	-0.267252	0.021098	-0.13708	-0.404785	0.297607	-0.670898
782.0	10.292608	-1.890096	1.826705	-0.285429	-0.001526	-0.085872	-0.402344	0.29541	-0.673096
783.0	10.554716	-1.292721	1.644957	-0.375746	0.063212	-0.049723	-0.398193	0.304199	-0.67334
784.0	11.595772	-0.903006	3.08695	-0.452976	0.309448	-0.064509	-0.393555	0.299805	-0.670898
785.0	13.998359	-1.673533	7.392755	-0.400816	0.686358	-0.233543	-0.39624	0.308594	-0.678223
786.0	15.097205	-2.732232	4.808606	-0.354935	-0.050627	-0.472283	-0.402588	0.299805	-0.673096
787.0	13.458863	-3.023853	3.8834	0.031895	-0.146684	-0.601742	-0.407227	0.304199	-0.671143
788.0	11.751556	-2.505112	3.814788	0.122859	-0.407032	-0.764578	-0.400391	0.299805	-0.670898
789.0	11.544755	-1.330601	3.00928	0.196445	-0.366364	-0.756113	-0.418213	0.295166	-0.670654
790.0	10.851263	0.09005	3.197845	0.178697	-0.335806	-0.608737	-0.408691	0.28418	-0.667969
791.0	9.832875	0.55359	2.612867	0.107864	-0.254882	-0.384798	-0.413574	0.295166	-0.670654
792.0	8.673559	0.475962	3.16291	-0.076285	-0.106552	-0.211775	-0.413574	0.290771	-0.675293
793.0	7.768757	0.194451	3.485407	-0.214641	0.025142	-0.179651	-0.41333	0.288574	-0.67041
794.0	7.88063	-0.465245	4.447925	-0.228989	0.104555	-0.286706	-0.413574	0.292969	-0.670654
795.0	8.639152	-1.288862	5.231134	-0.194455	0.040157	-0.43268	-0.40918	0.29541	-0.670654
796.0	8.882696	-1.888331	5.304302	-0.234321	-0.088124	-0.537683	-0.420166	0.290771	-0.672852
797.0	9.327307	-2.564539	5.001773	-0.349648	-0.166	-0.663085	-0.415771	0.290771	-0.666016
798.0	9.595595	-2.753581	4.305386	-0.383549	-0.156914	-0.745629	-0.41333	0.286377	-0.667969
799.0	9.336391	-2.662868	3.856355	-0.237424	-0.098543	-0.772275	-0.422363	0.288574	-0.67041
800.0	9.175566	-2.363011	3.892375	-0.038465	-0.057124	-0.724973	-0.419922	0.281982	-0.667969
801.0	9.417498	-1.879253	3.811926	0.114629	-0.069863	-0.596228	-0.424561	0.288574	-0.67041
802.0	10.187366	-1.409675	3.618667	0.20027	-0.107052	-0.383572	-0.426514	0.281982	-0.667969
803.0	10.855783	-1.228906	3.53871	0.258995	-0.201258	-0.099035	-0.433594	0.286377	-0.67041
804.0	10.863665	-0.841986	3.039557	0.306427	-0.267417	0.180612	-0.424316	0.281982	-0.670166
805.0	10.281101	-0.952988	2.793634	0.338672	-0.250252	0.39483	-0.424316	0.281982	-0.679443
806.0	9.645805	-1.43929	2.60819	0.350553	-0.20566	0.532285	-0.428955	0.281982	-0.677246
807.0	9.001184	-1.899699	2.668117	0.360396	-0.12607	0.612458	-0.431152	0.279785	-0.677002
808.0	8.287634	-2.085426	2.747398	0.361294	-0.029979	0.651818	-0.428955	0.28418	-0.667969
809.0	7.69633	-2.034511	2.972852	0.360724	0.055757	0.643796	-0.427002	0.292969	-0.670654
810.0	7.140684	-1.884969	3.234664	0.318847	0.081028	0.588358	-0.422119	0.281982	-0.677246
811.0	6.971804	-1.694708	3.354356	0.250658	0.075247	0.511492	-0.426758	0.286377	-0.681885
812.0	7.034287	-1.499878	3.292386	0.188121	0.073828	0.438157	-0.427002	0.290771	-0.67749
813.0	7.247121	-1.515342	3.233216	0.15568	0.088459	0.350465	-0.424561	0.288574	-0.684326
814.0	7.636703	-1.710885	3.027906	0.133901	0.080921	0.278071	-0.420166	0.286377	-0.681885
815.0	8.022692	-1.820643	2.858077	0.139802	0.051994	0.22079	-0.422607	0.295166	-0.682373
816.0	8.20619	-1.89057	2.654409	0.15457	0.00645	0.193476	-0.422363	0.290771	-0.672852
817.0	8.285111	-1.880757	2.45292	0.196353	0.010159	0.176044	-0.417969	0.292969	-0.682129
818.0	8.434994	-1.800974	2.332393	0.249583	0.038066	0.182809	-0.429443	0.292969	-0.68457
819.0	8.439243	-1.760716	2.123768	0.323775	0.064646	0.185354	-0.417969	0.288574	-0.682129
820.0	8.438512	-1.918739	2.037717	0.413515	0.076075	0.193446	-0.424561	0.288574	-0.684326
821.0	8.294593	-2.002175	2.020602	0.51155	0.100328	0.183652	-0.413086	0.28418	-0.679688
822.0	8.243505	-2.214407	1.995094	0.585463	0.125859	0.171478	-0.420166	0.288574	-0.688965
823.0	8.20482	-2.198004	1.971498	0.637386	0.112708	0.145362	-0.413086	0.279785	-0.695557
824.0	8.146308	-2.049916	2.171271	0.695893	0.050812	0.123606	-0.421875	0.277588	-0.700195
825.0	8.005941	-1.834496	2.430782	0.736259	-0.051648	0.107212	-0.415039	0.270996	-0.690674
826.0	8.231195	-1.637327	2.383889	0.758431	-0.135259	0.118614	-0.42627	0.270996	-0.699951
827.0	8.81639	-1.470112	2.172152	0.75599	-0.169358	0.12686	-0.414551	0.264404	-0.695068
828.0	9.487268	-1.356532	2.118954	0.743768	-0.145	0.138593	-0.426025	0.264404	-0.692871
829.0	9.999048	-1.169674	2.086284	0.731355	-0.117126	0.151624	-0.419189	0.264404	-0.69751
830.0	10.35861	-1.097926	2.385184	0.690651	-0.091672	0.195128	-0.421387	0.262207	-0.699707
831.0	10.565068	-1.145599	2.481577	0.601452	-0.007241	0.261915	-0.414307	0.255615	-0.710938
832.0	10.725035	-1.407046	2.817829	0.484913	0.141139	0.311949	-0.425781	0.262207	-0.701904
833.0	10.739539	-1.627636	3.227375	0.332302	0.236323	0.340781	-0.407471	0.255615	-0.70874
834.0	10.768939	-1.430126	3.197537	0.237989	0.236603	0.343502	-0.414307	0.255615	-0.704102
835.0	10.91876	-1.035	2.747114	0.175886	0.164705	0.33305	-0.409912	0.255615	-0.70166
836.0	10.752471	-0.634534	2.317503	0.137564	0.046637	0.285058	-0.409912	0.26001	-0.711182
837.0	10.569331	-0.489399	1.834741	0.118198	-0.06221	0.203355	-0.409668	0.253418	-0.706299
838.0	10.627416	-0.865155	1.293735	0.108633	-0.131826	0.110884	-0.412354	0.26001	-0.708984
839.0	10.736354	-1.691294	1.440464	0.107706	-0.171459	0.020491	-0.409912	0.255615	-0.706299
840.0	11.581041	-2.656549	4.108681	0.110406	-0.14566	-0.030592	-0.418701	0.251221	-0.708496
841.0	13.848586	-2.192656	3.566125	-0.173723	-0.051611	0.11131	-0.412354	0.262207	-0.711182
842.0	14.702304	-2.081355	3.240173	-0.045628	0.284555	0.191287	-0.421387	0.262207	-0.706543
843.0	13.331092	-0.342597	5.98972	-0.38583	0.190212	0.196067	-0.412109	0.257813	-0.70874
844.0	12.922605	-0.919558	3.06819	-0.419991	0.190516	0.2448	-0.407959	0.264404	-0.711426
845.0	11.541404	-2.366548	4.206795	-0.20458	0.118512	0.259704	-0.410156	0.266602	-0.709229
846.0	10.537389	-2.990558	4.317433	-0.145858	-0.095729	0.219841	-0.412598	0.268799	-0.711426
847.0	9.35779	-1.971374	3.489322	-0.033123	-0.195418	0.247874	-0.415039	0.273193	-0.714111
848.0	7.62239	-0.969894	3.45758	0.053629	-0.383291	0.238019	-0.416992	0.268799	-0.711426
849.0	7.151387	-0.996739	3.226146	0.112411	-0.406356	0.235862	-0.417236	0.273193	-0.707031
850.0	7.843341	-1.131483	3.613536	0.271956	-0.212679	0.345836	-0.419434	0.270996	-0.71167
851.0	8.293499	-1.307399	4.787219	0.29969	0.026001	0.467213	-0.41748	0.277588	-0.711914
852.0	9.25786	-1.232973	5.282111	0.197762	0.073074	0.524217	-0.415039	0.273193	-0.714111
853.0	9.962567	-0.768942	4.305732	0.212188	0.046978	0.537618	-0.41748	0.277832	-0.714111
854.0	10.139717	-0.606165	3.761729	0.290162	0.074746	0.511237	-0.415039	0.275635	-0.714111
855.0	10.034029	-0.653497	3.97536	0.260193	0.195839	0.455658	-0.410645	0.277832	-0.709473
856.0	10.035534	-1.190774	3.94956	0.169871	0.29929	0.391364	-0.410645	0.273438	-0.723389
857.0	10.070049	-1.696555	4.233952	0.016527	0.272489	0.302314	-0.408691	0.282227	-0.721191
858.0	10.14512	-1.679826	4.074368	-0.173055	0.119681	0.150889	-0.408447	0.275635	-0.71875
859.0	9.9733	-1.33191	3.553762	-0.299726	-0.042075	-0.004738	-0.415527	0.284424	-0.721436
860.0	9.715178	-0.693905	3.410635	-0.306452	-0.111216	-0.154692	-0.40625	0.280029	-0.723633
861.0	9.499293	-0.340885	3.163414	-0.289539	-0.127184	-0.262867	-0.41333	0.288818	-0.719238
862.0	9.35856	0.000828	2.82379	-0.224112	-0.106229	-0.333863	-0.412842	0.273438	-0.71875
863.0	9.044796	-0.088079	2.772744	-0.128181	-0.068282	-0.385139	-0.422363	0.286621	-0.7146
864.0	8.618692	-0.223324	2.744735	-0.056822	-0.041179	-0.417658	-0.419922	0.284424	-0.726074
865.0	8.136424	-0.340491	2.712837	-0.000342	-0.02566	-0.440739	-0.419922	0.280029	-0.716553
866.0	7.668608	-0.523673	2.863262	0.039984	-0.008239	-0.45132	-0.419922	0.280029	-0.723633
867.0	7.401726	-0.731014	2.85015	0.028691	-0.000805	-0.452327	-0.424072	0.273193	-0.716309
868.0	7.344599	-0.889173	2.790703	-0.00266	0.020659	-0.451977	-0.421875	0.273193	-0.720947
869.0	7.347922	-0.892141	2.793819	-0.054364	0.046672	-0.428496	-0.421875	0.275391	-0.71875
870.0	7.454354	-0.830041	2.688607	-0.099944	0.067938	-0.407873	-0.424072	0.275391	-0.71167
871.0	7.526888	-0.71972	2.536165	-0.124587	0.090604	-0.378214	-0.419678	0.273438	-0.725586
872.0	7.717081	-0.472113	2.313188	-0.14042	0.104079	-0.341478	-0.424072	0.270996	-0.716309
873.0	7.783665	-0.315	2.132995	-0.143434	0.11444	-0.290379	-0.428467	0.273193	-0.725586
874.0	7.895816	-0.15493	2.210929	-0.158986	0.133816	-0.233413	-0.426514	0.275391	-0.723389
875.0	8.001475	-0.105741	2.173881	-0.183567	0.15701	-0.169002	-0.421875	0.277588	-0.721191
876.0	8.047996	-0.095943	2.304273	-0.240241	0.197402	-0.103575	-0.417236	0.273193	-0.71875
877.0	8.049253	-0.216699	2.352238	-0.302125	0.219605	-0.04098	-0.419922	0.284424	-0.723633
878.0	8.018021	-0.433577	2.292868	-0.401657	0.205934	0.032306	-0.419922	0.280029	-0.721191
879.0	7.986071	-0.674484	2.199193	-0.486771	0.161423	0.083591	-0.417969	0.288818	-0.721436
880.0	8.188054	-0.808081	2.045248	-0.560478	0.127612	0.108851	-0.419922	0.282227	-0.723633
881.0	8.424935	-0.752048	1.857445	-0.590888	0.129311	0.128458	-0.42041	0.293213	-0.72168
882.0	8.725551	-0.645429	2.056793	-0.58372	0.1192	0.113577	-0.416016	0.29541	-0.72168
883.0	8.887241	-0.625713	1.993245	-0.606134	0.085823	0.080451	-0.420654	0.297607	-0.726563
884.0	9.320344	-0.650262	2.178594	-0.529735	0.000959	0.009316	-0.418213	0.297607	-0.721924
885.0	9.688612	-0.784252	2.108639	-0.482047	-0.057547	-0.07298	-0.418457	0.304199	-0.724365
886.0	10.191663	-1.245906	2.44285	-0.465751	-0.119436	-0.160866	-0.41626	0.306396	-0.719971
887.0	10.476669	-1.515209	2.697236	-0.441429	-0.144187	-0.224282	-0.420898	0.306396	-0.722168
888.0	10.743771	-1.818161	3.047555	-0.366782	-0.145115	-0.26467	-0.420898	0.306396	-0.719971
889.0	10.789482	-1.978885	2.804936	-0.322149	-0.164247	-0.270814	-0.414307	0.310791	-0.717773
890.0	10.714761	-1.925026	2.359497	-0.274401	-0.143083	-0.246807	-0.427734	0.310791	-0.708496
891.0	10.416048	-1.539512	2.009066	-0.226779	-0.101091	-0.200329	-0.425537	0.310791	-0.715332
892.0	10.487994	-1.043081	1.418241	-0.202678	-0.034759	-0.133393	-0.427734	0.306396	-0.719971
893.0	11.034533	-0.864862	1.91416	-0.206737	0.127375	-0.075899	-0.427734	0.310791	-0.710693
894.0	13.380069	-1.626873	6.426717	-0.152068	0.604717	-0.10866	-0.420898	0.308594	-0.715332
895.0	15.258402	-2.877556	7.239173	-0.275634	0.235529	-0.373457	-0.42334	0.310791	-0.715332
896.0	14.674185	-3.482701	3.910833	-0.026395	-0.249866	-0.540114	-0.425293	0.306396	-0.715332
897.0	12.579799	-3.163984	4.470636	0.198494	-0.382951	-0.751434	-0.436768	0.308594	-0.712891
898.0	11.62013	-1.903644	2.799076	0.211365	-0.491474	-0.806589	-0.431641	0.29541	-0.717041
899.0	11.021526	0.183586	3.151109	0.264323	-0.308951	-0.657502	-0.440918	0.297363	-0.719482
900.0	10.821386	1.229425	2.958565	0.152482	-0.122395	-0.395325	-0.436279	0.295166	-0.717041
901.0	10.118314	1.445376	3.329591	-0.029196	0.158167	-0.165712	-0.436279	0.299805	-0.724365
902.0	9.002352	1.129872	4.162565	-0.169558	0.19097	-0.112973	-0.436035	0.290771	-0.719238
903.0	8.730141	0.423212	4.138336	-0.177566	0.039512	-0.222132	-0.445557	0.301758	-0.712646
904.0	9.033859	-0.45878	4.280971	-0.116974	-0.06204	-0.361824	-0.438232	0.290771	-0.7146
905.0	9.439471	-1.364953	4.897098	-0.174818	-0.080419	-0.465565	-0.447754	0.299561	-0.714844
906.0	9.935441	-2.244554	5.010359	-0.353519	-0.101319	-0.586996	-0.442871	0.292969	-0.72168
907.0	10.083028	-2.612457	4.557683	-0.456732	-0.100669	-0.679115	-0.449707	0.297363	-0.712646
908.0	9.628272	-2.618857	4.131761	-0.372021	-0.034286	-0.736424	-0.449463	0.290771	-0.712402
909.0	9.140036	-2.393765	3.871817	-0.191095	0.006948	-0.697439	-0.451904	0.292969	-0.712402
910.0	9.353759	-2.244774	3.631774	-0.007595	0.032269	-0.573477	-0.45166	0.288574	-0.716797
911.0	10.066805	-2.171216	3.54138	0.068755	-0.013947	-0.384174	-0.451904	0.292969	-0.709961
912.0	10.148681	-1.735111	3.357792	0.097567	-0.079465	-0.135676	-0.453857	0.288574	-0.712158
913.0	10.021967	-1.371563	3.211898	0.130681	-0.112093	0.128102	-0.453857	0.286377	-0.714355
914.0	9.633152	-1.193833	2.91525	0.186981	-0.102301	0.353806	-0.460693	0.286377	-0.712158
915.0	9.131605	-1.405476	2.788476	0.223562	-0.072625	0.5101	-0.456299	0.290771	-0.712402
916.0	8.56263	-1.668621	2.709386	0.263558	-0.035542	0.61543	-0.458496	0.286377	-0.709717
917.0	7.955259	-1.709648	2.931515	0.270613	0.029337	0.659345	-0.454346	0.295166	-0.717041
918.0	7.440995	-1.747256	3.100834	0.245023	0.09987	0.652505	-0.456299	0.290771	-0.719238
919.0	7.130654	-1.736692	3.229056	0.183916	0.14598	0.610493	-0.456543	0.295166	-0.719482
920.0	6.886014	-1.587896	3.269401	0.108745	0.17726	0.551519	-0.445068	0.290771	-0.712402
921.0	6.853119	-1.538761	3.339833	0.053278	0.22396	0.485209	-0.451904	0.292969	-0.717041
922.0	6.985846	-1.53446	3.278186	0.014189	0.258798	0.417839	-0.44751	0.292969	-0.72168
923.0	7.367563	-1.708946	3.092984	0.007166	0.270143	0.355094	-0.445557	0.301758	-0.724365
924.0	7.688174	-1.768458	2.96893	0.016309	0.245616	0.298493	-0.447754	0.299561	-0.717285
925.0	7.954038	-1.908964	2.712079	0.049727	0.160372	0.240463	-0.443115	0.299561	-0.721924
926.0	8.141539	-1.989305	2.577683	0.091233	0.071017	0.195906	-0.443115	0.299561	-0.721924
927.0	8.350947	-2.040782	2.308023	0.14328	-0.004385	0.158758	-0.443359	0.302002	-0.726563
928.0	8.577486	-2.122013	2.012475	0.202051	-0.043414	0.125869	-0.445313	0.295166	-0.724121
929.0	8.683442	-2.180161	1.844964	0.271157	-0.043972	0.082371	-0.440918	0.302002	-0.731201
930.0	8.64132	-2.249334	1.789746	0.351923	0.002935	0.045115	-0.440674	0.295166	-0.72168
931.0	8.630036	-2.363197	1.727877	0.442547	0.062512	0.002474	-0.449951	0.299561	-0.731201
932.0	8.512131	-2.484618	1.779942	0.511506	0.121809	-0.013999	-0.449219	0.279785	-0.728271
933.0	8.451798	-2.415687	2.089679	0.566415	0.156195	-0.044919	-0.447021	0.281982	-0.730469
934.0	8.339902	-2.307288	2.282608	0.608427	0.100921	-0.043448	-0.448975	0.277588	-0.728027
935.0	8.269374	-2.120144	2.268384	0.689289	0.007871	-0.038761	-0.446777	0.277588	-0.732666
936.0	8.747442	-2.052178	2.26301	0.751073	-0.096357	0.006684	-0.444092	0.268799	-0.737061
937.0	9.27758	-1.705806	2.008474	0.804455	-0.122908	0.044843	-0.446533	0.273193	-0.741943
938.0	9.777234	-1.420807	1.898431	0.842466	-0.132858	0.104327	-0.448242	0.26001	-0.739014
939.0	9.970305	-1.161462	2.081005	0.811948	-0.124806	0.180051	-0.452881	0.26001	-0.741455
940.0	10.045692	-1.142385	2.184843	0.741158	-0.070977	0.251092	-0.447998	0.251221	-0.743408
941.0	10.151545	-1.215882	2.285823	0.635091	0.031148	0.320209	-0.450439	0.253418	-0.74585
942.0	10.329664	-1.460854	2.558306	0.489377	0.140827	0.370134	-0.452393	0.251221	-0.740967
943.0	10.588979	-1.474142	2.605266	0.341111	0.200672	0.392648	-0.450439	0.255615	-0.736572
944.0	10.802685	-1.105601	2.449296	0.231197	0.185629	0.375043	-0.443604	0.251221	-0.748047
945.0	10.81332	-0.755529	2.098478	0.181227	0.097317	0.323589	-0.447998	0.253418	-0.743408
946.0	10.609997	-0.583612	1.715617	0.171793	-0.02962	0.238759	-0.445557	0.246826	-0.747803
947.0	10.544649	-0.86165	1.384347	0.180434	-0.141151	0.157192	-0.452393	0.249023	-0.747803
948.0	10.495604	-1.386281	1.144066	0.136837	-0.254747	0.078711	-0.452393	0.251221	-0.745605
949.0	10.785131	-2.185123	1.597672	0.074332	-0.3377	0.018598	-0.457031	0.251221	-0.748047
950.0	12.028906	-2.845099	5.752009	0.118845	-0.256496	0.059491	-0.454834	0.251221	-0.750244
951.0	14.233368	-1.893519	1.041089	-0.038679	-0.083446	0.313146	-0.454834	0.251221	-0.73877
952.0	14.506072	-1.859881	5.476541	0.165341	0.44542	0.344566	-0.456787	0.246826	-0.747803
953.0	13.006563	-0.337565	5.217776	-0.406929	0.14487	0.387092	-0.454834	0.253418	-0.743408
954.0	12.350452	-1.243854	3.62858	-0.140819	0.171839	0.46007	-0.454834	0.251221	-0.745605
955.0	11.588295	-2.497528	5.447867	-0.017544	-0.053098	0.457553	-0.46167	0.257813	-0.748291
956.0	11.238582	-2.329276	4.759054	0.055314	-0.123527	0.480143	-0.455078	0.257813	-0.743652
957.0	9.621805	-1.241069	4.385858	0.161976	-0.326644	0.499251	-0.457275	0.257813	-0.743652
958.0	7.820957	-0.692821	3.902529	0.243482	-0.553937	0.457488	-0.470703	0.255371	-0.741211
959.0	7.765782	-0.710457	3.682108	0.380249	-0.399498	0.486927	-0.466309	0.26001	-0.743652
960.0	8.342221	-1.293217	4.52571	0.466037	-0.067829	0.574969	-0.463867	0.255615	-0.741211
961.0	8.858544	-1.487692	5.279242	0.401592	0.003332	0.596358	-0.468506	0.257568	-0.739014
962.0	9.366118	-1.217476	4.201894	0.323377	-0.027082	0.584469	-0.466064	0.253174	-0.73877
963.0	9.469458	-0.929395	3.705126	0.31063	0.044568	0.533542	-0.466309	0.257813	-0.739014
964.0	9.408298	-1.211488	3.67807	0.204455	0.160303	0.47568	-0.463867	0.255615	-0.74585
965.0	9.577501	-1.606514	3.840416	0.081774	0.245953	0.411272	-0.466309	0.257813	-0.743652
966.0	9.831668	-1.836195	4.391292	-0.071289	0.299642	0.29763	-0.459717	0.26001	-0.743652
967.0	10.278406	-1.817761	4.316911	-0.244401	0.205371	0.131535	-0.457275	0.26001	-0.748291
968.0	10.297181	-1.519382	3.881672	-0.32405	0.044141	-0.039141	-0.459717	0.262207	-0.746094
969.0	9.877879	-1.052071	3.668738	-0.321583	-0.008354	-0.188064	-0.462158	0.264404	-0.746094
970.0	9.601916	-0.524276	3.454081	-0.267672	0.001609	-0.290237	-0.462158	0.266602	-0.750977
971.0	9.294332	-0.171455	3.326361	-0.196051	0.018129	-0.352754	-0.471436	0.270996	-0.748779
972.0	8.859537	-0.044965	3.343482	-0.133399	0.043859	-0.376182	-0.46875	0.264404	-0.746094
973.0	8.344482	-0.142953	3.330928	-0.07465	0.07933	-0.39347	-0.470947	0.262207	-0.755371
974.0	7.797595	-0.262032	3.273151	-0.02	0.103415	-0.384392	-0.4729	0.255371	-0.750488
975.0	7.421456	-0.403074	3.236221	0.005043	0.133937	-0.377303	-0.475342	0.26001	-0.75293
976.0	7.305081	-0.493757	3.270922	-0.006277	0.160563	-0.376024	-0.468262	0.253174	-0.73877
977.0	7.229478	-0.501594	3.269781	-0.037691	0.184178	-0.384964	-0.475342	0.257568	-0.743652
978.0	7.417872	-0.532008	3.204753	-0.092085	0.195721	-0.398508	-0.46582	0.246826	-0.75708
979.0	7.692619	-0.473975	3.161194	-0.148236	0.205214	-0.408928	-0.4729	0.253174	-0.750488
980.0	7.916497	-0.371012	2.969078	-0.202604	0.192533	-0.410593	-0.472656	0.246582	-0.747803
981.0	8.071086	-0.28456	2.791587	-0.245679	0.179867	-0.397145	-0.472656	0.246582	-0.752441
982.0	8.100245	-0.269585	2.623823	-0.296249	0.170432	-0.362144	-0.474854	0.248779	-0.752441
983.0	8.158401	-0.310089	2.446946	-0.356419	0.17991	-0.310128	-0.4729	0.250977	-0.759521
984.0	8.110441	-0.509134	2.353125	-0.400299	0.221759	-0.249421	-0.474854	0.246582	-0.750244
985.0	8.04084	-0.867157	2.33741	-0.448349	0.271507	-0.180645	-0.475098	0.250977	-0.759521
986.0	7.969707	-0.927172	2.112099	-0.504193	0.316661	-0.120535	-0.4729	0.250977	-0.757324
987.0	7.869071	-1.069931	2.161045	-0.522074	0.344852	-0.076635	-0.4729	0.255615	-0.759766
988.0	7.821777	-1.094524	2.212924	-0.544759	0.312712	-0.040064	-0.475342	0.26001	-0.757568
989.0	7.922781	-1.051762	2.09617	-0.56277	0.282742	-0.028523	-0.473389	0.264404	-0.755371
990.0	8.17312	-1.177427	2.074413	-0.604908	0.239736	-0.010587	-0.473145	0.262207	-0.755371
991.0	8.348923	-1.064023	2.0902	-0.635107	0.215042	-0.012407	-0.471191	0.266602	-0.762451
992.0	8.666401	-1.171542	1.869951	-0.697668	0.136027	-0.019445	-0.471191	0.268799	-0.760254
993.0	9.26913	-1.216899	1.746441	-0.737923	0.087422	-0.056691	-0.471436	0.275391	-0.758057
994.0	9.852994	-1.160976	2.081929	-0.710478	0.085944	-0.102912	-0.467041	0.275391	-0.755859
995.0	10.303068	-0.91439	2.335942	-0.629764	0.054914	-0.151507	-0.474121	0.28418	-0.751465
996.0	10.450806	-0.764672	2.825325	-0.533666	0.042329	-0.20224	-0.47168	0.279785	-0.758301
997.0	10.545287	-0.851129	3.151197	-0.468983	0.069295	-0.228683	-0.476563	0.288574	-0.756348
998.0	10.532422	-1.226275	3.302067	-0.409012	0.114132	-0.247816	-0.476318	0.281982	-0.756104
999.0	10.451473	-1.71569	3.278442	-0.36601	0.092212	-0.254915	-0.474121	0.286377	-0.758545
1000.0	10.167278	-2.061419	2.99743	-0.314854	0.006558	-0.256437	-0.473877	0.279785	-0.756104
1001.0	9.879435	-1.97878	2.466764	-0.256881	-0.104967	-0.249821	-0.476318	0.28418	-0.760742
1002.0	10.012174	-1.71525	2.169451	-0.225997	-0.155392	-0.245777	-0.480713	0.279785	-0.756104
1003.0	11.57887	-1.860773	4.387509	-0.161415	0.127078	-0.295256	-0.483154	0.281982	-0.762939
1004.0	14.451247	-3.470171	6.508517	-0.177403	0.316203	-0.53086	-0.480469	0.275391	-0.758057
1005.0	13.827517	-3.822789	3.651046	-0.046037	-0.42263	-0.630272	-0.485107	0.275391	-0.755859
1006.0	11.972887	-3.388859	3.148733	0.337721	-0.535997	-0.675031	-0.493896	0.270752	-0.746338
1007.0	12.564494	-2.572484	3.979525	0.35746	-0.437919	-0.74569	-0.498291	0.266357	-0.748535
1008.0	12.866041	-1.402717	3.428311	0.344396	-0.374207	-0.645455	-0.497803	0.255371	-0.750488
1009.0	13.132186	-0.836594	4.332967	0.470494	-0.246265	-0.469514	-0.508789	0.250977	-0.759521
1010.0	11.955597	-0.217426	3.674695	0.47418	-0.264055	-0.304964	-0.506348	0.246582	-0.743164
1011.0	10.26101	0.548837	3.057647	0.513432	-0.202809	-0.144966	-0.515625	0.250977	-0.743408
1012.0	9.670891	0.612833	3.862683	0.243977	0.021469	-0.055774	-0.506104	0.23999	-0.747559
1013.0	9.499353	0.207151	4.364268	-0.091055	0.122655	-0.018913	-0.508789	0.246582	-0.747803
1014.0	8.708211	-0.173848	4.704429	-0.270016	0.026158	-0.055203	-0.513184	0.248779	-0.752441
1015.0	8.128631	-0.353125	4.694231	-0.344776	-0.011482	-0.147184	-0.513428	0.250977	-0.750244
1016.0	8.061232	-0.550814	4.659111	-0.37921	0.016714	-0.224042	-0.510986	0.250977	-0.750244
1017.0	8.101377	-0.804403	4.655518	-0.410698	-0.003058	-0.306374	-0.518066	0.253174	-0.743408
1018.0	8.342167	-1.264863	4.429745	-0.392438	-0.040903	-0.380455	-0.510986	0.246582	-0.740723
1019.0	8.719394	-1.58405	4.26791	-0.314522	-0.080208	-0.407559	-0.520264	0.25293	-0.743408
1020.0	9.091886	-1.764855	4.227162	-0.221275	-0.142273	-0.371684	-0.52002	0.246338	-0.743164
1021.0	9.552396	-1.814327	4.193131	-0.143521	-0.200716	-0.286487	-0.53125	0.248535	-0.738525
1022.0	9.673599	-1.84138	3.94412	-0.068218	-0.206708	-0.165665	-0.526611	0.241943	-0.740723
1023.0	9.429309	-1.905162	3.784507	0.017623	-0.179286	-0.038731	-0.526611	0.246338	-0.745361
1024.0	9.235004	-2.275693	3.451676	0.048703	-0.140736	0.089374	-0.528809	0.244141	-0.733643
1025.0	8.938792	-2.531724	3.196953	0.090298	-0.077256	0.202958	-0.53125	0.248535	-0.738525
1026.0	8.502893	-2.756018	3.21977	0.129191	0.002674	0.31771	-0.531006	0.244141	-0.740723
1027.0	8.062746	-2.603325	3.269625	0.189514	0.073997	0.416652	-0.529297	0.25293	-0.73877
1028.0	7.761217	-2.28305	3.374999	0.253716	0.120643	0.467485	-0.524414	0.248535	-0.745605
1029.0	7.507872	-2.055273	3.70581	0.240166	0.1787	0.498069	-0.526855	0.250732	-0.745605
1030.0	7.457681	-1.785382	3.940017	0.163564	0.240769	0.483936	-0.526611	0.246338	-0.743164
1031.0	7.417875	-1.559491	4.003727	0.083568	0.288962	0.468056	-0.526855	0.25293	-0.745605
1032.0	7.60871	-1.430862	3.944509	0.043665	0.306874	0.435806	-0.524658	0.250732	-0.745605
1033.0	7.935643	-1.412037	3.847101	0.035629	0.313842	0.412795	-0.520264	0.253174	-0.750244
1034.0	8.211723	-1.497213	3.649442	0.068085	0.299069	0.392348	-0.522705	0.257568	-0.755127
1035.0	8.429049	-1.501901	3.507524	0.111668	0.270086	0.373372	-0.522705	0.261963	-0.75293
1036.0	8.504581	-1.655002	3.402919	0.157613	0.22603	0.351487	-0.522461	0.25293	-0.748047
1037.0	8.562848	-1.784447	3.167185	0.204355	0.16823	0.329603	-0.518311	0.259766	-0.766846
1038.0	8.574353	-1.956216	3.128577	0.255016	0.138643	0.294144	-0.513672	0.259766	-0.755127
1039.0	8.66403	-2.062375	2.940165	0.290825	0.124759	0.255965	-0.513428	0.255371	-0.755127
1040.0	8.453432	-2.061642	2.793494	0.340064	0.130837	0.202601	-0.520264	0.253174	-0.757324
1041.0	8.31685	-2.086505	2.665172	0.373454	0.139873	0.145604	-0.51123	0.255371	-0.761963
1042.0	8.169345	-2.125643	2.587938	0.401919	0.153916	0.091683	-0.510986	0.248779	-0.75708
1043.0	8.142649	-1.998623	2.541278	0.459314	0.124971	0.039333	-0.513184	0.246582	-0.766357
1044.0	8.10872	-1.953819	2.478846	0.522745	0.034286	0.004494	-0.512939	0.242188	-0.761475
1045.0	8.068501	-1.767176	2.290475	0.556908	-0.073811	-0.023557	-0.522217	0.248779	-0.766357
1046.0	8.088692	-1.853938	2.149324	0.577112	-0.199342	-0.043369	-0.51709	0.233154	-0.76123
1047.0	8.333886	-1.91158	1.946939	0.597301	-0.258368	-0.062307	-0.526367	0.237549	-0.763672
1048.0	8.841071	-2.094038	1.796373	0.635984	-0.26298	-0.061247	-0.523682	0.22876	-0.765625
1049.0	9.56426	-2.038962	1.767527	0.712597	-0.232113	-0.053212	-0.528076	0.222168	-0.765381
1050.0	10.14956	-2.175424	1.996916	0.776094	-0.208587	-0.031256	-0.530029	0.217773	-0.760742
1051.0	10.447919	-2.052474	2.069728	0.832078	-0.212955	-0.011852	-0.525391	0.213379	-0.765137
1052.0	10.300963	-1.985142	2.258229	0.835391	-0.195421	0.03405	-0.531982	0.211182	-0.767334
1053.0	10.138497	-2.050762	2.266517	0.774164	-0.143332	0.085823	-0.529785	0.211182	-0.767334
1054.0	10.141136	-1.986101	2.418193	0.700073	-0.04952	0.152578	-0.533936	0.200195	-0.766846
1055.0	10.395282	-1.825006	2.359637	0.620476	0.017513	0.232154	-0.536377	0.20459	-0.762451
1056.0	10.644369	-1.332183	2.260039	0.521163	0.063328	0.298742	-0.540527	0.195557	-0.766846
1057.0	10.794903	-0.678902	1.936431	0.421919	0.035688	0.329481	-0.536133	0.202393	-0.764648
1058.0	10.615159	-0.245536	1.480548	0.343083	-0.030164	0.31294	-0.542969	0.202393	-0.76709
1059.0	10.433206	-0.369525	1.418122	0.302041	-0.122124	0.266283	-0.540527	0.195557	-0.769043
1060.0	11.481882	-0.963009	5.422178	0.36704	-0.010467	0.266643	-0.533691	0.193604	-0.764404
1061.0	15.430809	-0.394281	4.472289	0.040498	0.49909	0.469954	-0.533691	0.197998	-0.764648
1062.0	15.606748	0.37328	4.489744	-0.122033	0.614823	0.560387	-0.533936	0.20459	-0.771729
1063.0	12.444459	1.364148	5.548149	-0.547856	0.065004	0.500367	-0.529785	0.208984	-0.776611
1064.0	13.00272	-0.742173	3.487468	-0.379401	0.182167	0.494167	-0.525146	0.208984	-0.771973
1065.0	11.293727	-2.37124	4.702515	-0.247885	0.091008	0.412371	-0.532227	0.217773	-0.776855
1066.0	10.681757	-2.826417	4.669324	-0.180011	-0.153133	0.309281	-0.534668	0.217773	-0.776855
1067.0	9.934306	-2.137134	4.154371	-0.032031	-0.309336	0.246557	-0.536865	0.219971	-0.767578
1068.0	8.648518	-1.801602	4.019925	0.051341	-0.614799	0.105236	-0.539307	0.222168	-0.765381
1069.0	8.236245	-2.196154	3.334739	0.137564	-0.596664	0.037687	-0.539063	0.219971	-0.774658
1070.0	8.586962	-2.533047	3.890725	0.234197	-0.305952	0.101567	-0.545898	0.217773	-0.765381
1071.0	8.695576	-2.690264	4.852559	0.162319	-0.161946	0.18832	-0.545898	0.219971	-0.765381
1072.0	8.856005	-2.118482	4.579494	0.039469	-0.151948	0.254565	-0.550537	0.219971	-0.762939
1073.0	9.10193	-1.421301	3.773836	0.107337	-0.064215	0.286798	-0.54834	0.222168	-0.760742
1074.0	9.253427	-0.998395	3.693572	0.249066	0.053469	0.299792	-0.550537	0.219971	-0.762939
1075.0	9.564239	-0.973673	3.847329	0.282643	0.172894	0.308364	-0.541504	0.222168	-0.767822
1076.0	9.629638	-1.134082	4.048863	0.260284	0.259879	0.294486	-0.548096	0.215576	-0.765137
1077.0	9.38306	-1.417536	4.361605	0.195991	0.290314	0.243755	-0.539307	0.224365	-0.772461
1078.0	9.219318	-1.579872	4.630135	0.076489	0.284719	0.147609	-0.536865	0.219971	-0.77002
1079.0	9.031505	-1.447631	4.438235	-0.033456	0.212824	0.054927	-0.541748	0.226563	-0.774902
1080.0	8.904009	-1.019453	4.009731	-0.090094	0.119631	-0.029729	-0.541504	0.222168	-0.765381
1081.0	8.951008	-0.620466	4.012915	-0.104409	0.096808	-0.098996	-0.546143	0.226563	-0.772461
1082.0	9.045271	-0.335641	3.824133	-0.062662	0.096008	-0.166729	-0.539307	0.222168	-0.774658
1083.0	8.935756	-0.287032	3.582847	-0.004157	0.078242	-0.213108	-0.543701	0.222168	-0.77002
1084.0	8.590271	-0.28841	3.453519	0.072491	0.06766	-0.272927	-0.543945	0.224365	-0.772461
1085.0	8.132182	-0.368426	3.34443	0.133998	0.066302	-0.323081	-0.541504	0.219971	-0.774658
1086.0	7.763695	-0.402431	3.348632	0.166399	0.071392	-0.365332	-0.541016	0.211182	-0.769775
1087.0	7.50859	-0.571666	3.381217	0.193376	0.070719	-0.397853	-0.538574	0.206787	-0.77417
1088.0	7.551782	-0.721415	3.433244	0.201496	0.071862	-0.403128	-0.541016	0.208984	-0.78125
1089.0	7.537315	-0.825584	3.413993	0.177386	0.0856	-0.405819	-0.536621	0.213379	-0.78125
1090.0	7.717319	-0.815906	3.309996	0.153114	0.114474	-0.400728	-0.552002	0.199951	-0.776123
1091.0	7.948912	-0.695944	3.08521	0.118554	0.117287	-0.399313	-0.542969	0.200195	-0.778564
1092.0	8.123075	-0.580871	2.821564	0.09001	0.094972	-0.386592	-0.544922	0.195557	-0.77832
1093.0	8.144126	-0.499609	2.603675	0.088678	0.082703	-0.374734	-0.540527	0.197998	-0.776123
1094.0	8.111878	-0.407781	2.525974	0.101511	0.094605	-0.340222	-0.544678	0.188965	-0.773438
1095.0	8.251247	-0.492609	2.402343	0.1182	0.100792	-0.29827	-0.540527	0.195801	-0.782959
1096.0	8.277449	-0.470708	2.370969	0.118967	0.102248	-0.242504	-0.540283	0.188965	-0.780518
1097.0	8.315888	-0.340494	2.428851	0.095151	0.124211	-0.176339	-0.544922	0.193604	-0.787598
1098.0	8.347391	-0.146109	2.331304	0.036007	0.158237	-0.110245	-0.537842	0.186768	-0.780273
1099.0	8.42151	-0.011047	2.210887	-0.01136	0.184222	-0.060347	-0.540283	0.193604	-0.785156
1100.0	8.431748	0.035983	2.321814	-0.067439	0.185532	-0.008689	-0.537842	0.186768	-0.778076
1101.0	8.471335	-0.021127	2.311238	-0.151262	0.159956	0.04123	-0.540283	0.193604	-0.787598
1102.0	8.441499	-0.10769	2.250066	-0.241396	0.098988	0.06554	-0.535889	0.195801	-0.7854
1103.0	8.497767	-0.234636	2.126963	-0.335201	0.06426	0.068144	-0.540527	0.200195	-0.787842
1104.0	8.667297	-0.316505	2.07449	-0.414621	0.02423	0.04236	-0.545166	0.197998	-0.780762
1105.0	9.016637	-0.205123	2.161173	-0.461758	0.030078	0.004055	-0.536133	0.200195	-0.7854
1106.0	9.296128	-0.050306	2.343676	-0.454882	-0.032975	-0.046781	-0.540527	0.200195	-0.778564
1107.0	9.699326	-0.217714	2.539134	-0.455214	-0.034329	-0.066403	-0.543213	0.208984	-0.78125
1108.0	10.31578	-0.43166	2.703479	-0.492304	-0.044869	-0.095631	-0.538574	0.206787	-0.776367
1109.0	10.781959	-0.706382	3.031146	-0.47395	-0.034741	-0.118545	-0.545654	0.213379	-0.78125
1110.0	10.952278	-0.998052	3.239915	-0.427026	-0.059415	-0.132417	-0.543457	0.213379	-0.771973
1111.0	10.818063	-1.209886	2.934217	-0.366332	-0.06677	-0.130742	-0.543457	0.213379	-0.790771
1112.0	10.323269	-1.190596	2.637309	-0.31993	-0.088541	-0.101318	-0.536621	0.213379	-0.779053
1113.0	10.024347	-1.148944	2.326163	-0.322805	-0.096812	-0.067944	-0.546143	0.222168	-0.781738
1114.0	9.955179	-0.954675	1.814599	-0.374746	-0.090094	-0.044837	-0.54126	0.215576	-0.772217
1115.0	10.489744	-0.974972	2.437446	-0.382466	-0.015842	-0.053284	-0.54834	0.222168	-0.774658
1116.0	13.036696	-2.088276	7.260032	-0.231828	0.530805	-0.210123	-0.545898	0.217773	-0.779297
1117.0	15.574905	-3.676133	6.90392	-0.409699	0.019308	-0.559162	-0.543701	0.219971	-0.779297
1118.0	13.663592	-3.969026	4.243448	0.016827	-0.48663	-0.651404	-0.543457	0.215576	-0.774414
1119.0	12.340263	-3.728397	5.255301	0.140896	-0.458784	-0.836244	-0.556885	0.213135	-0.769775
1120.0	11.498067	-2.666312	3.271905	0.161603	-0.531902	-0.809518	-0.556641	0.204346	-0.771729
1121.0	10.913132	-0.997829	3.907098	0.367716	-0.417582	-0.620065	-0.551758	0.197754	-0.769287
1122.0	11.409526	-0.200536	3.784017	0.304091	-0.27469	-0.420997	-0.558594	0.197754	-0.769287
1123.0	10.450538	0.549048	2.705813	0.276269	-0.322413	-0.242021	-0.563232	0.202148	-0.764648
1124.0	9.223495	0.613993	3.475473	0.199375	-0.19059	-0.111132	-0.565186	0.195557	-0.762207
1125.0	8.936494	0.24578	4.327784	-0.109203	0.042972	-0.103842	-0.560791	0.199951	-0.766846
1126.0	8.857872	0.1235	4.725948	-0.244369	0.162997	-0.148791	-0.567627	0.199951	-0.764648
1127.0	8.824177	0.012225	5.304999	-0.305569	0.131627	-0.217862	-0.562988	0.197754	-0.764404
1128.0	9.093282	-0.299938	5.050584	-0.408963	0.064379	-0.300457	-0.563232	0.199951	-0.762207
1129.0	9.120534	-0.561422	4.714152	-0.468972	0.014606	-0.395765	-0.563232	0.202148	-0.762451
1130.0	9.097936	-1.073653	4.533067	-0.463408	-0.005091	-0.463098	-0.561035	0.204346	-0.757813
1131.0	9.350141	-1.529502	4.527886	-0.417332	0.021796	-0.458663	-0.561279	0.20874	-0.762695
1132.0	9.582403	-1.583606	4.698114	-0.380984	0.000654	-0.376568	-0.570313	0.20874	-0.762695
1133.0	9.89937	-1.50886	4.398183	-0.36546	-0.086074	-0.239461	-0.556885	0.210938	-0.760254
1134.0	9.735398	-1.285666	4.221574	-0.313118	-0.159876	-0.110154	-0.565918	0.210938	-0.767334
1135.0	9.446518	-1.346074	4.062053	-0.269598	-0.183508	0.003295	-0.563721	0.213135	-0.755859
1136.0	9.027459	-1.745208	3.655204	-0.262013	-0.135996	0.104267	-0.561523	0.213135	-0.753418
1137.0	8.594431	-2.269226	3.445776	-0.220958	-0.041377	0.183694	-0.566162	0.217529	-0.753662
1138.0	8.108387	-2.712456	3.393381	-0.165579	0.041136	0.253099	-0.561768	0.221924	-0.758545
1139.0	7.662193	-2.508417	3.38775	-0.103634	0.099852	0.304269	-0.55957	0.219727	-0.758301
1140.0	7.265274	-2.192441	3.543695	-0.04985	0.137991	0.33401	-0.566406	0.226318	-0.760986
1141.0	7.097071	-1.921203	3.615957	-0.031859	0.173979	0.340446	-0.568604	0.224121	-0.756104
1142.0	7.070347	-1.808739	3.62805	-0.040184	0.211141	0.32791	-0.557373	0.224121	-0.751465
1143.0	7.195538	-1.820525	3.62015	-0.056331	0.264725	0.321526	-0.562012	0.22876	-0.763428
1144.0	7.433447	-1.822535	3.692905	-0.072653	0.304139	0.31487	-0.559814	0.230957	-0.758789
1145.0	7.766945	-1.836038	3.65847	-0.07976	0.349417	0.320882	-0.555664	0.239746	-0.770752
1146.0	8.147678	-1.761144	3.577691	-0.065523	0.368121	0.315586	-0.557861	0.237549	-0.76123
1147.0	8.52654	-1.652445	3.439662	-0.013044	0.331004	0.299289	-0.553711	0.246338	-0.766357
1148.0	8.573584	-1.586106	3.39569	0.015963	0.302306	0.28346	-0.548828	0.233154	-0.765869
1149.0	8.586745	-1.607051	3.26	0.056826	0.244709	0.261049	-0.546631	0.239746	-0.763672
1150.0	8.564559	-1.679551	3.211147	0.102308	0.202915	0.250678	-0.549072	0.241943	-0.770752
1151.0	8.394576	-1.847574	2.991486	0.142375	0.162296	0.227981	-0.549316	0.248535	-0.773438
1152.0	8.207613	-1.943329	2.848771	0.191083	0.133623	0.199635	-0.55127	0.239746	-0.770752
1153.0	8.133203	-2.008818	2.815172	0.260236	0.136503	0.166875	-0.544922	0.248535	-0.770996
1154.0	8.11042	-1.978818	2.850581	0.321916	0.112499	0.129853	-0.542236	0.241943	-0.766113
1155.0	8.136218	-1.786947	2.771063	0.379499	0.053712	0.08376	-0.542236	0.241943	-0.775391
1156.0	8.156749	-1.678601	2.617387	0.435872	-0.033493	0.027021	-0.542236	0.237549	-0.768311
1157.0	8.310286	-1.612309	2.367892	0.483371	-0.124927	-0.017918	-0.539551	0.230957	-0.768066
1158.0	8.525604	-1.811566	2.299126	0.494858	-0.195949	-0.050802	-0.548828	0.233154	-0.770508
1159.0	8.807785	-1.94381	2.004666	0.503477	-0.242805	-0.06507	-0.546631	0.239746	-0.772949
1160.0	9.311173	-1.987599	1.862223	0.545206	-0.265123	-0.063608	-0.550537	0.224365	-0.7771
1161.0	9.835431	-2.130062	1.822636	0.593527	-0.249792	-0.042795	-0.550781	0.226563	-0.767822
1162.0	10.264616	-2.32713	1.899221	0.610628	-0.212073	5.1e-05	-0.552734	0.219971	-0.772217
1163.0	10.304478	-2.41047	2.038764	0.627732	-0.172775	0.040755	-0.550537	0.222168	-0.77002
1164.0	10.235933	-2.542335	2.380586	0.649787	-0.087741	0.08819	-0.554932	0.217773	-0.77002
1165.0	10.115879	-2.37265	2.630201	0.63941	-0.035212	0.135783	-0.559326	0.217529	-0.765137
1166.0	10.336972	-2.11641	2.639048	0.621196	-0.010089	0.199305	-0.554688	0.213135	-0.762695
1167.0	10.554396	-1.619857	2.51341	0.564906	-0.020807	0.269506	-0.547852	0.211182	-0.767334
1168.0	10.737888	-1.019837	2.320115	0.465774	-0.029029	0.314409	-0.556885	0.213135	-0.769775
1169.0	10.618503	-0.607561	1.858089	0.359143	-0.09113	0.320658	-0.556885	0.210938	-0.762695
1170.0	10.455033	-0.53866	1.668652	0.322219	-0.190584	0.310218	-0.554688	0.210938	-0.758057
1171.0	11.103256	-1.053562	4.606786	0.403896	-0.115592	0.310205	-0.55957	0.219727	-0.760742
1172.0	14.810068	0.007694	6.08619	0.153554	0.323809	0.536559	-0.556885	0.213135	-0.762695
1173.0	15.817473	-0.039963	3.656484	-0.128953	0.579116	0.660906	-0.543701	0.222168	-0.763184
1174.0	12.212124	1.535927	6.861521	-0.490647	0.055852	0.538416	-0.554932	0.222168	-0.765381
1175.0	12.494761	0.045219	3.829133	-0.410964	0.179732	0.497065	-0.546631	0.237549	-0.766113
1176.0	11.074897	-1.904003	5.22771	-0.259312	0.247086	0.422598	-0.544189	0.233154	-0.758789
1177.0	10.820188	-2.525384	5.529925	-0.203371	-0.019673	0.343341	-0.548828	0.235352	-0.765869
1178.0	10.223791	-1.988329	4.726195	-0.113505	-0.252425	0.303301	-0.555664	0.239746	-0.775391
1179.0	8.620525	-1.586101	4.249419	0.016924	-0.620935	0.160211	-0.555908	0.244141	-0.763916
1180.0	7.654142	-1.694932	3.35601	0.20298	-0.694535	0.076077	-0.558105	0.241943	-0.75
1181.0	7.770064	-1.752512	3.801759	0.34568	-0.403398	0.137998	-0.558105	0.239746	-0.754395
1182.0	8.181597	-2.094063	5.286409	0.283762	-0.184002	0.233751	-0.560303	0.239746	-0.754395
1183.0	8.626055	-2.000482	4.905571	0.072284	-0.265821	0.302598	-0.565186	0.248535	-0.754883
1184.0	8.9015	-1.406548	3.38889	0.054302	-0.298619	0.337563	-0.562744	0.246338	-0.75
1185.0	8.909654	-0.970873	3.125847	0.19384	-0.117081	0.334258	-0.5625	0.241943	-0.752197
1186.0	9.207495	-1.069084	3.592247	0.236757	0.066215	0.333063	-0.567139	0.244141	-0.747559
1187.0	9.544685	-1.296035	3.823503	0.239486	0.166697	0.324502	-0.562988	0.250732	-0.750244
1188.0	9.796415	-1.338153	4.489229	0.168583	0.231668	0.273997	-0.560547	0.246338	-0.75
1189.0	9.945982	-1.351391	4.737378	0.029498	0.228595	0.180378	-0.562988	0.25293	-0.754883
1190.0	9.934185	-1.139359	4.611487	-0.10022	0.152591	0.102459	-0.563232	0.255127	-0.752686
1191.0	9.593104	-0.902936	4.134665	-0.172508	0.063097	0.025555	-0.558594	0.257324	-0.755127
1192.0	9.526146	-0.497661	4.077406	-0.179217	0.027467	-0.051454	-0.563232	0.255127	-0.757324
1193.0	9.439288	-0.286308	3.91008	-0.138388	0.017083	-0.11971	-0.556396	0.257324	-0.750488
1194.0	9.099167	-0.229054	3.826262	-0.085978	-0.00856	-0.17509	-0.560791	0.255127	-0.743408
1195.0	8.529676	-0.227221	3.624083	-0.015577	-0.024957	-0.221896	-0.560791	0.25293	-0.745605
1196.0	8.076238	-0.228187	3.529778	0.066904	-0.001531	-0.279332	-0.560791	0.25293	-0.743408
1197.0	7.777251	-0.141442	3.414001	0.10645	0.018299	-0.332678	-0.560791	0.255127	-0.750488
1198.0	7.607382	-0.26699	3.405829	0.10669	-0.00721	-0.380512	-0.565186	0.250732	-0.747803
1199.0	7.49721	-0.489834	3.445064	0.096612	-0.017416	-0.414941	-0.562988	0.25293	-0.752686
1200.0	7.499888	-0.681662	3.438967	0.062319	0.020624	-0.431731	-0.562744	0.246338	-0.752441
1201.0	7.652874	-0.65624	3.339681	0.037444	0.091914	-0.441327	-0.562744	0.246338	-0.75
1202.0	7.845527	-0.560863	3.235743	0.016964	0.116886	-0.438044	-0.571533	0.241699	-0.74292
1203.0	8.1069	-0.54279	3.038051	-0.007539	0.089915	-0.43198	-0.564941	0.241943	-0.745361
1204.0	8.198263	-0.479402	2.808292	-0.036984	0.067642	-0.415921	-0.567139	0.241943	-0.75
1205.0	8.094515	-0.45321	2.626213	-0.062949	0.067788	-0.380037	-0.566895	0.237305	-0.751953
1206.0	8.021164	-0.497261	2.471397	-0.072374	0.100349	-0.330986	-0.562256	0.235107	-0.745117
1207.0	8.121125	-0.55723	2.497752	-0.089191	0.161526	-0.259174	-0.566895	0.239502	-0.740479
1208.0	8.197218	-0.381665	2.524019	-0.128133	0.201428	-0.181217	-0.566895	0.237305	-0.747314
1209.0	8.269554	-0.224653	2.434255	-0.167308	0.219481	-0.117052	-0.560303	0.239746	-0.749756
1210.0	8.415339	-0.178509	2.315195	-0.222825	0.221916	-0.039219	-0.5625	0.241943	-0.752197
1211.0	8.462365	-0.126511	2.186092	-0.309655	0.200063	0.021135	-0.562988	0.250732	-0.754883
1212.0	8.449481	-0.2745	2.234232	-0.389298	0.17576	0.07851	-0.562744	0.248535	-0.750244
1213.0	8.488337	-0.310556	2.217287	-0.471857	0.134066	0.113085	-0.558594	0.25293	-0.752686
1214.0	8.509146	-0.584054	2.316046	-0.554697	0.095163	0.132675	-0.560791	0.25293	-0.748047
1215.0	8.532978	-0.580406	2.216322	-0.599888	0.046572	0.117526	-0.563232	0.257324	-0.74585
1216.0	8.759637	-0.641811	2.285203	-0.611991	-0.011357	0.082155	-0.558838	0.261719	-0.743652
1217.0	9.12496	-0.573247	2.349262	-0.554297	-0.067564	0.004622	-0.554688	0.270508	-0.750977
1218.0	9.650182	-0.659267	2.228286	-0.535208	-0.102561	-0.063497	-0.561523	0.270508	-0.741699
1219.0	10.374327	-1.037919	2.486174	-0.537544	-0.129231	-0.130774	-0.561768	0.274902	-0.737305
1220.0	10.734742	-1.32265	3.047978	-0.517453	-0.09593	-0.181064	-0.563965	0.279297	-0.730469
1221.0	10.778711	-1.572185	3.091577	-0.489525	-0.098024	-0.211321	-0.568604	0.279297	-0.744385
1222.0	10.677525	-1.803533	2.795129	-0.465021	-0.096495	-0.218621	-0.568359	0.274902	-0.734863
1223.0	10.340184	-1.764982	2.511172	-0.444098	-0.095713	-0.207614	-0.566406	0.279297	-0.735107
1224.0	10.121143	-1.58684	2.101284	-0.438521	-0.125142	-0.188357	-0.575439	0.281494	-0.732666
1225.0	10.272553	-1.256709	1.561025	-0.451051	-0.150428	-0.156118	-0.568848	0.288086	-0.726074
1226.0	10.599101	-0.887602	1.588125	-0.466408	-0.114185	-0.124311	-0.571045	0.283691	-0.728271
1227.0	12.031569	-0.905488	4.215634	-0.384478	0.178392	-0.160335	-0.564453	0.285889	-0.730713
1228.0	14.606983	-2.310333	6.957155	-0.335271	0.344352	-0.403074	-0.573486	0.290283	-0.726074
1229.0	15.101813	-2.899455	3.893561	-0.149294	-0.316373	-0.586712	-0.573242	0.281494	-0.728027
1230.0	12.685022	-3.035337	4.2963	0.2205	-0.387895	-0.706172	-0.579834	0.281494	-0.730469
1231.0	11.914752	-2.386442	3.746181	0.258005	-0.543781	-0.810267	-0.588623	0.274658	-0.727783
1232.0	11.390459	-1.073455	3.154383	0.285357	-0.534491	-0.706757	-0.588623	0.272461	-0.720947
1233.0	11.497754	-0.38573	3.828287	0.291218	-0.378849	-0.514706	-0.59082	0.272461	-0.718506
1234.0	11.372221	-0.25658	3.64617	0.133131	-0.256025	-0.346769	-0.592773	0.265869	-0.713623
1235.0	9.74965	0.124545	3.241023	0.068015	-0.267683	-0.207183	-0.594971	0.263672	-0.718262
1236.0	8.792701	0.033972	4.022157	-0.092071	-0.096218	-0.172962	-0.594971	0.261475	-0.71582
1237.0	8.675862	-0.222703	4.340469	-0.297347	0.062868	-0.208881	-0.592773	0.261475	-0.71582
1238.0	8.566023	-0.30496	5.001143	-0.378888	0.103713	-0.253099	-0.597168	0.259277	-0.713379
1239.0	8.688599	-0.652366	5.156968	-0.457101	0.065004	-0.299588	-0.597656	0.272461	-0.716064
1240.0	9.020335	-1.016534	4.679617	-0.526293	0.016809	-0.360319	-0.602051	0.268066	-0.720703
1241.0	8.926623	-1.362893	4.439747	-0.493791	-0.030715	-0.425334	-0.602051	0.270264	-0.711426
1242.0	8.825706	-1.580925	4.224269	-0.400658	-0.06211	-0.448609	-0.604248	0.270264	-0.709229
1243.0	8.871629	-1.605884	4.260313	-0.296165	-0.092401	-0.413518	-0.599854	0.272461	-0.711426
1244.0	9.451467	-1.568833	4.291435	-0.22053	-0.176275	-0.316292	-0.604004	0.263672	-0.706543
1245.0	9.915472	-1.637599	4.290354	-0.154135	-0.214465	-0.175239	-0.606445	0.268066	-0.711426
1246.0	9.945891	-1.748591	4.033782	-0.096293	-0.253954	-0.038472	-0.608643	0.265869	-0.708984
1247.0	9.795033	-2.064818	3.703789	-0.036178	-0.231338	0.09101	-0.604248	0.272461	-0.711426
1248.0	9.460218	-2.187379	3.461024	0.006053	-0.144647	0.206792	-0.611084	0.270264	-0.706787
1249.0	8.98769	-2.545737	3.471625	0.043761	-0.071695	0.313522	-0.608887	0.270264	-0.706787
1250.0	8.442918	-2.586266	3.506667	0.079223	-0.001433	0.403667	-0.615967	0.279053	-0.700195
1251.0	7.974421	-2.373546	3.445818	0.119491	0.040765	0.453699	-0.604736	0.279053	-0.707031
1252.0	7.726181	-2.205396	3.436268	0.139511	0.067358	0.479496	-0.606689	0.276855	-0.71167
1253.0	7.442286	-2.041016	3.549388	0.111768	0.094731	0.476407	-0.609131	0.279053	-0.71167
1254.0	7.471013	-1.963307	3.478427	0.07562	0.130226	0.454083	-0.609131	0.279053	-0.709473
1255.0	7.66397	-1.940387	3.481981	0.036442	0.181587	0.42917	-0.600586	0.287842	-0.709717
1256.0	8.037836	-1.919077	3.431385	0.014429	0.22333	0.403465	-0.607178	0.287842	-0.714355
1257.0	8.377334	-1.866826	3.306665	0.01758	0.247195	0.380347	-0.59375	0.290039	-0.712158
1258.0	8.705697	-1.850011	3.144112	0.044125	0.219919	0.352466	-0.605225	0.292236	-0.712158
1259.0	8.702215	-1.71942	2.973581	0.092476	0.179723	0.324106	-0.598633	0.296631	-0.714844
1260.0	8.649068	-1.623723	2.821968	0.154658	0.140372	0.294814	-0.598633	0.296631	-0.719482
1261.0	8.564886	-1.595961	2.789909	0.2164	0.140858	0.264513	-0.591797	0.296875	-0.717041
1262.0	8.584314	-1.677157	2.646853	0.284709	0.169753	0.227725	-0.59375	0.290039	-0.721436
1263.0	8.539139	-1.827608	2.550775	0.346909	0.216114	0.185144	-0.598633	0.296875	-0.724121
1264.0	8.524309	-1.988384	2.509105	0.398452	0.250113	0.138784	-0.591553	0.29248	-0.726318
1265.0	8.4453	-2.027574	2.46215	0.44541	0.269932	0.094294	-0.587158	0.29248	-0.728516
1266.0	8.491151	-2.002339	2.442923	0.482977	0.270013	0.052709	-0.586914	0.288086	-0.73291
1267.0	8.237891	-1.88713	2.486564	0.532879	0.220821	0.02117	-0.584473	0.283691	-0.735107
1268.0	7.993987	-1.664949	2.499969	0.555427	0.129424	0.004318	-0.588867	0.279297	-0.735107
1269.0	7.922509	-1.506212	2.322636	0.554632	0.033449	0.00745	-0.582275	0.285889	-0.735352
1270.0	8.069419	-1.442111	2.077229	0.55872	-0.027624	0.005841	-0.588623	0.274658	-0.732422
1271.0	8.420886	-1.47128	1.847719	0.577638	-0.060747	0.017307	-0.588623	0.274658	-0.737061
1272.0	8.893107	-1.575429	1.7883	0.599499	-0.056193	0.048896	-0.59082	0.270508	-0.750977
1273.0	9.26874	-1.43765	1.898206	0.628353	-0.052453	0.087882	-0.588623	0.274902	-0.739502
1274.0	9.62499	-1.501422	1.909785	0.596924	-0.0367	0.145413	-0.588379	0.265869	-0.746094
1275.0	9.952717	-1.528037	2.081986	0.547228	0.014006	0.186943	-0.592773	0.263672	-0.750732
1276.0	10.138207	-1.8054	2.320095	0.495596	0.074123	0.226434	-0.590576	0.263672	-0.755371
1277.0	10.205572	-2.058597	2.545663	0.439057	0.12006	0.245555	-0.581299	0.261719	-0.750732
1278.0	10.213953	-2.12443	2.580762	0.379311	0.131893	0.269188	-0.585938	0.263672	-0.750732
1279.0	10.457763	-1.818215	2.609342	0.334858	0.123177	0.284979	-0.581543	0.263916	-0.750732
1280.0	10.714974	-1.263365	2.329974	0.290531	0.075556	0.277502	-0.588379	0.266113	-0.755371
1281.0	10.708852	-0.834959	1.744559	0.270668	-0.027804	0.23767	-0.586182	0.266113	-0.750732
1282.0	10.544948	-0.885016	1.273087	0.283912	-0.142846	0.174735	-0.590332	0.261475	-0.757568
1283.0	10.399979	-1.406148	1.429033	0.304022	-0.220412	0.107558	-0.585938	0.261719	-0.76001
1284.0	11.741229	-2.066591	5.655377	0.37289	-0.056844	0.109763	-0.592529	0.25708	-0.759766
1285.0	15.123974	-1.314972	3.580786	0.066911	0.378221	0.293918	-0.58374	0.261719	-0.764648
1286.0	14.707241	-0.85137	5.693954	-0.048098	0.344075	0.314885	-0.583984	0.268311	-0.757813
1287.0	12.760565	0.179162	4.860349	-0.424255	-0.072039	0.289393	-0.581787	0.272705	-0.762695
1288.0	12.466001	-1.499979	4.288244	-0.151682	0.168288	0.330666	-0.586182	0.268311	-0.755615
1289.0	11.625079	-2.678395	5.144544	-0.064021	-0.078941	0.283702	-0.581787	0.270508	-0.762451
1290.0	11.251556	-2.177391	5.363357	0.044496	-0.19727	0.290445	-0.584229	0.274902	-0.762695
1291.0	9.622801	-1.130797	4.749699	0.145765	-0.382916	0.309961	-0.586426	0.272705	-0.762695
1292.0	7.725969	-0.730908	3.815318	0.185684	-0.685645	0.261557	-0.59082	0.270508	-0.762451
1293.0	7.413611	-0.865965	3.442021	0.305792	-0.53949	0.251838	-0.593262	0.272705	-0.758057
1294.0	8.091882	-1.620416	4.512244	0.378631	-0.257198	0.295474	-0.597656	0.270264	-0.760254
1295.0	8.669129	-1.858727	5.394877	0.303929	-0.197193	0.326193	-0.593018	0.268311	-0.760254
1296.0	9.137141	-1.277178	4.30283	0.216045	-0.234752	0.339372	-0.597656	0.272461	-0.760254
1297.0	9.143544	-0.724036	3.672239	0.260513	-0.135085	0.329888	-0.591064	0.274902	-0.753418
1298.0	8.771533	-0.962106	3.889545	0.224651	-0.011646	0.309751	-0.595215	0.268066	-0.755615
1299.0	8.98355	-1.499483	3.774691	0.118848	0.08986	0.269345	-0.593262	0.2771	-0.758057
1300.0	9.350827	-1.730714	4.058183	0.054638	0.182026	0.193322	-0.593262	0.272705	-0.758057
1301.0	9.751884	-1.736372	4.458204	-0.055897	0.164946	0.08472	-0.5979	0.2771	-0.762695
1302.0	9.958098	-1.45881	4.396532	-0.157886	0.081177	-0.019799	-0.593262	0.2771	-0.760498
1303.0	9.854574	-0.867212	4.112615	-0.22201	-0.013939	-0.105105	-0.595703	0.279297	-0.765137
1304.0	9.770996	-0.325811	3.930275	-0.225347	-0.054921	-0.180301	-0.593262	0.274902	-0.755859
1305.0	9.614181	-0.087027	3.76518	-0.181076	-0.058695	-0.240545	-0.595459	0.2771	-0.765137
1306.0	9.162656	-0.005458	3.691059	-0.117403	-0.054749	-0.27602	-0.591064	0.274902	-0.767334
1307.0	8.612754	-0.0217	3.653365	-0.041957	-0.039427	-0.296374	-0.592773	0.266113	-0.764648
1308.0	8.12878	-0.081687	3.51969	0.031663	-0.012438	-0.315817	-0.602051	0.268066	-0.76709
1309.0	7.764448	-0.174023	3.557179	0.073893	0.001407	-0.332928	-0.595215	0.268311	-0.769531
1310.0	7.593456	-0.240984	3.484487	0.080715	-0.001202	-0.365664	-0.599609	0.268066	-0.764893
1311.0	7.528588	-0.412197	3.549995	0.060366	0.008534	-0.389012	-0.601563	0.259277	-0.764404
1312.0	7.629764	-0.628195	3.494739	0.019498	0.027142	-0.409212	-0.60376	0.25708	-0.769043
1313.0	7.811064	-0.711348	3.363283	-0.026577	0.056836	-0.422408	-0.604004	0.259277	-0.773682
1314.0	8.098857	-0.699277	3.118271	-0.066021	0.062373	-0.42082	-0.60791	0.246094	-0.768555
1315.0	8.401322	-0.571604	2.96052	-0.093614	0.054634	-0.415367	-0.601318	0.252686	-0.77124
1316.0	8.447091	-0.383085	2.80548	-0.13282	0.06148	-0.385985	-0.603516	0.252686	-0.773438
1317.0	8.433578	-0.203081	2.614534	-0.148891	0.082886	-0.363091	-0.601074	0.248291	-0.770996
1318.0	8.398777	-0.215494	2.456812	-0.164218	0.110259	-0.297124	-0.607666	0.243896	-0.777832
1319.0	8.371861	-0.324181	2.431315	-0.177202	0.151806	-0.225791	-0.603516	0.248291	-0.778076
1320.0	8.25838	-0.348032	2.492246	-0.202736	0.197914	-0.155238	-0.601074	0.248291	-0.773438
1321.0	8.167564	-0.332994	2.479765	-0.231403	0.215387	-0.089461	-0.603271	0.246094	-0.782471
1322.0	8.076567	-0.344362	2.439175	-0.284957	0.208543	-0.026813	-0.60791	0.246094	-0.784912
1323.0	8.045895	-0.489819	2.296195	-0.363586	0.157356	0.028828	-0.601318	0.250488	-0.780273
