Acquisition frequency: 100 Hz
PacketCounter	Acc_X	Acc_Y	Acc_Z	Gyr_X	Gyr_Y	Gyr_Z	Mag_X	Mag_Y	Mag_Z
0.0	6.400277	-0.683176	7.530068	-0.009072	0.010356	-0.00477	-0.184814	0.262207	0.045654
1.0	6.383621	-0.676881	7.533949	-0.010911	0.010531	-0.004821	-0.186768	0.257813	0.045654
2.0	6.385576	-0.710472	7.525398	-0.008367	0.008432	-0.005817	-0.18457	0.255615	0.04126
3.0	6.394516	-0.696807	7.543575	-0.007613	0.009626	-0.006396	-0.182129	0.251221	0.045654
4.0	6.381693	-0.677648	7.535513	-0.006903	0.00766	-0.005474	-0.18457	0.257813	0.043457
5.0	6.371831	-0.669386	7.568177	-0.00984	0.00929	-0.010099	-0.182373	0.257813	0.043457
6.0	6.389662	-0.686294	7.504421	-0.004631	0.011157	-0.003271	-0.186523	0.253418	0.050049
7.0	6.398651	-0.672538	7.522569	-0.006574	0.00514	-0.006231	-0.186768	0.255615	0.043457
8.0	6.379329	-0.678198	7.537465	-0.008364	0.008432	-0.005814	-0.18042	0.261963	0.047852
9.0	6.397641	-0.672883	7.523396	-0.005438	0.006888	-0.005129	-0.187012	0.26001	0.039063
10.0	6.409275	-0.692328	7.532442	-0.005766	0.009408	-0.00437	-0.18457	0.255615	0.050049
11.0	6.389657	-0.697878	7.547593	-0.004259	0.011797	-0.005528	-0.177979	0.255615	0.045654
12.0	6.388831	-0.697807	7.548298	-0.004641	0.011243	-0.007208	-0.182617	0.26001	0.04126
13.0	6.387935	-0.697733	7.549063	-0.004968	0.013763	-0.006448	-0.18457	0.255615	0.04126
14.0	6.421993	-0.653506	7.530023	-0.003124	0.013545	-0.004424	-0.184326	0.253418	0.047852
15.0	6.376556	-0.7114	7.532954	-0.003557	0.009917	-0.008545	-0.18457	0.257813	0.047852
16.0	6.382487	-0.686339	7.51052	-0.003176	0.010471	-0.006864	-0.188965	0.26001	0.045654
17.0	6.394209	-0.683189	7.569571	-0.0054	0.010135	-0.010567	-0.188965	0.257813	0.047852
18.0	6.381043	-0.685785	7.511798	-0.002803	0.011112	-0.009122	-0.182373	0.255615	0.047852
19.0	6.411615	-0.677132	7.556364	-0.005771	0.009494	-0.008306	-0.186523	0.253418	0.050049
20.0	6.389187	-0.671498	7.530701	-0.005398	0.010135	-0.010565	-0.186768	0.255615	0.045654
21.0	6.400609	-0.690708	7.539956	-0.003876	0.01235	-0.003841	-0.188965	0.255615	0.047852
22.0	6.418721	-0.685131	7.526122	-0.00615	0.00894	-0.009986	-0.182373	0.255615	0.045654
23.0	6.399056	-0.690532	7.54129	-0.003122	0.013545	-0.004417	-0.186768	0.257813	0.043457
24.0	6.379303	-0.695839	7.556534	-0.002799	0.011112	-0.009117	-0.18457	0.253662	0.04126
25.0	6.404036	-0.665239	7.519704	-0.002792	0.011025	-0.005177	-0.186768	0.255615	0.04126
26.0	6.387089	-0.7037	7.52574	-0.002798	0.011112	-0.009116	-0.191162	0.255615	0.047852
27.0	6.395772	-0.689541	7.544166	-0.00388	0.012437	-0.007777	-0.191162	0.255615	0.043457
28.0	6.395016	-0.689478	7.544813	-0.00614	0.008852	-0.006044	-0.18457	0.257813	0.04126
29.0	6.401009	-0.664539	7.522343	-0.005392	0.010135	-0.01056	-0.180176	0.255615	0.043457
30.0	6.365436	-0.686598	7.592572	-0.006134	0.008764	-0.002103	-0.180176	0.257813	0.045654
31.0	6.393178	-0.689765	7.546344	-0.012082	0.005702	-0.008357	-0.188965	0.257813	0.043457
32.0	6.380664	-0.670688	7.537995	-0.005854	0.003172	-0.005307	-0.186768	0.255615	0.050049
33.0	6.383363	-0.681919	7.578833	-0.010664	0.00177	-0.006518	-0.178223	0.26001	0.043457
34.0	6.411578	-0.685142	7.532207	-0.009575	0.000357	-0.003917	-0.187012	0.262207	0.039063
35.0	6.404956	-0.71043	7.555168	-0.009954	-0.000196	-0.005598	-0.18457	0.253418	0.045654
36.0	6.395488	-0.72473	7.537392	-0.011416	0.000575	-0.005939	-0.186768	0.255615	0.050049
37.0	6.373824	-0.697082	7.561041	-0.000718	0.002144	-0.008796	-0.182617	0.26001	0.04126
38.0	6.361693	-0.677635	7.552407	-0.010002	-0.003269	-0.00804	-0.188721	0.253662	0.039063
39.0	6.383473	-0.705491	7.528639	-0.007738	0.000228	-0.005832	-0.18457	0.253418	0.045654
40.0	6.395958	-0.72513	7.536955	-0.013347	-0.005442	-0.008908	-0.184326	0.253418	0.047852
41.0	6.396554	-0.725264	7.536436	-0.007503	-0.008435	-0.01148	-0.18457	0.255615	0.050049
42.0	6.394397	-0.713993	7.495137	-0.007128	-0.007792	-0.013737	-0.190918	0.253418	0.045654
43.0	6.407224	-0.732774	7.503241	-0.001566	-0.005193	-0.013103	-0.18457	0.255615	0.047852
44.0	6.407511	-0.731909	7.503081	-1.7e-05	0.00036	-0.015751	-0.188965	0.257813	0.045654
45.0	6.400924	-0.755647	7.526175	0.00111	0.002199	-0.018583	-0.18457	0.253662	0.04126
46.0	6.395269	-0.687932	7.544739	0.004457	0.004374	-0.017714	-0.18457	0.257813	0.045654
47.0	6.383041	-0.667136	7.536299	0.002529	-0.001643	-0.020683	-0.186768	0.26001	0.045654
48.0	6.402142	-0.660081	7.521771	0.004748	-0.001307	-0.01698	-0.191162	0.257813	0.045654
49.0	6.383475	-0.686613	7.486205	-0.002274	-0.003139	-0.017953	-0.188965	0.255615	0.043457
50.0	6.4177	-0.710129	7.520952	0.002198	0.000876	-0.019917	-0.18457	0.257813	0.047852
51.0	6.39585	-0.703214	7.494917	0.00153	0.006003	-0.022327	-0.182373	0.255615	0.04126
52.0	6.423809	-0.681973	7.498654	0.006713	0.008053	-0.023372	-0.186768	0.255615	0.043457
53.0	6.385599	-0.691113	7.52817	0.007467	0.00925	-0.023946	-0.186768	0.255615	0.045654
54.0	6.40097	-0.650112	7.523636	0.009725	0.012839	-0.025673	-0.182373	0.255615	0.045654
55.0	6.397413	-0.637019	7.483667	0.003793	0.00959	-0.024048	-0.190918	0.251221	0.045654
56.0	6.41191	-0.665285	7.533704	0.005674	0.012626	-0.027453	-0.18457	0.255615	0.045654
57.0	6.398776	-0.643817	7.526044	0.006804	0.014376	-0.026347	-0.180176	0.253418	0.045654
58.0	6.426162	-0.622326	7.530256	0.002753	0.014073	-0.024196	-0.188965	0.257568	0.052002
59.0	6.40924	-0.659392	7.536494	0.00313	0.014627	-0.022515	-0.193359	0.257813	0.04126
60.0	6.401559	-0.70486	7.510748	0.00246	0.019664	-0.020989	-0.193604	0.261963	0.045654
61.0	6.406862	-0.678109	7.488976	0.003553	0.01852	-0.030189	-0.190918	0.253418	0.050049
62.0	6.424213	-0.648055	7.525869	0.0099	0.025311	-0.023749	-0.186768	0.255615	0.045654
63.0	6.410125	-0.626792	7.518968	0.006222	0.02556	-0.019922	-0.18457	0.255615	0.047852
64.0	6.411167	-0.658127	7.511594	0.005891	0.028167	-0.023089	-0.184326	0.251221	0.045654
65.0	6.396647	-0.614832	7.554814	0.005931	0.031239	-0.020644	-0.188965	0.257813	0.04126
66.0	6.413298	-0.607642	7.542412	0.001878	0.030933	-0.018497	-0.18457	0.253418	0.043457
67.0	6.401755	-0.620287	7.526635	0.001128	0.029735	-0.017919	-0.186768	0.257813	0.043457
68.0	6.408851	-0.605335	7.546376	-0.000676	0.032932	-0.013565	-0.188721	0.253418	0.043457
69.0	6.397092	-0.618228	7.530768	0.001549	0.033451	-0.017722	-0.182129	0.251465	0.04126
70.0	6.418923	-0.655724	7.550468	0.000192	0.043436	-0.010736	-0.182373	0.255615	0.043457
71.0	6.394031	-0.649545	7.526932	0.000958	0.044722	-0.015233	-0.18457	0.257813	0.039063
72.0	6.428199	-0.614914	7.551023	0.004675	0.047461	-0.012669	-0.182373	0.257813	0.045654
73.0	6.433851	-0.599933	7.571974	0.003251	0.051299	-0.010562	-0.190918	0.253418	0.04126
74.0	6.398984	-0.60786	7.531231	0.001444	0.054495	-0.006204	-0.188721	0.251221	0.047852
75.0	6.391828	-0.574182	7.543898	0.002575	0.056248	-0.005086	-0.180176	0.255859	0.039063
76.0	6.387152	-0.551923	7.597408	-0.002217	0.057726	0.004001	-0.182373	0.255615	0.045654
77.0	6.348576	-0.505802	7.615747	-0.005934	0.054899	0.005378	-0.188721	0.253662	0.036865
78.0	6.403737	-0.614788	7.57179	-0.017426	0.051921	0.016622	-0.180176	0.255615	0.045654
79.0	6.349445	-0.609341	7.59497	-0.016681	0.05303	0.019994	-0.182373	0.253662	0.04126
80.0	6.354616	-0.711568	7.570651	-0.024477	0.04691	0.017117	-0.18457	0.255615	0.045654
81.0	6.354103	-0.634083	7.609557	-0.018208	0.047561	0.018706	-0.182373	0.253418	0.043457
82.0	6.335519	-0.606187	7.563111	-0.013013	0.049621	0.017702	-0.182373	0.255615	0.04126
83.0	6.377744	-0.6529	7.609886	-0.028541	0.046514	0.023199	-0.18457	0.253662	0.039063
84.0	6.340004	-0.744768	7.532412	-0.017765	0.051276	0.018938	-0.182373	0.253662	0.039063
85.0	6.345457	-0.620048	7.598573	-0.017055	0.049311	0.019861	-0.182129	0.251465	0.034912
86.0	6.350878	-0.608932	7.61935	-0.018585	0.046825	0.024936	-0.188965	0.26001	0.04126
87.0	6.343421	-0.670374	7.635874	-0.027444	0.045104	0.025828	-0.180176	0.255615	0.04126
88.0	6.359531	-0.690334	7.574394	-0.020844	0.043232	0.026657	-0.18457	0.257813	0.04126
89.0	6.343125	-0.652055	7.618328	-0.018929	0.046271	0.023286	-0.18457	0.253662	0.039063
90.0	6.353146	-0.718708	7.529806	-0.025997	0.041268	0.023745	-0.18457	0.255615	0.045654
91.0	6.318437	-0.708027	7.537933	-0.013023	0.04636	0.023216	-0.180176	0.257813	0.036865
92.0	6.326347	-0.708031	7.599289	-0.024072	0.044309	0.020383	-0.188721	0.251465	0.043457
93.0	6.325855	-0.743668	7.592761	-0.008977	0.043595	0.018656	-0.180176	0.257813	0.04126
94.0	6.294107	-0.764993	7.59175	-0.015502	0.045661	0.009974	-0.182373	0.255615	0.045654
95.0	6.287556	-0.733341	7.603746	-0.009211	0.046394	0.007646	-0.182617	0.262207	0.039063
96.0	6.286189	-0.745632	7.647337	-0.011027	0.046612	0.005621	-0.180176	0.253662	0.036865
97.0	6.298866	-0.707653	7.645151	-0.004075	0.042311	0.001742	-0.177979	0.255859	0.036865
98.0	6.270439	-0.760937	7.634704	-0.011086	0.040474	0.000708	-0.178223	0.258057	0.034912
99.0	6.290621	-0.697781	7.609298	-0.002711	0.03531	0.00111	-0.180176	0.255859	0.036865
100.0	6.278093	-0.690325	7.643356	-0.013099	0.031202	0.003095	-0.177979	0.253662	0.04126
101.0	6.284747	-0.677099	7.663259	-0.000157	0.033221	0.000128	-0.178223	0.26001	0.043457
102.0	6.318533	-0.655531	7.596185	-0.021234	0.027618	0.000929	-0.182373	0.257813	0.04126
103.0	6.262071	-0.707142	7.630817	-0.012103	0.026622	0.007168	-0.177979	0.253662	0.032715
104.0	6.294274	-0.642289	7.663454	-0.015047	0.028064	0.010411	-0.182373	0.255615	0.043457
105.0	6.296142	-0.699544	7.605783	-0.019947	0.023397	0.014556	-0.180176	0.253662	0.036865
106.0	6.262216	-0.666467	7.662296	-0.022231	0.019805	0.01624	-0.182373	0.253662	0.039063
107.0	6.263748	-0.702422	7.654016	-0.024878	0.015663	0.016236	-0.182373	0.257813	0.036865
108.0	6.253272	-0.719231	7.6369	-0.025967	0.016983	0.01758	-0.18042	0.262207	0.034668
109.0	6.261182	-0.708397	7.655565	-0.023852	0.011179	0.016369	-0.182129	0.249268	0.032715
110.0	6.260364	-0.711127	7.655981	-0.02243	0.007343	0.014249	-0.18457	0.255615	0.039063
111.0	6.291871	-0.749477	7.600955	-0.024282	0.007465	0.016153	-0.180176	0.258057	0.034912
112.0	6.26209	-0.7497	7.647225	-0.023915	0.005048	0.011438	-0.180176	0.253662	0.036865
113.0	6.277811	-0.713338	7.642605	-0.02206	0.004926	0.009539	-0.18042	0.262207	0.032715
114.0	6.249182	-0.734921	7.638754	-0.019514	0.002836	0.008545	-0.180176	0.255615	0.04126
115.0	6.272304	-0.753959	7.70602	-0.022565	-0.001954	0.010783	-0.18042	0.26001	0.04126
116.0	6.233309	-0.778338	7.642779	-0.026376	-0.010904	0.007172	-0.178223	0.26001	0.034668
117.0	6.247553	-0.789273	7.741113	-0.02096	-0.0176	0.004396	-0.178223	0.26001	0.043457
118.0	6.276405	-0.782317	7.652758	-0.023318	-0.02732	0.001132	-0.18457	0.257813	0.034668
119.0	6.266603	-0.764723	7.642039	-0.019027	-0.032799	0.003635	-0.18042	0.26001	0.034668
120.0	6.297385	-0.74697	7.643762	-0.024837	-0.032676	-0.004148	-0.18042	0.26001	0.043457
121.0	6.278768	-0.742848	7.61482	-0.020473	-0.034989	-0.003109	-0.186768	0.255615	0.039063
122.0	6.300579	-0.738666	7.598407	-0.022321	-0.034869	-0.0012	-0.180176	0.257813	0.047852
123.0	6.325254	-0.767573	7.572684	-0.01934	-0.033244	-0.001971	-0.180176	0.257813	0.043457
124.0	6.299476	-0.788375	7.56653	-0.022608	-0.032249	-0.004341	-0.184814	0.262207	0.039063
125.0	6.361309	-0.783629	7.562949	-0.012224	-0.028145	-0.006325	-0.18457	0.257813	0.04126
126.0	6.3208	-0.772858	7.507977	-0.015425	-0.023982	-0.01016	-0.180176	0.253418	0.045654
127.0	6.374895	-0.792241	7.527754	-0.00643	-0.015938	-0.013955	-0.18457	0.257813	0.04126
128.0	6.32856	-0.816675	7.537114	-0.001866	-0.008749	-0.017317	-0.18042	0.26001	0.04126
129.0	6.329131	-0.815402	7.536772	0.002333	-0.002105	-0.022366	-0.182617	0.26001	0.043457
130.0	6.362997	-0.725472	7.61816	0.009044	0.002346	-0.024482	-0.18042	0.262207	0.04126
131.0	6.332526	-0.731599	7.573788	0.003528	0.002807	-0.022699	-0.18042	0.262207	0.04126
132.0	6.334543	-0.740951	7.614798	0.009478	0.00606	-0.024254	-0.18457	0.255615	0.043457
133.0	6.331975	-0.727751	7.574619	0.005053	0.00816	-0.017412	-0.18457	0.255615	0.039063
134.0	6.315437	-0.764873	7.579849	0.004358	0.007172	-0.024718	-0.180176	0.253418	0.045654
135.0	6.292944	-0.735416	7.603831	0.012425	0.007584	-0.021092	-0.18457	0.255615	0.04126
136.0	6.302819	-0.741468	7.572031	0.003107	-0.00091	-0.022914	-0.18042	0.26001	0.04126
137.0	6.29309	-0.731758	7.604064	0.004926	-0.001132	-0.020883	-0.18457	0.257813	0.04126
138.0	6.302685	-0.716199	7.621838	0.005227	-0.00671	-0.024135	-0.180176	0.257813	0.043457
139.0	6.316402	-0.755575	7.579977	0.002617	-0.007791	-0.021669	-0.182617	0.26001	0.04126
140.0	6.326383	-0.740209	7.597408	0.002951	-0.010307	-0.02245	-0.182373	0.257813	0.045654
141.0	6.295892	-0.724792	7.602411	0.00599	-0.00551	-0.024689	-0.18457	0.253418	0.043457
142.0	6.312617	-0.68403	7.597296	0.00629	-0.00813	-0.021538	-0.180176	0.255615	0.04126
143.0	6.360757	-0.657156	7.586536	-0.000713	-0.00997	-0.022569	-0.180176	0.255859	0.032715
144.0	6.345549	-0.69487	7.590685	-0.001476	-0.008211	-0.015608	-0.189209	0.261963	0.047852
145.0	6.324941	-0.688486	7.563581	-0.001112	-0.007664	-0.013922	-0.182617	0.262207	0.04126
146.0	6.319625	-0.734695	7.535689	-0.005902	-0.009074	-0.015171	-0.180176	0.257813	0.047852
147.0	6.321778	-0.723651	7.625848	-0.003325	-0.008095	-0.013702	-0.182373	0.253662	0.04126
148.0	6.323429	-0.744789	7.575184	-0.004808	-0.01039	-0.016511	-0.182373	0.255615	0.04126
149.0	6.355628	-0.757299	7.569026	0.00111	-0.010189	-0.020534	-0.182373	0.253662	0.039063
150.0	6.338168	-0.783017	7.532611	0.009664	-0.00584	-0.024554	-0.182617	0.26001	0.043457
151.0	6.328845	-0.772727	7.564393	0.009666	-0.00584	-0.024551	-0.180176	0.257813	0.04126
152.0	6.33619	-0.745004	7.541528	0.014189	-0.001703	-0.030378	-0.188721	0.253418	0.047852
153.0	6.36157	-0.689161	7.554781	0.018619	-0.000837	-0.030811	-0.184814	0.26001	0.043457
154.0	6.323746	-0.697552	7.583031	0.014194	-0.001704	-0.030371	-0.180176	0.257813	0.039063
155.0	6.349104	-0.641995	7.596214	0.014163	-0.001808	-0.026439	-0.182373	0.255615	0.043457
156.0	6.352648	-0.67265	7.586748	0.006766	-0.00431	-0.025222	-0.182373	0.253662	0.04126
157.0	6.334974	-0.698465	7.550554	0.002305	-0.005281	-0.020856	-0.180176	0.253418	0.047852
158.0	6.343791	-0.661368	7.618183	0.005185	-0.006916	-0.016242	-0.182373	0.257813	0.043457
159.0	6.348302	-0.714995	7.558531	-0.001702	-0.002436	-0.020197	-0.180176	0.253662	0.04126
160.0	6.329741	-0.719394	7.572366	0.003404	-0.006596	-0.022192	-0.188965	0.257813	0.043457
161.0	6.349456	-0.71214	7.557831	-0.000662	-0.006917	-0.020071	-0.180176	0.253418	0.045654
162.0	6.359248	-0.696919	7.575327	0.002649	-0.007796	-0.021628	-0.186768	0.255615	0.043457
163.0	6.35762	-0.684168	7.534193	0.001554	-0.006482	-0.020286	-0.182617	0.26001	0.043457
164.0	6.357344	-0.660972	7.58384	0.001916	-0.005933	-0.018603	-0.186768	0.257813	0.04126
165.0	6.367905	-0.667601	7.55138	0.003374	-0.006698	-0.018259	-0.18457	0.253662	0.034912
166.0	6.346395	-0.639328	7.574308	-0.002599	-0.010075	-0.012774	-0.179932	0.251465	0.045654
167.0	6.368547	-0.644358	7.600256	-0.007366	-0.008433	-0.011556	-0.186768	0.253662	0.039063
168.0	6.366819	-0.633081	7.559054	-0.005923	-0.006236	-0.004827	-0.182373	0.255615	0.045654
169.0	6.370649	-0.666583	7.549155	-0.013679	-0.009296	-0.005291	-0.18457	0.257813	0.039063
170.0	6.330971	-0.667691	7.536039	-0.013679	-0.009296	-0.00529	-0.18457	0.253418	0.043457
171.0	6.363043	-0.682019	7.529808	-0.017743	-0.009621	-0.003168	-0.186768	0.253662	0.039063
172.0	6.366114	-0.69425	7.569803	-0.011499	-0.008963	-0.001582	-0.18457	0.255615	0.043457
173.0	6.35466	-0.675862	7.560416	-0.014125	-0.013115	-0.001581	-0.188721	0.253418	0.04126
174.0	6.35872	-0.710035	7.550237	-0.019198	-0.008856	-0.003505	-0.182129	0.251221	0.045654
175.0	6.359675	-0.710968	7.549345	-0.013748	-0.015525	-0.006284	-0.184814	0.261963	0.047852
176.0	6.388791	-0.691704	7.552288	-0.009972	-0.009518	-0.009088	-0.188965	0.257813	0.047852
177.0	6.399519	-0.699914	7.519491	-0.010365	-0.010171	-0.006844	-0.186523	0.253418	0.043457
178.0	6.381143	-0.706154	7.533045	-0.011409	-0.005691	-0.006965	-0.186768	0.26001	0.045654
179.0	6.381631	-0.706439	7.532605	-0.009557	-0.005802	-0.008866	-0.191162	0.255859	0.032715
180.0	6.378807	-0.673342	7.541663	-0.005835	-0.002961	-0.010209	-0.184814	0.26001	0.047852
181.0	6.379137	-0.673528	7.541367	-0.012504	-0.004379	-0.005621	-0.18457	0.255615	0.043457
182.0	6.394737	-0.726236	7.540454	-0.005436	0.003711	-0.003602	-0.18457	0.255615	0.047852
183.0	6.392186	-0.715056	7.499903	-0.00873	0.00163	-0.008426	-0.184326	0.253418	0.047852
184.0	6.382068	-0.707103	7.532172	-0.004648	0.005019	-0.008087	-0.18457	0.255615	0.050049
185.0	6.362801	-0.712825	7.546535	-0.005763	0.003269	-0.009207	-0.182373	0.257813	0.04126
186.0	6.378421	-0.673462	7.541979	-0.000242	0.002833	-0.01099	-0.182617	0.26001	0.045654
187.0	6.400447	-0.700215	7.518672	-0.004648	0.005019	-0.008086	-0.184326	0.253418	0.047852
188.0	6.377875	-0.672743	7.542504	-0.002796	0.004909	-0.009988	-0.182373	0.255615	0.045654
189.0	6.399676	-0.69974	7.519373	-0.006087	0.008844	-0.005962	-0.18457	0.257813	0.036865
190.0	6.388936	-0.691721	7.552164	-0.004887	0.013868	-0.010225	-0.182617	0.26001	0.047852
191.0	6.379029	-0.705247	7.53492	-0.00348	0.009937	-0.008424	-0.180176	0.255615	0.047852
192.0	6.378215	-0.705054	7.535627	-0.00528	0.013214	-0.007981	-0.182373	0.257813	0.045654
193.0	6.3774	-0.704861	7.536335	-0.003479	0.009937	-0.008422	-0.186768	0.255615	0.045654
194.0	6.395636	-0.698723	7.522904	-0.003822	0.01245	-0.00764	-0.18457	0.257813	0.045654
195.0	6.403868	-0.684628	7.541617	-0.000907	0.010923	-0.00696	-0.188965	0.255615	0.045654
196.0	6.39392	-0.698012	7.524429	-0.002671	0.014307	-0.01044	-0.182373	0.253418	0.047852
197.0	6.401932	-0.683906	7.543325	-0.002348	0.014747	-0.004835	-0.18457	0.257813	0.045654
198.0	6.381736	-0.689593	7.558444	-0.002654	0.017368	-0.007974	-0.18457	0.257568	0.054199
199.0	6.368254	-0.669869	7.550884	-0.000457	0.014746	-0.010656	-0.182373	0.253662	0.04126
200.0	6.370379	-0.702361	7.542504	-0.002257	0.018023	-0.010213	-0.186768	0.26001	0.043457
201.0	6.360127	-0.715692	7.525584	-0.001553	0.016057	-0.009313	-0.182373	0.257813	0.04126
202.0	6.387058	-0.695139	7.53052	0.004367	0.016281	-0.013331	-0.188965	0.255615	0.045654
203.0	6.379156	-0.719338	7.5543	-0.0004	0.017915	-0.01211	-0.182373	0.253662	0.04126
204.0	6.372271	-0.674056	7.524184	0.005085	0.017376	-0.009965	-0.18457	0.255615	0.050049
205.0	6.370232	-0.651354	7.575228	-6.7e-05	0.01234	-0.015354	-0.184814	0.26001	0.047852
206.0	6.391507	-0.677792	7.552712	-8.1e-05	0.018355	-0.006503	-0.180176	0.257568	0.054199
207.0	6.40275	-0.696462	7.562279	-0.000105	0.012233	-0.011431	-0.186768	0.257813	0.050049
208.0	6.38043	-0.690182	7.536592	0.002161	0.015841	-0.013104	-0.177979	0.257813	0.045654
209.0	6.360313	-0.69529	7.551649	-0.000448	0.014746	-0.010646	-0.182373	0.253418	0.045654
210.0	6.390629	-0.707769	7.547152	0.002163	0.015841	-0.013101	-0.182129	0.251465	0.043457
211.0	6.379485	-0.698968	7.580231	0.001765	0.015186	-0.010861	-0.18457	0.255615	0.050049
212.0	6.357134	-0.692652	7.554567	0.002867	0.013876	-0.0122	-0.184814	0.26001	0.043457
213.0	6.333882	-0.664469	7.578839	0.002857	0.010815	-0.014664	-0.182617	0.262207	0.043457
214.0	6.373277	-0.663072	7.592286	-0.000791	0.017258	-0.009859	-0.188965	0.26001	0.043457
215.0	6.373517	-0.684193	7.542985	-0.001263	0.007313	-0.011092	-0.18457	0.253418	0.043457
216.0	6.400986	-0.663937	7.547452	-0.00382	0.009384	-0.010092	-0.184814	0.26001	0.043457
217.0	6.381263	-0.669568	7.562101	-0.003464	0.009932	-0.00841	-0.188965	0.257813	0.04126
218.0	6.362705	-0.696955	7.526628	-0.004575	0.008181	-0.009534	-0.18457	0.257813	0.043457
219.0	6.371088	-0.682684	7.545173	-0.00015	0.009064	-0.009965	-0.182129	0.251465	0.039063
220.0	6.370504	-0.682241	7.545707	-0.004574	0.008181	-0.009533	-0.187012	0.262207	0.043457
221.0	6.372133	-0.693323	7.58693	-0.005275	0.010146	-0.010431	-0.180176	0.255615	0.043457
222.0	6.362591	-0.706714	7.569446	-0.001259	0.007313	-0.011088	-0.18457	0.253662	0.039063
223.0	6.387823	-0.675053	7.533242	-0.004172	0.008836	-0.011769	-0.184326	0.253418	0.047852
224.0	6.358013	-0.672796	7.57992	-0.003462	0.009932	-0.008406	-0.182373	0.255615	0.039063
225.0	6.367496	-0.680172	7.548432	-0.000502	0.008517	-0.011642	-0.182373	0.253418	0.047852
226.0	6.375874	-0.665638	7.566992	-0.000502	0.008517	-0.011641	-0.182129	0.251221	0.045654
227.0	6.366297	-0.678763	7.54957	-0.001203	0.010482	-0.012538	-0.182373	0.253418	0.045654
228.0	6.365537	-0.67814	7.550267	-0.002305	0.011791	-0.011197	-0.182373	0.257813	0.045654
229.0	6.3906	-0.646489	7.51422	-0.002358	0.008623	-0.009744	-0.188965	0.257813	0.04126
230.0	6.33839	-0.708415	7.58819	-0.004516	0.011348	-0.010981	-0.182373	0.255615	0.043457
231.0	6.363328	-0.676842	7.552245	-0.00195	0.012339	-0.009514	-0.18457	0.253662	0.039063
232.0	6.372684	-0.684114	7.520905	-0.003009	0.010695	-0.014556	-0.18457	0.257813	0.04126
233.0	6.398654	-0.642028	7.575715	-0.001949	0.012339	-0.009512	-0.184326	0.251221	0.045654
234.0	6.350773	-0.667426	7.586461	-0.002704	0.011135	-0.008956	-0.182129	0.249268	0.047852
235.0	6.369035	-0.661338	7.573126	-0.008231	0.011556	-0.007188	-0.191162	0.255615	0.043457
236.0	6.377198	-0.64754	7.591786	-0.00567	0.009488	-0.008185	-0.177979	0.255615	0.043457
237.0	6.346279	-0.655909	7.547719	-0.004561	0.01124	-0.007059	-0.186768	0.257813	0.043457
238.0	6.376964	-0.669056	7.54297	-0.005316	0.010035	-0.006503	-0.182373	0.255615	0.04126
239.0	6.38281	-0.643837	7.521066	-0.006718	0.013964	-0.008295	-0.18457	0.253662	0.04126
240.0	6.36849	-0.694086	7.56711	-0.002348	0.011684	-0.00727	-0.180176	0.255615	0.047852
241.0	6.365396	-0.682429	7.527228	-0.003049	0.013648	-0.008165	-0.184814	0.26001	0.045654
242.0	6.357692	-0.707388	7.550719	-0.004505	0.014408	-0.008506	-0.18042	0.26001	0.050049
243.0	6.325191	-0.693686	7.557023	0.00178	0.015194	-0.010824	-0.184814	0.261963	0.047852
244.0	6.3925	-0.672469	7.57465	-0.001538	0.012997	-0.011738	-0.182373	0.253418	0.047852
245.0	6.347768	-0.639678	7.572182	-0.00561	0.012656	-0.009631	-0.184326	0.249268	0.04126
246.0	6.387313	-0.638662	7.585563	-0.001591	0.009828	-0.010286	-0.180176	0.257813	0.050049
247.0	6.377827	-0.652325	7.568042	-0.010438	0.008049	-0.009437	-0.182373	0.253418	0.043457
248.0	6.336909	-0.65312	7.555829	-0.006067	0.008829	-0.005945	-0.186768	0.255615	0.043457
249.0	6.342039	-0.697708	7.587507	-0.009385	0.006632	-0.00686	-0.184326	0.251221	0.045654
250.0	6.354995	-0.647548	7.542645	-0.009385	0.006632	-0.006859	-0.180176	0.257813	0.04126
251.0	6.33907	-0.686835	7.547472	-0.009034	0.00412	-0.007645	-0.186523	0.251465	0.043457
252.0	6.366714	-0.667121	7.551795	-0.006472	0.005113	-0.006175	-0.184326	0.251465	0.043457
253.0	6.366358	-0.667351	7.552075	-0.010139	0.005427	-0.006304	-0.18457	0.255615	0.039063
254.0	6.365957	-0.667538	7.552397	-0.007522	0.00653	-0.00875	-0.191162	0.255615	0.045654
255.0	6.358962	-0.692784	7.575238	-0.00612	0.002601	-0.006961	-0.18457	0.257813	0.04126
256.0	6.377812	-0.686673	7.561469	-0.00461	0.005011	-0.008066	-0.180176	0.255615	0.045654
257.0	6.363748	-0.645882	7.603204	-0.009032	0.00412	-0.007642	-0.18457	0.255615	0.043457
258.0	6.375088	-0.675511	7.521271	-0.006875	0.004455	-0.003939	-0.182373	0.253418	0.050049
259.0	6.364538	-0.668	7.553551	-0.008681	0.004667	-0.005961	-0.182617	0.26001	0.04126
260.0	6.348575	-0.707168	7.558407	-0.008571	0.007948	-0.011321	-0.177979	0.253418	0.047852
261.0	6.363553	-0.667975	7.554383	-0.004204	0.008729	-0.007829	-0.182129	0.251221	0.045654
262.0	6.356279	-0.693224	7.577449	-0.010432	0.008049	-0.009427	-0.18457	0.253418	0.045654
263.0	6.346963	-0.70702	7.559774	-0.005658	0.00643	-0.010637	-0.182129	0.251465	0.043457
264.0	6.349576	-0.648458	7.54713	-0.003797	0.009388	-0.01006	-0.180176	0.257813	0.045654
265.0	6.373852	-0.686621	7.564812	-0.006062	0.005771	-0.008403	-0.180176	0.257813	0.043457
266.0	6.361034	-0.66731	7.556563	-0.005307	0.006977	-0.008955	-0.18457	0.257813	0.050049
267.0	6.36054	-0.667182	7.55699	-0.004957	0.007523	-0.007274	-0.177979	0.255615	0.047852
268.0	6.387985	-0.647472	7.561504	-0.01159	0.006183	-0.00664	-0.186523	0.251221	0.047852
269.0	6.378701	-0.66134	7.543802	-0.00129	0.007212	-0.007143	-0.182373	0.257813	0.045654
270.0	6.339984	-0.673534	7.572147	-0.01229	0.008147	-0.007531	-0.18457	0.253662	0.04126
271.0	6.377845	-0.661797	7.544485	-0.010536	0.001707	-0.006535	-0.180176	0.253662	0.036865
272.0	6.368753	-0.67572	7.526617	-0.005305	0.006977	-0.008952	-0.182373	0.255615	0.047852
273.0	6.340372	-0.695577	7.522873	-0.005362	0.006865	-0.005038	-0.182617	0.26001	0.04126
274.0	6.367779	-0.675673	7.527445	-0.004955	0.007524	-0.00727	-0.18457	0.257813	0.045654
275.0	6.376044	-0.661809	7.546007	-0.006411	0.008283	-0.00761	-0.182373	0.255615	0.045654
276.0	6.375524	-0.661719	7.546454	-0.003499	0.006765	-0.006928	-0.177979	0.257813	0.050049
277.0	6.387242	-0.680843	7.555651	-0.003856	0.012334	-0.003669	-0.180176	0.253662	0.04126
278.0	6.354777	-0.667899	7.561774	-0.00857	0.014063	-0.00637	-0.182373	0.255615	0.043457
279.0	6.366257	-0.687288	7.571144	-0.008217	0.011552	-0.007159	-0.182373	0.253418	0.045654
280.0	6.386589	-0.692769	7.598582	-0.003855	0.012334	-0.003666	-0.182373	0.257813	0.043457
281.0	6.351997	-0.668404	7.564065	-0.006418	0.014397	-0.002666	-0.180176	0.257813	0.039063
282.0	6.373714	-0.695625	7.541457	-0.00752	0.012644	-0.003795	-0.182617	0.26001	0.043457
283.0	6.381501	-0.682136	7.560383	-0.008219	0.014609	-0.004685	-0.182617	0.26001	0.047852
284.0	6.359262	-0.677172	7.534508	-0.008627	0.013949	-0.002453	-0.180176	0.257813	0.045654
285.0	6.339138	-0.68351	7.549257	-0.004899	0.013753	-0.006234	-0.18457	0.257813	0.045654
286.0	6.378517	-0.682848	7.562836	-0.008212	0.011552	-0.007155	-0.180176	0.253418	0.043457
287.0	6.337265	-0.683735	7.550809	-0.006006	0.015057	-0.004891	-0.18457	0.253418	0.045654
288.0	6.367731	-0.696868	7.546395	-0.004897	0.013753	-0.006231	-0.18457	0.255615	0.050049
289.0	6.324887	-0.676164	7.584528	-0.007107	0.013304	-0.006021	-0.184326	0.251465	0.043457
290.0	6.374609	-0.683188	7.566101	-0.004197	0.011788	-0.005339	-0.18457	0.255615	0.043457
291.0	6.36502	-0.696929	7.548676	-0.002741	0.01103	-0.004998	-0.182129	0.251221	0.052246
292.0	6.373013	-0.68319	7.567445	-0.007162	0.010133	-0.004581	-0.180176	0.253418	0.047852
293.0	6.351096	-0.677757	7.541339	-0.002677	0.011145	-0.008909	-0.182617	0.26001	0.043457
294.0	6.36285	-0.696713	7.550525	-0.004944	0.007526	-0.007261	-0.179932	0.249023	0.050049
295.0	6.371047	-0.682645	7.569149	-0.004124	0.008848	-0.011721	-0.180176	0.255615	0.043457
296.0	6.370491	-0.682387	7.56964	-0.006744	0.007738	-0.009282	-0.182617	0.262207	0.045654
297.0	6.350786	-0.688299	7.584035	-0.003777	0.009393	-0.010038	-0.182617	0.26001	0.04126
298.0	6.350258	-0.687996	7.584504	-0.003833	0.006222	-0.0086	-0.182373	0.257813	0.047852
299.0	6.356516	-0.662387	7.562413	-0.004877	0.007641	-0.01117	-0.182129	0.251221	0.047852
300.0	6.356039	-0.662001	7.562848	-0.003422	0.006883	-0.010829	-0.186768	0.255615	0.045654
301.0	6.371827	-0.713959	7.562214	-0.007899	0.002813	-0.008976	-0.182129	0.251221	0.047852
302.0	6.358984	-0.69479	7.553958	-0.005296	0.010035	-0.006465	-0.182373	0.253418	0.043457
303.0	6.358476	-0.694572	7.554405	-0.002722	0.004919	-0.009939	-0.182617	0.26001	0.045654
304.0	6.366748	-0.680466	7.572962	-0.005985	0.008944	-0.009826	-0.182373	0.255615	0.045654
305.0	6.345069	-0.674928	7.546664	-0.005286	0.00698	-0.008937	-0.182373	0.253418	0.043457
306.0	6.395266	-0.681409	7.527974	-0.001209	0.007334	-0.011033	-0.182373	0.255615	0.04126
307.0	6.365287	-0.679475	7.574279	-0.005629	0.006434	-0.010618	-0.182373	0.253418	0.043457
308.0	6.362813	-0.667439	7.534079	-0.000797	0.007996	-0.01326	-0.179932	0.251465	0.043457
309.0	6.330811	-0.653778	7.539765	-0.001964	0.006127	-0.010483	-0.188965	0.257813	0.043457
310.0	6.382907	-0.671702	7.561825	-0.000875	0.010935	-0.006875	-0.18457	0.255615	0.047852
311.0	6.359506	-0.644627	7.585713	-0.008181	0.005437	-0.01209	-0.18042	0.26001	0.043457
312.0	6.36271	-0.677392	7.57663	-0.003429	0.009939	-0.008348	-0.182373	0.253418	0.045654
313.0	6.360069	-0.665514	7.536566	-0.004116	0.008848	-0.011709	-0.187012	0.26001	0.04126
314.0	6.393094	-0.689732	7.572438	-0.005282	0.006978	-0.008933	-0.182373	0.255615	0.045654
315.0	6.339901	-0.67117	7.551342	-0.004527	0.008186	-0.00948	-0.182373	0.255615	0.043457
316.0	6.351813	-0.689899	7.560437	-0.001205	0.007335	-0.011026	-0.182373	0.255615	0.047852
317.0	6.372348	-0.694808	7.587752	-0.00163	0.009728	-0.006324	-0.182373	0.257813	0.04126
318.0	6.338068	-0.669847	7.552997	-0.002602	0.011264	-0.0128	-0.184326	0.251221	0.045654
319.0	6.377552	-0.668399	7.566635	-0.002602	0.011264	-0.012799	-0.182373	0.255615	0.043457
320.0	6.364572	-0.648847	7.558505	-0.00458	0.005013	-0.008044	-0.177979	0.253662	0.04126
321.0	6.376495	-0.667786	7.56758	-0.003426	0.009939	-0.008343	-0.180176	0.255615	0.047852
322.0	6.375771	-0.667558	7.56821	-0.00488	0.010695	-0.008683	-0.18457	0.253418	0.043457
323.0	6.347267	-0.687288	7.564491	-0.001971	0.009183	-0.008001	-0.182373	0.255615	0.039063
324.0	6.372383	-0.655515	7.528816	-0.004537	0.01124	-0.007001	-0.182617	0.26001	0.043457
325.0	6.364987	-0.680599	7.55189	-0.005905	0.009059	-0.013723	-0.182373	0.255615	0.045654
326.0	6.366309	-0.691791	7.593096	-0.003424	0.009939	-0.00834	-0.18457	0.255615	0.045654
327.0	6.342367	-0.674582	7.52643	-0.00227	0.014864	-0.008636	-0.184326	0.253418	0.047852
328.0	6.383601	-0.685073	7.580865	-0.007786	0.012206	-0.00936	-0.175781	0.251465	0.04126
329.0	6.351167	-0.671986	7.58679	-0.004122	0.011903	-0.009224	-0.186768	0.257813	0.047852
330.0	6.379947	-0.673016	7.541715	-0.001911	0.012356	-0.009428	-0.180176	0.255615	0.047852
331.0	6.328424	-0.666056	7.561414	-0.007086	0.010242	-0.008472	-0.175781	0.255859	0.036865
332.0	6.378504	-0.67256	7.542976	-0.002308	0.008638	-0.009676	-0.180176	0.253418	0.043457
333.0	6.339627	-0.684548	7.571143	-0.002307	0.008638	-0.009675	-0.186768	0.257813	0.043457
334.0	6.37731	-0.671938	7.544041	-0.00784	0.009033	-0.007926	-0.177734	0.251465	0.043457
335.0	6.345241	-0.658971	7.549628	-0.004573	0.005013	-0.008039	-0.18042	0.26001	0.04126
336.0	6.344792	-0.658885	7.550013	-0.00459	0.008067	-0.005563	-0.182373	0.257813	0.045654
337.0	6.36541	-0.66427	7.577216	-0.008236	0.005315	-0.008175	-0.18457	0.257813	0.047852
338.0	6.356391	-0.678133	7.559348	-0.005686	0.006313	-0.006698	-0.182617	0.26001	0.043457
339.0	6.355916	-0.678092	7.559752	-0.00493	0.007522	-0.007242	-0.180176	0.253418	0.050049
340.0	6.348769	-0.703386	7.582571	-0.006025	0.005768	-0.008378	-0.182373	0.257813	0.052246
341.0	6.35508	-0.677712	7.560488	-0.001946	0.006131	-0.010466	-0.182373	0.257813	0.047852
342.0	6.352745	-0.665888	7.520231	-0.007479	0.006523	-0.008717	-0.186523	0.251221	0.045654
343.0	6.350403	-0.644388	7.570794	-0.005609	0.006433	-0.010601	-0.180176	0.255615	0.045654
344.0	6.362416	-0.663319	7.579813	-0.003475	0.006767	-0.006899	-0.182129	0.251465	0.043457
345.0	6.362019	-0.663149	7.580161	-0.00457	0.005013	-0.008036	-0.180176	0.257813	0.047852
346.0	6.344508	-0.690776	7.544003	-0.007194	0.003894	-0.005607	-0.182373	0.255615	0.047852
347.0	6.368186	-0.63792	7.558165	-0.007534	0.00335	-0.007287	-0.182373	0.255615	0.039063
348.0	6.365083	-0.696227	7.571236	-0.004569	0.005013	-0.008034	-0.178223	0.257813	0.04126
349.0	6.362899	-0.684392	7.530863	-0.003454	0.003714	-0.009374	-0.186523	0.251221	0.050049
350.0	6.35208	-0.676587	7.563109	-0.004568	0.005013	-0.008034	-0.182373	0.255615	0.043457
351.0	6.360255	-0.662663	7.581684	-0.008514	0.007942	-0.011278	-0.184814	0.262207	0.045654
352.0	6.363653	-0.695439	7.57251	-0.00202	0.006013	-0.006556	-0.188965	0.255615	0.047852
353.0	6.361378	-0.683632	7.532217	-0.004568	0.005013	-0.008033	-0.180176	0.253418	0.050049
354.0	6.350485	-0.676056	7.564497	-0.00823	0.005313	-0.008169	-0.182373	0.253662	0.04126
355.0	6.377847	-0.655909	7.569251	-0.003812	0.006223	-0.008575	-0.182373	0.255615	0.043457
356.0	6.379397	-0.677129	7.519413	-0.009267	0.006732	-0.010732	-0.18457	0.257813	0.04126
357.0	6.368354	-0.66956	7.551815	-0.006719	0.007732	-0.009254	-0.182617	0.26001	0.043457
358.0	6.348634	-0.675707	7.566081	-0.005964	0.008942	-0.009796	-0.18457	0.257813	0.050049
359.0	6.375952	-0.655378	7.570893	-0.005242	0.003925	-0.011391	-0.182373	0.253418	0.043457
360.0	6.344033	-0.642186	7.57632	-0.002356	0.005469	-0.008233	-0.184326	0.249268	0.045654
361.0	6.394558	-0.648597	7.557624	-0.007867	0.002804	-0.008964	-0.186523	0.251465	0.039063
362.0	6.379144	-0.687968	7.561922	-0.009737	0.002892	-0.00708	-0.182373	0.255615	0.047852
363.0	6.366478	-0.669035	7.553442	-0.00932	0.003558	-0.009302	-0.182373	0.253418	0.050049
364.0	6.359518	-0.694694	7.576052	-0.010098	0.0054	-0.006281	-0.182617	0.26001	0.045654
365.0	6.362002	-0.636795	7.563466	-0.011607	0.00298	-0.005195	-0.18457	0.257813	0.039063
366.0	6.374326	-0.656652	7.572152	-0.014233	0.001857	-0.002769	-0.180176	0.255615	0.045654
367.0	6.360734	-0.71766	7.526348	-0.00425	0.00861	-0.003867	-0.182373	0.255615	0.04126
368.0	6.373578	-0.65728	7.572728	-0.010072	0.002349	-0.008758	-0.182129	0.251221	0.045654
369.0	6.377248	-0.690267	7.563312	-0.004226	0.005559	-0.006345	-0.182373	0.253662	0.039063
370.0	6.355826	-0.684847	7.536791	-0.006016	0.005769	-0.008364	-0.184326	0.251465	0.043457
371.0	6.367924	-0.704031	7.545725	-0.007887	0.005856	-0.006481	-0.182373	0.255615	0.047852
372.0	6.375979	-0.690243	7.564385	-0.00596	0.008944	-0.009787	-0.179932	0.251465	0.04126
373.0	6.390648	-0.650744	7.560745	-0.001262	0.007226	-0.007088	-0.177979	0.255615	0.045654
374.0	6.341521	-0.665429	7.529739	-0.008978	0.004102	-0.007618	-0.180176	0.253418	0.043457
375.0	6.36204	-0.670679	7.557035	-0.000869	0.010944	-0.00683	-0.186768	0.257813	0.045654
376.0	6.365419	-0.703467	7.547891	-0.008222	0.005312	-0.008159	-0.180176	0.257813	0.04126
377.0	6.360971	-0.670552	7.557946	-0.005622	0.009487	-0.008104	-0.18457	0.255615	0.04126
378.0	6.360352	-0.670507	7.558471	-0.006376	0.008277	-0.007561	-0.180176	0.253418	0.043457
379.0	6.382874	-0.697012	7.535595	-0.004167	0.008734	-0.007763	-0.18457	0.257813	0.043457
380.0	6.378322	-0.663785	7.545764	-0.004085	0.008858	-0.011665	-0.18457	0.257813	0.04126
381.0	6.377722	-0.663477	7.546298	-0.004167	0.008734	-0.007762	-0.177979	0.255859	0.039063
382.0	6.347179	-0.662162	7.592677	-0.003775	0.012452	-0.007503	-0.180176	0.257813	0.045654
383.0	6.369555	-0.688564	7.569947	-0.005955	0.008944	-0.009781	-0.180176	0.255615	0.04126
384.0	6.375695	-0.6628	7.54807	-0.001594	0.006684	-0.008763	-0.177734	0.251465	0.04126
385.0	6.375159	-0.662621	7.548539	-0.006038	0.008819	-0.005878	-0.177979	0.257813	0.043457
386.0	6.363939	-0.655167	7.581012	-0.00492	0.007523	-0.007219	-0.18457	0.253418	0.043457
387.0	6.365494	-0.676406	7.531251	-0.007826	0.009029	-0.007897	-0.18457	0.253662	0.04126
388.0	6.396579	-0.688965	7.526646	-0.002627	0.008106	-0.01132	-0.182617	0.26001	0.043457
389.0	6.353669	-0.668655	7.564254	-0.00791	0.008903	-0.003995	-0.182373	0.257813	0.045654
390.0	6.372191	-0.662648	7.551042	-0.006121	0.008693	-0.001975	-0.182373	0.255615	0.04126
391.0	6.343792	-0.682907	7.547099	-0.006315	0.011451	-0.008975	-0.18457	0.253418	0.043457
392.0	6.383234	-0.681796	7.560883	-0.005616	0.009487	-0.008095	-0.180176	0.255859	0.039063
393.0	6.395001	-0.700822	7.570124	-0.006314	0.011451	-0.008974	-0.18457	0.257813	0.043457
394.0	6.36068	-0.676184	7.535337	-0.004105	0.01191	-0.009174	-0.182373	0.255615	0.047852
395.0	6.361651	-0.687512	7.576686	-0.001897	0.012368	-0.009374	-0.182373	0.257813	0.039063
396.0	6.339775	-0.681863	7.550569	-0.005557	0.012662	-0.009512	-0.177979	0.253418	0.043457
397.0	6.379111	-0.680432	7.564484	-0.004351	0.011493	-0.014752	-0.18457	0.253662	0.04126
398.0	6.348874	-0.688272	7.520018	0.001011	0.010864	-0.008693	-0.186523	0.253418	0.045654
399.0	6.365002	-0.660416	7.557299	-0.005643	0.012535	-0.00561	-0.180176	0.253418	0.043457
400.0	6.38518	-0.665645	7.584882	-0.005191	0.010155	-0.010311	-0.182373	0.253418	0.045654
401.0	6.375979	-0.679209	7.567234	-0.004857	0.010698	-0.00863	-0.182373	0.257813	0.04126
402.0	6.364581	-0.671747	7.599795	-0.006032	0.008817	-0.005871	-0.182129	0.251221	0.045654
403.0	6.353669	-0.673828	7.541461	-0.00561	0.009486	-0.00809	-0.182617	0.26001	0.043457
404.0	6.382482	-0.665104	7.5872	-0.004069	0.008861	-0.011649	-0.182373	0.257813	0.043457
405.0	6.364902	-0.692459	7.5512	-0.007063	0.010238	-0.008428	-0.182373	0.253418	0.047852
406.0	6.351773	-0.673303	7.543104	-0.004911	0.007522	-0.00721	-0.180176	0.255615	0.043457
407.0	6.351036	-0.672985	7.543753	0.000649	0.013372	-0.007883	-0.182373	0.253418	0.047852
408.0	6.377847	-0.652399	7.549093	-0.003401	0.009946	-0.008286	-0.182373	0.253418	0.047852
409.0	6.370364	-0.67758	7.572108	-0.003343	0.013122	-0.009701	-0.186523	0.253418	0.047852
410.0	6.350294	-0.683654	7.586557	-0.004098	0.01191	-0.009162	-0.177979	0.253662	0.04126
411.0	6.368624	-0.676894	7.573632	-0.000105	0.012161	-0.007341	-0.18042	0.26001	0.039063
412.0	6.359348	-0.690402	7.556066	-0.004519	0.01124	-0.006943	-0.182373	0.257813	0.047852
413.0	6.366903	-0.676292	7.575133	-0.001133	0.013582	-0.009897	-0.177979	0.253418	0.047852
414.0	6.345037	-0.670479	7.549023	-0.001888	0.01237	-0.009358	-0.182373	0.257813	0.043457
415.0	6.363401	-0.663672	7.53609	-0.004426	0.011367	-0.010839	-0.182373	0.253418	0.043457
416.0	6.360132	-0.642136	7.587168	-0.002253	0.014876	-0.008553	-0.182617	0.26001	0.039063
417.0	6.363243	-0.674747	7.578345	-0.005546	0.012661	-0.009497	-0.182373	0.255615	0.043457
418.0	6.37485	-0.693573	7.587767	-0.003338	0.013122	-0.009694	-0.180176	0.253418	0.045654
419.0	6.351324	-0.676174	7.520989	-0.000856	0.010949	-0.006797	-0.18457	0.255615	0.045654
420.0	6.371538	-0.681251	7.548556	-0.003819	0.009276	-0.006062	-0.184814	0.26001	0.045654
421.0	6.351619	-0.687437	7.562834	-0.002639	0.011158	-0.008816	-0.186768	0.257813	0.043457
422.0	6.370174	-0.68067	7.549759	-0.006593	0.007857	-0.013122	-0.182373	0.257813	0.045654
423.0	6.358777	-0.672998	7.582249	-0.003393	0.009946	-0.008277	-0.182373	0.253418	0.045654
424.0	6.337102	-0.667508	7.555948	-0.004515	0.011239	-0.006936	-0.180176	0.253418	0.045654
425.0	6.368104	-0.679956	7.55157	-0.005505	0.009612	-0.011976	-0.182373	0.253662	0.04126
426.0	6.348286	-0.685991	7.565763	-0.00227	0.008653	-0.009616	-0.179932	0.251465	0.04126
427.0	6.366872	-0.679165	7.55268	-0.003722	0.009404	-0.009955	-0.182373	0.257813	0.04126
428.0	6.363727	-0.657665	7.603584	-0.004419	0.011367	-0.01083	-0.182373	0.255615	0.043457
429.0	6.372094	-0.652968	7.531695	-0.001609	0.009737	-0.006254	-0.186768	0.255615	0.045654
430.0	6.373148	-0.66448	7.572854	-0.005928	0.008941	-0.009757	-0.177979	0.255615	0.047852
431.0	6.383409	-0.671699	7.541393	-0.004901	0.00752	-0.007201	-0.180176	0.255615	0.04126
432.0	6.352737	-0.670657	7.587517	-0.004843	0.010696	-0.008611	-0.180176	0.255615	0.045654
433.0	6.343754	-0.684273	7.569719	-0.005229	0.006978	-0.00888	-0.18457	0.257813	0.043457
434.0	6.370846	-0.66378	7.574853	-0.003021	0.007441	-0.009076	-0.179932	0.251465	0.045654
435.0	6.372816	-0.684563	7.525031	-0.004802	0.007649	-0.011095	-0.177979	0.257813	0.047852
436.0	6.357205	-0.644038	7.567201	-0.001608	0.009738	-0.00625	-0.18457	0.255615	0.043457
437.0	6.36913	-0.662945	7.576368	-0.00668	0.007728	-0.009218	-0.182373	0.255615	0.04126
438.0	6.394201	-0.630978	7.541182	-0.002443	0.014619	-0.000743	-0.18457	0.255615	0.045654
439.0	6.365709	-0.651547	7.537216	-0.009024	0.010183	-0.002641	-0.182617	0.262207	0.04126
440.0	6.377291	-0.591689	7.584329	-0.00798	0.014985	0.00099	-0.180176	0.257813	0.047852
441.0	6.378583	-0.613946	7.534984	-0.01474	0.016513	0.007958	-0.180176	0.253662	0.039063
442.0	6.351407	-0.647882	7.57174	-0.021032	0.015665	0.010226	-0.182373	0.257813	0.043457
443.0	6.371799	-0.664573	7.508816	-0.015533	0.018346	0.010984	-0.186768	0.255615	0.04126
444.0	6.374366	-0.619926	7.538062	-0.018803	0.022352	0.011115	-0.177979	0.255615	0.050049
445.0	6.374112	-0.634056	7.58004	-0.020719	0.025476	0.015482	-0.184814	0.26001	0.045654
446.0	6.351168	-0.631487	7.554571	-0.023719	0.026846	0.018703	-0.182617	0.259766	0.052002
447.0	6.350608	-0.64654	7.59669	-0.027474	0.027003	0.022459	-0.182129	0.251465	0.04126
448.0	6.37172	-0.676497	7.574999	-0.027836	0.029508	0.023275	-0.180176	0.257813	0.043457
449.0	6.350148	-0.686547	7.590187	-0.027137	0.027543	0.024154	-0.184814	0.262207	0.043457
450.0	6.343639	-0.736735	7.563668	-0.029604	0.02972	0.021267	-0.184326	0.251465	0.04126
451.0	6.341231	-0.739749	7.565394	-0.01777	0.030196	0.017281	-0.182617	0.26001	0.04126
452.0	6.355511	-0.715144	7.603895	-0.026266	0.02889	0.019741	-0.180176	0.253418	0.045654
453.0	6.291612	-0.625514	7.693568	-0.031685	0.020128	0.013993	-0.182373	0.257813	0.045654
454.0	6.301916	-0.637563	7.661767	-0.068949	-0.005838	0.015682	-0.182373	0.253662	0.04126
455.0	6.218263	-0.605786	7.733449	-0.122807	-0.040087	0.005622	-0.182617	0.262207	0.045654
456.0	6.2426	-0.769945	7.638347	-0.181047	-0.096834	0.003606	-0.182617	0.26001	0.047852
457.0	6.376264	-0.664003	7.646383	-0.177479	-0.115929	0.004471	-0.184814	0.262207	0.04126
458.0	6.367559	-0.616242	7.598086	-0.235196	-0.134967	0.014823	-0.182617	0.26416	0.045654
459.0	6.414947	-0.771656	7.574509	-0.23494	-0.134816	0.011153	-0.182617	0.261963	0.047852
460.0	6.4239	-0.698747	7.562263	-0.2298	-0.142235	0.014616	-0.18457	0.259766	0.052002
461.0	6.402031	-0.86344	7.478606	-0.266754	-0.14036	0.010318	-0.184814	0.26416	0.045654
462.0	6.358709	-0.935434	7.498074	-0.23861	-0.132222	0.003095	-0.185059	0.266357	0.049805
463.0	6.50711	-0.860803	7.421193	-0.253514	-0.131758	-0.008256	-0.189209	0.26416	0.049805
464.0	6.416366	-0.957432	7.44984	-0.221157	-0.119833	-0.009593	-0.182617	0.26416	0.054199
465.0	6.501872	-0.945666	7.385572	-0.213921	-0.120585	-0.018687	-0.185059	0.268311	0.054199
466.0	6.475706	-1.005165	7.393354	-0.180821	-0.091819	-0.019778	-0.189209	0.26416	0.052002
467.0	6.494395	-1.042033	7.303141	-0.148586	-0.073672	-0.020174	-0.19165	0.272705	0.054199
468.0	6.466168	-0.939868	7.394689	-0.113778	-0.048144	-0.021915	-0.195801	0.268311	0.052002
469.0	6.485005	-0.900721	7.479108	-0.097849	-0.04105	-0.013659	-0.193848	0.270508	0.054199
470.0	6.464807	-0.887944	7.408893	-0.101458	-0.040758	-0.013704	-0.191406	0.266113	0.058594
471.0	6.486495	-0.888145	7.392106	-0.106963	-0.028205	-0.005625	-0.19165	0.268555	0.049805
472.0	6.434636	-0.772482	7.551746	-0.075104	-0.02004	0.005743	-0.189453	0.270508	0.052002
473.0	6.527933	-0.888679	7.360172	-0.108811	-0.025636	0.020045	-0.187012	0.26416	0.052002
474.0	6.393712	-0.751172	7.636835	-0.081994	-0.013234	0.029656	-0.191406	0.266357	0.052002
475.0	6.547287	-0.95828	7.352263	-0.106544	-0.037873	0.03482	-0.191406	0.268311	0.060791
476.0	6.373024	-0.901427	7.574671	-0.104771	-0.025923	0.043084	-0.189209	0.266113	0.056396
477.0	6.464438	-1.17524	7.300316	-0.104113	-0.027586	0.02668	-0.191406	0.266113	0.056396
478.0	6.554139	-1.005366	7.292812	-0.051927	-0.023484	0.035557	-0.19165	0.268311	0.058594
479.0	6.320982	-1.116555	7.56664	-0.082209	-0.016736	0.02559	-0.19165	0.272705	0.056396
480.0	6.465408	-1.25375	7.304112	-0.018879	-0.015691	0.016487	-0.185059	0.270508	0.054199
481.0	6.371428	-1.043479	7.454407	-0.013618	-0.006917	0.008874	-0.193848	0.270508	0.058594
482.0	6.421587	-1.127438	7.393294	0.009355	-0.006542	0.002614	-0.196045	0.270508	0.058594
483.0	6.383771	-0.971224	7.462203	0.021638	-0.011397	0.004464	-0.189453	0.268555	0.052002
484.0	6.440071	-0.930227	7.471921	0.024397	-0.01334	0.01286	-0.187256	0.268311	0.060791
485.0	6.326	-1.048668	7.511897	0.030468	-0.019079	0.0171	-0.187256	0.268311	0.056396
486.0	6.358159	-0.968534	7.505501	0.04327	-0.035746	0.027774	-0.193848	0.270508	0.056396
487.0	6.312799	-0.975857	7.562715	0.023787	-0.052224	0.037027	-0.189453	0.268311	0.054199
488.0	6.265655	-1.120679	7.587598	0.034755	-0.087242	0.042224	-0.193604	0.266357	0.054199
489.0	6.199917	-1.089088	7.625836	0.042891	-0.126734	0.041788	-0.189209	0.26416	0.056396
490.0	6.109674	-0.984578	7.656776	0.06368	-0.198182	0.033851	-0.19165	0.270508	0.060791
491.0	6.330603	-0.948517	7.938979	0.083271	-0.275195	0.037993	-0.191406	0.263916	0.065186
492.0	6.125614	-0.810218	8.187651	-0.024825	-0.39604	0.050455	-0.193848	0.270508	0.058594
493.0	6.239572	-1.183867	7.866767	-0.029285	-0.534063	0.038114	-0.189453	0.270508	0.062988
494.0	6.037652	-0.895455	8.615502	0.017525	-0.663945	0.029229	-0.197998	0.268311	0.067139
495.0	5.314627	-2.162913	8.852407	-0.108307	-0.884216	-0.035704	-0.202393	0.270264	0.07373
496.0	3.825361	-1.204379	11.071813	-0.007039	-1.216338	-0.152198	-0.204834	0.272461	0.075928
497.0	4.140506	-1.812172	9.851482	-0.45409	-1.809218	-0.289838	-0.206543	0.265625	0.088867
498.0	4.602817	-1.796386	10.443649	-0.338362	-2.234983	-0.455841	-0.217529	0.269775	0.095459
499.0	5.024292	-2.066876	9.949184	-0.421201	-2.713921	-0.624401	-0.221924	0.269531	0.119141
500.0	5.809828	-1.971049	9.793206	-0.371051	-3.090252	-0.784663	-0.226318	0.269287	0.13208
501.0	6.854225	-2.435744	9.104768	-0.452935	-3.372657	-0.916998	-0.237061	0.269043	0.143066
502.0	7.620832	-3.429539	8.533201	-0.373773	-3.507441	-1.109953	-0.232666	0.266602	0.168945
503.0	9.52095	-3.221761	7.86026	-0.107289	-3.468449	-1.268618	-0.247803	0.26416	0.188477
504.0	11.151611	-2.834118	7.789264	-0.11113	-3.300118	-1.378445	-0.247559	0.259766	0.205811
505.0	12.137058	-1.896272	8.032949	-0.14184	-2.990603	-1.436716	-0.24707	0.248779	0.223389
506.0	9.843287	-2.769981	10.897329	-0.765665	-2.511933	-1.413623	-0.253418	0.248291	0.244873
507.0	5.36826	-7.158312	11.712826	-0.613635	-1.766752	-1.409583	-0.249023	0.24585	0.264404
508.0	3.326136	-4.758103	13.788273	0.374193	-0.756743	-1.360684	-0.248779	0.239502	0.268799
509.0	4.508768	-2.879946	16.272914	0.21837	0.308418	-1.165898	-0.243896	0.228516	0.286133
510.0	-1.879392	-3.516256	13.687869	-0.185741	1.137561	-0.917675	-0.237305	0.226074	0.297119
511.0	-3.5402	-3.8026	12.098653	-0.495172	1.077228	-0.888476	-0.230957	0.230225	0.31665
512.0	-0.385177	-4.210843	12.619218	-0.61066	1.234968	-0.799272	-0.221924	0.22583	0.327393
513.0	0.624748	-4.857794	12.6183	-0.730331	1.767611	-0.645351	-0.217773	0.231934	0.353516
514.0	0.835738	-4.722629	12.566336	-0.747021	2.180678	-0.446975	-0.219727	0.227295	0.373047
515.0	1.520229	-4.575019	12.160383	-0.875909	2.477225	-0.216448	-0.215332	0.227051	0.398926
516.0	2.403262	-4.486846	11.803991	-0.975215	2.718241	0.039705	-0.219482	0.224365	0.427246
517.0	3.362409	-4.625349	11.519554	-1.037825	2.91008	0.30676	-0.225586	0.215576	0.446777
518.0	4.290572	-4.661908	11.25799	-1.024241	3.069656	0.573745	-0.227539	0.206543	0.4729
519.0	5.132197	-4.473091	10.938096	-0.962571	3.19244	0.822517	-0.249268	0.206299	0.48999
520.0	5.696855	-4.232208	10.527463	-0.893122	3.255647	1.052589	-0.272461	0.193115	0.505371
521.0	6.107018	-3.951488	10.09542	-0.796943	3.245311	1.268408	-0.296387	0.188477	0.516113
522.0	6.385159	-3.672816	9.679402	-0.726089	3.151891	1.463086	-0.322021	0.17749	0.529053
523.0	6.663928	-3.506897	9.192409	-0.637451	2.966293	1.629495	-0.345703	0.173096	0.529053
524.0	7.149853	-3.310052	8.884026	-0.56727	2.727087	1.768192	-0.380371	0.164551	0.522705
525.0	7.732478	-3.28918	8.789302	-0.50112	2.45342	1.861181	-0.397461	0.160156	0.509521
526.0	9.277512	-2.701082	9.160333	-0.447752	2.207762	1.942774	-0.428223	0.164551	0.500732
527.0	10.911792	-2.089169	9.691859	-0.593871	2.104768	2.053383	-0.45459	0.166992	0.476807
528.0	12.247346	-1.895743	9.783737	-0.790476	2.123639	2.168922	-0.467529	0.167236	0.459473
529.0	12.653572	-1.082973	9.510356	-0.968437	2.265559	2.293998	-0.485352	0.173828	0.433594
530.0	12.122531	-1.105215	8.508522	-1.252388	2.36706	2.397856	-0.498535	0.178467	0.403076
531.0	11.359519	-1.205181	7.120373	-1.292915	2.385815	2.444695	-0.510254	0.198242	0.37915
532.0	10.916791	-1.08224	5.825843	-1.18906	2.318118	2.428643	-0.514648	0.198486	0.357422
533.0	10.686777	-0.728585	4.876009	-0.974703	2.192427	2.377713	-0.517334	0.20752	0.324951
534.0	10.787132	-0.678909	3.870921	-0.71615	2.018247	2.244123	-0.518066	0.225098	0.303223
535.0	10.928374	-0.40119	3.058666	-0.332762	1.894418	2.033948	-0.518555	0.238281	0.270508
536.0	10.56134	0.476446	2.425964	0.000657	1.800517	1.750156	-0.516846	0.245117	0.250977
537.0	10.150861	1.206705	1.673933	0.160382	1.615826	1.414941	-0.512695	0.253906	0.227051
538.0	9.849418	1.869192	0.811799	0.242294	1.37536	1.068929	-0.508789	0.260742	0.211914
539.0	9.579683	2.681834	0.104818	0.202239	1.048846	0.768933	-0.504883	0.269531	0.196777
540.0	9.769205	2.650191	-0.510996	0.003474	0.61951	0.512225	-0.511475	0.271729	0.187988
541.0	10.179095	2.161933	-0.936125	0.029825	0.236083	0.323862	-0.504883	0.271973	0.183594
542.0	10.377634	1.685791	-0.922083	0.181463	-0.109845	0.172326	-0.506836	0.267578	0.175049
543.0	10.654285	1.12035	-0.759174	0.486511	-0.397814	0.045469	-0.51123	0.267578	0.181641
544.0	10.646991	0.835771	-0.395162	0.884602	-0.616308	-0.069808	-0.50708	0.271973	0.175049
545.0	10.497852	0.779116	0.047323	1.30127	-0.80338	-0.207669	-0.515625	0.267578	0.183594
546.0	10.261428	1.521995	0.591665	1.616698	-1.004838	-0.358231	-0.513428	0.265381	0.179443
547.0	10.339214	2.213395	1.128328	1.69639	-1.259108	-0.50795	-0.519531	0.258789	0.187988
548.0	1.062807	4.450491	9.421363	2.183661	-1.404823	-0.661074	-0.530029	0.25	0.205566
549.0	2.157492	-7.079918	28.901893	-0.942966	-2.635207	-1.406083	-0.538818	0.247559	0.216309
550.0	-7.191455	-11.502783	8.058386	0.447506	-0.770431	-1.387675	-0.536133	0.234863	0.214111
551.0	-14.820567	-4.860419	1.873917	1.548112	-2.777569	-2.305045	-0.544189	0.223633	0.242432
552.0	18.277557	1.050679	10.348067	1.819781	-5.704983	-2.725539	-0.561035	0.208008	0.270508
553.0	27.013164	3.556239	10.89763	0.87634	-2.299501	-1.478381	-0.562988	0.201416	0.2771
554.0	7.475125	1.01923	4.87978	1.227272	-1.761847	-0.934445	-0.564941	0.197021	0.288086
555.0	7.481206	4.988813	12.662931	0.916106	-2.539702	-0.481606	-0.569336	0.198975	0.30957
556.0	4.768039	4.320877	9.502633	-0.033291	-2.333559	-0.224549	-0.566895	0.196533	0.322754
557.0	5.842247	6.738709	9.864792	-0.164195	-2.524827	-0.422969	-0.573486	0.198486	0.337891
558.0	8.146158	3.273335	8.553853	-1.328939	-2.537412	-0.544334	-0.573486	0.196289	0.348633
559.0	11.326226	-1.946745	7.207154	-1.440788	-2.44123	-0.63168	-0.582031	0.196045	0.36377
560.0	19.147011	-10.668128	4.492078	-1.559692	-1.970548	-0.258574	-0.580078	0.199951	0.385498
561.0	19.442737	-14.899816	2.28728	0.369248	-0.73045	0.263041	-0.577881	0.202148	0.383301
562.0	8.792712	1.302572	8.52247	3.183413	0.40567	0.16832	-0.582275	0.204346	0.381104
563.0	6.622649	7.97179	12.91733	0.325078	0.2761	-0.061043	-0.577881	0.197998	0.374756
564.0	8.836788	-4.521969	3.781046	-0.908823	-0.106709	0.311254	-0.580078	0.200195	0.376953
565.0	6.836218	0.264629	9.235849	1.021838	0.398222	0.248428	-0.575928	0.206543	0.374756
566.0	6.538829	-1.994553	7.548914	-0.415892	0.119081	0.251637	-0.576172	0.213135	0.372559
567.0	6.350718	-3.303767	7.11404	0.250384	0.193789	0.129197	-0.573975	0.213135	0.372559
568.0	6.002625	-2.032831	7.894664	0.195284	0.152796	-0.005322	-0.578125	0.20874	0.374512
569.0	6.537795	-1.626139	7.280394	0.246117	0.122232	-0.028572	-0.57373	0.206543	0.376709
570.0	6.358251	-0.403405	7.945726	0.263852	0.115603	-0.003077	-0.578369	0.210938	0.372559
571.0	6.303331	-0.165243	8.079284	0.102341	0.031131	0.066952	-0.580566	0.210938	0.368164
572.0	6.327526	-0.336043	7.987714	-0.021817	-0.042867	0.141175	-0.582764	0.215088	0.372314
573.0	6.322273	-0.705571	7.93023	-0.162588	-0.128124	0.222647	-0.578369	0.210938	0.368164
574.0	6.42086	-1.484648	7.733169	-0.133675	-0.14222	0.201018	-0.574219	0.217285	0.374512
575.0	6.313436	-1.658618	7.65316	-0.155533	-0.220131	0.17841	-0.580811	0.219482	0.376709
576.0	6.610733	-2.270438	7.183101	-0.246348	-0.260129	0.121353	-0.576416	0.217285	0.378906
577.0	6.609777	-2.224102	7.037511	-0.089437	-0.216428	0.05786	-0.576172	0.212891	0.378906
578.0	6.623939	-1.951146	7.156501	-0.094058	-0.200945	0.022974	-0.574219	0.217285	0.381104
579.0	6.595026	-2.064131	7.073738	-0.069015	-0.19302	-0.011842	-0.578613	0.219482	0.383301
580.0	6.389949	-1.742325	7.339998	-0.009134	-0.21198	-0.038848	-0.576416	0.22168	0.381104
581.0	6.51074	-1.790182	7.27155	-0.098417	-0.259989	-0.061372	-0.578613	0.221436	0.381104
582.0	6.524398	-2.01118	7.049965	-0.082726	-0.274903	-0.105511	-0.576416	0.217285	0.387695
583.0	6.614345	-2.14774	6.929791	-0.028786	-0.24969	-0.169792	-0.578613	0.221436	0.391846
584.0	6.467388	-2.150913	6.977897	0.047515	-0.20741	-0.232553	-0.578613	0.219238	0.391846
585.0	6.47503	-2.231611	6.943635	0.09924	-0.193865	-0.305275	-0.578125	0.208496	0.39624
586.0	6.519589	-2.13499	6.911865	0.160562	-0.189817	-0.372352	-0.584961	0.214844	0.391846
587.0	6.587852	-2.071248	6.895276	0.1842	-0.163987	-0.435156	-0.578369	0.210693	0.391846
588.0	6.639651	-2.216144	6.712593	0.239825	-0.130754	-0.48691	-0.575684	0.201904	0.394287
589.0	6.70801	-1.827132	6.815657	0.346128	-0.075086	-0.532683	-0.580078	0.201904	0.394287
590.0	6.686239	-1.794655	6.886285	0.361766	-0.022746	-0.54833	-0.577637	0.193359	0.394287
591.0	6.645559	-1.412983	7.024469	0.456565	0.024643	-0.55901	-0.573242	0.195557	0.394287
592.0	6.771343	-0.644806	7.327424	0.48299	0.032831	-0.523695	-0.572754	0.180664	0.389893
593.0	6.67709	-0.316973	7.549994	0.379771	0.04919	-0.459377	-0.577148	0.180664	0.385498
594.0	6.73043	0.111949	7.555582	0.378471	0.004019	-0.366641	-0.576904	0.174072	0.39209
595.0	6.7211	0.77155	8.059394	0.261014	-0.026138	-0.248908	-0.583252	0.169922	0.387939
596.0	6.789453	0.261785	7.661143	0.098248	-0.095674	-0.136296	-0.581299	0.176025	0.398682
597.0	6.796872	0.446829	7.949377	0.053395	-0.134029	-0.019488	-0.585693	0.176025	0.396484
598.0	6.722794	0.298927	7.793018	-0.089328	-0.204865	0.087455	-0.581543	0.18042	0.396484
599.0	6.620908	-0.320169	7.616909	-0.172766	-0.263794	0.142271	-0.579346	0.184814	0.398682
600.0	6.58576	-0.759979	7.402683	-0.176064	-0.305202	0.160732	-0.581787	0.186768	0.402832
601.0	6.548932	-1.164278	7.450892	-0.189447	-0.337054	0.156437	-0.585938	0.186768	0.405029
602.0	6.466007	-1.668343	7.301692	-0.133935	-0.360812	0.131025	-0.577393	0.186768	0.405029
603.0	6.535382	-1.193366	7.52826	0.043394	-0.381992	0.114963	-0.57959	0.188965	0.402832
604.0	6.077039	-0.95927	8.395158	-0.057173	-0.482431	0.111927	-0.57959	0.188965	0.407227
605.0	6.009559	-2.278691	7.54863	-0.141718	-0.675021	0.042639	-0.57959	0.188965	0.409424
606.0	6.199708	-1.517571	8.036619	0.128197	-0.750149	-0.004021	-0.577637	0.195313	0.411621
607.0	6.104762	-1.129268	8.165773	0.038616	-0.934054	-0.028643	-0.575195	0.188721	0.416016
608.0	6.136657	-1.38717	8.153934	0.011861	-1.164678	-0.050966	-0.575195	0.188721	0.428955
609.0	6.04876	-1.244732	8.420868	0.052723	-1.397736	-0.064154	-0.570801	0.188477	0.435547
610.0	6.031588	-1.051621	8.549854	0.04792	-1.697856	-0.086698	-0.572754	0.184082	0.444092
611.0	6.074251	-0.972228	8.829986	0.012846	-2.024235	-0.099737	-0.570801	0.19043	0.454834
612.0	5.827768	-1.314792	8.967764	-0.03546	-2.380104	-0.145109	-0.572998	0.192627	0.461426
613.0	5.751532	-1.178013	9.068728	-0.025965	-2.740727	-0.218499	-0.563965	0.183594	0.483154
614.0	5.476338	-0.75413	9.399156	-0.06089	-3.123363	-0.262358	-0.570557	0.18335	0.498291
615.0	5.466756	-0.322015	9.674528	-0.05151	-3.581063	-0.241117	-0.552979	0.180908	0.526611
616.0	5.033046	-1.21258	9.50939	-0.237069	-4.115067	-0.28953	-0.552734	0.17627	0.54834
617.0	5.016122	-2.026172	9.312844	-0.140202	-4.642431	-0.382591	-0.543945	0.178223	0.567627
618.0	4.215274	-1.818903	9.946649	-0.041686	-5.293041	-0.457463	-0.535156	0.177979	0.598145
619.0	3.742672	-2.667418	9.810976	-0.126777	-6.02444	-0.536204	-0.517578	0.175537	0.62207
620.0	5.171634	-2.40639	10.742744	0.275544	-6.771202	-0.482369	-0.497803	0.172852	0.66748
621.0	7.145298	-3.194767	9.488891	-0.02221	-7.641384	-0.640608	-0.477783	0.166016	0.702393
622.0	14.810979	-4.53997	8.731233	0.17966	-8.527773	-1.098018	-0.449463	0.161377	0.734863
623.0	24.123401	-3.405193	8.478683	0.095558	-8.681121	-1.556549	-0.42041	0.145752	0.769775
624.0	23.771493	-3.768196	10.522016	-0.077047	-8.453071	-2.038323	-0.38916	0.130371	0.806641
625.0	26.123723	-6.04293	13.106969	-0.675439	-8.463282	-2.379054	-0.355713	0.106689	0.819824
626.0	26.410555	-8.413222	13.139239	-0.660523	-8.197486	-2.125928	-0.324463	0.091309	0.845947
627.0	23.702601	-4.692596	17.475253	-0.303642	-7.047718	-1.708119	-0.293213	0.067871	0.848389
628.0	14.163269	-5.474342	15.657901	-1.629139	-4.40128	-2.008009	-0.27832	0.026855	0.859375
629.0	10.147784	-15.505371	14.126354	0.036649	-2.49217	-1.651676	-0.265137	0.018311	0.855225
630.0	29.523226	-7.321995	29.552445	1.472943	0.311417	-0.778813	-0.280029	0.01001	0.837891
631.0	-7.55725	-5.54292	17.20244	0.045979	3.692504	-0.62501	-0.298828	-0.013428	0.811768
632.0	-6.391917	-1.163494	14.530896	0.71022	1.917326	-1.049457	-0.304932	-0.02417	0.807617
633.0	2.666728	1.482884	18.297584	-1.230476	1.457706	-0.902333	-0.310547	-0.047607	0.788086
634.0	4.750398	-2.80192	14.898591	-1.766115	2.874876	-0.850211	-0.324951	-0.068848	0.773193
635.0	4.173328	-3.553336	14.188906	-1.247139	3.995722	-0.877727	-0.343994	-0.088135	0.751465
636.0	4.380101	-3.587542	13.023522	-1.321197	4.706997	-0.8411	-0.36499	-0.107178	0.727783
637.0	5.002189	-2.363223	12.404978	-1.205519	5.386966	-0.723025	-0.388428	-0.121826	0.693115
638.0	5.051475	-1.860632	11.29788	-1.400605	5.950227	-0.549931	-0.405518	-0.134277	0.65625
639.0	5.17656	-2.200417	9.840518	-1.535917	6.273071	-0.343477	-0.431396	-0.142578	0.619385
640.0	5.780832	-2.562546	8.754607	-1.562967	6.502493	-0.113661	-0.452881	-0.148438	0.573975
641.0	6.00481	-2.440375	7.837061	-1.474913	6.657979	0.14707	-0.470459	-0.145752	0.52832
642.0	5.81521	-2.465333	7.125018	-1.404466	6.632484	0.410583	-0.479492	-0.142822	0.474121
643.0	5.955907	-2.092813	7.085077	-1.306469	6.465932	0.67109	-0.492676	-0.140137	0.424316
644.0	6.513174	-1.61182	7.485545	-1.362786	6.226831	0.893926	-0.48877	-0.132813	0.37207
645.0	8.064074	-1.318707	8.103288	-1.506623	5.951182	1.097886	-0.480713	-0.119141	0.315674
646.0	10.111651	-1.206374	8.789198	-1.713722	5.7827	1.315401	-0.459229	-0.114258	0.270264
647.0	11.409147	-2.27012	8.736701	-1.873602	5.726138	1.5307	-0.431396	-0.10498	0.224854
648.0	11.712676	-3.982962	8.391212	-1.692029	5.596981	1.704871	-0.40332	-0.102295	0.192383
649.0	12.060788	-4.190952	8.907805	-1.211194	5.349477	1.865238	-0.364014	-0.105957	0.16626
650.0	12.540923	-3.442561	10.014361	-0.857035	4.968664	2.041037	-0.335693	-0.109863	0.151123
651.0	13.92323	-3.094363	11.647495	-0.637769	4.450608	2.16436	-0.312988	-0.129395	0.155762
652.0	19.718292	-2.07482	13.67341	-0.608325	3.984573	2.287625	-0.29541	-0.137695	0.153564
653.0	28.335499	0.511257	15.470707	-0.662662	4.079977	2.642331	-0.292725	-0.150635	0.149414
654.0	35.067398	4.413521	15.100213	-1.125067	4.921855	3.289786	-0.294434	-0.159424	0.156006
655.0	34.312191	4.208463	10.729386	-1.842978	5.853454	3.915311	-0.314453	-0.150635	0.147217
656.0	30.571178	2.017552	4.34313	-1.771483	6.182922	4.147518	-0.328369	-0.131104	0.134033
657.0	28.568561	0.073904	-2.264731	-1.160524	5.912012	3.976979	-0.348877	-0.107422	0.123047
658.0	28.124507	1.34548	-7.493951	0.189068	5.500408	3.574473	-0.358154	-0.092285	0.105713
659.0	26.876801	7.0491	-9.618773	1.009975	4.98505	3.072668	-0.359375	-0.062012	0.092529
660.0	24.98408	15.37472	-11.860046	0.839439	4.284296	2.501373	-0.364258	-0.048828	0.072754
661.0	23.734915	21.027392	-13.224034	-1.353465	3.050729	1.910449	-0.371826	-0.022705	0.053223
662.0	22.601253	13.478882	-19.065917	-4.187149	1.33993	1.264032	-0.375	0.000977	0.055176
663.0	20.954747	4.53066	-24.105952	-2.598405	0.089446	0.239174	-0.38208	0.016113	0.050781
664.0	19.642695	4.486799	-20.062617	0.2856	-1.042236	-1.029584	-0.388184	0.005127	0.061768
665.0	21.438168	6.791178	-12.861493	1.116733	-2.163406	-1.900243	-0.394287	-0.001465	0.074707
666.0	22.665301	6.885625	-6.742575	0.890572	-2.61537	-2.213492	-0.402832	-0.010254	0.079102
667.0	7.07821	-6.937824	11.271077	-0.330473	-3.211562	-2.386478	-0.4021	-0.025635	0.109619
668.0	-0.183214	-19.305185	29.503311	2.240697	-3.448417	-2.609608	-0.407959	-0.043213	0.118164
669.0	-16.716125	-4.333911	8.21015	3.288535	-1.54383	-1.823466	-0.414063	-0.053955	0.126953
670.0	0.215323	-3.678106	-8.39165	1.575262	-6.700433	-2.270121	-0.428955	-0.056885	0.174561
671.0	46.400061	10.862702	18.906137	3.518847	-6.032991	-1.676256	-0.430664	-0.070068	0.192139
672.0	13.266255	7.709236	6.132644	1.722715	-2.740659	-0.91653	-0.434814	-0.074707	0.213867
673.0	10.736117	11.150753	13.453588	2.43471	-3.840921	-1.181988	-0.430176	-0.083496	0.235596
674.0	13.507182	11.525812	11.992355	0.039402	-3.403885	-0.924144	-0.434326	-0.08374	0.246338
675.0	17.056449	6.432658	10.017424	-0.390392	-2.811693	-0.932668	-0.436768	-0.077393	0.259277
676.0	27.79267	-3.432369	13.434519	-1.054721	-1.91543	-0.578593	-0.434326	-0.086182	0.278809
677.0	18.148036	-4.201892	3.14033	-0.193592	1.019136	0.372878	-0.438477	-0.088135	0.263672
678.0	2.297369	-0.561435	6.728401	1.9134	0.227641	-0.081129	-0.440674	-0.090332	0.265869
679.0	10.644419	3.26406	10.117407	-0.464356	0.051188	0.014839	-0.438477	-0.086182	0.265869
680.0	6.519539	-3.13622	6.157267	0.051949	0.154968	0.200556	-0.438477	-0.088379	0.270264
681.0	6.638096	1.630989	9.54079	0.298445	0.06267	0.216087	-0.432129	-0.086182	0.265869
682.0	6.124479	0.993704	8.485374	-0.225475	-0.118357	0.411698	-0.440918	-0.083984	0.27002
683.0	6.460206	0.770142	8.75077	-0.353636	-0.265941	0.538632	-0.438721	-0.081787	0.27002
684.0	6.419591	-1.032604	7.757427	-0.571794	-0.34917	0.590245	-0.441162	-0.075439	0.272217
685.0	6.494888	-0.585971	7.856418	-0.350797	-0.404809	0.618766	-0.443359	-0.073242	0.272217
686.0	6.362166	-0.858164	7.923912	-0.581773	-0.47492	0.630151	-0.443604	-0.066895	0.278809
687.0	6.219077	-2.413486	7.217588	-0.568299	-0.542455	0.535591	-0.447998	-0.069092	0.282959
688.0	6.259534	-2.162856	7.336511	-0.316281	-0.560154	0.419949	-0.445801	-0.064941	0.285156
689.0	6.400313	-2.371435	6.98351	-0.323704	-0.599573	0.307732	-0.450439	-0.060547	0.287354
690.0	6.39573	-3.053855	6.719688	-0.190079	-0.568099	0.185239	-0.446045	-0.060791	0.293945
691.0	6.457496	-3.770088	6.434494	0.00024	-0.560578	0.002233	-0.450439	-0.056641	0.304688
692.0	6.459918	-3.426396	6.459189	0.265905	-0.517095	-0.184428	-0.446045	-0.058594	0.30249
693.0	6.738204	-2.345476	6.717851	0.349373	-0.478724	-0.326582	-0.445801	-0.069336	0.30249
694.0	6.963441	-1.203517	6.932719	0.424441	-0.411967	-0.367192	-0.450195	-0.065186	0.306885
695.0	6.751413	-0.815064	7.298038	0.29389	-0.367691	-0.364916	-0.447998	-0.065186	0.309082
696.0	6.819292	-1.620344	6.880041	0.227235	-0.340793	-0.385976	-0.439209	-0.065186	0.313477
697.0	6.746301	-1.779474	6.826971	0.299995	-0.249916	-0.444795	-0.437012	-0.067383	0.313477
698.0	6.787109	-2.36683	6.641347	0.254703	-0.186251	-0.532143	-0.43457	-0.07373	0.306885
699.0	6.970876	-1.841169	6.567643	0.486651	-0.069213	-0.585401	-0.432129	-0.080078	0.291748
700.0	6.824087	-1.656835	7.201022	0.375939	0.024619	-0.634596	-0.438477	-0.088867	0.307129
701.0	6.724423	-1.598958	6.421074	0.662027	0.115953	-0.686462	-0.436035	-0.093262	0.311279
702.0	7.043219	-0.245676	7.216181	0.671272	0.187576	-0.676532	-0.434082	-0.08667	0.304932
703.0	6.980848	-0.050811	7.271559	0.53583	0.196886	-0.59207	-0.442627	-0.091064	0.311279
704.0	6.730967	0.377913	7.48304	0.531265	0.181731	-0.527876	-0.438232	-0.09082	0.302734
705.0	6.689289	1.426893	8.031094	0.506551	0.104114	-0.42246	-0.438232	-0.091064	0.309082
706.0	6.545592	1.218231	8.121914	0.215696	-0.038417	-0.310864	-0.438232	-0.095215	0.302734
707.0	6.429222	1.089115	8.029208	0.204826	-0.166524	-0.201698	-0.433594	-0.097412	0.309326
708.0	6.387783	1.191606	8.236032	0.123213	-0.318304	-0.087537	-0.436035	-0.093262	0.309326
709.0	6.280691	0.713256	8.251253	0.008933	-0.482625	0.015902	-0.427246	-0.093262	0.311279
710.0	6.169978	0.06538	8.22471	0.001752	-0.666388	0.077557	-0.431885	-0.088867	0.311279
711.0	6.169646	-0.253689	8.250955	0.008905	-0.838464	0.094014	-0.433838	-0.093262	0.322266
712.0	6.160493	-0.443591	8.309864	0.017763	-1.035754	0.089113	-0.436279	-0.089111	0.328613
713.0	6.090688	-0.36313	8.452224	0.058213	-1.255747	0.076588	-0.436279	-0.086914	0.330811
714.0	5.945253	-0.303505	8.650584	0.041236	-1.536414	0.063067	-0.429688	-0.084961	0.345947
715.0	6.06074	-0.259399	8.732268	0.061156	-1.849937	0.038785	-0.436279	-0.085205	0.361084
716.0	5.913675	-0.182314	9.100175	0.077446	-2.170435	0.016803	-0.43457	-0.07251	0.37207
717.0	5.696795	-0.095661	9.485702	0.044952	-2.558475	-0.019799	-0.432373	-0.070557	0.393555
718.0	5.471693	-0.248295	9.715328	-0.065534	-2.988078	-0.073716	-0.430176	-0.072998	0.410889
719.0	5.224637	-0.172507	9.978264	-0.115367	-3.44027	-0.129104	-0.43457	-0.069092	0.432617
720.0	4.758235	0.434201	10.759439	-0.131991	-3.918169	-0.15167	-0.426025	-0.064941	0.45874
721.0	4.2122	-0.89006	10.818312	-0.373666	-4.629925	-0.160027	-0.419434	-0.061035	0.486816
722.0	3.53697	-3.569113	10.144334	-0.308413	-5.407907	-0.296845	-0.410889	-0.055176	0.523682
723.0	3.031829	-4.897909	10.983989	0.097292	-6.215585	-0.535497	-0.400391	-0.044922	0.564697
724.0	3.720667	-3.767728	12.633089	0.577193	-6.962746	-0.67538	-0.380859	-0.038818	0.60376
725.0	5.0647	-5.318629	11.151766	0.298648	-8.077128	-0.964069	-0.35083	-0.028564	0.653564
726.0	15.845508	-6.84397	9.618686	0.769173	-9.226353	-1.709327	-0.322754	-0.016357	0.699219
727.0	28.546106	-3.753793	10.220691	1.157128	-9.375277	-2.454691	-0.275146	-0.008301	0.751221
728.0	30.260048	-3.334492	13.345039	0.818712	-9.030881	-2.98298	-0.236328	0.006348	0.79248
729.0	29.712753	-5.481046	16.56122	0.049952	-8.95898	-3.145547	-0.186279	0.008057	0.840088
730.0	26.702571	-9.766861	16.775556	-0.437944	-8.431889	-2.845895	-0.140625	0.011963	0.881348
731.0	21.659773	-7.614493	18.932178	0.462416	-6.499438	-2.694786	-0.119385	0.024658	0.911621
732.0	6.649478	-9.293183	16.627206	0.670395	-3.479113	-2.218612	-0.096191	0.043701	0.93335
733.0	31.18854	-8.341091	27.499561	1.419035	-1.817603	-0.97366	-0.105225	0.058594	0.957031
734.0	8.434343	-9.477699	24.715439	-0.366331	2.536367	-0.00802	-0.134033	0.068848	0.974365
735.0	-10.094235	-11.387987	10.385821	0.988929	3.044521	-0.280589	-0.158691	0.092285	0.993652
736.0	-2.53775	-0.822997	16.582596	1.366287	1.804529	-0.282668	-0.185547	0.109131	1.006592
737.0	0.920004	0.216587	16.113717	-0.960237	2.453621	-0.066738	-0.211914	0.115234	1.021729
738.0	1.547758	-2.465213	12.571401	-1.07472	3.405609	0.026504	-0.257568	0.117188	1.025879
739.0	2.54258	-2.865124	12.399074	-1.369806	4.09325	0.116467	-0.308105	0.127686	1.025635
740.0	3.4306	-3.784017	10.792457	-1.414192	4.745842	0.238728	-0.368896	0.123291	1.027832
741.0	4.559517	-2.692601	10.51026	-1.336623	5.364382	0.372683	-0.436523	0.125244	1.014648
742.0	4.757752	-2.787443	9.248236	-1.42019	5.896539	0.495867	-0.510498	0.123291	0.986328
743.0	4.632563	-2.904355	7.959146	-1.289772	6.251673	0.598694	-0.588867	0.121338	0.938477
744.0	4.615634	-2.379018	7.265534	-1.156193	6.398863	0.692293	-0.660645	0.115479	0.879883
745.0	4.736252	-1.705471	6.878225	-1.137976	6.367088	0.82949	-0.736816	0.114014	0.80835
746.0	4.828676	-1.069897	6.835752	-1.209055	6.200875	0.963556	-0.793457	0.106445	0.719482
747.0	5.74676	-0.528588	7.322125	-1.395673	5.937274	1.085811	-0.830811	0.109619	0.624023
748.0	7.549523	-0.372819	7.986172	-1.684923	5.696878	1.20787	-0.85083	0.117676	0.509033
749.0	9.230125	-0.733239	8.316843	-1.946379	5.617459	1.329225	-0.843018	0.13623	0.404785
750.0	9.957007	-1.797358	8.088564	-2.056452	5.593652	1.445229	-0.792969	0.185303	0.302734
751.0	10.131174	-3.010955	8.092733	-1.932561	5.401381	1.509915	-0.716309	0.227051	0.25293
752.0	11.224049	-3.151983	8.613092	-1.643471	5.090187	1.607718	-0.645996	0.261963	0.239746
753.0	12.62935	-2.679076	9.895575	-1.458368	4.734077	1.764978	-0.581055	0.2771	0.259521
754.0	15.57088	-2.779472	11.715352	-1.354271	4.374597	1.882081	-0.541504	0.265869	0.291992
755.0	20.875572	-1.671772	14.26833	-1.366271	4.301314	2.018495	-0.511719	0.227295	0.298828
756.0	26.134302	0.232248	15.620966	-1.699218	4.665109	2.308874	-0.491943	0.169434	0.28833
757.0	29.239113	2.448624	14.773855	-2.219296	5.195968	2.779918	-0.483643	0.120117	0.27124
758.0	30.451749	2.721375	12.123571	-2.736491	5.613924	3.264099	-0.473389	0.077637	0.239014
759.0	31.194348	1.376892	8.313863	-2.68778	5.906587	3.59618	-0.465576	0.043701	0.195801
760.0	30.719845	0.897766	3.604715	-1.969995	6.107485	3.749646	-0.460693	0.029297	0.152588
761.0	28.839194	3.003283	-1.603888	-0.964924	6.092632	3.692824	-0.462402	0.016846	0.11792
762.0	26.683103	5.988393	-6.735333	-0.298154	5.682023	3.379789	-0.458008	0.013184	0.07666
763.0	26.11342	12.720699	-12.127686	0.403917	5.056536	2.80851	-0.451172	0.00293	0.048584
764.0	24.843565	21.044905	-16.148139	-0.262384	4.143714	2.13631	-0.444824	0.003174	0.024658
765.0	20.519786	20.388429	-21.459092	-3.059396	2.003405	1.350372	-0.449463	0.01416	0.013916
766.0	18.697666	11.611921	-26.547813	-3.537515	-0.610607	0.215921	-0.45166	0.011963	0.016113
767.0	22.290695	6.25239	-22.672886	-0.939812	-2.423076	-1.000146	-0.463867	-0.007568	0.024902
768.0	23.738604	5.606227	-13.294482	1.105221	-2.965182	-1.640401	-0.476074	-0.029541	0.046631
769.0	21.095353	-2.488167	-7.855379	1.785055	-4.722202	-2.865331	-0.492188	-0.062256	0.072754
770.0	-18.738581	-10.495525	17.401552	4.104785	-4.529153	-3.098716	-0.496826	-0.107666	0.103271
771.0	17.012958	-4.768761	16.914313	2.613011	-6.883197	-3.039731	-0.510742	-0.142822	0.142334
772.0	12.890688	0.213194	-0.924856	3.420459	-5.235369	-2.38078	-0.524658	-0.173584	0.183838
773.0	32.127859	13.72664	10.508383	4.611269	-5.973427	-1.740004	-0.525879	-0.19751	0.214111
774.0	20.635099	13.922533	10.934748	2.096067	-4.166884	-0.877495	-0.529297	-0.217529	0.251221
775.0	21.938424	14.57126	13.61444	2.152957	-3.977966	-1.058464	-0.526367	-0.235107	0.275146
776.0	29.54739	8.977208	21.057564	-0.25686	-1.943106	-1.365091	-0.521729	-0.241455	0.279541
777.0	29.287413	-7.670828	-0.370925	-1.947942	0.935891	-0.166629	-0.526123	-0.241211	0.262207
778.0	0.331738	-1.989381	4.516043	4.443201	0.811127	-0.313283	-0.521484	-0.248047	0.279541
779.0	8.873656	14.651748	16.112931	0.324851	0.399899	-0.30607	-0.523682	-0.247803	0.272949
780.0	8.665448	-4.215598	4.368758	-2.083311	-0.217202	0.260544	-0.523926	-0.243652	0.270752
781.0	6.047969	-1.346057	8.535757	0.857884	0.247615	0.124802	-0.521484	-0.248047	0.277344
782.0	6.33153	0.325714	8.495504	-0.234538	-0.080871	0.194229	-0.523926	-0.243652	0.279541
783.0	6.300258	0.090295	8.05702	-0.120594	-0.159577	0.278854	-0.530518	-0.241455	0.275146
784.0	6.016857	-0.61383	8.292608	-0.327131	-0.268297	0.358276	-0.524414	-0.23291	0.275146
785.0	6.295423	-0.900772	8.176095	-0.308962	-0.39352	0.386131	-0.52832	-0.239258	0.275146
786.0	6.146398	-1.370007	7.938077	-0.340699	-0.470522	0.361467	-0.52417	-0.237305	0.283691
787.0	6.500596	-2.152754	7.270382	-0.31438	-0.553482	0.299811	-0.526367	-0.237305	0.283691
788.0	6.747519	-2.03789	7.257269	-0.205595	-0.670718	0.237821	-0.52417	-0.235107	0.290283
789.0	6.424192	-2.298265	6.898982	-0.103301	-0.612501	0.173793	-0.530762	-0.230957	0.298828
790.0	6.430899	-2.55111	6.842996	0.032776	-0.662935	0.070885	-0.531006	-0.22876	0.296631
791.0	6.541699	-2.929131	6.806351	0.108464	-0.607665	-0.082668	-0.531006	-0.229004	0.303223
792.0	6.711821	-2.276964	6.74462	0.341462	-0.543741	-0.205972	-0.52832	-0.239746	0.30542
793.0	6.737672	-2.258708	6.861307	0.276103	-0.486592	-0.308774	-0.530762	-0.233398	0.307617
794.0	6.829532	-2.310695	6.722722	0.344356	-0.409205	-0.411885	-0.532959	-0.233398	0.309814
795.0	6.669169	-2.133966	6.901078	0.408676	-0.345584	-0.494293	-0.523682	-0.246338	0.316406
796.0	6.666049	-1.950826	7.985085	0.24425	-0.333575	-0.57434	-0.528076	-0.246338	0.322754
797.0	6.490186	-1.591253	6.187503	0.591455	-0.308134	-0.580095	-0.525879	-0.248535	0.322754
798.0	6.883711	0.499261	7.900704	0.562279	-0.320165	-0.559149	-0.52124	-0.25293	0.322754
799.0	7.016373	-0.076188	6.972271	0.216829	-0.334545	-0.465571	-0.514648	-0.25293	0.331543
800.0	7.048225	-0.032902	7.079228	0.372439	-0.353531	-0.416749	-0.51001	-0.261475	0.325195
801.0	7.162052	0.302542	7.289067	0.287002	-0.340205	-0.344809	-0.513916	-0.272217	0.318604
802.0	7.060392	-0.063358	7.039115	0.218018	-0.359722	-0.293083	-0.520264	-0.276611	0.331543
803.0	7.135111	-0.010647	7.043053	0.250192	-0.361589	-0.251188	-0.520508	-0.270264	0.329346
804.0	7.001378	-0.090796	7.045973	0.192079	-0.357595	-0.217349	-0.520508	-0.272461	0.340332
805.0	7.06808	-0.28762	6.941941	0.196287	-0.388558	-0.201535	-0.513916	-0.272461	0.338135
806.0	7.030515	-0.266949	7.115061	0.20238	-0.409364	-0.190092	-0.524658	-0.274658	0.344727
807.0	6.906437	-0.287016	7.196591	0.205613	-0.452347	-0.181822	-0.520508	-0.268311	0.34668
808.0	6.878128	-0.056789	7.401341	0.211582	-0.518406	-0.163242	-0.520508	-0.272705	0.351074
809.0	6.807327	0.029645	7.503265	0.198067	-0.618001	-0.130754	-0.516113	-0.272705	0.359863
810.0	6.640936	0.057163	7.762001	0.190421	-0.749156	-0.094918	-0.520264	-0.274902	0.362061
811.0	6.584013	-0.196934	7.851097	0.174579	-0.923399	-0.077652	-0.516113	-0.270752	0.368408
812.0	6.555692	-0.410735	7.925899	0.192589	-1.122499	-0.07871	-0.518066	-0.277344	0.379395
813.0	6.533512	-0.471545	7.978101	0.24182	-1.33164	-0.093227	-0.513916	-0.270996	0.392334
814.0	6.444237	-0.141856	8.198596	0.288181	-1.571476	-0.104157	-0.511475	-0.275391	0.405273
815.0	6.405595	0.166486	8.377699	0.277836	-1.854789	-0.099628	-0.513672	-0.273438	0.41626
816.0	6.374762	0.582729	8.533623	0.260647	-2.157623	-0.075119	-0.511475	-0.275879	0.429199
817.0	6.208298	0.723078	8.910827	0.209469	-2.500318	-0.047459	-0.509521	-0.269531	0.442139
818.0	5.884465	0.493324	9.232667	0.112975	-2.908952	-0.037673	-0.50708	-0.271973	0.459473
819.0	5.492774	0.123048	9.621288	0.004945	-3.375215	-0.058555	-0.498291	-0.272217	0.487793
820.0	5.080907	-0.070084	9.924732	-0.093447	-3.922994	-0.094791	-0.493896	-0.272461	0.513672
821.0	4.385969	-0.276961	10.415569	-0.060228	-4.649579	-0.056265	-0.48291	-0.272949	0.541992
822.0	4.058576	-1.712721	10.677553	-0.088992	-5.494156	-0.017673	-0.472168	-0.273193	0.570068
823.0	3.701358	-3.781249	10.9808	0.107373	-6.23644	-0.022805	-0.45459	-0.271729	0.613525
824.0	3.348941	-2.365523	12.071921	0.540417	-7.032032	-0.096783	-0.432861	-0.271973	0.650391
825.0	6.929286	-2.974146	11.747078	0.038584	-8.628866	-0.345223	-0.399902	-0.272705	0.700195
826.0	18.49262	-4.839513	10.342377	0.293157	-9.682315	-1.020547	-0.362793	-0.275391	0.750244
827.0	29.216883	-4.366397	10.871839	0.462855	-9.767531	-1.695974	-0.318848	-0.282227	0.798096
828.0	30.275178	-4.915749	13.233282	0.512707	-9.618286	-2.391009	-0.273193	-0.27832	0.839355
829.0	31.908695	-5.897642	17.638158	-0.137022	-9.535243	-2.59827	-0.225098	-0.278564	0.876221
830.0	27.999764	-9.253573	18.261492	-0.640967	-8.628678	-2.360252	-0.181641	-0.278809	0.904541
831.0	21.743116	-6.501875	18.400122	0.100802	-6.583297	-2.23055	-0.155762	-0.268311	0.921875
832.0	5.391499	-9.181449	19.864701	0.576715	-3.206155	-1.71832	-0.143066	-0.259766	0.941162
833.0	37.806033	-7.99447	32.452429	0.489868	-0.971428	-0.445379	-0.158936	-0.24707	0.938965
834.0	2.383102	-11.202196	22.733167	-0.96882	4.318583	0.358605	-0.200684	-0.234131	0.930176
835.0	-12.048513	-9.496157	10.462358	0.907275	3.920353	-0.109362	-0.231689	-0.223389	0.930176
836.0	-1.58536	-0.590453	16.47814	0.172891	2.331329	-0.072259	-0.251465	-0.216797	0.914795
837.0	2.649779	-1.313255	14.617671	-1.643424	3.249539	0.126368	-0.275391	-0.2146	0.90625
838.0	3.196753	-2.866343	11.970711	-1.298434	4.461966	0.219571	-0.310547	-0.208008	0.87793
839.0	3.18656	-2.273547	11.573295	-1.543508	5.151713	0.277268	-0.341064	-0.209961	0.860596
840.0	4.155753	-2.148824	10.50729	-1.688534	5.704584	0.348742	-0.37207	-0.200928	0.821289
841.0	5.269457	-1.125449	9.971695	-1.783513	6.315845	0.391341	-0.40918	-0.198486	0.791016
842.0	5.806231	-1.23137	8.590484	-1.990069	6.778901	0.416799	-0.439941	-0.193848	0.751953
843.0	6.26534	-1.828741	7.350987	-1.955948	7.046706	0.466623	-0.466309	-0.187012	0.717041
844.0	5.813328	-1.795466	6.592373	-1.700398	7.173788	0.564093	-0.49292	-0.177734	0.665039
845.0	5.174754	-0.859055	6.268531	-1.459277	7.03573	0.696247	-0.515137	-0.171143	0.636719
846.0	5.306843	0.573929	6.881182	-1.390853	6.661767	0.887029	-0.534912	-0.164063	0.597656
847.0	6.239374	1.486754	7.937683	-1.588434	6.214112	1.097021	-0.552734	-0.155273	0.567139
848.0	8.188811	1.525357	8.896786	-1.873742	5.833837	1.344844	-0.572754	-0.14624	0.536865
849.0	10.104425	-0.213586	8.914058	-2.037056	5.667364	1.562031	-0.590576	-0.139404	0.501953
850.0	10.467583	-2.17455	8.687318	-1.619267	5.614403	1.721464	-0.612793	-0.128174	0.465088
851.0	10.117049	-2.537631	9.367082	-0.987101	5.414675	1.80204	-0.628662	-0.112793	0.43457
852.0	11.052584	-1.474718	10.352835	-0.564839	5.053433	1.887529	-0.655273	-0.101807	0.406494
853.0	11.741902	-1.745242	11.105398	-0.41574	4.633854	1.916191	-0.669189	-0.084229	0.373779
854.0	13.21577	-3.321428	11.823427	-0.224281	4.095607	1.730264	-0.687256	-0.06665	0.349854
855.0	20.214265	-3.115539	13.559607	0.080994	3.59975	1.501624	-0.701416	-0.042725	0.330078
856.0	31.838003	0.576788	16.237839	0.153541	3.842299	1.640762	-0.715088	-0.025146	0.29541
857.0	39.169072	5.765405	15.833063	-0.666364	5.169045	2.356708	-0.731934	0.011963	0.251709
858.0	35.039412	5.42031	10.295266	-2.124249	6.368855	3.158146	-0.738037	0.053467	0.193115
859.0	29.278787	1.30349	2.216606	-2.659069	6.52034	3.507263	-0.729004	0.099609	0.125732
860.0	27.467856	0.104698	-5.071972	-1.8024	6.059708	3.51124	-0.717773	0.143555	0.064697
861.0	27.28342	4.116838	-8.029612	-0.553034	5.513827	3.391825	-0.697754	0.183105	0.016846
862.0	26.498348	10.612535	-10.74742	-0.098217	4.959198	3.142167	-0.675049	0.213867	-0.035156
863.0	25.439083	16.720738	-13.171929	-0.586225	4.266413	2.632502	-0.650146	0.242432	-0.072266
864.0	23.250774	15.414513	-17.061435	-2.488168	3.01332	1.798909	-0.633789	0.270996	-0.096191
865.0	20.803799	9.983452	-22.179046	-2.496996	1.698716	0.595384	-0.628174	0.29248	-0.102783
866.0	17.542465	9.412301	-21.551151	-0.921703	0.323066	-0.732268	-0.625977	0.28833	-0.104736
867.0	17.565424	8.750004	-16.692667	-0.820265	-1.456794	-1.666946	-0.638916	0.290283	-0.093994
868.0	20.267062	-0.868614	-11.845467	-0.76723	-3.512386	-2.820975	-0.657715	0.270264	-0.057129
869.0	-13.656055	-8.361008	-5.455909	1.765142	-4.354064	-3.198692	-0.686768	0.233154	-0.033203
870.0	19.600594	-5.109276	20.932926	3.754305	-7.935488	-4.398046	-0.713623	0.199951	0.027588
871.0	17.283258	-4.833193	12.32415	0.485624	-4.842452	-2.40708	-0.72583	0.177979	0.060303
872.0	18.942099	-1.126279	1.103017	3.571662	-5.787197	-2.1612	-0.746338	0.149414	0.097168
873.0	30.974665	14.58878	15.957921	3.038257	-4.802607	-1.156408	-0.750244	0.138184	0.134033
874.0	16.475124	10.613205	8.278352	1.165768	-4.073821	-0.734105	-0.756348	0.12915	0.164551
875.0	22.154224	13.762434	16.759412	0.726274	-3.094347	-0.770755	-0.769287	0.126709	0.186035
876.0	21.935506	-5.028041	11.315038	-1.765299	-1.975246	-0.797084	-0.769043	0.126465	0.203369
877.0	27.223974	-14.321288	-4.394848	0.839635	0.123423	0.325687	-0.766602	0.11377	0.19043
878.0	1.19808	9.822963	15.452022	4.77716	1.60085	-0.469293	-0.772949	0.11377	0.184082
879.0	8.82272	2.418575	7.806406	-2.264705	-0.448922	-0.215765	-0.768799	0.115967	0.19043
880.0	7.878586	-6.403953	6.171754	0.344397	0.320815	-0.107433	-0.766602	0.11377	0.186279
881.0	5.925984	-1.097172	8.858443	0.628546	0.138385	-0.328106	-0.766113	0.103027	0.184082
882.0	7.365413	0.115122	7.438551	0.338635	0.052545	-0.200433	-0.763916	0.105225	0.181885
883.0	6.33586	1.456447	8.861269	0.143199	-0.082375	-0.055111	-0.766357	0.107422	0.186279
884.0	5.951775	0.148933	8.739585	-0.195765	-0.244731	0.043272	-0.76416	0.109375	0.194824
885.0	6.325718	-0.976513	8.213977	-0.182643	-0.383524	0.091672	-0.768555	0.109375	0.190674
886.0	6.966163	-0.021316	8.018155	-0.016434	-0.469496	0.144523	-0.768555	0.111572	0.194824
887.0	6.108025	-0.020522	8.359011	-0.267767	-0.54733	0.232827	-0.775391	0.11792	0.203613
888.0	6.31847	-1.106075	7.084728	-0.278481	-0.691364	0.275119	-0.77124	0.12207	0.212158
889.0	6.560875	-2.33818	7.505294	-0.353939	-0.729165	0.230295	-0.770996	0.119873	0.209961
890.0	6.467801	-3.132446	6.323584	-0.084149	-0.733451	0.132042	-0.77124	0.124023	0.220947
891.0	6.697221	-1.987617	7.075111	0.176423	-0.665211	0.031873	-0.775391	0.121826	0.21875
892.0	6.582213	-2.088528	6.952701	0.071995	-0.601129	-0.0696	-0.775391	0.121826	0.227295
893.0	6.644247	-2.843173	6.714119	0.103458	-0.562047	-0.190158	-0.775391	0.121582	0.236084
894.0	6.500069	-2.744762	6.926191	0.288555	-0.507178	-0.317913	-0.775146	0.113037	0.233887
895.0	6.615854	-2.293752	6.834439	0.298109	-0.490502	-0.431414	-0.770752	0.113037	0.240479
896.0	6.116062	-2.328137	7.984367	0.141089	-0.519223	-0.54412	-0.776855	0.102295	0.240479
897.0	6.827512	-1.900248	6.51764	0.43974	-0.497473	-0.575896	-0.7854	0.097656	0.253418
898.0	7.056169	-0.871296	6.936363	0.46258	-0.437077	-0.600967	-0.774414	0.097656	0.257813
899.0	7.13274	-0.549839	6.792196	0.404774	-0.375397	-0.564576	-0.77002	0.093506	0.251221
900.0	7.080537	-0.623352	6.830394	0.356138	-0.336768	-0.527398	-0.771729	0.082764	0.251465
901.0	7.266988	-0.429787	6.718652	0.436769	-0.316056	-0.490179	-0.771484	0.074219	0.249268
902.0	7.38188	0.29953	6.895903	0.482566	-0.244493	-0.431959	-0.773193	0.06543	0.255859
903.0	7.338231	0.272931	6.959325	0.348982	-0.221367	-0.362206	-0.777344	0.061035	0.255859
904.0	7.262317	-0.116602	6.656151	0.322612	-0.187661	-0.312177	-0.779785	0.067383	0.264404
905.0	7.243894	0.089365	6.889792	0.3773	-0.134761	-0.268009	-0.777344	0.063232	0.266602
906.0	7.072744	0.093113	7.012142	0.310999	-0.128166	-0.210355	-0.779541	0.063232	0.268799
907.0	6.9837	-0.059971	7.175292	0.248842	-0.154713	-0.170688	-0.777344	0.061035	0.264404
908.0	6.916947	-0.065782	7.252773	0.248032	-0.192833	-0.143962	-0.7771	0.056641	0.266602
909.0	6.754483	0.121538	7.546223	0.255958	-0.260273	-0.110849	-0.7771	0.054443	0.277588
910.0	6.688142	0.400121	7.792262	0.247303	-0.396013	-0.060191	-0.7771	0.054443	0.270996
911.0	6.573194	0.247422	7.918692	0.196174	-0.554459	-0.011528	-0.779541	0.060791	0.279541
912.0	6.423715	-0.16002	8.017156	0.189897	-0.750613	0.01978	-0.774902	0.056396	0.290527
913.0	6.41296	-0.392851	8.116726	0.202428	-0.956856	0.019567	-0.776855	0.052002	0.299316
914.0	6.358493	-0.205305	8.116983	0.277051	-1.176313	0.011954	-0.781738	0.0625	0.310059
915.0	6.294301	0.048533	8.463514	0.275663	-1.441062	0.013743	-0.781494	0.058105	0.320801
916.0	6.326514	0.145062	8.454601	0.249242	-1.734356	0.010235	-0.78125	0.055664	0.338135
917.0	6.187103	0.301629	8.751873	0.256768	-2.04124	0.020917	-0.783691	0.057617	0.353271
918.0	5.96638	0.004935	9.022392	0.168901	-2.412242	0.004892	-0.779541	0.063965	0.370605
919.0	5.887403	-0.650365	9.278606	0.132077	-2.805205	-0.052166	-0.785889	0.065674	0.392334
920.0	5.440986	-0.628871	9.588831	0.170135	-3.205991	-0.1568	-0.779297	0.065186	0.427002
921.0	4.852765	-0.251567	10.261871	0.13319	-3.755089	-0.222348	-0.7771	0.067139	0.453125
922.0	4.299866	-1.008356	10.413562	0.023959	-4.48008	-0.239062	-0.768311	0.062256	0.494141
923.0	4.012935	-3.103636	9.913834	0.076559	-5.317538	-0.307153	-0.759277	0.057373	0.5354
924.0	3.591038	-4.388901	10.483772	0.407716	-6.041928	-0.451012	-0.747803	0.048096	0.585449
925.0	3.512155	-3.710696	11.565185	0.834973	-6.713717	-0.627234	-0.730225	0.047607	0.637451
926.0	5.268325	-3.813077	10.203058	0.663693	-7.984237	-0.928108	-0.70166	0.04248	0.698242
927.0	14.922431	-4.505644	9.301045	1.013497	-9.100211	-1.602361	-0.668457	0.031006	0.76123
928.0	27.721897	-2.013384	9.840709	1.346335	-9.332455	-2.15742	-0.628906	0.021729	0.819824
929.0	28.200927	-3.353939	11.467109	1.092406	-9.0837	-2.569717	-0.580322	0.008301	0.880615
930.0	27.67214	-3.19367	14.91357	0.995538	-9.082669	-2.826359	-0.537842	-0.015869	0.92627
931.0	22.96342	-4.8776	17.171966	-0.136852	-8.750665	-2.580417	-0.478271	-0.035645	0.963379
932.0	24.047367	-6.492986	17.287844	-0.577398	-7.932836	-2.513553	-0.431641	-0.05957	0.996094
933.0	15.475617	-6.310925	12.876224	-0.254067	-5.17698	-2.362078	-0.404541	-0.078857	1.004883
934.0	18.88527	-4.923723	22.274555	0.942865	-2.560419	-1.285801	-0.384521	-0.0896	1.009277
935.0	35.038525	-10.049405	30.034238	-1.38315	1.222421	-0.16426	-0.414307	-0.108643	0.983398
936.0	-5.676122	-15.025313	11.110155	-0.364874	5.0771	0.009655	-0.429443	-0.114746	0.950928
937.0	-8.104071	-5.490593	10.341573	1.946721	3.463155	-0.422731	-0.448975	-0.121094	0.935791
938.0	0.59845	0.990092	14.568124	-0.323179	2.338087	-0.197781	-0.461426	-0.133789	0.920654
939.0	3.560858	-1.65248	11.204373	-1.518066	3.166242	0.12655	-0.476318	-0.144287	0.890137
940.0	3.791185	-2.698449	10.390821	-1.241001	4.055289	0.348395	-0.501709	-0.165527	0.85791
941.0	3.385484	-3.69761	9.541255	-1.48577	4.564228	0.522212	-0.52124	-0.169434	0.833984
942.0	4.155826	-3.843098	9.052113	-1.2918	4.999323	0.675251	-0.540771	-0.175537	0.790527
943.0	5.024972	-3.233379	8.811359	-1.219316	5.461345	0.777972	-0.56665	-0.179443	0.758057
944.0	5.607207	-3.385693	8.022774	-1.087836	5.821241	0.878454	-0.592773	-0.180908	0.710449
945.0	6.088514	-2.891582	7.808501	-0.855149	6.122248	1.009302	-0.619141	-0.18042	0.6604
946.0	6.094167	-1.910404	7.662072	-0.753351	6.366623	1.196511	-0.63916	-0.17334	0.610596
947.0	5.796105	-1.028488	7.503595	-0.818834	6.426002	1.385126	-0.654541	-0.172607	0.554199
948.0	5.885976	-0.399675	7.571209	-1.001798	6.31647	1.532176	-0.663574	-0.16333	0.5
949.0	6.368666	-0.263487	7.860639	-1.240903	6.125318	1.617121	-0.672607	-0.158447	0.452148
950.0	7.690744	0.074422	8.413865	-1.469759	5.936574	1.612227	-0.67749	-0.14917	0.397949
951.0	9.550661	0.140042	9.031689	-1.788249	5.828674	1.560777	-0.679932	-0.144043	0.337158
952.0	10.975024	-0.4173	9.122965	-1.990724	5.819641	1.521383	-0.671631	-0.136719	0.289551
953.0	11.019333	-1.17136	9.041037	-2.072938	5.728877	1.504139	-0.665527	-0.129639	0.235352
954.0	11.664256	-1.970494	9.195321	-2.039505	5.394774	1.498449	-0.652832	-0.122559	0.189697
955.0	12.684528	-3.003643	9.50514	-1.870438	5.030458	1.538587	-0.640137	-0.113281	0.152832
956.0	13.895829	-3.544388	10.946204	-1.498145	4.617505	1.495116	-0.616455	-0.108398	0.118164
957.0	18.876395	-2.290163	13.148315	-1.399759	4.192407	1.454505	-0.605957	-0.10376	0.092285
958.0	27.359739	0.625043	14.932045	-1.622338	4.205957	1.719984	-0.593262	-0.092529	0.063965
959.0	34.099875	4.024942	14.676596	-2.376636	4.940885	2.475644	-0.581543	-0.063965	0.029297
960.0	33.568969	2.774671	10.616865	-3.345934	5.805494	3.321636	-0.56543	-0.033447	-0.01001
961.0	30.117872	-0.294366	4.485164	-3.258658	6.103055	3.847002	-0.549316	0.001709	-0.044678
962.0	28.325083	-1.267537	-1.562685	-2.3022	5.874962	4.031308	-0.533447	0.038818	-0.07959
963.0	26.893173	1.759314	-5.868303	-0.804543	5.525374	4.016113	-0.508301	0.062744	-0.099121
964.0	25.471784	6.780409	-8.639514	0.022196	4.904312	3.801723	-0.487305	0.08252	-0.131836
965.0	25.290349	13.568644	-12.494408	0.507095	4.240466	3.351001	-0.462158	0.104492	-0.155762
966.0	23.957353	19.157248	-15.115162	-0.402068	3.418588	2.685	-0.454102	0.119873	-0.173096
967.0	19.299534	15.930835	-19.709412	-2.39122	1.720822	1.757136	-0.452637	0.141357	-0.173096
968.0	16.551996	10.076959	-22.937555	-1.695758	-0.162287	0.470574	-0.446289	0.143555	-0.168945
969.0	18.732075	9.165408	-17.623582	0.143766	-1.843336	-0.777716	-0.463379	0.134766	-0.164551
970.0	23.077003	7.896908	-10.704234	0.62259	-2.788311	-1.468748	-0.480225	0.121582	-0.151367
971.0	21.287834	6.638465	-5.93477	1.304343	-2.66458	-1.683174	-0.492432	0.099854	-0.13623
972.0	6.514926	-3.741688	15.897774	1.152248	-3.93711	-2.405973	-0.513184	0.077881	-0.103516
973.0	-10.805677	-16.431254	27.598509	1.361881	-3.939182	-2.419112	-0.529785	0.055908	-0.086182
974.0	-5.773851	-2.650225	3.985721	3.11145	-3.431135	-2.511415	-0.543457	0.02124	-0.055664
975.0	13.607502	3.134595	0.950946	1.951787	-7.323479	-2.735383	-0.575195	-0.003418	-0.007813
976.0	45.610267	9.485845	18.002498	2.143674	-5.209614	-1.890566	-0.583008	-0.022949	0.018066
977.0	10.416613	8.02724	5.436167	1.807366	-3.057762	-0.795068	-0.600098	-0.03418	0.046387
978.0	18.496979	9.700118	14.489885	0.973891	-4.57916	-0.524282	-0.606201	-0.043213	0.068115
979.0	21.284678	7.328801	11.938491	-0.328713	-2.720213	0.108691	-0.616943	-0.043457	0.089844
980.0	26.830656	-8.483963	8.488653	-1.019371	-1.816337	0.02205	-0.617188	-0.039307	0.098389
981.0	13.853594	-7.613574	2.35442	2.382569	0.559908	0.255381	-0.621094	-0.050049	0.096191
982.0	5.394089	6.869557	10.969485	2.771492	0.585741	-0.311112	-0.612061	-0.054199	0.094238
983.0	11.43256	1.876066	8.611842	-1.197539	-0.149863	0.172769	-0.610107	-0.050049	0.092041
984.0	6.901455	-4.554096	6.129811	0.112136	0.375128	0.238746	-0.616943	-0.043701	0.098389
985.0	6.526685	-1.224638	8.486098	0.527965	0.171656	0.111404	-0.612305	-0.047852	0.098389
986.0	6.552367	-0.416308	8.050712	-0.01032	0.106788	0.198922	-0.614746	-0.045898	0.102783
987.0	5.45833	-1.242265	8.006248	-0.030416	-0.025204	0.28099	-0.614746	-0.043457	0.091797
988.0	6.292535	-1.699065	8.384617	-0.217068	-0.179875	0.247136	-0.616943	-0.041504	0.093994
989.0	5.956216	-2.298983	7.762908	-0.123251	-0.212851	0.191162	-0.619141	-0.043701	0.10498
990.0	6.027845	-2.307526	7.839839	-0.040755	-0.302877	0.08831	-0.614746	-0.043701	0.10498
991.0	6.053762	-2.957146	7.149978	-0.033247	-0.377568	-0.006092	-0.616943	-0.041504	0.102783
992.0	6.472598	-3.23673	6.635749	0.103832	-0.430122	-0.119629	-0.621338	-0.041504	0.10498
993.0	6.309563	-2.840975	6.834505	0.315693	-0.401095	-0.207958	-0.619141	-0.041748	0.109131
994.0	6.43645	-2.916224	6.936004	0.292269	-0.440777	-0.308105	-0.623291	-0.048096	0.113525
995.0	6.441871	-2.765189	6.931821	0.396251	-0.387472	-0.442837	-0.616699	-0.050293	0.115723
996.0	6.281242	-3.26099	6.729561	0.333486	-0.348741	-0.610133	-0.622803	-0.061279	0.124512
997.0	6.651428	-3.455179	6.393095	0.522859	-0.246169	-0.77524	-0.616211	-0.059082	0.122314
998.0	6.436254	-2.252233	6.63583	0.748452	-0.112649	-0.900884	-0.615479	-0.076416	0.128906
999.0	6.789704	-1.166379	7.023161	0.727591	-0.02902	-0.904525	-0.624023	-0.084961	0.122314
1000.0	7.018832	-0.132415	7.35341	0.694475	0.029444	-0.755647	-0.617188	-0.089355	0.128906
1001.0	7.037307	0.707455	7.870739	0.576046	0.052229	-0.582701	-0.617188	-0.093506	0.124756
1002.0	6.722644	1.132373	7.877514	0.424063	0.025472	-0.419671	-0.61499	-0.093506	0.128906
1003.0	6.847523	0.817134	7.915994	0.218325	-0.03199	-0.299617	-0.614502	-0.102051	0.126953
1004.0	6.55914	0.472508	7.658394	0.132526	-0.074555	-0.193317	-0.608154	-0.099854	0.124756
1005.0	6.719461	0.268101	7.773508	0.0412	-0.146195	-0.09797	-0.605713	-0.106201	0.120361
1006.0	6.567104	-0.230344	7.518864	-0.031176	-0.16869	-0.048154	-0.618652	-0.112793	0.122559
1007.0	6.710174	-0.677929	7.264945	-0.045051	-0.206125	-0.021998	-0.616455	-0.113037	0.133545
1008.0	6.687021	-1.262369	7.13522	-0.066952	-0.221894	-0.041589	-0.614746	-0.100098	0.131104
1009.0	6.523932	-1.797538	7.060117	-0.008425	-0.223616	-0.092847	-0.618652	-0.108643	0.135498
1010.0	6.519112	-1.564494	7.246268	0.124361	-0.235157	-0.151487	-0.614502	-0.104492	0.135498
1011.0	6.670527	-1.226393	7.30503	0.157079	-0.266127	-0.187151	-0.623291	-0.104492	0.135498
1012.0	6.706203	-1.114938	7.318204	0.190225	-0.273566	-0.209864	-0.618652	-0.106689	0.137695
1013.0	6.572105	-0.845798	7.636607	0.250747	-0.301879	-0.209307	-0.622803	-0.113037	0.14209
1014.0	6.41916	-0.616727	7.804014	0.294402	-0.363933	-0.187395	-0.615967	-0.119629	0.146484
1015.0	6.264562	-0.077001	8.192322	0.33658	-0.475682	-0.14855	-0.618408	-0.115234	0.150879
1016.0	6.025275	0.000382	8.496897	0.26442	-0.68018	-0.098048	-0.620605	-0.115234	0.148682
1017.0	5.962377	-0.060774	8.566633	0.221926	-0.929843	-0.062741	-0.622559	-0.117676	0.163818
1018.0	5.945816	0.060934	8.638196	0.242839	-1.17866	-0.029929	-0.620361	-0.119873	0.174561
1019.0	5.990834	0.278178	8.961565	0.210897	-1.480102	0.002867	-0.624756	-0.11792	0.178955
1020.0	5.935002	0.273062	8.973378	0.161029	-1.795799	0.027836	-0.633545	-0.115967	0.196289
1021.0	5.831986	0.332104	9.155786	0.149283	-2.13472	0.061467	-0.633545	-0.112061	0.213623
1022.0	5.783301	0.410295	9.467003	0.057546	-2.506941	0.091726	-0.637939	-0.110107	0.235352
1023.0	5.657434	0.245067	9.578089	-0.091466	-2.909756	0.104935	-0.639893	-0.119141	0.259033
1024.0	5.403883	-0.229315	9.608202	-0.208371	-3.344433	0.112087	-0.648926	-0.108643	0.278564
1025.0	4.980208	-0.740195	9.597521	-0.226072	-3.809141	0.073917	-0.651123	-0.106934	0.311035
1026.0	4.456397	-0.659585	10.501176	-0.116978	-4.371722	0.048728	-0.642334	-0.103027	0.345703
1027.0	3.797213	-1.279002	10.883362	-0.115745	-5.152331	0.058316	-0.650879	-0.10791	0.38916
1028.0	3.44706	-3.412678	10.790304	-0.197883	-6.092175	0.065167	-0.646484	-0.108643	0.430176
1029.0	2.35025	-4.935615	11.132065	0.222765	-6.960733	-0.07156	-0.635254	-0.109131	0.482422
1030.0	3.367354	-3.478908	12.166567	0.530271	-7.846936	-0.184395	-0.624023	-0.114258	0.538818
1031.0	9.503687	-4.51398	9.82509	0.300536	-9.252256	-0.557432	-0.602295	-0.11499	0.605957
1032.0	21.349985	-4.01816	9.647555	0.465931	-9.851285	-1.202856	-0.568848	-0.130859	0.675537
1033.0	28.130403	-4.387473	9.555512	0.368883	-9.776126	-1.798695	-0.535889	-0.135986	0.738281
1034.0	25.931599	-5.516778	12.028046	0.482257	-9.441274	-2.484644	-0.491699	-0.149414	0.78833
1035.0	25.324482	-7.502054	14.853995	0.008733	-9.180947	-2.719071	-0.447021	-0.171387	0.842773
1036.0	24.457948	-6.634771	16.584736	0.128515	-8.199362	-2.24641	-0.40332	-0.178223	0.875488
1037.0	19.806914	-1.903598	15.190132	-0.200393	-6.568503	-1.79375	-0.36792	-0.187256	0.910156
1038.0	9.843786	-4.271908	21.770222	-0.222858	-3.44546	-1.086649	-0.352539	-0.191406	0.914551
1039.0	33.699428	-10.304252	29.98527	-1.610648	-0.393901	-0.139831	-0.354492	-0.197754	0.910156
1040.0	4.891335	-14.426478	17.720933	-0.939977	4.58376	-0.03486	-0.386719	-0.208496	0.886475
1041.0	-12.380748	-8.929507	9.232979	1.166673	4.534274	-0.576118	-0.408936	-0.199707	0.875488
1042.0	-2.822502	-1.039114	12.560852	0.127664	2.483796	-0.671116	-0.426025	-0.210449	0.866943
1043.0	3.75584	-1.104606	11.859469	-1.303127	2.726766	-0.365008	-0.440918	-0.220947	0.847412
1044.0	5.799964	-2.808	10.20311	-1.262432	3.870703	-0.009224	-0.458008	-0.227295	0.823486
1045.0	5.443079	-3.79434	9.402886	-1.213383	4.646896	0.342397	-0.488525	-0.227051	0.797363
1046.0	5.652743	-4.429736	8.666616	-1.017265	5.252813	0.588947	-0.516846	-0.22876	0.758301
1047.0	6.193224	-3.293088	8.507135	-0.654393	5.912944	0.697734	-0.547607	-0.228271	0.723633
1048.0	6.280053	-1.795579	7.980741	-0.547976	6.444335	0.71622	-0.58667	-0.22998	0.673828
1049.0	6.278912	-0.606908	7.336639	-0.56379	6.780567	0.72588	-0.608887	-0.2229	0.621582
1050.0	5.820925	0.220744	6.833864	-0.723927	6.958146	0.755222	-0.626221	-0.228516	0.565186
1051.0	5.538803	0.433735	6.230204	-0.973186	6.904514	0.759194	-0.648438	-0.219238	0.510986
1052.0	5.735394	0.331516	5.979167	-1.181298	6.691202	0.728535	-0.657227	-0.218506	0.45459
1053.0	6.609812	0.024668	6.129002	-1.316903	6.419808	0.692061	-0.666504	-0.209229	0.398193
1054.0	7.660412	0.303612	6.900895	-1.390759	6.153358	0.665697	-0.673096	-0.208496	0.341797
1055.0	9.741243	0.807015	7.892445	-1.640066	5.930795	0.693725	-0.670898	-0.212158	0.300781
1056.0	11.400095	-0.018752	8.003181	-1.89328	5.838441	0.784182	-0.671387	-0.202881	0.242188
1057.0	11.303477	-1.551369	7.757804	-1.787177	5.732997	0.888303	-0.669922	-0.187256	0.196533
1058.0	11.504508	-2.557973	8.018522	-1.46065	5.435418	0.970971	-0.663574	-0.184326	0.151123
1059.0	12.007902	-2.874593	8.502317	-1.021811	5.09811	1.07731	-0.65332	-0.168701	0.114014
1060.0	12.267562	-2.711136	9.45205	-0.64213	4.664355	1.152933	-0.643066	-0.159668	0.077148
1061.0	15.10446	-3.280186	10.235243	-0.455568	4.103937	1.160835	-0.638916	-0.150635	0.04248
1062.0	20.93062	-2.617941	11.301195	-0.070795	3.748066	1.280525	-0.624268	-0.139404	0.014404
1063.0	28.527686	0.694371	12.786329	0.125054	3.883121	1.654112	-0.609619	-0.125977	-0.016113
1064.0	33.812053	3.860193	12.518385	-0.405152	4.62172	2.305143	-0.594971	-0.110352	-0.046387
1065.0	33.124509	4.694491	9.134313	-1.251895	5.521549	3.013339	-0.572266	-0.08374	-0.098633
1066.0	28.890838	2.541176	3.576962	-1.7523	5.914272	3.481886	-0.547363	-0.055176	-0.135498
1067.0	24.48519	1.137329	-2.389395	-1.419205	5.711606	3.621971	-0.52002	-0.033203	-0.170166
1068.0	22.335069	2.513099	-6.774072	-0.53854	5.052558	3.495949	-0.501465	-0.009033	-0.198486
1069.0	22.56376	8.686993	-9.213687	0.333413	4.351725	3.168994	-0.477783	0.002197	-0.224609
1070.0	23.554687	16.791633	-10.393734	-0.047815	3.651174	2.65533	-0.463135	0.013184	-0.237549
1071.0	22.255266	16.719816	-13.636877	-2.596951	2.472245	1.9987	-0.448975	0.04126	-0.248535
1072.0	19.382537	10.355102	-19.696806	-3.082057	1.208233	0.933841	-0.445068	0.054443	-0.255127
1073.0	15.660749	7.354411	-20.331075	-1.25584	-0.045715	-0.477925	-0.451904	0.060791	-0.25293
1074.0	15.985111	7.269929	-15.945033	-0.058532	-1.62688	-1.775012	-0.468506	0.039063	-0.244141
1075.0	19.974146	6.275453	-10.341297	0.463499	-2.722113	-2.468498	-0.476563	0.023682	-0.229004
1076.0	13.49763	2.456971	7.678743	1.078711	-3.651998	-3.172829	-0.499268	-0.004639	-0.202881
1077.0	-6.550569	-14.67039	25.406893	-0.823973	-3.846854	-3.013717	-0.518311	-0.02002	-0.185547
1078.0	-0.622594	-9.571766	7.751453	1.43321	-3.322261	-2.699487	-0.532715	-0.041748	-0.165771
1079.0	-0.219598	-4.079793	-1.518463	0.957527	-5.491114	-2.461522	-0.562012	-0.068359	-0.122559
1080.0	33.434612	5.429919	11.151501	2.141549	-6.549432	-1.628988	-0.591797	-0.082031	-0.081299
1081.0	21.539706	7.33885	11.465267	0.747714	-3.557128	-0.356242	-0.602295	-0.091064	-0.055176
1082.0	8.446523	8.260094	9.033318	0.95819	-4.019687	-0.169753	-0.621582	-0.102295	-0.0271
1083.0	19.831901	6.510743	13.270348	-0.81878	-4.217665	-0.314068	-0.63916	-0.093994	0.000977
1084.0	28.299646	-2.924608	11.284142	-1.09775	-2.197338	-0.222285	-0.638916	-0.098389	0.011963
1085.0	25.739131	-19.288038	-4.397378	-0.783812	-0.345637	0.53359	-0.643311	-0.098633	0.01416
1086.0	2.292434	0.383973	11.953996	5.654355	1.129203	-0.195625	-0.633545	-0.12207	0.01416
1087.0	7.979907	7.736032	10.893391	-0.106302	0.023047	-0.367161	-0.63623	-0.111328	0.011963
1088.0	11.019469	-2.863778	4.888694	-0.517386	-0.04794	0.187003	-0.638428	-0.113525	0.011963
1089.0	5.49714	-0.77442	9.778603	0.728819	0.443309	0.044524	-0.634033	-0.115723	0.009766
1090.0	6.752053	-3.04942	7.41791	-0.166789	-0.05149	0.01071	-0.635986	-0.115723	0.016357
1091.0	7.291827	0.302606	7.737633	0.432199	0.106852	0.067571	-0.634033	-0.113525	0.009766
1092.0	6.275351	0.406314	8.834666	-0.174004	-0.064006	0.197851	-0.640625	-0.113525	0.011963
1093.0	6.012337	-1.928845	7.924379	-0.341631	-0.236079	0.232015	-0.634277	-0.107178	0.011963
1094.0	6.074716	-2.237356	7.717948	-0.203193	-0.305674	0.224352	-0.638672	-0.10498	0.018555
1095.0	6.416796	-1.321806	7.822617	-0.132353	-0.38643	0.218811	-0.640625	-0.109375	0.016357
1096.0	6.402068	-0.711702	8.098731	-0.252254	-0.481096	0.253414	-0.643066	-0.10498	0.018555
1097.0	6.603444	-1.442264	7.560055	-0.483884	-0.583707	0.276767	-0.645508	-0.098633	0.024902
1098.0	6.223059	-2.065004	7.304471	-0.427711	-0.574314	0.255814	-0.649658	-0.098877	0.031494
1099.0	6.43697	-2.585569	7.094641	-0.510301	-0.584659	0.185395	-0.649658	-0.098877	0.033691
1100.0	6.46016	-2.967257	6.822256	-0.409094	-0.552113	0.104659	-0.6521	-0.092285	0.033447
1101.0	6.587497	-2.598254	6.824043	-0.339057	-0.518312	0.027443	-0.658936	-0.088135	0.035645
1102.0	6.579317	-2.469797	6.779519	-0.290463	-0.466581	-0.002004	-0.658691	-0.090332	0.037842
1103.0	6.631983	-2.311995	6.905548	-0.272343	-0.446588	-0.041922	-0.658936	-0.088135	0.040039
1104.0	6.625101	-2.600837	6.706322	-0.257528	-0.417018	-0.070306	-0.661133	-0.088135	0.044434
1105.0	6.593976	-2.545474	6.724395	-0.161417	-0.382406	-0.117116	-0.661377	-0.07959	0.044434
1106.0	6.759941	-2.512714	6.594826	-0.12876	-0.351638	-0.165488	-0.660889	-0.090576	0.052979
1107.0	6.750202	-2.667599	6.492378	-0.066966	-0.299073	-0.213596	-0.656494	-0.090576	0.057373
1108.0	6.787623	-2.54163	6.527582	0.019561	-0.250485	-0.269083	-0.663086	-0.090576	0.055176
1109.0	6.897609	-2.363939	6.426685	0.051825	-0.197002	-0.321713	-0.656494	-0.092773	0.055176
1110.0	7.033228	-2.561329	6.280443	0.062305	-0.141903	-0.384786	-0.6604	-0.105713	0.057373
1111.0	7.122649	-2.476938	6.279241	0.131956	-0.051678	-0.438897	-0.655762	-0.114014	0.046631
1112.0	7.157848	-2.272458	6.391856	0.151209	0.025366	-0.465651	-0.662109	-0.114014	0.048828
1113.0	7.046588	-2.421712	6.313794	0.139426	0.076498	-0.485605	-0.662109	-0.114258	0.057373
1114.0	6.859864	-2.546822	6.288334	0.203298	0.131074	-0.535805	-0.657471	-0.124756	0.048828
1115.0	6.865043	-2.224886	6.513551	0.294422	0.188129	-0.582152	-0.661865	-0.125	0.053223
1116.0	6.838537	-2.023753	6.556607	0.32503	0.216731	-0.602889	-0.657471	-0.125	0.053223
1117.0	6.649108	-1.981301	6.520144	0.499774	0.229526	-0.637916	-0.650391	-0.137939	0.05542
1118.0	6.682404	-1.305917	7.258821	0.539464	0.237476	-0.656418	-0.647949	-0.14209	0.05127
1119.0	6.596795	-1.438505	7.281638	0.470471	0.188049	-0.635037	-0.654541	-0.144287	0.053223
1120.0	6.685999	-1.272188	7.36282	0.549866	0.147093	-0.617374	-0.645264	-0.155029	0.055664
1121.0	6.328883	-0.799044	7.783915	0.596671	0.081041	-0.556963	-0.649658	-0.157227	0.053467
1122.0	6.664662	-0.346227	7.862852	0.584464	-0.019771	-0.500971	-0.642822	-0.163574	0.05127
1123.0	6.625468	-0.076713	8.086554	0.502304	-0.143225	-0.421041	-0.642822	-0.165771	0.053467
1124.0	6.505835	0.394961	8.472979	0.500762	-0.310704	-0.308435	-0.651367	-0.166016	0.062012
1125.0	6.313573	0.284101	8.68888	0.329418	-0.554688	-0.211652	-0.64917	-0.170166	0.062012
1126.0	6.135665	0.065022	8.53204	0.30229	-0.816234	-0.116924	-0.64917	-0.170166	0.068604
1127.0	6.03124	0.183097	9.006483	0.283588	-1.098407	-0.041631	-0.65332	-0.174805	0.081543
1128.0	5.945146	-0.21245	9.151831	0.100782	-1.477141	0.001166	-0.661865	-0.172852	0.103271
1129.0	5.782571	-0.836455	8.976103	0.074584	-1.852517	0.003155	-0.661865	-0.177246	0.109863
1130.0	5.795545	-0.602989	9.564328	0.091539	-2.241941	-0.018189	-0.67041	-0.177734	0.131592
1131.0	5.46944	-0.592493	9.715323	-0.010924	-2.687642	-0.022174	-0.677002	-0.175781	0.148926
1132.0	5.523998	-1.367269	9.545612	-0.100231	-3.162503	-0.044842	-0.683594	-0.174072	0.177002
1133.0	5.345659	-1.967401	9.686261	0.089522	-3.539008	-0.1121	-0.687744	-0.176514	0.205078
1134.0	4.218345	-2.039983	10.587909	0.177087	-4.024424	-0.254908	-0.689697	-0.183594	0.237793
1135.0	3.661233	-2.869212	11.017423	0.091437	-4.769807	-0.453064	-0.695801	-0.188477	0.278809
1136.0	3.496886	-4.645875	10.934895	0.258229	-5.555607	-0.680434	-0.693359	-0.191162	0.32666
1137.0	3.11848	-5.597325	11.034087	0.792784	-6.449952	-0.802222	-0.69751	-0.198486	0.380859
1138.0	3.007082	-4.810726	11.584245	1.033518	-7.313153	-1.051833	-0.686035	-0.205811	0.445801
1139.0	7.912937	-5.677929	9.414249	1.113516	-8.193674	-1.421442	-0.672119	-0.22583	0.510986
1140.0	20.393844	-2.608351	8.731926	1.40753	-8.882952	-2.04545	-0.6521	-0.233398	0.584717
1141.0	28.381463	-0.226172	10.696732	0.533629	-8.63693	-2.316839	-0.618408	-0.257568	0.643555
1142.0	26.221127	-2.912479	11.413733	-0.172423	-8.172934	-2.465694	-0.582764	-0.275635	0.704346
1143.0	25.406466	-3.182954	13.992753	-0.769984	-7.973676	-2.333575	-0.553711	-0.293213	0.75
1144.0	21.007051	-4.482061	14.7582	-1.851326	-7.135119	-1.939567	-0.517822	-0.315186	0.787109
1145.0	16.148688	-6.24255	12.273535	-1.496695	-5.7458	-2.087172	-0.486816	-0.330322	0.81543
1146.0	8.711047	-18.346113	14.720881	-0.293703	-3.309391	-1.679285	-0.475586	-0.339111	0.830566
1147.0	25.210802	-13.945503	21.378251	3.094208	-0.612337	-0.330274	-0.471924	-0.320068	0.849854
1148.0	3.407486	-6.265181	21.160485	2.102663	2.768909	0.293172	-0.485352	-0.311523	0.841309
1149.0	-8.741224	-5.452865	10.082843	2.071646	2.642649	0.255088	-0.503174	-0.296387	0.845459
1150.0	-0.913298	0.028475	14.083364	1.376088	1.285799	0.229858	-0.505859	-0.287842	0.838867
1151.0	3.085484	-1.204631	13.980276	-0.201292	2.052016	0.202032	-0.522949	-0.294189	0.825928
1152.0	2.784182	-2.83503	11.714214	-0.072228	3.300226	0.099857	-0.542725	-0.291992	0.810791
1153.0	2.241173	-2.618815	11.560078	-0.358808	3.944511	-0.026715	-0.559814	-0.300293	0.789063
1154.0	3.16374	-3.473785	10.264816	-0.63667	4.497813	-0.144883	-0.583496	-0.306396	0.756592
1155.0	4.037552	-3.393385	9.769205	-0.637946	5.135944	-0.230241	-0.602783	-0.31665	0.724121
1156.0	4.267595	-3.060026	8.888366	-0.740223	5.644168	-0.253321	-0.62207	-0.324951	0.693604
1157.0	4.643594	-2.877906	8.16315	-0.87592	5.947977	-0.206629	-0.643555	-0.3396	0.650391
1158.0	5.065909	-2.772691	7.567677	-1.05814	6.145593	-0.098902	-0.665039	-0.349854	0.615723
1159.0	5.389862	-2.757417	7.028314	-1.197536	6.229663	0.063527	-0.693115	-0.35376	0.570068
1160.0	5.560038	-2.494832	6.770727	-1.295874	6.167486	0.231972	-0.708252	-0.361816	0.529053
1161.0	6.155942	-2.209746	6.828846	-1.504804	5.95933	0.401673	-0.736328	-0.365723	0.487793
1162.0	7.407293	-2.168545	7.214184	-1.708623	5.719834	0.561106	-0.769043	-0.369629	0.44873
1163.0	9.132469	-2.04584	7.804235	-1.894407	5.539443	0.721258	-0.805908	-0.373535	0.414063
1164.0	9.823286	-2.303233	7.985115	-2.043705	5.427073	0.842472	-0.847656	-0.368652	0.368408
1165.0	10.460094	-2.812506	8.250119	-2.150651	5.206308	0.885724	-0.906982	-0.355225	0.313965
1166.0	11.111189	-3.321863	8.173611	-2.186492	4.908474	0.925055	-0.948975	-0.342041	0.266113
1167.0	10.959445	-4.529307	8.069003	-2.071392	4.486634	0.959931	-0.997803	-0.322021	0.203125
1168.0	11.491981	-5.56566	8.628303	-1.60969	3.89359	0.959269	-1.044434	-0.297607	0.148682
1169.0	14.305023	-4.711256	10.979359	-1.207429	3.185109	0.955444	-1.067139	-0.279785	0.09668
1170.0	23.041631	-2.475735	14.018685	-1.172319	2.563209	1.169792	-1.103027	-0.257813	0.048828
1171.0	33.601752	1.876766	16.349382	-1.365058	3.124667	1.941066	-1.119629	-0.222656	-0.01001
1172.0	35.484357	6.360575	15.153388	-2.359068	4.546604	3.1644	-1.123779	-0.178467	-0.092529
1173.0	30.646686	5.122714	9.26907	-3.497017	5.347485	4.298705	-1.124268	-0.114746	-0.192627
1174.0	26.455949	1.556059	2.653138	-3.327528	5.336858	4.862836	-1.114258	-0.036133	-0.279541
1175.0	25.561214	-1.606799	-3.832119	-1.889551	4.98096	4.92681	-1.095703	0.036133	-0.366699
1176.0	26.340665	1.336461	-7.058515	0.666529	4.869788	4.679224	-1.056641	0.095459	-0.447021
1177.0	27.624616	8.690091	-9.33172	2.116249	4.836916	4.325129	-1.010498	0.137695	-0.523193
1178.0	27.881739	18.536184	-12.660899	2.586671	4.789016	3.920341	-0.961914	0.168701	-0.590332
1179.0	21.62046	24.671787	-13.659445	0.548763	3.972017	3.330069	-0.924561	0.214844	-0.646973
1180.0	14.869889	18.276008	-16.500404	-3.008223	1.762344	2.331617	-0.901123	0.279785	-0.673096
1181.0	14.195442	6.90939	-19.206321	-2.913868	-0.336119	0.917368	-0.91333	0.316406	-0.682129
1182.0	17.371998	3.399353	-14.111302	0.155045	-1.34946	-0.420598	-0.92627	0.3125	-0.697266
1183.0	17.322807	6.032801	-6.926693	1.748966	-1.682193	-0.997521	-0.956055	0.295166	-0.710205
1184.0	14.566417	12.227305	5.82259	2.288404	-2.908944	-1.939907	-1.013916	0.270996	-0.690674
1185.0	-14.788403	-8.563038	11.925312	-3.166791	-3.558538	-1.764006	-1.063965	0.272705	-0.67334
1186.0	6.759841	-11.609413	8.934602	1.571733	-5.220872	-2.667987	-1.125488	0.231445	-0.649414
1187.0	6.889983	-0.085497	10.276708	1.284547	-4.543195	-2.141798	-1.190186	0.213379	-0.619141
1188.0	19.781042	0.360861	7.434945	0.629464	-5.353076	-1.435295	-1.248291	0.204102	-0.584473
1189.0	22.003042	3.61493	11.548525	0.893548	-4.228931	-0.507621	-1.291504	0.192871	-0.552002
1190.0	11.969344	5.057086	9.541834	0.491658	-3.937075	-0.068802	-1.334961	0.194336	-0.515381
1191.0	17.071895	3.155757	11.621117	-0.387745	-3.836636	0.076706	-1.374512	0.202393	-0.487305
1192.0	22.224497	-3.549186	10.000871	-0.392315	-2.522745	-0.018743	-1.39624	0.206299	-0.463379
1193.0	21.58192	-13.960039	0.139772	-0.38613	-1.110997	0.242676	-1.405029	0.208496	-0.467773
1194.0	4.666524	-8.738515	6.083832	3.547181	-0.309148	-0.30958	-1.409912	0.16748	-0.467529
1195.0	12.50633	8.29745	12.188469	3.368723	-0.114494	-0.591816	-1.422363	0.148193	-0.471924
1196.0	9.153811	-2.101966	7.691595	-1.734888	-0.17463	-0.042958	-1.41626	0.158936	-0.467529
1197.0	7.027855	-8.884946	3.743853	0.972541	0.026683	-0.348699	-1.420166	0.150391	-0.471924
1198.0	7.941021	-0.556109	8.673387	1.617865	0.223555	-0.510484	-1.423828	0.128906	-0.478271
1199.0	6.789602	-0.479216	8.498221	0.495618	0.154908	-0.409186	-1.423584	0.122559	-0.478271
1200.0	6.879785	-2.137068	7.430394	0.416894	0.06755	-0.412145	-1.421143	0.11377	-0.480225
1201.0	6.581883	-1.60951	7.655381	0.592032	0.059612	-0.375777	-1.427002	0.101074	-0.486816
1202.0	6.8824	-0.239	8.365456	0.503383	-0.018161	-0.319344	-1.427002	0.101074	-0.484619
1203.0	6.946526	-0.151511	8.135472	0.224734	-0.11307	-0.22314	-1.426758	0.092529	-0.486816
1204.0	6.474267	-0.3643	7.830783	0.125626	-0.168163	-0.124946	-1.426514	0.088135	-0.482422
1205.0	6.22262	-1.26453	7.690208	-0.007367	-0.219158	-0.077578	-1.435547	0.092285	-0.484619
1206.0	6.303499	-2.368819	7.141234	-0.046897	-0.253982	-0.115029	-1.4375	0.087891	-0.478027
1207.0	6.091873	-3.222506	6.835805	0.034486	-0.232241	-0.230367	-1.439453	0.08374	-0.478027
1208.0	5.954241	-3.981599	6.401511	0.190053	-0.218338	-0.411581	-1.441406	0.079346	-0.469238
1209.0	6.235803	-4.047813	6.251385	0.412376	-0.155857	-0.628367	-1.438721	0.062012	-0.47583
1210.0	6.379908	-3.618618	6.306864	0.610681	-0.042277	-0.830827	-1.433594	0.044922	-0.477783
1211.0	6.632192	-2.680064	6.503313	0.73925	0.060803	-0.94363	-1.439453	0.029785	-0.475586
1212.0	6.759891	-1.711779	6.972536	0.762996	0.168204	-0.926643	-1.438965	0.012695	-0.477783
1213.0	6.708531	-0.757928	7.324273	0.790011	0.239113	-0.853941	-1.438232	-0.006592	-0.484131
1214.0	6.684888	-0.293698	7.542496	0.68896	0.256285	-0.77116	-1.435303	-0.023682	-0.486084
1215.0	6.735393	0.403352	7.745911	0.701948	0.282781	-0.676567	-1.439697	-0.023682	-0.490479
1216.0	6.556199	0.750981	8.01187	0.533456	0.279625	-0.54798	-1.432373	-0.045166	-0.494629
1217.0	6.658103	0.724137	7.829301	0.41607	0.236827	-0.441411	-1.434326	-0.051514	-0.501221
1218.0	6.440189	0.315653	7.962203	0.300537	0.20646	-0.361532	-1.429688	-0.055664	-0.507568
1219.0	6.436109	-0.310019	7.480786	0.26387	0.161223	-0.332199	-1.427246	-0.066406	-0.516357
1220.0	6.47942	-0.216077	7.654632	0.330863	0.142261	-0.295359	-1.424561	-0.077148	-0.516113
1221.0	6.535231	-0.456096	7.591985	0.199987	0.117694	-0.236673	-1.431152	-0.079102	-0.522705
1222.0	6.443286	-0.8399	7.399896	0.223648	0.109321	-0.241447	-1.430908	-0.085693	-0.520508
1223.0	6.467834	-0.431994	7.596157	0.307313	0.123129	-0.243538	-1.430664	-0.090088	-0.513916
1224.0	6.367536	-0.246047	7.650702	0.229252	0.106704	-0.216917	-1.432617	-0.092285	-0.516113
1225.0	6.376186	-0.330142	7.799375	0.188962	0.068065	-0.194857	-1.434814	-0.092041	-0.522705
1226.0	6.261268	-0.265198	7.844766	0.209665	0.040185	-0.178474	-1.430176	-0.102783	-0.520508
1227.0	6.257095	0.018381	7.906978	0.210275	-0.014431	-0.146242	-1.436768	-0.103027	-0.518311
1228.0	6.150961	0.042252	8.066534	0.14407	-0.093265	-0.112573	-1.436768	-0.100586	-0.524902
1229.0	6.260926	-0.053067	7.951156	0.129828	-0.173878	-0.087056	-1.440918	-0.105225	-0.509521
1230.0	6.183085	-0.15963	8.094842	0.125531	-0.247326	-0.062055	-1.440918	-0.105225	-0.509521
1231.0	6.143733	-0.312619	7.971102	0.129258	-0.343315	-0.043954	-1.440918	-0.107422	-0.505371
1232.0	6.23255	0.151715	8.030785	0.257592	-0.424284	-0.005806	-1.443115	-0.103271	-0.498779
1233.0	5.867341	0.238127	8.41041	0.157937	-0.560015	0.016369	-1.442627	-0.114014	-0.492188
1234.0	5.739044	-0.704009	8.401909	-0.041257	-0.774018	-0.002378	-1.45166	-0.10791	-0.479248
1235.0	5.968258	-0.668266	8.238809	0.157948	-0.905202	-0.027508	-1.456055	-0.10791	-0.466309
1236.0	5.950099	-0.129642	8.391655	0.163867	-1.0465	-0.042581	-1.46875	-0.112549	-0.453369
1237.0	6.040356	0.106723	8.312691	0.119333	-1.227612	-0.03833	-1.475098	-0.11499	-0.427246
1238.0	6.134345	0.459004	8.490185	0.069982	-1.409467	-0.02036	-1.483887	-0.113037	-0.414307
1239.0	6.108511	0.535946	8.533956	-0.051209	-1.618567	0.005712	-1.490723	-0.106934	-0.390381
1240.0	6.142214	0.264862	8.557521	-0.143639	-1.838109	0.016015	-1.501221	-0.111816	-0.35791
1241.0	5.828544	0.056568	8.721733	-0.154846	-2.095968	0.013761	-1.512451	-0.105713	-0.327637
1242.0	5.795717	-0.19319	9.029431	-0.21797	-2.424084	-0.00716	-1.525391	-0.104248	-0.295166
1243.0	5.653106	-1.392324	9.09139	-0.286038	-2.778726	-0.089297	-1.538086	-0.109131	-0.243164
1244.0	5.316393	-2.774104	8.984899	-0.189929	-3.166883	-0.274177	-1.54248	-0.105469	-0.197754
1245.0	5.106425	-2.632416	9.612393	0.074137	-3.602112	-0.492541	-1.557373	-0.11499	-0.145752
1246.0	4.554142	-2.450785	10.377367	0.096685	-4.11225	-0.726551	-1.572021	-0.126709	-0.084961
1247.0	4.678912	-4.570347	9.752291	0.168347	-4.811273	-0.937785	-1.577881	-0.138428	-0.013428
1248.0	4.211924	-6.339937	9.629888	0.771538	-5.429057	-1.220636	-1.589844	-0.163086	0.066895
1249.0	4.827798	-4.749752	9.78389	1.418746	-6.061378	-1.534701	-1.5979	-0.175293	0.160156
1250.0	7.083515	-2.480458	9.647687	1.529959	-6.580593	-1.810399	-1.594482	-0.197998	0.26001
1251.0	14.854079	-1.721697	7.702049	1.210586	-7.019377	-2.221772	-1.584717	-0.223145	0.357666
1252.0	22.55187	1.536828	7.819329	1.306101	-6.874427	-2.428584	-1.561279	-0.258789	0.459717
1253.0	20.183979	0.047396	8.234306	0.264404	-6.341537	-2.498864	-1.518799	-0.283447	0.538086
1254.0	16.911659	-1.869373	7.544477	0.067025	-6.098297	-2.668162	-1.47876	-0.303711	0.616211
1255.0	12.692595	-1.86165	7.782106	-0.30841	-6.03061	-2.593371	-1.436035	-0.332275	0.679199
1256.0	14.495	-0.770422	9.874326	-0.861158	-5.972102	-2.526549	-1.370117	-0.3479	0.742432
1257.0	14.447928	-0.771094	8.906635	-1.369288	-5.147892	-2.369172	-1.328125	-0.361084	0.770752
1258.0	12.44527	-4.64735	15.718523	-1.112521	-3.439656	-1.763805	-1.27832	-0.356689	0.781494
1259.0	18.242712	-5.602022	18.968205	-1.23202	-0.500399	-0.776868	-1.244141	-0.338867	0.736084
1260.0	10.410076	-11.213325	14.089676	-1.348233	2.17629	-0.342869	-1.206055	-0.311768	0.666504
1261.0	-1.974384	-9.491798	7.712411	0.504755	3.106056	-0.018441	-1.174805	-0.280762	0.612305
1262.0	-2.950554	-3.133532	8.796281	0.818431	2.548117	0.116947	-1.132813	-0.243652	0.568848
1263.0	1.263909	-1.047643	8.584643	-0.156043	2.117921	0.473539	-1.093018	-0.208252	0.518799
1264.0	3.489692	0.173428	9.115987	-0.425427	2.570211	0.835246	-1.044434	-0.171143	0.486328
1265.0	3.863133	0.191996	8.920761	-0.984405	3.081149	1.12875	-0.991211	-0.140381	0.451416
1266.0	4.006379	-0.80954	8.254814	-1.256879	3.469547	1.26424	-0.942139	-0.114014	0.425537
1267.0	4.694386	-1.157235	8.078375	-1.265926	3.866005	1.275736	-0.901611	-0.096436	0.421143
1268.0	4.835213	-0.60458	8.09323	-1.149022	4.300591	1.228821	-0.860352	-0.091797	0.4104
1269.0	4.937857	0.663314	8.008756	-1.183387	4.628462	1.146237	-0.842773	-0.095947	0.401611
1270.0	4.849647	1.590314	7.799587	-1.474044	4.837369	1.069315	-0.83374	-0.106445	0.388672
1271.0	4.557064	1.637507	7.098987	-1.847195	4.875596	0.989989	-0.837646	-0.119385	0.375732
1272.0	4.258479	1.242078	6.490621	-2.115193	4.698449	0.90042	-0.841309	-0.138428	0.356445
1273.0	5.274257	0.9643	6.501285	-2.220741	4.356852	0.821102	-0.86499	-0.146484	0.31958
1274.0	7.433104	1.166849	7.010129	-2.210515	4.106076	0.796289	-0.871338	-0.154785	0.293701
1275.0	9.611645	1.718511	7.678846	-2.195468	4.033335	0.85331	-0.884277	-0.156494	0.258789
1276.0	10.4203	1.253552	7.607293	-2.236902	4.024512	0.930204	-0.895752	-0.145264	0.211182
1277.0	10.194387	0.194391	7.119583	-2.055301	3.909522	0.951978	-0.904785	-0.140381	0.16333
1278.0	10.274561	0.499619	7.492902	-1.706996	3.704237	0.912973	-0.91626	-0.12915	0.126465
1279.0	10.95701	2.195764	8.519702	-1.648037	3.463803	0.863125	-0.918701	-0.12207	0.080811
1280.0	12.106905	2.910091	9.396103	-2.004583	3.215864	0.7983	-0.917236	-0.108398	0.031006
1281.0	13.985291	2.674719	9.729821	-2.349661	3.08528	0.722978	-0.911377	-0.092529	-0.03418
1282.0	15.365565	3.223032	9.831413	-2.56272	3.176477	0.684488	-0.893066	-0.063721	-0.088379
1283.0	15.558013	3.715023	9.233989	-2.845294	3.258385	0.667264	-0.857666	-0.02417	-0.134033
1284.0	15.753567	4.245424	8.577341	-2.990227	3.197195	0.660694	-0.820068	0.015137	-0.170898
1285.0	16.228903	5.313562	8.206703	-3.05403	3.132757	0.683835	-0.775879	0.054443	-0.192871
1286.0	16.414446	6.285783	7.871663	-3.189883	3.09611	0.713423	-0.740967	0.106201	-0.20166
1287.0	16.489587	6.405025	7.139938	-3.309036	3.073384	0.711274	-0.69873	0.142822	-0.19751
1288.0	16.78667	6.108045	6.326845	-3.269405	3.087113	0.640776	-0.665039	0.173096	-0.19751
1289.0	16.940185	5.402171	5.239431	-3.047701	3.186664	0.499588	-0.633545	0.203369	-0.197754
1290.0	15.938322	5.381562	4.186513	-2.582331	3.34643	0.325855	-0.617188	0.227051	-0.188965
1291.0	14.095894	6.322703	3.34401	-2.25898	3.329473	0.14324	-0.593506	0.233643	-0.188965
1292.0	12.940801	6.768814	2.559119	-2.239674	3.04784	-0.002662	-0.568115	0.25293	-0.189209
1293.0	12.167066	6.856289	1.780947	-2.230244	2.677804	-0.120111	-0.55957	0.259521	-0.187012
1294.0	11.724606	6.838235	0.742573	-2.134596	2.28553	-0.234852	-0.549316	0.272461	-0.187012
1295.0	11.596874	7.103449	-0.528255	-1.85561	1.894716	-0.442619	-0.53833	0.272461	-0.182617
1296.0	12.103067	7.948209	-1.638524	-1.489068	1.506222	-0.710875	-0.531982	0.274658	-0.189209
1297.0	12.099172	8.705808	-2.478306	-1.152606	1.138837	-0.99434	-0.527588	0.272461	-0.187012
1298.0	11.497425	8.28392	-3.154105	-0.905388	0.65784	-1.315793	-0.524902	0.265869	-0.171875
1299.0	11.391585	6.922516	-3.352704	-0.452089	0.141289	-1.683553	-0.5271	0.261475	-0.169678
1300.0	11.448865	6.581695	-1.914076	0.138994	-0.272202	-2.027974	-0.530762	0.244141	-0.165039
1301.0	11.708642	6.465714	-0.210555	0.300987	-0.59065	-2.269816	-0.540771	0.226807	-0.158691
1302.0	10.254119	5.278149	1.897217	0.285199	-0.799203	-2.36341	-0.549072	0.216064	-0.149902
1303.0	2.802101	-2.483404	13.258154	0.357898	-1.569994	-2.992902	-0.55957	0.202881	-0.136719
1304.0	1.625521	-9.535079	21.263161	0.026528	-1.498443	-3.118726	-0.569336	0.178955	-0.12793
1305.0	-2.507352	-9.453592	7.722568	0.116373	-0.389142	-2.862612	-0.566406	0.155273	-0.119141
1306.0	-3.338824	-6.759584	-2.797237	1.826739	-1.82886	-3.104528	-0.584961	0.12915	-0.095215
1307.0	15.201149	1.508155	9.470277	1.908779	-3.72054	-2.393407	-0.604004	0.11792	-0.07373
1308.0	16.515341	-4.540724	7.819741	-0.129755	-2.323451	-1.281135	-0.603516	0.104736	-0.053955
1309.0	7.61759	-7.841321	3.766486	1.884022	-2.078305	-0.771348	-0.618408	0.0979	-0.032471
1310.0	11.155476	-2.036611	8.781985	2.04716	-2.544206	-0.508918	-0.617676	0.084717	-0.012695
1311.0	17.523935	-0.804415	8.00526	1.802684	-1.980966	-0.412888	-0.623779	0.071533	0.006836
1312.0	20.897132	2.879844	11.590899	2.736276	-0.259554	-0.886725	-0.623291	0.056641	0.004639
1313.0	13.95941	9.202007	10.783739	2.314531	1.536849	-0.853956	-0.62085	0.050293	-0.008301
1314.0	2.640234	-0.969367	5.242966	-0.237247	0.180142	-0.588052	-0.614014	0.041748	-0.006104
1315.0	9.013474	2.199331	10.221546	1.41129	0.340788	-0.488704	-0.61377	0.035156	-0.003906
1316.0	6.254956	1.276468	8.136625	0.024706	0.561232	-0.37639	-0.609131	0.033203	-0.008057
1317.0	7.148025	-1.906079	6.471539	0.472859	0.380486	-0.366272	-0.608887	0.026611	-0.010254
1318.0	6.584175	-0.375024	8.038075	0.57489	0.521843	-0.409305	-0.611084	0.022461	-0.010254
1319.0	6.6449	-1.174194	7.231438	0.372174	0.444173	-0.411209	-0.606689	0.022461	-0.014648
1320.0	6.557621	-0.432688	7.82462	0.599635	0.494797	-0.407434	-0.599854	0.016113	-0.018799
1321.0	6.335363	0.095052	8.036092	0.462722	0.428351	-0.368963	-0.604248	0.013916	-0.018799
1322.0	6.181805	0.296074	8.095014	0.396277	0.360377	-0.310018	-0.597412	0.005371	-0.018799
