Acquisition frequency: 100 Hz
PacketCounter	Acc_X	Acc_Y	Acc_Z	Gyr_X	Gyr_Y	Gyr_Z	Mag_X	Mag_Y	Mag_Z
0.0	9.789033	-0.376129	1.694218	0.01121	0.004007	-0.007459	-0.530273	0.115967	-0.561768
1.0	9.782807	-0.408023	1.685486	0.007274	0.002318	-0.006444	-0.523682	0.118164	-0.562012
2.0	9.788985	-0.374482	1.69486	0.006846	0.003213	-0.007666	-0.523438	0.11377	-0.559326
3.0	9.772471	-0.38485	1.681049	0.007273	0.002318	-0.006444	-0.525879	0.120361	-0.550293
4.0	9.815761	-0.383186	1.714486	0.003423	0.001047	-0.009258	-0.52124	0.115967	-0.566406
5.0	9.788974	-0.371927	1.695487	0.004535	0.001629	-0.007451	-0.523682	0.118164	-0.55957
6.0	9.815811	-0.38142	1.714589	0.002482	-0.002802	-0.009207	-0.525879	0.115967	-0.561768
7.0	9.805258	-0.437418	1.729555	-0.000769	-0.003014	-0.007607	-0.525635	0.11377	-0.561768
8.0	9.849642	-0.428952	1.67132	0.002225	-0.005174	-0.00857	-0.525635	0.11377	-0.559326
9.0	9.811579	-0.403131	1.738204	0.004277	0.004477	-0.00548	-0.532471	0.11377	-0.559326
10.0	9.778546	-0.424822	1.710472	0.012317	0.00459	-0.005651	-0.527832	0.111572	-0.561523
11.0	9.782959	-0.400017	1.68652	0.005645	0.002211	-0.005643	-0.525635	0.11377	-0.557129
12.0	9.778565	-0.423436	1.710711	0.00539	-0.00538	-0.006339	-0.527832	0.11377	-0.561768
13.0	9.797878	-0.396346	1.666578	0.008469	-0.006001	-0.000281	-0.525879	0.120361	-0.557373
14.0	9.814422	-0.385015	1.680376	0.003678	-0.000682	-0.000378	-0.527832	0.11377	-0.563965
15.0	9.811751	-0.400317	1.737885	0.00231	-0.003637	-0.001547	-0.52832	0.120361	-0.55957
16.0	9.810129	-0.408681	1.703948	0.006673	-0.008062	-0.002672	-0.523438	0.11377	-0.563965
17.0	9.825053	-0.406059	1.683707	0.000345	-0.01175	0.002387	-0.525635	0.11377	-0.568604
18.0	9.823463	-0.414902	1.649413	0.005646	-0.007107	0.002541	-0.523438	0.11377	-0.568604
19.0	9.814683	-0.463152	1.69753	0.007527	-0.00463	0.001104	-0.530518	0.120361	-0.56665
20.0	9.825386	-0.406228	1.681718	0.01052	-0.00679	0.000141	-0.523682	0.118164	-0.562012
21.0	9.806379	-0.432711	1.724374	0.006586	-0.0137	-0.000174	-0.528076	0.118164	-0.55957
22.0	9.824065	-0.414496	1.645925	0.013255	-0.016544	-0.001514	-0.523438	0.115967	-0.564209
23.0	9.794801	-0.419509	1.683203	0.009494	-0.011056	0.004024	-0.523682	0.118164	-0.55957
24.0	9.82447	-0.414705	1.643452	0.009236	-0.013428	0.004663	-0.523438	0.11377	-0.554688
25.0	9.79961	-0.395947	1.65646	0.008807	-0.012535	0.003441	-0.525391	0.109375	-0.556885
26.0	9.816338	-0.385025	1.669143	0.01103	-0.01659	0.005724	-0.527832	0.11377	-0.561768
27.0	9.825141	-0.415702	1.639184	0.005044	-0.01749	0.006321	-0.523682	0.118164	-0.55957
28.0	9.79593	-0.421264	1.67618	0.007351	-0.015908	0.006104	-0.525879	0.115967	-0.561768
29.0	9.819437	-0.449574	1.626928	0.001793	-0.017701	0.007924	-0.530029	0.111572	-0.556885
30.0	9.829989	-0.471461	1.630462	0.011365	-0.013808	0.001256	-0.525879	0.120361	-0.564209
31.0	9.815421	-0.474249	1.648772	0.010348	-0.007626	0.007798	-0.521484	0.122559	-0.562012
32.0	9.792302	-0.446813	1.695628	0.015043	-0.009271	0.002205	-0.528076	0.118164	-0.564209
33.0	9.827886	-0.487456	1.685043	0.013326	-0.020238	0.004181	-0.532715	0.118164	-0.554932
34.0	9.816065	-0.474772	1.644782	0.015633	-0.018657	0.003963	-0.528076	0.115967	-0.561768
35.0	9.843166	-0.485146	1.662338	0.02461	-0.014702	0.003728	-0.525635	0.11377	-0.561768
36.0	9.843364	-0.484935	1.661229	0.03042	-0.010543	0.001266	-0.525879	0.118164	-0.55957
37.0	9.841727	-0.493565	1.626769	0.032556	-0.015014	0.007383	-0.532471	0.11377	-0.557129
38.0	9.795961	-0.509895	1.650293	0.035119	-0.011064	0.006523	-0.525879	0.115967	-0.557129
39.0	9.847975	-0.538997	1.654358	0.040748	-0.00887	0.00087	-0.530273	0.11377	-0.557129
40.0	9.8047	-0.539446	1.6207	0.042542	-0.006811	0.003259	-0.525635	0.11377	-0.559326
41.0	9.800441	-0.563115	1.644483	0.048427	-0.011561	0.00517	-0.532471	0.115967	-0.557129
42.0	9.844691	-0.555403	1.585627	0.056446	-0.011469	0.004995	-0.523438	0.115967	-0.55957
43.0	9.817947	-0.544582	1.565997	0.06293	-0.005846	0.003109	-0.528076	0.115967	-0.557129
44.0	9.784236	-0.572593	1.629082	0.071199	-0.00339	0.002291	-0.528076	0.118164	-0.561768
45.0	9.7722	-0.558851	1.590195	0.077566	-0.013866	0.000294	-0.534668	0.11377	-0.559326
46.0	9.812151	-0.574307	1.555509	0.075489	-0.01832	-0.001434	-0.523438	0.11377	-0.559326
47.0	9.833013	-0.615817	1.56497	0.086568	-0.009556	-0.003771	-0.525879	0.115967	-0.561768
48.0	9.806258	-0.603961	1.545778	0.093636	-0.002876	-0.001251	-0.525391	0.109375	-0.559326
49.0	9.793528	-0.595914	1.598441	0.098295	-0.008638	0.002714	-0.534668	0.113525	-0.557129
50.0	9.793731	-0.594489	1.597727	0.107365	-0.018455	0.00175	-0.523438	0.111572	-0.561768
51.0	9.787813	-0.62579	1.587687	0.116862	-0.023939	0.003322	-0.525879	0.115967	-0.557129
52.0	9.813128	-0.643221	1.572295	0.126528	-0.018177	-0.000172	-0.523193	0.109375	-0.559326
53.0	9.805304	-0.683156	1.529372	0.133533	-0.021994	-0.000243	-0.530273	0.115967	-0.557129
54.0	9.830335	-0.627465	1.583912	0.139263	-0.017918	-0.002708	-0.529785	0.104736	-0.556641
55.0	9.832986	-0.61026	1.525694	0.148058	-0.005176	-0.007378	-0.530029	0.111572	-0.563965
56.0	9.809945	-0.578937	1.573731	0.155243	0.003446	-0.001695	-0.525391	0.109375	-0.556885
57.0	9.758007	-0.547064	1.569814	0.153812	0.00566	-0.001525	-0.527832	0.109375	-0.563965
58.0	9.786753	-0.545085	1.623391	0.154834	0.000952	-0.000967	-0.527588	0.107178	-0.561523
59.0	9.772178	-0.544601	1.643126	0.153975	-0.011448	-0.000209	-0.527832	0.109375	-0.559326
60.0	9.772367	-0.542053	1.64284	0.1539	-0.011511	-0.000178	-0.525391	0.10498	-0.556641
61.0	9.778999	-0.579873	1.582275	0.170035	-0.003869	0.000117	-0.527588	0.107178	-0.559082
62.0	9.731014	-0.528854	1.643535	0.166046	-0.00559	0.001189	-0.527344	0.100342	-0.556641
63.0	9.73124	-0.526201	1.643054	0.169484	-0.022482	0.000941	-0.53418	0.102539	-0.554443
64.0	9.75665	-0.542792	1.627642	0.173942	-0.029932	-0.001991	-0.525391	0.107178	-0.556885
65.0	9.761429	-0.516634	1.600691	0.176314	-0.026447	0.00097	-0.531982	0.100342	-0.561279
66.0	9.795363	-0.48693	1.535421	0.17835	-0.016481	9.1e-05	-0.527588	0.104736	-0.554443
67.0	9.807847	-0.495628	1.57378	0.179445	-0.010362	-0.000672	-0.531982	0.100342	-0.558838
68.0	9.766571	-0.484682	1.57312	0.177529	-0.023042	-0.005442	-0.527344	0.100342	-0.561279
69.0	9.792204	-0.42354	1.53419	0.17598	-0.031688	-0.003898	-0.53418	0.102539	-0.552002
70.0	9.82171	-0.494216	1.516847	0.164064	-0.024248	-0.011045	-0.529785	0.104736	-0.556641
71.0	9.801298	-0.447827	1.504485	0.174141	-0.003418	-0.013535	-0.527344	0.100342	-0.561279
72.0	9.7368	-0.406204	1.551846	0.182243	0.004125	-0.013129	-0.527344	0.098145	-0.558838
73.0	9.745144	-0.358857	1.592422	0.173847	-0.014428	-0.012019	-0.531982	0.100342	-0.568115
74.0	9.791375	-0.339874	1.565228	0.164617	-0.031229	-0.013388	-0.531738	0.09375	-0.563232
75.0	9.848066	-0.342209	1.54325	0.166806	-0.029754	-0.0136	-0.53418	0.098145	-0.558838
76.0	9.896259	-0.312686	1.548842	0.172541	-0.014958	-0.017563	-0.531494	0.091553	-0.551514
77.0	9.88809	-0.27662	1.575137	0.169364	-0.004317	-0.017394	-0.529541	0.095947	-0.561035
78.0	9.940205	-0.300965	1.58094	0.159651	-0.011444	-0.02457	-0.526855	0.089355	-0.558594
79.0	9.982003	-0.303393	1.580469	0.154338	-0.006991	-0.033029	-0.536377	0.098145	-0.561035
80.0	10.000852	-0.350421	1.560829	0.154697	0.011705	-0.03786	-0.5271	0.091553	-0.558594
81.0	9.954896	-0.281675	1.564172	0.15554	0.029829	-0.045293	-0.536133	0.091553	-0.558594
82.0	9.952295	-0.209518	1.600954	0.154359	0.029134	-0.047049	-0.533691	0.089355	-0.560791
83.0	9.972823	-0.244573	1.616345	0.145953	0.019406	-0.050455	-0.536133	0.09375	-0.553955
84.0	10.005717	-0.212679	1.645204	0.146197	0.02198	-0.054975	-0.529053	0.084961	-0.560547
85.0	10.052958	-0.178694	1.655951	0.153132	0.048478	-0.062608	-0.533447	0.084961	-0.562988
86.0	10.068675	-0.157297	1.675006	0.153007	0.062713	-0.069916	-0.522217	0.084961	-0.560547
87.0	10.023772	-0.151001	1.740262	0.150854	0.067194	-0.079985	-0.533447	0.082764	-0.562988
88.0	10.007829	-0.064679	1.740785	0.143874	0.065965	-0.084988	-0.531494	0.089355	-0.567871
89.0	9.99615	-0.032282	1.741511	0.143475	0.07782	-0.091597	-0.529053	0.082764	-0.569824
90.0	9.948979	-0.035184	1.775257	0.135397	0.081213	-0.097257	-0.529053	0.084961	-0.565186
91.0	9.918101	-0.025563	1.822667	0.129253	0.088805	-0.097485	-0.540283	0.084961	-0.553711
92.0	9.881915	-0.049307	1.773118	0.125659	0.100533	-0.102535	-0.526611	0.078369	-0.562744
93.0	9.794226	-0.033526	1.841533	0.113574	0.112345	-0.097244	-0.533447	0.082764	-0.567627
94.0	9.729423	0.027418	1.838663	0.117298	0.11384	-0.098236	-0.533203	0.076172	-0.562744
95.0	9.689434	0.144728	1.795518	0.115333	0.095056	-0.092377	-0.526611	0.082764	-0.572266
96.0	9.678606	0.187733	1.829857	0.089714	0.085029	-0.090982	-0.531006	0.076172	-0.567383
97.0	9.697933	0.144082	1.727306	0.076872	0.077236	-0.088921	-0.531006	0.078369	-0.567383
98.0	9.642678	0.170587	1.695076	0.067808	0.087083	-0.088383	-0.531006	0.076172	-0.56958
99.0	9.597945	0.175576	1.670297	0.05397	0.091279	-0.082793	-0.531006	0.078369	-0.562744
100.0	9.508866	0.176246	1.702655	0.042978	0.069599	-0.077939	-0.528564	0.073975	-0.564941
101.0	9.527728	0.130549	1.689144	0.027679	0.04145	-0.066776	-0.528809	0.078369	-0.567383
102.0	9.576791	0.085893	1.634926	0.022363	0.02539	-0.053702	-0.528809	0.078369	-0.569824
103.0	9.578915	0.013473	1.57264	0.015438	0.020061	-0.041461	-0.530762	0.071777	-0.574219
104.0	9.510913	-0.04437	1.581131	0.014316	0.033432	-0.023324	-0.528809	0.076172	-0.574219
105.0	9.476404	-0.067508	1.649208	0.017612	0.033384	0.002482	-0.531006	0.076172	-0.56958
106.0	9.455752	-0.103391	1.663721	0.003075	-0.002374	0.026535	-0.531006	0.076172	-0.567383
107.0	9.551788	-0.142954	1.578821	-0.019248	-0.043405	0.049533	-0.530762	0.073975	-0.576416
108.0	9.6599	-0.194153	1.531755	-0.025497	-0.034613	0.067635	-0.523926	0.071777	-0.56958
109.0	9.649332	-0.180935	1.523499	-0.014029	0.007783	0.084388	-0.530762	0.071777	-0.567139
110.0	9.578995	-0.173569	1.594317	-0.015807	0.00174	0.095565	-0.52417	0.073975	-0.574219
111.0	9.608235	-0.105119	1.526664	-0.026187	-0.045707	0.110711	-0.52417	0.073975	-0.567139
112.0	9.648656	-0.058897	1.462621	-0.039286	-0.06682	0.118915	-0.533203	0.076172	-0.564941
113.0	9.783092	-0.036579	1.52952	-0.03471	-0.072486	0.123159	-0.531006	0.076172	-0.564941
114.0	9.938439	0.019853	1.582304	-0.0396	-0.085303	0.120192	-0.531006	0.078369	-0.567383
115.0	10.082565	0.009478	1.621262	-0.054228	-0.091542	0.110259	-0.533447	0.080566	-0.572021
116.0	10.174372	0.016117	1.528458	-0.063172	-0.088296	0.095067	-0.53125	0.082764	-0.562988
117.0	10.159145	-0.006018	1.507807	-0.071582	-0.05878	0.075211	-0.53125	0.082764	-0.562988
118.0	10.051769	-0.055672	1.540037	-0.083172	-0.056175	0.059005	-0.531006	0.080566	-0.560547
119.0	9.921643	0.003438	1.499576	-0.088723	-0.061241	0.043109	-0.526855	0.087158	-0.560791
120.0	9.861887	0.058609	1.510794	-0.107119	-0.088514	0.040518	-0.531006	0.080566	-0.562744
121.0	9.929268	0.025783	1.580276	-0.126252	-0.10676	0.039654	-0.533447	0.080566	-0.565186
122.0	9.99764	-0.007606	1.557906	-0.128791	-0.094634	0.040218	-0.533691	0.087158	-0.567627
123.0	10.073519	-0.072953	1.603166	-0.127127	-0.056957	0.035865	-0.535889	0.084961	-0.565186
124.0	10.034421	-0.136552	1.657749	-0.122585	-0.0165	0.035644	-0.531494	0.087158	-0.567627
125.0	9.99306	-0.210964	1.682439	-0.110382	0.00052	0.031505	-0.536133	0.091553	-0.563232
126.0	9.947903	-0.306937	1.642893	-0.097555	0.008228	0.029463	-0.531494	0.087158	-0.556152
127.0	9.839365	-0.276266	1.655756	-0.081852	0.008158	0.029255	-0.529297	0.089355	-0.560791
128.0	9.81833	-0.314866	1.669458	-0.069001	0.015884	0.027211	-0.526855	0.087158	-0.560791
129.0	9.749421	-0.301953	1.651261	-0.051203	0.025834	0.025919	-0.531738	0.09375	-0.561035
130.0	9.748855	-0.305068	1.654026	-0.036747	0.03362	0.023087	-0.531494	0.087158	-0.56543
131.0	9.752549	-0.285442	1.631268	-0.033577	0.033716	0.021511	-0.531738	0.09375	-0.567871
132.0	9.813585	-0.261686	1.712936	-0.033153	0.022321	0.020467	-0.524902	0.095947	-0.561035
133.0	9.865207	-0.29285	1.721384	-0.038264	0.012769	0.015439	-0.536133	0.09375	-0.565674
134.0	9.936068	-0.300128	1.683519	-0.043452	0.002936	0.014247	-0.531494	0.091553	-0.560791
135.0	9.968854	-0.278238	1.710627	-0.051168	0.010277	0.018637	-0.529297	0.089355	-0.56543
136.0	9.985713	-0.344581	1.6601	-0.046688	0.032909	0.011965	-0.5271	0.091553	-0.563232
137.0	9.964224	-0.30454	1.651252	-0.046966	0.051606	0.017315	-0.524902	0.09375	-0.565674
138.0	9.897333	-0.355644	1.603707	-0.043817	0.067484	0.019223	-0.529297	0.09375	-0.556396
139.0	9.819154	-0.309754	1.616162	-0.046849	0.064156	0.022775	-0.536133	0.09375	-0.570313
140.0	9.760117	-0.317247	1.607917	-0.049197	0.051794	0.024542	-0.5271	0.091553	-0.570313
141.0	9.73228	-0.388582	1.617687	-0.051628	0.039146	0.030142	-0.527344	0.095947	-0.558838
142.0	9.742271	-0.336441	1.601578	-0.045577	0.020943	0.028048	-0.527344	0.095947	-0.563477
143.0	9.798193	-0.34666	1.584548	-0.05247	0.021285	0.033789	-0.527344	0.098145	-0.565918
144.0	9.806297	-0.382509	1.560788	-0.039999	0.035135	0.03171	-0.529297	0.09375	-0.567871
145.0	9.824888	-0.362295	1.519362	-0.044885	0.043716	0.029447	-0.5271	0.09375	-0.565674
146.0	9.809356	-0.367163	1.54247	-0.049837	0.036236	0.027511	-0.524902	0.091553	-0.556152
147.0	9.845721	-0.401067	1.571967	-0.045404	0.033749	0.029701	-0.531738	0.098145	-0.561035
148.0	9.846677	-0.394144	1.607893	-0.048609	0.033628	0.03128	-0.525146	0.098145	-0.558838
149.0	9.829563	-0.410208	1.597528	-0.048715	0.033317	0.035126	-0.527344	0.100586	-0.568115
150.0	9.855553	-0.423696	1.620642	-0.049407	0.037075	0.035762	-0.529541	0.100342	-0.558838
151.0	9.838307	-0.439992	1.610902	-0.043552	0.043097	0.036391	-0.531738	0.098145	-0.565674
152.0	9.812296	-0.424556	1.62819	-0.042491	0.048949	0.03938	-0.527588	0.102783	-0.565918
153.0	9.808256	-0.440841	1.691276	-0.028887	0.047656	0.035606	-0.529541	0.098145	-0.558838
154.0	9.78939	-0.467267	1.648988	-0.026199	0.037823	0.03426	-0.529785	0.100342	-0.565918
155.0	9.813762	-0.490632	1.639362	-0.022486	0.032122	0.028921	-0.527344	0.100586	-0.570557
156.0	9.81936	-0.460486	1.649463	-0.014334	0.029188	0.026952	-0.525146	0.100586	-0.563477
157.0	9.817227	-0.473825	1.619439	-0.01114	0.029296	0.025384	-0.525146	0.102783	-0.570557
158.0	9.791477	-0.456369	1.635622	-0.004915	0.037968	0.021482	-0.522949	0.102783	-0.561279
159.0	9.754046	-0.427678	1.612684	0.002835	0.030655	0.017076	-0.527344	0.098389	-0.570557
160.0	9.754163	-0.496018	1.673134	0.001805	0.026523	0.021066	-0.525146	0.102783	-0.563721
161.0	9.725653	-0.499067	1.622253	-0.002198	0.01241	0.016568	-0.522705	0.098389	-0.565918
162.0	9.773225	-0.475667	1.630864	-0.003219	0.003037	0.01937	-0.527588	0.10498	-0.566162
163.0	9.814503	-0.485559	1.632424	-0.002464	0.015308	0.018458	-0.525146	0.098389	-0.565918
164.0	9.824269	-0.508526	1.640605	0.001915	0.02158	0.016043	-0.525146	0.098389	-0.570557
165.0	9.785363	-0.481255	1.707242	-0.003912	0.012042	0.021195	-0.525146	0.102783	-0.563721
166.0	9.803903	-0.536014	1.688143	0.006889	0.008049	0.01327	-0.527588	0.102783	-0.561279
167.0	9.808459	-0.514856	1.663492	0.004503	0.01145	0.018531	-0.522949	0.100586	-0.568115
168.0	9.829423	-0.481942	1.652592	0.003009	0.011702	0.015474	-0.525146	0.102783	-0.565918
169.0	9.809335	-0.507373	1.698949	0.002587	0.017808	0.01541	-0.523193	0.10498	-0.575439
170.0	9.794004	-0.510075	1.719975	0.005788	0.017916	0.013844	-0.520752	0.10498	-0.566162
171.0	9.784981	-0.479551	1.748169	0.006198	0.017049	0.015098	-0.529785	0.102783	-0.570557
172.0	9.750293	-0.515236	1.689806	0.003515	0.016382	0.014076	-0.525146	0.098145	-0.561035
173.0	9.788007	-0.536642	1.75095	0.009388	0.022395	0.014722	-0.529785	0.102783	-0.565918
174.0	9.771229	-0.549786	1.738928	0.009558	0.008705	0.0143	-0.525146	0.102783	-0.563721
175.0	9.792331	-0.516494	1.727568	0.012246	0.004128	0.014136	-0.522949	0.102783	-0.565918
176.0	9.843797	-0.547311	1.735057	0.010274	0.001423	0.01946	-0.525391	0.107178	-0.568359
177.0	9.833476	-0.52756	1.729438	0.017853	0.013035	0.016671	-0.527588	0.102539	-0.559082
178.0	9.809535	-0.49829	1.77659	0.018109	0.015374	0.015971	-0.520996	0.107178	-0.570801
179.0	9.806254	-0.520706	1.712646	0.023055	0.017564	0.016767	-0.520752	0.10498	-0.570801
180.0	9.8159	-0.543157	1.721213	0.019544	0.023869	0.014424	-0.520752	0.102783	-0.565918
181.0	9.76897	-0.55849	1.748818	0.02754	0.029367	0.011703	-0.522949	0.102783	-0.568359
182.0	9.791146	-0.513747	1.772808	0.027088	0.03374	0.004654	-0.522949	0.102783	-0.568359
183.0	9.735542	-0.496515	1.826923	0.02687	0.022645	0.00997	-0.525391	0.107178	-0.568359
184.0	9.748695	-0.506264	1.777082	0.027133	0.019743	0.008085	-0.518555	0.102783	-0.563721
185.0	9.763364	-0.505473	1.759576	0.024754	0.012669	0.010973	-0.525391	0.10498	-0.566162
186.0	9.77952	-0.494138	1.77447	0.025686	0.011243	0.009641	-0.525146	0.102783	-0.561279
187.0	9.7528	-0.485301	1.755579	0.026092	0.010376	0.010897	-0.520752	0.100586	-0.563477
188.0	9.757522	-0.463385	1.73102	0.026089	0.010374	0.010898	-0.523193	0.107178	-0.568359
189.0	9.808876	-0.493487	1.739239	0.016607	0.005136	0.010557	-0.527588	0.102783	-0.568359
190.0	9.750787	-0.497729	1.725683	0.024194	0.011487	0.006582	-0.516357	0.10498	-0.570801
191.0	9.756967	-0.464918	1.733734	0.017797	0.006048	0.008523	-0.520752	0.10498	-0.561523
192.0	9.78832	-0.452094	1.728504	0.013647	0.000401	0.003253	-0.522949	0.102783	-0.565918
193.0	9.798307	-0.473381	1.735342	0.014163	0.005078	0.001846	-0.525635	0.109375	-0.573242
194.0	9.798129	-0.473359	1.736353	0.015078	0.01413	0.002874	-0.527344	0.100342	-0.561279
195.0	9.772794	-0.45339	1.75053	0.016151	0.01474	0.004682	-0.523193	0.109375	-0.570801
196.0	9.772581	-0.453616	1.751658	0.008015	0.007218	0.004263	-0.518311	0.100586	-0.568115
197.0	9.749715	-0.498973	1.73137	0.007766	-0.000359	0.003788	-0.525391	0.10498	-0.568359
198.0	9.782517	-0.47526	1.758671	0.004942	0.002183	0.0008	-0.518799	0.109375	-0.573242
199.0	9.756012	-0.465916	1.738832	0.007617	0.002843	0.001828	-0.525146	0.102783	-0.570557
200.0	9.787465	-0.453008	1.733096	-0.001711	-0.005589	0.003444	-0.520508	0.098389	-0.568115
201.0	9.771155	-0.465135	1.718853	-0.00185	-0.007626	0.000305	-0.522949	0.102783	-0.570557
202.0	9.769856	-0.475835	1.685536	-0.001333	-0.002949	-0.001103	-0.520996	0.107178	-0.575439
203.0	9.771292	-0.465026	1.718105	-0.00535	-0.001319	-0.002056	-0.525635	0.109375	-0.566162
204.0	9.77632	-0.442468	1.692144	-0.007617	-0.002843	-0.001827	-0.522949	0.102783	-0.563721
205.0	9.755103	-0.476764	1.703265	-0.010126	-0.017183	-0.003252	-0.520996	0.107178	-0.561523
206.0	9.81467	-0.462085	1.749078	-0.011618	-0.011692	-0.005136	-0.523193	0.10498	-0.566162
207.0	9.813503	-0.472455	1.715041	-0.014294	-0.012353	-0.006163	-0.520752	0.102783	-0.568359
208.0	9.823825	-0.493318	1.720095	-0.007335	-0.016224	-0.006068	-0.520752	0.100586	-0.572754
209.0	9.84405	-0.469079	1.67387	-0.00816	-0.009257	-0.007399	-0.523193	0.10498	-0.568359
210.0	9.829166	-0.469676	1.692516	-0.006309	-0.001629	-0.007703	-0.522949	0.102783	-0.570557
211.0	9.807853	-0.503434	1.704459	-0.00631	-0.00163	-0.007703	-0.527588	0.102783	-0.563721
212.0	9.812901	-0.480404	1.67835	-0.010437	-0.005544	-0.00599	-0.527588	0.102783	-0.568359
213.0	9.820803	-0.436019	1.71766	-0.007236	-0.005444	-0.007551	-0.523193	0.107178	-0.563721
214.0	9.841005	-0.477875	1.730348	-0.008729	4.8e-05	-0.009432	-0.520996	0.107178	-0.561523
215.0	9.860967	-0.453427	1.685571	-0.004719	0.003659	-0.007302	-0.525391	0.109375	-0.561523
216.0	9.823129	-0.499162	1.684592	-0.003386	0.006609	-0.006199	-0.516357	0.107178	-0.563721
217.0	9.799391	-0.467797	1.730729	0.001825	0.005895	-0.007284	-0.523193	0.10498	-0.566162
218.0	9.799381	-0.467128	1.730966	-0.003635	-0.00097	-0.006676	-0.525146	0.100586	-0.568115
219.0	9.814438	-0.46535	1.711633	-0.005236	-0.00102	-0.005896	-0.520752	0.102783	-0.568359
220.0	9.814436	-0.464867	1.711772	-0.003645	0.004269	-0.005495	-0.520996	0.107178	-0.568359
221.0	9.829379	-0.46343	1.693003	-0.010984	0.005492	-0.001041	-0.523193	0.107178	-0.559082
222.0	9.830628	-0.452925	1.726631	-0.010328	0.012206	0.000692	-0.520996	0.109375	-0.568604
223.0	9.824068	-0.486033	1.720782	-0.004742	0.014136	-0.004938	-0.525391	0.107178	-0.563721
224.0	9.79242	-0.498731	1.727796	-0.005152	0.014999	-0.006193	-0.516113	0.102783	-0.554443
225.0	9.798533	-0.465085	1.736313	-0.004744	0.014134	-0.004937	-0.523193	0.109375	-0.568604
226.0	9.787067	-0.520227	1.756043	-0.00354	0.00981	-0.008154	-0.516357	0.10498	-0.575439
227.0	9.766795	-0.477029	1.744003	-0.000455	0.009608	-0.005871	-0.523193	0.10498	-0.572998
228.0	9.796687	-0.47381	1.706699	0.000994	0.012861	-0.008608	-0.525146	0.102783	-0.568359
229.0	9.781496	-0.474293	1.727042	-0.000865	0.010471	-0.007126	-0.523193	0.107178	-0.561523
230.0	9.776347	-0.496202	1.753974	0.001131	0.014895	-0.005468	-0.518555	0.107178	-0.563721
231.0	9.781187	-0.47334	1.729056	-0.000409	0.000864	-0.001255	-0.520752	0.102783	-0.565918
232.0	9.799932	-0.526359	1.709512	0.002115	0.004728	-0.002184	-0.518555	0.10498	-0.566162
233.0	9.821203	-0.491582	1.697998	0.005983	0.006305	-0.003189	-0.523438	0.111572	-0.568604
234.0	9.779602	-0.483147	1.697794	0.005046	0.007729	-0.001857	-0.527588	0.10498	-0.563721
235.0	9.795852	-0.47098	1.712265	0.005711	0.009204	-0.001304	-0.525391	0.107178	-0.556885
236.0	9.784318	-0.460066	1.673705	0.007992	0.005492	-0.002713	-0.520752	0.10498	-0.568359
237.0	9.794285	-0.4813	1.680824	0.003734	0.006512	0.004019	-0.51416	0.10498	-0.570801
238.0	9.795479	-0.470761	1.714457	0.006784	0.009814	0.000504	-0.518555	0.107178	-0.572998
239.0	9.7803	-0.47212	1.734396	0.003068	0.005036	0.003466	-0.520996	0.107178	-0.570801
240.0	9.777511	-0.49364	1.66937	0.002251	0.006763	0.000956	-0.523438	0.115967	-0.561768
241.0	9.785069	-0.44982	1.709816	0.005606	0.003663	0.001356	-0.525146	0.102783	-0.561279
242.0	9.808779	-0.48052	1.664715	0.000921	0.003813	-0.00015	-0.523193	0.10498	-0.566162
243.0	9.823785	-0.479141	1.6458	-0.000817	0.001726	-0.00251	-0.525391	0.107178	-0.566162
244.0	9.830035	-0.445775	1.653333	-0.000833	0.006963	-0.001328	-0.518799	0.109375	-0.566162
245.0	9.808535	-0.47987	1.666337	0.004484	0.011791	-0.005069	-0.525391	0.10498	-0.572998
246.0	9.8134	-0.457055	1.641417	0.000921	0.003813	-0.000149	-0.520996	0.109375	-0.566162
247.0	9.811997	-0.467617	1.60911	0.002778	0.006201	-0.00163	-0.523193	0.10498	-0.566162
248.0	9.781745	-0.4699	1.648427	0.000343	0.013113	-0.00218	-0.520752	0.102783	-0.575195
249.0	9.797945	-0.457861	1.663112	0.004515	0.008287	0.000731	-0.523193	0.10498	-0.568359
250.0	9.786541	-0.513688	1.682299	0.002402	0.003561	0.002914	-0.516357	0.107178	-0.563721
251.0	9.817843	-0.500811	1.677402	0.000374	0.00961	0.003619	-0.523438	0.11377	-0.573242
252.0	9.801271	-0.513137	1.66483	0.003712	0.011746	0.005203	-0.516602	0.109375	-0.568604
253.0	9.823696	-0.468185	1.686996	0.01063	0.016622	0.000686	-0.525391	0.10498	-0.561279
254.0	9.83976	-0.456373	1.702361	0.004886	0.017894	0.004352	-0.518555	0.10498	-0.566162
255.0	9.808006	-0.469534	1.709746	0.007802	0.019158	-0.002301	-0.523193	0.107178	-0.568359
256.0	9.822782	-0.468135	1.692326	0.00475	0.015857	0.001213	-0.518799	0.109375	-0.573242
257.0	9.77091	-0.438761	1.686657	0.005924	0.022004	0.000362	-0.523193	0.107178	-0.559082
258.0	9.770584	-0.438656	1.688568	-0.000343	0.016868	-0.001552	-0.520996	0.107178	-0.566162
259.0	9.775388	-0.482333	1.722119	0.000491	0.009908	-0.000222	-0.518555	0.10498	-0.568359
260.0	9.782721	-0.524926	1.664106	0.002756	0.011432	-0.000446	-0.518555	0.10498	-0.568359
261.0	9.78503	-0.503482	1.731028	0.002073	0.015192	0.000183	-0.522949	0.102783	-0.565918
262.0	9.774746	-0.481984	1.72586	0.011836	0.012293	-0.00252	-0.523193	0.107178	-0.566162
263.0	9.784676	-0.503018	1.733159	0.004938	0.002186	0.00081	-0.523193	0.107178	-0.563721
264.0	9.806001	-0.468435	1.721507	0.006387	0.005434	-0.001925	-0.516602	0.109375	-0.566162
265.0	9.836038	-0.465643	1.684148	0.008223	0.013054	-0.002222	-0.523193	0.10498	-0.568359
266.0	9.789282	-0.479603	1.7102	0.012089	0.014627	-0.003221	-0.523193	0.109375	-0.570801
267.0	9.794129	-0.456718	1.685745	0.009976	0.009905	-0.00104	-0.516113	0.102783	-0.563721
268.0	9.788905	-0.478903	1.712551	0.01224	0.011428	-0.001262	-0.518555	0.10498	-0.563721
269.0	9.798792	-0.499836	1.720143	0.009312	0.00843	-0.001593	-0.518799	0.111572	-0.566406
270.0	9.779775	-0.446305	1.740743	0.009974	0.009903	-0.001039	-0.523193	0.107178	-0.559082
271.0	9.805973	-0.455355	1.762094	0.008627	0.012189	-0.000965	-0.523193	0.10498	-0.566162
272.0	9.783167	-0.500107	1.742495	0.008496	0.010152	-0.004104	-0.518799	0.111572	-0.566406
273.0	9.784311	-0.488921	1.775871	0.009079	0.000859	-0.002069	-0.520996	0.111572	-0.571045
274.0	9.803266	-0.47553	1.69828	0.010018	-0.000565	-0.003398	-0.520996	0.111572	-0.563965
275.0	9.814454	-0.485517	1.73829	0.013429	0.012335	-0.003293	-0.520752	0.10498	-0.563721
276.0	9.773942	-0.466043	1.771487	0.020219	0.016903	-0.003959	-0.518555	0.10498	-0.566162
277.0	9.746139	-0.466789	1.719819	0.018385	0.009284	-0.003658	-0.525391	0.10498	-0.566162
278.0	9.778727	-0.4422	1.747667	0.015891	0.000192	-0.003911	-0.522949	0.102783	-0.568359
279.0	9.798918	-0.417843	1.702918	0.009202	0.001154	-0.005908	-0.518555	0.10498	-0.561523
280.0	9.810107	-0.427425	1.742927	0.016499	0.010391	-0.007981	-0.516357	0.10498	-0.568359
281.0	9.788574	-0.460985	1.756049	0.0121	0.009383	-0.004399	-0.529785	0.104736	-0.561279
282.0	9.79862	-0.415566	1.705191	0.011338	0.002379	-0.002287	-0.518555	0.102783	-0.568359
283.0	9.819889	-0.446849	1.751518	0.009329	0.003191	-0.002769	-0.523193	0.109375	-0.563965
284.0	9.793445	-0.437193	1.731753	0.010651	0.006138	-0.001663	-0.518799	0.109375	-0.563965
285.0	9.792141	-0.447512	1.699705	0.009836	0.007859	-0.004176	-0.523193	0.107178	-0.570801
286.0	9.792039	-0.447162	1.700389	0.009456	0.005229	0.000369	-0.520996	0.111572	-0.568604
287.0	9.80831	-0.434854	1.71438	0.005998	0.001053	-0.004356	-0.520996	0.109375	-0.570801
288.0	9.776832	-0.44746	1.720221	0.011182	0.005572	-0.004247	-0.522949	0.102783	-0.565918
289.0	9.823361	-0.432473	1.695983	0.007599	0.001101	-0.00513	-0.520996	0.107178	-0.563721
290.0	9.798183	-0.411744	1.708625	0.0092	0.001149	-0.005904	-0.527588	0.102783	-0.568359
291.0	9.78694	-0.400729	1.669352	0.004396	0.001004	-0.003581	-0.520996	0.109375	-0.563965
292.0	9.829616	-0.397712	1.703377	-0.000407	0.00086	-0.001257	-0.520996	0.109375	-0.566162
293.0	9.813291	-0.409476	1.689861	0.000786	0.001768	-0.003289	-0.518799	0.109375	-0.573242
294.0	9.806976	-0.44249	1.683268	-0.00712	0.007054	-0.002083	-0.518799	0.109375	-0.566162
295.0	9.806909	-0.442698	1.683604	-0.010014	0.00057	0.003389	-0.520752	0.102783	-0.559082
296.0	9.816894	-0.464134	1.690606	-0.009129	0.007865	-0.002565	-0.516357	0.107178	-0.563721
297.0	9.828001	-0.474509	1.73078	-0.00646	0.008528	-0.001529	-0.523193	0.10498	-0.568359
298.0	9.811561	-0.486412	1.717904	-0.002851	0.007764	-0.001821	-0.523438	0.111572	-0.568604
299.0	9.817686	-0.453008	1.725684	-0.00125	0.007813	-0.002595	-0.523193	0.107178	-0.568359
300.0	9.812473	-0.475178	1.752276	0.001012	0.009335	-0.002816	-0.518799	0.111572	-0.566406
301.0	9.792198	-0.432494	1.739964	0.002079	0.009949	-0.001006	-0.523193	0.109375	-0.566162
302.0	9.802083	-0.453484	1.747629	0.003273	0.010857	-0.003037	-0.518799	0.109375	-0.566162
303.0	9.785672	-0.465005	1.734712	-0.002036	0.004298	-0.006285	-0.519043	0.11377	-0.563965
304.0	9.760452	-0.44463	1.747404	0.001601	4.9e-05	-0.000774	-0.525391	0.109375	-0.561523
305.0	9.791912	-0.431374	1.741848	0.001349	-0.002285	-7e-05	-0.523193	0.109375	-0.568604
306.0	9.817136	-0.451451	1.729218	0.000407	-0.00086	0.001257	-0.516357	0.107178	-0.566162
307.0	9.822176	-0.429084	1.703689	0.001572	0.005281	0.000402	-0.523193	0.109375	-0.568604
308.0	9.822075	-0.429245	1.704233	-0.005241	0.005947	0.002241	-0.518799	0.111572	-0.571045
309.0	9.79162	-0.431876	1.743367	0.000194	0.012799	0.001649	-0.518799	0.109375	-0.568604
310.0	9.796539	-0.409626	1.718532	-0.00364	0.005995	0.001467	-0.523438	0.111572	-0.568604
311.0	9.783929	-0.476292	1.705151	-0.004989	0.00828	0.001537	-0.525391	0.109375	-0.563965
312.0	9.794968	-0.486945	1.745432	-0.002728	0.009802	0.001317	-0.518799	0.109375	-0.570801
313.0	9.793701	-0.497856	1.713309	-0.000689	0.003758	0.000623	-0.523193	0.10498	-0.566162
314.0	9.801054	-0.453995	1.753258	-0.001195	-0.000908	0.002031	-0.511963	0.111572	-0.568604
315.0	9.803686	-0.519521	1.720208	0.000784	0.003513	0.003691	-0.523193	0.10498	-0.568359
316.0	9.826163	-0.474596	1.74116	0.003735	0.001276	0.002848	-0.523438	0.111572	-0.571045
317.0	9.799738	-0.465515	1.721262	0.006908	0.006605	0.002478	-0.520996	0.109375	-0.563965
318.0	9.808584	-0.497586	1.695475	0.006278	-0.000101	0.000747	-0.516357	0.10498	-0.566162
319.0	9.814762	-0.464445	1.702859	0.011584	0.006456	0.003999	-0.518555	0.107178	-0.566162
320.0	9.789361	-0.444772	1.716357	0.007002	0.013875	0.006791	-0.525635	0.111572	-0.561768
321.0	9.799177	-0.466378	1.724222	0.006218	0.010362	0.003101	-0.520752	0.10498	-0.561523
322.0	9.773846	-0.446558	1.737339	0.004393	0.002749	0.003402	-0.520752	0.100586	-0.570557
323.0	9.804109	-0.444413	1.699388	0.001725	0.002087	0.002364	-0.525635	0.111572	-0.573242
324.0	9.782634	-0.479074	1.711792	0.005052	0.004222	0.003955	-0.525391	0.10498	-0.561279
325.0	9.815094	-0.455297	1.739768	0.00289	0.008226	0.00151	-0.518555	0.107178	-0.566162
326.0	9.807592	-0.499518	1.700639	0.003043	0.005034	0.003471	-0.518799	0.109375	-0.563965
327.0	9.782281	-0.479678	1.713641	0.008914	0.005791	0.002963	-0.520996	0.111572	-0.563965
328.0	9.782146	-0.479882	1.714352	0.005963	0.008028	0.003805	-0.520996	0.109375	-0.561523
329.0	9.797205	-0.479077	1.695761	0.003196	0.001841	0.005433	-0.523438	0.115967	-0.573486
330.0	9.803382	-0.446295	1.703085	0.003449	0.004174	0.004729	-0.520996	0.109375	-0.566162
331.0	9.803282	-0.446745	1.703539	-0.000161	0.004938	0.005017	-0.520752	0.10498	-0.563721
332.0	9.786921	-0.45919	1.690163	0.000529	0.00118	0.004395	-0.520996	0.107178	-0.563721
333.0	9.853562	-0.487632	1.679178	-0.000283	0.002899	0.00188	-0.518799	0.111572	-0.566406
334.0	9.827127	-0.478403	1.659508	7e-05	0.010755	-0.00149	-0.518799	0.111572	-0.563965
335.0	9.771401	-0.460571	1.711214	0.002736	0.011416	-0.000452	-0.518555	0.107178	-0.566162
336.0	9.812687	-0.468704	1.713617	-0.004078	0.012085	0.001381	-0.520752	0.10498	-0.561523
337.0	9.779964	-0.492888	1.687084	-0.001633	0.005183	0.001948	-0.525635	0.109375	-0.568604
338.0	9.82132	-0.501271	1.689023	-0.003925	0.008893	0.003343	-0.516357	0.107178	-0.568359
339.0	9.822246	-0.490774	1.722736	-6.3e-05	0.010461	0.002352	-0.518799	0.109375	-0.566162
340.0	9.789498	-0.514981	1.696352	0.001945	0.009649	0.002838	-0.520996	0.109375	-0.570801
341.0	9.815576	-0.524377	1.717977	0.004711	0.015833	0.001212	-0.523193	0.109375	-0.566162
342.0	9.789038	-0.515241	1.698926	0.006212	0.010356	0.003106	-0.523193	0.109375	-0.573242
343.0	9.785051	-0.461023	1.700461	0.007529	0.013301	0.004214	-0.518555	0.107178	-0.561523
344.0	9.77965	-0.48364	1.727485	0.008472	0.011875	0.002888	-0.516357	0.107178	-0.566162
345.0	9.795727	-0.47174	1.742269	0.005147	0.009742	0.001294	-0.516602	0.109375	-0.559326
346.0	9.810757	-0.470694	1.724088	0.001284	0.008174	0.002284	-0.520996	0.111572	-0.566406
347.0	9.809518	-0.481636	1.692212	0.005146	0.009741	0.001295	-0.525635	0.111572	-0.566406
348.0	9.794153	-0.482753	1.712266	0.002075	0.009939	-0.001004	-0.523193	0.109375	-0.559326
349.0	9.787779	-0.516033	1.705927	0.002379	0.003558	0.00292	-0.520996	0.109375	-0.568604
350.0	9.793955	-0.482944	1.713345	0.003577	0.004464	0.000891	-0.518555	0.107178	-0.568359
351.0	9.793902	-0.482927	1.713652	0.00226	0.001519	-0.000217	-0.518555	0.107178	-0.575439
352.0	9.82012	-0.491984	1.734472	0.002361	0.007041	-0.002883	-0.52124	0.115967	-0.566406
353.0	9.792651	-0.493407	1.682046	0.006494	0.007456	0.001228	-0.523438	0.111572	-0.561768
354.0	9.836098	-0.479778	1.749866	0.009007	0.011306	0.000307	-0.516602	0.111572	-0.566406
355.0	9.776029	-0.505162	1.670494	0.008602	0.012164	-0.000951	-0.525635	0.111572	-0.563965
356.0	9.819393	-0.491221	1.738799	0.012716	0.01606	-0.002642	-0.519043	0.11377	-0.575684
357.0	9.771429	-0.516009	1.731856	0.010607	0.011351	-0.000463	-0.518555	0.10498	-0.570801
358.0	9.786466	-0.514503	1.7139	0.013153	0.009971	-0.002558	-0.518799	0.111572	-0.563965
359.0	9.792534	-0.480813	1.722043	0.011803	0.012255	-0.002491	-0.518799	0.109375	-0.561523
360.0	9.793423	-0.469565	1.755757	0.01064	0.006121	-0.001636	-0.518799	0.111572	-0.563965
361.0	9.798149	-0.512756	1.788797	0.013592	0.003883	-0.002472	-0.51416	0.10498	-0.563721
362.0	9.787031	-0.501976	1.749835	0.012646	0.005308	-0.001147	-0.514404	0.11377	-0.571045
363.0	9.819425	-0.477731	1.777928	0.014364	0.007394	0.001219	-0.519043	0.115967	-0.568848
364.0	9.77678	-0.480196	1.744605	0.014499	0.007683	-0.002622	-0.519043	0.11377	-0.566406
365.0	9.801848	-0.499943	1.733315	0.013264	0.012007	0.00058	-0.518799	0.109375	-0.561523
366.0	9.80062	-0.510655	1.701772	0.01527	0.011194	0.001069	-0.518799	0.111572	-0.559326
367.0	9.802473	-0.488601	1.768421	0.01581	0.010625	-0.001513	-0.523193	0.107178	-0.566162
368.0	9.776036	-0.479071	1.74908	0.012605	0.010533	2.7e-05	-0.518799	0.109375	-0.570801
369.0	9.801118	-0.498745	1.737779	0.014091	0.008536	-0.003878	-0.52124	0.11377	-0.561768
370.0	9.790975	-0.477089	1.731918	0.013953	0.008247	-3.6e-05	-0.520752	0.10498	-0.563721
371.0	9.810842	-0.519224	1.746348	0.013548	0.009104	-0.001295	-0.518555	0.107178	-0.563721
372.0	9.78543	-0.498764	1.759677	0.020473	0.010468	2.3e-05	-0.514404	0.11377	-0.571045
373.0	9.760041	-0.478273	1.772861	0.023171	0.005899	-0.000103	-0.516602	0.109375	-0.566162
374.0	9.816649	-0.484874	1.75599	0.011288	0.007584	-0.001079	-0.519043	0.11377	-0.568604
375.0	9.816495	-0.484509	1.756949	0.015802	0.010617	-0.00151	-0.525635	0.111572	-0.563965
376.0	9.806295	-0.462943	1.751355	0.014855	0.012044	-0.000188	-0.518555	0.10498	-0.561523
377.0	9.779837	-0.453425	1.732199	0.012444	0.013712	-0.001938	-0.516602	0.111572	-0.563965
378.0	9.784367	-0.496542	1.766206	0.012443	0.013711	-0.001937	-0.518799	0.109375	-0.573242
379.0	9.767914	-0.50829	1.753828	0.01325	0.011997	0.000583	-0.518799	0.109375	-0.568604
380.0	9.741509	-0.498826	1.734392	0.01088	0.008437	-0.002336	-0.516602	0.109375	-0.573242
381.0	9.783889	-0.495536	1.769135	0.013328	0.001541	-0.001752	-0.516357	0.107178	-0.570801
382.0	9.782938	-0.506122	1.736391	0.00816	-0.002964	-0.001874	-0.518799	0.111572	-0.571045
383.0	9.788165	-0.483629	1.71075	0.01209	0.005868	0.001444	-0.523438	0.11377	-0.568604
384.0	9.80331	-0.482205	1.692453	0.016085	0.007711	-0.003381	-0.520752	0.10498	-0.568359
385.0	9.80513	-0.459828	1.758682	0.013286	0.006767	-0.000584	-0.52124	0.11377	-0.566406
386.0	9.814037	-0.491588	1.733615	0.010473	0.00929	-0.003597	-0.516357	0.107178	-0.568359
387.0	9.76241	-0.461898	1.726228	0.009275	0.00839	-0.001568	-0.516602	0.111572	-0.563965
388.0	9.762375	-0.461493	1.726535	0.005096	-0.002769	-0.004177	-0.516602	0.109375	-0.563965
389.0	9.802998	-0.480264	1.694808	-0.00021	-0.007555	-0.000458	-0.52124	0.11377	-0.563965
390.0	9.788813	-0.470128	1.745982	0.002839	-0.004285	-0.003962	-0.514404	0.11377	-0.566406
391.0	9.80508	-0.457833	1.759481	0.006266	-0.000108	0.00077	-0.520752	0.102783	-0.563721
392.0	9.804145	-0.468685	1.726638	0.006557	-0.003009	-0.001103	-0.518799	0.109375	-0.561523
393.0	9.798936	-0.490762	1.752298	0.007212	-0.001537	-0.000551	-0.518799	0.109375	-0.568604
394.0	9.7889	-0.469359	1.745701	0.011027	0.00525	-0.000369	-0.518799	0.111572	-0.563965
395.0	9.772609	-0.481104	1.732496	0.001044	0.004082	-0.003997	-0.523193	0.109375	-0.563965
396.0	9.772567	-0.48076	1.732825	0.003453	0.002414	-0.002244	-0.514404	0.111572	-0.568604
397.0	9.788803	-0.468213	1.746554	2.7e-05	-0.001763	-0.006975	-0.520996	0.109375	-0.561523
398.0	9.777871	-0.457724	1.706884	0.000404	-0.000855	0.001261	-0.523193	0.109375	-0.563965
399.0	9.798841	-0.488907	1.753347	0.00199	0.002653	-0.005318	-0.520996	0.109375	-0.568604
400.0	9.7888	-0.467269	1.746826	0.007712	0.003118	-0.001966	-0.518799	0.109375	-0.568604
401.0	9.804069	-0.465833	1.727839	0.003494	-0.002814	-0.003408	-0.523193	0.109375	-0.570801
402.0	9.788909	-0.466478	1.746425	0.00419	-0.00657	-0.00402	-0.523193	0.107178	-0.566162
403.0	9.815247	-0.475089	1.766467	0.002435	-0.003431	-0.005221	-0.520996	0.107178	-0.570801
404.0	9.799082	-0.486591	1.752645	0.00334	0.000368	-0.005377	-0.519043	0.11377	-0.573242
405.0	9.773824	-0.465883	1.76493	0.001335	0.00118	-0.00587	-0.518799	0.111572	-0.566406
406.0	9.799138	-0.485364	1.752672	0.002031	-0.002577	-0.006481	-0.518555	0.107178	-0.563721
407.0	9.814483	-0.48363	1.73333	0.00604	-0.0042	-0.005495	-0.518799	0.111572	-0.566406
408.0	9.829744	-0.481973	1.714436	0.007557	0.006301	-0.003936	-0.52124	0.115967	-0.568848
409.0	9.803394	-0.472443	1.694715	0.007264	0.009202	-0.002064	-0.520996	0.109375	-0.563965
410.0	9.757523	-0.475289	1.752443	0.009311	0.003161	-0.002734	-0.520996	0.109375	-0.570801
411.0	9.804236	-0.460742	1.728259	0.003201	8.7e-05	-0.001535	-0.530029	0.109375	-0.561523
412.0	9.804215	-0.460527	1.728436	0.00611	0.003075	-0.001199	-0.514404	0.11377	-0.568604
413.0	9.787891	-0.472213	1.715502	0.00445	0.011722	-0.00508	-0.52124	0.11377	-0.568604
414.0	9.819295	-0.458491	1.7107	0.007349	-0.001256	-0.004389	-0.520996	0.107178	-0.563721
415.0	9.797847	-0.492306	1.723016	0.004647	0.003311	-0.004272	-0.520996	0.111572	-0.568604
416.0	9.813058	-0.49081	1.704407	0.0037	0.00474	-0.002953	-0.518799	0.111572	-0.563965
417.0	9.772421	-0.471268	1.736251	0.005145	0.007965	-0.00569	-0.52124	0.11377	-0.563965
418.0	9.8029	-0.468439	1.698682	0.009198	0.001113	-0.005865	-0.518555	0.107178	-0.570801
419.0	9.819105	-0.455657	1.712546	0.005593	0.001881	-0.005591	-0.520996	0.111572	-0.566406
420.0	9.829079	-0.476096	1.719884	0.010349	0.007239	-0.006731	-0.523438	0.111572	-0.566406
421.0	9.802739	-0.466439	1.700159	0.009264	0.008389	-0.001571	-0.518799	0.109375	-0.570801
422.0	9.777343	-0.445835	1.713046	0.006495	0.005679	-0.005748	-0.516357	0.10498	-0.570801
423.0	9.788243	-0.455536	1.753031	0.008112	0.002263	-0.000703	-0.523438	0.111572	-0.571045
424.0	9.792542	-0.443963	1.694639	0.005997	0.001026	-0.004329	-0.520996	0.111572	-0.566406
425.0	9.818746	-0.452574	1.715416	0.003045	0.003266	-0.003505	-0.518799	0.111572	-0.566406
426.0	9.77721	-0.444208	1.714225	0.007707	0.003117	-0.001964	-0.518799	0.111572	-0.566406
427.0	9.756697	-0.467178	1.759208	0.006152	-0.002155	-0.002358	-0.525635	0.11377	-0.563965
428.0	9.812604	-0.484667	1.708771	0.004037	-0.003393	-0.005984	-0.519043	0.115967	-0.564209
429.0	9.827886	-0.483194	1.689799	0.008764	0.003735	-0.000151	-0.527832	0.109375	-0.570801
430.0	9.781029	-0.497094	1.714952	0.009105	0.011568	-0.003542	-0.52124	0.11377	-0.561768
431.0	9.77612	-0.45325	1.683024	0.009959	0.004631	-0.002179	-0.520996	0.107178	-0.561523
432.0	9.808501	-0.42862	1.710509	0.009756	-0.002924	-0.002628	-0.518555	0.10498	-0.563721
433.0	9.826717	-0.492724	1.658999	0.008358	0.004588	-0.001412	-0.518799	0.109375	-0.570801
434.0	9.786048	-0.473439	1.690755	0.011667	0.006722	0.000185	-0.518799	0.111572	-0.559326
435.0	9.802106	-0.461104	1.705259	0.011915	0.009048	-0.000525	-0.52124	0.115967	-0.564209
436.0	9.786739	-0.461982	1.724834	0.008513	0.001408	0.00056	-0.516357	0.107178	-0.568359
437.0	9.781419	-0.484007	1.751188	0.013265	0.006763	-0.00058	-0.52124	0.11377	-0.563965
438.0	9.801877	-0.460688	1.706686	0.018237	0.000256	0.004907	-0.518799	0.111572	-0.559326
439.0	9.811898	-0.481614	1.713682	0.015858	0.000145	-0.003822	-0.520996	0.109375	-0.566162
440.0	9.80793	-0.426677	1.714265	0.019072	0.012736	9.1e-05	-0.514404	0.111572	-0.575684
441.0	9.798601	-0.394132	1.741292	0.016819	0.01122	0.000307	-0.519043	0.11377	-0.571045
442.0	9.755186	-0.40789	1.675125	0.012501	0.003236	-0.00426	-0.516602	0.11377	-0.563965
443.0	9.787523	-0.383016	1.702788	0.008245	0.002533	-0.004541	-0.52124	0.11377	-0.566406
444.0	9.781803	-0.350147	1.637697	0.00649	0.005669	-0.005749	-0.518799	0.111572	-0.568604
445.0	9.778228	-0.349339	1.729785	0.002326	0.010468	-0.008715	-0.520996	0.109375	-0.568604
446.0	9.818832	-0.36755	1.698859	-0.00458	-0.006858	-0.00967	-0.51416	0.109375	-0.563965
447.0	9.819001	-0.366518	1.698104	-0.006692	-0.008099	-0.013296	-0.520996	0.109375	-0.568604
448.0	9.851496	-0.340849	1.724936	-0.007007	-0.001745	-0.017242	-0.514404	0.111572	-0.571045
449.0	9.825289	-0.330305	1.704602	-0.006158	0.007281	-0.016246	-0.523193	0.107178	-0.568359
450.0	9.855826	-0.326443	1.667115	-0.00372	0.003839	-0.021458	-0.520996	0.107178	-0.566162
451.0	9.828684	-0.326699	1.614457	-0.008569	0.00894	-0.018004	-0.52124	0.11377	-0.566406
452.0	9.83852	-0.34625	1.622998	-0.010183	0.024856	-0.017608	-0.516602	0.109375	-0.566162
453.0	9.838064	-0.345052	1.626014	-0.013381	0.037275	-0.010631	-0.518799	0.111572	-0.566406
454.0	9.839257	-0.322467	1.694568	-0.013452	0.02832	-0.002134	-0.523193	0.109375	-0.563965
455.0	9.870237	-0.309723	1.691945	-0.01959	0.02702	0.006029	-0.520996	0.109375	-0.566162
456.0	9.853466	-0.323216	1.681631	-0.02976	0.04329	0.012836	-0.518799	0.109375	-0.563965
457.0	9.855757	-0.39057	1.653504	-0.020908	0.04907	0.015831	-0.516602	0.109375	-0.566162
458.0	9.851004	-0.337854	1.657925	-0.0114	0.043822	0.013928	-0.519043	0.11377	-0.559326
459.0	9.840159	-0.318299	1.655553	-0.005202	0.048938	0.015877	-0.51416	0.10498	-0.561523
460.0	9.8115	-0.332713	1.574951	0.001471	0.06215	0.010603	-0.52124	0.115967	-0.566406
461.0	9.755037	-0.249806	1.572587	0.014212	0.067707	0.005666	-0.519043	0.115967	-0.561768
462.0	9.727937	-0.240986	1.557942	0.00115	0.055989	0.001212	-0.516602	0.111572	-0.571045
463.0	9.727183	-0.186516	1.471504	-0.001942	0.045454	0.000414	-0.519043	0.11377	-0.566406
464.0	9.74803	-0.152202	1.463655	-0.007499	0.041803	-0.000985	-0.519043	0.11377	-0.568604
465.0	9.730686	-0.175272	1.420908	-0.006487	0.035151	-0.003463	-0.516602	0.111572	-0.571045
466.0	9.818613	-0.168465	1.401918	-0.002024	0.030909	-0.00817	-0.516846	0.115967	-0.571045
467.0	9.880442	-0.15233	1.36252	0.004658	0.040665	-0.007622	-0.516846	0.115967	-0.568848
468.0	9.805531	-0.178727	1.304979	0.008526	0.05293	-0.010096	-0.516846	0.115967	-0.568848
469.0	9.742811	-0.13915	1.2611	-0.007681	0.041505	0.002858	-0.511963	0.111572	-0.568604
470.0	9.762467	-0.182082	1.277454	-0.024517	0.008869	0.00549	-0.516846	0.118164	-0.575928
471.0	9.818145	-0.21202	1.194787	-0.027211	-0.013218	0.00745	-0.519043	0.11377	-0.568604
472.0	9.865193	-0.199024	1.169652	-0.01556	-0.009954	0.013502	-0.518799	0.111572	-0.577881
473.0	9.901254	-0.230815	1.196907	-0.022354	0.001435	0.013774	-0.516602	0.109375	-0.568604
474.0	9.910505	-0.264775	1.171556	-0.017118	0.007974	0.017058	-0.518799	0.111572	-0.571045
475.0	9.894863	-0.267717	1.191758	-0.001924	0.019138	0.018212	-0.516602	0.111572	-0.575684
476.0	9.833121	-0.219328	1.178197	0.009572	0.02557	0.022298	-0.516602	0.11377	-0.563965
477.0	9.765938	-0.193254	1.190314	0.008742	0.016561	0.021281	-0.516846	0.115967	-0.566406
478.0	9.753593	-0.262009	1.177161	0.003475	-0.00414	0.025308	-0.512207	0.11377	-0.568604
479.0	9.773516	-0.306742	1.190412	0.003538	-0.009358	0.024141	-0.52124	0.115967	-0.568848
480.0	9.774168	-0.297969	1.222406	-0.000226	-0.005419	0.022432	-0.516602	0.111572	-0.571045
481.0	9.764226	-0.278991	1.214894	0.008035	-0.006339	0.023736	-0.514648	0.118164	-0.575928
482.0	9.77969	-0.279952	1.195364	0.02006	-0.007749	0.020943	-0.514648	0.118164	-0.568848
483.0	9.821774	-0.278693	1.22983	0.018088	0.003771	0.018934	-0.516846	0.115967	-0.571045
484.0	9.784449	-0.315892	1.262507	0.021633	0.031404	0.023804	-0.512207	0.115967	-0.566406
485.0	9.70827	-0.246159	1.335706	0.036493	0.064813	0.020685	-0.516846	0.118164	-0.56665
486.0	9.553956	-0.192531	1.471464	0.025774	0.053229	0.024936	-0.514404	0.11377	-0.563965
487.0	9.485368	-0.232124	1.543174	-0.006052	0.011816	0.025683	-0.512207	0.11377	-0.568604
488.0	9.445169	-0.20425	1.606034	-0.017644	-0.023271	0.02031	-0.514404	0.115967	-0.575684
489.0	9.423288	-0.251574	1.582758	-0.034841	-0.030145	0.012833	-0.514404	0.11377	-0.563965
490.0	9.335264	-0.258874	1.60185	-0.045836	-0.028469	0.001521	-0.514648	0.118164	-0.568848
491.0	9.220741	-0.3108	1.69138	-0.075554	-0.031667	-0.013366	-0.514648	0.120361	-0.573486
492.0	9.108334	-0.449178	1.681524	-0.103208	-0.05338	-0.03438	-0.511963	0.111572	-0.568604
493.0	9.061678	-0.526472	1.757059	-0.110728	-0.086743	-0.064324	-0.514648	0.120361	-0.56665
494.0	9.087865	-0.563472	1.669554	-0.128333	-0.119547	-0.090955	-0.516846	0.120361	-0.571289
495.0	9.252797	-0.697113	1.59157	-0.13585	-0.133289	-0.130833	-0.519043	0.118164	-0.562012
496.0	9.608252	-0.847768	1.694714	-0.158872	-0.163742	-0.14941	-0.512451	0.118164	-0.562012
497.0	10.301128	-0.829111	1.728977	-0.15779	-0.212641	-0.157422	-0.519043	0.115967	-0.561768
498.0	10.89868	-0.506942	1.608573	-0.081633	-0.199024	-0.153513	-0.521484	0.120361	-0.557373
499.0	11.199614	-0.130092	1.575934	-0.077002	-0.072396	-0.13318	-0.519287	0.120361	-0.557373
500.0	10.857517	-0.13209	1.429301	-0.112811	0.132455	-0.110904	-0.514404	0.115967	-0.557129
501.0	10.031927	-0.327012	1.337334	-0.083799	0.259303	-0.124266	-0.516846	0.120361	-0.564209
502.0	9.207428	-0.444254	1.22173	-0.089241	0.238285	-0.159685	-0.507813	0.118164	-0.564209
503.0	9.190351	-0.586322	1.298455	-0.138583	-0.051931	-0.165157	-0.514404	0.115967	-0.561768
504.0	9.478779	-0.721483	0.993869	-0.222227	-0.348619	-0.149461	-0.512451	0.118164	-0.557373
505.0	9.956963	-1.013497	0.588369	-0.24538	-0.411311	-0.151553	-0.512451	0.120361	-0.554932
506.0	10.49158	-1.180053	0.391922	-0.18422	-0.344504	-0.163727	-0.519043	0.118164	-0.55249
507.0	10.95131	-1.099699	0.289957	-0.079843	-0.23718	-0.161827	-0.519287	0.120361	-0.552734
508.0	11.062164	-0.981208	0.05216	-0.022106	-0.14149	-0.137472	-0.519287	0.120361	-0.548096
509.0	11.136971	-0.709291	0.030844	0.029549	-0.040408	-0.093022	-0.523438	0.11377	-0.550049
510.0	11.237169	-0.433355	0.197387	0.052977	0.048127	-0.035808	-0.516602	0.11377	-0.547852
511.0	11.173893	-0.199824	0.336188	0.047957	0.143828	0.024412	-0.520996	0.111572	-0.550049
512.0	10.832831	-0.00839	0.449484	0.02956	0.227213	0.084058	-0.516846	0.115967	-0.55249
513.0	10.41334	-0.016458	0.614003	-0.038078	0.283327	0.126664	-0.514648	0.122559	-0.557373
514.0	10.075471	-0.207452	0.796298	-0.123709	0.262459	0.159658	-0.512207	0.115967	-0.557129
515.0	9.776397	-0.505865	0.932416	-0.181422	0.213815	0.171483	-0.512451	0.120361	-0.552734
516.0	9.665464	-0.750219	0.841147	-0.174432	0.154377	0.171654	-0.512695	0.124756	-0.557617
517.0	9.623755	-0.845749	0.753698	-0.17011	0.170013	0.173139	-0.514893	0.124756	-0.552734
518.0	9.529997	-0.911463	0.66244	-0.157234	0.246655	0.16198	-0.505859	0.122559	-0.555176
519.0	9.378601	-0.979869	0.562057	-0.132154	0.320453	0.156998	-0.508057	0.124756	-0.564453
520.0	9.160824	-1.00901	0.509486	-0.104251	0.352082	0.138847	-0.503662	0.126953	-0.566895
521.0	9.054842	-0.953255	0.556693	-0.084605	0.339664	0.121652	-0.505859	0.126953	-0.564453
522.0	9.042803	-0.885017	0.489447	-0.069651	0.309207	0.103626	-0.499268	0.131348	-0.5625
523.0	9.073508	-0.802592	0.488907	-0.044519	0.299798	0.079657	-0.499512	0.133789	-0.5625
524.0	9.151834	-0.712693	0.433016	-0.030416	0.308453	0.056439	-0.492432	0.127197	-0.566895
525.0	9.223043	-0.711568	0.461333	-0.028406	0.349164	0.037187	-0.49707	0.131592	-0.564697
526.0	9.205593	-0.735899	0.446535	-0.01742	0.367073	0.019335	-0.49707	0.133789	-0.567139
527.0	9.203571	-0.726861	0.512777	0.001097	0.355039	-0.000829	-0.492676	0.131592	-0.571777
528.0	9.183721	-0.723275	0.398328	0.012038	0.315024	-0.010891	-0.488281	0.133789	-0.583496
529.0	9.293934	-0.69001	0.363261	0.026519	0.270529	-0.011647	-0.492676	0.135986	-0.578857
530.0	9.394304	-0.742514	0.243181	0.038671	0.245871	-0.014838	-0.488037	0.131592	-0.571777
531.0	9.426745	-0.746986	0.197874	0.05312	0.26247	-0.025212	-0.483398	0.125	-0.580811
532.0	9.411711	-0.765875	0.175904	0.059373	0.27868	-0.031891	-0.483643	0.131592	-0.585693
533.0	9.346583	-0.765063	0.110969	0.081641	0.2662	-0.036259	-0.476807	0.129395	-0.578613
534.0	9.402825	-0.743595	0.021746	0.104203	0.21096	-0.031648	-0.479004	0.127197	-0.583252
535.0	9.42784	-0.736181	-0.068571	0.100508	0.16998	-0.027498	-0.483398	0.125	-0.57373
536.0	9.435583	-0.818193	-0.150477	0.125386	0.201794	-0.031422	-0.476318	0.120605	-0.589844
537.0	9.443523	-0.913863	-0.099162	0.147051	0.213397	-0.036358	-0.480957	0.122803	-0.580566
538.0	9.48065	-0.97486	0.016535	0.166059	0.222314	-0.045565	-0.472168	0.125	-0.585449
539.0	9.594759	-1.08357	0.131845	0.183228	0.192484	-0.048148	-0.478516	0.118408	-0.585205
540.0	9.763461	-1.154107	0.198783	0.192969	0.14977	-0.039467	-0.474121	0.122803	-0.589844
541.0	9.840936	-1.198696	0.215718	0.202843	0.140267	-0.034116	-0.476318	0.120605	-0.585205
542.0	9.908588	-1.222671	0.226505	0.213089	0.15963	-0.025137	-0.467285	0.116211	-0.587402
543.0	9.995141	-1.168938	0.195937	0.248964	0.150481	-0.013964	-0.47168	0.114014	-0.582764
544.0	10.227742	-1.104138	0.166935	0.264095	0.123427	-0.013708	-0.469238	0.109619	-0.589355
545.0	10.55553	-1.162161	-0.019582	0.271477	0.097795	-0.022601	-0.467041	0.109619	-0.584717
546.0	10.932536	-1.324579	-0.170163	0.278196	0.079766	-0.053739	-0.469238	0.111816	-0.591797
547.0	11.214496	-1.491428	-0.374806	0.295896	0.116221	-0.096142	-0.467041	0.111816	-0.587158
548.0	11.356531	-1.53406	-0.525793	0.363423	0.219493	-0.146634	-0.459961	0.103027	-0.589355
549.0	11.814816	-1.540577	0.274627	0.303355	0.351995	-0.130114	-0.466553	0.103027	-0.596191
550.0	12.959998	-1.337465	1.624513	0.233825	0.393272	-0.076449	-0.4646	0.105225	-0.593994
551.0	14.301745	-0.30721	2.038502	0.451812	0.178573	0.007067	-0.459961	0.103027	-0.596191
552.0	14.259469	1.271615	1.166498	0.510572	0.03137	0.12806	-0.457275	0.096436	-0.600586
553.0	12.922638	1.838653	0.619676	0.221454	0.397915	0.210981	-0.455078	0.096436	-0.595947
554.0	11.83898	1.346174	1.347379	-0.114903	0.673888	0.205933	-0.453125	0.105225	-0.598633
555.0	11.168577	0.53925	1.929284	-0.13583	0.604918	0.129719	-0.443848	0.098633	-0.598389
556.0	10.911084	-0.045708	1.671965	-0.052343	0.366272	0.020783	-0.439453	0.101074	-0.607666
557.0	10.99439	-0.671884	1.31029	-0.093569	0.246416	-0.053874	-0.446289	0.103027	-0.60791
558.0	11.058516	-1.418948	1.226141	-0.063481	0.298627	-0.076433	-0.441895	0.103027	-0.605469
559.0	10.781031	-1.881666	1.16867	0.237342	0.375983	-0.098322	-0.441895	0.103271	-0.614746
560.0	10.317047	-1.549533	1.739218	0.599241	0.350003	-0.08316	-0.435059	0.101074	-0.610107
561.0	9.780283	-1.405632	2.952959	0.603629	0.234087	0.002867	-0.437256	0.101074	-0.614746
562.0	9.404273	-1.759245	3.940455	0.521771	-0.000999	0.138492	-0.437012	0.09668	-0.612305
563.0	8.789224	-1.665637	4.253214	0.695506	-0.270036	0.224786	-0.443604	0.089844	-0.609619
564.0	8.406033	-0.745149	4.550492	0.913739	-0.467074	0.271993	-0.439209	0.089844	-0.614258
565.0	8.352277	-0.004139	4.999264	0.821685	-0.580161	0.327705	-0.450195	0.087646	-0.602539
566.0	8.603987	-0.011695	4.819541	0.641733	-0.705304	0.360933	-0.445801	0.087646	-0.60498
567.0	8.947845	-0.321821	4.139461	0.669548	-0.759388	0.347256	-0.449951	0.081055	-0.595459
568.0	9.4266	-0.071874	3.792706	0.839412	-0.703359	0.287248	-0.447754	0.083252	-0.600098
569.0	9.747634	0.413704	3.601574	0.844741	-0.498058	0.242924	-0.456787	0.083252	-0.595459
570.0	9.669015	0.575965	3.296952	0.745478	-0.292083	0.196622	-0.452148	0.07666	-0.599854
571.0	9.64777	0.566923	3.145284	0.646232	-0.128391	0.149337	-0.454102	0.072266	-0.594971
572.0	9.712351	0.511043	3.126885	0.545878	-0.054572	0.088082	-0.451904	0.072266	-0.599609
573.0	9.878039	0.565884	2.934771	0.452277	-0.056629	-0.006861	-0.449463	0.067871	-0.597168
574.0	10.041351	0.757235	2.833871	0.368834	-0.039126	-0.09021	-0.456055	0.065674	-0.597168
575.0	10.024958	0.788983	2.74862	0.246012	0.029262	-0.151275	-0.449463	0.067871	-0.594971
576.0	9.86286	0.632211	2.716052	0.164631	0.086216	-0.196329	-0.449463	0.065674	-0.594727
577.0	9.51955	0.588269	2.780453	0.165587	0.12969	-0.237785	-0.454102	0.070068	-0.597412
578.0	9.129993	0.725518	2.890934	0.192737	0.110897	-0.254898	-0.453857	0.065674	-0.594727
579.0	8.805035	0.817185	2.79157	0.181398	0.058176	-0.245365	-0.45166	0.063477	-0.601807
580.0	8.540113	0.769412	2.716519	0.132889	-0.020876	-0.224495	-0.448975	0.056885	-0.601563
581.0	8.732218	0.662068	2.626267	0.134396	-0.189943	-0.204955	-0.449219	0.061279	-0.596924
582.0	9.034318	0.580326	2.418765	0.11365	-0.32502	-0.182815	-0.451416	0.059082	-0.594482
583.0	9.151961	0.494786	1.968797	0.128431	-0.232831	-0.170046	-0.451172	0.054443	-0.594482
584.0	8.907143	0.356428	1.770509	0.15404	-0.007591	-0.152505	-0.449219	0.059082	-0.594482
585.0	8.677839	0.158983	1.809609	0.143442	0.116068	-0.130304	-0.453369	0.050049	-0.594238
586.0	8.498999	0.043759	1.795051	0.140223	0.092208	-0.114834	-0.449219	0.061279	-0.592285
587.0	8.333754	-0.093165	1.55777	0.105413	0.080444	-0.093087	-0.448975	0.056885	-0.599121
588.0	8.210261	-0.158856	1.422352	0.127307	0.110243	-0.089128	-0.448975	0.054688	-0.594482
589.0	7.966092	-0.098296	1.472946	0.165257	0.211653	-0.083903	-0.44873	0.050049	-0.594238
590.0	7.620149	-0.000224	1.465935	0.188056	0.294023	-0.085576	-0.446777	0.054688	-0.599121
591.0	7.442344	0.097139	1.587252	0.184562	0.29758	-0.072926	-0.442139	0.054688	-0.599121
592.0	7.385599	0.212285	1.685216	0.141285	0.245864	-0.075078	-0.4375	0.050293	-0.598877
593.0	7.588745	0.274811	1.726324	0.115816	0.176722	-0.069181	-0.444336	0.05249	-0.603516
594.0	7.870426	0.422198	1.628773	0.090068	0.129222	-0.05434	-0.439697	0.050293	-0.601318
595.0	8.301084	0.587594	1.432406	0.056944	0.094658	-0.024573	-0.4375	0.050293	-0.603516
596.0	8.640363	0.782196	1.211577	0.014577	0.088608	0.015617	-0.4375	0.05249	-0.598877
597.0	8.897946	1.028493	1.113272	0.013041	0.124438	0.063512	-0.439941	0.05249	-0.605957
598.0	8.859794	1.297931	1.002277	-0.000125	0.187176	0.103573	-0.435303	0.054688	-0.599121
599.0	8.736304	1.393276	0.995458	-0.101305	0.228001	0.162984	-0.430908	0.056885	-0.61084
600.0	8.446491	1.181188	0.918149	-0.238675	0.229011	0.211723	-0.435791	0.061279	-0.604004
601.0	8.350603	0.753223	0.942215	-0.359051	0.186421	0.246634	-0.431152	0.061279	-0.606201
602.0	8.471523	0.38175	1.101634	-0.451579	0.108814	0.2712	-0.433594	0.067871	-0.606445
603.0	8.601341	0.073738	1.2613	-0.462408	0.114371	0.293521	-0.436279	0.074463	-0.609131
604.0	9.213843	-0.177302	1.445472	-0.500892	0.06028	0.278205	-0.42749	0.078857	-0.602295
605.0	9.809413	-0.137111	1.515155	-0.489053	-0.055749	0.240503	-0.431885	0.081055	-0.614014
606.0	10.037911	0.121705	1.239742	-0.396453	0.030357	0.231141	-0.425049	0.078857	-0.609375
607.0	10.358641	0.552103	1.400099	-0.361462	0.111053	0.219996	-0.432373	0.089844	-0.609619
608.0	10.636517	0.733724	1.639212	-0.410181	0.043618	0.210309	-0.430176	0.094482	-0.607422
609.0	10.806415	0.404614	1.239463	-0.461274	-0.079699	0.187058	-0.425781	0.092285	-0.602783
610.0	10.818763	0.00082	0.257362	-0.441654	-0.245807	0.119854	-0.421387	0.09668	-0.603027
611.0	11.135866	-0.119023	-0.350751	-0.489876	-0.38103	0.056835	-0.425781	0.094482	-0.602783
612.0	11.555502	-0.148952	-0.902825	-0.635746	-0.374302	0.024986	-0.423828	0.105469	-0.598633
613.0	11.874613	0.100513	-1.212765	-0.664861	-0.198038	-0.001096	-0.426025	0.103271	-0.598633
614.0	13.012928	0.996394	0.122542	-0.606374	0.007199	-0.073835	-0.424316	0.114258	-0.592041
615.0	14.396639	0.918363	1.471962	-0.672216	0.009127	-0.080691	-0.428711	0.114258	-0.594238
616.0	15.174949	-0.335596	1.270578	-0.723868	-0.401143	-0.170584	-0.426514	0.114258	-0.598877
617.0	14.797158	-1.786774	0.59791	-0.725036	-0.612403	-0.432173	-0.433594	0.118652	-0.59668
618.0	14.503978	-2.017595	1.75616	-0.38335	-0.132359	-0.665766	-0.428955	0.118652	-0.594482
619.0	13.423511	-1.453959	4.47777	-0.109752	0.403681	-0.687638	-0.427002	0.125244	-0.590088
620.0	11.449771	-1.370743	5.390255	-0.078112	0.432632	-0.608461	-0.422119	0.116455	-0.592041
621.0	9.560737	-1.012328	4.589477	-0.132829	-0.026867	-0.587492	-0.422119	0.118652	-0.589844
622.0	8.784177	-0.383798	4.09977	-0.397166	-0.391507	-0.629393	-0.422119	0.116455	-0.592041
623.0	8.622288	-0.854255	3.624557	-0.847204	-0.524579	-0.611629	-0.429199	0.123047	-0.590088
624.0	8.358913	-1.090397	2.993072	-0.799253	-0.377151	-0.653724	-0.428955	0.118652	-0.585205
625.0	8.832242	-0.207217	3.790135	-0.630355	-0.140329	-0.732573	-0.435791	0.123047	-0.585449
626.0	9.334272	0.539555	4.200226	-0.719811	-0.142965	-0.732541	-0.431396	0.123047	-0.587646
627.0	9.583735	0.871959	3.395186	-0.680148	-0.448802	-0.735696	-0.438477	0.129639	-0.581055
628.0	10.724266	1.236263	3.209659	-0.616304	-0.834842	-0.723275	-0.442871	0.127441	-0.576172
629.0	12.644628	1.149505	3.519904	-0.703108	-1.032832	-0.616845	-0.451904	0.129395	-0.564697
630.0	13.859053	0.131215	3.410876	-0.658477	-1.038552	-0.438841	-0.449707	0.129395	-0.560059
631.0	14.399109	-1.026663	2.81525	-0.508046	-0.697355	-0.247631	-0.449951	0.133789	-0.557861
632.0	13.903272	-1.832586	2.19529	-0.30162	-0.099401	-0.077202	-0.454346	0.133789	-0.564941
633.0	12.235496	-2.073487	2.027327	-0.094103	0.668573	0.050396	-0.447754	0.13623	-0.567139
634.0	10.117958	-2.049261	3.120267	0.029501	1.23101	0.177317	-0.438721	0.13623	-0.572021
635.0	8.172433	-1.915366	4.105806	0.043669	1.315086	0.230911	-0.436523	0.138428	-0.583496
636.0	7.150234	-1.574252	4.487476	-0.029065	0.850079	0.230918	-0.432129	0.138428	-0.585938
637.0	6.855877	-1.074242	4.016836	-0.174302	0.197518	0.22305	-0.432373	0.147217	-0.586182
638.0	7.078477	-0.927395	3.071347	-0.270832	-0.251052	0.198449	-0.430176	0.149414	-0.581787
639.0	7.700149	-0.694347	2.411488	-0.216639	-0.449647	0.185582	-0.437012	0.149414	-0.567871
640.0	8.277466	-0.236187	2.302851	-0.198952	-0.442697	0.193182	-0.441406	0.147217	-0.576904
641.0	8.269522	-0.105402	1.890389	-0.172165	-0.106836	0.203322	-0.435059	0.158203	-0.572754
642.0	7.650976	-0.066792	1.568603	-0.068885	0.164828	0.199188	-0.430664	0.158203	-0.574951
643.0	7.104329	0.096367	1.680388	-0.046723	0.288833	0.179127	-0.42627	0.164795	-0.575195
644.0	6.781616	0.047594	1.832571	-0.134535	0.197004	0.175807	-0.433105	0.162598	-0.577637
645.0	6.961145	-0.244603	1.932015	-0.236726	-0.012544	0.182394	-0.424072	0.164795	-0.572998
646.0	7.373927	-0.501927	1.768737	-0.258743	-0.152851	0.186414	-0.424072	0.167236	-0.575439
647.0	7.517133	-0.769398	1.555115	-0.246352	0.00618	0.16363	-0.43335	0.169189	-0.575439
648.0	7.32088	-1.069478	1.509367	-0.138549	0.283243	0.124327	-0.428955	0.173828	-0.580322
649.0	6.940221	-1.022502	1.764208	0.002106	0.413026	0.076193	-0.422119	0.171631	-0.568604
650.0	6.889775	-0.838124	1.912386	0.065704	0.308669	0.05707	-0.422119	0.173828	-0.573242
651.0	7.124986	-0.753791	1.824609	0.003839	0.007655	0.063142	-0.422119	0.171631	-0.573242
652.0	7.609855	-0.863141	1.449799	-0.059645	-0.156459	0.075083	-0.426758	0.176025	-0.566406
653.0	7.935553	-1.158287	1.095093	-0.05108	-0.081694	0.058079	-0.420166	0.178223	-0.575684
654.0	7.896963	-1.321805	0.832816	0.074992	0.081839	0.030085	-0.420166	0.178223	-0.575684
655.0	7.458115	-1.36555	0.595951	0.202918	0.231966	-0.008777	-0.417969	0.18042	-0.580566
656.0	6.947319	-1.395107	0.770509	0.31864	0.217362	-0.057939	-0.415283	0.171631	-0.580078
657.0	7.38621	-1.375152	1.09821	0.396846	-0.044058	-0.104306	-0.41748	0.171631	-0.570801
658.0	9.670531	-0.954565	1.598639	0.391499	-0.645049	-0.068566	-0.419922	0.173828	-0.575684
659.0	11.972209	-0.906162	0.910821	0.196294	-0.922655	0.026329	-0.422363	0.176025	-0.573486
660.0	12.72668	-1.493231	-0.532081	0.063758	-0.567673	0.066404	-0.419922	0.173828	-0.566406
661.0	12.170832	-1.821814	-1.532311	0.318614	0.172435	0.015438	-0.422119	0.173828	-0.575684
662.0	11.688671	-0.739285	-0.323005	0.482265	0.594856	-0.024323	-0.417725	0.173828	-0.575684
663.0	11.303055	0.21747	0.505039	0.33057	0.473095	-0.007157	-0.41748	0.169434	-0.575439
664.0	10.718644	0.705188	-0.188122	0.234426	-0.028265	-0.019517	-0.413086	0.171631	-0.575439
665.0	11.142086	1.031982	-1.223187	0.213926	-0.513995	-0.070818	-0.41333	0.176025	-0.568848
666.0	12.039311	0.735289	-1.760271	0.030089	-0.664084	-0.081865	-0.419678	0.169434	-0.563965
667.0	12.266519	-0.625649	-2.896966	-0.117872	-0.419989	-0.077761	-0.424316	0.173828	-0.568604
668.0	12.303238	-2.414917	-2.873992	-0.015953	-0.075219	-0.057796	-0.419922	0.176025	-0.568848
669.0	13.340145	-3.436645	-1.071127	0.324878	0.110783	-0.085853	-0.419922	0.173828	-0.573242
670.0	14.976515	-3.146886	1.612536	0.881946	-0.021921	0.035176	-0.415039	0.167236	-0.570801
671.0	15.291175	-1.54571	4.098848	1.025528	-0.024246	0.337629	-0.415283	0.169434	-0.580078
672.0	13.436483	-0.661155	5.271706	0.842986	0.451505	0.692931	-0.415039	0.167236	-0.572998
673.0	10.478847	0.742791	6.031169	1.174223	0.206084	0.85325	-0.419434	0.1604	-0.575195
674.0	8.331666	3.362703	7.661742	1.341299	-0.281633	0.719328	-0.415039	0.165039	-0.577637
675.0	7.904843	4.045651	8.290301	0.461659	-0.685959	0.865512	-0.419922	0.173828	-0.587158
676.0	7.629292	1.434116	5.783811	-0.222975	-1.196867	0.96626	-0.41748	0.171631	-0.566162
677.0	8.488281	-0.750159	3.248779	0.153034	-1.47423	0.911914	-0.427002	0.18042	-0.564209
678.0	10.482575	-0.705688	2.790237	0.546376	-1.382722	0.829602	-0.429199	0.177979	-0.557129
679.0	11.447422	-0.141849	2.807523	0.671787	-0.88585	0.847175	-0.433594	0.175781	-0.564209
680.0	11.740269	-0.493473	3.25199	0.555538	-0.296991	0.859749	-0.429199	0.180176	-0.55957
681.0	12.419218	-1.40329	3.448991	0.582914	-0.198736	0.804314	-0.431641	0.184814	-0.562012
682.0	13.634258	-1.909628	3.234431	0.625776	-0.608929	0.640605	-0.433594	0.180176	-0.557373
683.0	14.593679	-1.927922	2.466442	0.525172	-0.738118	0.369653	-0.436035	0.18457	-0.555176
684.0	14.231173	-2.140242	1.074886	0.424266	-0.27431	0.101933	-0.436035	0.182373	-0.557373
685.0	12.470334	-1.148331	0.821934	0.777462	0.568394	-0.158036	-0.431152	0.175781	-0.55957
686.0	10.463279	0.414041	2.17373	0.945979	1.139018	-0.297023	-0.426758	0.173828	-0.571045
687.0	8.534508	1.677134	3.230314	0.846286	1.113124	-0.321514	-0.424072	0.167236	-0.575439
688.0	7.434422	2.384488	3.625356	0.640057	0.666634	-0.24942	-0.417236	0.165039	-0.589355
689.0	7.254078	2.479073	3.3094	0.28592	0.0681	-0.137349	-0.424072	0.165039	-0.586914
690.0	7.637978	2.050095	2.352466	0.044939	-0.245797	-0.082301	-0.421875	0.165039	-0.582275
691.0	8.430987	1.621621	1.754621	0.009498	-0.238986	-0.076129	-0.424072	0.162842	-0.586914
692.0	9.01687	1.453212	1.53936	-0.032249	-0.120125	-0.109382	-0.424072	0.167236	-0.584717
693.0	8.660271	1.175197	1.209752	-0.039101	0.148918	-0.110191	-0.423828	0.158203	-0.57959
694.0	8.160144	0.771095	1.268719	-0.013886	0.341635	-0.121432	-0.417236	0.160645	-0.584473
695.0	7.728984	0.523705	1.600118	0.022576	0.338744	-0.11813	-0.421631	0.162842	-0.586914
696.0	7.411857	0.335512	1.569638	-0.011165	0.262379	-0.110578	-0.415039	0.165039	-0.584717
697.0	7.3799	0.049589	1.364198	-0.013949	0.216761	-0.087505	-0.419678	0.167236	-0.589355
698.0	7.302345	-0.165294	1.04638	-0.031895	0.215835	-0.079966	-0.417236	0.162842	-0.589111
699.0	6.902316	-0.346001	0.874591	-0.012632	0.422116	-0.071579	-0.417236	0.160645	-0.591309
700.0	6.423452	-0.37087	1.11731	0.04549	0.617287	-0.078127	-0.417236	0.162842	-0.59375
701.0	6.101463	-0.211869	1.715246	0.071441	0.657978	-0.08086	-0.410645	0.165039	-0.603271
702.0	5.966902	-0.086081	2.056769	0.028534	0.545031	-0.071624	-0.403809	0.165039	-0.60791
703.0	6.164859	-0.002504	1.933561	0.011663	0.338565	-0.058561	-0.408203	0.165039	-0.605469
704.0	6.586334	0.251295	1.588386	0.004329	0.173195	-0.04162	-0.406006	0.162842	-0.612305
705.0	6.944836	0.524214	1.342152	-0.021705	0.143763	-0.004382	-0.406006	0.160645	-0.607666
706.0	7.170953	0.682817	1.052656	-0.051069	0.193521	0.041616	-0.403809	0.167236	-0.612549
707.0	7.506411	0.960749	0.921354	-0.101699	0.2215	0.100355	-0.401367	0.162842	-0.614746
708.0	7.663162	1.100869	0.506972	-0.190963	0.20212	0.182689	-0.396973	0.162842	-0.621582
709.0	8.390907	1.075097	0.38682	-0.300177	0.025095	0.273577	-0.40625	0.169434	-0.617188
710.0	9.888296	0.945466	0.688218	-0.467758	-0.311012	0.333374	-0.399658	0.173828	-0.610596
711.0	11.339946	0.562828	0.934634	-0.564319	-0.424882	0.359908	-0.408691	0.171631	-0.610352
712.0	12.277746	0.099489	0.69046	-0.517561	-0.141407	0.318064	-0.399902	0.178223	-0.608398
713.0	11.497636	-0.31703	0.038026	-0.18657	0.462983	0.271239	-0.397705	0.18042	-0.608398
714.0	10.828777	-0.441087	0.636231	-0.0535	0.836674	0.199393	-0.395752	0.187256	-0.625
715.0	10.741724	-0.770194	1.362187	-0.218461	0.616776	0.129266	-0.393311	0.182861	-0.622314
716.0	10.622037	-1.520852	0.518515	-0.339418	0.199559	0.066509	-0.393555	0.19165	-0.625
717.0	10.662795	-1.754003	-1.097988	-0.268991	-0.127002	-0.002935	-0.388916	0.185059	-0.620117
718.0	10.917519	-1.198176	-2.219146	-0.158359	-0.15588	-0.032662	-0.388916	0.189453	-0.620361
719.0	11.6423	0.108293	-1.775975	-0.133035	0.041134	-0.071704	-0.388916	0.187256	-0.615723
720.0	13.624506	1.262262	0.770996	-0.357069	0.161012	-0.11113	-0.391357	0.19165	-0.622803
721.0	16.033022	0.747323	2.648971	-0.646652	-0.153127	-0.122838	-0.395996	0.193848	-0.625244
722.0	17.808786	-0.574838	2.645366	-0.710032	-0.768412	-0.39738	-0.400635	0.196045	-0.620605
723.0	17.703631	-1.141982	2.711329	-0.554806	-0.428464	-0.830263	-0.402832	0.196045	-0.618164
724.0	16.112164	-0.973573	5.4235	0.008316	0.863927	-1.048875	-0.397705	0.182861	-0.624756
725.0	12.469192	-2.107018	7.977787	0.07371	1.306699	-1.067451	-0.390869	0.180664	-0.629395
726.0	8.193974	-3.712691	8.109605	0.058487	0.670103	-1.027692	-0.390869	0.180664	-0.629395
727.0	6.208424	-3.304114	6.928904	0.103661	-0.599697	-1.144837	-0.401855	0.174072	-0.633789
728.0	6.362087	-1.172142	4.53619	-0.020201	-1.298589	-1.045476	-0.406494	0.176025	-0.619873
729.0	7.298703	0.305526	2.835375	-0.441674	-1.155662	-0.822246	-0.417725	0.171631	-0.62207
730.0	8.78484	0.596657	2.580157	-0.805094	-0.709744	-0.692411	-0.413086	0.173828	-0.615234
731.0	10.637258	0.890146	2.96739	-0.640077	-0.482035	-0.670282	-0.419922	0.173828	-0.617432
732.0	12.330659	1.795591	2.818707	-0.312828	-0.538889	-0.693993	-0.426514	0.171631	-0.61499
733.0	13.549386	2.216067	2.436694	-0.39655	-0.643532	-0.609782	-0.428955	0.173828	-0.617432
734.0	13.770425	0.967325	2.336546	-0.670851	-0.403064	-0.422014	-0.431152	0.169434	-0.605713
735.0	14.525283	-0.542944	3.027696	-0.482259	-0.262272	-0.218749	-0.433594	0.178223	-0.60376
736.0	14.270991	-0.677477	2.995301	-0.040781	-0.045358	-0.047886	-0.44043	0.178223	-0.608398
737.0	12.000138	-0.443378	2.054607	0.129985	0.532046	0.110573	-0.431152	0.171631	-0.612793
738.0	9.489812	-1.081562	2.228632	-0.074142	0.955838	0.199557	-0.427002	0.178223	-0.622314
739.0	7.880509	-1.800698	3.401567	-0.158512	0.925113	0.231234	-0.422363	0.178223	-0.619873
740.0	7.097592	-2.056927	4.114297	-0.164853	0.669469	0.214629	-0.415771	0.182617	-0.626953
741.0	6.675741	-2.021217	3.627899	-0.134598	0.354835	0.189091	-0.417969	0.182617	-0.624756
742.0	6.625441	-2.006913	2.949018	-0.188495	0.169961	0.169592	-0.420654	0.191406	-0.629639
743.0	6.668344	-2.116576	2.495028	-0.244881	0.128359	0.141648	-0.416016	0.184814	-0.629395
744.0	6.395988	-2.097394	1.958956	-0.112594	0.116367	0.110241	-0.41626	0.193848	-0.63208
745.0	6.727991	-1.537777	1.851303	0.014691	-0.087908	0.071807	-0.42041	0.184814	-0.629395
746.0	6.890583	-0.821746	1.686282	0.040353	-0.247709	0.063301	-0.422852	0.191406	-0.627441
747.0	7.147623	-0.328343	1.418086	0.063911	-0.161521	0.091755	-0.423096	0.193604	-0.625244
748.0	7.315854	-0.084468	1.38527	0.086528	-0.058749	0.118489	-0.422852	0.187012	-0.61792
749.0	7.367208	0.041468	1.211519	0.097093	0.049733	0.132912	-0.42041	0.184814	-0.622559
750.0	7.437069	0.004228	1.047306	0.086052	0.09496	0.121473	-0.418457	0.191406	-0.629639
751.0	7.416874	-0.049425	1.035349	0.039256	0.147863	0.082924	-0.423096	0.193604	-0.636719
752.0	7.422502	-0.280244	1.204152	-0.001339	0.226458	0.054144	-0.425049	0.189209	-0.638916
753.0	7.510375	-0.464495	1.457285	0.029496	0.247222	0.032662	-0.423096	0.193604	-0.634521
754.0	7.41023	-0.610897	1.37712	0.044609	0.28614	0.001913	-0.41626	0.193848	-0.648438
755.0	7.174773	-0.753318	1.108175	0.131858	0.354987	-0.031246	-0.41626	0.19165	-0.634277
756.0	7.002768	-0.768884	1.077515	0.204058	0.393946	-0.070417	-0.407227	0.193848	-0.636719
757.0	6.939141	-0.95405	1.133322	0.204819	0.319241	-0.08785	-0.411621	0.187256	-0.648193
758.0	6.818203	-1.293969	1.014938	0.20282	0.214542	-0.097987	-0.406738	0.182861	-0.645752
759.0	6.879719	-1.670508	0.790256	0.320261	0.125702	-0.129619	-0.413574	0.182861	-0.645752
760.0	6.943069	-1.759069	0.551379	0.460396	0.083983	-0.182757	-0.411133	0.180664	-0.650146
761.0	8.368086	-1.313519	0.892775	0.59281	-0.201364	-0.181036	-0.41333	0.176025	-0.645508
762.0	10.505858	-0.849837	1.261424	0.354505	-0.579251	-0.115583	-0.420166	0.18042	-0.647949
763.0	11.98683	-0.978193	0.59721	0.075505	-0.57054	0.004937	-0.422363	0.178223	-0.643066
764.0	12.109794	-1.325654	-0.612608	0.164301	-0.02989	0.029196	-0.420166	0.178223	-0.645508
765.0	11.496918	-0.677139	-0.580565	0.494142	0.499018	-0.012519	-0.415283	0.171631	-0.6521
766.0	11.493389	0.614019	0.550969	0.444057	0.536718	-0.050572	-0.413086	0.171631	-0.654541
767.0	11.670636	1.350402	0.281117	0.198927	-0.004822	-0.030125	-0.410889	0.171631	-0.649902
768.0	11.680521	1.316091	-1.319325	0.087181	-0.48736	-0.043994	-0.41748	0.169434	-0.64502
769.0	12.266523	0.803246	-1.987827	0.038407	-0.545796	-0.06475	-0.419922	0.169434	-0.656738
770.0	13.38613	-0.385249	-0.9147	-0.240951	-0.169122	-0.02254	-0.417725	0.173828	-0.649902
771.0	14.354916	-1.917269	0.443277	-0.001128	0.276989	0.030517	-0.426514	0.169434	-0.654297
772.0	15.642707	-2.295661	2.063338	0.547243	0.170774	0.094808	-0.415283	0.171631	-0.654541
773.0	15.652603	-0.998387	3.614138	0.664718	-0.141242	0.332764	-0.419922	0.169434	-0.656738
774.0	13.935704	-0.579209	4.668896	0.404434	0.061031	0.662157	-0.424072	0.165039	-0.661133
775.0	10.832716	-0.501594	5.63624	0.535815	0.041615	0.807693	-0.422119	0.169434	-0.656738
776.0	8.759552	0.601851	7.434528	0.754081	-0.300264	0.761893	-0.424561	0.176025	-0.66626
777.0	9.289819	1.43664	8.655199	0.423158	-1.109998	0.857793	-0.428711	0.169434	-0.6521
778.0	10.505639	0.497313	5.756203	0.164789	-1.928506	0.978306	-0.442627	0.176025	-0.638428
779.0	10.99015	-0.253552	2.164439	0.530196	-1.923116	0.938677	-0.447266	0.178223	-0.638428
780.0	11.847452	-0.478285	1.71178	0.580739	-1.050997	0.891124	-0.449463	0.176025	-0.631348
781.0	12.712335	-1.210929	2.682431	0.463436	-0.354153	0.904202	-0.451904	0.182617	-0.63623
782.0	12.987595	-1.877063	3.236858	0.603522	-0.164222	0.863051	-0.447266	0.18042	-0.631592
783.0	13.118415	-1.762501	3.261842	0.712081	-0.180122	0.749318	-0.449707	0.182617	-0.631592
784.0	14.038821	-1.342423	3.317587	0.529998	-0.226789	0.585724	-0.449707	0.182617	-0.631592
785.0	14.429217	-1.278889	2.536092	0.24683	-0.085561	0.305489	-0.451904	0.18042	-0.63623
786.0	13.240823	-1.010054	1.463407	0.305002	0.514999	0.026939	-0.449463	0.18042	-0.643311
787.0	11.019071	-0.061233	1.758584	0.514901	1.203221	-0.227106	-0.444824	0.173828	-0.640625
788.0	8.934128	1.119317	3.117027	0.575679	1.479248	-0.375996	-0.435791	0.171631	-0.654541
789.0	7.146009	1.959204	3.76776	0.439961	1.162988	-0.43622	-0.438232	0.176025	-0.661621
790.0	6.157814	2.387927	3.561336	0.28481	0.570521	-0.383654	-0.43335	0.169434	-0.65918
791.0	5.845286	2.445067	2.915486	0.06845	-0.020534	-0.335364	-0.430908	0.167236	-0.661377
792.0	6.295612	2.249373	2.614615	-0.069324	-0.219653	-0.233021	-0.435303	0.162842	-0.661133
793.0	6.85116	1.859943	2.484195	-0.142209	-0.20725	-0.195745	-0.437744	0.165039	-0.663574
794.0	7.00688	1.485954	1.940952	-0.101382	0.018994	-0.179792	-0.435303	0.165039	-0.661133
795.0	6.814903	1.11054	1.655413	-0.104535	0.054232	-0.170024	-0.442383	0.167236	-0.661377
796.0	6.773388	0.632512	1.67267	-0.255335	-0.030844	-0.165335	-0.440186	0.171631	-0.654541
797.0	6.985275	-0.022159	1.98661	-0.336362	-0.091106	-0.140305	-0.446533	0.162842	-0.658691
798.0	7.129818	-0.593719	1.766574	-0.315865	-0.115594	-0.133158	-0.442383	0.169434	-0.658936
799.0	7.30567	-0.778592	1.277546	-0.209884	-0.037217	-0.140764	-0.446777	0.167236	-0.668213
800.0	7.313578	-0.613118	0.818386	-0.080119	0.17223	-0.144665	-0.442383	0.167236	-0.663574
801.0	7.084898	-0.351414	0.847283	-0.020148	0.448739	-0.132952	-0.444336	0.165039	-0.663574
802.0	6.719786	-0.278416	1.115008	-0.011358	0.627804	-0.103369	-0.439941	0.167236	-0.663574
803.0	6.385102	-0.242173	1.286301	-0.003475	0.619574	-0.059776	-0.439941	0.165039	-0.668213
804.0	6.292728	-0.178519	1.401953	-0.010341	0.426369	-0.012548	-0.437744	0.165039	-0.668213
805.0	6.556457	-0.037091	1.457148	-0.079899	0.194437	0.037143	-0.4375	0.162842	-0.67041
806.0	6.960131	-0.004826	1.405751	-0.136021	0.098527	0.092225	-0.43335	0.167236	-0.672852
807.0	7.17894	0.023673	1.116145	-0.114551	0.167215	0.137101	-0.43335	0.171631	-0.670654
808.0	7.346753	0.210966	0.906864	-0.09938	0.287439	0.175602	-0.437744	0.165039	-0.672852
809.0	7.464271	0.438627	0.718663	-0.130868	0.294735	0.213179	-0.435791	0.173828	-0.673096
810.0	7.852872	0.614126	0.716074	-0.225606	0.146928	0.249436	-0.430908	0.167236	-0.67749
811.0	8.668849	0.706229	0.871523	-0.298517	-0.0918	0.287394	-0.436035	0.178223	-0.67334
812.0	10.34304	0.546567	1.287731	-0.467311	-0.381266	0.285948	-0.433838	0.18042	-0.677979
813.0	11.695988	0.162547	1.055026	-0.549734	-0.462628	0.268975	-0.433838	0.182617	-0.668945
814.0	11.548935	-0.342111	0.05856	-0.330915	-0.068803	0.225153	-0.438232	0.18042	-0.664063
815.0	11.061347	-0.407651	0.062549	-0.100989	0.385917	0.162209	-0.438232	0.178223	-0.66626
816.0	10.626873	-0.518196	0.482791	-0.14523	0.491433	0.112589	-0.431641	0.185059	-0.678223
817.0	10.305121	-1.181256	-0.19909	-0.283083	0.227518	0.063496	-0.436035	0.18042	-0.677979
818.0	10.395079	-1.45459	-1.403465	-0.318848	-0.190108	0.011764	-0.432129	0.193848	-0.673828
819.0	10.83406	-0.942419	-2.295242	-0.299069	-0.33218	-0.008291	-0.441162	0.193604	-0.669189
820.0	11.94303	0.480022	-1.485662	-0.292478	-0.16235	-0.053649	-0.440918	0.187012	-0.664307
821.0	14.308313	1.833076	1.479887	-0.536076	-0.036599	-0.11197	-0.445557	0.191406	-0.669189
822.0	16.881082	1.376866	3.928382	-0.834713	-0.360149	-0.138048	-0.447998	0.195801	-0.664551
823.0	18.361479	-0.583465	4.226779	-1.027189	-0.868347	-0.494135	-0.454834	0.197998	-0.657715
824.0	17.440397	-2.431053	4.485253	-0.799148	-0.367132	-1.042671	-0.45459	0.193604	-0.659912
825.0	14.632607	-3.359793	7.576924	-0.210238	0.625562	-1.322619	-0.456543	0.187012	-0.659668
826.0	10.023578	-4.490045	9.515224	-0.046443	0.734638	-1.322408	-0.449463	0.178223	-0.659424
827.0	6.841142	-4.096953	8.40793	0.21318	-0.326878	-1.344727	-0.460693	0.176025	-0.656982
828.0	6.263652	-1.175818	4.899921	0.192763	-1.360214	-1.234428	-0.47168	0.166992	-0.6521
829.0	7.515761	1.495975	2.220976	-0.339532	-1.522516	-0.957793	-0.482666	0.164795	-0.649658
830.0	9.787242	2.593202	1.735083	-1.058394	-1.037463	-0.692173	-0.487305	0.166992	-0.642578
831.0	11.744758	1.943798	1.915488	-1.222189	-0.575943	-0.574517	-0.492188	0.173584	-0.633545
832.0	13.764786	2.012017	1.888432	-0.636524	-0.628748	-0.653554	-0.493896	0.164795	-0.633301
833.0	15.678546	2.379395	2.776907	-0.641388	-0.636971	-0.617725	-0.500977	0.169189	-0.626465
834.0	15.984582	0.207029	2.36968	-1.029326	-0.258096	-0.341686	-0.503174	0.166748	-0.626465
835.0	15.780254	-2.076452	1.918039	-0.742707	-0.073958	-0.120208	-0.507568	0.168945	-0.624268
836.0	14.303699	-1.887721	1.428668	0.000664	0.492822	-0.071371	-0.500977	0.171387	-0.631104
837.0	11.78841	-0.749057	2.064743	0.340682	1.210008	0.087716	-0.498779	0.169189	-0.635742
838.0	9.266038	-1.081151	3.434847	-0.076813	1.292514	0.250045	-0.496582	0.173584	-0.635986
839.0	7.386832	-1.99339	4.239482	-0.287572	0.917169	0.316216	-0.489746	0.173584	-0.640625
840.0	6.469873	-2.418215	4.215596	-0.199996	0.489146	0.279018	-0.480713	0.169189	-0.647461
841.0	6.270595	-2.042969	3.595348	-0.152308	0.177372	0.206422	-0.487793	0.175781	-0.647705
842.0	6.383155	-1.741071	3.021641	-0.263576	0.067043	0.162105	-0.483154	0.175781	-0.647705
843.0	6.70583	-1.85993	2.740494	-0.405098	0.036934	0.129659	-0.485596	0.177979	-0.640869
844.0	6.664403	-1.939003	2.134448	-0.344464	0.010573	0.103079	-0.487793	0.175781	-0.645264
845.0	6.826478	-1.508524	1.736307	-0.174455	-0.057466	0.06375	-0.487793	0.177979	-0.643066
846.0	6.99557	-0.874699	1.562893	-0.121827	-0.133369	0.052662	-0.48999	0.175781	-0.638428
847.0	7.178448	-0.459463	1.40644	-0.137815	-0.107668	0.077205	-0.48999	0.177979	-0.638428
848.0	7.306943	-0.197474	1.482569	-0.153922	-0.033926	0.089105	-0.489746	0.173584	-0.635986
849.0	7.312145	-0.12752	1.370503	-0.116982	0.144999	0.098091	-0.490234	0.180176	-0.647705
850.0	7.259231	0.002557	1.192068	-0.052508	0.225978	0.089256	-0.487793	0.180176	-0.645508
851.0	7.169912	0.163237	0.991308	-0.054833	0.332583	0.059734	-0.487793	0.177979	-0.650146
852.0	6.944339	0.097344	1.010184	-0.08348	0.473435	0.030033	-0.48584	0.18457	-0.647949
853.0	6.767464	-0.048738	1.137546	-0.060729	0.586957	-0.001102	-0.489746	0.173584	-0.649902
854.0	6.59238	-0.158954	1.274437	-0.016871	0.588807	-0.033819	-0.485596	0.180176	-0.656982
855.0	6.60433	-0.28523	1.243482	0.00602	0.488773	-0.05641	-0.47876	0.175781	-0.661621
856.0	6.779347	-0.531153	1.037651	-0.005859	0.360286	-0.064143	-0.485352	0.175781	-0.656982
857.0	6.822318	-0.981102	0.77174	0.015253	0.274855	-0.073636	-0.478516	0.171387	-0.65918
858.0	6.748013	-1.456969	0.518739	0.104082	0.203331	-0.092724	-0.478516	0.173584	-0.663818
859.0	6.538347	-1.861453	0.410821	0.248225	0.104	-0.15135	-0.48291	0.171387	-0.65918
860.0	7.529022	-1.769093	0.96171	0.322025	-0.164088	-0.200519	-0.48291	0.169189	-0.656738
861.0	9.596974	-1.455537	1.477551	0.135212	-0.600415	-0.165183	-0.489502	0.162598	-0.661133
862.0	11.437683	-1.628542	0.713081	-0.133115	-0.787506	-0.08312	-0.487061	0.162598	-0.658691
863.0	12.206324	-1.920856	-0.432071	-0.139241	-0.477148	-0.037157	-0.496094	0.1604	-0.651611
864.0	11.795126	-1.563443	-1.283566	0.198777	0.155529	-0.059556	-0.493652	0.156006	-0.65625
865.0	11.3481	-0.265657	-0.62249	0.479783	0.486707	-0.08883	-0.49585	0.156006	-0.670166
866.0	10.891028	0.881287	-0.221166	0.370389	0.356967	-0.098425	-0.498047	0.151611	-0.667725
867.0	10.557193	1.255663	-0.776443	0.299635	-0.057522	-0.077744	-0.497559	0.138184	-0.664795
868.0	10.483074	0.779507	-1.432317	0.217864	-0.419096	-0.061399	-0.502197	0.144775	-0.6604
869.0	11.322005	-0.523398	-0.954107	-0.102444	-0.402372	-0.002217	-0.506836	0.144775	-0.6604
870.0	12.960936	-1.908138	0.276411	-0.048697	-0.314099	0.076576	-0.506836	0.144775	-0.658203
871.0	15.544337	-2.273906	2.032864	0.353954	-0.569387	0.21281	-0.511475	0.151367	-0.656006
872.0	18.559892	-0.720769	4.18357	0.526261	-1.099023	0.512262	-0.520264	0.142578	-0.65332
873.0	18.537002	1.243658	4.985029	0.483553	-0.733093	0.975999	-0.524658	0.142578	-0.646484
874.0	13.719688	1.583003	4.699832	0.603732	0.512921	1.114289	-0.513428	0.144775	-0.658203
875.0	8.277964	1.692981	5.980268	0.767028	1.120301	0.91546	-0.520508	0.151367	-0.660645
876.0	6.6623	1.639515	8.214876	0.306767	0.271605	0.859074	-0.509277	0.151611	-0.672363
877.0	7.0762	-0.341925	6.268785	-0.207945	-1.50634	0.886855	-0.525146	0.151367	-0.658447
878.0	9.279723	-1.996565	2.827976	-0.142742	-2.545946	0.872543	-0.534424	0.157959	-0.644531
879.0	12.191202	-2.294497	1.40516	0.315222	-2.278307	0.780171	-0.547852	0.160156	-0.628418
880.0	13.942902	-2.408329	1.974069	0.620154	-1.006677	0.783346	-0.550293	0.162354	-0.626221
881.0	14.293221	-2.467922	2.95741	0.84508	0.126574	0.771544	-0.548096	0.164551	-0.628662
882.0	13.67147	-1.753632	3.661988	1.125855	0.406152	0.701983	-0.552246	0.157715	-0.633057
883.0	12.946098	-0.561553	3.781237	1.048671	0.118787	0.597576	-0.547852	0.157959	-0.635254
884.0	13.270742	0.239001	3.505493	0.649514	-0.229097	0.474679	-0.552246	0.15332	-0.630615
885.0	13.597649	0.313834	3.035598	0.301085	-0.224456	0.303466	-0.545654	0.157959	-0.630615
886.0	12.652759	0.074846	2.3368	0.298664	0.270157	0.050797	-0.552246	0.157715	-0.630615
887.0	11.20747	0.727498	2.666179	0.521084	0.81229	-0.143586	-0.547363	0.144775	-0.651123
888.0	9.334391	1.237745	3.000929	0.428815	1.017921	-0.23554	-0.542969	0.146973	-0.644287
889.0	7.987818	1.421064	3.125314	0.354809	0.801857	-0.256154	-0.544922	0.142578	-0.646484
890.0	7.447027	1.621693	3.236185	0.245357	0.437056	-0.246031	-0.542725	0.144775	-0.65332
891.0	7.074877	1.415714	2.780959	0.119793	0.27865	-0.200036	-0.549316	0.137939	-0.653076
892.0	6.800341	1.122663	2.239836	0.181155	0.250988	-0.177263	-0.54248	0.135986	-0.653076
893.0	7.005314	1.269071	2.4572	0.191926	0.186314	-0.176494	-0.542725	0.140381	-0.65332
894.0	7.268272	1.065149	2.352667	0.060607	0.042725	-0.147008	-0.540283	0.138184	-0.657715
895.0	7.443063	0.52635	1.859287	-0.081337	-0.104772	-0.122461	-0.546875	0.131348	-0.652832
896.0	7.569695	-0.041639	1.542766	-0.094903	-0.124046	-0.115213	-0.546875	0.131348	-0.652832
897.0	7.695965	-0.312638	1.43486	-0.047626	-0.031155	-0.117251	-0.55127	0.131348	-0.657471
898.0	7.429125	-0.523378	1.163923	0.046691	0.225554	-0.096817	-0.546631	0.12915	-0.657471
899.0	6.939359	-0.522016	0.965136	0.112621	0.443841	-0.072587	-0.544678	0.133545	-0.653076
900.0	6.534459	-0.493285	1.006813	0.135525	0.5337	-0.061215	-0.54248	0.133789	-0.659912
901.0	6.322625	-0.260972	1.107817	0.183188	0.537167	-0.060948	-0.544434	0.129395	-0.666748
902.0	6.264152	0.001306	1.306553	0.198882	0.485646	-0.026475	-0.542236	0.129395	-0.673828
903.0	6.416737	0.093699	1.371758	0.13332	0.396206	0.013616	-0.537598	0.125	-0.668945
904.0	6.671194	0.121545	1.328841	0.122082	0.282382	0.062497	-0.539795	0.127197	-0.668945
905.0	6.85188	0.181738	1.244762	0.142815	0.243102	0.104774	-0.537598	0.129395	-0.671387
906.0	6.937149	0.369702	1.097553	0.164001	0.275643	0.139426	-0.537598	0.127197	-0.678223
907.0	6.816816	0.601353	1.059234	0.152814	0.336449	0.165033	-0.537354	0.122803	-0.68042
908.0	6.643984	0.757823	0.980139	0.131736	0.391718	0.184373	-0.532959	0.125	-0.682861
909.0	6.541039	0.877764	0.766161	0.087947	0.347271	0.207822	-0.537598	0.129395	-0.683105
910.0	6.734971	0.968674	0.586766	-0.014285	0.16168	0.243244	-0.535645	0.131592	-0.678467
911.0	7.482465	0.924902	0.416344	-0.127942	-0.123496	0.30589	-0.540039	0.129395	-0.683105
912.0	9.372361	0.441407	0.780333	-0.337141	-0.529197	0.340811	-0.537842	0.131592	-0.680908
913.0	11.286782	0.100158	0.729295	-0.427754	-0.869329	0.302952	-0.553711	0.135742	-0.669434
914.0	12.318487	-0.233345	0.244827	-0.269375	-0.613139	0.288605	-0.55127	0.133545	-0.666992
915.0	12.110233	-0.469521	-0.292371	-0.023166	-0.027656	0.243708	-0.549072	0.133789	-0.673828
916.0	11.395875	-0.582054	-0.179492	0.041385	0.404343	0.190301	-0.549316	0.140381	-0.674072
917.0	10.774444	-0.833057	-0.017023	-0.034052	0.368768	0.121816	-0.549316	0.138184	-0.674072
918.0	10.713975	-1.022304	-0.332231	-0.157309	0.03013	0.038967	-0.549316	0.138184	-0.676514
919.0	10.955333	-0.868935	-1.231494	-0.187214	-0.305569	-0.027024	-0.549316	0.135986	-0.67627
920.0	11.571564	0.041349	-1.806418	-0.064888	-0.363048	-0.071818	-0.560547	0.137939	-0.666992
921.0	13.192063	1.660217	-0.4542	-0.108818	-0.258689	-0.161838	-0.55835	0.137939	-0.67627
922.0	15.357954	2.091466	1.576865	-0.511181	-0.247093	-0.121579	-0.556152	0.142334	-0.665039
923.0	16.837001	0.297919	2.239701	-0.977051	-0.512932	-0.239178	-0.565186	0.137939	-0.664795
924.0	17.103351	-2.210376	2.123895	-1.003878	-0.538542	-0.61994	-0.561035	0.146729	-0.665039
925.0	16.143893	-2.671812	3.953317	-0.236198	0.355734	-1.029877	-0.564697	0.12915	-0.664551
926.0	13.675158	-2.12321	7.602132	0.194266	0.987631	-1.182289	-0.5625	0.126953	-0.664307
927.0	9.766532	-2.833552	8.405231	0.015543	0.760871	-1.135186	-0.555664	0.126953	-0.676025
928.0	6.88571	-2.995016	7.272003	0.106168	-0.237823	-1.171339	-0.55957	0.115967	-0.670898
929.0	6.441475	-1.19936	4.851774	0.030309	-1.237929	-1.15737	-0.570801	0.111572	-0.656738
930.0	7.118922	1.064074	2.692079	-0.245552	-1.354595	-0.969851	-0.577637	0.111572	-0.6521
931.0	8.976755	2.352005	2.502002	-0.769789	-0.950821	-0.766423	-0.581787	0.106934	-0.649658
932.0	10.773919	2.248689	2.638577	-1.163879	-0.660673	-0.625657	-0.584229	0.109131	-0.642822
933.0	12.276577	2.000576	2.099985	-0.860914	-0.663661	-0.646233	-0.599854	0.106934	-0.633301
934.0	14.000898	2.213	2.402952	-0.690797	-0.666335	-0.600237	-0.597656	0.109131	-0.628906
935.0	14.443145	0.582869	2.385139	-0.990472	-0.380845	-0.406689	-0.593018	0.106934	-0.628662
936.0	14.715208	-1.812811	2.466141	-0.834788	-0.284941	-0.215276	-0.595947	0.120117	-0.624512
937.0	14.608088	-2.290579	2.385844	-0.252072	-0.073085	-0.146394	-0.604736	0.11792	-0.626953
938.0	12.901613	-1.457734	1.987952	0.232686	0.582644	-0.016154	-0.593506	0.115723	-0.631348
939.0	10.730273	-1.285215	2.432273	0.026926	0.866887	0.127138	-0.59375	0.122314	-0.634033
940.0	8.859738	-2.032905	3.181673	-0.104749	0.810774	0.20666	-0.59375	0.124512	-0.647949
941.0	8.074999	-2.27396	4.017962	-0.035619	0.493789	0.211758	-0.589355	0.124512	-0.645752
942.0	7.645744	-2.175676	3.779157	-0.029873	0.295575	0.186626	-0.586914	0.120117	-0.643311
943.0	7.270061	-2.199257	3.041334	-0.089344	0.237884	0.150427	-0.580322	0.126953	-0.641113
944.0	7.07107	-2.278117	2.596953	-0.114069	0.180756	0.089761	-0.584961	0.12915	-0.650391
945.0	7.46381	-2.044624	2.673648	-0.0947	0.030298	0.034055	-0.582764	0.131348	-0.648193
946.0	8.116619	-1.66076	2.449965	-0.117211	-0.256856	0.044867	-0.589355	0.126709	-0.648193
947.0	8.302373	-1.329504	1.485105	-0.105492	-0.340344	0.071252	-0.584961	0.126709	-0.641113
948.0	8.349282	-0.976736	0.861659	0.013251	-0.180636	0.084594	-0.587402	0.131348	-0.641357
949.0	8.401773	-0.401533	1.021752	0.132168	0.109307	0.090319	-0.589355	0.126709	-0.638916
950.0	8.163919	0.018498	1.363508	0.183425	0.380759	0.116765	-0.585205	0.133545	-0.645996
951.0	7.737243	0.021947	1.326397	0.150984	0.398197	0.138729	-0.587158	0.126953	-0.650391
952.0	7.344699	-0.139414	1.107412	0.120602	0.383328	0.131664	-0.585205	0.131348	-0.645996
953.0	7.16715	-0.278903	1.106303	0.125525	0.433773	0.107883	-0.580566	0.133545	-0.657715
954.0	6.829803	-0.309385	1.304556	0.181815	0.544069	0.083934	-0.583008	0.135742	-0.653076
955.0	6.496322	-0.197653	1.32786	0.258932	0.641648	0.07026	-0.57373	0.12915	-0.659912
956.0	6.237694	-0.092616	1.153588	0.279345	0.630987	0.072524	-0.566895	0.12915	-0.664551
957.0	6.098068	-0.137763	1.032578	0.240242	0.507315	0.081155	-0.571289	0.126953	-0.664307
958.0	6.038618	-0.484509	0.85179	0.18704	0.34394	0.068103	-0.566895	0.12915	-0.669189
959.0	5.930384	-0.898251	0.777732	0.179768	0.222703	0.034525	-0.566895	0.126953	-0.668945
960.0	5.988015	-1.187499	0.790061	0.226077	0.069037	-0.008973	-0.5625	0.12915	-0.671387
961.0	6.101489	-1.396328	0.416751	0.274751	-0.115362	-0.049402	-0.573486	0.122559	-0.668945
962.0	6.411554	-1.599981	0.08225	0.318289	-0.25702	-0.120635	-0.56665	0.120361	-0.666504
963.0	7.965538	-1.361297	0.434718	0.367693	-0.444267	-0.202063	-0.573486	0.120361	-0.668701
964.0	10.145315	-0.83362	0.772903	0.301676	-0.653674	-0.240354	-0.575439	0.118164	-0.656982
965.0	12.470101	-0.656766	0.583421	0.138426	-0.719452	-0.196564	-0.580078	0.115967	-0.652344
966.0	13.124179	-0.839764	-0.326376	0.066959	-0.416813	-0.154675	-0.579834	0.111328	-0.6521
967.0	12.324749	-0.845252	-1.133792	0.331182	0.302692	-0.2041	-0.579834	0.11377	-0.663818
968.0	11.139372	0.031682	-0.606087	0.627484	0.758497	-0.268483	-0.57959	0.107178	-0.666016
969.0	10.697727	1.294023	-0.01571	0.664895	0.568027	-0.286072	-0.579346	0.100342	-0.667969
970.0	10.810867	2.094038	-0.349448	0.545274	-0.0783	-0.204804	-0.579346	0.098145	-0.665527
971.0	10.754559	1.467261	-1.541809	0.246736	-0.394521	-0.097007	-0.58374	0.095947	-0.660889
972.0	10.855841	-0.221412	-2.605063	0.090213	-0.282336	-0.04949	-0.58374	0.100342	-0.661133
973.0	11.780765	-2.071758	-1.684209	0.014806	-0.114036	0.024166	-0.581543	0.100342	-0.665771
974.0	13.952513	-2.989876	0.451371	0.237805	-0.145608	0.035485	-0.585938	0.098145	-0.651611
975.0	17.139917	-2.325481	2.612877	0.632782	-0.678421	0.188011	-0.588135	0.095947	-0.660889
976.0	19.021729	-0.004387	4.208577	0.664005	-0.840228	0.572533	-0.590576	0.098145	-0.646973
977.0	17.019201	1.235951	4.881371	0.487767	0.200952	0.937999	-0.586182	0.100342	-0.656494
978.0	11.887377	1.649976	5.148886	0.922778	0.922219	0.949388	-0.581787	0.102539	-0.661133
979.0	7.609191	2.494776	6.86971	0.975872	0.733282	0.757971	-0.588623	0.104736	-0.665771
980.0	6.638748	1.915807	7.744871	0.139196	-0.444248	0.842634	-0.584229	0.111328	-0.65918
981.0	7.560811	-0.596361	4.74672	-0.388739	-1.99307	0.889827	-0.593506	0.11792	-0.638428
982.0	9.546945	-1.92084	1.652175	-0.036076	-2.55041	0.832654	-0.614014	0.124512	-0.622559
983.0	11.763398	-1.894381	0.815414	0.45308	-1.744387	0.711594	-0.616455	0.128906	-0.620361
984.0	12.80713	-1.967782	1.755356	0.718594	-0.423874	0.736676	-0.618652	0.128906	-0.613281
985.0	12.769679	-2.199683	2.685592	0.844907	0.345502	0.763977	-0.614258	0.128906	-0.620361
986.0	12.068724	-1.763823	3.02099	1.063979	0.381147	0.700683	-0.614258	0.128906	-0.625
987.0	11.839352	-0.670568	3.312604	0.997145	0.101508	0.611342	-0.609619	0.124512	-0.629395
988.0	12.833225	-0.130347	3.453983	0.533718	-0.289728	0.495941	-0.607666	0.131104	-0.629639
989.0	13.67493	-0.565451	2.703363	0.115444	-0.42936	0.304782	-0.614258	0.131104	-0.618164
990.0	12.63811	-0.853144	1.174466	0.314858	0.147191	0.098286	-0.614258	0.131104	-0.622803
991.0	10.921118	0.253541	1.503815	0.650946	0.822293	-0.111698	-0.607422	0.128906	-0.629639
992.0	9.288576	1.381032	2.802493	0.520142	1.064864	-0.201607	-0.602783	0.124512	-0.636475
993.0	7.718267	1.555414	3.010589	0.304137	0.919589	-0.212914	-0.600342	0.120117	-0.640869
994.0	6.86027	1.512502	2.82951	0.219905	0.497768	-0.217658	-0.595703	0.115723	-0.643066
995.0	6.940952	1.607191	2.626085	0.103864	0.09688	-0.219522	-0.598145	0.120117	-0.647949
996.0	7.081107	1.376247	2.207533	0.013771	-0.039455	-0.209014	-0.595947	0.122314	-0.643311
997.0	7.396375	1.045193	2.22934	0.015839	-0.043472	-0.209922	-0.595703	0.11792	-0.63623
998.0	7.655145	0.922105	2.235179	0.031728	-0.100641	-0.229479	-0.593262	0.113525	-0.640625
999.0	8.017894	0.753219	1.94183	-0.035669	-0.226163	-0.243758	-0.607178	0.122314	-0.634033
1000.0	7.948162	0.465605	1.365921	-0.113556	-0.209185	-0.248091	-0.602539	0.120117	-0.633789
1001.0	7.720195	0.012509	0.9116	-0.082625	-0.067033	-0.262316	-0.600098	0.113525	-0.640625
1002.0	7.512721	-0.084742	0.883564	0.029589	0.073614	-0.290764	-0.606934	0.111328	-0.635986
1003.0	7.3949	-0.01456	1.204805	0.059988	0.201168	-0.274452	-0.606934	0.115723	-0.638428
1004.0	7.440359	-0.127097	1.214362	-0.004159	0.255492	-0.229238	-0.606934	0.113525	-0.633545
1005.0	7.375323	-0.093416	0.989636	0.023203	0.300386	-0.195213	-0.604492	0.106934	-0.635742
1006.0	7.390413	0.23334	0.9617	0.070982	0.431975	-0.139718	-0.600098	0.113525	-0.645264
1007.0	7.229014	0.52627	1.215345	0.017312	0.531647	-0.068233	-0.593262	0.109131	-0.64502
1008.0	7.064169	0.60046	1.527938	-0.068081	0.499817	0.019125	-0.593262	0.109131	-0.647461
1009.0	6.782254	0.474672	1.368415	-0.09249	0.379948	0.087935	-0.591309	0.11792	-0.652344
1010.0	6.732294	0.356513	1.232392	-0.109876	0.219704	0.124686	-0.584473	0.113525	-0.654541
1011.0	6.821964	0.215079	0.980403	-0.171542	0.076664	0.151097	-0.591309	0.120117	-0.654785
1012.0	7.078901	-0.007669	0.647728	-0.207305	-0.000347	0.160897	-0.587158	0.124756	-0.650391
1013.0	7.500413	-0.120341	0.310265	-0.205715	-0.040253	0.168934	-0.589355	0.124756	-0.655029
1014.0	8.079373	-0.184138	0.197957	-0.183428	-0.083445	0.179554	-0.591797	0.128906	-0.645752
1015.0	9.162575	-0.218157	0.415648	-0.228265	-0.171315	0.193309	-0.593994	0.128906	-0.643555
1016.0	10.491432	-0.443044	0.55933	-0.258933	-0.331466	0.204867	-0.594238	0.135498	-0.643799
1017.0	11.993706	-0.355975	0.731667	-0.198379	-0.333751	0.174184	-0.594482	0.137939	-0.643799
1018.0	12.755499	-0.117588	0.678768	-0.052853	-0.101784	0.156453	-0.592041	0.135742	-0.648438
1019.0	12.513374	0.023127	0.530457	0.013327	0.298454	0.143752	-0.594238	0.135742	-0.648438
1020.0	11.5336	-0.176554	0.316685	-0.005156	0.596484	0.115749	-0.587646	0.140137	-0.639404
1021.0	10.51584	-0.686234	-0.112488	-0.064714	0.620467	0.076828	-0.589844	0.140137	-0.650879
1022.0	10.072958	-0.887811	-0.722436	-0.081816	0.340976	0.014979	-0.585449	0.142334	-0.64624
1023.0	10.210675	-0.542322	-1.409449	-0.092898	0.073874	-0.025068	-0.585449	0.142334	-0.650879
1024.0	10.6217	0.082804	-2.003754	-0.143324	-0.04033	-0.038128	-0.592285	0.140137	-0.64624
1025.0	11.220267	1.124581	-1.767369	-0.160369	-0.106237	-0.088043	-0.588135	0.148926	-0.644287
1026.0	13.051032	2.380678	0.208687	-0.372935	-0.275996	-0.133008	-0.594482	0.142334	-0.64624
1027.0	15.100552	1.825301	2.109651	-0.860532	-0.635047	-0.111327	-0.590576	0.15332	-0.635254
1028.0	16.317183	-0.343788	2.39121	-1.156987	-0.775111	-0.288692	-0.593018	0.157715	-0.635254
1029.0	15.812391	-1.815492	2.832756	-0.717899	-0.128788	-0.687688	-0.601807	0.155518	-0.628174
1030.0	14.373252	-1.130382	5.973343	0.040884	0.72153	-0.949209	-0.592529	0.148926	-0.632568
1031.0	11.676218	-1.426562	7.990212	-0.178089	0.644677	-1.027421	-0.601318	0.144287	-0.634766
1032.0	8.579105	-3.136849	6.955071	-0.480104	-0.237839	-1.065816	-0.596924	0.146484	-0.632568
1033.0	7.306376	-2.964796	5.399452	-0.344814	-1.008185	-1.136216	-0.610107	0.137695	-0.629883
1034.0	7.655345	-0.99195	3.544101	-0.352518	-1.033156	-0.989841	-0.605469	0.135498	-0.622803
1035.0	8.304825	0.576498	1.806745	-0.572924	-0.704763	-0.801747	-0.612305	0.135498	-0.611328
1036.0	9.34421	1.204077	1.891266	-0.850974	-0.353463	-0.692842	-0.619141	0.139893	-0.618408
1037.0	10.941241	1.359316	2.228799	-0.813571	-0.337227	-0.651507	-0.623535	0.133301	-0.599609
1038.0	12.52381	1.817524	2.19133	-0.538112	-0.548905	-0.618301	-0.625732	0.130859	-0.604004
1039.0	14.111419	1.66147	2.349436	-0.61262	-0.675367	-0.455657	-0.630371	0.137451	-0.594971
1040.0	15.11873	0.029887	2.29062	-0.853526	-0.628195	-0.213314	-0.632568	0.135254	-0.590332
1041.0	15.137366	-1.564628	1.98406	-0.629124	-0.272961	-0.038709	-0.63501	0.141846	-0.597656
1042.0	13.745625	-1.643501	1.772758	-0.05878	0.485987	0.0253	-0.628418	0.14209	-0.593018
1043.0	11.246889	-1.039689	2.408384	0.106169	1.042406	0.151307	-0.623779	0.144287	-0.597656
1044.0	8.622258	-1.487347	3.193622	-0.142789	1.029857	0.228775	-0.619629	0.153076	-0.602539
1045.0	7.561736	-1.97435	4.154602	-0.26521	0.554231	0.215002	-0.621826	0.148682	-0.616455
1046.0	7.378709	-2.22738	3.925839	-0.27695	0.070082	0.177257	-0.619629	0.150879	-0.602539
1047.0	7.526989	-2.25274	2.900718	-0.274251	-0.088513	0.121883	-0.617676	0.155273	-0.60498
1048.0	7.652783	-2.201454	2.144992	-0.231775	0.035159	0.062476	-0.615479	0.159668	-0.605225
1049.0	7.477974	-2.088513	1.949099	-0.130011	0.146964	0.008211	-0.622314	0.161865	-0.607666
1050.0	7.745951	-1.487072	1.962719	-0.057037	0.008539	-0.038589	-0.617676	0.155273	-0.60498
1051.0	8.163089	-0.779179	1.872697	-0.045787	-0.145723	-0.019999	-0.622559	0.164063	-0.609863
1052.0	8.144247	-0.547897	1.286833	-0.090393	-0.1382	0.026846	-0.62207	0.157471	-0.600342
1053.0	8.052228	-0.475765	0.861613	0.006297	0.033006	0.056946	-0.624756	0.164063	-0.605225
1054.0	7.875501	-0.175928	1.063598	0.090702	0.196446	0.085065	-0.624512	0.159668	-0.605225
1055.0	7.666005	0.095798	1.473363	0.033648	0.368455	0.094645	-0.624512	0.161865	-0.603027
1056.0	7.126147	0.1465	1.505603	0.000537	0.435836	0.103184	-0.615723	0.164063	-0.607666
1057.0	6.89277	0.188848	1.603596	-0.014737	0.434714	0.092913	-0.61792	0.161865	-0.614502
1058.0	6.841909	0.212503	1.694861	-0.048603	0.445235	0.086312	-0.608887	0.164063	-0.605225
1059.0	6.793456	0.076812	1.682917	-0.054922	0.476522	0.075936	-0.613281	0.161865	-0.614502
1060.0	6.854515	-0.095322	1.506414	0.000702	0.505424	0.048489	-0.606934	0.168457	-0.612549
1061.0	7.03194	-0.251746	1.495951	0.019376	0.430954	0.026327	-0.609131	0.168457	-0.617188
1062.0	7.177286	-0.649411	1.370089	-0.004708	0.330351	0.013661	-0.606934	0.168701	-0.617188
1063.0	7.299077	-1.09852	1.146496	0.028379	0.242331	-0.0093	-0.604492	0.166504	-0.616943
1064.0	7.398218	-1.357934	0.972751	0.104507	0.147038	-0.038954	-0.604492	0.168701	-0.617188
1065.0	7.275864	-1.473989	0.503525	0.191454	0.067011	-0.072825	-0.606689	0.161865	-0.621582
1066.0	7.491006	-1.342024	0.247495	0.276708	-0.04246	-0.125412	-0.609131	0.16626	-0.619385
1067.0	8.953962	-0.78195	0.693378	0.238656	-0.322331	-0.144241	-0.608887	0.161865	-0.619141
1068.0	10.692039	-0.535793	0.71058	0.064682	-0.471628	-0.126533	-0.611084	0.164063	-0.614746
1069.0	12.002935	-0.558761	0.213618	-0.074609	-0.471461	-0.061493	-0.61792	0.16626	-0.616943
1070.0	12.124815	-0.763683	-0.465647	-0.108094	0.064933	-0.049632	-0.613281	0.159668	-0.614502
1071.0	11.295143	-0.445886	-0.289981	0.11258	0.647731	-0.066802	-0.611084	0.161865	-0.616943
1072.0	10.555901	0.390461	0.717415	0.162886	0.727026	-0.077584	-0.606689	0.164063	-0.621582
1073.0	10.222417	0.978023	0.871455	-0.019421	0.295267	-0.07787	-0.611328	0.16626	-0.621582
1074.0	10.542053	1.136048	-0.21493	-0.138138	-0.339655	-0.068481	-0.611084	0.161865	-0.619141
1075.0	11.044328	0.78172	-1.540333	-0.151432	-0.583019	-0.080202	-0.613281	0.161865	-0.609863
1076.0	11.317291	-0.212611	-2.423403	-0.121566	-0.381135	-0.076956	-0.613281	0.161865	-0.612305
1077.0	11.936782	-1.587757	-1.829492	-0.167793	-0.067443	-0.056467	-0.615723	0.164063	-0.624023
1078.0	13.282781	-2.33889	-0.402622	0.101427	0.040502	-0.04092	-0.617676	0.159668	-0.609863
1079.0	15.349308	-1.872818	1.181074	0.460643	-0.257984	0.041848	-0.617676	0.155273	-0.614258
1080.0	16.864232	-0.115135	2.667374	0.463422	-0.419359	0.31374	-0.61792	0.164063	-0.605225
1081.0	15.686851	0.451762	3.580145	0.184775	0.340636	0.648545	-0.615723	0.16626	-0.612305
1082.0	12.295766	0.215073	3.818862	0.429033	0.923402	0.764082	-0.615967	0.172852	-0.619629
1083.0	8.861899	1.413395	5.195546	0.887541	0.677922	0.619478	-0.613525	0.168457	-0.624023
1084.0	7.630459	2.03735	7.010235	0.216444	-0.177841	0.643206	-0.607178	0.175293	-0.612793
1085.0	8.091907	0.145363	6.398867	-0.622525	-1.294055	0.823732	-0.616211	0.179443	-0.605957
1086.0	9.596719	-1.566846	3.586116	-0.293746	-1.955064	0.878135	-0.623047	0.179443	-0.592041
1087.0	10.488393	-0.953583	1.740225	0.432431	-1.571588	0.78684	-0.630615	0.197021	-0.587891
1088.0	10.542194	-0.437817	2.082927	0.557904	-0.417901	0.771298	-0.628418	0.199219	-0.588135
1089.0	10.476299	-1.436147	3.269098	0.412081	0.249234	0.781089	-0.628174	0.194824	-0.585693
1090.0	11.162043	-2.052786	4.249964	0.593955	-0.089239	0.736049	-0.628174	0.197021	-0.583252
1091.0	12.202011	-1.57926	4.135797	0.699535	-0.577105	0.651789	-0.628418	0.199219	-0.583496
1092.0	12.69367	-1.204424	3.186213	0.558719	-0.544381	0.554326	-0.633057	0.205811	-0.588379
1093.0	13.259206	-1.072195	2.533238	0.445899	-0.404077	0.404366	-0.637451	0.199219	-0.583496
1094.0	13.225682	-0.542299	2.086066	0.423524	-0.226059	0.175684	-0.633057	0.201416	-0.585693
1095.0	12.286584	-0.137045	1.790831	0.432716	0.296741	0.02104	-0.625977	0.197021	-0.583252
1096.0	10.67321	0.184568	2.023888	0.45367	0.762053	-0.121492	-0.630615	0.197021	-0.590332
1097.0	9.189413	0.746252	2.607159	0.52645	0.831732	-0.229903	-0.628174	0.192627	-0.597168
1098.0	8.226018	1.550685	2.873527	0.505585	0.597099	-0.279535	-0.621094	0.186035	-0.606201
1099.0	7.664244	1.905624	2.580652	0.333379	0.275223	-0.23957	-0.625732	0.19043	-0.601563
1100.0	7.585968	1.850549	2.377576	0.167773	0.056401	-0.180443	-0.621094	0.186035	-0.608398
1101.0	7.675459	1.526569	2.197834	0.111628	0.000493	-0.144036	-0.621094	0.186035	-0.60376
1102.0	7.751869	1.374353	2.083694	0.163655	-0.01781	-0.121683	-0.625488	0.181641	-0.601318
1103.0	8.09211	1.28731	2.083622	0.111559	-0.09486	-0.101469	-0.627686	0.183838	-0.605957
1104.0	8.313167	0.973335	1.80637	-0.009959	-0.156886	-0.072795	-0.627686	0.179443	-0.601318
1105.0	8.4254	0.489885	1.419666	-0.0728	-0.138479	-0.059891	-0.627686	0.179443	-0.601318
1106.0	8.25719	0.07207	1.087249	-0.023197	-0.013863	-0.06837	-0.629883	0.181641	-0.601318
1107.0	8.184987	-0.052682	1.140445	0.043541	0.156059	-0.074928	-0.629883	0.179443	-0.601318
1108.0	7.793131	-0.174134	1.229792	0.067789	0.34858	-0.054726	-0.629639	0.175049	-0.605713
1109.0	7.425223	-0.255953	1.444541	0.132287	0.490839	-0.047425	-0.622803	0.175049	-0.612793
1110.0	6.952522	-0.114727	1.49369	0.188766	0.557763	-0.040258	-0.623047	0.177246	-0.617432
1111.0	6.745549	0.09712	1.600183	0.179113	0.529574	-0.021508	-0.622803	0.172852	-0.619629
1112.0	6.568537	0.184343	1.607936	0.116374	0.449015	0.0109	-0.616211	0.175293	-0.626709
1113.0	6.63035	0.107438	1.537791	0.069304	0.338886	0.049541	-0.618408	0.175049	-0.626709
1114.0	6.80124	0.148018	1.479045	0.057208	0.244029	0.076774	-0.611816	0.179688	-0.626709
1115.0	6.846076	0.263671	1.394956	0.062186	0.220458	0.094775	-0.616455	0.181885	-0.62915
1116.0	6.92005	0.444026	1.296949	0.063959	0.243437	0.111204	-0.616211	0.17749	-0.626709
1117.0	6.973185	0.575117	1.184618	0.041308	0.224832	0.122854	-0.611816	0.17749	-0.62915
1118.0	7.345519	0.573809	1.104148	-0.043384	0.137292	0.137474	-0.612061	0.184082	-0.629395
1119.0	7.863087	0.615226	0.97797	-0.048217	0.03873	0.179973	-0.616211	0.179688	-0.633789
1120.0	8.687777	0.445272	0.976029	-0.125169	-0.059522	0.215625	-0.609619	0.181885	-0.633789
1121.0	9.788422	0.341658	1.201614	-0.175581	-0.19574	0.241557	-0.614258	0.186279	-0.634033
1122.0	10.783157	0.063286	1.306303	-0.264414	-0.187377	0.257357	-0.614746	0.197266	-0.634521
1123.0	10.649968	-0.364131	0.762899	-0.168122	0.070124	0.292723	-0.614502	0.192871	-0.638916
1124.0	10.294559	-0.508526	0.87686	-0.034251	0.368519	0.279046	-0.614746	0.195068	-0.638916
1125.0	10.025226	-0.608051	1.180584	-0.017408	0.405515	0.251696	-0.610107	0.195068	-0.643555
1126.0	9.765456	-0.810076	0.737981	0.00804	0.24353	0.209215	-0.605957	0.20166	-0.643799
1127.0	9.984868	-0.672035	-0.062422	0.044631	-0.076092	0.139446	-0.612793	0.20166	-0.636963
1128.0	10.655593	-0.398402	-0.795452	-0.045682	-0.321833	0.081553	-0.608154	0.20166	-0.636963
1129.0	11.405963	-0.151933	-1.335797	-0.141329	-0.343461	0.043104	-0.616943	0.197266	-0.636719
1130.0	12.442006	0.514286	-0.840122	-0.094765	-0.173484	-0.02082	-0.612793	0.206055	-0.636963
1131.0	13.669758	0.866994	0.334766	-0.120865	-0.033465	-0.041367	-0.617188	0.199463	-0.636719
1132.0	15.042663	0.519266	1.089654	-0.243045	-0.167682	-0.116907	-0.614746	0.197266	-0.63916
1133.0	16.343045	-0.31962	1.278881	-0.355894	-0.309327	-0.275338	-0.619629	0.208252	-0.634766
1134.0	16.106456	-1.721668	0.650862	-0.427649	-0.075546	-0.464688	-0.619141	0.195068	-0.636719
1135.0	15.234779	-1.635997	2.099803	-0.106924	0.600577	-0.642386	-0.616943	0.195068	-0.643555
1136.0	14.019157	-0.401026	5.393043	0.20797	1.080345	-0.653915	-0.616943	0.192871	-0.650635
1137.0	11.915386	-0.215125	6.348447	0.171534	0.742681	-0.611425	-0.62085	0.181885	-0.654785
1138.0	10.133377	-0.630746	5.049456	-0.01178	-0.234888	-0.659156	-0.616455	0.184082	-0.659424
1139.0	9.406818	-0.73152	3.214716	-0.335099	-0.903716	-0.697614	-0.623047	0.17749	-0.647705
1140.0	8.865907	-0.148308	2.134083	-0.417804	-0.680157	-0.67406	-0.627686	0.179688	-0.643066
1141.0	8.613269	0.612849	2.786691	-0.453625	-0.024411	-0.598903	-0.629395	0.170654	-0.64502
1142.0	8.457967	0.812466	3.476597	-0.651566	0.180554	-0.532403	-0.63208	0.177246	-0.647705
1143.0	8.527643	0.551922	3.063936	-0.754881	-0.177845	-0.564877	-0.631836	0.170654	-0.64502
1144.0	9.379647	0.592568	2.380009	-0.698496	-0.597621	-0.671941	-0.636475	0.175049	-0.635986
1145.0	10.83922	0.335919	2.717493	-0.718663	-0.671024	-0.716325	-0.645264	0.170654	-0.635742
1146.0	12.290459	-0.643191	3.06673	-0.690443	-0.651659	-0.685318	-0.649658	0.170654	-0.631104
1147.0	13.305845	-1.487194	3.54763	-0.410322	-0.65801	-0.63161	-0.651855	0.16626	-0.626221
1148.0	14.062186	-1.677817	3.592797	-0.125512	-0.495304	-0.500846	-0.65625	0.16626	-0.628662
1149.0	13.313479	-1.775163	2.678596	0.020371	-0.103866	-0.311266	-0.656006	0.157227	-0.623535
1150.0	11.654259	-1.723024	1.883772	0.101652	0.459453	-0.119546	-0.654053	0.161865	-0.637695
1151.0	9.808476	-1.43189	2.501849	0.240624	0.936093	0.035822	-0.651611	0.157471	-0.646973
1152.0	8.130092	-1.137997	3.574893	0.273158	1.109377	0.134847	-0.640137	0.155273	-0.646729
1153.0	7.30037	-1.005	4.324546	0.161015	0.761904	0.218327	-0.644775	0.155273	-0.64917
1154.0	7.051329	-1.120312	3.957112	-0.057355	0.180116	0.268367	-0.640381	0.159668	-0.653809
1155.0	7.493514	-1.491424	2.998423	-0.156636	-0.225913	0.275559	-0.640625	0.164063	-0.649414
1156.0	7.902263	-1.640164	2.090115	-0.083477	-0.328101	0.258981	-0.642822	0.164063	-0.654053
1157.0	8.301101	-1.430746	1.967241	-0.00557	-0.246645	0.220963	-0.647217	0.159668	-0.64917
1158.0	8.306545	-1.155604	1.99912	0.115742	-0.064269	0.202639	-0.647217	0.164063	-0.644775
1159.0	8.198993	-0.832323	2.075837	0.186238	0.03569	0.179436	-0.647217	0.161865	-0.651611
1160.0	8.090356	-0.521733	1.86188	0.224175	0.049174	0.169306	-0.643066	0.168457	-0.651855
1161.0	8.087641	-0.413793	1.471963	0.218414	-0.048536	0.181422	-0.649414	0.161865	-0.65625
1162.0	8.011612	-0.362234	1.172835	0.180324	-0.08193	0.160608	-0.649658	0.168457	-0.654297
1163.0	8.031331	-0.397512	1.221687	0.161731	0.036979	0.121519	-0.651611	0.161865	-0.654053
1164.0	7.985425	-0.354484	1.452979	0.18276	0.181548	0.102329	-0.642578	0.161865	-0.658691
1165.0	7.654101	-0.216105	1.51131	0.21549	0.360091	0.091787	-0.647217	0.159668	-0.658447
1166.0	7.129773	-0.063034	1.374095	0.236634	0.47022	0.083139	-0.64502	0.161865	-0.660889
1167.0	6.766825	0.04732	1.281599	0.221189	0.454903	0.074883	-0.646973	0.157471	-0.667725
1168.0	6.731726	0.101482	1.146401	0.167475	0.28858	0.07124	-0.640381	0.157471	-0.672363
1169.0	7.075092	0.013312	1.046141	0.093343	0.098353	0.05845	-0.642822	0.161865	-0.672607
1170.0	7.507655	-0.276896	0.920891	0.062441	0.023623	0.031691	-0.635742	0.155273	-0.669922
1171.0	7.740981	-0.68074	0.647222	0.085495	0.070742	-0.004773	-0.644531	0.153076	-0.672363
1172.0	7.784378	-0.988848	0.402191	0.146896	0.138451	-0.058624	-0.644531	0.153076	-0.674561
1173.0	7.451122	-1.368844	0.345821	0.172827	0.154921	-0.106353	-0.640137	0.153076	-0.674561
1174.0	7.368351	-1.627984	0.383435	0.282084	0.079994	-0.210696	-0.64209	0.146484	-0.681396
1175.0	8.1657	-1.210879	1.011926	0.362997	-0.15982	-0.279718	-0.648682	0.14209	-0.674072
1176.0	9.77343	-0.733799	1.162194	0.313602	-0.420068	-0.271854	-0.64624	0.137695	-0.678711
1177.0	10.945007	-0.57787	0.860245	0.171706	-0.424088	-0.233928	-0.650635	0.135498	-0.680908
1178.0	11.593414	-0.608812	0.393143	0.225939	-0.158491	-0.167436	-0.655273	0.137695	-0.669434
1179.0	11.402983	-0.298559	0.51428	0.308199	0.187098	-0.142996	-0.645996	0.128906	-0.680664
1180.0	10.970653	0.090271	1.070055	0.290921	0.348054	-0.133512	-0.645996	0.128906	-0.682861
1181.0	10.603883	0.395127	0.8563	0.287743	0.136703	-0.119257	-0.647705	0.11792	-0.680176
1182.0	10.479445	0.746906	-0.365304	0.340809	-0.268142	-0.118545	-0.645508	0.11792	-0.677979
1183.0	10.612965	0.749974	-1.44119	0.375381	-0.556314	-0.112845	-0.658936	0.117676	-0.680176
1184.0	10.736253	0.031376	-1.787677	0.30412	-0.51262	-0.113681	-0.656494	0.113281	-0.680176
1185.0	11.227222	-1.516763	-1.27415	0.248276	-0.27332	-0.102732	-0.663086	0.108887	-0.679932
1186.0	12.556783	-2.674358	-0.079488	0.492963	-0.23278	-0.07786	-0.660645	0.104492	-0.67749
1187.0	14.714039	-2.72558	1.298402	0.733016	-0.533533	0.004411	-0.669678	0.102295	-0.675049
1188.0	16.680319	-1.471259	2.610656	0.826353	-0.726977	0.247024	-0.669434	0.100098	-0.670166
1189.0	16.458482	0.085514	3.933808	0.769872	-0.171243	0.579882	-0.673828	0.095703	-0.677002
1190.0	13.559569	1.485737	4.885097	0.99716	0.598496	0.699678	-0.666992	0.093506	-0.665283
1191.0	9.837106	2.827383	5.818311	1.174287	0.668583	0.627556	-0.666992	0.093506	-0.681641
1192.0	7.613771	2.991047	5.96523	0.590386	-0.091415	0.661075	-0.671387	0.093506	-0.677002
1193.0	7.11746	1.29917	4.579294	-0.103851	-1.115373	0.761262	-0.685303	0.100098	-0.681885
1194.0	8.444583	-0.191725	2.976858	-0.079581	-1.754358	0.780827	-0.685547	0.104248	-0.658691
1195.0	9.984114	-0.208361	2.303501	0.241612	-1.627468	0.770569	-0.69458	0.106445	-0.651855
1196.0	10.60106	-0.220532	2.267068	0.370423	-0.825559	0.794772	-0.692383	0.108643	-0.654297
1197.0	10.758986	-0.615623	2.878471	0.525476	-0.151523	0.799538	-0.697021	0.11084	-0.6521
1198.0	11.057545	-0.657465	3.670517	0.679373	0.02442	0.748811	-0.703857	0.11084	-0.64502
1199.0	11.564429	-0.680867	3.903109	0.626382	-0.175962	0.665319	-0.706055	0.113037	-0.649902
1200.0	12.424427	-0.778066	3.662306	0.475752	-0.513082	0.550138	-0.699463	0.115234	-0.647705
1201.0	13.274564	-0.608959	3.325859	0.383499	-0.607046	0.396415	-0.703857	0.113037	-0.642822
1202.0	12.943522	-0.643187	2.610185	0.325617	-0.224536	0.2107	-0.703857	0.113037	-0.645264
1203.0	11.534431	-0.691252	1.779791	0.494459	0.414091	0.020979	-0.708008	0.106445	-0.640381
1204.0	9.938246	-0.13083	2.044328	0.62923	0.698004	-0.118164	-0.705811	0.104248	-0.651855
1205.0	8.998538	0.734247	2.776732	0.578336	0.508172	-0.182851	-0.700928	0.097656	-0.658447
1206.0	8.51232	1.144667	2.852985	0.365639	0.17322	-0.188995	-0.696289	0.093262	-0.656006
1207.0	8.383132	1.146795	2.320563	0.272429	-0.000991	-0.157911	-0.70752	0.093262	-0.653809
1208.0	8.519455	1.215254	2.132484	0.245503	0.011964	-0.134836	-0.702881	0.088867	-0.660645
1209.0	8.470787	1.229949	1.972015	0.212899	0.108569	-0.108145	-0.707275	0.084473	-0.657959
1210.0	8.223373	1.165147	1.962015	0.174162	0.16302	-0.082442	-0.704834	0.080078	-0.660156
1211.0	8.280708	1.080534	2.071834	0.07278	0.092468	-0.082065	-0.704834	0.080078	-0.662598
1212.0	8.459146	0.852555	1.952605	0.005213	-0.025883	-0.102193	-0.704834	0.082275	-0.662598
1213.0	8.555966	0.475525	1.412602	-0.009949	-0.064161	-0.126947	-0.70459	0.077881	-0.653076
1214.0	8.619891	0.175789	1.116727	0.021441	0.007284	-0.16512	-0.707031	0.077881	-0.662354
1215.0	8.563925	0.020941	1.051463	0.066077	0.125635	-0.175875	-0.711426	0.075684	-0.666992
1216.0	8.533363	-0.122994	1.239586	0.139301	0.288124	-0.172558	-0.704346	0.069092	-0.669189
1217.0	8.617812	0.036237	1.561954	0.210798	0.336111	-0.151113	-0.708496	0.062256	-0.668945
1218.0	8.667257	0.288163	1.617817	0.186543	0.375111	-0.105363	-0.695313	0.071289	-0.673828
1219.0	8.727082	0.453871	1.543893	0.149649	0.418964	-0.044927	-0.704102	0.0625	-0.661865
1220.0	8.676198	0.536352	1.590044	0.118721	0.422474	0.019542	-0.703857	0.060303	-0.67334
1221.0	8.651635	0.609249	1.657219	0.063467	0.392383	0.085269	-0.699463	0.0625	-0.68042
1222.0	8.508061	0.506058	1.463636	0.004968	0.339851	0.124227	-0.699707	0.066895	-0.680664
1223.0	8.437451	0.356231	1.335932	-0.021742	0.304707	0.138855	-0.701904	0.0625	-0.682861
1224.0	8.369049	0.264193	1.291578	-0.051113	0.293316	0.129797	-0.69751	0.064697	-0.682861
1225.0	8.322623	0.183398	1.197165	-0.093686	0.288414	0.110558	-0.697266	0.0625	-0.685059
1226.0	8.348986	0.049546	1.011174	-0.130608	0.236786	0.085386	-0.688477	0.064697	-0.685303
1227.0	8.596356	0.027841	0.720345	-0.159109	0.112381	0.061991	-0.695068	0.0625	-0.682861
1228.0	8.877047	0.018894	0.412629	-0.191384	0.010305	0.053233	-0.690918	0.069092	-0.687744
1229.0	9.229061	-0.05818	0.373803	-0.201158	0.001701	0.062731	-0.699463	0.0625	-0.685059
1230.0	9.73319	-0.072087	0.74747	-0.144956	0.01549	0.051293	-0.692871	0.064697	-0.689941
1231.0	10.083138	0.185192	1.028604	-0.067397	0.065267	0.05224	-0.69751	0.066895	-0.689941
1232.0	10.051094	0.288115	0.989241	-0.03277	0.170683	0.060134	-0.697266	0.060303	-0.687256
1233.0	9.874843	0.313297	0.946663	-0.042015	0.187699	0.056694	-0.69751	0.064697	-0.689941
1234.0	9.873932	0.345042	1.020325	-0.107376	0.13329	0.057759	-0.699463	0.0625	-0.685059
1235.0	9.80291	0.307677	0.844355	-0.145485	0.065287	0.054566	-0.69751	0.069092	-0.689941
1236.0	9.758171	0.541023	0.526505	-0.166754	0.028593	0.056344	-0.699707	0.066895	-0.692139
1237.0	9.722539	0.680434	0.103498	-0.217804	0.004872	0.061203	-0.695313	0.069092	-0.692383
1238.0	9.913351	0.874717	-0.069211	-0.345885	-0.028647	0.069221	-0.699707	0.066895	-0.682861
1239.0	10.074631	0.986994	-0.250099	-0.447683	-0.040588	0.072544	-0.695313	0.071289	-0.692383
1240.0	10.11208	1.106864	-0.472485	-0.495473	-0.018895	0.067105	-0.700195	0.075684	-0.687988
1241.0	10.536776	1.617412	0.12278	-0.570522	-0.011002	0.028123	-0.697998	0.077881	-0.692627
1242.0	11.463757	1.682972	1.381007	-0.853588	-0.029262	0.015204	-0.702637	0.082275	-0.69043
1243.0	12.570111	0.697871	2.168333	-1.102819	-0.14644	-0.024558	-0.707031	0.082275	-0.685791
1244.0	13.448385	-0.89851	2.336706	-1.053875	-0.268256	-0.170091	-0.711914	0.088867	-0.679199
1245.0	13.64546	-2.187283	2.415206	-0.884384	-0.168479	-0.417875	-0.707275	0.088867	-0.681396
1246.0	13.279006	-2.65376	3.414251	-0.620476	0.151924	-0.654313	-0.707275	0.084473	-0.686035
1247.0	12.16745	-2.763205	4.889564	-0.391944	0.318921	-0.801494	-0.711426	0.075684	-0.68335
1248.0	10.440187	-3.01811	4.976049	-0.212628	0.157971	-0.877244	-0.708984	0.071289	-0.678467
1249.0	9.209204	-2.450668	4.179778	0.031998	-0.209156	-0.969331	-0.713135	0.064453	-0.675781
1250.0	8.889209	-1.307653	3.396132	-0.026735	-0.522588	-0.977214	-0.710449	0.055664	-0.677979
1251.0	8.40511	-0.51577	2.194483	-0.273483	-0.509259	-0.863658	-0.72168	0.049072	-0.673096
1252.0	8.120421	0.207778	1.750339	-0.427036	-0.29961	-0.754006	-0.719238	0.049072	-0.675293
1253.0	8.542901	1.082686	2.466974	-0.616343	-0.172457	-0.65545	-0.712402	0.044678	-0.663574
1254.0	8.780008	1.168173	2.587839	-0.867365	-0.285717	-0.564983	-0.716797	0.044678	-0.663574
1255.0	9.771167	1.270335	2.45496	-0.883888	-0.565202	-0.539288	-0.728027	0.044678	-0.663574
1256.0	11.073001	1.424348	2.447668	-0.912906	-0.718618	-0.503938	-0.72583	0.04248	-0.654053
1257.0	12.147998	0.614123	2.426964	-0.979627	-0.565681	-0.382109	-0.72876	0.057861	-0.656982
1258.0	12.223608	-0.859733	2.454777	-0.83094	-0.331374	-0.29003	-0.728516	0.055664	-0.654541
1259.0	11.999258	-1.717621	2.551529	-0.520906	-0.159554	-0.238205	-0.737305	0.046875	-0.6521
1260.0	11.334347	-1.600009	2.556665	-0.324357	-0.089977	-0.177256	-0.73291	0.05127	-0.654541
1261.0	10.615436	-1.354747	2.469758	-0.312549	-0.044443	-0.084618	-0.739502	0.049072	-0.649658
1262.0	9.865828	-1.335109	2.488218	-0.354753	-0.040144	-0.001346	-0.728271	0.046875	-0.642822
1263.0	9.443249	-1.20396	2.737797	-0.343614	-0.03506	0.047076	-0.732666	0.046875	-0.642822
1264.0	9.122552	-1.182283	2.695332	-0.397554	-0.016	0.064079	-0.739502	0.049072	-0.647461
1265.0	8.969624	-1.295139	2.407504	-0.48659	-0.06704	0.062987	-0.737549	0.053467	-0.645264
1266.0	8.996328	-1.336053	2.100416	-0.500756	-0.127566	0.049001	-0.737549	0.053467	-0.638184
1267.0	9.352339	-1.08196	2.148728	-0.52137	-0.163266	0.045023	-0.742188	0.060059	-0.643311
1268.0	9.328224	-0.938382	1.836173	-0.541617	-0.085368	0.053452	-0.737793	0.062256	-0.638672
1269.0	9.168924	-0.695594	1.586648	-0.457703	-0.009879	0.041789	-0.740234	0.06665	-0.636475
1270.0	9.019454	-0.205633	1.765846	-0.458894	0.00338	0.034229	-0.733643	0.068848	-0.638916
1271.0	9.119715	-0.037753	1.910683	-0.532445	-0.064891	0.03529	-0.740479	0.071045	-0.636719
1272.0	9.22378	-0.051668	1.826194	-0.560427	-0.134008	0.020816	-0.733643	0.068848	-0.641113
1273.0	9.457622	-0.178754	1.711407	-0.562193	-0.084961	7.9e-05	-0.736084	0.077637	-0.632324
1274.0	9.270383	-0.3633	1.615242	-0.535148	0.088353	-0.016745	-0.736328	0.077637	-0.641602
1275.0	8.979583	-0.482337	1.769166	-0.487589	0.268699	-0.026178	-0.74292	0.077637	-0.63916
1276.0	8.704971	-0.554193	1.95006	-0.473222	0.331241	-0.028124	-0.731689	0.079834	-0.636963
1277.0	8.680862	-0.693506	2.04343	-0.452919	0.286732	-0.023588	-0.738525	0.079834	-0.639404
1278.0	8.718139	-0.766142	1.901861	-0.420293	0.201107	-0.022778	-0.729492	0.079834	-0.644043
1279.0	8.798875	-0.743774	1.701532	-0.380969	0.153281	-0.029918	-0.731934	0.082031	-0.650879
1280.0	8.949043	-0.682226	1.651011	-0.34666	0.123655	-0.036236	-0.731934	0.082031	-0.644043
1281.0	9.042773	-0.640068	1.551677	-0.334695	0.11155	-0.037192	-0.729736	0.084229	-0.651123
1282.0	9.073292	-0.696184	1.358014	-0.32778	0.080856	-0.047917	-0.736328	0.082031	-0.648682
1283.0	9.195952	-0.778697	1.26324	-0.336137	0.037006	-0.06031	-0.736572	0.084229	-0.648682
1284.0	9.284783	-0.8852	1.229634	-0.330262	0.030997	-0.08007	-0.727783	0.09082	-0.64209
1285.0	9.282024	-0.937071	1.160134	-0.285003	0.075437	-0.101063	-0.734375	0.09082	-0.646729
1286.0	9.209941	-0.875445	1.020091	-0.213896	0.132317	-0.126126	-0.7229	0.084229	-0.648682
1287.0	9.072125	-0.753789	0.902497	-0.141381	0.194812	-0.154508	-0.731934	0.084229	-0.648682
1288.0	8.93614	-0.56189	0.892898	-0.091429	0.198232	-0.179593	-0.729736	0.084229	-0.648682
1289.0	8.837175	-0.472859	0.771714	-0.057018	0.140423	-0.213955	-0.727295	0.079834	-0.655518
1290.0	9.02504	-0.279822	0.796738	-0.05505	0.04099	-0.238034	-0.724854	0.077637	-0.653076
1291.0	9.567997	-0.171093	0.904414	-0.125701	-0.054446	-0.242658	-0.727295	0.077637	-0.653076
1292.0	9.896573	-0.218758	0.745374	-0.183704	-0.07792	-0.228489	-0.729492	0.079834	-0.648682
1293.0	9.82944	-0.363803	0.379085	-0.140989	0.042766	-0.23813	-0.727295	0.077637	-0.655518
1294.0	9.689202	-0.11992	0.493391	-0.05964	0.151794	-0.254537	-0.727051	0.071045	-0.655273
1295.0	9.531749	0.121449	0.887092	-0.091964	0.160707	-0.252435	-0.731445	0.068848	-0.655029
1296.0	9.557824	0.260083	1.097379	-0.140801	0.076066	-0.254045	-0.72876	0.060059	-0.652588
1297.0	9.711545	0.375992	1.018118	-0.167896	-0.039274	-0.243282	-0.731445	0.073242	-0.655273
1298.0	9.993821	0.392694	0.768343	-0.217683	-0.068352	-0.226566	-0.733643	0.06665	-0.652832
1299.0	10.164499	0.368284	0.420237	-0.215624	-0.032129	-0.212862	-0.731201	0.064453	-0.655029
1300.0	10.204972	0.397806	0.200101	-0.198672	0.008797	-0.202148	-0.722168	0.06665	-0.648193
1301.0	10.25756	0.407171	-0.010375	-0.232646	0.021318	-0.189244	-0.72876	0.060059	-0.654785
1302.0	10.207383	0.16475	-0.252059	-0.271744	0.008181	-0.184347	-0.726807	0.068848	-0.657471
1303.0	10.207933	-0.226195	-0.321509	-0.305558	-0.015728	-0.172711	-0.733398	0.062256	-0.652588
1304.0	10.764095	-0.7464	0.165439	-0.419784	-0.077175	-0.141054	-0.724609	0.068848	-0.652832
1305.0	11.732256	-1.072863	0.661707	-0.403697	-0.167105	-0.095532	-0.73584	0.06665	-0.652832
1306.0	12.566071	-0.687665	0.688027	-0.20695	-0.212838	-0.01507	-0.738037	0.064453	-0.652588
1307.0	12.446371	0.195183	0.710798	-0.111784	0.039407	0.078974	-0.733643	0.06665	-0.650391
1308.0	11.530784	0.56022	1.177394	-0.241782	0.443026	0.137754	-0.724609	0.068848	-0.650391
1309.0	10.997303	0.538551	2.330241	-0.355197	0.437901	0.137168	-0.729248	0.071045	-0.657471
1310.0	11.234986	1.068217	3.083661	-0.434602	-0.017688	0.118187	-0.724854	0.073242	-0.655273
1311.0	11.591033	1.356486	2.846085	-0.679198	-0.327226	0.126244	-0.736084	0.073242	-0.650635
1312.0	11.576805	0.842965	2.259682	-0.893445	-0.186465	0.133125	-0.731934	0.082031	-0.650879
1313.0	11.45205	0.405618	2.448827	-0.848247	-0.024536	0.138035	-0.72998	0.088623	-0.653564
1314.0	11.116174	0.762198	2.796941	-0.71159	-0.100604	0.165022	-0.732422	0.093018	-0.644531
1315.0	10.257067	1.056656	2.79082	-0.718485	-0.110187	0.177161	-0.737061	0.099609	-0.646973
1316.0	9.043037	0.528006	2.439356	-0.789656	0.011595	0.181085	-0.728271	0.104248	-0.649414
1317.0	8.331789	-0.059642	2.359832	-0.758944	-0.071079	0.161793	-0.728271	0.106445	-0.654297
1318.0	8.42633	-0.313719	2.396784	-0.759063	-0.304529	0.149819	-0.724121	0.11084	-0.640381
1319.0	9.056322	-0.633797	2.421653	-0.823232	-0.395159	0.165596	-0.733154	0.113037	-0.645264
1320.0	9.564894	-0.895557	2.390296	-0.776483	-0.231781	0.195226	-0.742432	0.121582	-0.63623
1321.0	9.991307	-0.676028	2.696938	-0.63793	0.026705	0.21274	-0.736084	0.128418	-0.641113
1322.0	10.127874	-0.032847	3.130541	-0.633447	0.147079	0.232475	-0.736084	0.130615	-0.641113
