Acquisition frequency: 100 Hz
PacketCounter	Acc_X	Acc_Y	Acc_Z	Gyr_X	Gyr_Y	Gyr_Z	Mag_X	Mag_Y	Mag_Z
0.0	8.430438	1.507955	5.212015	-0.000252	0.026079	-0.018702	-0.850586	0.071045	-0.207031
1.0	8.438956	1.488364	5.22095	0.001625	0.029307	-0.01756	-0.844238	0.073242	-0.21167
2.0	8.436996	1.44118	5.248756	-0.013092	0.03517	-0.021458	-0.846436	0.073242	-0.204834
3.0	8.387337	1.437095	5.215802	0.010488	0.025483	-0.026501	-0.848633	0.075439	-0.207275
4.0	8.403157	1.412858	5.282525	0.017436	0.00397	-0.035211	-0.842041	0.073242	-0.202637
5.0	8.452085	1.488839	5.253816	0.039921	-0.006026	-0.035674	-0.850586	0.071045	-0.204834
6.0	8.450046	1.573716	5.241476	0.028487	-0.005669	-0.033566	-0.848389	0.068848	-0.207031
7.0	8.469983	1.534896	5.254679	0.002277	0.009747	-0.028877	-0.848389	0.071045	-0.204834
8.0	8.431466	1.509852	5.226878	-0.002536	0.016145	-0.024013	-0.850342	0.06665	-0.202393
9.0	8.418416	1.516228	5.260102	0.007007	0.01128	-0.023327	-0.848389	0.068848	-0.207031
10.0	8.446584	1.535057	5.269306	-0.000694	0.004914	-0.021493	-0.848389	0.068848	-0.200195
11.0	8.451155	1.490139	5.203938	-0.009579	0.011314	-0.020468	-0.846191	0.071045	-0.204834
12.0	8.44673	1.506365	5.257431	0.001958	0.012347	-0.018578	-0.846191	0.071045	-0.207031
13.0	8.466403	1.514306	5.246452	-3.4e-05	0.006452	-0.019781	-0.846191	0.06665	-0.209229
14.0	8.436917	1.498791	5.238415	-0.009808	0.004691	-0.016631	-0.846191	0.071045	-0.21167
15.0	8.446503	1.527077	5.220685	-0.007935	0.007922	-0.015488	-0.850342	0.064453	-0.207031
16.0	8.444169	1.510984	5.260219	-0.00672	0.008326	-0.012106	-0.850586	0.071045	-0.202637
17.0	8.433092	1.581116	5.229411	-0.0066	0.009702	-0.008094	-0.848633	0.073242	-0.204834
18.0	8.462913	1.566132	5.225865	-0.021525	0.022085	-0.00559	-0.846436	0.073242	-0.207275
19.0	8.490337	1.581456	5.237318	-0.038092	0.03399	0.003786	-0.846436	0.073242	-0.204834
20.0	8.448976	1.582796	5.226458	-0.054461	0.052525	0.0093	-0.846191	0.071045	-0.207031
21.0	8.458318	1.574751	5.199912	-0.051837	0.05867	0.016153	-0.848389	0.071045	-0.207031
22.0	8.444948	1.542373	5.224869	-0.076388	0.074644	0.02184	-0.85083	0.073242	-0.213867
23.0	8.42425	1.41806	5.242136	-0.099454	0.089749	0.016593	-0.846191	0.071045	-0.21167
24.0	8.329913	1.279676	5.325893	-0.069478	0.068942	0.007708	-0.846191	0.071045	-0.21167
25.0	8.325676	1.260066	5.368859	-0.022802	0.020435	-0.0051	-0.846436	0.073242	-0.207275
26.0	8.36656	1.322046	5.32077	0.016748	-0.021113	-0.015794	-0.842041	0.075439	-0.207275
27.0	8.435639	1.482876	5.267962	0.02082	-0.0317	-0.022429	-0.848633	0.073242	-0.209473
28.0	8.38907	1.430298	5.254961	-0.010679	-0.015305	-0.021084	-0.846191	0.068848	-0.202393
29.0	8.377463	1.38771	5.310633	0.000649	-0.015713	-0.031132	-0.848389	0.071045	-0.204834
30.0	8.376637	1.423161	5.321734	0.042042	-0.042132	-0.034183	-0.848389	0.071045	-0.204834
31.0	8.45851	1.533599	5.259585	0.031898	-0.050595	-0.035216	-0.852783	0.068848	-0.21167
32.0	8.470549	1.516356	5.262264	0.006124	-0.03504	-0.032911	-0.846436	0.073242	-0.202637
33.0	8.442366	1.55091	5.226513	0.005348	-0.014194	-0.025575	-0.846191	0.071045	-0.204834
34.0	8.45309	1.532563	5.231638	0.012049	-0.017345	-0.02929	-0.848389	0.071045	-0.200195
35.0	8.471993	1.5729	5.23244	0.004477	-0.010486	-0.016919	-0.846191	0.071045	-0.213867
36.0	8.494291	1.548794	5.206779	-0.013246	0.004962	-0.014845	-0.848389	0.068848	-0.204834
37.0	8.446098	1.494399	5.197178	-0.017879	0.017977	-0.013826	-0.848389	0.071045	-0.202637
38.0	8.420892	1.502939	5.262955	-0.010501	0.01506	-0.011855	-0.853027	0.073242	-0.204834
39.0	8.428501	1.513855	5.284466	-0.007298	0.008185	-0.009839	-0.848389	0.071045	-0.216309
40.0	8.480768	1.522641	5.230186	-0.020846	0.014418	-0.010401	-0.848633	0.075439	-0.207275
41.0	8.44898	1.488215	5.262213	-0.021951	0.027259	-0.00323	-0.848633	0.075439	-0.207275
42.0	8.426682	1.52934	5.251959	-0.031545	0.032118	-0.003961	-0.846436	0.075439	-0.21167
43.0	8.447437	1.502453	5.229678	-0.036055	0.032029	0.002441	-0.843994	0.068848	-0.207031
44.0	8.435517	1.472845	5.251371	-0.035857	0.037368	0.002546	-0.848633	0.073242	-0.204834
45.0	8.417099	1.401448	5.238873	-0.033119	0.035601	-0.001013	-0.844238	0.073242	-0.209473
46.0	8.393028	1.425556	5.267212	-0.017577	0.023396	-0.005768	-0.844482	0.077637	-0.202637
47.0	8.410734	1.414809	5.295767	-0.008409	0.009169	-0.009228	-0.853027	0.075439	-0.207275
48.0	8.401617	1.453365	5.251441	-0.011937	0.008046	-0.011431	-0.846436	0.073242	-0.209473
49.0	8.419952	1.394455	5.303901	-0.016786	0.003863	-0.017087	-0.846436	0.075439	-0.209473
50.0	8.362095	1.361918	5.286311	-0.001126	-0.005673	-0.021773	-0.85083	0.075439	-0.207275
51.0	8.411813	1.387681	5.282193	0.013006	-0.023604	-0.030034	-0.848389	0.068848	-0.207031
52.0	8.422658	1.467648	5.236727	0.027656	-0.029495	-0.034047	-0.846436	0.073242	-0.202637
53.0	8.44879	1.502912	5.295108	0.014324	-0.032403	-0.03315	-0.850586	0.071045	-0.209473
54.0	8.453428	1.491734	5.240323	0.005686	-0.018013	-0.031987	-0.848389	0.071045	-0.202637
55.0	8.423128	1.5095	5.243647	0.016602	-0.0198	-0.027806	-0.848389	0.071045	-0.202637
56.0	8.483041	1.563337	5.220754	0.010982	-0.017626	-0.024733	-0.848633	0.073242	-0.202637
57.0	8.474853	1.554662	5.199551	-0.01008	-0.000602	-0.016829	-0.848389	0.071045	-0.207031
58.0	8.455939	1.517113	5.198049	-0.022224	0.011347	-0.013888	-0.844238	0.075439	-0.209473
59.0	8.414542	1.455722	5.247401	-0.015289	0.01224	-0.013514	-0.85083	0.075439	-0.207275
60.0	8.440914	1.456096	5.295761	-0.010983	0.005704	-0.016088	-0.848633	0.075439	-0.202637
61.0	8.460578	1.511776	5.259914	-0.006875	0.004388	-0.008252	-0.846436	0.073242	-0.207275
62.0	8.451632	1.501605	5.240401	-0.016399	0.013208	-0.012892	-0.846436	0.075439	-0.197998
63.0	8.450664	1.501668	5.241943	-0.014416	0.017801	-0.007707	-0.85083	0.073242	-0.207031
64.0	8.449596	1.501341	5.243759	-0.017168	0.019566	-0.004158	-0.846191	0.071045	-0.204834
65.0	8.438269	1.472883	5.264232	-0.027223	0.026911	-0.002543	-0.844238	0.075439	-0.209473
66.0	8.444929	1.482158	5.287639	-0.025828	0.03395	-0.002998	-0.842041	0.073242	-0.209473
67.0	8.434925	1.470778	5.270176	-0.022623	0.028384	-0.004946	-0.848389	0.071045	-0.204834
68.0	8.406718	1.421109	5.250232	-0.042256	0.027409	-0.006685	-0.846436	0.073242	-0.21167
69.0	8.397486	1.360939	5.256763	-0.019617	0.017483	-0.007015	-0.842041	0.073242	-0.209473
70.0	8.3842	1.414166	5.265217	0.003342	0.005012	-0.017688	-0.844238	0.073242	-0.214111
71.0	8.429087	1.453436	5.315293	-0.003701	0.001451	-0.018141	-0.853027	0.073242	-0.207031
72.0	8.422171	1.461418	5.256572	-0.012877	0.003802	-0.021251	-0.842041	0.073242	-0.204834
73.0	8.419996	1.44573	5.295377	0.00192	-0.000711	-0.021216	-0.850586	0.071045	-0.207031
74.0	8.42138	1.464973	5.25685	0.000229	0.002707	-0.026232	-0.848633	0.075439	-0.209473
75.0	8.457993	1.494356	5.286263	-0.006932	-0.002212	-0.025442	-0.848633	0.073242	-0.202637
76.0	8.422349	1.48583	5.21852	0.002176	0.005971	-0.017101	-0.846191	0.071045	-0.204834
77.0	8.45052	1.504131	5.22792	-0.007679	0.005464	-0.017999	-0.846191	0.071045	-0.209473
78.0	8.448037	1.487611	5.267464	-0.019246	0.012324	-0.014693	-0.85083	0.073242	-0.209473
79.0	8.426717	1.481346	5.280336	-0.016914	0.011752	-0.014552	-0.85498	0.073242	-0.207031
80.0	8.428143	1.450395	5.267448	-0.009363	0.008889	-0.015098	-0.844238	0.073242	-0.209473
81.0	8.407008	1.444618	5.279881	-0.014653	0.007202	-0.018415	-0.848633	0.077637	-0.205078
82.0	8.387896	1.456493	5.253211	-0.003623	-0.002463	-0.022062	-0.85083	0.073242	-0.204834
83.0	8.447269	1.46091	5.256921	0.009102	0.000285	-0.02068	-0.848389	0.068848	-0.207031
84.0	8.417797	1.494416	5.223411	-0.007075	0.000391	-0.020267	-0.853271	0.07959	-0.207275
85.0	8.426117	1.457513	5.268725	-0.004205	0.00263	-0.019786	-0.848877	0.079834	-0.205078
86.0	8.425761	1.459181	5.268832	0.003347	-0.00023	-0.020333	-0.85083	0.073242	-0.207031
87.0	8.435409	1.488723	5.250756	0.000363	0.001457	-0.022203	-0.844238	0.073242	-0.204834
88.0	8.437309	1.458894	5.236872	-0.006501	-0.00074	-0.021231	-0.848389	0.071045	-0.207031
89.0	8.406602	1.426315	5.266522	0.001591	-0.000786	-0.021436	-0.846436	0.075439	-0.207275
90.0	8.396095	1.449707	5.259405	0.009108	-0.011565	-0.027293	-0.852783	0.071045	-0.204834
91.0	8.437992	1.41702	5.259343	0.004541	-0.022257	-0.031491	-0.848633	0.073242	-0.202637
92.0	8.405707	1.466306	5.275973	0.020881	-0.030207	-0.031819	-0.846436	0.073242	-0.207275
93.0	8.449348	1.500514	5.211446	0.019667	-0.027949	-0.03258	-0.848633	0.073242	-0.202637
94.0	8.466715	1.524988	5.249898	0.012121	-0.025089	-0.032028	-0.848633	0.075439	-0.204834
95.0	8.450873	1.507244	5.207029	0.007971	-0.017183	-0.03066	-0.853027	0.073242	-0.204834
96.0	8.457097	1.55222	5.240096	0.010807	-0.010993	-0.028876	-0.846191	0.068848	-0.207031
97.0	8.459304	1.52328	5.225555	-0.00025	-0.001358	-0.025229	-0.842041	0.073242	-0.207275
98.0	8.457364	1.507872	5.264104	-0.008249	-0.001296	-0.022321	-0.846436	0.073242	-0.202637
99.0	8.440573	1.488656	5.22322	0.004471	0.001478	-0.02095	-0.848633	0.077637	-0.207275
100.0	8.427371	1.542967	5.230652	-0.002391	-0.000732	-0.019974	-0.846191	0.071045	-0.216309
101.0	8.437292	1.523056	5.237868	-0.012391	0.014515	-0.01565	-0.85083	0.075439	-0.209473
102.0	8.437034	1.475133	5.263826	-0.011249	0.012249	-0.01758	-0.842041	0.073242	-0.207275
103.0	8.43795	1.493399	5.226103	-0.0018	0.006053	-0.015633	-0.848389	0.068848	-0.204834
104.0	8.456146	1.483966	5.253709	-0.006459	0.007192	-0.01591	-0.852783	0.071045	-0.202637
105.0	8.435023	1.477973	5.266252	-0.022195	0.010044	-0.017846	-0.846436	0.073242	-0.207275
106.0	8.417784	1.45792	5.226385	-0.002579	0.011094	-0.018751	-0.846436	0.073242	-0.204834
107.0	8.443436	1.507951	5.249792	-0.003513	0.001551	-0.01804	-0.848633	0.073242	-0.202637
108.0	8.424751	1.471007	5.248113	-0.013083	0.011675	-0.021374	-0.846191	0.071045	-0.197998
109.0	8.426453	1.440691	5.23492	-0.015859	0.001548	-0.024463	-0.848633	0.075439	-0.204834
110.0	8.413845	1.446474	5.267055	0.007796	-0.001365	-0.028124	-0.846436	0.073242	-0.202637
111.0	8.43338	1.504725	5.230228	0.008541	-0.010361	-0.029004	-0.848633	0.073242	-0.202637
112.0	8.460418	1.507407	5.276808	0.001556	-0.008653	-0.029419	-0.848389	0.068848	-0.204834
113.0	8.453717	1.516558	5.217269	0.000374	-0.002441	-0.026182	-0.846436	0.075439	-0.204834
114.0	8.473709	1.525337	5.205741	0.000947	0.004336	-0.021841	-0.843994	0.071045	-0.207031
115.0	8.429966	1.545229	5.243166	-0.003666	0.001529	-0.023423	-0.843994	0.068848	-0.207031
116.0	8.462838	1.500814	5.22468	-0.015273	0.008327	-0.020116	-0.85498	0.071045	-0.204834
117.0	8.462071	1.501882	5.225615	-0.005997	0.010006	-0.018255	-0.843994	0.071045	-0.204834
118.0	8.438472	1.527857	5.252017	-0.003008	0.008327	-0.016387	-0.850586	0.071045	-0.209473
119.0	8.426981	1.549742	5.246631	-0.0147	0.015105	-0.015774	-0.846436	0.073242	-0.204834
120.0	8.438934	1.497333	5.240988	-0.02565	0.020788	-0.010738	-0.85498	0.071045	-0.202637
121.0	8.409196	1.479888	5.23403	-0.01984	0.017396	-0.012389	-0.848633	0.073242	-0.202637
122.0	8.439192	1.465818	5.230593	-0.012849	0.015699	-0.011972	-0.85083	0.073242	-0.204834
123.0	8.407334	1.480449	5.236861	-0.018593	0.007252	-0.016934	-0.846191	0.071045	-0.202637
124.0	8.435158	1.498686	5.246676	-0.000219	0.010575	-0.018593	-0.846191	0.071045	-0.207031
125.0	8.445175	1.479035	5.253799	-0.008127	0.002725	-0.018308	-0.844238	0.073242	-0.204834
126.0	8.434111	1.501308	5.24761	-0.005877	0.002145	-0.020862	-0.839844	0.075439	-0.200439
127.0	8.415816	1.464577	5.245392	-0.005301	0.001016	-0.021827	-0.848633	0.073242	-0.21167
128.0	8.433309	1.504543	5.247973	0.000458	0.001567	-0.022172	-0.848389	0.071045	-0.207031
129.0	8.451744	1.495713	5.27506	-0.004642	-9.6e-05	-0.020098	-0.846436	0.073242	-0.202637
130.0	8.435106	1.4761	5.23429	-0.014032	0.002156	-0.023346	-0.848389	0.068848	-0.204834
131.0	8.424822	1.449724	5.25284	-0.005995	0.006086	-0.022243	-0.846436	0.073242	-0.204834
132.0	8.43404	1.479616	5.235016	0.005543	-0.000707	-0.028242	-0.846191	0.068848	-0.204834
133.0	8.451609	1.520495	5.237151	0.005677	-0.004633	-0.026856	-0.844238	0.073242	-0.202637
134.0	8.421403	1.488193	5.26627	-0.007009	-0.007429	-0.028235	-0.848389	0.068848	-0.207031
135.0	8.414779	1.497236	5.206729	-0.001902	-0.005754	-0.030306	-0.846191	0.071045	-0.202637
136.0	8.443202	1.517056	5.215072	0.003414	-0.007996	-0.0283	-0.848145	0.06665	-0.204834
137.0	8.4512	1.530004	5.23504	-0.000718	-0.004052	-0.028234	-0.848389	0.068848	-0.200195
138.0	8.461674	1.511173	5.241292	-0.003543	-0.002345	-0.024713	-0.844238	0.075439	-0.202637
139.0	8.42223	1.516751	5.225687	-0.001211	-0.002906	-0.024574	-0.843994	0.068848	-0.209229
140.0	8.460067	1.563677	5.216543	-0.003518	0.001611	-0.020711	-0.848389	0.071045	-0.204834
141.0	8.450105	1.537502	5.234612	-0.005209	-0.002892	-0.023122	-0.853027	0.073242	-0.207031
142.0	8.423911	1.490213	5.211774	-0.00642	0.003306	-0.019883	-0.846191	0.071045	-0.202637
143.0	8.420872	1.522998	5.226059	-0.005187	0.001062	-0.019121	-0.846191	0.071045	-0.204834
144.0	8.441851	1.482392	5.239456	-0.008226	0.006685	-0.019677	-0.857178	0.071045	-0.200195
145.0	8.441423	1.483625	5.239798	-0.00978	-0.001749	-0.020705	-0.848389	0.071045	-0.200195
146.0	8.430462	1.506463	5.233121	0.012722	-0.002318	-0.02243	-0.843994	0.071045	-0.207031
147.0	8.458803	1.526019	5.241625	-0.003381	-0.006253	-0.023323	-0.848389	0.068848	-0.207031
148.0	8.46279	1.51358	5.188894	-0.007001	0.000497	-0.022913	-0.852783	0.068848	-0.21167
149.0	8.419087	1.533088	5.225986	0.004646	-0.002308	-0.022221	-0.848633	0.073242	-0.204834
150.0	8.467666	1.559274	5.223181	0.001814	-0.00061	-0.018702	-0.843994	0.071045	-0.200195
151.0	8.437353	1.525508	5.253078	-0.020748	0.003889	-0.015666	-0.848389	0.071045	-0.207031
152.0	8.431467	1.484243	5.219154	-0.009311	0.005012	-0.019049	-0.846191	0.071045	-0.213867
153.0	8.439161	1.496367	5.239817	0.006404	-0.001731	-0.021115	-0.843994	0.068848	-0.200195
154.0	8.428324	1.51908	5.232918	-0.004383	-0.007916	-0.020005	-0.843994	0.068848	-0.202393
155.0	8.441843	1.46846	5.224829	-0.00343	-0.006238	-0.026008	-0.852783	0.071045	-0.209473
156.0	8.439042	1.501904	5.238425	0.003566	-0.003973	-0.021594	-0.850586	0.068848	-0.200195
157.0	8.41875	1.497047	5.249301	-0.000375	-0.011851	-0.025451	-0.848389	0.071045	-0.200195
158.0	8.431338	1.495587	5.216123	-0.000884	-0.014659	-0.025793	-0.85083	0.073242	-0.207031
159.0	8.460232	1.515668	5.223528	0.013606	-0.019139	-0.028621	-0.846191	0.071045	-0.204834
160.0	8.450002	1.539376	5.21529	0.005601	-0.019139	-0.025718	-0.843994	0.06665	-0.200195
161.0	8.46936	1.531408	5.240803	0.000805	-0.014086	-0.027375	-0.848389	0.071045	-0.204834
162.0	8.470979	1.550978	5.20129	0.00365	-0.00789	-0.022897	-0.850586	0.068848	-0.202393
163.0	8.430193	1.539031	5.22407	-0.005809	-0.001725	-0.024828	-0.850586	0.068848	-0.200195
164.0	8.443686	1.488388	5.216206	-0.01025	-0.008473	-0.025025	-0.841797	0.068848	-0.204834
165.0	8.461286	1.528965	5.217943	0.011673	-0.007866	-0.025797	-0.850342	0.06665	-0.197998
166.0	8.442438	1.542058	5.190057	0.007091	-0.010682	-0.027377	-0.846191	0.071045	-0.202637
167.0	8.47357	1.530493	5.184316	-0.001139	-0.002829	-0.024549	-0.846191	0.071045	-0.202637
168.0	8.462342	1.553398	5.177846	-0.001865	0.002229	-0.024967	-0.850586	0.071045	-0.200195
169.0	8.460484	1.538198	5.21653	0.002799	0.00112	-0.024692	-0.848389	0.068848	-0.204834
170.0	8.469438	1.567919	5.19872	-0.010527	0.003336	-0.023787	-0.848389	0.071045	-0.197998
171.0	8.468638	1.568883	5.199732	-0.018769	0.015118	-0.016964	-0.846191	0.068848	-0.197998
172.0	8.437784	1.534567	5.230979	-0.011852	0.017388	-0.015246	-0.852783	0.068848	-0.204834
173.0	8.449027	1.531813	5.200331	-0.011187	0.012335	-0.017517	-0.846191	0.068848	-0.202393
174.0	8.456178	1.543086	5.222066	-0.016935	0.011761	-0.017168	-0.848389	0.071045	-0.202637
175.0	8.445781	1.515704	5.241509	-0.018754	0.015131	-0.01696	-0.848389	0.068848	-0.204834
176.0	8.428765	1.495582	5.20175	-0.006	0.010114	-0.020894	-0.846191	0.068848	-0.202393
177.0	8.456383	1.514708	5.211426	-0.003589	0.005627	-0.022064	-0.852783	0.071045	-0.204834
178.0	8.463738	1.526812	5.232568	-0.004758	0.007873	-0.020133	-0.850342	0.064453	-0.207031
179.0	8.445427	1.556134	5.167853	-0.007215	0.008436	-0.025647	-0.852539	0.06665	-0.204834
180.0	8.443199	1.54022	5.207309	-0.008254	0.010676	-0.018339	-0.846191	0.068848	-0.202393
181.0	8.434421	1.530751	5.18772	-0.016314	0.006724	-0.022126	-0.846191	0.071045	-0.207031
182.0	8.441673	1.542577	5.209085	-0.001913	0.010142	-0.019648	-0.846191	0.071045	-0.200195
183.0	8.440875	1.544026	5.209949	-0.005331	0.009008	-0.019164	-0.848633	0.073242	-0.204834
184.0	8.432206	1.534886	5.190098	-0.006989	0.004511	-0.021575	-0.848145	0.06665	-0.202393
185.0	8.458425	1.53634	5.238366	-0.014055	0.010111	-0.020677	-0.844238	0.073242	-0.204834
186.0	8.441695	1.51661	5.198127	-0.003562	0.005654	-0.022056	-0.848389	0.071045	-0.209473
187.0	8.446052	1.56027	5.233334	0.001014	0.008481	-0.020471	-0.843994	0.06665	-0.202393
188.0	8.467221	1.519907	5.246977	-0.010419	0.00731	-0.017092	-0.852539	0.062256	-0.20459
189.0	8.439649	1.52086	5.200206	-0.009952	0.006204	-0.023432	-0.850586	0.068848	-0.202393
190.0	8.426744	1.525929	5.232729	1.4e-05	0.002865	-0.021158	-0.848145	0.062256	-0.202393
191.0	8.474828	1.552287	5.23053	-0.008709	0.003962	-0.022673	-0.848389	0.068848	-0.200195
192.0	8.437989	1.525511	5.201537	-0.009295	0.005085	-0.021707	-0.846191	0.06665	-0.204834
193.0	8.465675	1.544561	5.21108	-0.003484	0.005666	-0.019363	-0.852539	0.06665	-0.202393
194.0	8.433934	1.559641	5.216535	-0.012622	1.6e-05	-0.022534	-0.848389	0.068848	-0.200195
195.0	8.436467	1.529777	5.202753	-0.00469	0.003994	-0.024117	-0.854736	0.06665	-0.200195
196.0	8.454879	1.521052	5.230113	-0.008047	0.002847	-0.020946	-0.846191	0.071045	-0.202637
197.0	8.415053	1.525617	5.215212	-0.006453	0.007357	-0.021219	-0.848633	0.073242	-0.195801
198.0	8.442662	1.544911	5.224788	-0.002943	0.004569	-0.023011	-0.850342	0.06665	-0.200195
199.0	8.465481	1.522522	5.199453	0.000626	0.001772	-0.022116	-0.848145	0.06665	-0.207031
200.0	8.474258	1.552069	5.181893	-0.009864	0.006221	-0.020735	-0.848145	0.06665	-0.204834
201.0	8.450237	1.577257	5.208329	-0.01505	0.008436	-0.017357	-0.845947	0.064453	-0.20459
202.0	8.441572	1.567782	5.188639	-0.004703	0.007936	-0.020112	-0.848145	0.06665	-0.202393
203.0	8.448823	1.579504	5.209941	-0.01039	0.007336	-0.017081	-0.846191	0.06665	-0.207031
204.0	8.462035	1.528215	5.203392	-0.010627	0.015213	-0.017143	-0.848389	0.068848	-0.202393
205.0	8.432884	1.511351	5.195613	-0.015686	0.009575	-0.019077	-0.852783	0.068848	-0.195557
206.0	8.416672	1.547199	5.242685	-0.002956	0.008514	-0.019005	-0.853027	0.073242	-0.202637
207.0	8.439358	1.524355	5.217793	-0.008107	0.006806	-0.019628	-0.845947	0.064453	-0.197754
208.0	8.448013	1.553647	5.200487	-0.009249	0.005125	-0.021695	-0.845947	0.064453	-0.20459
209.0	8.43811	1.527325	5.218943	-0.001229	0.005182	-0.024585	-0.850586	0.068848	-0.204834
210.0	8.446782	1.556951	5.201499	-0.003392	0.005696	-0.016663	-0.848633	0.073242	-0.197998
211.0	8.454154	1.568898	5.222502	-0.008058	0.002896	-0.023624	-0.852539	0.06665	-0.204834
212.0	8.44567	1.559816	5.202446	-0.005769	0.006265	-0.019486	-0.854492	0.062256	-0.202393
213.0	8.437229	1.550507	5.182396	-0.006211	0.003438	-0.017147	-0.850586	0.071045	-0.204834
214.0	8.441482	1.593524	5.217565	-0.007447	0.005688	-0.017902	-0.848145	0.06665	-0.204834
215.0	8.436019	1.55242	5.183793	-0.011001	0.01239	-0.012109	-0.846191	0.06665	-0.202393
216.0	8.450938	1.573843	5.226218	-0.013918	0.01406	-0.011281	-0.843994	0.068848	-0.204834
217.0	8.432943	1.535448	5.224907	-0.016739	0.011799	-0.011767	-0.843994	0.071045	-0.202637
218.0	8.44444	1.532144	5.194327	-0.017425	0.01685	-0.009486	-0.850342	0.064453	-0.202393
219.0	8.479535	1.560508	5.225523	-0.01391	0.014068	-0.011278	-0.850342	0.06665	-0.204834
220.0	8.467532	1.581428	5.220617	-0.015093	0.016304	-0.009346	-0.850586	0.071045	-0.207031
221.0	8.455401	1.60179	5.216087	-0.025528	0.020729	-0.005281	-0.848389	0.068848	-0.207031
222.0	8.466469	1.597455	5.186582	-0.02804	0.029151	-0.002784	-0.843994	0.068848	-0.207031
223.0	8.455357	1.567681	5.208004	-0.042764	0.041457	-1.2e-05	-0.848389	0.071045	-0.202637
224.0	8.445388	1.554891	5.191535	-0.042105	0.040338	0.001713	-0.848145	0.06665	-0.202393
225.0	8.446547	1.576904	5.268773	-0.032248	0.040937	0.005311	-0.848633	0.073242	-0.207031
226.0	8.436695	1.441723	5.227927	-0.06312	0.049314	-0.000895	-0.844238	0.073242	-0.207275
227.0	8.385878	1.414089	5.234629	-0.039777	0.039856	-0.000817	-0.843994	0.071045	-0.21167
228.0	8.401627	1.452419	5.2397	0.009319	0.008593	-0.012556	-0.846191	0.068848	-0.209229
229.0	8.452225	1.56917	5.249042	-0.006887	0.012459	-0.010847	-0.850586	0.068848	-0.202393
230.0	8.401502	1.471092	5.203567	-0.034061	0.01407	-0.014811	-0.846191	0.071045	-0.204834
231.0	8.408524	1.482187	5.225285	0.002359	0.006374	-0.019665	-0.848633	0.073242	-0.204834
232.0	8.42973	1.564418	5.263167	0.004279	-0.000932	-0.021204	-0.852783	0.068848	-0.204834
233.0	8.432547	1.534645	5.24917	-0.014885	0.004625	-0.021353	-0.848389	0.071045	-0.207031
234.0	8.418018	1.465794	5.232926	-0.013886	0.010265	-0.02064	-0.848145	0.06665	-0.21167
235.0	8.406406	1.488447	5.226913	0.007113	-0.002547	-0.0274	-0.848389	0.071045	-0.200195
236.0	8.451492	1.547283	5.238429	0.002755	-0.009351	-0.024954	-0.843994	0.068848	-0.200195
237.0	8.43447	1.510833	5.234913	-0.006572	-0.007108	-0.028197	-0.848145	0.06665	-0.200195
238.0	8.410834	1.537323	5.259876	0.010137	-0.008136	-0.029548	-0.848145	0.06665	-0.207031
239.0	8.434519	1.516329	5.233246	0.012012	-0.011527	-0.027078	-0.848389	0.068848	-0.204834
240.0	8.451732	1.557856	5.234906	0.008562	-0.012647	-0.029289	-0.84375	0.064453	-0.202393
241.0	8.456538	1.547004	5.181299	0.011326	-0.006469	-0.024786	-0.848145	0.06665	-0.202393
242.0	8.468658	1.601471	5.236347	-0.003159	-0.002065	-0.02197	-0.848389	0.068848	-0.204834
243.0	8.440153	1.584822	5.227441	-0.013697	0.006281	-0.016586	-0.850586	0.068848	-0.209229
244.0	8.43381	1.526097	5.231548	-0.007774	0.002899	-0.012872	-0.850586	0.071045	-0.204834
245.0	8.441035	1.537267	5.25287	-0.008021	0.010791	-0.012911	-0.850586	0.068848	-0.197998
246.0	8.441745	1.555523	5.215414	-0.01256	0.007963	-0.014511	-0.850586	0.068848	-0.202393
247.0	8.431867	1.527841	5.23417	-0.012024	0.010757	-0.011471	-0.848389	0.068848	-0.202393
248.0	8.471703	1.543013	5.212495	-0.010337	0.011348	-0.013048	-0.846191	0.071045	-0.204834
249.0	8.438131	1.539066	5.257006	-0.021203	0.009035	-0.01335	-0.848389	0.071045	-0.207031
250.0	8.441951	1.525738	5.205812	-0.00713	0.020371	-0.010869	-0.852783	0.068848	-0.204834
251.0	8.419307	1.501313	5.25689	-0.010227	0.007423	-0.01437	-0.848633	0.073242	-0.204834
252.0	8.448096	1.537292	5.228746	-0.01261	0.011881	-0.010501	-0.845947	0.064453	-0.20459
253.0	8.450694	1.50643	5.215617	-0.013776	0.010235	-0.015258	-0.850586	0.071045	-0.209473
254.0	8.445179	1.520578	5.269252	-0.010817	0.008543	-0.013401	-0.848389	0.071045	-0.204834
255.0	8.436767	1.510772	5.249484	-0.012578	0.008012	-0.017191	-0.85083	0.073242	-0.202637
256.0	8.409609	1.511379	5.202466	-0.011835	0.002938	-0.016799	-0.85083	0.073242	-0.207031
257.0	8.448314	1.50972	5.218521	0.001312	0.004736	-0.019036	-0.852783	0.068848	-0.207031
258.0	8.444478	1.542102	5.233172	-0.016964	0.001225	-0.017436	-0.846191	0.068848	-0.204834
259.0	8.427162	1.504527	5.230621	-0.007898	0.003046	-0.023601	-0.846191	0.071045	-0.197998
260.0	8.443554	1.544754	5.233881	0.003675	0.004161	-0.016211	-0.846436	0.073242	-0.204834
261.0	8.462036	1.535933	5.261107	-0.010069	-0.000363	-0.022382	-0.844238	0.073242	-0.209473
262.0	8.435104	1.53693	5.213613	-0.010628	0.000721	-0.018731	-0.846191	0.068848	-0.202393
263.0	8.455008	1.545652	5.202504	0.001956	0.003606	-0.017316	-0.846191	0.071045	-0.197998
264.0	8.441881	1.549938	5.235048	-0.010243	0.007475	-0.017045	-0.848145	0.06665	-0.209229
265.0	8.432036	1.522426	5.253717	-0.019522	0.009681	-0.017602	-0.846191	0.071045	-0.202637
266.0	8.451713	1.530709	5.243109	0.001398	0.004692	-0.013663	-0.846191	0.068848	-0.202393
267.0	8.461808	1.577694	5.187423	-0.004329	0.004088	-0.013334	-0.848389	0.071045	-0.209473
268.0	8.451938	1.549954	5.206212	-0.023142	0.016393	-0.014478	-0.845947	0.062256	-0.20459
269.0	8.421343	1.514248	5.237184	-0.019805	0.021452	-0.010935	-0.846191	0.068848	-0.204834
270.0	8.440605	1.521979	5.227427	-0.006263	0.011397	-0.011784	-0.846191	0.068848	-0.200195
271.0	8.458733	1.512203	5.255503	-0.015429	0.009671	-0.01367	-0.854736	0.064453	-0.20459
272.0	8.411075	1.504841	5.220349	-0.017257	0.013045	-0.013449	-0.848389	0.068848	-0.204834
273.0	8.434082	1.481819	5.19575	-0.004494	0.008103	-0.017367	-0.852783	0.071045	-0.207031
274.0	8.437714	1.524739	5.231289	-0.002029	0.003586	-0.015873	-0.852783	0.068848	-0.204834
275.0	8.444856	1.536057	5.252585	-0.018261	0.007444	-0.016852	-0.848389	0.068848	-0.202393
276.0	8.43644	1.526385	5.232863	-0.011478	0.009799	-0.020467	-0.848389	0.068848	-0.202393
277.0	8.435691	1.527616	5.23371	-0.000449	0.008122	-0.016117	-0.848145	0.06665	-0.202393
278.0	8.446234	1.507992	5.240786	-0.011928	0.006946	-0.018145	-0.848633	0.073242	-0.202637
279.0	8.44199	1.540106	5.256006	-0.011439	0.009769	-0.017783	-0.848389	0.071045	-0.202637
280.0	8.444781	1.509741	5.242624	-0.009087	0.009183	-0.01496	-0.846191	0.071045	-0.204834
281.0	8.436541	1.500015	5.222661	-0.012377	0.004094	-0.015823	-0.850342	0.06665	-0.200195
282.0	8.443586	1.511324	5.244092	-0.005678	0.010346	-0.015424	-0.848145	0.06665	-0.204834
283.0	8.442906	1.512169	5.244943	-0.013604	0.006358	-0.016568	-0.852783	0.071045	-0.204834
284.0	8.434746	1.502616	5.224811	-0.007764	0.003037	-0.018224	-0.850586	0.071045	-0.207031
285.0	8.438377	1.545572	5.260201	-0.003756	0.003089	-0.019657	-0.850586	0.068848	-0.202393
286.0	8.452659	1.494766	5.252684	-0.009563	0.006372	-0.015319	-0.848389	0.068848	-0.204834
287.0	8.442317	1.534157	5.20864	-0.010677	0.004703	-0.017394	-0.846191	0.06665	-0.200195
288.0	8.440449	1.517479	5.247364	-0.001404	0.002505	-0.016834	-0.850586	0.068848	-0.202393
289.0	8.452659	1.515739	5.215737	-0.006639	0.004716	-0.016145	-0.846191	0.06665	-0.207031
290.0	8.439581	1.519674	5.248124	-0.005407	0.002457	-0.0154	-0.846191	0.06665	-0.209229
291.0	8.427973	1.541585	5.242043	-0.003115	0.00195	-0.017941	-0.846436	0.073242	-0.202637
292.0	8.428833	1.560636	5.204244	-0.006781	0.008693	-0.017493	-0.850586	0.068848	-0.202393
293.0	8.411554	1.522743	5.201908	-0.012957	0.005219	-0.01485	-0.848389	0.068848	-0.204834
294.0	8.429786	1.513048	5.229804	-0.011987	0.010864	-0.014122	-0.850342	0.064453	-0.209229
295.0	8.447917	1.50346	5.257829	-0.01078	0.008647	-0.016058	-0.848389	0.071045	-0.202637
296.0	8.437397	1.54286	5.214039	-0.008461	0.0081	-0.015918	-0.850342	0.06665	-0.200195
297.0	8.435355	1.525817	5.253133	-0.013576	0.006379	-0.016561	-0.843994	0.068848	-0.204834
298.0	8.426987	1.515982	5.233463	-0.011496	0.013694	-0.013755	-0.848633	0.073242	-0.209473
299.0	8.418571	1.506033	5.213912	-0.011349	0.009721	-0.012407	-0.841797	0.068848	-0.207031
300.0	8.453309	1.535198	5.245078	-0.007969	0.010931	-0.01555	-0.85498	0.068848	-0.202393
301.0	8.444908	1.525427	5.225459	-0.017716	0.010309	-0.016475	-0.843994	0.06665	-0.209229
302.0	8.405728	1.461834	5.273112	-0.014938	0.012631	-0.018649	-0.846191	0.071045	-0.207031
303.0	8.424686	1.537727	5.200024	0.008614	-0.004701	-0.018568	-0.843994	0.071045	-0.207031
304.0	8.489893	1.536776	5.263734	-0.010785	0.008711	-0.018733	-0.846436	0.073242	-0.200195
305.0	8.427137	1.508766	5.186982	-0.019542	0.013688	-0.016247	-0.844238	0.073242	-0.207275
306.0	8.421163	1.522949	5.240811	-0.001033	0.009343	-0.017804	-0.850342	0.06665	-0.204834
307.0	8.429493	1.552563	5.223934	-0.008943	0.005347	-0.018957	-0.846191	0.071045	-0.204834
308.0	8.432465	1.522207	5.210483	-0.020642	0.012027	-0.018323	-0.843994	0.068848	-0.209229
308.0	8.42406	1.512332	5.190939	-0.00793	0.010904	-0.012862	-0.846191	0.071045	-0.204834
309.0	8.419579	1.544156	5.206386	-0.00964	0.010346	-0.013971	-0.848389	0.068848	-0.202393
310.0	8.42865	1.506064	5.252124	-0.016584	0.011996	-0.014392	-0.846191	0.068848	-0.207031
311.0	8.440578	1.503773	5.221277	-0.011347	0.009792	-0.015079	-0.842041	0.073242	-0.202637
312.0	8.400745	1.507399	5.20631	-0.002104	0.007647	-0.017195	-0.848389	0.068848	-0.207031
313.0	8.443151	1.547441	5.257826	-0.013409	0.002483	-0.017891	-0.846191	0.068848	-0.204834
314.0	8.427583	1.527418	5.216852	-0.008902	0.005318	-0.016273	-0.85083	0.075439	-0.200439
315.0	8.425614	1.510518	5.255714	-0.00892	0.00537	-0.018952	-0.843994	0.068848	-0.200195
316.0	8.426416	1.529453	5.21814	-0.008418	0.008145	-0.015903	-0.848389	0.071045	-0.202637
317.0	8.405607	1.522858	5.229916	-0.00708	0.002002	-0.019178	-0.843994	0.068848	-0.202393
318.0	8.45184	1.532064	5.266783	-0.001969	0.00373	-0.018528	-0.846191	0.071045	-0.204834
319.0	8.423607	1.515357	5.257538	-0.004761	0.001456	-0.019036	-0.850586	0.068848	-0.207031
320.0	8.432103	1.545243	5.240294	-0.000275	0.004344	-0.020096	-0.848389	0.068848	-0.209229
321.0	8.431661	1.546596	5.240605	-0.008763	0.001398	-0.017606	-0.846191	0.06665	-0.204834
322.0	8.453979	1.506417	5.253415	-0.006464	0.000904	-0.020144	-0.843994	0.071045	-0.209473
323.0	8.422085	1.52077	5.258413	-0.005231	-0.001359	-0.019403	-0.856934	0.06665	-0.202393
324.0	8.441986	1.529823	5.247384	-0.004274	0.00429	-0.018665	-0.846191	0.068848	-0.202393
325.0	8.434041	1.52079	5.226908	-0.002435	0.00092	-0.018892	-0.848389	0.071045	-0.204834
326.0	8.450074	1.560914	5.230407	-0.004254	0.004239	-0.015985	-0.848389	0.068848	-0.204834
327.0	8.429221	1.554164	5.242292	-0.01072	0.008707	-0.016037	-0.848389	0.071045	-0.209473
328.0	8.443557	1.502931	5.235348	-0.01267	0.015956	-0.011791	-0.843994	0.071045	-0.204834
329.0	8.411207	1.516231	5.241346	-0.014573	0.004662	-0.013268	-0.844238	0.075439	-0.202637
330.0	8.447306	1.563409	5.234131	-0.003279	0.009841	-0.012565	-0.85083	0.075439	-0.207275
331.0	8.441523	1.50446	5.238187	-0.015932	0.010861	-0.012669	-0.850586	0.068848	-0.207031
332.0	8.436901	1.536024	5.253747	-0.00961	0.010381	-0.013955	-0.843994	0.06665	-0.207031
333.0	8.415919	1.528906	5.26592	-0.008986	0.009222	-0.012245	-0.848145	0.064453	-0.20459
334.0	8.415128	1.529295	5.267071	-0.015449	0.013691	-0.012297	-0.846191	0.06665	-0.202393
335.0	8.427014	1.526713	5.236506	-0.013727	0.014195	-0.008508	-0.850342	0.06665	-0.204834
336.0	8.433559	1.537139	5.258785	-0.014954	0.016465	-0.009247	-0.846191	0.068848	-0.204834
337.0	8.429156	1.495562	5.224849	-0.016987	0.009098	-0.00939	-0.848389	0.071045	-0.202637
338.0	8.428392	1.495626	5.226063	-0.013733	0.014259	-0.011183	-0.846436	0.073242	-0.207275
339.0	8.407265	1.488211	5.238527	-0.015924	0.010937	-0.015343	-0.844238	0.073242	-0.202637
340.0	8.447052	1.504574	5.217139	-0.002667	0.008815	-0.016204	-0.846436	0.073242	-0.202637
341.0	8.442526	1.536783	5.232306	-0.003128	0.005933	-0.013898	-0.846191	0.06665	-0.204834
342.0	8.40532	1.490899	5.240884	-0.018098	0.007559	-0.016825	-0.85083	0.075439	-0.204834
343.0	8.416099	1.47103	5.247905	-0.008857	0.00543	-0.018937	-0.839844	0.075439	-0.204834
344.0	8.420563	1.53196	5.245345	0.001003	0.002136	-0.019341	-0.850586	0.068848	-0.202393
345.0	8.431483	1.512541	5.252014	-0.014561	0.004807	-0.018621	-0.850342	0.06665	-0.200195
346.0	8.423457	1.503203	5.231841	-0.008862	0.005496	-0.021613	-0.846436	0.073242	-0.204834
347.0	8.419062	1.535632	5.24668	0.00164	0.000919	-0.014954	-0.850342	0.064453	-0.20459
348.0	8.430147	1.516327	5.253066	-0.0064	0.000962	-0.020135	-0.850586	0.068848	-0.200195
349.0	8.441211	1.496869	5.25954	-0.010402	0.000893	-0.018709	-0.846191	0.06665	-0.202393
350.0	8.429534	1.518943	5.253294	-0.000551	-0.002335	-0.021791	-0.850586	0.068848	-0.207031
351.0	8.43821	1.549156	5.235619	7e-05	-0.003498	-0.020083	-0.848389	0.068848	-0.207031
352.0	8.433196	1.490992	5.238383	-0.010869	-0.001928	-0.01908	-0.848389	0.068848	-0.204834
353.0	8.432966	1.492474	5.238332	-0.002866	-0.001718	-0.024607	-0.848633	0.073242	-0.204834
354.0	8.428973	1.525966	5.252158	0.017005	-0.012281	-0.024084	-0.846436	0.073242	-0.202637
355.0	8.430534	1.5466	5.212887	0.003134	-0.009002	-0.024928	-0.846191	0.071045	-0.202637
356.0	8.449297	1.538267	5.239561	-0.007477	-0.000685	-0.022209	-0.846436	0.073242	-0.204834
357.0	8.42473	1.563027	5.265302	-5.8e-05	0.000444	-0.018737	-0.846191	0.068848	-0.204834
358.0	8.450037	1.559203	5.201496	-0.006375	0.000914	-0.017451	-0.848389	0.068848	-0.21167
359.0	8.433309	1.521264	5.198682	-0.010671	0.008759	-0.016017	-0.844238	0.075439	-0.202637
360.0	8.45294	1.530017	5.18824	-0.003112	0.00596	-0.013887	-0.846191	0.068848	-0.207031
361.0	8.447088	1.543822	5.241488	-0.009898	0.003603	-0.012975	-0.850586	0.071045	-0.207031
362.0	8.439179	1.533688	5.2214	-0.014657	0.008557	-0.009237	-0.846436	0.075439	-0.207275
363.0	8.461448	1.492784	5.234868	-0.014676	0.008754	-0.017265	-0.850586	0.068848	-0.204834
364.0	8.417596	1.527023	5.234377	-0.004338	0.008235	-0.014621	-0.850586	0.071045	-0.202637
365.0	8.457526	1.543661	5.212684	-0.008198	0.004232	-0.01454	-0.843994	0.06665	-0.207031
366.0	8.427928	1.508035	5.241983	-0.01297	0.009316	-0.016153	-0.846191	0.068848	-0.202393
367.0	8.428626	1.527015	5.204588	-0.00542	0.006583	-0.0167	-0.848389	0.071045	-0.202637
368.0	8.454288	1.528312	5.253118	-0.00773	0.007129	-0.01684	-0.850342	0.06665	-0.207031
369.0	8.434665	1.53919	5.227073	-0.014803	0.012625	-0.013242	-0.850342	0.06665	-0.207031
370.0	8.43799	1.508774	5.213566	-0.010037	0.007679	-0.01698	-0.848145	0.06665	-0.204834
371.0	8.430571	1.504756	5.305152	-0.00079	0.005503	-0.016416	-0.850586	0.068848	-0.204834
372.0	8.444367	1.521351	5.235381	-0.016057	0.000293	-0.018386	-0.844238	0.075439	-0.209473
373.0	8.416365	1.504116	5.226015	-0.003569	0.003294	-0.019606	-0.848389	0.071045	-0.207031
374.0	8.411871	1.536672	5.240752	-0.001723	-7.5e-05	-0.01984	-0.850586	0.071045	-0.204834
375.0	8.443218	1.525277	5.236092	-0.011579	0.003204	-0.019433	-0.852539	0.064453	-0.202393
376.0	8.43543	1.515888	5.215645	-0.006952	0.002049	-0.016475	-0.848389	0.071045	-0.204834
377.0	8.451063	1.556186	5.219437	0.00492	0.006153	-0.016725	-0.848145	0.06665	-0.200195
378.0	8.430279	1.549336	5.23115	-0.016807	0.005326	-0.016068	-0.848389	0.068848	-0.21167
379.0	8.433813	1.518996	5.217355	-0.00663	0.008806	-0.014752	-0.848389	0.071045	-0.207031
380.0	8.46832	1.548563	5.248355	-0.006326	0.000814	-0.012093	-0.846191	0.068848	-0.202393
381.0	8.440284	1.530621	5.239262	-0.018645	0.00863	-0.013156	-0.850586	0.068848	-0.202393
382.0	8.419377	1.522973	5.251396	-0.011246	0.009828	-0.012357	-0.846191	0.068848	-0.204834
383.0	8.450532	1.511102	5.247232	-0.002468	0.004899	-0.014844	-0.846191	0.071045	-0.202637
384.0	8.437088	1.514585	5.279801	-0.010014	0.007703	-0.016971	-0.848389	0.068848	-0.204834
385.0	8.434672	1.491816	5.207005	-0.019101	0.005809	-0.013531	-0.848145	0.06665	-0.202393
386.0	8.428594	1.505319	5.260477	-0.005389	0.006621	-0.016688	-0.846191	0.071045	-0.204834
387.0	8.436753	1.535002	5.243665	-0.004157	0.004351	-0.015953	-0.846191	0.068848	-0.202393
388.0	8.436219	1.535911	5.244259	-0.013396	0.006527	-0.016516	-0.850586	0.068848	-0.207031
389.0	8.448394	1.534045	5.213294	-0.014161	0.011554	-0.014197	-0.848389	0.071045	-0.202637
390.0	8.40716	1.518667	5.236612	-0.011233	0.009914	-0.015026	-0.843994	0.071045	-0.202637
391.0	8.446827	1.53502	5.215545	-0.014773	0.012583	-0.010551	-0.846191	0.068848	-0.202393
392.0	8.455981	1.496314	5.261584	-0.019077	0.020501	-0.01178	-0.846191	0.071045	-0.209473
393.0	8.401107	1.47766	5.205779	-0.020615	0.015949	-0.011565	-0.846191	0.068848	-0.200195
394.0	8.435167	1.506738	5.237588	-0.009992	0.007653	-0.01429	-0.843994	0.071045	-0.202637
395.0	8.406925	1.488922	5.228794	-0.019222	0.009907	-0.017528	-0.850342	0.06665	-0.207031
396.0	8.438038	1.477185	5.224752	-0.004751	0.005548	-0.017651	-0.846191	0.071045	-0.200195
397.0	8.446159	1.507239	5.207924	0.001563	0.005093	-0.01893	-0.843994	0.068848	-0.207031
398.0	8.455997	1.560321	5.264716	-0.013828	0.0038	-0.019565	-0.846191	0.068848	-0.21167
399.0	8.429119	1.470529	5.205454	-0.009363	0.006641	-0.017932	-0.846191	0.068848	-0.207031
400.0	8.404121	1.494793	5.231625	-0.004585	0.001708	-0.021673	-0.848389	0.071045	-0.207031
401.0	8.431258	1.514735	5.241575	-0.000587	0.001643	-0.017746	-0.846191	0.068848	-0.207031
402.0	8.419424	1.536624	5.235401	-0.008433	-0.002381	-0.018928	-0.841797	0.071045	-0.204834
403.0	8.443554	1.514827	5.209947	-0.00874	0.00555	-0.0189	-0.846191	0.068848	-0.202393
404.0	8.430038	1.518489	5.24245	-0.004733	0.005643	-0.02032	-0.85083	0.075439	-0.209473
405.0	8.44115	1.499384	5.248996	-0.002271	0.001098	-0.018855	-0.848145	0.06665	-0.207031
406.0	8.442182	1.519139	5.210914	-0.005032	-0.001106	-0.02205	-0.848145	0.06665	-0.204834
407.0	8.428854	1.523134	5.243006	-0.003492	0.003455	-0.022259	-0.846191	0.071045	-0.204834
408.0	8.435641	1.535286	5.264144	-0.004561	0.001807	-0.024341	-0.846191	0.068848	-0.204834
409.0	8.420664	1.515904	5.222697	-0.005196	0.002664	-0.01535	-0.841797	0.068848	-0.207031
410.0	8.436078	1.556016	5.226709	-0.012106	0.004453	-0.021119	-0.850586	0.071045	-0.202637
411.0	8.451386	1.505853	5.218891	-0.001954	0.007945	-0.019793	-0.843994	0.06665	-0.204834
412.0	8.434939	1.558789	5.227722	-0.007331	-0.000632	-0.019514	-0.842041	0.073242	-0.204834
413.0	8.437547	1.510796	5.251515	-0.01041	0.005014	-0.020005	-0.852783	0.071045	-0.204834
414.0	8.410836	1.511745	5.204155	-0.004723	0.005583	-0.017639	-0.85498	0.068848	-0.207031
415.0	8.43347	1.562486	5.228988	-0.004559	0.001661	-0.018991	-0.85498	0.071045	-0.200195
416.0	8.456248	1.522245	5.241899	-0.017345	0.006478	-0.015081	-0.839844	0.073242	-0.202637
417.0	8.428275	1.504671	5.232661	-0.005166	0.002845	-0.020691	-0.844238	0.075439	-0.202637
418.0	8.456533	1.542614	5.204823	-0.005345	0.006603	-0.013993	-0.850586	0.071045	-0.207031
419.0	8.431407	1.566368	5.231152	-0.012094	0.004388	-0.018441	-0.848389	0.068848	-0.200195
420.0	8.458404	1.495189	5.229705	-0.011799	0.011143	-0.016706	-0.846191	0.06665	-0.204834
421.0	8.414228	1.529186	5.229194	-0.006397	0.005045	-0.018747	-0.841797	0.068848	-0.204834
422.0	8.425347	1.509773	5.235905	-0.006405	0.004962	-0.016074	-0.846191	0.071045	-0.202637
423.0	8.468255	1.477725	5.237926	-0.013936	0.007766	-0.018198	-0.85498	0.068848	-0.200195
424.0	8.424136	1.511924	5.237232	0.001607	0.005163	-0.01891	-0.846436	0.073242	-0.204834
425.0	8.412133	1.533933	5.231173	-0.006068	-0.00288	-0.01878	-0.848389	0.068848	-0.207031
426.0	8.443579	1.522397	5.226721	-0.014564	0.008778	-0.014553	-0.848145	0.06665	-0.202393
427.0	8.43445	1.494631	5.244654	-0.004079	0.004517	-0.018602	-0.850586	0.071045	-0.204834
428.0	8.438089	1.555648	5.242423	0.001147	0.002257	-0.016619	-0.852783	0.071045	-0.202637
429.0	8.430436	1.5465	5.221871	-0.009765	0.003865	-0.018295	-0.85498	0.068848	-0.200195
430.0	8.454463	1.524758	5.196835	-0.010541	0.008971	-0.018641	-0.846191	0.071045	-0.204834
431.0	8.408985	1.540554	5.234288	-0.004071	0.004525	-0.0186	-0.852783	0.068848	-0.204834
432.0	8.420135	1.521157	5.240992	-0.008696	0.005518	-0.01621	-0.841797	0.068848	-0.207031
433.0	8.419476	1.521895	5.241836	-0.013477	0.010522	-0.015137	-0.850342	0.06665	-0.202393
434.0	8.438993	1.530801	5.23167	-0.005324	0.006629	-0.013984	-0.84375	0.064453	-0.207031
435.0	8.429946	1.503008	5.2495	-0.008691	0.005524	-0.016209	-0.843994	0.071045	-0.207031
436.0	8.45689	1.522552	5.259789	-0.008519	0.001603	-0.017563	-0.852539	0.06665	-0.204834
437.0	8.430328	1.523378	5.212282	-0.006989	0.006171	-0.017766	-0.848145	0.06665	-0.202393
438.0	8.428443	1.506192	5.250999	-0.006988	0.006173	-0.017765	-0.846191	0.071045	-0.202637
439.0	8.443625	1.546538	5.255119	-0.002825	0.002266	-0.017866	-0.848145	0.06665	-0.202393
440.0	8.447621	1.516772	5.240907	-0.01328	0.006701	-0.019159	-0.846191	0.068848	-0.202393
441.0	8.428054	1.527975	5.214613	-0.004224	0.008469	-0.017238	-0.846191	0.06665	-0.200195
442.0	8.441845	1.550164	5.25691	-0.002803	0.002364	-0.020536	-0.846436	0.073242	-0.207275
443.0	8.425745	1.512193	5.253604	-0.012058	0.004338	-0.015759	-0.848389	0.068848	-0.207031
444.0	8.438218	1.511103	5.222233	-0.006336	0.005184	-0.021403	-0.852539	0.06665	-0.200195
445.0	8.444926	1.522971	5.243452	-0.003871	0.000634	-0.019947	-0.846191	0.068848	-0.200195
446.0	8.457558	1.522177	5.211746	-0.006799	0.002266	-0.019117	-0.85083	0.073242	-0.209473
447.0	8.45252	1.55433	5.226875	-0.008029	0.004545	-0.019843	-0.844238	0.073242	-0.21167
448.0	8.42326	1.518502	5.25577	-0.012189	0.008454	-0.01974	-0.846191	0.068848	-0.202393
449.0	8.4357	1.517495	5.224446	-0.008473	0.00172	-0.020227	-0.848145	0.06665	-0.202393
450.0	8.442235	1.529298	5.245944	-0.003119	0.010321	-0.020486	-0.848145	0.064453	-0.202393
451.0	8.442862	1.549015	5.208509	-0.010774	0.002263	-0.020368	-0.843994	0.06665	-0.21167
452.0	8.422111	1.541905	5.220112	-0.008194	0.008478	-0.018483	-0.848145	0.06665	-0.209229
453.0	8.426125	1.512161	5.205988	-0.007408	0.003373	-0.018141	-0.843994	0.06665	-0.204834
454.0	8.451599	1.513588	5.25456	-0.01155	0.007377	-0.020707	-0.848633	0.073242	-0.200195
455.0	8.432125	1.524836	5.228079	-0.009083	0.002825	-0.019253	-0.848633	0.073242	-0.200195
456.0	8.431706	1.526261	5.228339	-0.002145	0.001311	-0.021498	-0.848389	0.068848	-0.207031
457.0	8.451495	1.535909	5.217549	-0.008473	0.001641	-0.017554	-0.85498	0.068848	-0.209229
458.0	8.442534	1.508341	5.235271	-0.006484	0.009141	-0.020035	-0.848389	0.068848	-0.204834
459.0	8.431446	1.548788	5.191508	-0.001511	0.000229	-0.022467	-0.848145	0.06665	-0.202393
460.0	8.449876	1.540173	5.218914	-0.006948	0.006217	-0.01775	-0.850342	0.06665	-0.202393
461.0	8.429132	1.532848	5.230562	-0.010951	0.006105	-0.016335	-0.848145	0.06665	-0.202393
462.0	8.448723	1.542173	5.220191	-0.004639	0.005684	-0.017608	-0.841797	0.071045	-0.202637
463.0	8.455195	1.553578	5.241852	-0.008825	0.009491	-0.014834	-0.85083	0.073242	-0.204834
464.0	8.420068	1.52502	5.212035	-0.019115	0.009899	-0.014814	-0.852539	0.06665	-0.204834
465.0	8.458431	1.523874	5.229076	-0.004211	0.008422	-0.01455	-0.846191	0.068848	-0.204834
466.0	8.418625	1.526598	5.213903	-0.007746	0.011239	-0.015416	-0.846191	0.06665	-0.202393
467.0	8.417915	1.527393	5.214816	-0.013243	0.006653	-0.016474	-0.846191	0.071045	-0.202637
468.0	8.417205	1.528187	5.215729	-0.007743	0.011243	-0.015414	-0.852783	0.071045	-0.209473
469.0	8.443786	1.548024	5.226443	-0.003997	0.004611	-0.018575	-0.843994	0.068848	-0.200195
470.0	8.443245	1.549158	5.226982	-0.006952	0.006137	-0.015076	-0.846191	0.068848	-0.204834
471.0	8.447349	1.519008	5.212987	-0.016168	0.008285	-0.015642	-0.856934	0.06665	-0.202393
472.0	8.406328	1.50329	5.235783	-0.004151	0.00864	-0.019882	-0.848145	0.06665	-0.202393
473.0	8.433069	1.523257	5.246196	-0.003854	0.000496	-0.014597	-0.843994	0.06665	-0.204834
474.0	8.461172	1.561397	5.218461	-0.011972	0.004487	-0.018414	-0.843994	0.068848	-0.207031
475.0	8.413254	1.535232	5.220033	-0.00862	0.005594	-0.016187	-0.846191	0.06665	-0.204834
476.0	8.451713	1.534475	5.236831	-0.005871	0.00789	-0.015656	-0.843994	0.071045	-0.202637
477.0	8.432126	1.54546	5.210591	-0.010477	0.008964	-0.015938	-0.852539	0.06665	-0.200195
478.0	8.423058	1.517324	5.228692	-0.013408	0.010591	-0.015107	-0.848389	0.071045	-0.200195
479.0	8.422385	1.518059	5.229562	-0.005263	0.006705	-0.013958	-0.846191	0.068848	-0.204834
480.0	8.421835	1.518966	5.230185	-0.00861	0.005603	-0.016185	-0.85083	0.075439	-0.200439
481.0	8.44143	1.528206	5.219883	-0.010912	0.006141	-0.016326	-0.841797	0.06665	-0.197998
482.0	8.427784	1.531055	5.252415	-0.008606	0.005607	-0.016183	-0.852783	0.068848	-0.195557
483.0	8.448613	1.558936	5.204061	-0.008577	0.005714	-0.018851	-0.85498	0.068848	-0.209229
484.0	8.451498	1.510399	5.228123	-0.013426	0.010495	-0.012436	-0.846191	0.071045	-0.207031
485.0	8.418841	1.523021	5.233825	-0.009231	0.0067	-0.01521	-0.848145	0.06665	-0.204834
486.0	8.425269	1.534293	5.255505	-0.005855	0.007911	-0.015649	-0.846191	0.071045	-0.21167
487.0	8.429432	1.504278	5.241495	-0.013833	0.007775	-0.015492	-0.850342	0.06665	-0.204834
488.0	8.437073	1.533927	5.225246	-0.005851	0.007915	-0.015647	-0.846191	0.06665	-0.202393
489.0	8.455335	1.524878	5.253055	-0.010866	0.006263	-0.018989	-0.848145	0.062256	-0.20459
490.0	8.435975	1.536049	5.226395	-0.009441	6.6e-05	-0.019629	-0.848389	0.068848	-0.204834
491.0	8.447374	1.516752	5.232946	-0.001873	0.007936	-0.014389	-0.850586	0.071045	-0.200195
492.0	8.435034	1.538328	5.227244	-0.009437	6.9e-05	-0.019628	-0.848389	0.071045	-0.202637
493.0	8.454777	1.547861	5.21664	-0.009627	0.00399	-0.018264	-0.850586	0.071045	-0.202637
494.0	8.432781	1.521784	5.266306	-0.012751	0.009532	-0.016069	-0.848389	0.068848	-0.209229
495.0	8.432061	1.522528	5.267243	-0.013788	0.007898	-0.018154	-0.85498	0.072998	-0.200195
496.0	8.42233	1.472164	5.211054	-0.008324	0.001936	-0.022874	-0.848389	0.068848	-0.207031
497.0	8.411332	1.407871	5.304088	-0.015846	-0.005817	-0.03078	-0.846191	0.068848	-0.202393
498.0	8.330708	1.246158	5.297549	0.015518	-0.035373	-0.058457	-0.843994	0.06665	-0.202393
499.0	8.363207	1.202694	5.250613	0.10788	-0.098078	-0.094591	-0.846191	0.06665	-0.200195
500.0	8.47457	1.228578	5.055396	0.239752	-0.179996	-0.134018	-0.850342	0.06665	-0.200195
501.0	8.564515	1.227063	5.16654	0.352208	-0.157279	-0.159624	-0.8479	0.060059	-0.199951
502.0	8.469507	1.352227	5.252444	0.46365	-0.117341	-0.176171	-0.852539	0.064453	-0.20459
503.0	8.371111	1.675372	5.208726	0.429405	-0.188354	-0.20535	-0.854492	0.057861	-0.190918
504.0	8.658678	1.880029	5.176761	0.374616	-0.160138	-0.214753	-0.852051	0.055664	-0.199951
505.0	8.564894	1.98016	4.986297	0.303934	-0.073903	-0.213549	-0.8479	0.060059	-0.195557
506.0	8.44548	2.00123	5.08033	0.225091	-0.005639	-0.175044	-0.852295	0.057861	-0.197754
507.0	8.426904	1.950324	5.149681	0.157699	-0.017433	-0.157109	-0.849854	0.05127	-0.19751
508.0	8.486943	1.880021	5.026743	0.10714	-0.051158	-0.146418	-0.854004	0.05127	-0.202148
509.0	8.547648	1.993503	4.833091	0.165003	-0.016842	-0.121637	-0.854004	0.049072	-0.193115
510.0	8.536717	2.140062	4.967253	0.176496	0.064545	-0.087623	-0.854004	0.049072	-0.19751
511.0	8.524928	2.139162	5.212807	0.049492	0.093295	-0.070321	-0.849609	0.049072	-0.199951
512.0	8.407032	1.929079	5.230043	-0.060833	0.075868	-0.05847	-0.849609	0.046875	-0.202148
513.0	8.42942	1.768598	5.054447	-0.021621	0.040745	-0.057152	-0.847412	0.049072	-0.19751
514.0	8.543232	1.748243	5.031771	0.045095	0.029414	-0.056214	-0.847656	0.05127	-0.202148
515.0	8.556206	1.855471	5.03334	0.05496	0.063215	-0.070395	-0.851807	0.049072	-0.195313
516.0	8.499316	1.867515	5.053999	0.064417	0.072341	-0.07482	-0.854248	0.053467	-0.202148
517.0	8.483457	1.955902	5.04892	0.023413	0.08271	-0.080815	-0.855957	0.044678	-0.204346
518.0	8.478105	2.005488	5.091696	-0.00197	0.118918	-0.077305	-0.851563	0.040283	-0.199707
519.0	8.39619	1.945617	5.13401	-0.008724	0.140267	-0.062193	-0.851807	0.046875	-0.199707
520.0	8.3759	1.969709	5.138516	-0.018692	0.121473	-0.054413	-0.845459	0.05127	-0.199951
521.0	8.430795	2.058551	5.110176	0.010447	0.102279	-0.030803	-0.843018	0.044922	-0.206543
522.0	8.462684	2.042964	5.174819	-0.023232	0.129085	-0.01888	-0.854004	0.046875	-0.208984
523.0	8.388743	1.801279	5.310355	-0.130438	0.133936	-0.023159	-0.847412	0.049072	-0.204346
524.0	8.370374	1.599566	5.202711	-0.117258	0.114342	-0.036097	-0.847412	0.046875	-0.202148
525.0	8.312482	1.578898	5.153533	0.047724	0.074774	-0.046071	-0.845215	0.044922	-0.208984
526.0	8.395468	1.70036	5.241581	0.109972	0.056164	-0.057985	-0.847168	0.042725	-0.204346
527.0	8.432157	1.567757	5.366613	0.054867	0.042868	-0.079825	-0.849365	0.042725	-0.20874
528.0	8.657178	1.195399	5.155521	-0.03285	-0.013769	-0.098984	-0.847168	0.042725	-0.20874
529.0	9.001726	0.629221	4.774321	-0.049893	-0.151441	-0.131172	-0.851563	0.044678	-0.206543
530.0	8.953117	0.642136	4.670366	0.150247	-0.014733	-0.221085	-0.846924	0.03833	-0.204102
531.0	8.499952	1.209816	5.188423	0.592791	0.045566	-0.299421	-0.853516	0.03833	-0.206543
532.0	8.197983	2.067828	5.643907	0.881389	-0.017227	-0.345049	-0.855713	0.036133	-0.206299
533.0	8.173362	3.090795	5.727673	1.000824	-0.101556	-0.369458	-0.84668	0.029541	-0.206299
534.0	8.678203	3.884385	5.81267	0.794728	-0.084764	-0.250584	-0.853027	0.029541	-0.208496
535.0	8.314543	3.021666	7.956322	-0.29844	0.598129	0.100015	-0.844482	0.029541	-0.217773
536.0	6.897054	2.833917	6.892768	-0.557856	0.961482	0.478231	-0.848877	0.033936	-0.215576
537.0	8.148599	7.651771	6.384695	1.717336	0.320642	1.206947	-0.855713	0.036133	-0.222412
538.0	9.191996	14.743737	20.65587	2.300318	0.521943	1.789891	-0.849365	0.044922	-0.233887
539.0	3.415872	10.207397	11.498709	-2.555254	1.628776	1.665927	-0.845947	0.0625	-0.245605
540.0	-0.026045	3.181728	5.78241	-4.981274	1.328222	1.721144	-0.840332	0.086426	-0.248535
541.0	0.724093	2.551186	1.934249	-1.532748	-0.731741	2.084597	-0.84082	0.097412	-0.248779
542.0	4.031375	5.568644	3.877958	5.174536	-1.874834	2.230109	-0.854004	0.099365	-0.237305
543.0	7.313315	15.823736	14.612926	6.781023	-1.141199	2.068053	-0.860352	0.094971	-0.248535
544.0	5.349827	20.45184	11.596235	0.47935	-0.003567	1.395113	-0.861084	0.108154	-0.253418
545.0	2.262678	10.637687	10.527085	-3.858739	0.055104	1.097068	-0.859619	0.125732	-0.262939
546.0	2.895297	4.541925	10.844087	-2.563787	-0.15026	0.57304	-0.864258	0.129883	-0.271973
547.0	2.142714	3.523702	9.336592	1.297611	-0.215058	0.014578	-0.87207	0.112549	-0.2854
548.0	2.697319	6.773714	11.555569	3.425406	-0.566246	-0.326854	-0.879395	0.082031	-0.29834
549.0	5.256394	9.82887	13.716175	2.636308	-0.217458	-0.694588	-0.883057	0.062256	-0.320801
550.0	4.665789	8.79231	12.420498	0.602119	0.396061	-1.053842	-0.879883	0.042725	-0.350098
551.0	4.217145	5.686034	11.795338	-0.100129	0.531104	-1.281797	-0.880859	0.016602	-0.37915
552.0	3.957585	3.818196	10.619087	0.478955	0.501618	-1.50468	-0.861572	-0.024658	-0.414795
553.0	3.79738	3.507447	9.666775	1.034203	0.27826	-1.656506	-0.842285	-0.070313	-0.441406
554.0	4.567206	3.770197	9.410647	0.885093	0.097582	-1.6996	-0.812256	-0.102783	-0.468018
555.0	5.122717	3.486446	8.903968	0.303566	0.015787	-1.642911	-0.769287	-0.137207	-0.490234
556.0	5.834619	2.617121	8.354607	-0.326946	-0.13918	-1.51309	-0.731201	-0.160889	-0.51709
557.0	8.316806	1.928188	8.385876	-0.527243	-0.371069	-1.30463	-0.678223	-0.175781	-0.532959
558.0	11.342871	2.06964	9.160682	-0.292115	-0.123255	-1.116161	-0.627686	-0.186523	-0.541992
559.0	12.042354	2.451456	10.163205	-0.634656	0.484114	-0.973418	-0.562256	-0.186035	-0.548828
560.0	11.845318	1.206228	9.970691	-1.772285	0.949456	-0.8181	-0.506104	-0.17041	-0.560547
561.0	11.452871	-1.094999	9.033162	-2.487893	1.270154	-0.75824	-0.439453	-0.150146	-0.570068
562.0	10.790886	-3.000344	7.254668	-2.439561	1.448007	-0.778485	-0.368896	-0.119141	-0.568604
563.0	10.184834	-4.122905	5.343056	-1.712924	1.406312	-0.813453	-0.308594	-0.103516	-0.555176
564.0	10.106591	-4.258852	3.831122	-0.633313	1.235978	-0.788844	-0.246338	-0.081543	-0.539795
565.0	9.963532	-3.687952	3.242791	0.242089	1.061597	-0.752726	-0.190674	-0.057129	-0.506104
566.0	10.184931	-2.959875	3.273513	0.356592	0.862171	-0.71358	-0.13501	-0.035156	-0.472412
567.0	10.647095	-2.389032	2.694747	-0.183732	0.663206	-0.653568	-0.092773	0.0	-0.436768
568.0	10.796071	-2.079	1.43421	-0.999702	0.66243	-0.534454	-0.052979	0.035156	-0.394287
569.0	10.524258	-2.356089	0.194713	-1.939535	0.74412	-0.37726	-0.028564	0.074463	-0.342529
570.0	10.501338	-3.191465	-0.990547	-2.699097	0.714798	-0.258707	-0.008545	0.111572	-0.297852
571.0	10.889262	-4.297331	-2.157059	-2.675002	0.520231	-0.201194	0.009766	0.14209	-0.243652
572.0	12.029525	-5.063398	-3.136764	-1.612796	0.342027	-0.24362	0.019531	0.168213	-0.212402
573.0	11.350349	-4.526059	-3.696758	-0.01286	0.580887	-0.23058	0.027344	0.187744	-0.174072
574.0	9.627345	-3.297305	-3.146478	0.613578	0.80532	-0.078524	0.029053	0.203125	-0.137939
575.0	8.270247	-2.537635	-2.675141	0.055715	0.518624	0.24594	0.039063	0.222656	-0.101807
576.0	8.0816	-2.320699	-3.023738	-0.832331	-0.562612	0.599624	0.044678	0.23999	-0.079346
577.0	10.245256	-2.695955	-3.434101	-0.877588	-1.913587	0.66768	0.052979	0.253174	-0.050049
578.0	14.750658	-3.111095	-2.421661	0.334942	-2.426612	0.424774	0.067627	0.266357	-0.03418
579.0	15.662491	-1.351253	-1.038148	2.441422	-0.844964	-0.047151	0.07373	0.272949	-0.025391
580.0	11.335096	1.638724	-0.842125	1.959314	0.631357	-0.088141	0.090576	0.288086	-0.007324
581.0	9.189791	1.148041	1.330529	-0.473024	0.49477	0.469245	0.10791	0.292725	0.003906
582.0	11.478109	-3.794123	6.505322	-2.470329	-0.656115	0.815431	0.125	0.299316	0.02417
583.0	12.293876	-2.307194	2.601749	-2.067401	-0.980822	0.807809	0.146484	0.308105	0.02417
584.0	3.069976	0.53471	4.434461	5.202964	-0.804277	0.971448	0.165527	0.319092	0.014648
585.0	1.607599	8.929874	5.444671	8.547661	-1.376503	0.865857	0.191406	0.325928	-0.005859
586.0	11.386513	21.886181	5.134369	6.12234	-4.79742	1.442809	0.210205	0.345703	-0.013184
587.0	18.392884	19.647635	2.116708	-3.118602	-4.226369	1.111532	0.227295	0.354492	0.013916
588.0	15.04078	4.596023	0.629183	-8.911367	-0.905062	0.324965	0.230957	0.365234	0.05249
589.0	31.4183	-14.005317	19.278686	-7.004083	3.762487	1.42075	0.225098	0.354248	0.084473
590.0	4.651721	-4.963906	-5.326315	-1.783703	1.221766	-0.886759	0.220459	0.358643	0.089111
591.0	2.215742	-3.015424	-5.213622	3.358661	-1.597165	-0.182352	0.229004	0.36084	0.059326
592.0	13.078269	1.803139	7.839923	5.338728	-1.627439	0.425073	0.229004	0.363281	0.045654
593.0	12.651027	7.736894	12.123184	3.141678	1.834965	-0.292502	0.233643	0.358887	0.034424
594.0	4.204801	5.841753	4.432283	-1.316368	0.477061	-0.13914	0.231201	0.361084	0.045654
595.0	8.372221	1.620522	7.310949	-3.644976	-1.290066	-0.019199	0.231201	0.361084	0.057129
596.0	10.124218	-2.316957	4.538281	-1.931082	0.053956	-0.144879	0.229004	0.363037	0.063965
597.0	6.975958	-1.207802	0.814135	0.942519	-0.216298	-0.209303	0.22876	0.369629	0.056885
598.0	9.865141	1.734017	6.125725	2.298393	-0.03414	-0.190203	0.231201	0.363281	0.045654
599.0	7.680053	3.7838	7.279645	1.082822	0.344848	-0.225047	0.22876	0.369629	0.043213
600.0	7.531907	2.718189	6.299053	-0.665214	-0.434188	-0.193206	0.237793	0.363281	0.047852
601.0	8.80156	0.720865	5.036796	-0.751374	-0.477123	-0.212876	0.23291	0.371826	0.050049
602.0	8.298169	0.111873	3.717117	0.348441	-0.296217	-0.248778	0.23291	0.371826	0.04541
603.0	8.678919	1.231039	5.215615	1.020212	-0.200465	-0.326865	0.23291	0.374023	0.040771
604.0	8.230458	2.086633	6.053679	0.737918	-0.20515	-0.386416	0.234863	0.378418	0.040771
605.0	8.460431	2.031009	5.462241	0.332554	-0.421502	-0.419174	0.234863	0.380615	0.036133
606.0	8.649785	1.657028	4.764812	0.41984	-0.384404	-0.446723	0.234863	0.378418	0.031738
607.0	8.775269	1.741667	4.736525	0.595293	-0.282352	-0.485445	0.236816	0.382813	0.031494
608.0	9.000896	2.153549	4.870877	0.73955	-0.243869	-0.487347	0.236572	0.387207	0.02002
609.0	9.382824	1.964671	4.453383	0.45507	-0.304449	-0.445225	0.234131	0.391602	0.02002
610.0	9.844353	1.509353	4.143209	0.140391	-0.153263	-0.409031	0.23877	0.387207	0.017822
611.0	9.633202	1.221569	4.925399	0.320878	0.303967	-0.372652	0.234619	0.38501	0.010986
612.0	8.794981	0.382196	6.388923	0.202613	0.453863	-0.20754	0.234131	0.393799	0.008545
613.0	8.612051	-1.704046	8.520957	-0.253387	0.608072	0.108077	0.232178	0.389404	0.008789
614.0	7.362245	-4.861711	9.677375	-0.485484	0.976869	0.773546	0.230225	0.382813	0.020264
615.0	5.800499	-5.033102	6.11518	0.843678	0.933795	1.365191	0.23291	0.374268	0.024902
616.0	6.448967	1.572536	-0.891321	4.189683	0.112611	1.353538	0.242432	0.354492	0.016113
617.0	7.149327	10.273283	-3.048565	7.999949	-0.668506	0.786275	0.262939	0.337402	-0.017578
618.0	9.877638	23.854812	-1.243933	6.283103	-0.184415	-0.164075	0.276611	0.322266	-0.040283
619.0	11.038271	14.04684	13.623913	-4.997443	1.253619	0.475587	0.284424	0.341797	-0.015625
620.0	6.943768	-0.767839	9.5107	-9.294001	1.235765	-0.143785	0.286133	0.350586	0.016113
621.0	4.240286	-5.836292	2.292373	-4.440852	-0.926981	-0.058878	0.283691	0.361328	0.020508
622.0	6.95176	-3.585077	-2.347519	1.56802	-2.382155	-0.044965	0.291992	0.370117	0.009033
623.0	10.440526	0.228046	-1.620444	5.704141	-2.206926	0.132238	0.294434	0.36377	-0.022705
624.0	12.440182	5.022298	4.634381	5.938077	0.255037	0.135609	0.302979	0.368164	-0.043457
625.0	9.816253	8.746622	6.304335	1.675441	1.970611	-0.17449	0.298828	0.36377	-0.043213
626.0	6.814578	6.435053	8.746756	-2.184634	1.694297	0.100584	0.296387	0.368164	-0.027344
627.0	6.123656	2.900144	7.842612	-3.152266	0.043658	0.293819	0.292236	0.36377	-0.020508
628.0	8.002226	1.952692	3.11893	-1.573605	-0.840659	0.519382	0.298584	0.368164	-0.020508
629.0	9.063166	3.146252	2.165803	0.303628	-0.881172	0.799258	0.300781	0.365967	-0.016113
630.0	10.556445	5.185874	2.992683	0.456758	-0.278905	1.039326	0.303223	0.359375	-0.013672
631.0	10.534945	4.734763	4.399536	-1.573799	0.909869	1.125918	0.303467	0.357178	0.0
632.0	9.526784	2.385012	4.435206	-3.219893	1.797921	1.04868	0.301514	0.352783	0.00708
633.0	7.09683	1.215989	7.296648	-1.450151	1.925276	1.262247	0.284668	0.337402	0.01416
634.0	4.420482	0.130145	10.458644	0.052396	-0.337557	1.574258	0.297852	0.333252	0.009766
635.0	7.245411	0.878946	8.54984	-0.492179	-1.434734	1.401957	0.291504	0.333008	0.016602
636.0	7.434001	0.81421	6.967728	-1.035656	-1.509509	1.352171	0.291504	0.330811	0.02124
637.0	5.744679	-0.389294	8.156423	-0.823692	-1.64662	1.307267	0.289307	0.333008	0.023438
638.0	5.187672	-0.962965	8.640053	-0.125825	-2.393547	1.210917	0.300293	0.331055	0.018799
639.0	5.206276	-0.034499	6.786968	0.555681	-3.407674	1.233415	0.298096	0.331055	0.016602
640.0	5.230315	1.34209	7.38358	0.919435	-4.496919	1.399751	0.306152	0.343994	0.00708
641.0	5.244347	3.155602	9.149284	0.423581	-5.543299	1.686993	0.312744	0.344238	0.00708
642.0	7.552514	3.934701	7.486747	-0.882901	-6.317275	2.222427	0.327393	0.357422	0.0
643.0	9.451944	2.661694	7.047107	-2.053431	-6.832522	2.414964	0.33374	0.361816	0.018311
644.0	14.644126	0.675763	6.100269	-1.748296	-6.57994	1.928095	0.353271	0.366211	0.013428
645.0	24.543559	3.106092	2.838566	-1.765331	-7.823385	2.805569	0.353271	0.366211	0.013428
646.0	23.741669	8.018356	8.613093	-2.093235	-7.384667	3.208468	0.354004	0.348877	0.018555
647.0	19.740374	7.778157	11.310791	-4.074243	-7.895745	4.259217	0.354492	0.337891	0.04834
648.0	17.245616	2.642662	5.9185	-3.873094	-8.808673	4.540964	0.351074	0.315918	0.051025
649.0	19.908371	-0.881761	1.789265	-1.662552	-8.412826	4.000958	0.345215	0.302734	0.071777
650.0	28.468157	0.582393	1.102555	2.739662	-8.613328	3.226622	0.338867	0.296143	0.062744
651.0	32.135153	5.906338	12.22891	5.4185	-7.386881	2.939169	0.312988	0.291504	0.074219
652.0	33.231077	24.685786	29.716671	5.169475	-4.379758	2.530627	0.288086	0.308838	0.09668
653.0	16.819147	37.271422	13.633479	3.527233	-1.253422	1.419167	0.248291	0.319336	0.151367
654.0	12.275922	37.624449	30.814103	-4.176634	0.228188	0.072353	0.197998	0.327637	0.224121
655.0	17.642262	10.81878	25.463502	-9.063661	2.24412	-0.488099	0.13916	0.326904	0.303955
656.0	4.095693	-4.073368	15.559806	-3.382332	4.388224	-1.168498	0.075439	0.337402	0.354004
657.0	1.120237	-0.011593	9.784793	4.174882	3.428769	-0.836571	0.013184	0.361084	0.367432
658.0	6.8522	8.976599	16.868165	6.790101	3.296808	-0.66018	-0.058105	0.393311	0.359863
659.0	8.998618	14.393051	16.321819	3.442522	4.899335	-0.94713	-0.132324	0.397217	0.369141
660.0	9.004979	10.688289	12.268484	-0.25581	5.388626	-1.189495	-0.197998	0.401123	0.366699
661.0	12.092904	6.630096	13.603692	-0.697207	6.110936	-1.708426	-0.273926	0.391846	0.366943
662.0	10.811427	4.090855	9.932196	0.915307	6.980266	-2.535966	-0.351807	0.378418	0.340088
663.0	9.395568	4.199114	8.264897	1.741047	7.176849	-3.040163	-0.414307	0.360596	0.313232
664.0	9.506375	3.92551	7.769426	1.32817	7.283196	-3.164884	-0.467773	0.340576	0.288574
665.0	9.116017	2.676873	6.321329	0.865935	7.247667	-3.048016	-0.52417	0.329346	0.263672
666.0	9.50263	1.468038	4.896949	1.036147	6.90864	-2.825746	-0.57251	0.337891	0.21582
667.0	9.502882	0.963564	3.244095	1.733301	6.414595	-2.593173	-0.615967	0.335693	0.158936
668.0	8.970576	1.253506	1.620301	2.382708	5.650192	-2.438645	-0.648193	0.324707	0.088379
669.0	10.139253	3.688879	0.369648	3.230858	4.326388	-2.244233	-0.671631	0.313721	0.04541
670.0	15.363103	6.943061	3.626263	3.602867	3.207193	-2.360565	-0.685547	0.281006	0.009521
671.0	21.895825	9.068034	8.952751	1.901961	3.549681	-2.922538	-0.712891	0.256836	-0.031006
672.0	19.472902	5.765526	6.777487	-0.424314	3.89874	-3.4918	-0.724609	0.230713	-0.05542
673.0	18.308854	0.797168	5.516832	-1.238511	3.033644	-3.550193	-0.734131	0.195801	-0.082031
674.0	20.616668	-3.377665	5.890111	-1.195078	1.915323	-3.70687	-0.735107	0.169678	-0.090576
675.0	24.953889	-6.048248	5.561595	-0.276386	0.98162	-3.882677	-0.748779	0.136719	-0.099121
676.0	31.59421	-7.963174	5.619396	1.406056	0.452438	-4.094918	-0.751465	0.095459	-0.118896
677.0	34.787674	-8.207218	4.706864	2.367053	1.394808	-4.38875	-0.75415	0.060547	-0.131836
678.0	31.94458	-9.537986	1.542852	0.48552	3.455551	-4.704813	-0.741211	0.014893	-0.162842
679.0	27.516645	-12.136694	-2.320109	-2.018118	5.469506	-4.898779	-0.724854	-0.009033	-0.19873
680.0	19.935226	-14.495866	-8.621782	-3.763533	6.519846	-4.55994	-0.695313	-0.034912	-0.246338
681.0	18.714174	-19.992748	-20.697585	-4.815461	6.630424	-2.930305	-0.666748	-0.043213	-0.278076
682.0	15.046434	-22.513026	-34.866068	-1.241293	2.947246	0.014194	-0.657715	-0.047607	-0.284668
683.0	15.828546	-21.069387	-26.694141	3.483596	-1.519595	-0.764777	-0.652588	-0.065186	-0.261719
684.0	20.288296	-19.331172	-18.388886	2.238039	-3.216817	-0.735198	-0.656494	-0.076172	-0.236328
685.0	24.194268	-15.596375	-19.869533	1.539077	-1.508696	-0.907323	-0.649658	-0.080322	-0.233887
686.0	23.096942	-13.731702	-17.869389	1.123169	0.298403	-0.177152	-0.647217	-0.089111	-0.231445
687.0	21.051999	-12.00907	-10.856308	-0.966352	0.238479	0.715118	-0.641357	-0.07373	-0.243164
688.0	8.977499	-17.752104	-10.947494	-6.521774	-1.466732	3.321039	-0.636475	-0.034424	-0.234863
689.0	0.020519	0.155833	-25.407785	-4.479261	-0.514268	4.399765	-0.644531	-0.001709	-0.237793
690.0	24.315199	3.749265	-3.865579	12.419771	-8.36038	5.832773	-0.665283	-0.023926	-0.196289
691.0	31.26585	22.639261	39.510921	17.528623	-4.026575	2.362543	-0.668945	-0.039307	-0.159668
692.0	11.141284	33.174015	-5.233315	-6.735766	-7.151193	0.975865	-0.664063	-0.002197	-0.126221
693.0	17.865901	-2.423813	3.153827	-18.101004	-4.273125	2.724651	-0.660889	0.023926	-0.124268
694.0	51.828884	-29.211133	10.864739	-8.002305	4.637844	1.758734	-0.648682	0.043701	-0.161133
695.0	18.646032	-17.257887	4.820753	2.365439	2.126043	2.327489	-0.654785	0.032715	-0.140381
696.0	2.255939	-0.515586	-3.486146	5.398528	-4.913978	-1.471946	-0.658936	0.026123	-0.126709
697.0	14.841505	5.381039	2.258971	-0.907804	2.990007	1.134266	-0.652588	0.030762	-0.154053
698.0	9.229358	2.139339	13.698489	-0.143596	3.096451	0.065904	-0.650635	0.037354	-0.170166
699.0	1.029957	0.512591	9.530019	-1.625477	0.854412	0.151215	-0.652832	0.037109	-0.167969
700.0	7.982333	-0.860097	5.163412	-1.11748	-1.571979	0.072243	-0.646484	0.043701	-0.156738
701.0	10.621859	-0.400505	3.559199	0.092951	-0.464444	-0.081298	-0.650879	0.041504	-0.156738
702.0	8.192096	1.009165	3.876004	0.683809	0.441676	-0.109576	-0.655029	0.037109	-0.16333
703.0	7.611265	1.298047	7.727805	0.318095	0.309935	-0.147356	-0.652588	0.032959	-0.158691
704.0	6.993384	1.262301	7.378498	0.050152	-0.354799	-0.196254	-0.655029	0.039307	-0.158936
705.0	7.881132	0.533954	5.60761	-0.127726	-0.796132	-0.232004	-0.655029	0.034912	-0.154297
706.0	8.627332	0.217505	4.831218	0.217009	-0.634488	-0.33753	-0.652344	0.028564	-0.149414
707.0	8.169595	0.486527	5.14048	0.740527	-0.518544	-0.418403	-0.654785	0.030518	-0.149658
708.0	7.935387	0.622294	6.023648	0.776924	-0.482951	-0.524936	-0.658936	0.026123	-0.149414
709.0	7.846045	1.171815	5.634676	0.843844	-0.674032	-0.609436	-0.658691	0.019775	-0.142578
710.0	8.321868	2.447817	4.960031	0.985953	-0.872626	-0.613677	-0.658447	0.015381	-0.137939
711.0	9.047358	3.707562	4.644327	0.852873	-0.747354	-0.51179	-0.660645	0.015381	-0.137939
712.0	9.232084	4.047674	4.43907	0.417586	-0.43594	-0.35097	-0.658447	0.015381	-0.140137
713.0	9.104994	3.635713	4.477745	0.181512	-0.121116	-0.182093	-0.658203	0.013184	-0.142334
714.0	8.591528	3.585154	4.722072	0.224214	0.023278	-0.010817	-0.662598	0.010986	-0.142334
715.0	8.714583	3.743849	5.06011	0.009978	0.060986	0.145992	-0.669678	0.021729	-0.147217
716.0	8.783178	3.247095	4.958315	-0.380975	0.1687	0.304216	-0.669922	0.02832	-0.149414
717.0	8.753512	1.79454	4.545422	-0.685716	0.205343	0.402275	-0.689697	0.032471	-0.140381
718.0	8.487245	1.062123	3.910966	-0.315161	0.261999	0.369047	-0.704346	0.01709	-0.126465
719.0	8.387865	1.233006	4.642551	0.300811	0.51046	0.306531	-0.693604	-0.02417	-0.123291
720.0	7.992341	1.663372	5.853358	0.383658	0.599211	0.238324	-0.671875	-0.02417	-0.136963
721.0	7.56588	1.286189	6.522018	0.021236	0.430738	0.168465	-0.659424	-0.010742	-0.155518
722.0	7.417751	0.549067	6.308564	-0.1712	0.101547	0.060185	-0.657959	0.004395	-0.151367
723.0	7.795577	0.955282	5.36783	0.053752	-0.238835	-0.053399	-0.658203	0.010986	-0.156006
724.0	8.30354	1.710853	5.169481	0.302108	-0.290051	-0.056679	-0.6604	0.010986	-0.14917
725.0	8.530897	2.29883	5.269576	-0.026508	-0.106782	-0.036033	-0.665039	0.015381	-0.151611
726.0	8.795042	3.164521	4.583711	-0.269418	0.032509	0.05223	-0.660889	0.019775	-0.153809
727.0	8.988627	4.128183	4.36865	-0.252129	0.182552	0.260125	-0.669678	0.021729	-0.154053
728.0	9.529696	4.395001	4.859156	-0.613041	0.510041	0.552561	-0.66333	0.026123	-0.154053
729.0	9.12452	3.544739	5.036144	-1.088021	0.857526	0.834649	-0.66333	0.030518	-0.165527
730.0	8.270965	2.782684	5.077028	-1.08502	1.005358	0.990388	-0.666016	0.041504	-0.172607
731.0	7.032075	2.8324	8.518767	0.091277	0.594613	1.300967	-0.664063	0.045898	-0.17041
732.0	6.289914	2.001062	9.953394	-0.657014	-0.592771	1.490475	-0.670898	0.05249	-0.166016
733.0	7.086814	0.33706	8.337346	-1.38181	-1.228295	1.491168	-0.671387	0.063232	-0.154785
734.0	6.498055	-0.884741	6.982516	-1.402981	-1.479417	1.400599	-0.665283	0.072021	-0.143555
735.0	5.592459	-1.082961	7.199647	-0.597058	-1.940092	1.31857	-0.672363	0.082764	-0.134521
736.0	5.299033	-0.67645	7.824512	0.180537	-2.675704	1.323772	-0.677002	0.089355	-0.114258
737.0	5.683195	0.592651	7.915004	0.540364	-3.492538	1.397081	-0.675049	0.095703	-0.091553
738.0	6.016818	2.054976	8.230267	0.369209	-4.353528	1.629622	-0.669189	0.113281	-0.062256
739.0	6.514984	3.158828	8.649846	-0.553857	-5.500385	2.015777	-0.669678	0.124023	-0.02832
740.0	4.894282	3.38818	10.720571	-1.423464	-6.366327	2.230254	-0.659424	0.137207	0.010254
741.0	8.204454	-0.382927	9.118141	-1.766639	-6.270455	1.688943	-0.646729	0.145752	0.051025
742.0	9.115642	0.365691	3.223607	-0.340967	-7.012707	1.590401	-0.62793	0.16333	0.093994
743.0	28.302877	1.089116	5.524408	-0.141087	-9.103555	2.527722	-0.597656	0.172119	0.12793
744.0	21.702959	8.604103	10.649953	-1.06836	-7.900003	2.738606	-0.567627	0.180908	0.175537
745.0	21.556539	6.130734	9.902905	-1.829233	-8.871835	4.297317	-0.53125	0.196289	0.225342
746.0	18.508117	4.200838	6.348837	-2.103922	-9.721439	5.042529	-0.477295	0.211914	0.270508
747.0	24.845676	-1.731119	5.560352	-1.994501	-9.402932	5.171733	-0.42334	0.225098	0.304443
748.0	33.658686	1.59473	4.546368	2.712921	-9.46312	4.398686	-0.367432	0.24292	0.322266
749.0	34.640981	13.35558	21.172309	5.295067	-7.988478	3.991195	-0.316406	0.269531	0.330811
750.0	31.666981	26.219516	30.670127	1.639049	-5.058271	3.574242	-0.270996	0.278564	0.332764
751.0	24.143262	30.516482	12.614985	2.090619	-2.613765	2.37364	-0.253906	0.285156	0.341797
752.0	23.300834	36.096941	30.155276	-2.816481	1.117455	0.621375	-0.259521	0.267578	0.34668
753.0	15.508999	14.079632	25.320842	-7.322004	4.417869	-0.526677	-0.269775	0.25	0.365234
754.0	4.384869	-0.930489	14.465056	-2.51683	4.132593	-0.834461	-0.282959	0.256592	0.360596
755.0	4.188821	3.398186	11.818555	3.800206	3.231387	-1.078746	-0.297119	0.276123	0.339844
756.0	7.101477	10.603748	15.759374	4.106148	3.9719	-1.309182	-0.323975	0.295654	0.321045
757.0	6.901227	10.794248	12.482751	1.276416	4.880767	-1.552252	-0.356689	0.293213	0.305176
758.0	7.06349	6.804604	10.861131	0.028775	5.257067	-1.714336	-0.400391	0.295166	0.273438
759.0	8.690245	3.988404	11.453463	0.693696	5.649005	-2.208454	-0.445068	0.270996	0.223877
760.0	9.643157	3.356641	10.619478	1.688134	6.076873	-2.982798	-0.45166	0.21875	0.147217
761.0	10.131092	3.673442	9.715737	1.898832	6.516934	-3.719873	-0.404541	0.143066	0.075928
762.0	10.046713	3.105597	8.209471	1.685433	6.765447	-4.037673	-0.297119	0.080322	0.067871
763.0	10.364332	2.19426	7.282572	1.49969	6.777423	-3.935721	-0.191895	0.072021	0.140869
764.0	11.353699	1.578136	7.080629	1.456632	6.768819	-3.766936	-0.144043	0.120117	0.235596
765.0	13.180509	1.401539	7.300281	1.572888	6.649041	-3.603718	-0.177002	0.176514	0.300537
766.0	14.239491	0.689808	7.082413	1.663215	6.663641	-3.441633	-0.230469	0.202393	0.313721
767.0	12.439832	-0.750867	5.513371	1.62924	6.466259	-3.172492	-0.278564	0.206543	0.311523
768.0	11.713215	-1.789274	3.745397	1.805351	5.521088	-2.875993	-0.306885	0.201904	0.30249
769.0	14.786471	0.185406	2.557954	3.531758	3.707952	-2.791507	-0.318848	0.228027	0.308838
770.0	21.853173	5.388959	5.711783	5.482636	1.968815	-3.027529	-0.334229	0.275879	0.303223
771.0	27.070735	10.164062	7.801996	3.439815	1.969669	-3.49347	-0.391113	0.332275	0.304443
772.0	26.052527	5.508704	4.044717	-1.462378	1.967498	-3.770178	-0.490967	0.368896	0.276611
773.0	29.744908	-7.458875	2.182877	-4.135567	2.974186	-4.164503	-0.619873	0.374756	0.203613
774.0	31.748128	-13.086343	-1.69685	-1.331173	3.974495	-4.860408	-0.724609	0.326416	0.070313
775.0	29.836481	-11.186725	-2.077456	2.400013	3.323293	-4.579547	-0.766357	0.234863	-0.082764
776.0	29.371428	-9.455116	1.756213	2.252266	3.266763	-4.472123	-0.696777	0.141846	-0.19043
777.0	24.830807	-11.450026	-2.586896	-1.612946	3.156531	-4.201168	-0.590088	0.098877	-0.230713
778.0	22.194547	-15.071861	-12.697173	-4.41659	3.00719	-3.7636	-0.494141	0.099365	-0.205811
779.0	21.389756	-18.665656	-26.367008	-3.500415	3.13295	-2.809157	-0.429688	0.119385	-0.158447
780.0	18.983611	-22.32226	-31.875898	0.041105	2.304298	-1.425505	-0.408936	0.143311	-0.111084
781.0	17.84302	-21.708295	-24.144884	1.313383	-0.025644	-1.45097	-0.407715	0.165039	-0.059082
782.0	19.220043	-20.109047	-18.576069	0.701625	-0.3862	-0.930215	-0.415527	0.191162	-0.020752
783.0	18.615346	-18.480846	-18.938135	0.079638	0.137943	-0.005721	-0.422852	0.210693	0.019775
784.0	18.930676	-17.286081	-15.110882	-0.42728	-0.386706	0.924486	-0.428711	0.243164	0.064697
785.0	23.249601	-17.82672	-8.255553	0.010969	-0.209317	1.645418	-0.429688	0.264893	0.089355
786.0	19.617063	-12.847785	-7.06096	0.606598	0.111155	1.974921	-0.422363	0.29541	0.120605
787.0	8.272359	-10.317805	-5.811175	-3.703001	-2.066484	4.110034	-0.401611	0.323975	0.177002
788.0	-5.31687	11.810189	-21.145914	0.481936	-1.000636	4.796419	-0.377686	0.37207	0.182861
789.0	25.026463	24.940122	16.630515	19.693095	-2.751439	5.631245	-0.350586	0.446533	0.16333
790.0	20.594149	38.615866	26.937922	3.605896	-6.922189	1.947076	-0.34082	0.474609	0.237793
791.0	3.344758	16.169946	-8.797813	-13.819919	-9.725168	1.682003	-0.320801	0.463623	0.379395
792.0	27.728112	-24.709159	-17.352202	-21.101299	-4.590291	0.9311	-0.325195	0.41748	0.455566
793.0	71.304429	-47.700658	9.685063	4.829509	8.642115	4.228278	-0.338867	0.480957	0.369873
794.0	6.882837	2.094433	8.07853	11.822981	1.337208	0.315025	-0.331299	0.505127	0.344482
795.0	3.264268	16.175457	12.989029	-0.573352	-1.220583	-1.055014	-0.339111	0.487549	0.360596
796.0	6.525463	4.833936	9.431752	-6.676617	1.329515	1.109846	-0.335938	0.463379	0.393066
797.0	8.027412	-6.085684	5.10702	-5.20606	-0.885564	-0.166525	-0.3396	0.450195	0.406982
798.0	8.195025	-4.809501	-1.558677	0.772587	-0.584593	-0.067061	-0.335938	0.463379	0.395264
799.0	10.07473	1.597601	3.50554	3.587563	0.088355	0.055604	-0.338623	0.474365	0.376953
800.0	9.693096	5.084447	9.070037	1.66893	1.435665	-0.116342	-0.338623	0.476563	0.370117
801.0	4.827423	3.20058	8.21123	-0.675255	0.496929	-0.06857	-0.342773	0.467773	0.376953
802.0	7.6383	1.741393	6.470429	-1.423314	-1.03142	0.005911	-0.338135	0.463379	0.390869
803.0	9.712714	0.641303	4.462548	-1.042696	-0.500913	0.004303	-0.33374	0.461182	0.38623
804.0	8.464029	-0.002359	3.584501	0.046064	0.234768	-0.020677	-0.338379	0.469971	0.392822
805.0	8.006036	1.064438	6.205795	0.731656	0.324178	-0.034342	-0.338379	0.469971	0.385986
806.0	7.585294	1.972733	7.086326	0.445622	0.066333	-0.059821	-0.34082	0.472168	0.383789
807.0	7.689647	1.966914	6.011692	-0.173843	-0.296794	-0.04941	-0.336182	0.469971	0.385986
808.0	8.353032	1.395753	5.604653	-0.323576	-0.311556	-0.030325	-0.331787	0.467773	0.383789
809.0	8.361864	1.342849	5.104355	0.052434	-0.104848	-0.010212	-0.333984	0.469971	0.385986
810.0	8.41738	2.102199	5.245126	0.353619	0.025589	0.027901	-0.333984	0.469971	0.383789
811.0	8.402513	2.592564	5.639041	0.108523	0.118512	0.079105	-0.333984	0.469971	0.385986
812.0	8.162133	2.456087	5.404341	-0.425968	0.098682	0.126411	-0.336426	0.476563	0.383789
813.0	8.35762	2.152149	5.378306	-0.586283	0.113267	0.204957	-0.336426	0.476563	0.37915
814.0	8.082805	1.917686	5.398329	-0.534517	0.230821	0.206913	-0.345215	0.476563	0.37915
815.0	8.229402	1.700643	5.820321	-0.378008	0.302712	0.266247	-0.360352	0.474121	0.390625
816.0	7.995232	1.679306	5.549668	-0.48839	0.168855	0.239286	-0.368164	0.452148	0.411621
817.0	8.14858	1.539419	5.719612	-0.534622	0.122235	0.273855	-0.362305	0.419678	0.412109
818.0	8.102863	1.112273	5.823905	-0.544928	0.131285	0.293013	-0.338135	0.415283	0.394043
819.0	7.910012	0.863181	5.670802	-0.49104	0.028609	0.298254	-0.330078	0.428467	0.38916
820.0	7.933158	0.478365	6.085081	-0.46905	0.010266	0.258041	-0.321777	0.44165	0.388916
821.0	7.525418	-0.025321	5.821589	-0.367458	-0.054676	0.181398	-0.328857	0.450439	0.395508
822.0	7.900205	0.167369	5.623297	-0.242524	-0.134319	0.026112	-0.322266	0.450439	0.397949
823.0	8.195566	0.625758	5.657853	0.175382	-0.087354	-0.006703	-0.324463	0.448242	0.391113
824.0	8.278111	1.538956	5.530425	0.27309	-0.068506	0.000401	-0.318359	0.461426	0.395264
825.0	8.58901	2.266112	5.522713	0.177885	0.094279	0.077102	-0.324951	0.459229	0.388672
826.0	8.667571	2.559038	5.674809	0.057715	0.248379	0.217538	-0.320557	0.459229	0.381836
827.0	8.625111	2.636023	5.713386	-0.05183	0.333948	0.387103	-0.322754	0.459229	0.390869
828.0	8.696192	3.501926	5.726851	0.210888	0.296957	0.602295	-0.316162	0.461426	0.381592
829.0	8.135099	3.635674	8.255631	0.327074	0.364286	1.035544	-0.320801	0.46582	0.374756
830.0	6.681279	2.322767	9.142714	-0.74912	-0.320936	1.273381	-0.314209	0.463623	0.377197
831.0	6.656224	0.152674	8.468758	-1.411167	-1.023028	1.402961	-0.311768	0.461426	0.384033
832.0	6.710164	-1.371982	6.955392	-1.23536	-1.345359	1.291124	-0.307617	0.46582	0.390625
833.0	6.006707	-1.458079	6.467251	-0.399637	-1.687609	1.243927	-0.312012	0.463623	0.395264
834.0	5.68354	-0.848823	7.654334	0.392422	-2.302418	1.305976	-0.294678	0.468018	0.395264
835.0	5.934824	0.248728	9.025569	0.430957	-3.118478	1.383329	-0.283936	0.472412	0.401855
836.0	5.905632	1.21214	9.174571	-0.275794	-3.808636	1.483752	-0.269043	0.476807	0.41333
837.0	5.737891	1.689995	7.760602	-0.755399	-4.434729	1.709939	-0.258057	0.479004	0.438232
838.0	4.730481	2.140675	7.867898	-0.434515	-5.253993	2.053697	-0.239014	0.48999	0.45166
839.0	6.565215	1.017439	10.978729	-1.020807	-6.50052	2.168834	-0.212646	0.48584	0.488281
840.0	8.084074	-0.001632	6.519337	-0.839629	-6.532474	1.325348	-0.182373	0.490234	0.506348
841.0	20.534596	1.444929	6.27509	-0.918641	-8.518941	2.259071	-0.160156	0.483887	0.52002
842.0	20.801738	4.65621	9.864582	-1.391781	-7.973256	2.478934	-0.122559	0.470947	0.531738
843.0	21.188316	3.743779	8.919182	-1.004041	-8.656589	3.034689	-0.087646	0.468994	0.533936
844.0	21.406491	4.630615	9.932891	-0.96448	-9.406014	4.293313	-0.04541	0.454102	0.541016
845.0	21.955087	2.749686	7.508637	-1.448385	-9.992892	5.003328	-0.007813	0.441162	0.545898
846.0	28.93684	1.935675	5.419237	0.00355	-9.340199	4.983346	0.029541	0.434814	0.536865
847.0	34.64401	5.817788	12.353119	3.094319	-8.547744	4.390757	0.048584	0.445801	0.520508
848.0	33.619392	15.49158	26.642038	3.94633	-6.815233	3.696231	0.059326	0.452637	0.509033
849.0	29.452957	30.63163	23.326444	2.865051	-3.950617	2.699136	0.034668	0.467773	0.501953
850.0	24.237239	43.122863	14.680355	1.446497	-0.928745	0.530371	-0.025635	0.451904	0.53418
851.0	19.103378	28.175258	30.975642	-9.246374	3.400093	-1.282638	-0.10376	0.392334	0.585693
852.0	7.024131	-0.953866	17.121835	-6.941022	3.730518	-0.898597	-0.165283	0.354736	0.611572
853.0	2.437435	-4.843489	8.521467	-0.229354	3.054808	-1.220918	-0.239746	0.358643	0.606934
854.0	4.867015	1.580327	10.342493	5.219508	2.760219	-1.022418	-0.297119	0.375977	0.579346
855.0	8.311553	10.590456	16.612914	4.955878	4.116749	-1.145495	-0.367432	0.388672	0.563232
856.0	6.493295	10.21429	11.816885	1.765927	5.194092	-1.253447	-0.425781	0.377441	0.533936
857.0	5.571791	6.111858	7.890081	0.426948	5.202425	-1.355229	-0.488525	0.366211	0.506836
858.0	7.224685	4.359821	8.047367	1.439162	5.53905	-1.652298	-0.553223	0.350586	0.468506
859.0	7.449235	5.170015	8.182293	2.097053	5.860398	-2.19235	-0.598389	0.333008	0.418701
860.0	7.855891	4.756255	7.648134	1.528685	6.015272	-2.67793	-0.640869	0.306641	0.360107
861.0	8.024619	2.832877	6.450215	1.214663	6.146802	-3.008107	-0.663574	0.278076	0.312744
862.0	8.201761	1.834336	5.479342	1.638541	6.134452	-3.178491	-0.678223	0.265137	0.269775
863.0	9.196796	2.280161	5.590066	2.308485	5.962421	-3.240426	-0.695801	0.269531	0.224121
864.0	11.044568	3.295807	6.844659	2.625723	5.972856	-3.395201	-0.709473	0.280518	0.164551
865.0	11.725419	3.910522	7.066678	2.448988	5.993726	-3.510948	-0.71582	0.276123	0.093994
866.0	12.13228	3.426693	6.428171	2.121256	5.631521	-3.454879	-0.711426	0.27417	0.037109
867.0	12.649043	2.710177	5.735638	2.167816	4.955899	-3.381242	-0.710693	0.26123	-0.003662
868.0	14.072872	3.16658	5.219784	2.39302	4.011288	-3.422482	-0.706055	0.252686	-0.037598
869.0	17.486587	4.578902	5.943024	2.465702	2.892716	-3.608597	-0.703369	0.241699	-0.057861
870.0	21.924002	5.383292	7.449207	1.872481	2.17485	-3.950973	-0.707764	0.239502	-0.0625
871.0	23.888264	4.212782	6.51451	0.505512	1.859453	-4.3335	-0.711426	0.226563	-0.069092
872.0	25.341352	-0.127712	5.31498	-0.859164	1.471257	-4.472822	-0.724365	0.224121	-0.069092
873.0	30.880662	-6.780387	5.296301	-0.988577	1.59903	-4.736946	-0.743164	0.206543	-0.073242
874.0	34.957899	-9.574012	3.734803	0.748482	2.284659	-5.049173	-0.757568	0.184814	-0.093262
875.0	35.461066	-9.121717	3.41948	1.346128	3.406522	-5.154086	-0.773926	0.160645	-0.115479
876.0	33.081688	-11.07683	3.234834	0.254805	4.408186	-5.115	-0.79248	0.134521	-0.151367
877.0	22.021815	-14.161273	-2.121552	-2.890093	4.496887	-4.976409	-0.797852	0.108398	-0.176025
878.0	18.785063	-19.236122	-18.213814	-7.228156	4.790213	-3.999972	-0.795898	0.112793	-0.208008
879.0	19.916406	-27.631921	-43.081731	-3.351789	3.00113	-0.880333	-0.804199	0.106201	-0.223877
880.0	18.492229	-28.681696	-32.264748	4.834042	-1.342777	-1.041903	-0.818848	0.093018	-0.212158
881.0	24.165931	-23.971956	-14.538651	2.998615	-2.118909	-1.056069	-0.82959	0.09082	-0.205322
882.0	23.470831	-18.550069	-21.703555	0.776257	0.922431	-0.086851	-0.823486	0.095215	-0.228027
883.0	18.399713	-17.335566	-24.109008	-0.731645	1.295683	1.128897	-0.823975	0.106201	-0.228271
884.0	18.2447	-17.010202	-11.506691	-2.847794	-0.945631	1.349519	-0.82666	0.121338	-0.219482
885.0	24.834182	-22.98274	-2.486651	-3.016697	-0.601963	2.91312	-0.822021	0.160645	-0.211182
886.0	-3.168715	-9.541982	-13.790917	-4.201372	-1.993019	4.373981	-0.81958	0.204346	-0.20752
887.0	4.260209	19.380659	-22.302758	9.955364	-1.525897	4.912053	-0.825928	0.199951	-0.228027
888.0	33.296208	36.989834	59.342903	19.020322	-6.084805	5.35207	-0.823975	0.204102	-0.180176
889.0	8.884321	37.485507	-6.164621	-11.259524	-9.910208	1.503092	-0.821777	0.256348	-0.044434
890.0	16.538942	-12.938532	-19.065153	-24.269818	-8.135017	1.153919	-0.811035	0.258301	0.021729
891.0	64.887223	-50.164883	-11.588858	-0.481462	4.074596	1.715152	-0.812256	0.284668	-0.051758
892.0	23.867421	-12.818761	20.565669	14.324625	4.92148	3.868087	-0.811768	0.273926	-0.090332
893.0	9.487822	20.697905	15.545947	1.616966	-2.940629	-2.310261	-0.80957	0.273926	-0.07666
894.0	4.751194	7.156924	4.81991	-8.766922	3.550314	1.845343	-0.801758	0.293457	-0.067871
895.0	5.960343	-9.899404	4.265685	-4.856973	-0.096872	0.197323	-0.803955	0.293457	-0.065674
896.0	7.951924	-5.105723	-0.674579	1.839261	-0.498236	0.130951	-0.801514	0.289307	-0.070068
897.0	10.062452	3.801789	5.984727	3.260619	0.310408	0.250158	-0.805908	0.29126	-0.077148
898.0	8.886818	5.931817	9.772613	-0.730472	1.247915	0.096132	-0.801758	0.293701	-0.095215
899.0	5.678657	-0.18211	7.217632	-2.158751	0.441248	0.14203	-0.803711	0.291504	-0.079346
900.0	7.755096	-1.297104	4.333813	-0.239726	-0.48271	0.058903	-0.79541	0.298096	-0.081787
901.0	9.239535	1.934313	5.016629	0.655504	-0.171538	0.067576	-0.803955	0.297852	-0.079346
902.0	8.457905	1.634718	6.41753	-0.359284	0.496756	0.096035	-0.799805	0.300049	-0.07959
903.0	7.045885	0.013751	6.412406	-0.247139	0.239346	0.043266	-0.803955	0.297852	-0.081787
904.0	7.85342	1.218686	6.292905	0.246374	-0.226386	0.004092	-0.803955	0.297852	-0.083984
905.0	8.390405	1.551528	5.898642	-0.170799	-0.09792	0.01367	-0.799805	0.297852	-0.081787
906.0	7.951534	0.696582	5.490821	-0.220437	0.077365	-1.8e-05	-0.810547	0.295654	-0.081787
907.0	7.95169	1.220224	6.037715	0.073252	0.006032	0.00041	-0.801758	0.293701	-0.086182
908.0	8.185201	2.077447	6.095608	-0.096867	-0.012991	0.046389	-0.797363	0.295898	-0.083984
909.0	8.336451	2.004217	5.654864	-0.403256	0.045368	0.119058	-0.802002	0.297852	-0.081787
910.0	8.371999	1.672687	5.527942	-0.419224	0.106546	0.194533	-0.802246	0.306641	-0.081787
911.0	8.404306	1.741818	5.544991	-0.366901	0.23842	0.208663	-0.795898	0.311035	-0.091064
912.0	8.191441	1.975629	5.83958	-0.385001	0.235709	0.290752	-0.794189	0.319824	-0.091309
913.0	8.213944	1.808553	5.833896	-0.577084	0.288852	0.363254	-0.800537	0.317627	-0.091309
914.0	8.063102	1.5114	5.836317	-0.592362	0.262285	0.40583	-0.809814	0.330566	-0.086914
915.0	8.091512	1.299934	5.813523	-0.575039	0.262971	0.460806	-0.824707	0.31958	-0.077637
916.0	7.991062	0.834385	5.923339	-0.593209	0.25486	0.477392	-0.826172	0.306396	-0.072754
917.0	7.781971	0.348373	5.866636	-0.550236	0.227863	0.468482	-0.814697	0.29126	-0.081543
918.0	7.568922	-0.149563	5.998791	-0.396823	0.157943	0.419162	-0.797607	0.300293	-0.093262
919.0	7.425518	-0.496569	6.079483	-0.232465	0.116631	0.318327	-0.791504	0.309082	-0.095703
920.0	7.576416	-0.651059	6.159616	-0.091513	0.041642	0.215372	-0.787598	0.319824	-0.091309
921.0	7.681771	0.388983	5.731612	0.23599	0.007671	0.142659	-0.794189	0.322021	-0.093506
922.0	8.114395	0.889541	6.083392	0.313236	-0.014296	0.167403	-0.790039	0.326416	-0.09375
923.0	8.216261	1.009381	6.041374	0.10718	0.11966	0.185692	-0.790283	0.330811	-0.098389
924.0	8.102981	0.972072	5.94939	0.176998	0.145704	0.228146	-0.788086	0.333008	-0.100586
925.0	8.225878	1.171773	6.221241	0.36822	0.085532	0.319627	-0.794678	0.333008	-0.100586
926.0	8.219767	1.962666	6.477865	0.576239	0.072579	0.384516	-0.790527	0.335205	-0.103027
927.0	7.342487	2.209037	8.564867	0.30873	0.037045	0.664593	-0.790283	0.333008	-0.100586
928.0	6.84107	1.348666	9.085489	-0.383574	-0.53045	0.811715	-0.786377	0.341797	-0.10083
929.0	6.679644	0.362127	7.974875	-0.691764	-1.11092	0.914914	-0.788818	0.348145	-0.087402
930.0	6.39065	-0.692997	7.319358	-0.69867	-1.374738	0.913169	-0.782715	0.359131	-0.07373
931.0	5.89487	-1.052012	7.419814	-0.413188	-1.718385	0.855664	-0.780762	0.361328	-0.057861
932.0	5.719843	-0.818024	8.183585	-0.176764	-2.336336	0.832785	-0.781494	0.376465	-0.042236
933.0	5.70253	-0.556197	8.702967	-0.324003	-2.981264	0.795958	-0.779541	0.385254	-0.019775
934.0	5.669808	-0.392726	8.074962	-0.588819	-3.618935	0.771808	-0.772949	0.383057	0.012207
935.0	5.744982	0.197001	6.576168	-0.207038	-4.439036	0.912044	-0.762695	0.395996	0.046143
936.0	5.278984	1.708945	7.734334	0.779525	-5.311341	1.245763	-0.754395	0.406982	0.08252
937.0	6.943787	2.508988	11.132546	-0.036343	-6.505076	1.432352	-0.737305	0.413574	0.130127
938.0	8.261732	2.565933	7.473287	-0.910456	-6.08597	1.037493	-0.722412	0.422119	0.168701
939.0	18.845784	1.839732	7.907281	-1.931234	-7.788536	1.776071	-0.694336	0.428711	0.234619
940.0	16.333745	3.1965	7.658156	-1.791155	-7.933636	2.040365	-0.655273	0.435547	0.284668
941.0	20.102437	5.845117	9.40176	-1.133194	-8.593153	2.694439	-0.609863	0.444336	0.332275
942.0	22.862828	6.441188	11.759578	-0.896486	-9.127599	4.226903	-0.54541	0.464355	0.370605
943.0	22.507168	6.350938	8.81446	-1.726921	-9.745972	5.16979	-0.471924	0.477783	0.427246
944.0	25.406991	0.531564	8.548384	-2.117327	-8.992739	5.566896	-0.398193	0.489014	0.467773
945.0	30.175695	1.687576	5.714233	0.65092	-8.962397	4.440769	-0.335693	0.509033	0.47876
946.0	32.356357	10.681449	20.301683	4.824792	-7.72941	3.565442	-0.271729	0.537842	0.464355
947.0	30.820062	21.668609	29.684375	3.784306	-5.691427	2.950818	-0.229248	0.566406	0.459229
948.0	21.90442	34.868835	8.964206	3.522463	-4.048597	1.281588	-0.217041	0.586182	0.454346
949.0	28.928112	40.773311	27.948773	-3.028537	1.19163	-0.300071	-0.255371	0.566406	0.482178
950.0	12.666642	13.604789	23.897526	-6.236895	4.362834	-1.422969	-0.291748	0.546387	0.514404
951.0	2.303057	-0.047581	13.162366	-2.936964	2.925737	-1.207383	-0.330566	0.539551	0.514648
952.0	5.454481	-1.039269	11.588792	1.948592	2.935002	-1.292418	-0.375	0.556885	0.487061
953.0	5.183821	4.158362	11.717761	3.959002	3.810248	-1.615772	-0.421631	0.573975	0.46167
954.0	5.226759	7.675592	11.460728	3.606379	4.329116	-1.821881	-0.469971	0.580322	0.425049
955.0	6.304252	8.128742	9.706412	2.568027	4.630453	-2.006973	-0.528809	0.580078	0.386475
956.0	7.177519	7.501925	9.421486	1.956691	5.207021	-2.267797	-0.576172	0.568848	0.3479
957.0	7.080176	6.218019	8.908179	1.243639	5.539315	-2.544512	-0.63208	0.549072	0.318848
958.0	7.710201	3.72365	8.226401	0.944834	5.634995	-2.848032	-0.672363	0.524902	0.269287
959.0	8.577812	1.54305	7.639899	1.228145	5.730503	-3.154182	-0.720947	0.489746	0.238037
960.0	9.348356	1.197537	7.191261	1.994967	5.988467	-3.413276	-0.759277	0.465576	0.19751
961.0	9.677829	2.043652	7.296629	2.440664	6.135387	-3.554796	-0.795166	0.443604	0.150146
962.0	10.75904	2.484272	7.637604	2.439392	6.21779	-3.621816	-0.82959	0.428223	0.091309
963.0	11.508819	2.510999	7.420025	2.366741	6.121541	-3.600767	-0.861328	0.410889	0.023193
964.0	12.399179	2.240055	6.938495	2.274504	5.772069	-3.463255	-0.875244	0.378174	-0.037598
965.0	12.95428	1.711399	6.482422	2.20144	5.351293	-3.326618	-0.897705	0.343262	-0.087158
966.0	13.703752	1.50181	5.836054	2.185905	4.653297	-3.296745	-0.900635	0.312744	-0.125244
967.0	16.180882	2.617616	5.809649	2.531677	3.481138	-3.499603	-0.918213	0.264648	-0.153809
968.0	20.099252	4.1972	7.52014	2.402738	2.461854	-3.865284	-0.925049	0.225342	-0.178223
969.0	22.307639	2.879462	7.920657	0.707632	1.922581	-4.302947	-0.938477	0.183838	-0.177246
970.0	23.423371	-2.060415	5.533436	-1.254991	1.62847	-4.613896	-0.936523	0.135742	-0.183105
971.0	28.899247	-6.419337	3.469907	-1.035248	1.562278	-4.706233	-0.940918	0.090088	-0.193604
972.0	33.488416	-7.17104	3.475862	0.696338	2.065004	-4.581163	-0.940918	0.044189	-0.206543
973.0	35.234742	-8.422031	5.198104	0.153821	3.356781	-4.677109	-0.930176	-0.005859	-0.235107
974.0	33.065213	-13.661951	4.65003	-0.66986	4.449916	-4.868198	-0.908691	-0.042725	-0.266357
975.0	28.525759	-14.475189	0.964726	-0.717272	4.311911	-4.979477	-0.902588	-0.081787	-0.299805
976.0	20.826047	-12.755011	-6.487183	-1.866268	3.355874	-4.121653	-0.881836	-0.110107	-0.322021
977.0	17.716475	-17.592272	-24.829395	-5.219568	4.644638	-2.697447	-0.855957	-0.105469	-0.354004
978.0	18.431962	-26.182641	-50.115177	-2.832552	2.710846	-0.198644	-0.855957	-0.105469	-0.354004
979.0	15.114217	-25.21779	-35.418214	3.421464	-1.698195	-0.858939	-0.861328	-0.131836	-0.323975
980.0	22.193647	-19.437752	-12.012432	3.01454	-3.33357	-0.815853	-0.869141	-0.149414	-0.296143
981.0	27.075348	-13.985445	-12.201943	2.544166	-1.103322	-0.424227	-0.868896	-0.153809	-0.289307
982.0	21.171134	-10.685443	-16.902694	-0.590693	0.225888	0.819649	-0.871582	-0.14502	-0.291748
983.0	22.174237	-13.779308	-10.519867	-4.984094	0.106006	1.382904	-0.872314	-0.125244	-0.308105
984.0	19.14654	-25.366367	-5.13133	-7.826658	0.445023	3.719447	-0.862305	-0.057617	-0.334473
985.0	-5.749747	-0.556939	-18.528792	-4.305264	1.308589	3.832033	-0.876221	-0.040039	-0.35083
986.0	3.582469	17.680422	9.981996	22.744115	-3.144527	5.735955	-0.902588	-0.086426	-0.272217
987.0	26.779709	49.621249	42.943436	10.694459	-8.444416	5.234018	-0.9104	-0.053955	-0.186279
988.0	5.165934	27.004905	-9.997789	-18.850507	-9.8123	2.554952	-0.910889	0.004883	-0.10083
989.0	31.008302	-33.925289	-37.054524	-23.282177	-3.045156	-1.273925	-0.902344	0.009277	-0.125977
990.0	38.60833	-31.429991	-11.302683	8.280591	2.144498	3.147903	-0.900391	0.016113	-0.171875
991.0	31.650085	-0.121681	65.192913	13.814272	3.656429	2.969767	-0.9021	0.00293	-0.148682
992.0	12.043969	21.22462	6.627719	-3.440671	-6.43123	-0.610825	-0.903564	0.033203	-0.10376
993.0	4.774791	-2.264073	-17.100875	-14.902325	1.541051	1.719237	-0.893555	0.052979	-0.131592
994.0	18.582004	-18.577211	-9.620516	0.216999	4.233611	1.130087	-0.899902	0.053223	-0.174805
995.0	0.594766	-1.412352	10.597262	8.915024	3.37127	0.144692	-0.896729	0.031494	-0.197266
996.0	3.283192	15.199585	23.404646	2.547493	0.355112	-0.006673	-0.894775	0.035645	-0.19043
997.0	6.674232	6.336738	6.19266	-6.000199	-1.67681	0.482137	-0.904297	0.051025	-0.174805
998.0	11.943418	-6.375663	-0.591465	-4.676701	-0.305705	0.298181	-0.898193	0.063965	-0.181885
999.0	8.208716	-5.438649	-1.225731	2.035842	1.077655	0.128132	-0.897705	0.051025	-0.192871
1000.0	7.594432	3.772987	9.622068	3.804245	1.128352	0.112659	-0.891113	0.051025	-0.202148
1001.0	6.05011	6.413727	12.333538	-0.515691	0.296307	0.097497	-0.891357	0.053223	-0.19751
1002.0	7.209045	-0.259878	5.746663	-2.662958	-0.742132	0.106546	-0.895752	0.057617	-0.193115
1003.0	9.152933	-2.566127	2.316153	-0.318776	-0.293728	-0.014246	-0.893799	0.059814	-0.193115
1004.0	8.418441	0.932047	4.654318	1.476715	0.289136	-0.038063	-0.889404	0.057617	-0.195313
1005.0	7.708449	2.997683	8.175633	0.392646	0.305273	-0.019657	-0.897705	0.051025	-0.195313
1006.0	7.311202	1.488365	6.592356	-0.658726	-0.198828	0.000507	-0.893555	0.057617	-0.190918
1007.0	8.236828	0.856666	4.901593	-0.196191	-0.294635	-9e-06	-0.900146	0.05542	-0.193115
1008.0	8.4159	1.880744	5.380793	0.159141	0.068567	0.041188	-0.895996	0.062012	-0.199951
1009.0	7.885115	2.082162	6.319478	-0.155973	0.269779	0.102401	-0.891602	0.059814	-0.199951
1010.0	7.740455	1.500907	6.327609	-0.407464	0.091557	0.137372	-0.889893	0.068604	-0.202393
1011.0	7.940749	1.155841	5.84528	-0.408887	-0.058643	0.129642	-0.900391	0.064209	-0.20459
1012.0	7.954928	0.729776	5.81029	-0.465562	-0.015973	0.128434	-0.903076	0.074951	-0.209473
1013.0	8.079869	1.061237	5.733083	-0.290272	0.050735	0.103562	-0.920898	0.079346	-0.202637
1014.0	8.103513	1.669492	6.233918	-0.230913	0.091986	0.1613	-0.933105	0.061768	-0.188477
1015.0	7.974859	1.166972	6.291266	-0.52167	0.113879	0.237046	-0.925293	0.033447	-0.187988
1016.0	7.758726	0.427924	6.002429	-0.470377	0.113902	0.214582	-0.905762	0.037842	-0.197266
1017.0	7.593706	0.348812	5.974277	-0.266764	0.011918	0.172808	-0.897461	0.044434	-0.199707
1018.0	7.710064	0.586669	6.217266	-0.207185	-0.005798	0.120567	-0.889404	0.062012	-0.209229
1019.0	7.752037	0.732906	6.13681	-0.229256	-0.018518	0.088972	-0.891846	0.068604	-0.204834
1020.0	7.827987	0.919258	6.032098	-0.180384	-0.07054	0.103753	-0.889893	0.068604	-0.200195
1021.0	7.978053	1.204057	5.841593	-0.121099	-0.136114	0.131602	-0.892334	0.077148	-0.207275
1022.0	8.133365	1.496779	5.755477	-0.120583	-0.041433	0.172637	-0.898926	0.079346	-0.195801
1023.0	8.165396	1.126918	5.895663	-0.253777	-0.094221	0.238062	-0.894775	0.081543	-0.200439
1024.0	8.446256	1.023626	5.501232	-0.135429	0.0786	0.255333	-0.89502	0.088135	-0.207275
1025.0	8.430977	1.259411	5.534417	0.196792	0.105474	0.363007	-0.89502	0.088135	-0.209717
1026.0	8.447201	1.6769	5.785265	0.401023	0.246776	0.467791	-0.897217	0.088135	-0.21875
1027.0	8.287896	2.26707	6.296078	0.52244	0.406138	0.589067	-0.89502	0.090332	-0.223389
1028.0	6.968936	2.875915	9.652899	0.749437	0.44834	0.846057	-0.895264	0.094727	-0.221191
1029.0	5.370895	1.765929	11.298046	-0.572273	-0.693409	1.103348	-0.900146	0.105469	-0.205566
1030.0	6.306732	-0.515746	8.922207	-1.203498	-1.597477	1.157066	-0.903076	0.123047	-0.192139
1031.0	6.153323	-1.926665	6.794697	-1.057204	-1.896036	1.060772	-0.901123	0.129395	-0.17627
1032.0	5.177281	-1.87298	6.835148	-0.280855	-2.051847	0.925324	-0.907959	0.131592	-0.158203
1033.0	4.750277	-0.699338	8.713617	0.612845	-2.925561	1.044446	-0.903809	0.140381	-0.135498
1034.0	5.805523	0.843508	9.727252	0.562781	-4.113162	1.213881	-0.906738	0.15332	-0.101563
1035.0	6.069997	1.516318	8.514986	-0.214955	-4.847326	1.231056	-0.907227	0.16626	-0.049316
1036.0	2.580723	1.87532	9.656062	-0.420728	-5.791967	1.269561	-0.905762	0.181396	0.007324
1037.0	5.922534	-0.775296	9.100054	-0.853442	-7.158178	1.23332	-0.899414	0.185547	0.071045
1038.0	10.283657	-0.093999	6.753106	0.453567	-7.157527	0.715434	-0.882324	0.194336	0.136963
1039.0	16.719079	3.379818	7.211947	-0.310463	-8.583056	1.19564	-0.858887	0.209473	0.198242
1040.0	22.881484	5.810211	11.019268	-0.921936	-8.921046	2.027746	-0.82666	0.218262	0.259521
1041.0	20.198137	7.487849	9.917285	-1.095687	-8.761897	2.921361	-0.781494	0.231445	0.334229
1042.0	23.937526	7.057575	9.199113	-1.051034	-9.983058	4.904244	-0.719482	0.262451	0.399658
1043.0	24.559356	1.770359	9.706773	-2.769966	-9.811659	6.038712	-0.650635	0.282227	0.463135
1044.0	29.503213	1.906693	4.719339	-0.897447	-8.884315	5.734717	-0.573242	0.306641	0.503662
1045.0	26.770716	8.338467	12.717848	2.224305	-8.485361	5.184051	-0.502686	0.342041	0.532471
1046.0	25.799134	16.473748	25.197087	3.11182	-7.998934	4.022136	-0.434326	0.37085	0.54541
1047.0	25.60777	18.490968	27.188533	3.191939	-5.185205	3.154897	-0.398438	0.397217	0.558594
1048.0	31.540038	25.328071	14.967701	2.112374	-4.028393	1.5729	-0.37915	0.406006	0.551514
1049.0	31.944833	30.87756	24.009029	-0.451536	4.516921	-0.704362	-0.420166	0.394775	0.538086
1050.0	7.439602	15.354411	23.081608	-3.674869	5.954888	-0.943912	-0.451904	0.375	0.531738
1051.0	5.962677	4.475532	14.833114	-2.689678	3.804214	-0.245498	-0.470947	0.361816	0.527344
1052.0	6.669508	1.074523	9.715329	0.509923	4.451971	-0.337939	-0.501709	0.368164	0.504639
1053.0	4.511933	2.205827	6.704395	2.431625	5.071628	-0.920687	-0.54126	0.374512	0.474854
1054.0	5.032994	5.032532	7.068662	3.838319	5.390492	-1.341145	-0.574707	0.389648	0.44043
1055.0	5.268916	7.63116	7.546602	3.898228	5.432104	-1.782268	-0.612305	0.400635	0.401367
1056.0	5.106971	8.116277	6.398072	2.642371	5.490686	-2.213928	-0.646729	0.389404	0.365234
1057.0	4.748571	6.305533	5.276636	1.713593	5.613803	-2.573816	-0.681396	0.382813	0.335693
1058.0	4.647047	4.295696	5.129	1.529891	5.44833	-2.97917	-0.715332	0.365234	0.295166
1059.0	5.051881	3.230843	5.319553	1.689818	5.100992	-3.334183	-0.751709	0.349854	0.274902
1060.0	6.546792	2.774212	6.019188	1.804705	4.775262	-3.583548	-0.779785	0.343018	0.245605
1061.0	8.472353	2.728279	7.196304	1.937405	4.732945	-3.786656	-0.820801	0.329834	0.207031
1062.0	10.428993	3.175541	8.825219	1.972527	4.950232	-3.963926	-0.850586	0.314453	0.159668
1063.0	11.882259	3.271821	10.211921	1.773994	5.131832	-4.022809	-0.882324	0.292725	0.096191
1064.0	13.972562	2.467708	11.166878	1.493891	5.231625	-4.021165	-0.905029	0.266357	0.035156
1065.0	15.930555	1.211735	11.451731	1.610697	5.493489	-4.051531	-0.927246	0.224854	-0.016357
1066.0	16.136928	0.221985	10.192155	1.984224	5.550632	-4.13383	-0.936523	0.185791	-0.079346
1067.0	15.769453	0.468303	8.049919	2.330748	5.019909	-4.240001	-0.941406	0.148682	-0.119629
1068.0	15.253796	1.399148	6.08372	2.334581	3.65822	-4.30545	-0.943848	0.105225	-0.148438
1069.0	15.552077	1.43372	4.997464	1.571587	1.415296	-4.473031	-0.946045	0.057129	-0.145264
1070.0	23.071741	0.345654	5.617206	-0.05729	-0.709384	-4.719656	-0.94873	0.022217	-0.133057
1071.0	34.758	-1.842153	5.007143	-0.71068	-0.475732	-4.862755	-0.953369	-0.023682	-0.13208
1072.0	34.900117	-6.161097	0.163353	-1.031976	1.784559	-4.750836	-0.945068	-0.060791	-0.156494
1073.0	32.288398	-11.409191	-1.204263	-1.595371	3.887711	-4.563194	-0.936768	-0.099854	-0.192139
1074.0	31.182285	-14.532735	1.710101	-1.044251	4.658982	-4.092836	-0.924561	-0.12793	-0.232666
1075.0	29.675002	-13.597327	0.873736	-0.598842	3.267215	-3.698037	-0.918701	-0.160645	-0.248047
1076.0	25.319557	-12.630422	-8.685031	-0.865187	1.504549	-3.110317	-0.908936	-0.18457	-0.268066
1077.0	19.312725	-18.280546	-24.812443	-3.287618	3.77284	-2.656923	-0.886963	-0.188721	-0.306885
1078.0	23.035221	-28.238582	-47.490933	-3.810793	4.335009	-1.405023	-0.874023	-0.184326	-0.332031
1079.0	15.71377	-25.57104	-43.354341	3.680273	0.41292	-0.848036	-0.883545	-0.214844	-0.322266
1080.0	16.766524	-15.661527	-14.798517	5.90831	-1.805549	-0.201423	-0.889404	-0.230225	-0.287842
1081.0	21.928845	-11.127386	-8.130977	1.576478	-3.001955	0.550144	-0.902832	-0.226074	-0.262695
1082.0	27.81632	-11.53388	-13.031135	-2.446182	-1.642106	1.642708	-0.906006	-0.202148	-0.27002
1083.0	25.734643	-21.197848	-10.966952	-5.836853	0.494492	2.545531	-0.906006	-0.154053	-0.289307
1084.0	0.897166	-12.299948	-18.527858	-9.264613	1.149141	4.135416	-0.906494	-0.097168	-0.329102
1085.0	-0.496884	16.096955	-21.504037	8.959132	1.02521	5.354896	-0.929199	-0.121338	-0.30127
1086.0	25.856066	39.862305	69.600981	20.983692	-4.892016	4.97516	-0.944336	-0.128174	-0.234863
1087.0	6.083794	36.332423	-4.972904	-7.235658	-9.383645	1.787655	-0.946533	-0.078125	-0.137939
1088.0	1.959955	-0.910668	-23.982708	-26.657745	-9.630232	0.79819	-0.945313	-0.052246	-0.097412
1089.0	63.057177	-50.433031	-24.781806	-3.40698	0.607121	0.386818	-0.948242	-0.038818	-0.141113
1090.0	39.330869	-24.802086	40.383003	15.952051	8.140186	5.868699	-0.95459	-0.043213	-0.191162
1091.0	11.268469	24.781083	13.28667	4.421366	-2.345495	-2.597693	-0.949707	-0.054199	-0.161133
1092.0	-2.136362	8.049576	3.98883	-11.128442	0.894426	2.067437	-0.945313	-0.008301	-0.177979
1093.0	8.920173	-11.280268	1.445066	-7.716155	-0.721014	0.239759	-0.943115	-0.006104	-0.171387
1094.0	9.993816	-9.59681	-1.410275	2.861786	0.430861	0.174302	-0.949707	-0.008301	-0.175781
1095.0	7.790769	3.585463	4.456112	5.866694	0.69165	0.089418	-0.951172	-0.021484	-0.180176
1096.0	8.984626	9.011978	12.90897	0.648386	1.252649	0.002666	-0.944824	-0.016846	-0.198486
1097.0	5.138476	2.637581	8.712709	-3.007616	0.056481	0.145007	-0.942871	-0.014648	-0.19165
1098.0	7.778834	-2.067378	4.511736	-1.893337	-1.010668	0.054695	-0.947266	-0.010498	-0.182617
1099.0	9.253372	-1.335558	2.911094	0.380408	-0.29554	-0.046876	-0.942871	-0.014893	-0.182617
1100.0	8.511668	1.183528	5.102202	1.071482	0.403923	-0.085572	-0.945068	-0.010498	-0.182617
1101.0	7.308739	2.118976	7.684516	0.510536	0.371117	-0.114867	-0.944824	-0.016846	-0.189209
1102.0	6.779724	1.422731	7.463209	-0.217984	-0.312867	-0.151789	-0.947021	-0.014893	-0.187012
1103.0	8.005455	0.97269	5.721781	-0.306015	-0.680937	-0.189445	-0.951416	-0.01709	-0.175537
1104.0	8.70391	1.552467	4.648038	0.250349	-0.462283	-0.149119	-0.949219	-0.01709	-0.177979
1105.0	8.624267	2.445975	5.195387	0.401438	-0.065142	-0.083546	-0.953613	-0.01709	-0.177979
1106.0	8.317587	2.468841	6.01684	-0.054901	0.17828	-0.02139	-0.951416	-0.01709	-0.184814
1107.0	7.986797	2.461553	6.085435	-0.121792	0.099458	0.061556	-0.949219	-0.019287	-0.182373
1108.0	8.194906	2.484783	5.954318	-0.370476	-0.001441	0.13875	-0.95166	-0.010498	-0.182617
1109.0	8.419823	1.941943	5.654276	-0.648916	0.093062	0.235234	-0.943115	-0.006104	-0.185059
1110.0	8.260445	1.263594	5.484719	-0.539529	0.213076	0.27797	-0.949707	-0.003906	-0.189453
1111.0	8.129394	1.290124	5.577863	-0.233012	0.273255	0.29234	-0.960938	0.002686	-0.194336
1112.0	8.007785	1.470633	5.874791	-0.165731	0.293076	0.275807	-0.963379	0.009033	-0.196533
1113.0	7.376779	0.343785	6.32347	-0.495924	0.298156	0.255448	-0.980713	0.002441	-0.200928
1114.0	7.220971	-0.494149	6.107663	-0.335499	0.093592	0.094807	-0.984375	-0.010742	-0.193848
1115.0	7.519035	0.032447	6.410672	0.344847	-0.144353	-0.02138	-0.981201	-0.034668	-0.188965
1116.0	7.490276	1.075245	6.468357	0.310696	-0.318173	-0.074647	-0.961182	-0.043213	-0.188721
1117.0	8.099291	0.842767	6.436169	-0.171626	-0.207324	-0.107367	-0.946533	-0.027832	-0.193604
1118.0	7.539347	0.318914	5.777981	-0.226686	-0.283245	-0.191624	-0.949219	-0.01709	-0.19165
1119.0	7.996704	0.905345	5.435378	0.181483	-0.432163	-0.212524	-0.942627	-0.016846	-0.189209
1120.0	8.29802	1.484091	5.612844	0.227408	-0.340031	-0.207312	-0.95166	-0.012695	-0.184814
1121.0	8.517629	1.922599	5.384551	0.019368	-0.149815	-0.18133	-0.953857	-0.012695	-0.184814
1122.0	8.610747	2.315272	5.263314	0.102181	-0.017111	-0.107609	-0.949707	-0.006104	-0.185059
1123.0	8.578733	2.376616	5.632533	-0.078095	0.213709	-0.006748	-0.951904	-0.003906	-0.185059
1124.0	8.406484	2.142998	5.656621	-0.320129	0.379236	0.069231	-0.951904	-0.006104	-0.187256
1125.0	8.369845	1.929308	5.784733	-0.132514	0.382999	0.230604	-0.956543	-0.001709	-0.194092
1126.0	7.854679	2.689217	5.828074	0.362373	0.269994	0.388272	-0.958496	-0.003906	-0.203125
1127.0	8.075156	4.146449	7.641398	0.803911	0.276434	0.769633	-0.95874	0.000488	-0.207764
1128.0	7.537562	4.119629	9.134364	0.121371	-0.40625	1.192717	-0.957275	0.015625	-0.198975
1129.0	6.385763	1.607925	9.554616	-1.205242	-0.785931	1.333084	-0.957764	0.028809	-0.199219
1130.0	5.599329	-1.074638	8.320471	-1.738958	-1.439468	1.228101	-0.962891	0.043945	-0.176758
1131.0	5.370386	-2.008448	6.875656	-0.954856	-2.100806	1.051985	-0.967529	0.050537	-0.151855
1132.0	5.468771	-1.400532	6.639778	0.12186	-2.745869	1.039924	-0.965576	0.054688	-0.126953
1133.0	5.837127	-0.295432	7.963167	0.682159	-3.523569	1.130152	-0.974609	0.06543	-0.095215
1134.0	5.791335	1.567445	8.888518	0.663428	-4.35908	1.161659	-0.975098	0.076416	-0.049805
1135.0	6.714796	2.542553	8.419666	-0.244941	-5.389067	1.343234	-0.97168	0.095947	0.004395
1136.0	7.843221	1.796482	8.799341	-0.657852	-6.099437	1.44634	-0.967773	0.106689	0.061279
1137.0	4.374194	0.392949	11.336883	-0.114139	-5.700303	0.777008	-0.952881	0.115234	0.113525
1138.0	13.747247	1.031925	5.127287	-0.998618	-7.550515	0.853793	-0.937744	0.117432	0.184082
1139.0	17.296044	3.952931	7.263574	-6.3e-05	-8.120091	1.596912	-0.909912	0.132813	0.254395
1140.0	17.523056	6.544409	9.77707	-0.929183	-8.56633	2.164022	-0.873535	0.147949	0.324707
1141.0	18.475315	6.80755	8.506597	-0.748	-9.01813	3.210422	-0.828613	0.167725	0.39502
1142.0	23.130702	8.180016	7.881845	-1.161392	-9.770321	4.916508	-0.762207	0.194336	0.458008
1143.0	26.588011	0.628384	7.915478	-3.401303	-9.837282	5.702646	-0.697266	0.205322	0.523926
1144.0	29.709195	-1.162614	-0.274378	1.245818	-8.939388	4.316511	-0.625244	0.251709	0.572998
1145.0	29.647235	7.523852	11.987021	5.643504	-7.751119	3.257074	-0.566406	0.300049	0.585693
1146.0	29.799898	17.464389	30.583377	5.385349	-5.91594	3.098692	-0.50708	0.341797	0.589355
1147.0	22.640122	22.271442	21.711689	4.391286	-4.055511	2.79348	-0.471924	0.381348	0.593018
1148.0	28.013121	34.328241	13.267776	2.63539	-2.888817	1.693991	-0.465576	0.387939	0.59082
1149.0	25.551461	28.032698	26.154722	-3.857315	5.251663	-0.053444	-0.503418	0.357178	0.586914
1150.0	5.590371	9.657283	18.84056	-4.659644	4.709482	-0.231847	-0.531006	0.341553	0.58252
1151.0	5.380656	2.430419	12.596189	-1.63248	3.568065	-0.059083	-0.561279	0.332764	0.57373
1152.0	4.682937	2.549105	9.337142	1.555844	4.30494	-0.262262	-0.590576	0.354492	0.548096
1153.0	3.089666	4.889346	8.366489	2.565197	4.865067	-0.572683	-0.619629	0.367432	0.518311
1154.0	3.244067	7.085305	8.296951	2.572193	5.048364	-0.815011	-0.655029	0.380371	0.483887
1155.0	3.623043	7.968079	6.956463	2.199109	5.123048	-1.072685	-0.683838	0.391113	0.456543
1156.0	3.795901	7.923924	6.031747	1.503563	5.246198	-1.337335	-0.727539	0.391113	0.419922
1157.0	3.47117	6.335064	5.107058	0.676353	5.347098	-1.572692	-0.755615	0.384277	0.39502
1158.0	3.849319	4.70311	4.475844	0.423423	5.146694	-1.774765	-0.787598	0.371094	0.361328
1159.0	5.508531	3.947004	5.188856	0.773767	4.9214	-2.011914	-0.820313	0.368896	0.338623
1160.0	8.253312	4.110321	6.750941	1.300442	4.849733	-2.416511	-0.844238	0.366455	0.311279
1161.0	11.204326	4.710654	8.439482	1.752417	5.216713	-3.013443	-0.887939	0.370605	0.2771
1162.0	12.14822	5.219684	8.679094	1.997504	5.762478	-3.561812	-0.925537	0.379395	0.224609
1163.0	12.52133	4.923571	8.311731	1.997465	5.863574	-3.814228	-0.9646	0.37915	0.151611
1164.0	13.229904	3.801854	7.741587	1.830391	5.836094	-3.863672	-0.994873	0.368408	0.090332
1165.0	13.650194	2.516337	6.695389	1.796464	5.65802	-3.736767	-1.00708	0.35083	0.029053
1166.0	13.615243	1.247874	5.489229	1.951716	5.182184	-3.494557	-1.022217	0.34668	-0.018555
1167.0	13.699427	0.756504	4.404109	2.167899	4.258897	-3.328009	-1.030762	0.342285	-0.045898
1168.0	15.861129	2.748299	3.925499	2.830843	2.898044	-3.365582	-1.052979	0.35083	-0.055176
1169.0	21.620225	6.16813	6.414108	2.898324	1.988986	-3.592498	-1.099854	0.374512	-0.066895
1170.0	25.804793	8.154749	7.075963	1.209101	1.888563	-3.920897	-1.189453	0.378418	-0.092041
1171.0	26.208192	3.616123	6.260579	-1.171897	1.832741	-4.178515	-1.286377	0.354004	-0.143799
1172.0	29.219412	-4.721639	6.183192	-2.306337	2.084248	-4.744997	-1.38208	0.301025	-0.215576
1173.0	37.342563	-10.975093	7.218447	0.639127	3.376369	-5.366408	-1.456787	0.211426	-0.311768
1174.0	36.076115	-6.879486	9.756255	2.759195	4.286103	-5.931434	-1.499512	0.093506	-0.427734
1175.0	32.34761	-8.032548	7.468419	0.943276	4.426823	-5.923619	-1.520264	-0.026367	-0.539307
1176.0	21.988561	-13.482139	-0.124809	-1.692606	3.655926	-5.587695	-1.511475	-0.124268	-0.642334
1177.0	18.058365	-19.697354	-17.314758	-6.054779	3.666613	-4.778268	-1.479004	-0.169434	-0.757813
1178.0	20.639661	-27.275502	-44.000959	-2.555196	2.711756	-1.32007	-1.468262	-0.212891	-0.818359
1179.0	18.924817	-32.506585	-37.365875	4.716313	-1.787609	-0.702429	-1.481934	-0.298096	-0.812256
1180.0	26.012684	-30.44752	-17.242939	1.143853	-2.690101	-1.390814	-1.493164	-0.341797	-0.833984
1181.0	27.331075	-21.441776	-19.045838	1.271174	0.658256	-0.782552	-1.484375	-0.391846	-0.878662
1182.0	17.223535	-14.99135	-17.123987	2.308545	0.625262	1.042608	-1.496338	-0.417969	-0.905518
1183.0	21.587591	-13.096435	-4.178045	-2.071963	-1.605775	1.379637	-1.530762	-0.378906	-0.933594
1184.0	31.661296	-20.696678	3.036102	-5.496915	0.220981	2.010292	-1.541504	-0.284912	-1.001465
1185.0	2.550664	-15.622904	-9.378604	-8.61113	0.341768	4.535606	-1.564453	-0.162598	-1.081299
1186.0	-11.695293	16.01418	-24.16328	6.891704	2.456998	4.843879	-1.623535	-0.304932	-1.071777
1187.0	15.280315	43.040804	67.936157	26.102023	-9.015687	7.827014	-1.755127	-0.384766	-0.878418
1188.0	13.513464	34.89765	0.349886	-6.581883	-9.945058	4.220908	-1.818115	-0.243652	-0.760498
1189.0	1.009612	-6.334154	-33.262807	-25.69299	-7.089052	0.035493	-1.861572	-0.100098	-0.740479
1190.0	49.97462	-43.314365	-40.719762	-5.376269	-1.135527	-0.256212	-1.894531	-0.141602	-0.782715
1191.0	42.397478	-6.984794	58.492636	16.655251	3.908557	4.229216	-1.876465	-0.208984	-0.872803
1192.0	28.688424	24.195371	25.221776	3.602013	-0.859798	0.427862	-1.89624	-0.204834	-0.75415
1193.0	-5.303575	1.822517	-6.231503	-10.590143	-4.814981	0.539971	-1.897705	-0.071777	-0.754639
1194.0	11.992031	-6.593367	-23.825605	-10.927237	2.483754	0.873266	-1.884766	-0.019287	-0.8125
1195.0	15.51746	-18.091428	7.957932	7.307698	3.523362	1.11321	-1.870361	-0.099609	-0.872559
1196.0	-0.714877	5.491705	16.480931	9.851584	2.546141	-0.65831	-1.859863	-0.184814	-0.884521
1197.0	4.501079	15.687964	14.240182	1.215405	-1.401463	-0.328677	-1.878418	-0.163086	-0.848633
1198.0	8.433479	6.720383	5.644294	-6.422166	-2.362675	0.339914	-1.87915	-0.099854	-0.824707
1199.0	11.557238	-4.891856	1.026169	-5.051689	-1.023089	-0.218999	-1.886475	-0.078125	-0.822754
1200.0	8.644452	-5.913184	-1.194928	1.556509	0.520023	-0.212207	-1.885254	-0.106445	-0.826904
1201.0	7.569548	1.422124	5.04442	4.468143	0.576067	-0.308679	-1.883301	-0.152344	-0.832764
1202.0	7.870544	6.305311	11.371465	1.607814	0.516912	-0.546538	-1.88501	-0.163086	-0.843994
1203.0	5.365502	2.870967	8.21462	-1.452228	-0.757318	-0.555984	-1.89624	-0.154541	-0.825928
1204.0	7.926253	-0.50719	4.669552	-1.314899	-1.633004	-0.671066	-1.898193	-0.161133	-0.793945
1205.0	9.671858	-0.16781	2.811547	0.586718	-0.929776	-0.817062	-1.9104	-0.180908	-0.788818
1206.0	8.845543	2.201664	4.098024	1.430743	-0.148022	-0.854985	-1.904785	-0.209229	-0.779297
1207.0	7.737582	3.499216	6.794569	0.822444	-0.127869	-0.852965	-1.912598	-0.224609	-0.78125
1208.0	7.305312	3.256796	6.689448	0.042396	-0.687936	-0.821795	-1.921143	-0.233398	-0.771973
1209.0	8.57006	3.592712	4.343259	-0.000964	-0.97828	-0.685091	-1.920654	-0.242188	-0.751221
1210.0	9.509367	4.429081	3.595457	0.315294	-0.524469	-0.464929	-1.933105	-0.255371	-0.746338
1211.0	8.859789	4.890548	4.003019	0.293619	0.032771	-0.164318	-1.922119	-0.255371	-0.755371
1212.0	8.218284	4.437417	5.130842	-0.019666	0.115219	0.075635	-1.93335	-0.250977	-0.755615
1213.0	8.133278	3.338054	5.233863	-0.370643	-0.03043	0.191659	-1.935791	-0.242188	-0.755615
1214.0	8.550628	3.213511	4.485102	-0.283928	-0.033589	0.26863	-1.945313	-0.229248	-0.749023
1215.0	8.867342	4.158473	4.194304	-0.071808	0.158853	0.438002	-1.960449	-0.231689	-0.73999
1216.0	8.791685	4.495288	4.581139	-0.369701	0.380402	0.671846	-1.955811	-0.238037	-0.742188
1217.0	8.692966	3.37764	5.068916	-0.918283	0.545037	0.866472	-1.934326	-0.227051	-0.756104
1218.0	8.3803	1.53989	5.315425	-1.268998	0.635545	0.903884	-1.92041	-0.196289	-0.781738
1219.0	8.282006	0.961706	4.943428	-1.016499	0.646975	0.827196	-1.915283	-0.167969	-0.79834
1220.0	8.638968	2.070021	4.86633	-0.402465	0.633516	0.835735	-1.905518	-0.141602	-0.810059
1221.0	8.868857	3.607958	5.076537	-0.448786	0.72317	0.898848	-1.904297	-0.119629	-0.831055
1222.0	8.827703	3.688735	5.269982	-1.058608	0.992844	1.032999	-1.89502	-0.08252	-0.843262
1223.0	8.200579	2.199761	5.363385	-1.622428	1.374199	1.015746	-1.885498	-0.053955	-0.871094
1224.0	7.551369	0.096243	5.400506	-1.80555	1.562449	0.973265	-1.87793	-0.025391	-0.89917
1225.0	7.154128	-0.840331	5.831734	-0.695916	1.145078	0.830127	-1.87207	-0.012207	-0.915283
1226.0	6.900753	0.30901	6.517815	0.455739	0.777066	0.753752	-1.870361	-0.003662	-0.926758
1227.0	7.408707	1.214796	7.280073	-0.076515	0.358105	0.656721	-1.862305	0.011719	-0.934082
1228.0	8.212655	2.227677	6.454115	-0.145218	0.324942	0.693771	-1.860596	0.022705	-0.934326
1229.0	8.004411	4.022768	7.497561	0.842718	0.258455	0.975991	-1.86084	0.031494	-0.936768
1230.0	6.257815	3.302578	9.857157	-0.330144	-0.117506	1.334023	-1.85376	0.066406	-0.932861
1231.0	5.791011	0.300425	9.419793	-1.688401	-0.934028	1.403142	-1.86377	0.094727	-0.908203
1232.0	6.191872	-1.631177	7.546013	-1.345401	-1.573544	1.302393	-1.871826	0.129395	-0.870117
1233.0	5.797989	-1.792045	6.361899	-0.617156	-1.894773	1.134981	-1.877197	0.148926	-0.843262
1234.0	5.600149	-0.894471	7.023003	0.262753	-2.350448	1.198447	-1.897217	0.161865	-0.795654
1235.0	6.275669	0.467338	8.783462	0.583434	-3.128831	1.338614	-1.91333	0.181152	-0.743652
1236.0	6.969129	2.106816	8.734758	0.001874	-3.902415	1.476064	-1.93457	0.21582	-0.671387
1237.0	5.745478	3.122005	8.152442	-0.488168	-4.413321	1.687601	-1.951172	0.246094	-0.589844
1238.0	5.017648	2.732251	9.567433	-1.13213	-5.16086	1.903195	-1.966064	0.284912	-0.492676
1239.0	8.504061	1.640072	7.488762	-1.406375	-6.14378	2.09454	-1.967773	0.323975	-0.393066
1240.0	11.963118	3.054966	7.318584	-0.543382	-6.257636	2.219932	-1.969727	0.369629	-0.268555
1241.0	21.085693	3.970949	8.216299	-1.462252	-7.108532	2.986401	-1.956787	0.419434	-0.155762
1242.0	19.115541	4.513846	10.675728	-1.54661	-6.890492	3.926692	-1.911621	0.484863	-0.029297
1243.0	19.704102	3.735493	9.321926	-0.956373	-7.76454	4.543386	-1.860107	0.554932	0.094482
1244.0	21.18609	5.167503	8.147544	-0.13735	-8.664297	5.24349	-1.776367	0.62915	0.229736
1245.0	22.300267	3.917837	8.038337	-0.865775	-9.374278	5.860881	-1.681396	0.701416	0.360352
1246.0	28.189297	2.92387	8.827756	0.036782	-8.174854	5.607347	-1.567871	0.75	0.429932
1247.0	27.87689	6.000885	10.245552	2.449586	-7.764063	4.394235	-1.454102	0.787842	0.465576
1248.0	28.237147	15.597432	27.087173	4.214056	-5.472934	4.228801	-1.354492	0.808105	0.448975
1249.0	23.797945	28.910694	28.492097	3.152492	-2.623799	2.792213	-1.281738	0.786865	0.385498
1250.0	19.135658	34.011985	18.863476	2.569554	0.513672	0.109435	-1.230713	0.719727	0.300293
1251.0	14.628741	28.52979	27.011812	-3.748169	3.376069	-1.391574	-1.167725	0.626465	0.244873
1252.0	6.403232	8.685944	13.718269	-4.260547	3.799225	-1.803915	-1.081299	0.550781	0.203125
1253.0	1.68411	2.506764	8.621568	-1.226684	3.645159	-1.987083	-0.994141	0.499023	0.169922
1254.0	2.197457	2.488457	9.211001	1.73094	3.716851	-2.06007	-0.921143	0.477783	0.165527
1255.0	3.93713	4.722853	10.510678	2.448795	4.019641	-2.307825	-0.879395	0.473633	0.174805
1256.0	4.58816	5.534396	10.190705	2.13302	4.460926	-2.461709	-0.866699	0.478027	0.19751
1257.0	5.566964	4.915257	9.381872	1.750486	4.738576	-2.557322	-0.890625	0.477783	0.204346
1258.0	7.373109	4.25406	9.601494	1.570136	5.120353	-2.647312	-0.929443	0.466797	0.195313
1259.0	8.145513	3.564983	9.719943	1.339386	5.649153	-2.741681	-0.974609	0.453369	0.170654
1260.0	7.412172	2.062368	8.925646	1.242806	6.029526	-2.81459	-1.019775	0.440186	0.125488
1261.0	7.09082	0.518104	7.911699	1.553195	5.992862	-2.880092	-1.068848	0.415771	0.075928
1262.0	7.966527	0.275248	7.169683	2.391939	5.815215	-2.983777	-1.111328	0.387451	0.019531
1263.0	9.159363	1.755613	6.870664	3.202994	5.615878	-3.05529	-1.166504	0.356689	-0.043701
1264.0	10.068424	2.946354	6.987794	3.212019	5.366297	-3.033788	-1.19458	0.302246	-0.142822
1265.0	10.58936	2.649063	6.479424	2.540569	4.830264	-3.060283	-1.191162	0.226074	-0.237061
1266.0	11.052798	1.726856	5.54335	2.091772	4.038776	-3.185012	-1.124512	0.145996	-0.329102
1267.0	13.54619	1.783332	5.997184	1.978697	3.134403	-3.437426	-1.028564	0.098633	-0.380615
1268.0	17.986963	1.874174	8.662246	1.793384	2.745099	-3.763712	-0.929688	0.083984	-0.412354
1269.0	21.139806	0.516344	10.300861	1.431775	3.093111	-4.125822	-0.860352	0.093262	-0.437744
1270.0	21.566264	-1.465433	10.683114	1.53615	3.163167	-4.277336	-0.823486	0.0979	-0.447021
1271.0	21.922344	-3.796092	11.370695	1.49049	2.863769	-4.246421	-0.807861	0.091553	-0.467285
1272.0	22.505052	-6.711272	10.392985	1.331333	2.452242	-4.307548	-0.790283	0.085205	-0.476318
1273.0	24.529028	-7.911077	9.025433	1.92806	1.831692	-4.347328	-0.776611	0.072266	-0.487549
1274.0	25.745856	-8.816252	8.41078	2.184447	1.533525	-4.384818	-0.767334	0.061279	-0.496338
1275.0	24.727046	-12.215211	6.272119	1.553209	1.804537	-4.559676	-0.76709	0.054688	-0.500977
1276.0	20.564064	-14.732069	1.853182	0.777524	2.071725	-4.749622	-0.76416	0.039551	-0.511963
1277.0	16.238899	-15.363856	-5.076203	-0.153855	1.768381	-4.53285	-0.763916	0.032959	-0.516357
1278.0	19.213668	-14.983919	-10.406337	1.632963	0.052497	-3.364771	-0.776123	0.013428	-0.511475
1279.0	24.400301	-15.046674	-5.736542	5.346308	-1.736686	-1.948789	-0.787842	-0.015137	-0.510986
1280.0	24.017839	-16.167622	-3.714018	2.69595	-0.35123	-1.306072	-0.791992	-0.019531	-0.513184
1281.0	20.027802	-20.626206	-15.852754	-2.140009	1.920588	-1.105699	-0.783936	-0.006348	-0.540771
1282.0	18.966549	-21.587815	-22.621559	-0.521372	3.532773	-0.049314	-0.766602	-0.006104	-0.568115
1283.0	13.866397	-15.342726	-11.280353	4.016121	2.548146	1.0409	-0.759277	-0.02124	-0.592773
1284.0	14.187149	-9.416717	-0.333318	3.852992	0.840619	1.338209	-0.758789	-0.032227	-0.592529
1285.0	16.653949	-6.091936	2.956675	1.206487	-0.016305	1.675625	-0.761719	-0.016846	-0.595215
1286.0	15.158796	-7.003809	-3.099381	-2.617668	0.153736	1.952198	-0.759033	0.022461	-0.600586
1287.0	13.744938	-10.443051	-11.430666	-3.858519	0.765599	2.304949	-0.747803	0.05957	-0.617188
1288.0	13.892785	-10.427719	-11.200037	-0.670357	0.827606	2.703321	-0.746338	0.079346	-0.631348
1289.0	15.745581	-5.10561	-1.407122	2.815111	-0.367389	3.14168	-0.744385	0.08374	-0.64502
1290.0	4.878637	3.652392	2.885306	4.938207	-0.41822	5.290645	-0.741943	0.079346	-0.672363
1291.0	-1.205797	29.964354	26.64577	9.450848	1.654985	4.285459	-0.738525	0.048828	-0.689941
1292.0	16.786462	35.139247	28.347189	-0.280841	-4.560758	7.157284	-0.759521	0.127197	-0.62085
1293.0	0.364486	2.492474	1.815168	-12.294989	-7.688382	4.856189	-0.780273	0.251221	-0.538818
1294.0	8.651071	-11.800042	-37.655518	-18.13142	-4.871764	0.280078	-0.796631	0.327393	-0.483398
1295.0	27.216382	-20.968858	-19.048821	4.569421	-1.122141	2.397406	-0.788574	0.290527	-0.539795
1296.0	45.658549	7.887752	42.045361	11.018157	3.274563	4.03692	-0.752441	0.264648	-0.612061
1297.0	30.251163	15.467206	29.458176	-1.891274	1.924951	1.670266	-0.758789	0.310303	-0.565186
1298.0	-5.866027	-7.185453	-2.724828	-15.10227	-1.518794	0.116846	-0.75415	0.401855	-0.512207
1299.0	6.122614	-13.145425	-21.167566	-5.722617	2.029707	0.561163	-0.747314	0.393311	-0.532715
1300.0	11.219381	-8.365218	4.954205	10.199683	0.123197	1.044227	-0.74292	0.341064	-0.593262
1301.0	10.835107	15.185151	21.483107	7.217503	3.731511	0.542869	-0.724121	0.315186	-0.620117
1302.0	2.500581	11.985871	9.383165	-4.156816	0.448537	0.485537	-0.730713	0.365234	-0.595947
1303.0	6.815376	0.207959	3.273444	-8.073622	-1.420565	1.073504	-0.728516	0.413086	-0.560303
1304.0	13.244522	-9.806094	2.413908	-2.783845	0.544806	0.593688	-0.724365	0.41748	-0.564941
1305.0	5.935024	-3.793515	0.49695	2.919806	1.582292	0.347852	-0.718994	0.393555	-0.601074
1306.0	7.704375	5.744382	11.149854	2.495231	1.074572	0.367455	-0.705811	0.389404	-0.603271
1307.0	6.481164	5.29632	10.731189	-1.838174	0.222158	0.486176	-0.706299	0.404541	-0.594482
1308.0	6.900361	-2.116892	4.95081	-3.24946	-0.584426	0.423304	-0.709473	0.426514	-0.581299
1309.0	8.664705	-4.477223	3.302844	-0.358681	0.011265	0.243797	-0.709717	0.430664	-0.585938
1310.0	7.005403	-0.581514	5.77559	1.465884	0.420599	0.090805	-0.707031	0.417725	-0.596924
1311.0	6.496365	1.434019	9.299211	0.207975	0.095672	-0.048299	-0.704834	0.417725	-0.594727
1312.0	6.70797	-0.195655	7.005188	-0.844096	-0.513552	-0.157242	-0.713623	0.419922	-0.585693
1313.0	8.204954	-0.323252	4.901263	-0.05525	-0.620866	-0.213777	-0.711182	0.415527	-0.585449
1314.0	8.410374	1.267855	5.657798	0.604744	-0.298383	-0.147778	-0.713379	0.415527	-0.585449
1315.0	7.974323	1.936613	6.782359	0.184119	-0.228398	-0.072235	-0.713623	0.417725	-0.590088
1316.0	8.09148	1.526464	6.574733	-0.129005	-0.354856	-0.00603	-0.724609	0.419678	-0.583252
1317.0	8.388251	1.340456	5.685203	-0.051916	-0.376904	0.06037	-0.722168	0.417725	-0.583252
1318.0	8.551761	1.470273	5.462924	0.0654	-0.185964	0.146801	-0.725098	0.432861	-0.583496
1319.0	8.37474	1.475336	5.826586	0.032986	0.007964	0.238955	-0.729492	0.430664	-0.57666
1320.0	7.912296	0.892251	6.44502	-0.06449	0.026895	0.3132	-0.738037	0.428467	-0.578857
1321.0	7.699078	0.330486	6.298764	-0.158917	-0.066032	0.308102	-0.73584	0.428467	-0.572021
1322.0	7.76703	0.124019	5.879929	-0.026629	-0.150662	0.294166	-0.73999	0.42627	-0.562988
