Acquisition frequency: 100 Hz
PacketCounter	Acc_X	Acc_Y	Acc_Z	Gyr_X	Gyr_Y	Gyr_Z	Mag_X	Mag_Y	Mag_Z
0.0	9.626913	0.508394	-0.281182	-0.165006	0.372397	0.0191	-0.649658	0.057861	-0.473633
1.0	9.486997	0.294048	-0.153997	-0.151584	0.113748	0.033889	-0.649658	0.057861	-0.478271
2.0	9.557721	0.240278	-0.415199	-0.092143	-0.07672	0.034475	-0.651855	0.057861	-0.480713
3.0	9.68257	0.202813	-0.742936	-0.049916	-0.190334	0.029529	-0.64502	0.057861	-0.473633
4.0	9.843643	0.232833	-1.017338	-0.042572	-0.215826	0.018357	-0.649658	0.057861	-0.476074
5.0	9.993371	0.262831	-1.165846	-0.029062	-0.188008	-0.002534	-0.65625	0.057861	-0.464355
6.0	10.114017	0.2595	-1.213922	-0.033494	-0.12063	-0.013664	-0.649414	0.055664	-0.471191
7.0	10.159191	0.310188	-1.147289	-0.04364	-0.047121	-0.017172	-0.649658	0.062256	-0.471436
8.0	10.105709	0.330549	-1.095309	-0.069881	0.030763	-0.005828	-0.649414	0.055664	-0.47583
9.0	10.017798	0.298599	-0.996961	-0.085828	0.100361	0.009542	-0.647461	0.062256	-0.473877
10.0	9.825361	0.268136	-0.831153	-0.105634	0.136725	0.027145	-0.647461	0.057861	-0.473633
11.0	9.710373	0.163849	-0.67321	-0.10756	0.134586	0.04055	-0.651855	0.057861	-0.473633
12.0	9.628798	0.075014	-0.557114	-0.078386	0.095255	0.046749	-0.64502	0.055664	-0.473633
13.0	9.606247	-0.017018	-0.440397	-0.046277	0.051354	0.046719	-0.647461	0.060059	-0.471436
14.0	9.583852	-0.054971	-0.42625	-0.016393	0.001498	0.041239	-0.645264	0.062256	-0.473877
15.0	9.647347	-0.128492	-0.509531	-0.003428	-0.051411	0.032041	-0.654297	0.062256	-0.473877
16.0	9.710007	-0.133361	-0.553224	0.024175	-0.08277	0.028298	-0.6521	0.062256	-0.480713
17.0	9.779421	-0.136218	-0.683377	0.062762	-0.095376	0.017688	-0.6521	0.062256	-0.469238
18.0	9.855785	-0.020393	-0.712753	0.08438	-0.099678	0.016943	-0.656494	0.062256	-0.473877
19.0	9.959345	0.110118	-0.696931	0.066643	-0.082209	0.025833	-0.643066	0.064453	-0.4646
20.0	10.031127	0.188925	-0.682234	0.028599	-0.048445	0.047228	-0.647461	0.060059	-0.468994
21.0	10.171044	0.176678	-0.68929	-0.009107	-0.029432	0.070767	-0.643066	0.062256	-0.476074
22.0	10.214439	0.201517	-0.717291	-0.025748	-0.043804	0.093165	-0.649902	0.06665	-0.476318
23.0	10.2368	0.157104	-0.779227	-0.016597	-0.085803	0.103562	-0.649902	0.064453	-0.467041
24.0	10.316727	0.128337	-0.939652	0.022746	-0.125606	0.103339	-0.652344	0.068848	-0.464844
25.0	10.373684	0.133578	-1.046367	0.050379	-0.114298	0.104273	-0.656982	0.071045	-0.469482
26.0	10.321658	0.161567	-1.141323	0.029043	-0.016779	0.097098	-0.6521	0.062256	-0.471436
27.0	10.142023	0.126597	-1.149703	-0.017689	0.127812	0.093013	-0.650146	0.073242	-0.467285
28.0	9.926245	0.0221	-0.964839	-0.051103	0.256707	0.088921	-0.647705	0.064453	-0.469238
29.0	9.707257	-0.013455	-0.684791	-0.064064	0.342326	0.074427	-0.650146	0.073242	-0.471924
30.0	9.369641	-0.006534	-0.411159	-0.088294	0.344377	0.061131	-0.6521	0.06665	-0.476318
31.0	9.210481	-0.110459	-0.214959	-0.142173	0.254206	0.055092	-0.647949	0.071045	-0.474121
32.0	9.255339	-0.324984	-0.154435	-0.126594	0.142923	0.028334	-0.647705	0.06665	-0.476318
33.0	9.287823	-0.236198	-0.339175	-0.007903	0.050465	-0.01036	-0.647705	0.068848	-0.480957
34.0	9.295009	0.079611	-0.4448	0.067358	-0.034279	-0.04122	-0.647705	0.06665	-0.478516
35.0	9.382741	0.217193	-0.452315	-0.018229	-0.048921	-0.044211	-0.652344	0.068848	-0.474121
36.0	9.449997	0.065403	-0.522019	-0.083769	0.00718	-0.073251	-0.647705	0.06665	-0.480957
37.0	9.529132	0.016201	-0.425787	-0.032513	0.105448	-0.112695	-0.640869	0.06665	-0.476318
38.0	9.574681	0.213214	-0.248368	0.050174	0.183075	-0.165901	-0.643066	0.062256	-0.476074
39.0	9.625919	0.571535	-0.164082	0.064648	0.152167	-0.186591	-0.643066	0.064453	-0.476318
40.0	9.83198	0.81959	-0.101758	0.006429	0.055511	-0.168748	-0.641113	0.068848	-0.483398
41.0	10.119639	0.926001	-0.141967	-0.055791	-0.031664	-0.131937	-0.647705	0.064453	-0.483154
42.0	10.177424	0.851769	-0.28625	-0.10644	-0.109365	-0.088821	-0.643066	0.064453	-0.483154
43.0	10.161735	0.67662	-0.559916	-0.157771	-0.173845	-0.048332	-0.6521	0.062256	-0.480713
44.0	10.099243	0.499508	-0.772325	-0.183277	-0.210434	-0.02826	-0.647461	0.062256	-0.476074
45.0	10.063393	0.268493	-0.986918	-0.183095	-0.231193	-0.016645	-0.645264	0.062256	-0.473877
46.0	10.086295	0.082349	-1.054753	-0.164086	-0.219483	-0.021685	-0.649658	0.062256	-0.473877
47.0	10.109424	-0.103374	-1.119643	-0.170169	-0.158008	-0.022319	-0.649902	0.06665	-0.469238
48.0	10.133452	-0.288539	-1.176541	-0.152766	-0.047909	-0.030246	-0.647705	0.06665	-0.473877
49.0	10.123762	-0.355511	-1.093834	-0.089684	0.073858	-0.034875	-0.647705	0.068848	-0.47168
50.0	10.068225	-0.289043	-0.844199	-0.00695	0.161582	-0.026922	-0.654297	0.064453	-0.469238
51.0	9.993538	-0.0875	-0.528054	0.043518	0.212003	-0.011188	-0.643311	0.068848	-0.47168
52.0	9.913443	0.131773	-0.266937	0.065831	0.196685	0.008956	-0.650146	0.068848	-0.480957
53.0	9.806598	0.267201	-0.100143	0.078441	0.134613	0.028302	-0.645508	0.06665	-0.478516
54.0	9.713508	0.351177	-0.013672	0.104052	0.018695	0.044617	-0.643311	0.06665	-0.478516
55.0	9.726868	0.36389	-0.044603	0.103753	-0.100353	0.0561	-0.645508	0.068848	-0.474121
56.0	9.748437	0.310536	-0.212811	0.079262	-0.160476	0.058569	-0.645264	0.064453	-0.476318
57.0	9.780371	0.308235	-0.367085	0.042361	-0.156155	0.047837	-0.649902	0.06665	-0.476318
58.0	9.736187	0.223809	-0.500441	0.003512	-0.131121	0.026022	-0.6521	0.06665	-0.480957
59.0	9.667107	0.141412	-0.576414	-0.007531	-0.100782	-0.004322	-0.647705	0.064453	-0.473877
60.0	9.661476	0.107144	-0.544441	-0.010774	-0.086856	-0.023242	-0.643066	0.062256	-0.471436
61.0	9.705929	0.055291	-0.523071	-0.035179	-0.102392	-0.035631	-0.654297	0.062256	-0.466797
62.0	9.721744	-0.044465	-0.550473	-0.030866	-0.137683	-0.047127	-0.650146	0.068848	-0.47168
63.0	9.809668	-0.00614	-0.656697	0.001957	-0.17662	-0.047165	-0.645508	0.068848	-0.469482
64.0	9.896954	0.031689	-0.767034	0.03335	-0.215216	-0.039763	-0.647461	0.060059	-0.466797
65.0	9.996353	0.085544	-0.9076	0.039526	-0.237616	-0.018397	-0.654297	0.062256	-0.4646
66.0	10.10181	0.084595	-1.035895	0.040349	-0.223141	0.00335	-0.654541	0.068848	-0.464844
67.0	10.158766	0.067317	-1.193216	0.062306	-0.167054	0.018544	-0.654297	0.064453	-0.459961
68.0	10.134158	0.085358	-1.291833	0.092463	-0.082603	0.017927	-0.654297	0.062256	-0.4646
69.0	10.075714	0.119427	-1.297799	0.103998	0.02813	0.01833	-0.658691	0.062256	-0.471436
70.0	9.950153	0.153422	-1.170294	0.104777	0.140524	0.010261	-0.652344	0.068848	-0.469482
71.0	9.830462	0.169521	-0.977239	0.10255	0.218784	0.001894	-0.649902	0.064453	-0.4646
72.0	9.720143	0.203381	-0.764106	0.107326	0.250097	-0.008157	-0.658691	0.060059	-0.473633
73.0	9.65711	0.252716	-0.518467	0.102459	0.234917	-0.011683	-0.656494	0.060059	-0.464355
74.0	9.58999	0.288048	-0.376087	0.102968	0.180811	-0.01463	-0.654297	0.064453	-0.478516
75.0	9.506022	0.359774	-0.270159	0.09987	0.083577	-0.016374	-0.652344	0.068848	-0.469482
76.0	9.605866	0.444445	-0.344199	0.108443	-0.050626	-0.007941	-0.6521	0.064453	-0.47168
77.0	9.744267	0.45824	-0.455982	0.116527	-0.146989	-0.007035	-0.649902	0.064453	-0.469238
78.0	9.887275	0.438308	-0.659032	0.101183	-0.172189	7e-06	-0.654297	0.062256	-0.4646
79.0	9.94919	0.420963	-0.854187	0.078024	-0.142367	0.001923	-0.649658	0.057861	-0.468994
80.0	10.022539	0.33248	-0.97481	0.062685	-0.090596	0.002569	-0.651855	0.060059	-0.464355
81.0	10.048102	0.244242	-0.979867	0.055746	-0.021248	-0.000121	-0.6521	0.062256	-0.4646
82.0	10.021176	0.174828	-0.925247	0.037509	0.044116	0.001959	-0.649658	0.057861	-0.464355
83.0	10.013936	0.138856	-0.834571	0.024788	0.095047	-0.000237	-0.649658	0.060059	-0.471436
84.0	10.005254	0.122609	-0.838761	0.030578	0.123443	-0.011973	-0.649414	0.055664	-0.466553
85.0	9.912542	0.178435	-0.747811	0.047096	0.13294	-0.019216	-0.64502	0.057861	-0.468994
86.0	9.896786	0.230748	-0.622409	0.0454	0.130859	-0.01792	-0.647217	0.053467	-0.473389
87.0	9.845505	0.285812	-0.557135	0.047193	0.119801	-0.024865	-0.649658	0.060059	-0.466797
88.0	9.829078	0.338692	-0.433708	0.051992	0.108689	-0.020579	-0.649658	0.057861	-0.468994
89.0	9.785329	0.375778	-0.35696	0.044466	0.084067	-0.017083	-0.649414	0.055664	-0.471191
90.0	9.794982	0.393388	-0.335596	0.02733	0.046517	-0.00453	-0.651855	0.057861	-0.476074
91.0	9.759617	0.342317	-0.294196	0.016228	0.005354	0.006585	-0.647217	0.057861	-0.471436
92.0	9.786275	0.306954	-0.392559	0.013288	-0.029702	0.012988	-0.647217	0.053467	-0.480469
93.0	9.817317	0.252753	-0.436396	0.013314	-0.040714	0.018587	-0.64502	0.055664	-0.464355
94.0	9.853251	0.233443	-0.522127	0.005874	-0.033952	0.013141	-0.645264	0.062256	-0.471436
95.0	9.824664	0.181849	-0.570522	-0.005937	-0.029405	0.018237	-0.649414	0.055664	-0.464355
96.0	9.834579	0.128386	-0.601442	-0.007175	-0.031048	0.01442	-0.656494	0.060059	-0.476074
97.0	9.853898	0.092059	-0.618197	0.009538	-0.047728	0.007977	-0.645264	0.064453	-0.469238
98.0	9.876029	0.125247	-0.635485	0.028567	-0.059463	0.001313	-0.649658	0.062256	-0.478516
99.0	9.820913	0.16263	-0.688732	0.04206	-0.076102	-0.004254	-0.6521	0.064453	-0.473877
100.0	9.838093	0.214925	-0.76548	0.051566	-0.083542	-0.009977	-0.654053	0.057861	-0.466797
101.0	9.825968	0.232848	-0.746778	0.054202	-0.093365	-0.007995	-0.6521	0.064453	-0.469238
102.0	9.846236	0.232689	-0.768093	0.044216	-0.08366	-0.011487	-0.649658	0.057861	-0.471436
103.0	9.827949	0.234501	-0.805297	0.039691	-0.068006	-0.010462	-0.651855	0.057861	-0.473633
104.0	9.830699	0.235565	-0.853259	0.036876	-0.04822	-0.01158	-0.649414	0.053467	-0.464111
105.0	9.849433	0.269963	-0.827819	0.035423	-0.041967	-0.013681	-0.649658	0.057861	-0.462158
106.0	9.836262	0.253886	-0.804872	0.029309	-0.042491	-0.010533	-0.651855	0.057861	-0.464355
107.0	9.890501	0.270023	-0.861636	0.022807	-0.046542	-0.007062	-0.651855	0.057861	-0.466797
108.0	9.881907	0.288189	-0.881153	0.0227	-0.0507	-0.005361	-0.651855	0.055664	-0.466553
109.0	9.842766	0.290407	-0.903242	0.018584	-0.05085	-0.007753	-0.654297	0.062256	-0.466797
110.0	9.854953	0.307868	-0.936213	0.010629	-0.064862	-0.004682	-0.654053	0.055664	-0.468994
111.0	9.854296	0.3081	-0.943022	-0.004878	-0.073136	-0.00056	-0.6521	0.062256	-0.471436
112.0	9.867915	0.290903	-1.020041	-0.001746	-0.075275	-0.000595	-0.654297	0.062256	-0.4646
113.0	9.910345	0.323942	-1.052251	0.007249	-0.07106	-0.001239	-0.651855	0.055664	-0.461914
114.0	9.930593	0.323243	-1.070708	0.012201	-0.045557	-0.002055	-0.65625	0.057861	-0.466797
115.0	9.934768	0.358124	-1.114883	-0.005711	-0.00012	-0.001941	-0.654297	0.060059	-0.466797
116.0	9.90832	0.289819	-1.058028	-0.031848	0.051285	0.002956	-0.649414	0.055664	-0.464355
117.0	9.871105	0.239275	-0.968575	-0.040675	0.101956	-0.004049	-0.65625	0.057861	-0.466797
118.0	9.836979	0.257993	-0.874381	-0.030812	0.136722	-0.003951	-0.651855	0.057861	-0.471436
119.0	9.786932	0.259372	-0.708523	-0.039518	0.15014	-0.004465	-0.654297	0.064453	-0.469238
120.0	9.741415	0.226693	-0.627741	-0.045039	0.131071	-0.002488	-0.654053	0.057861	-0.468994
121.0	9.698787	0.194114	-0.592238	-0.029904	0.089234	-0.00204	-0.651855	0.055664	-0.461914
122.0	9.729651	0.210375	-0.583583	-0.0159	0.036833	-0.000645	-0.654053	0.055664	-0.468994
123.0	9.748817	0.243702	-0.552237	-0.015555	-0.010351	0.004924	-0.651855	0.057861	-0.466797
124.0	9.813389	0.206767	-0.63491	-0.012066	-0.043454	0.008776	-0.654297	0.060059	-0.466797
125.0	9.900091	0.20332	-0.73247	0.002509	-0.064682	0.009555	-0.651855	0.060059	-0.466797
126.0	9.912434	0.219059	-0.766109	0.017689	-0.065754	0.01534	-0.651855	0.057861	-0.471436
127.0	9.945787	0.233594	-0.810993	0.005084	-0.037903	0.018592	-0.651855	0.055664	-0.473633
128.0	9.928302	0.164146	-0.884924	-0.000719	0.009594	0.018071	-0.647217	0.053467	-0.46875
129.0	9.915535	0.214239	-0.811214	0.011847	0.063858	0.012043	-0.65625	0.055664	-0.464355
130.0	9.833893	0.250618	-0.752819	0.013446	0.096251	0.008241	-0.651855	0.057861	-0.466797
131.0	9.803821	0.249281	-0.604315	0.008275	0.097991	0.013825	-0.651855	0.060059	-0.464355
132.0	9.799585	0.213394	-0.553981	0.020731	0.076984	0.006676	-0.653809	0.053467	-0.464111
133.0	9.778933	0.213809	-0.535962	0.038638	0.037394	-0.002982	-0.654297	0.062256	-0.471436
134.0	9.739937	0.284474	-0.509699	0.054153	-0.022303	-0.005086	-0.647217	0.055664	-0.471191
135.0	9.793001	0.265601	-0.567516	0.054591	-0.084664	-0.004271	-0.647217	0.057861	-0.471436
136.0	9.89236	0.27993	-0.696876	0.042863	-0.116708	-0.006174	-0.654053	0.055664	-0.471191
137.0	9.993205	0.260065	-0.869466	0.050246	-0.096273	-0.008047	-0.651855	0.055664	-0.461914
138.0	10.029511	0.277009	-0.958516	0.057657	-0.043405	-0.013344	-0.653809	0.05127	-0.461914
139.0	10.054961	0.311425	-1.014251	0.0607	0.021421	-0.008959	-0.649658	0.057861	-0.466797
140.0	9.999014	0.330509	-0.914356	0.051923	0.085611	-0.003401	-0.651855	0.055664	-0.468994
141.0	9.922468	0.35003	-0.796644	0.0437	0.129194	0.001845	-0.651611	0.053467	-0.461914
142.0	9.874892	0.351	-0.674738	0.041441	0.12837	0.000393	-0.654053	0.055664	-0.473633
143.0	9.811271	0.318577	-0.626497	0.032571	0.097956	0.001906	-0.654297	0.064453	-0.469238
144.0	9.816453	0.300463	-0.561349	0.023821	0.071703	0.001707	-0.649414	0.055664	-0.471191
145.0	9.781683	0.301836	-0.614981	0.016037	0.047737	0.003936	-0.651855	0.060059	-0.473633
146.0	9.789998	0.28354	-0.596252	0.0081	0.033754	0.006995	-0.649414	0.05127	-0.473389
147.0	9.76919	0.283629	-0.580925	0.000317	0.025993	0.007494	-0.642822	0.057861	-0.468994
148.0	9.75185	0.283967	-0.607788	0.000185	0.032833	0.003555	-0.651855	0.057861	-0.476074
149.0	9.77965	0.230774	-0.602373	-0.000716	0.032626	0.000271	-0.651855	0.055664	-0.471191
150.0	9.77982	0.230718	-0.599612	0.011866	0.024101	0.000194	-0.649658	0.057861	-0.468994
151.0	9.806938	0.246421	-0.552703	0.008899	0.021463	0.0033	-0.649414	0.055664	-0.471191
152.0	9.784582	0.212322	-0.538534	0.013924	0.01868	0.004225	-0.649414	0.053467	-0.47583
153.0	9.767164	0.212711	-0.567148	0.012104	0.00521	0.004155	-0.651855	0.055664	-0.468994
154.0	9.776622	0.228877	-0.552727	0.001804	-0.015781	0.008299	-0.647217	0.055664	-0.480469
155.0	9.789487	0.244798	-0.582666	-0.000891	-0.040443	0.010593	-0.647217	0.055664	-0.478271
156.0	9.81972	0.259757	-0.585069	0.009913	-0.06037	0.0096	-0.649658	0.057861	-0.468994
157.0	9.86486	0.256958	-0.658269	-0.00873	-0.066475	0.013681	-0.647217	0.057861	-0.471436
158.0	9.909932	0.25388	-0.73131	-0.028692	-0.056975	0.017856	-0.649414	0.05127	-0.461914
159.0	9.937623	0.130282	-0.77661	-0.028519	-0.045551	0.019216	-0.649414	0.055664	-0.466553
160.0	9.913679	0.112967	-0.866748	-0.018155	-0.022483	0.014207	-0.647217	0.057861	-0.471436
161.0	9.923138	0.128585	-0.852836	-0.010362	0.001474	0.011979	-0.651855	0.057861	-0.473633
162.0	9.854157	0.113417	-0.871496	-9.5e-05	0.020397	0.008677	-0.649658	0.060059	-0.473633
163.0	9.83147	0.148152	-0.814231	0.011354	0.030556	0.001345	-0.654053	0.057861	-0.468994
164.0	9.839325	0.19964	-0.753683	0.023111	0.036954	-0.00938	-0.647217	0.057861	-0.471436
165.0	9.837617	0.234757	-0.707927	0.026534	0.034196	-0.008021	-0.656494	0.060059	-0.466797
166.0	9.843874	0.252123	-0.647782	0.02421	0.029249	-0.00778	-0.656006	0.05127	-0.471191
167.0	9.832558	0.270428	-0.617401	0.019516	0.033483	-0.008177	-0.654053	0.055664	-0.471191
168.0	9.863222	0.286778	-0.612296	0.012473	0.019715	-0.001831	-0.649658	0.060059	-0.471436
169.0	9.851779	0.304407	-0.583898	0.004147	0.002219	0.001558	-0.651855	0.055664	-0.471191
170.0	9.86676	0.28649	-0.653795	0.002935	-0.010423	0.003398	-0.649414	0.055664	-0.47583
171.0	9.85368	0.269333	-0.628113	0.001493	-0.020371	0.003005	-0.649658	0.057861	-0.466797
172.0	9.857042	0.268897	-0.672217	-0.002686	-0.019453	0.00622	-0.651855	0.057861	-0.478271
173.0	9.835956	0.269083	-0.661259	0.000637	-0.010158	0.007557	-0.643066	0.064453	-0.47168
174.0	9.803448	0.286993	-0.621969	-0.007091	0.000357	0.005469	-0.654053	0.055664	-0.471191
175.0	9.832527	0.267488	-0.61918	-0.013825	0.007375	0.015382	-0.656738	0.064453	-0.478516
176.0	9.830619	0.300579	-0.576512	-0.016816	-0.00047	0.014572	-0.651855	0.055664	-0.473633
177.0	9.842085	0.281373	-0.604918	-0.023658	-0.022143	0.019232	-0.6521	0.062256	-0.478516
178.0	9.830908	0.228259	-0.623039	-0.018929	-0.040508	0.020505	-0.649414	0.055664	-0.466553
179.0	9.855098	0.225622	-0.681992	-0.012056	-0.049161	0.018449	-0.649414	0.055664	-0.468994
180.0	9.854783	0.224101	-0.687025	-0.017168	-0.053659	0.014465	-0.651855	0.057861	-0.478271
181.0	9.894902	0.186987	-0.716864	-0.013012	-0.043589	0.0056	-0.649658	0.057861	-0.471436
182.0	9.856059	0.18827	-0.737882	-0.014758	-0.033581	0.006874	-0.6521	0.062256	-0.473877
183.0	9.876799	0.186753	-0.753596	-0.012543	-0.032786	0.008341	-0.649658	0.062256	-0.471436
184.0	9.897554	0.185229	-0.769014	-0.010501	-0.027219	0.006722	-0.651855	0.055664	-0.466553
185.0	9.865043	0.203155	-0.731378	-0.009382	-0.01872	0.006593	-0.656494	0.060059	-0.464355
186.0	9.847332	0.203387	-0.762343	-0.008902	-0.007913	0.009334	-0.651855	0.055664	-0.468994
187.0	9.828118	0.169087	-0.792873	-0.004053	-0.00593	0.007162	-0.6521	0.062256	-0.471436
188.0	9.865171	0.132171	-0.775944	0.000319	0.004584	0.005301	-0.647461	0.060059	-0.468994
189.0	9.887721	0.165273	-0.78783	0.008593	0.003806	0.004481	-0.649902	0.064453	-0.469238
190.0	9.844297	0.132365	-0.762442	0.02092	0.008957	-0.0035	-0.64502	0.057861	-0.466797
191.0	9.8588	0.183809	-0.789065	0.030289	0.000473	-0.002724	-0.651855	0.060059	-0.468994
192.0	9.848961	0.236063	-0.761588	0.034743	-0.001071	-0.004567	-0.654053	0.057861	-0.473633
193.0	9.90852	0.233469	-0.756804	0.027481	0.004058	-0.002172	-0.651855	0.060059	-0.464355
194.0	9.869988	0.235248	-0.773235	0.025405	0.012619	-0.001426	-0.649658	0.057861	-0.473633
195.0	9.866749	0.235205	-0.729725	0.027393	0.016111	-0.002195	-0.647461	0.060059	-0.468994
196.0	9.813553	0.254957	-0.675512	0.026987	0.023577	-0.007518	-0.649658	0.057861	-0.468994
197.0	9.821722	0.237831	-0.65857	0.014845	0.021517	-0.006873	-0.651855	0.057861	-0.464355
198.0	9.821787	0.238363	-0.657407	0.022757	0.003084	-0.006473	-0.649414	0.055664	-0.47583
199.0	9.81038	0.256543	-0.629906	0.025896	0.000947	-0.006494	-0.647705	0.064453	-0.462402
200.0	9.810366	0.256841	-0.629998	0.019734	-0.001623	-0.002504	-0.649658	0.057861	-0.473633
201.0	9.789356	0.25802	-0.617992	0.016506	-0.006774	-0.005541	-0.6521	0.062256	-0.471436
202.0	9.7797	0.241583	-0.634078	0.023939	-0.016676	-0.004834	-0.647217	0.053467	-0.46875
203.0	9.760072	0.27722	-0.624345	0.036531	-0.039352	-0.004026	-0.651855	0.057861	-0.466797
204.0	9.772646	0.29403	-0.656838	0.030257	-0.065414	-0.001335	-0.654053	0.057861	-0.473633
205.0	9.841289	0.307803	-0.645058	0.008291	-0.091784	0.007141	-0.649414	0.055664	-0.464355
206.0	9.845664	0.2723	-0.738967	-0.014565	-0.102164	0.010591	-0.654053	0.055664	-0.468994
207.0	9.901317	0.251825	-0.843392	-0.002681	-0.097425	0.007698	-0.649658	0.062256	-0.469238
208.0	9.877896	0.269546	-0.93893	0.003948	-0.084051	0.006417	-0.649658	0.057861	-0.468994
209.0	9.91907	0.266895	-0.97103	-0.006705	-0.056803	0.010477	-0.653809	0.053467	-0.464111
210.0	9.926908	0.179219	-1.002031	-0.01953	-0.014134	0.011321	-0.651855	0.057861	-0.473633
211.0	9.880502	0.14566	-0.934128	-0.013939	0.026317	0.011433	-0.656738	0.064453	-0.469238
212.0	9.877662	0.144654	-0.888884	-0.008994	0.035585	0.012301	-0.6521	0.062256	-0.466797
213.0	9.829839	0.145855	-0.775983	-0.007966	0.033653	0.004331	-0.654297	0.062256	-0.4646
214.0	9.799475	0.129403	-0.775805	-0.004243	0.016131	0.00796	-0.654053	0.057861	-0.466797
215.0	9.791392	0.146531	-0.790553	0.019055	-0.015531	0.002072	-0.651855	0.060059	-0.466797
216.0	9.805598	0.197494	-0.819979	0.027105	-0.027757	-9.9e-05	-0.653809	0.05127	-0.464111
217.0	9.837515	0.24776	-0.820199	0.020543	-0.022858	-0.001423	-0.656494	0.062256	-0.459961
218.0	9.856727	0.212461	-0.83442	0.013232	-0.008798	-0.003834	-0.65625	0.055664	-0.466553
219.0	9.85672	0.212851	-0.834394	0.023525	0.010121	-0.007207	-0.653809	0.05127	-0.464111
220.0	9.884287	0.229003	-0.788122	0.016149	0.028396	0.000772	-0.653809	0.053467	-0.466553
221.0	9.826524	0.266035	-0.789413	0.011863	0.036166	4.7e-05	-0.6521	0.062256	-0.466797
222.0	9.804299	0.232385	-0.773826	0.018995	0.026875	-0.000631	-0.654297	0.060059	-0.464355
223.0	9.80771	0.249203	-0.672954	0.024314	0.009324	0.002569	-0.656494	0.060059	-0.464355
224.0	9.798043	0.23174	-0.688318	0.019848	-0.01947	0.007091	-0.654053	0.055664	-0.468994
225.0	9.809127	0.212955	-0.718569	0.023229	-0.038441	0.010216	-0.647461	0.060059	-0.468994
226.0	9.832903	0.210828	-0.777526	0.029786	-0.046494	0.006782	-0.65625	0.057861	-0.466797
227.0	9.855047	0.243434	-0.794489	0.039116	-0.040856	0.006655	-0.654297	0.060059	-0.468994
228.0	9.833879	0.243459	-0.785504	0.038702	-0.030249	0.00608	-0.649658	0.062256	-0.4646
229.0	9.877059	0.275299	-0.813232	0.02912	-0.01906	0.003054	-0.654297	0.060059	-0.468994
230.0	9.872297	0.240585	-0.772189	0.020563	-0.003512	0.001587	-0.651855	0.055664	-0.466553
231.0	9.881955	0.257275	-0.757764	0.019991	-0.002272	-0.001175	-0.656494	0.060059	-0.462158
232.0	9.804532	0.260605	-0.792463	0.017549	-0.011363	0.000814	-0.654053	0.055664	-0.466553
233.0	9.834949	0.276419	-0.792287	0.022968	-0.027926	-0.00245	-0.647705	0.064453	-0.467041
234.0	9.845879	0.258575	-0.822961	0.021776	-0.038506	-0.00142	-0.65625	0.057861	-0.462158
235.0	9.837407	0.276224	-0.841913	0.01722	-0.044252	-0.002606	-0.653809	0.053467	-0.464111
236.0	9.881863	0.273899	-0.913353	0.010952	-0.036815	0.002207	-0.654297	0.062256	-0.4646
237.0	9.900958	0.23803	-0.928251	0.016576	-0.010499	0.003152	-0.652344	0.068848	-0.462402
238.0	9.889805	0.255529	-0.900825	0.01423	0.012837	0.001554	-0.651855	0.055664	-0.464355
239.0	9.846727	0.222688	-0.87286	0.006532	0.040671	0.003285	-0.65625	0.053467	-0.466553
240.0	9.853729	0.239309	-0.811895	0.01097	0.042266	0.006198	-0.65625	0.055664	-0.466553
241.0	9.849392	0.204507	-0.76591	0.02099	0.033514	0.003266	-0.649658	0.060059	-0.468994
242.0	9.843054	0.256021	-0.778488	0.017412	0.015919	0.005435	-0.654297	0.060059	-0.468994
243.0	9.862457	0.219772	-0.79007	0.005977	0.002647	0.008093	-0.651855	0.060059	-0.468994
244.0	9.823814	0.22064	-0.806744	0.009506	0.004029	0.007726	-0.658447	0.053467	-0.471191
245.0	9.81915	0.185784	-0.764426	0.010989	-0.003308	0.00425	-0.649414	0.053467	-0.471191
246.0	9.81719	0.202365	-0.864257	0.009625	-0.009121	0.002178	-0.65625	0.057861	-0.462158
247.0	9.825207	0.184375	-0.850514	0.007919	-0.01323	0.004349	-0.651855	0.060059	-0.466797
248.0	9.804238	0.18505	-0.838931	0.011274	-0.007085	0.000871	-0.660889	0.057861	-0.471436
249.0	9.821986	0.184162	-0.81007	0.00968	-0.00705	0.001314	-0.651855	0.055664	-0.459717
250.0	9.84591	0.182642	-0.865384	0.01167	-0.00356	0.000525	-0.651855	0.060059	-0.468994
251.0	9.844389	0.217426	-0.823718	0.016165	-0.003049	-0.002187	-0.651855	0.060059	-0.462158
252.0	9.852462	0.199797	-0.809316	0.0148	-0.005704	0.000503	-0.651855	0.060059	-0.464355
253.0	9.855472	0.199173	-0.852326	0.019754	-0.010575	0.002284	-0.654053	0.057861	-0.459717
254.0	9.876274	0.197833	-0.865937	0.012809	-0.009194	0.001294	-0.649658	0.057861	-0.462158
255.0	9.86652	0.180649	-0.881296	0.02214	-0.003561	0.001145	-0.65625	0.057861	-0.464355
256.0	9.865084	0.215409	-0.838817	0.030211	0.014539	-0.003752	-0.65625	0.055664	-0.461914
257.0	9.857162	0.233013	-0.851475	0.022919	0.031763	-0.001454	-0.651611	0.053467	-0.464111
258.0	9.844699	0.216512	-0.820244	0.01591	0.045207	-0.002533	-0.654053	0.057861	-0.468994
259.0	9.819493	0.183538	-0.760553	0.016982	0.051636	-0.001847	-0.651855	0.055664	-0.468994
260.0	9.816711	0.184002	-0.713809	0.024095	0.04233	-0.002492	-0.654053	0.055664	-0.464355
261.0	9.816942	0.253685	-0.669072	0.024964	0.020016	-0.006899	-0.658691	0.057861	-0.468994
262.0	9.789518	0.237732	-0.713171	0.032783	-0.014647	-0.004592	-0.654053	0.055664	-0.468994
263.0	9.823006	0.253245	-0.756287	0.027626	-0.046331	-0.000995	-0.647217	0.053467	-0.466553
264.0	9.854713	0.234194	-0.801373	0.028652	-0.059274	-0.003237	-0.651855	0.055664	-0.466553
265.0	9.870133	0.250292	-0.876545	0.028184	-0.050739	-0.00298	-0.65625	0.055664	-0.471191
266.0	9.871295	0.2155	-0.92218	0.039595	-0.023346	-0.006631	-0.65625	0.057861	-0.464355
267.0	9.871163	0.215923	-0.923491	0.038498	-0.001509	-0.009247	-0.6521	0.062256	-0.4646
268.0	9.87938	0.26846	-0.866563	0.041955	0.011934	-0.009722	-0.65625	0.055664	-0.464355
269.0	9.874836	0.234955	-0.822778	0.036605	0.016445	-0.006407	-0.658936	0.064453	-0.459961
270.0	9.837805	0.271257	-0.838865	0.038029	0.010195	-0.004241	-0.654053	0.057861	-0.462158
271.0	9.868443	0.287174	-0.836075	0.039847	0.007471	-0.002429	-0.65625	0.053467	-0.461914
272.0	9.839532	0.305384	-0.837438	0.02722	0.015083	0.00412	-0.65625	0.057861	-0.464355
273.0	9.868721	0.2861	-0.833158	0.012147	0.024578	0.006958	-0.65625	0.057861	-0.462158
274.0	9.854644	0.234448	-0.802145	0.010542	0.038748	0.006414	-0.649658	0.060059	-0.464355
275.0	9.851841	0.234307	-0.756164	0.019121	0.039396	0.006104	-0.654297	0.060059	-0.468994
276.0	9.810273	0.235879	-0.728044	0.01436	0.022203	0.003668	-0.649658	0.060059	-0.466797
277.0	9.818423	0.217612	-0.712532	-0.001984	-0.011269	0.011285	-0.651611	0.053467	-0.461914
278.0	9.819845	0.181797	-0.756419	-0.00674	-0.031634	0.0041	-0.651855	0.060059	-0.464355
279.0	9.848291	0.213766	-0.857306	0.002929	-0.041861	0.000699	-0.651855	0.057861	-0.464355
280.0	9.818999	0.232293	-0.863074	0.004848	-0.026313	-0.000218	-0.654297	0.060059	-0.466797
281.0	9.866937	0.298537	-0.932369	0.003238	0.001992	-0.001755	-0.649414	0.055664	-0.461914
282.0	9.831866	0.248704	-0.88979	0.002702	0.039904	0.002124	-0.651855	0.055664	-0.466553
283.0	9.829238	0.249037	-0.842089	-0.002671	0.072683	0.003453	-0.651855	0.057861	-0.471436
284.0	9.781766	0.252172	-0.724643	-0.003893	0.090367	0.002553	-0.651855	0.060059	-0.466797
285.0	9.767876	0.270636	-0.647477	-0.004966	0.069797	0.002875	-0.651855	0.057861	-0.462158
286.0	9.771474	0.218777	-0.584903	-0.001981	0.033186	0.007452	-0.653809	0.053467	-0.461914
287.0	9.795696	0.216396	-0.63877	0.001146	-0.016585	0.006523	-0.651855	0.055664	-0.466553
288.0	9.777759	0.216122	-0.672064	-0.003875	-0.058242	0.009418	-0.656006	0.048828	-0.46167
289.0	9.822354	0.212455	-0.745724	-0.006086	-0.073179	0.008951	-0.656494	0.060059	-0.464355
290.0	9.898999	0.189852	-0.859113	-0.01014	-0.057133	0.004696	-0.654297	0.060059	-0.466797
291.0	9.872833	0.207709	-0.907387	-0.007664	-0.017726	-0.000172	-0.651611	0.05127	-0.464111
292.0	9.903444	0.223832	-0.904972	-0.007687	0.02467	-0.003131	-0.654053	0.057861	-0.471436
293.0	9.876576	0.226192	-0.80413	-0.008736	0.054913	0.002857	-0.651855	0.060059	-0.464355
294.0	9.852917	0.227973	-0.743979	-0.001973	0.055106	-0.00401	-0.651855	0.055664	-0.464355
295.0	9.861339	0.280135	-0.682557	0.00854	0.046207	0.001496	-0.654297	0.060059	-0.462158
296.0	9.814874	0.248076	-0.61225	0.002656	0.009564	0.004982	-0.651855	0.055664	-0.464355
297.0	9.806792	0.265005	-0.627855	-0.009767	-0.022172	0.007104	-0.651855	0.057861	-0.471436
298.0	9.811394	0.228587	-0.715155	-0.003954	-0.046186	0.009294	-0.65625	0.055664	-0.471191
299.0	9.823934	0.244143	-0.747171	-0.007426	-0.045497	0.008792	-0.65625	0.053467	-0.464111
300.0	9.838061	0.224724	-0.820293	-0.017613	-0.031975	0.008557	-0.653809	0.053467	-0.466553
301.0	9.857205	0.188527	-0.834526	-0.02348	-0.010028	0.007244	-0.649658	0.062256	-0.462158
302.0	9.85408	0.18861	-0.792123	-0.020421	0.014019	0.006138	-0.654053	0.055664	-0.471191
303.0	9.842985	0.206314	-0.763349	-0.013656	0.017387	0.004019	-0.649902	0.06665	-0.467041
304.0	9.801271	0.208159	-0.736938	-0.002737	0.008839	0.004409	-0.65625	0.055664	-0.466553
305.0	9.801275	0.207825	-0.736982	0.001025	-0.00977	0.002522	-0.651855	0.055664	-0.471191
306.0	9.862327	0.239153	-0.73471	0.005976	-0.028772	0.0053	-0.651855	0.060059	-0.464355
307.0	9.824939	0.205153	-0.797068	0.009502	-0.04153	0.005911	-0.656494	0.060059	-0.462158
308.0	9.845526	0.203334	-0.813661	0.006654	-0.040001	0.00731	-0.65625	0.055664	-0.466553
309.0	9.870888	0.235381	-0.872169	0.003069	-0.029315	0.007569	-0.654053	0.055664	-0.461914
310.0	9.8691	0.200269	-0.873832	0.004774	-0.011081	0.004406	-0.658691	0.057861	-0.462158
311.0	9.886874	0.199293	-0.844539	5.7e-05	0.00524	0.003881	-0.654297	0.062256	-0.462158
312.0	9.874136	0.18263	-0.816169	0.000228	0.011449	0.001272	-0.651855	0.060059	-0.466797
313.0	9.845241	0.201037	-0.817673	0.006765	0.006538	0.002627	-0.656494	0.060059	-0.459717
314.0	9.843762	0.235707	-0.775956	0.011824	-0.008329	0.003667	-0.654053	0.055664	-0.461914
315.0	9.837205	0.28716	-0.792804	0.007045	-0.022346	0.005977	-0.65625	0.057861	-0.459717
316.0	9.827312	0.269761	-0.809789	0.005452	-0.025479	0.001669	-0.654297	0.060059	-0.459717
317.0	9.848031	0.268241	-0.824529	0.000791	-0.018051	0.006006	-0.654297	0.060059	-0.459717
318.0	9.841256	0.250173	-0.883013	-0.006145	-0.016663	0.005009	-0.654297	0.060059	-0.464355
319.0	9.836468	0.215698	-0.841539	-0.012281	-0.005056	0.00805	-0.654053	0.055664	-0.459717
320.0	9.860722	0.162658	-0.796846	-0.004149	0.000957	0.003225	-0.65625	0.053467	-0.464111
321.0	9.842929	0.162899	-0.826245	-0.003808	0.002411	0.003739	-0.656494	0.060059	-0.468994
322.0	9.801147	0.164915	-0.801311	0.004261	-0.007782	0.000768	-0.65625	0.057861	-0.468994
323.0	9.842796	0.162719	-0.827866	0.013578	-0.019469	-0.003158	-0.658691	0.060059	-0.45752
324.0	9.834524	0.180516	-0.844913	0.016076	-0.022457	-0.005071	-0.656494	0.062256	-0.459961
325.0	9.834301	0.180652	-0.84748	0.013002	-0.029205	-0.000189	-0.651855	0.057861	-0.459717
326.0	9.824373	0.163648	-0.86428	0.0146	-0.015108	-0.001619	-0.651855	0.060059	-0.462158
327.0	9.814758	0.216293	-0.838822	0.02324	-0.012398	-0.002809	-0.658691	0.057861	-0.462158
328.0	9.811639	0.216797	-0.797789	0.017843	-0.009946	0.001374	-0.658691	0.060059	-0.462158
329.0	9.814545	0.215831	-0.841424	0.016985	-0.019065	0.002963	-0.65625	0.057861	-0.459717
330.0	9.811345	0.215974	-0.801611	0.019307	-0.028265	0.003666	-0.65625	0.057861	-0.462158
331.0	9.83195	0.214178	-0.817538	0.018731	-0.038	0.006642	-0.651611	0.053467	-0.464111
332.0	9.855479	0.211428	-0.876237	0.024355	-0.039968	0.009463	-0.65625	0.057861	-0.468994
333.0	9.87602	0.209553	-0.892517	0.021449	-0.032717	0.001244	-0.658691	0.057617	-0.45752
334.0	9.867611	0.226813	-0.910674	0.026275	-0.03077	-0.000961	-0.658691	0.060059	-0.464355
335.0	9.87841	0.208531	-0.940801	0.026674	-0.027248	-0.001322	-0.654297	0.062256	-0.45752
336.0	9.887973	0.225516	-0.928522	0.022475	-0.017393	-0.002968	-0.65625	0.053467	-0.466553
337.0	9.884929	0.22626	-0.887636	0.012204	-0.00799	-0.001451	-0.656494	0.064453	-0.455322
338.0	9.858866	0.244228	-0.932231	0.005859	0.006314	-0.000678	-0.658691	0.060059	-0.466797
339.0	9.846255	0.228081	-0.903561	0.004499	0.014633	-0.003727	-0.658691	0.060059	-0.45752
340.0	9.845119	0.263514	-0.860066	0.012576	0.021747	-0.002954	-0.656494	0.060059	-0.462158
341.0	9.842355	0.264641	-0.815713	0.004728	0.022909	-0.007223	-0.660645	0.05542	-0.459717
342.0	9.832729	0.248435	-0.828295	0.006535	0.017005	-0.010154	-0.662842	0.051025	-0.459473
343.0	9.821717	0.267347	-0.800015	0.014483	0.005842	-0.006622	-0.65625	0.057861	-0.464355
344.0	9.860461	0.26613	-0.782969	0.009197	-0.0017	-0.003177	-0.654053	0.057861	-0.462158
345.0	9.850691	0.249269	-0.797555	-0.003466	0.000695	-0.000496	-0.653809	0.053467	-0.464111
346.0	9.861779	0.23106	-0.824727	0.000286	-0.000614	0.001384	-0.653809	0.053467	-0.461914
347.0	9.840891	0.231924	-0.812643	0.016528	-0.010524	0.003206	-0.654053	0.057861	-0.462158
348.0	9.823166	0.301352	-0.802917	0.022084	-0.028696	0.007912	-0.658447	0.053223	-0.459473
349.0	9.813118	0.28357	-0.821073	0.008766	-0.044465	0.004971	-0.658691	0.057861	-0.459717
350.0	9.825464	0.299042	-0.853157	-0.003384	-0.045367	0.011302	-0.658691	0.057617	-0.45752
351.0	9.815364	0.28123	-0.871526	-0.01003	-0.033632	0.005942	-0.661133	0.064453	-0.459961
352.0	9.859666	0.27772	-0.941837	-0.008827	-0.023057	0.004848	-0.65625	0.057861	-0.45752
353.0	9.841631	0.277841	-0.972354	-0.010783	0.001743	0.003631	-0.654297	0.060059	-0.45752
354.0	9.880561	0.275803	-0.954026	-0.016247	0.028351	0.007542	-0.656494	0.060059	-0.468994
355.0	9.833052	0.20928	-0.882107	-0.017879	0.040462	0.007851	-0.660889	0.057617	-0.462158
356.0	9.830489	0.209373	-0.836137	-0.00846	0.036075	0.006928	-0.653809	0.053467	-0.461914
357.0	9.808233	0.175292	-0.820408	-0.013709	0.016461	0.010511	-0.654297	0.060059	-0.462158
358.0	9.780563	0.158223	-0.864254	0.000326	-0.012685	0.001519	-0.654297	0.060059	-0.464355
359.0	9.759537	0.159255	-0.853751	0.01609	-0.031377	-0.000176	-0.654053	0.057861	-0.464355
360.0	9.834411	0.172032	-0.923039	0.024134	-0.041587	-0.00314	-0.651855	0.060059	-0.462158
361.0	9.85366	0.206261	-0.897663	0.021527	-0.031773	-0.005235	-0.660645	0.05542	-0.459717
362.0	9.899654	0.237848	-0.967697	0.012198	-0.007995	-0.001453	-0.660889	0.057617	-0.462158
363.0	9.916024	0.203004	-0.936886	0.009805	0.025354	-0.002445	-0.654053	0.055664	-0.466553
364.0	9.908643	0.289953	-0.90701	0.003265	0.048705	0.005552	-0.658691	0.057861	-0.464355
365.0	9.846647	0.29294	-0.863548	-0.001835	0.06151	0.005366	-0.65625	0.055664	-0.457275
366.0	9.89237	0.238631	-0.825514	0.003323	0.053947	0.009427	-0.66333	0.062012	-0.459961
367.0	9.822139	0.258931	-0.797596	0.006086	0.047156	0.00416	-0.654297	0.062256	-0.45752
368.0	9.779088	0.226367	-0.76801	-0.001265	0.030884	0.004546	-0.660889	0.057617	-0.459717
369.0	9.766511	0.209685	-0.738182	0.001212	0.013752	0.003652	-0.651855	0.057861	-0.459717
370.0	9.788744	0.172877	-0.792011	0.014143	-0.0034	0.003375	-0.653809	0.05127	-0.461914
371.0	9.790339	0.207072	-0.793443	0.023441	-0.015106	-0.000532	-0.654297	0.064453	-0.459961
372.0	9.787221	0.207594	-0.752995	0.021732	-0.019203	0.001662	-0.654053	0.060059	-0.455078
373.0	9.801476	0.258059	-0.783295	0.017521	-0.023486	0.001021	-0.656494	0.060059	-0.452881
374.0	9.845966	0.254514	-0.853055	0.013379	-0.022519	0.004249	-0.651855	0.060059	-0.468994
375.0	9.886233	0.286982	-0.838417	0.005722	-0.011967	0.002092	-0.658691	0.060059	-0.45752
376.0	9.845736	0.253814	-0.855907	-0.00728	-0.011017	0.004261	-0.660889	0.060059	-0.462158
377.0	9.869445	0.251569	-0.911776	-0.005976	-0.010446	0.002432	-0.654297	0.062256	-0.45752
378.0	9.843885	0.219008	-0.857562	-0.005359	-0.012787	-0.000416	-0.658447	0.055664	-0.461914
379.0	9.86922	0.251663	-0.914186	-0.010757	-0.013503	-0.000977	-0.660889	0.060059	-0.459717
380.0	9.849545	0.217879	-0.944179	-0.01694	-0.007129	-0.001824	-0.65625	0.055664	-0.459717
381.0	9.870337	0.216752	-0.957324	-0.009941	-0.003273	0.003034	-0.654053	0.057861	-0.459717
382.0	9.828703	0.218951	-0.931565	0.008824	0.01209	0.000913	-0.660889	0.060059	-0.459717
383.0	9.864681	0.217795	-0.870764	0.014468	0.024263	0.002716	-0.660889	0.057617	-0.462158
384.0	9.823237	0.219716	-0.842771	0.010787	0.030824	0.004703	-0.656494	0.064453	-0.462402
385.0	9.823449	0.219098	-0.840458	0.009176	0.016726	0.006167	-0.665527	0.062012	-0.462158
386.0	9.83973	0.183338	-0.809772	0.020735	-0.003071	0.0086	-0.660889	0.060059	-0.462158
387.0	9.852425	0.198772	-0.838224	0.023442	-0.011932	0.004212	-0.651855	0.057861	-0.466797
388.0	9.834441	0.198323	-0.869053	0.019525	-0.013644	0.0097	-0.656494	0.062256	-0.459961
389.0	9.863338	0.17854	-0.867522	0.015965	-0.002945	0.009932	-0.656494	0.064453	-0.459961
390.0	9.814868	0.162358	-0.898394	0.016438	0.013601	0.002921	-0.65625	0.057861	-0.464355
391.0	9.800984	0.180957	-0.827681	0.025355	0.015684	0.003104	-0.656494	0.062256	-0.459961
392.0	9.833452	0.230797	-0.824809	0.027002	0.017708	0.001783	-0.65625	0.055664	-0.461914
393.0	9.794841	0.232046	-0.840388	0.032551	0.010487	0.000746	-0.651611	0.053467	-0.457275
394.0	9.811492	0.266541	-0.768679	0.030438	0.00287	0.003314	-0.65625	0.057861	-0.468994
395.0	9.814489	0.265134	-0.810785	0.026571	4.4e-05	0.003186	-0.654297	0.060059	-0.459717
396.0	9.796588	0.264765	-0.840846	0.019633	-0.009508	0.007964	-0.656494	0.062256	-0.4646
397.0	9.841619	0.210535	-0.809636	0.027447	-0.017051	0.002764	-0.6521	0.064453	-0.457764
398.0	9.857188	0.225187	-0.881457	0.024148	-0.021099	0.005409	-0.660645	0.05542	-0.457275
399.0	9.877856	0.223244	-0.896254	0.030501	-0.021277	0.003635	-0.658447	0.05542	-0.457275
400.0	9.903265	0.254863	-0.952788	0.028782	0.000839	0.004628	-0.654053	0.055664	-0.455078
401.0	9.87277	0.23831	-0.953255	0.020829	0.027267	0.005636	-0.658691	0.062256	-0.459961
402.0	9.836545	0.223689	-0.867198	0.019666	0.044968	0.00466	-0.654053	0.057861	-0.462158
403.0	9.816098	0.224445	-0.85006	0.019437	0.047642	0.002396	-0.661133	0.064453	-0.45752
404.0	9.794288	0.260792	-0.79197	0.020714	0.03407	0.001617	-0.654297	0.062256	-0.459961
405.0	9.805562	0.242003	-0.816838	0.014774	0.011569	0.004236	-0.656494	0.060059	-0.459717
406.0	9.815333	0.258619	-0.802633	0.017337	-0.015568	0.00268	-0.654053	0.055664	-0.464355
407.0	9.850108	0.237361	-0.886728	0.018221	-0.029467	0.007014	-0.656494	0.064453	-0.4646
408.0	9.880517	0.252324	-0.88776	0.015102	-0.027312	0.00702	-0.658691	0.057617	-0.45752
409.0	9.912284	0.231817	-0.929348	0.004069	-0.010795	0.008185	-0.654053	0.057861	-0.464355
410.0	9.910577	0.196559	-0.928746	-0.000205	0.009064	0.007203	-0.6521	0.062256	-0.459961
411.0	9.876753	0.230962	-0.986682	0.000569	0.028176	0.006278	-0.651855	0.057861	-0.459717
412.0	9.880911	0.24936	-0.884214	-0.001553	0.046767	0.007628	-0.656494	0.060059	-0.462158
413.0	9.89248	0.230359	-0.906016	0.00289	0.059304	0.004741	-0.65625	0.057861	-0.462158
414.0	9.875848	0.250337	-0.78835	0.005337	0.068363	0.002673	-0.654297	0.060059	-0.462158
415.0	9.823513	0.270879	-0.729331	-0.005451	0.070131	0.006273	-0.656494	0.060059	-0.462158
416.0	9.759584	0.239523	-0.68475	-0.013145	0.055613	0.010921	-0.65625	0.057861	-0.464355
417.0	9.775921	0.203598	-0.650484	-0.014844	0.025333	0.014347	-0.654053	0.057861	-0.462158
418.0	9.787142	0.183836	-0.676781	-0.002703	-0.01094	0.015059	-0.656494	0.060059	-0.462158
419.0	9.786989	0.182208	-0.679436	-0.001287	-0.043375	0.01848	-0.656494	0.062256	-0.459961
420.0	9.818241	0.090681	-0.765229	0.000988	-0.066708	0.020278	-0.651855	0.057861	-0.462158
421.0	9.841672	0.086393	-0.826795	0.018614	-0.071963	0.018576	-0.656494	0.062256	-0.462158
422.0	9.828076	0.118857	-0.906072	0.037627	-0.066844	0.003633	-0.656494	0.060059	-0.464355
423.0	9.882607	0.201368	-0.924117	0.035726	-0.050934	0.007251	-0.65625	0.057861	-0.459717
424.0	9.840529	0.203383	-0.902904	0.02494	-0.029342	0.000149	-0.651855	0.057861	-0.468994
425.0	9.879106	0.201543	-0.887574	0.013552	-0.002204	0.000619	-0.65625	0.057861	-0.45752
426.0	9.900058	0.200118	-0.899154	0.016739	0.023904	-0.00151	-0.658447	0.055664	-0.466553
427.0	9.870196	0.254395	-0.8571	0.010482	0.040289	-0.001685	-0.656494	0.060059	-0.459717
428.0	9.828854	0.257076	-0.827386	-0.001009	0.051226	0.000725	-0.651855	0.060059	-0.459717
429.0	9.808399	0.258069	-0.809938	-0.003408	0.047422	0.006655	-0.658691	0.060059	-0.459717
430.0	9.768301	0.224625	-0.822013	0.006834	0.037984	0.0052	-0.65625	0.055664	-0.466553
431.0	9.77037	0.20877	-0.720255	0.004553	0.008924	0.005875	-0.65625	0.055664	-0.459717
432.0	9.79254	0.171302	-0.774585	0.007788	-0.015301	0.005356	-0.658691	0.057861	-0.466797
433.0	9.803454	0.152366	-0.803844	0.011893	-0.030419	0.003203	-0.653809	0.053467	-0.464111
434.0	9.838687	0.201111	-0.84822	0.017775	-0.036196	0.002697	-0.654297	0.060059	-0.459717
435.0	9.859258	0.199324	-0.864363	0.007962	-0.035305	0.003961	-0.656494	0.062256	-0.45752
436.0	9.892731	0.213627	-0.907377	-0.000162	-0.018263	0.002833	-0.656494	0.060059	-0.462158
437.0	9.913536	0.212036	-0.920681	-0.012298	0.0039	0.00316	-0.649658	0.062256	-0.459961
438.0	9.894581	0.247673	-0.907456	-0.014686	0.023104	0.003105	-0.65625	0.055664	-0.461914
439.0	9.882017	0.23149	-0.876675	-0.017827	0.037329	0.002924	-0.656494	0.064453	-0.455322
440.0	9.850437	0.251079	-0.832958	-0.016394	0.045214	0.004066	-0.654297	0.062256	-0.4646
441.0	9.817043	0.235995	-0.788566	-0.011883	0.036809	0.006271	-0.658691	0.060059	-0.459717
442.0	9.744837	0.222403	-0.762507	-0.007561	0.019015	0.006385	-0.658447	0.055664	-0.461914
443.0	9.740001	0.188304	-0.719308	-0.00645	-0.012812	0.008441	-0.651855	0.055664	-0.461914
444.0	9.781583	0.184844	-0.747062	-0.00204	-0.040605	0.007851	-0.654297	0.064453	-0.4646
445.0	9.803376	0.14712	-0.805768	0.009942	-0.054835	0.009105	-0.654297	0.062256	-0.459961
446.0	9.836621	0.161186	-0.851889	0.013661	-0.062543	0.00153	-0.658691	0.062256	-0.462158
447.0	9.858806	0.193929	-0.870723	0.004448	-0.048739	0.00451	-0.656494	0.060059	-0.459717
448.0	9.911231	0.172336	-0.926576	-0.000641	-0.023853	0.004088	-0.658691	0.059814	-0.452881
449.0	9.930192	0.136155	-0.939528	-0.002204	0.002397	0.003284	-0.6521	0.064453	-0.455322
450.0	9.908267	0.172861	-0.884191	0.003419	0.023431	0.000138	-0.660889	0.057617	-0.455078
451.0	9.87963	0.191433	-0.883979	0.008663	0.032069	0.002286	-0.651855	0.057861	-0.462158
452.0	9.876908	0.192303	-0.838529	0.008442	0.034743	1.7e-05	-0.656494	0.062256	-0.469238
453.0	9.814541	0.196221	-0.798043	0.011856	0.019904	0.001586	-0.649658	0.062256	-0.462158
454.0	9.848385	0.210817	-0.836899	0.012965	0.011074	-0.002331	-0.654053	0.057861	-0.459717
455.0	9.827594	0.212204	-0.823375	0.014771	0.008351	-0.000502	-0.656494	0.062256	-0.462158
456.0	9.829483	0.246679	-0.823069	0.016828	0.013889	-0.002204	-0.658936	0.064453	-0.459961
457.0	9.808759	0.248136	-0.808677	0.021506	0.023745	-0.002831	-0.654297	0.060059	-0.462158
458.0	9.770815	0.319766	-0.782529	0.014595	0.028351	0.000893	-0.658936	0.064453	-0.450684
459.0	9.766152	0.286201	-0.737003	0.009141	0.025582	0.001206	-0.654297	0.062256	-0.462158
460.0	9.772484	0.234234	-0.71933	-8.8e-05	0.01	0.000695	-0.651855	0.057861	-0.462158
461.0	9.774284	0.268652	-0.720135	0.001956	-0.010657	0.000252	-0.651855	0.057861	-0.462158
462.0	9.81412	0.231744	-0.746073	-0.001354	-0.021085	-0.006565	-0.653809	0.053223	-0.454834
463.0	9.826245	0.17791	-0.817172	-0.005938	-0.034548	0.002833	-0.654053	0.057861	-0.464355
464.0	9.887331	0.209155	-0.816941	-0.004352	-0.034598	0.002393	-0.654297	0.062256	-0.462158
465.0	9.841577	0.192262	-0.893876	-0.000272	-0.034458	0.004792	-0.658691	0.057861	-0.464355
466.0	9.860903	0.226034	-0.868668	0.005669	-0.038173	0.003403	-0.654053	0.055664	-0.466553
467.0	9.821843	0.227332	-0.889634	0.008089	-0.043248	0.002394	-0.658691	0.060059	-0.459717
468.0	9.845299	0.224459	-0.948716	0.006778	-0.043812	0.004226	-0.658691	0.057861	-0.462158
469.0	9.852959	0.20642	-0.937628	0.006849	-0.038551	0.008075	-0.656494	0.062256	-0.45752
470.0	9.839847	0.189935	-0.913208	0.001147	-0.029774	0.001203	-0.658447	0.05542	-0.459717
471.0	9.873306	0.20432	-0.955588	-0.002186	-0.00967	0.003475	-0.658936	0.064453	-0.459961
472.0	9.889394	0.169384	-0.925325	-0.003599	0.008645	0.001075	-0.658447	0.05542	-0.459717
473.0	9.857723	0.189095	-0.883948	-0.010797	0.025934	0.003226	-0.649658	0.062256	-0.466797
474.0	9.86601	0.171601	-0.866018	-0.009084	0.030015	0.001017	-0.658447	0.055664	-0.464355
475.0	9.816523	0.191795	-0.85314	0.001618	0.026154	-0.001705	-0.656494	0.062256	-0.466797
476.0	9.789607	0.245039	-0.854653	0.008485	0.010608	0.000372	-0.65625	0.055664	-0.461914
477.0	9.833425	0.226975	-0.779795	0.004147	0.002206	0.001511	-0.661133	0.062012	-0.452881
478.0	9.815513	0.227189	-0.809902	0.001259	-0.013573	-0.000757	-0.658691	0.060059	-0.462158
479.0	9.787691	0.210222	-0.855186	0.005624	-0.014042	0.003026	-0.651855	0.060059	-0.462158
480.0	9.816447	0.191203	-0.854143	-0.000111	-0.0162	0.001958	-0.654053	0.057861	-0.468994
481.0	9.795461	0.192389	-0.843163	-0.003632	-0.017559	0.00234	-0.658691	0.060059	-0.462158
482.0	9.806289	0.173849	-0.872117	0.001681	-0.022122	-0.000945	-0.651855	0.060059	-0.455078
483.0	9.818862	0.189904	-0.902421	0.014188	-0.028707	-0.001841	-0.656494	0.064453	-0.455322
484.0	9.871894	0.238921	-0.917415	0.012111	-0.037446	-0.004864	-0.654053	0.055664	-0.461914
485.0	9.890549	0.203381	-0.933153	0.018675	-0.040317	-0.004366	-0.649902	0.064453	-0.455322
486.0	9.872315	0.203737	-0.965901	0.018393	-0.024439	-0.001216	-0.654297	0.060059	-0.462158
487.0	9.886705	0.254355	-0.996299	0.019118	-0.01059	-0.00602	-0.660889	0.060059	-0.459717
488.0	9.873926	0.238598	-0.968592	0.012902	0.009008	-0.001479	-0.654297	0.062256	-0.455322
489.0	9.819638	0.225187	-0.914187	0.001937	0.016681	0.004591	-0.654297	0.062256	-0.459961
490.0	9.824928	0.208489	-0.855518	-0.005512	0.01044	0.005743	-0.658691	0.060059	-0.459717
491.0	9.784408	0.175046	-0.871249	-0.002107	-0.004403	0.007326	-0.656494	0.062256	-0.459961
492.0	9.835886	0.188845	-0.882826	0.009896	-0.007707	0.002766	-0.658691	0.062256	-0.455322
493.0	9.830649	0.204493	-0.941145	0.017027	-0.011795	0.006039	-0.654297	0.060059	-0.459717
494.0	9.859442	0.185242	-0.939698	0.024458	-0.008758	0.000157	-0.660889	0.057861	-0.464355
495.0	9.887244	0.201953	-0.895879	0.035067	0.009453	-0.002086	-0.651855	0.060059	-0.45752
496.0	9.873049	0.270941	-0.92594	0.052942	0.015633	-0.002624	-0.649414	0.055664	-0.457275
497.0	9.872033	0.306283	-0.883919	0.046539	0.001692	0.000246	-0.65625	0.057617	-0.452637
498.0	9.889935	0.30534	-0.854934	0.02145	-0.010194	0.008946	-0.654053	0.055664	-0.461914
499.0	9.890923	0.268544	-0.897663	0.000338	-0.018339	0.011263	-0.654297	0.062256	-0.455322
500.0	9.864806	0.285058	-0.944042	0.000118	-0.015667	0.008987	-0.656738	0.06665	-0.457764
501.0	9.888469	0.281439	-0.999616	0.001148	0.000775	0.010282	-0.656494	0.060059	-0.45752
502.0	9.859816	0.299284	-1.000203	-0.005788	0.038405	0.008651	-0.658691	0.060059	-0.455078
503.0	9.836682	0.301294	-0.939492	-0.01895	0.080358	0.007024	-0.656494	0.064453	-0.459961
504.0	9.815149	0.218473	-0.816696	-0.013397	0.099309	0.004724	-0.656494	0.064453	-0.452881
505.0	9.779236	0.204721	-0.724803	-0.012432	0.089533	0.007331	-0.65625	0.055664	-0.457275
506.0	9.733171	0.173808	-0.649625	-0.008266	0.052327	0.004731	-0.656494	0.060059	-0.45752
507.0	9.718623	0.122957	-0.618635	0.005818	-0.004645	0.005118	-0.654297	0.062256	-0.462158
508.0	9.756365	0.10025	-0.7455	0.02899	-0.056576	-0.001693	-0.658691	0.057861	-0.464355
509.0	9.812186	0.147485	-0.80683	0.043177	-0.094163	0.001455	-0.651855	0.060059	-0.462158
510.0	9.859753	0.211646	-0.885194	0.034328	-0.090961	0.005122	-0.661133	0.064453	-0.4646
511.0	9.906556	0.205385	-1.00273	0.026019	-0.068035	0.006417	-0.654297	0.060059	-0.459717
512.0	9.926986	0.20303	-1.019469	0.025504	-0.013269	0.00662	-0.656494	0.060059	-0.464355
513.0	9.887311	0.23956	-0.993948	0.023957	0.037129	0.005311	-0.654297	0.062256	-0.462158
514.0	9.865963	0.275991	-0.934595	0.009375	0.074402	0.007263	-0.654053	0.055664	-0.457275
515.0	9.857094	0.208843	-0.840619	0.000732	0.083805	0.008262	-0.658691	0.057861	-0.462158
516.0	9.814156	0.176381	-0.807358	0.002952	0.06046	0.010148	-0.651855	0.055664	-0.466553
517.0	9.803519	0.1941	-0.776154	0.017665	0.027314	0.006437	-0.656738	0.06665	-0.462402
518.0	9.819615	0.158463	-0.744459	0.018113	-0.00216	0.011428	-0.654053	0.060059	-0.455078
519.0	9.823694	0.120266	-0.829096	0.017636	-0.023018	0.008198	-0.66333	0.062012	-0.45752
520.0	9.837527	0.09932	-0.90024	0.023429	-0.018805	0.008377	-0.660645	0.05542	-0.459717
521.0	9.86315	0.129981	-0.957146	0.023485	-0.004676	0.007267	-0.656494	0.064453	-0.455322
522.0	9.870089	0.147638	-0.900032	0.019672	0.018712	0.005815	-0.660645	0.05542	-0.459717
523.0	9.839635	0.131088	-0.898967	0.009663	0.037575	0.009296	-0.656494	0.062256	-0.466797
524.0	9.856694	0.166	-0.824211	0.012749	0.044262	0.004357	-0.649658	0.062256	-0.459961
525.0	9.828234	0.184202	-0.822483	0.009917	0.04582	0.005741	-0.654297	0.062256	-0.459961
526.0	9.825502	0.184993	-0.776475	0.007713	0.032955	0.004516	-0.654541	0.068848	-0.457764
527.0	9.83557	0.201386	-0.759507	-0.000895	0.021449	0.010665	-0.654297	0.060059	-0.462158
528.0	9.82282	0.184451	-0.729683	0.000903	0.018728	0.012505	-0.654053	0.057861	-0.464355
529.0	9.809538	0.146002	-0.84009	0.005311	0.032386	0.015184	-0.654053	0.057861	-0.459717
530.0	9.796982	0.128774	-0.807887	-0.005131	0.056582	0.014093	-0.65625	0.057861	-0.462158
531.0	9.849458	-0.013646	-0.792931	-0.017021	0.076096	0.016612	-0.658691	0.062256	-0.459961
532.0	9.979933	-0.088996	-0.701768	-0.005804	0.0919	0.011546	-0.651855	0.057861	-0.466797
533.0	9.996984	-0.05434	-0.621528	0.031364	0.096788	0.007207	-0.654053	0.055664	-0.459717
534.0	9.980988	0.084852	-0.56263	0.010124	0.066861	0.021119	-0.656738	0.064453	-0.469238
535.0	9.941309	0.119771	-0.534508	-0.023574	0.016232	0.031566	-0.654297	0.062256	-0.4646
536.0	9.830127	0.10546	-0.529144	-0.019127	-0.0272	0.040087	-0.658691	0.057861	-0.471436
537.0	9.65249	0.230748	-0.60958	-0.009151	-0.096359	0.038401	-0.656494	0.060059	-0.459717
538.0	9.475502	0.320406	-0.738636	-0.052782	-0.190733	0.042207	-0.654053	0.055664	-0.466553
539.0	9.455477	0.296482	-0.930351	-0.110072	-0.265207	0.035524	-0.656494	0.060059	-0.459717
540.0	9.486669	0.203563	-1.078055	-0.141784	-0.284084	0.017446	-0.658691	0.062256	-0.459961
541.0	9.453152	0.09692	-1.329308	-0.16102	-0.273379	-0.002101	-0.658936	0.06665	-0.462402
542.0	9.449041	-0.005117	-1.436647	-0.233002	-0.266724	-0.017726	-0.6521	0.06665	-0.443848
543.0	9.598491	-0.167639	-1.659571	-0.306895	-0.253065	-0.024684	-0.654541	0.068848	-0.455566
544.0	9.833978	-0.383674	-1.875041	-0.318669	-0.20671	-0.041734	-0.661133	0.064209	-0.450684
545.0	10.119172	-0.461817	-2.114529	-0.274103	-0.131555	-0.057025	-0.661377	0.071045	-0.453125
546.0	10.347782	-0.465205	-2.307382	-0.214326	-0.016406	-0.070168	-0.66333	0.066406	-0.448486
547.0	10.54086	-0.326206	-2.377122	-0.174953	0.140932	-0.073807	-0.656738	0.06665	-0.448486
548.0	10.549637	-0.2103	-2.311903	-0.177954	0.322218	-0.074558	-0.66333	0.062012	-0.45752
549.0	10.405416	-0.189003	-2.053979	-0.217712	0.47946	-0.063049	-0.654541	0.068848	-0.457764
550.0	10.213342	-0.235577	-1.715999	-0.257388	0.585755	-0.053832	-0.6521	0.06665	-0.4646
551.0	9.952511	-0.349901	-1.336463	-0.249563	0.605184	-0.050873	-0.652344	0.068848	-0.474121
552.0	9.688481	-0.345764	-1.018305	-0.200157	0.565496	-0.047829	-0.645508	0.06665	-0.469238
553.0	9.400908	-0.290022	-0.795256	-0.152026	0.488371	-0.05689	-0.649902	0.06665	-0.47168
554.0	9.200822	-0.222371	-0.574384	-0.130762	0.397945	-0.057783	-0.654541	0.06665	-0.478516
555.0	9.077171	-0.107289	-0.426969	-0.123551	0.295958	-0.054913	-0.652344	0.068848	-0.474121
556.0	9.037514	-0.065771	-0.382191	-0.123679	0.153416	-0.046974	-0.652588	0.073242	-0.47876
557.0	9.087904	-0.080815	-0.384498	-0.086925	0.003989	-0.046407	-0.650146	0.071045	-0.476563
558.0	9.200808	0.075571	-0.548712	-0.023337	-0.137451	-0.05281	-0.647705	0.068848	-0.476318
559.0	9.408542	0.193147	-0.701443	0.013467	-0.243572	-0.061283	-0.647949	0.071045	-0.469482
560.0	9.682781	0.222778	-0.88498	0.020273	-0.292361	-0.082139	-0.647705	0.06665	-0.473877
561.0	9.911612	0.24099	-1.147522	0.022059	-0.298165	-0.117672	-0.649658	0.060059	-0.466797
562.0	10.110082	0.281504	-1.412422	0.101747	-0.262047	-0.15918	-0.656738	0.06665	-0.47168
563.0	10.246615	0.412069	-1.49365	0.230044	-0.178573	-0.190052	-0.6521	0.062256	-0.469238
564.0	10.209325	0.654059	-1.340746	0.316046	-0.074806	-0.215098	-0.651855	0.055664	-0.461914
565.0	9.88488	0.856122	-1.233272	0.42893	-0.008141	-0.20991	-0.654053	0.055664	-0.466553
566.0	9.471938	1.17769	-1.092357	0.542518	-0.041447	-0.150906	-0.653809	0.05127	-0.46875
567.0	9.141196	1.452733	-1.011778	0.632963	-0.155301	-0.047231	-0.651611	0.05127	-0.459473
568.0	9.032721	1.638938	-0.995073	0.680353	-0.237786	0.08622	-0.646973	0.046875	-0.466309
569.0	9.198841	1.644664	-1.083482	0.546877	-0.201276	0.244596	-0.651367	0.049072	-0.459473
570.0	9.631389	1.308605	-1.353313	0.265213	0.024335	0.414497	-0.653809	0.05127	-0.466553
571.0	10.258072	0.697525	-1.863489	0.086592	0.379623	0.542492	-0.651855	0.057861	-0.462158
572.0	10.72883	-0.054108	-2.152859	0.126867	0.786247	0.593004	-0.651855	0.057861	-0.468994
573.0	11.20581	-0.745252	-1.862513	0.207348	1.026313	0.549453	-0.645264	0.060059	-0.476074
574.0	11.146698	-1.408137	-1.389994	0.078243	1.033958	0.399926	-0.63623	0.064453	-0.483154
575.0	10.560797	-1.8392	-0.882947	0.087585	0.809353	0.179613	-0.635986	0.055664	-0.489746
576.0	9.522012	-1.750879	-0.546559	0.237211	0.387118	-0.049001	-0.638428	0.062256	-0.483154
577.0	8.589631	-1.067313	-0.360964	0.588546	-0.22166	-0.192506	-0.642822	0.060059	-0.48999
578.0	8.206414	-0.274341	-0.259539	0.808688	-0.92919	-0.277751	-0.638184	0.053467	-0.478271
579.0	8.33298	0.34287	-0.423341	0.843098	-1.533281	-0.32633	-0.646973	0.046875	-0.468506
580.0	8.725289	0.874294	-0.981096	0.812069	-1.910211	-0.377825	-0.651123	0.042236	-0.461426
581.0	9.188936	1.308343	-1.880156	0.762509	-2.00781	-0.393941	-0.657715	0.037842	-0.435791
582.0	9.527157	1.543069	-3.093145	0.593772	-1.720506	-0.37773	-0.664307	0.033447	-0.430908
583.0	9.778969	1.595744	-4.12089	0.354171	-1.13343	-0.331133	-0.668945	0.033447	-0.424072
584.0	9.796713	1.419254	-4.621273	0.141886	-0.429529	-0.259054	-0.668701	0.03125	-0.423828
585.0	9.531357	1.120336	-4.401084	0.002201	0.157714	-0.183879	-0.662109	0.033447	-0.424072
586.0	9.242712	0.807946	-3.671472	-0.026177	0.449898	-0.111983	-0.664063	0.029053	-0.426025
587.0	9.068602	0.608359	-2.907051	-0.019822	0.500171	-0.049167	-0.657227	0.026855	-0.435303
588.0	8.825644	0.479023	-2.297533	-0.026045	0.393497	-0.006861	-0.657227	0.024658	-0.432861
589.0	8.702074	0.32343	-2.13567	-0.022994	0.184511	-0.017005	-0.655273	0.029053	-0.435547
590.0	8.656619	0.22753	-2.280286	0.033049	-0.08455	-0.037072	-0.661865	0.026855	-0.439941
591.0	8.747829	0.227645	-2.689577	0.102676	-0.297088	-0.068814	-0.655029	0.026855	-0.430664
592.0	8.909343	0.340679	-3.188906	0.072034	-0.342722	-0.080352	-0.657227	0.022461	-0.430664
593.0	9.031652	0.271471	-3.628791	-0.067726	-0.243749	-0.062089	-0.661621	0.020264	-0.418945
594.0	9.052051	0.225302	-3.862361	-0.178517	-0.045226	-0.030494	-0.659424	0.024658	-0.428223
595.0	8.919145	0.157614	-3.785649	-0.217662	0.111755	0.00637	-0.655273	0.029053	-0.428467
596.0	8.836259	0.188099	-3.508671	-0.197392	0.172575	0.040192	-0.661621	0.024658	-0.426025
597.0	8.804874	0.300624	-3.207053	-0.133797	0.158049	0.062704	-0.657227	0.026855	-0.426025
598.0	8.764572	0.383608	-3.006043	-0.077768	0.096094	0.083297	-0.650635	0.03125	-0.433105
599.0	8.688789	0.450558	-2.994954	-0.071481	0.025009	0.088998	-0.655273	0.03125	-0.423828
600.0	8.662277	0.527724	-3.271199	-0.079197	-0.027274	0.095439	-0.655029	0.026855	-0.430664
601.0	8.600481	0.524332	-3.502256	-0.125566	-0.040616	0.095028	-0.655029	0.026855	-0.426025
602.0	8.560162	0.55718	-3.748715	-0.237417	-0.025526	0.094859	-0.64624	0.029053	-0.435547
603.0	8.683122	0.54615	-3.872309	-0.301418	-0.046255	0.08476	-0.653076	0.033447	-0.43335
604.0	8.797894	0.556759	-3.741519	-0.339965	0.004902	0.07254	-0.650635	0.03125	-0.423828
605.0	8.873478	0.535357	-3.620097	-0.406127	0.033236	0.059564	-0.650879	0.035645	-0.428711
606.0	8.898917	0.535796	-3.488427	-0.444869	-0.018037	0.047625	-0.648682	0.035645	-0.424072
607.0	9.042527	0.456354	-3.482396	-0.449822	-0.132869	0.0322	-0.646484	0.037842	-0.426514
608.0	9.373877	0.384399	-3.553276	-0.413634	-0.256462	0.00993	-0.644043	0.035645	-0.421875
609.0	9.583585	0.243864	-3.760628	-0.406735	-0.28869	-0.024999	-0.64209	0.037842	-0.419434
610.0	9.69898	0.13673	-4.201788	-0.43431	-0.29563	-0.067522	-0.651123	0.040039	-0.421875
611.0	9.862951	0.054382	-4.657666	-0.474742	-0.278237	-0.118963	-0.648682	0.037842	-0.414795
612.0	10.093738	-0.032286	-5.010559	-0.487162	-0.214191	-0.185777	-0.646729	0.042236	-0.428955
613.0	10.398641	-0.02072	-5.25916	-0.465355	-0.100476	-0.259975	-0.644287	0.040039	-0.415039
614.0	10.874158	0.098227	-5.608027	-0.463723	0.031721	-0.346422	-0.64624	0.029053	-0.416748
615.0	11.519652	0.327998	-6.055458	-0.42017	0.124232	-0.421637	-0.63501	0.03125	-0.419189
616.0	13.232681	0.646026	-6.664966	-0.281563	0.22332	-0.469146	-0.637207	0.03125	-0.423828
617.0	15.796977	0.883286	-6.770989	-0.031638	0.618481	-0.498176	-0.634766	0.026855	-0.421387
618.0	17.484954	1.186394	-6.185779	0.306058	1.467225	-0.527704	-0.625488	0.020264	-0.435059
619.0	16.061306	1.689453	-5.19049	0.485158	2.328382	-0.464048	-0.614014	0.016113	-0.453613
620.0	12.806522	1.832445	-3.934563	0.409995	2.511317	-0.284195	-0.609619	0.018311	-0.465332
621.0	10.533188	1.261292	-1.895153	0.189486	1.903423	-0.029627	-0.607178	0.013916	-0.472168
622.0	9.861185	0.115963	0.025801	-0.010311	0.95888	0.203623	-0.598389	0.016113	-0.479004
623.0	9.54897	-0.457289	1.143084	0.315868	0.503467	0.238503	-0.59375	0.016113	-0.476807
624.0	9.90683	-0.212195	2.566368	0.925088	0.748993	0.149836	-0.598145	0.013916	-0.483643
625.0	9.163589	0.360805	4.184841	0.775466	1.391327	0.075003	-0.59375	0.013916	-0.495361
626.0	7.512381	0.56681	4.733382	0.051325	1.622081	0.070739	-0.582275	0.011963	-0.506836
627.0	6.449984	-0.015284	4.670235	-0.520162	1.211978	0.070891	-0.580322	0.016357	-0.513916
628.0	6.450755	-0.577428	4.747217	-0.522455	0.63038	-0.006888	-0.580322	0.016357	-0.509277
629.0	7.007812	-0.508571	4.787157	-0.162093	0.150305	-0.169852	-0.577881	0.01416	-0.511475
630.0	7.554302	0.281681	4.389223	0.056745	-0.335748	-0.369081	-0.575928	0.016357	-0.511719
631.0	8.34927	1.004009	3.537368	-0.064403	-0.839393	-0.498357	-0.580322	0.01416	-0.504639
632.0	10.012918	1.276516	2.384567	-0.427055	-1.298473	-0.552032	-0.58252	0.01416	-0.495361
633.0	11.579871	1.56656	0.523416	-0.686049	-1.533276	-0.523169	-0.588867	0.007324	-0.488037
634.0	13.131788	2.491888	-1.911549	-0.624576	-1.736308	-0.360219	-0.588867	0.00293	-0.47168
635.0	14.02463	3.458843	-3.635395	-0.085734	-1.856342	-0.073563	-0.598145	0.011719	-0.462646
636.0	13.65228	3.42456	-3.96416	0.164505	-1.146849	0.202916	-0.595703	0.009521	-0.460205
637.0	12.191353	2.238238	-3.812279	-0.324573	0.103967	0.382851	-0.595947	0.011719	-0.451172
638.0	10.367846	0.577129	-3.480761	-0.709249	1.192143	0.450126	-0.587158	0.018311	-0.472168
639.0	8.695613	-0.527248	-2.191442	-0.476171	1.949457	0.412486	-0.587402	0.022949	-0.484131
640.0	7.422867	-0.884987	0.025666	-0.044476	2.196858	0.373983	-0.57373	0.022949	-0.498047
641.0	6.56463	-0.669447	2.151247	0.093748	1.891752	0.35209	-0.564697	0.022949	-0.504883
642.0	5.905251	-0.297966	3.384989	0.001334	1.218189	0.35923	-0.55835	0.029541	-0.509766
643.0	5.664859	-0.180083	3.604413	-0.20314	0.322356	0.3443	-0.569824	0.033936	-0.507568
644.0	5.938724	-0.249122	2.900201	-0.321492	-0.612404	0.30617	-0.565186	0.031738	-0.51001
645.0	6.411468	0.060934	1.946845	-0.299004	-1.276913	0.279444	-0.570068	0.040527	-0.496338
646.0	7.008231	0.628632	1.095245	-0.484598	-1.822199	0.308412	-0.574463	0.03833	-0.489258
647.0	7.794914	0.967757	-0.134951	-0.680385	-2.31705	0.381689	-0.585938	0.042725	-0.470703
648.0	8.568455	0.827124	-1.539133	-0.764148	-2.601721	0.471505	-0.59082	0.051514	-0.459473
649.0	9.139675	0.389222	-3.208292	-0.665958	-2.546647	0.560244	-0.5979	0.060303	-0.443604
650.0	9.329666	-0.271898	-4.912787	-0.469305	-2.086593	0.567384	-0.602295	0.062256	-0.436768
651.0	9.259754	-0.854058	-5.833709	-0.208815	-1.313805	0.507063	-0.602539	0.06665	-0.42749
652.0	8.899833	-1.123385	-5.610399	-0.068121	-0.464904	0.413401	-0.604492	0.060059	-0.425049
653.0	8.504848	-1.177058	-4.692077	-0.048579	0.198504	0.335371	-0.602783	0.068848	-0.432373
654.0	7.795735	-1.200519	-3.756545	-0.141626	0.613207	0.271105	-0.598145	0.066895	-0.432129
655.0	7.116514	-1.276143	-3.075727	-0.184686	0.784718	0.187716	-0.59375	0.071289	-0.432373
656.0	6.580665	-1.403249	-2.480008	-0.158942	0.715831	0.085804	-0.59375	0.071289	-0.434814
657.0	6.461163	-1.458443	-2.098661	-0.072519	0.492823	-0.032452	-0.589111	0.069092	-0.439209
658.0	6.550772	-1.512984	-1.986879	0.099557	0.237008	-0.154327	-0.589111	0.069092	-0.439209
659.0	6.736497	-1.459273	-2.055676	0.324535	0.178904	-0.264626	-0.591309	0.064697	-0.446045
660.0	7.171251	-1.176898	-2.009303	0.420953	0.356898	-0.357503	-0.584229	0.060303	-0.450684
661.0	7.871889	-0.942226	-1.741689	0.408179	0.668531	-0.382411	-0.581787	0.055908	-0.457275
662.0	8.74913	-0.82535	-1.622197	0.362644	0.796955	-0.359992	-0.579346	0.051514	-0.452637
663.0	9.915811	-0.59503	-1.675799	0.545125	0.647951	-0.298461	-0.574951	0.051514	-0.461914
664.0	11.585704	-0.030873	-1.761449	0.970915	0.294354	-0.202185	-0.57251	0.049316	-0.46167
665.0	13.192531	0.944862	-2.069439	1.445582	-0.120884	0.01745	-0.576904	0.044922	-0.46167
666.0	13.892532	1.636967	-2.330288	1.2831	-0.357653	0.33505	-0.574707	0.044922	-0.457031
667.0	14.246147	1.258091	-3.316597	0.338663	-0.558691	0.585755	-0.576904	0.042725	-0.452148
668.0	14.519272	-0.393708	-5.199959	-0.291119	-0.955672	0.708759	-0.577393	0.055908	-0.443359
669.0	14.613902	-1.939173	-7.139047	-0.153185	-1.268196	0.580991	-0.581787	0.051514	-0.440918
670.0	14.621222	-2.235953	-8.595756	0.35039	-1.27696	0.302394	-0.586426	0.055908	-0.434082
671.0	15.462601	-1.810156	-8.885832	0.7297	-1.094388	0.121555	-0.588379	0.049072	-0.427002
672.0	17.874451	-1.029937	-8.539616	0.9881	-0.609627	0.039842	-0.586182	0.053711	-0.431641
673.0	18.929983	1.037904	-8.145644	1.994468	0.543416	-0.171794	-0.583496	0.040283	-0.433594
674.0	16.396423	3.371067	-5.604628	2.325664	2.026237	-0.131026	-0.572021	0.033936	-0.44043
675.0	12.048096	3.87878	-1.838539	0.475261	3.298452	0.058429	-0.56543	0.03833	-0.4729
676.0	8.494236	1.94556	1.09774	-1.382272	3.889685	0.28906	-0.554199	0.042725	-0.487061
677.0	5.685683	-0.328508	3.968154	-1.503627	3.654442	0.298628	-0.54126	0.051758	-0.508301
678.0	3.632999	-0.652444	6.180075	-0.805111	2.741638	0.066407	-0.525391	0.051758	-0.522217
679.0	4.839912	0.046723	7.731789	0.514078	0.901482	0.344337	-0.530029	0.056152	-0.529297
680.0	8.590543	1.48401	11.004307	2.530632	-0.275412	0.650692	-0.531982	0.045166	-0.526611
681.0	9.443231	3.792027	11.754178	1.629873	-0.422235	0.846701	-0.534424	0.051758	-0.517578
682.0	8.273681	2.035748	5.944598	-0.916284	-1.130657	1.157139	-0.539307	0.05835	-0.517822
683.0	7.375723	-2.130473	0.009845	-1.913769	-1.422163	1.320602	-0.540039	0.078125	-0.504639
684.0	8.378807	-3.826287	-3.167082	-0.2592	-0.95437	0.892365	-0.544434	0.078125	-0.497803
685.0	10.132391	-1.995972	-1.539906	2.297097	-0.681251	0.492902	-0.546631	0.078125	-0.502441
686.0	11.691714	1.694834	2.312396	2.750064	-0.621081	0.094894	-0.546143	0.064941	-0.494873
687.0	14.132376	3.825646	4.534636	0.780528	-0.97494	-0.161263	-0.550781	0.064941	-0.485596
688.0	14.307293	0.938787	3.835386	-2.162893	-1.85595	-0.176475	-0.553223	0.071533	-0.474121
689.0	12.033493	-3.352957	-0.489733	-3.100898	-1.353565	-0.267197	-0.555908	0.08252	-0.472412
690.0	9.897834	-4.9186	-3.361024	-1.396928	-0.568578	-0.473912	-0.562744	0.08252	-0.469971
691.0	8.283554	-3.27973	-3.871441	0.953867	-0.55285	-0.676795	-0.564453	0.07373	-0.467285
692.0	7.822296	-0.347757	-2.120008	2.448917	-0.613367	-0.846523	-0.559326	0.058105	-0.471436
693.0	8.192072	2.809874	-0.014525	2.273745	-0.169932	-0.840843	-0.565918	0.053711	-0.464355
694.0	7.839062	4.134557	1.034106	0.987918	0.372297	-0.555639	-0.561279	0.047119	-0.470947
695.0	6.845307	3.001068	0.921269	-0.404687	0.395345	-0.249618	-0.559326	0.055908	-0.473633
696.0	6.08826	1.040996	0.323849	-0.955284	0.001445	-0.027476	-0.559326	0.053711	-0.468994
697.0	5.874391	-0.584875	-0.019175	-0.591337	-0.47324	0.031866	-0.566162	0.055908	-0.461914
698.0	6.052847	-1.194258	-0.227531	0.286724	-0.852944	-0.061118	-0.570557	0.053711	-0.466553
699.0	6.205074	-0.74357	-0.37954	0.92698	-1.063929	-0.15364	-0.565918	0.051514	-0.452637
700.0	6.285627	-0.029694	-0.587956	0.941622	-1.146846	-0.171586	-0.572754	0.053711	-0.447998
701.0	6.418302	0.275937	-0.935706	0.458295	-1.100797	-0.137917	-0.567871	0.047119	-0.438477
702.0	6.726051	-0.000822	-1.349188	-0.235952	-1.024636	-0.084583	-0.57251	0.047119	-0.431396
703.0	7.013157	-0.570504	-1.939522	-0.804721	-1.000181	-0.08004	-0.577393	0.055908	-0.438721
704.0	7.242792	-0.921555	-2.752858	-0.862374	-0.900155	-0.110646	-0.577148	0.053711	-0.429443
705.0	7.172499	-0.752729	-3.274857	-0.514	-0.696256	-0.151814	-0.577393	0.058105	-0.427246
706.0	6.944612	-0.214183	-3.653371	-0.15626	-0.515898	-0.180327	-0.579834	0.060303	-0.422607
707.0	6.962045	0.416621	-3.898587	0.019523	-0.375373	-0.138771	-0.582031	0.058105	-0.42041
708.0	7.192025	0.744748	-4.026024	-0.094136	-0.197401	-0.05749	-0.581787	0.053711	-0.422363
709.0	7.631671	0.936237	-4.162859	-0.337276	0.057662	0.03452	-0.572998	0.0625	-0.418213
710.0	8.12327	0.850939	-3.942911	-0.519388	0.430082	0.11459	-0.575195	0.060303	-0.425049
711.0	8.284086	0.749663	-3.359285	-0.557861	0.936509	0.161174	-0.573242	0.066895	-0.43457
712.0	7.971801	0.680056	-2.663441	-0.513804	1.411245	0.185595	-0.564453	0.071289	-0.446289
713.0	7.787734	0.71416	-1.945137	-0.453652	1.532411	0.202676	-0.560059	0.07373	-0.453369
714.0	8.086281	0.811972	-1.380087	-0.429138	1.139986	0.201729	-0.55542	0.071533	-0.460205
715.0	9.088119	0.753097	-0.729612	-0.406475	0.372013	0.170645	-0.555664	0.078125	-0.460449
716.0	10.153802	0.38523	-0.424036	-0.492023	-0.395966	0.090388	-0.560303	0.08252	-0.456055
717.0	10.998045	-0.338053	-0.891695	-0.535816	-1.032239	-0.04501	-0.565186	0.089111	-0.449219
718.0	11.607236	-0.855929	-2.333417	-0.497007	-1.833854	-0.208336	-0.567139	0.084473	-0.439941
719.0	12.478051	-0.897122	-4.666347	-0.522151	-2.591159	-0.303002	-0.574219	0.091064	-0.423828
720.0	13.805396	-0.704003	-7.66117	-0.469082	-2.835701	-0.311069	-0.583008	0.08667	-0.402832
721.0	16.236286	-0.194804	-10.535114	-0.28076	-2.537313	-0.297766	-0.589844	0.088867	-0.398193
722.0	19.675014	0.299455	-12.236869	-0.126751	-1.810616	-0.327282	-0.587402	0.084473	-0.381836
723.0	22.684792	0.167777	-12.487024	-0.410021	-0.557083	-0.370732	-0.585205	0.084473	-0.384033
724.0	21.574757	-0.209137	-12.006626	-0.531072	1.479888	-0.567359	-0.583008	0.08667	-0.398193
725.0	16.023042	0.138839	-9.082352	0.045769	3.798996	-0.859705	-0.573975	0.08667	-0.423584
726.0	10.990541	0.876377	-4.870661	0.259311	4.822117	-0.830384	-0.5625	0.078125	-0.458252
727.0	9.69874	1.541819	0.377682	0.355086	5.19755	-0.626373	-0.537842	0.080322	-0.481445
728.0	12.063864	0.84325	9.97231	-0.436604	7.108832	-0.361817	-0.515381	0.082764	-0.530518
729.0	8.078401	-0.110284	15.739294	-2.484966	8.204714	-0.657052	-0.481934	0.091797	-0.563232
730.0	1.329943	-1.819915	14.371761	-1.786473	5.045203	-0.742771	-0.470703	0.092041	-0.584229
731.0	0.094101	-1.541701	10.153902	0.149999	-0.492317	-0.641089	-0.475098	0.0896	-0.570068
732.0	3.600148	-0.562469	6.119569	0.801828	-3.821506	-0.605902	-0.495117	0.083008	-0.549072
733.0	8.685281	-0.382665	3.332609	0.652267	-4.615527	-0.598993	-0.519775	0.080566	-0.528076
734.0	12.808731	-1.374303	1.543605	0.844287	-4.454516	-0.763192	-0.528564	0.073975	-0.506836
735.0	16.621179	1.670473	-0.766978	0.861374	-3.513377	-0.704647	-0.539795	0.071533	-0.479004
736.0	17.601675	5.772022	-3.488831	0.986873	-2.556231	-0.257345	-0.541748	0.067139	-0.47876
737.0	14.477193	7.218878	-3.832781	0.943044	-1.119967	0.143369	-0.546387	0.067139	-0.47168
738.0	11.616487	5.760719	-2.832908	-0.281136	0.028356	0.436881	-0.546631	0.075928	-0.472168
739.0	9.509436	3.015201	-2.184628	-1.519644	0.441878	0.648009	-0.547119	0.086914	-0.486328
740.0	8.51781	-0.022988	-1.535835	-2.034223	1.004135	0.702329	-0.542725	0.091309	-0.489014
741.0	7.7373	-1.754429	-0.834778	-1.392542	1.516456	0.581341	-0.531982	0.104736	-0.494141
742.0	6.675134	-2.19603	0.638933	-0.388849	1.704633	0.422992	-0.527588	0.106934	-0.505859
743.0	5.837266	-1.804987	2.114065	0.109727	1.470055	0.331457	-0.520996	0.109131	-0.515137
744.0	5.180957	-1.40012	2.937376	0.073973	0.945152	0.28401	-0.518799	0.113525	-0.517578
745.0	4.727142	-1.218883	2.976956	-0.283408	0.375316	0.259992	-0.520996	0.111328	-0.522217
746.0	4.643784	-1.303885	2.279964	-0.574	-0.168655	0.275233	-0.523438	0.11792	-0.508545
747.0	4.638948	-1.456345	1.479957	-0.671145	-0.652372	0.317348	-0.52832	0.126709	-0.508789
748.0	4.719333	-1.368251	0.931664	-0.616847	-1.019362	0.362584	-0.528564	0.128906	-0.51123
749.0	5.13173	-0.889348	0.423231	-0.330944	-1.274365	0.356532	-0.533203	0.133301	-0.497314
750.0	5.896398	0.130268	-0.084373	0.29686	-1.780769	0.349965	-0.537842	0.135498	-0.488281
751.0	6.163159	1.158656	-0.572293	0.823023	-2.281163	0.385118	-0.546875	0.137695	-0.471924
752.0	6.2207	1.664811	-1.213932	0.816731	-2.496234	0.489803	-0.549072	0.135498	-0.467285
753.0	6.374049	1.3946	-2.257709	0.328103	-2.41688	0.587142	-0.553711	0.14209	-0.458252
754.0	6.678729	0.715779	-3.708829	-0.112199	-2.142441	0.584958	-0.567383	0.14624	-0.439941
755.0	6.972857	-0.113887	-4.947869	-0.125125	-1.619797	0.500322	-0.563232	0.150635	-0.428467
756.0	7.321424	-0.722016	-5.455682	0.056869	-1.048879	0.339597	-0.567627	0.152832	-0.428467
757.0	7.547579	-0.993019	-5.656797	0.240842	-0.479296	0.182152	-0.567627	0.150635	-0.428467
758.0	7.606702	-1.191285	-5.514602	0.210396	0.112617	0.023527	-0.569824	0.148438	-0.428223
759.0	7.600552	-1.362101	-5.257735	-0.043506	0.663819	-0.13479	-0.558594	0.148682	-0.435303
760.0	7.646906	-1.494266	-5.097875	-0.246582	0.99257	-0.283172	-0.558838	0.153076	-0.440186
761.0	7.925692	-1.818668	-4.758889	-0.128689	1.301008	-0.407761	-0.561035	0.155273	-0.444824
762.0	8.473142	-2.12743	-3.91934	0.325278	1.826358	-0.507365	-0.553711	0.14209	-0.458252
763.0	9.300036	-2.036314	-2.513099	0.931981	2.382998	-0.608497	-0.54248	0.139893	-0.474365
764.0	10.837444	-0.924101	-1.291365	1.588054	2.30102	-0.63937	-0.530762	0.131104	-0.490479
765.0	12.766881	1.253552	-0.778951	2.239779	1.243511	-0.455872	-0.534912	0.122314	-0.49707
766.0	14.714461	4.046791	-0.328009	2.575057	-0.155331	-0.005689	-0.530273	0.11792	-0.496826
767.0	15.264352	5.608801	-0.048354	1.350643	-0.948294	0.481985	-0.537354	0.124512	-0.483154
768.0	14.451381	3.529611	-2.277061	-1.131046	-1.475266	0.910333	-0.546631	0.131104	-0.481201
769.0	13.307914	-0.356194	-6.992104	-2.192323	-1.832021	0.991628	-0.547119	0.144287	-0.467529
770.0	12.731366	-2.842798	-10.540764	-1.142597	-1.70142	0.602836	-0.553955	0.148682	-0.460938
771.0	14.207083	-2.966167	-10.871526	0.234861	-1.403858	0.243445	-0.558838	0.153076	-0.454102
772.0	19.484579	-1.09719	-9.415961	1.375503	-0.866619	0.066248	-0.558105	0.139893	-0.455811
773.0	23.016091	1.607448	-6.170471	2.953768	0.941751	-0.225445	-0.553711	0.137695	-0.467285
774.0	17.753907	3.374286	-1.360969	1.531684	3.41908	0.076575	-0.537842	0.135498	-0.490479
775.0	11.219335	1.899759	1.146972	-2.260887	5.030972	0.486091	-0.524902	0.151123	-0.519043
776.0	6.349673	-1.489719	2.407484	-3.147696	5.242333	0.789517	-0.502686	0.157959	-0.540039
777.0	3.298238	-3.333277	5.619637	-1.786381	4.52497	0.580894	-0.491699	0.166748	-0.559082
778.0	3.587253	-2.630075	7.507786	0.758754	2.149119	0.451251	-0.480469	0.168945	-0.568359
779.0	7.488261	0.1856	11.864485	4.019745	-0.310472	0.690371	-0.486572	0.151367	-0.57251
780.0	10.811809	4.584779	14.671507	3.513236	-1.211473	0.859369	-0.490967	0.14917	-0.570068
781.0	9.919429	3.760531	8.495406	0.213058	-2.054198	1.226707	-0.500488	0.157959	-0.551758
782.0	7.83132	-0.261104	-0.070888	-1.705264	-2.16123	1.350877	-0.505371	0.166748	-0.542725
783.0	9.136704	-2.135607	-4.227996	-0.045939	-1.88811	1.011829	-0.512451	0.175537	-0.529297
784.0	12.210566	-0.773008	-2.59881	2.136763	-1.941413	0.555504	-0.520996	0.168701	-0.521973
785.0	16.404179	1.927993	1.531246	1.800967	-2.032722	0.115432	-0.527588	0.164307	-0.51709
786.0	17.209277	1.101677	2.531239	-1.304766	-1.097813	-0.12069	-0.527832	0.170898	-0.515137
787.0	13.484858	-3.14382	-0.910001	-2.891697	0.825919	-0.2029	-0.523926	0.179688	-0.522461
788.0	9.705567	-5.12393	-2.732561	-2.02616	1.77538	-0.365189	-0.521484	0.179688	-0.5271
789.0	7.820054	-4.011565	-2.740564	0.09223	1.523555	-0.579846	-0.52124	0.173096	-0.533691
790.0	6.818732	-1.614413	-0.375106	1.90556	0.976436	-0.728679	-0.513916	0.159912	-0.544922
791.0	6.688602	1.364444	2.213818	2.236621	0.752239	-0.887961	-0.509033	0.146729	-0.549072
792.0	6.458675	3.376194	3.520359	1.583558	0.57971	-0.811508	-0.510742	0.135742	-0.548584
793.0	5.757317	3.417413	3.280749	0.562432	0.108325	-0.515007	-0.515381	0.140137	-0.555664
794.0	5.147921	2.126252	2.443088	-0.296497	-0.66245	-0.278635	-0.517578	0.135742	-0.548584
795.0	4.833757	0.852897	1.456454	-0.479448	-1.401208	-0.150773	-0.52002	0.142334	-0.534912
796.0	4.784522	0.100504	0.743914	-0.100644	-1.936945	-0.150291	-0.526611	0.135742	-0.532471
797.0	4.967614	0.321748	0.111681	0.546998	-2.401486	-0.212191	-0.544434	0.135498	-0.509033
798.0	5.250199	0.958731	-0.362571	1.001081	-2.757316	-0.254268	-0.546387	0.124512	-0.501709
799.0	5.692369	1.463042	-1.146419	0.920988	-2.830981	-0.293993	-0.56665	0.126465	-0.487793
800.0	6.322759	1.572878	-2.168318	0.475886	-2.505293	-0.230437	-0.571045	0.124268	-0.471436
801.0	6.905856	1.267383	-3.17433	-0.156612	-1.976876	-0.177454	-0.573242	0.119873	-0.466797
802.0	7.500691	0.854004	-4.085147	-0.801544	-1.505358	-0.128765	-0.584717	0.124268	-0.462158
803.0	7.825032	0.410915	-4.701362	-1.26349	-0.900273	-0.057649	-0.580322	0.126465	-0.453125
804.0	7.590489	0.074676	-5.090708	-1.459342	-0.258757	0.017798	-0.58252	0.130859	-0.450928
805.0	7.233934	-0.124506	-5.34333	-1.433456	0.216416	0.071216	-0.580566	0.133057	-0.458008
806.0	7.147422	-0.125857	-5.364195	-1.320974	0.51182	0.129466	-0.580811	0.144043	-0.456055
807.0	7.292619	0.015203	-5.102051	-1.29555	0.814328	0.198883	-0.58374	0.155029	-0.46582
808.0	7.722451	0.255186	-4.498129	-1.335876	1.18981	0.263655	-0.569824	0.146484	-0.472412
809.0	8.273529	0.523561	-3.775103	-1.398046	1.748486	0.307971	-0.568115	0.161865	-0.482178
810.0	8.75641	0.518618	-2.549239	-1.402757	2.531838	0.339602	-0.559326	0.164063	-0.482422
811.0	9.002943	0.322425	-1.152963	-1.395937	3.301809	0.368204	-0.54834	0.173096	-0.512939
812.0	9.043991	0.060866	0.125895	-1.415493	3.46487	0.38307	-0.52832	0.181885	-0.536377
813.0	9.304702	-0.381968	1.059818	-1.459724	2.580906	0.352035	-0.531006	0.188721	-0.545898
814.0	9.681131	-1.213311	1.513579	-1.491768	0.718989	0.187053	-0.52417	0.190918	-0.536621
815.0	10.114416	-2.571896	0.49906	-1.09009	-1.52553	-0.1163	-0.537842	0.195068	-0.525146
816.0	10.443676	-3.54359	-1.117204	-0.272651	-3.666616	-0.41003	-0.549072	0.190674	-0.501953
817.0	11.280156	-3.555684	-3.526273	0.378286	-5.279203	-0.631577	-0.569336	0.19043	-0.473877
818.0	13.035628	-2.381965	-7.756996	0.72613	-5.708801	-0.739003	-0.58667	0.177246	-0.447998
819.0	15.644024	-0.563229	-12.697963	1.195721	-4.494898	-0.631627	-0.604736	0.179199	-0.420166
820.0	19.016518	1.387559	-15.50835	1.275735	-2.723655	-0.547965	-0.604492	0.168213	-0.408203
821.0	22.520345	2.778925	-15.660143	0.440212	-1.103948	-0.552624	-0.611084	0.166016	-0.407959
822.0	22.818218	2.243774	-13.810771	-1.221117	1.498029	-0.455152	-0.601807	0.161621	-0.419434
823.0	18.372504	0.16439	-10.658353	-1.308287	4.852691	-0.734207	-0.588867	0.170654	-0.459229
824.0	12.656036	-0.804031	-5.941411	-0.094209	7.072373	-0.886636	-0.570313	0.157471	-0.500732
825.0	9.081906	0.886544	0.679542	0.908025	7.72524	-0.768442	-0.538574	0.155518	-0.553955
826.0	5.304323	3.135224	12.967663	-1.038014	8.347056	-0.610143	-0.511719	0.160156	-0.584473
827.0	-0.797929	0.922663	20.803826	-4.627339	7.005015	-0.775417	-0.485352	0.175781	-0.617432
828.0	-2.077297	-7.114643	19.482097	-1.406287	2.232141	-0.664848	-0.48291	0.166992	-0.619385
829.0	2.00941	-2.082507	11.600481	4.300457	-2.788227	-0.53524	-0.502197	0.146973	-0.5979
830.0	4.735593	3.046057	6.074016	4.219521	-5.365395	-0.822387	-0.52832	0.122559	-0.57373
831.0	7.815249	3.287569	1.926326	0.479593	-6.16447	-0.943637	-0.555664	0.128906	-0.539063
832.0	13.181459	2.204494	-2.311397	-2.85013	-4.391274	-0.474126	-0.562256	0.128906	-0.518066
833.0	18.479205	-1.569103	-5.157481	-3.201007	-0.984922	-0.193325	-0.560791	0.148682	-0.516602
834.0	21.481188	-2.446673	-5.578271	-1.007594	0.193989	-0.322975	-0.56958	0.14209	-0.520996
835.0	17.271672	2.171256	-5.054584	2.637355	-0.083087	-0.368195	-0.566895	0.128906	-0.520508
836.0	11.837805	7.71883	-1.793025	4.338708	0.821905	-0.262509	-0.566162	0.109131	-0.53125
837.0	8.315155	9.43057	1.071109	1.910431	1.298309	0.323759	-0.563965	0.113525	-0.536133
838.0	6.244243	6.502828	1.513097	-2.081545	0.793203	0.754948	-0.553223	0.126709	-0.545898
839.0	6.597772	1.489613	0.341554	-3.664501	0.150188	1.14669	-0.560791	0.148682	-0.537354
840.0	7.652743	-2.996366	0.056118	-2.502773	0.119134	1.245726	-0.552246	0.159912	-0.535645
841.0	7.541556	-4.882108	0.271462	-0.734322	0.287594	0.700742	-0.552734	0.168701	-0.533447
842.0	6.584541	-3.602033	0.199765	0.836726	0.259705	0.321653	-0.554688	0.162109	-0.535645
843.0	5.731142	-1.847257	0.901885	1.199917	-0.028157	0.143422	-0.554688	0.164307	-0.540283
844.0	5.552013	-0.713207	1.137318	0.348653	-0.325517	0.161775	-0.556885	0.162109	-0.537842
845.0	5.785296	-0.949657	0.876	-0.779676	-0.463132	0.308711	-0.557129	0.168701	-0.53125
846.0	6.107784	-2.001206	0.311942	-1.397549	-0.552207	0.440746	-0.564209	0.175293	-0.533691
847.0	6.274898	-2.749361	-0.289879	-1.150768	-0.777227	0.472829	-0.562256	0.181885	-0.524658
848.0	6.462539	-2.591674	-0.89547	-0.3506	-1.206206	0.452041	-0.569336	0.190674	-0.522705
849.0	6.638082	-1.595927	-1.415885	0.645585	-1.735146	0.396696	-0.578125	0.186035	-0.510986
850.0	6.633453	-0.363512	-1.9633	1.221767	-2.007401	0.322097	-0.586914	0.181641	-0.496826
851.0	6.744239	0.483097	-2.513838	1.163469	-1.996081	0.351507	-0.59375	0.181641	-0.48999
852.0	6.954018	0.70457	-3.364477	0.694852	-1.761568	0.354753	-0.589111	0.181641	-0.478271
853.0	7.250492	0.269422	-4.358022	0.334638	-1.296025	0.309417	-0.598145	0.177246	-0.471191
854.0	7.467856	-0.401864	-5.24023	0.372454	-0.766909	0.183457	-0.600586	0.181641	-0.468994
855.0	7.584426	-0.803135	-5.63376	0.696248	-0.167072	0.006996	-0.602539	0.177002	-0.46875
856.0	7.501803	-0.773051	-5.372749	1.027048	0.498243	-0.158979	-0.591064	0.170654	-0.475586
857.0	7.320188	-0.658508	-4.581221	1.058829	1.203271	-0.304781	-0.597412	0.164063	-0.489258
858.0	7.216994	-0.728123	-3.720127	0.854758	1.767304	-0.401715	-0.588135	0.157471	-0.49585
859.0	7.31929	-1.043341	-2.833721	0.752871	2.104572	-0.483633	-0.588379	0.159668	-0.51001
860.0	7.486379	-1.112728	-1.663696	0.87736	2.393022	-0.560679	-0.569824	0.148682	-0.537354
861.0	7.76929	-0.746013	-0.288656	1.195596	2.467501	-0.602265	-0.564941	0.139893	-0.539551
862.0	8.835384	0.18747	0.619801	1.540751	1.859959	-0.545088	-0.55542	0.126709	-0.557617
863.0	10.772083	1.576139	0.53397	1.728975	0.352403	-0.303726	-0.562256	0.124512	-0.555176
864.0	13.773284	3.533236	-0.763173	1.927657	-1.322319	0.051036	-0.568604	0.115723	-0.538574
865.0	16.154152	5.339926	-1.722393	1.904796	-2.611487	0.593662	-0.579834	0.117676	-0.529297
866.0	15.888611	4.639015	-3.186784	0.234698	-2.736734	1.012108	-0.586914	0.124268	-0.515625
867.0	14.197639	1.325813	-7.65365	-1.354019	-2.03264	1.17797	-0.593994	0.133057	-0.501953
868.0	12.28066	-1.63039	-11.435334	-1.17338	-1.079745	0.825961	-0.594482	0.141846	-0.502441
869.0	11.653172	-2.13934	-12.049415	-0.147665	-0.423366	0.295584	-0.598877	0.141846	-0.495361
870.0	15.277017	-1.410289	-9.32433	0.196528	-0.40159	0.192637	-0.598877	0.139648	-0.5
871.0	22.040486	0.208152	-6.906962	0.914155	0.578177	-0.012932	-0.598633	0.137451	-0.506836
872.0	24.058248	2.039461	-1.485663	2.196345	3.130827	-0.127085	-0.580322	0.126709	-0.539063
873.0	14.998633	4.192804	4.373361	-0.496107	5.599686	0.101498	-0.560303	0.135498	-0.5625
874.0	6.027985	1.514381	5.213362	-3.685135	5.427026	0.624213	-0.541016	0.155518	-0.593506
875.0	1.645689	-2.223312	5.883114	-3.786846	3.743157	0.732616	-0.52832	0.175537	-0.601074
876.0	0.641572	-4.48761	5.36875	-0.988848	0.787717	0.638194	-0.532715	0.175537	-0.594238
877.0	5.045245	-3.085779	4.161693	2.712611	-1.988895	0.640713	-0.543457	0.164307	-0.591553
878.0	11.742586	-0.106699	9.638651	4.707823	-1.83893	0.715195	-0.547119	0.144531	-0.58374
879.0	14.18006	4.817557	11.736257	2.208545	0.28329	0.687334	-0.547363	0.144531	-0.593018
880.0	9.964756	3.028685	5.875405	-0.870248	0.244089	1.459215	-0.54126	0.162109	-0.58667
881.0	7.720854	-0.501685	-0.22998	-1.836651	-0.764979	1.592134	-0.551025	0.179688	-0.578125
882.0	9.922972	-1.79089	-2.522675	0.34186	-1.87805	1.137066	-0.555176	0.175293	-0.568604
883.0	13.462125	-0.195804	-0.061481	2.419663	-2.410876	0.56672	-0.566162	0.166504	-0.556641
884.0	17.780862	1.341578	3.128056	1.102312	-2.787117	0.11132	-0.577393	0.16626	-0.540527
885.0	16.244442	-1.199494	0.853739	-2.02194	-1.654272	-0.18474	-0.584473	0.172852	-0.531494
886.0	12.02511	-5.121091	-2.708567	-2.656908	0.388375	-0.221525	-0.58252	0.181641	-0.538574
887.0	9.331051	-5.703282	-4.208047	-1.280512	1.068923	-0.487602	-0.578125	0.181885	-0.536377
888.0	7.631744	-3.886182	-3.632524	1.086467	0.820663	-0.639446	-0.575195	0.16626	-0.547363
889.0	7.036362	-1.195894	-1.043251	2.541997	0.685628	-0.828359	-0.579102	0.155273	-0.553955
890.0	7.277368	1.835629	1.261577	2.329131	0.994428	-0.96168	-0.567139	0.135498	-0.557861
891.0	6.842883	3.258	2.421206	1.280246	1.404421	-0.766988	-0.566895	0.131104	-0.566895
892.0	5.573998	2.666639	2.661371	0.15353	1.382861	-0.484811	-0.564453	0.124512	-0.57373
893.0	4.62207	1.345457	2.082241	-0.460366	0.783115	-0.242944	-0.553467	0.12915	-0.578613
894.0	4.247491	0.278646	1.445728	-0.210369	0.011537	-0.17859	-0.566895	0.128906	-0.576172
895.0	4.410357	0.107969	1.149505	0.609681	-0.755398	-0.227808	-0.568848	0.120117	-0.573486
896.0	4.758713	0.905736	1.355848	1.278402	-1.478756	-0.282646	-0.577393	0.111328	-0.559326
897.0	4.915567	1.70149	1.494221	1.220809	-2.108348	-0.300532	-0.586426	0.113281	-0.543213
898.0	5.212884	2.053719	1.063459	0.647464	-2.637527	-0.293751	-0.599609	0.102295	-0.528809
899.0	5.715883	1.763506	0.077808	-0.129734	-3.052217	-0.248161	-0.613037	0.102295	-0.514893
900.0	6.586408	0.997462	-1.511312	-0.852253	-3.18263	-0.181393	-0.617676	0.106445	-0.494141
901.0	7.488797	0.086662	-3.407173	-1.282926	-2.858967	-0.15883	-0.635986	0.11084	-0.478027
902.0	8.106937	-0.348706	-4.97274	-1.174757	-2.170025	-0.165907	-0.633545	0.104248	-0.466064
903.0	8.122053	-0.090469	-6.053756	-0.734413	-1.396212	-0.192367	-0.642578	0.11084	-0.454834
904.0	7.9993	0.60359	-6.730677	-0.308304	-0.653011	-0.171569	-0.646973	0.106201	-0.45459
905.0	7.946681	1.325858	-7.070483	-0.378771	-0.055027	-0.079004	-0.64502	0.115234	-0.457275
906.0	7.729447	1.586364	-7.109917	-0.936436	0.363711	0.098506	-0.64502	0.11084	-0.454834
907.0	7.669156	1.286354	-6.45598	-1.425263	0.719187	0.267855	-0.640869	0.119629	-0.461914
908.0	8.105838	0.916688	-5.292604	-1.590341	1.155987	0.375324	-0.638672	0.119629	-0.468994
909.0	8.739235	0.551768	-3.452908	-1.535047	1.961468	0.467915	-0.630127	0.132813	-0.481201
910.0	9.243606	0.290949	-1.631969	-1.422165	3.06719	0.484992	-0.621338	0.141846	-0.50708
911.0	9.320018	0.130159	-0.488442	-1.215608	3.611257	0.410523	-0.610107	0.141846	-0.525635
912.0	9.317963	-0.105827	0.175236	-1.03827	3.075524	0.300989	-0.601074	0.141846	-0.532471
913.0	9.598645	-0.703572	0.61745	-1.049287	1.655623	0.13323	-0.594727	0.148682	-0.546631
914.0	9.911071	-1.671005	0.344353	-0.966244	-0.02597	-0.11176	-0.596924	0.148682	-0.537354
915.0	10.533977	-2.861941	-0.245187	-0.800381	-1.933619	-0.36097	-0.608154	0.14624	-0.516357
916.0	10.919619	-3.50678	-2.067174	-0.754557	-3.709672	-0.571782	-0.628418	0.144043	-0.5
917.0	11.755371	-3.224977	-5.498926	-0.330785	-4.837066	-0.699122	-0.64624	0.143799	-0.465332
918.0	13.530887	-1.983219	-9.877102	0.487662	-4.846947	-0.634313	-0.65918	0.130371	-0.43457
919.0	15.52113	-0.251436	-13.659895	1.352913	-3.708163	-0.497943	-0.666016	0.128174	-0.413574
920.0	18.464839	2.111171	-15.476868	1.993369	-2.177456	-0.530302	-0.672363	0.123779	-0.404053
921.0	21.408809	3.188858	-14.176027	1.079508	-0.764731	-0.47354	-0.67627	0.108154	-0.405762
922.0	20.541223	2.55767	-12.879601	-1.194811	1.668135	-0.50255	-0.665039	0.108398	-0.424561
923.0	16.115029	0.199214	-9.647732	-1.691026	4.945355	-0.735621	-0.65625	0.108398	-0.463867
924.0	11.780237	-1.020261	-4.679598	-0.457052	7.391784	-0.81409	-0.630859	0.093262	-0.505127
925.0	8.584118	0.303194	2.82606	0.750888	8.645427	-0.712901	-0.599365	0.093506	-0.561035
926.0	3.695175	1.768591	15.69613	-1.524583	9.4236	-0.639046	-0.561279	0.098145	-0.619141
927.0	-2.584189	-2.696724	21.944091	-3.230819	7.073199	-0.956634	-0.53418	0.100586	-0.640137
928.0	-2.241394	-6.324966	19.353771	0.986302	0.766083	-0.804248	-0.551758	0.084961	-0.637207
929.0	2.24545	0.723581	9.97288	4.322324	-4.282455	-0.632946	-0.571045	0.060547	-0.60376
930.0	5.187548	2.315358	4.711339	2.851402	-6.486139	-0.908966	-0.599609	0.044922	-0.570801
931.0	9.662119	2.129944	0.772368	-0.312171	-6.414721	-0.746472	-0.626709	0.047119	-0.533691
932.0	15.468607	0.813134	-3.171552	-2.830591	-3.805488	-0.152715	-0.633789	0.053467	-0.517578
933.0	21.893483	-1.862796	-6.225911	-2.677017	-1.038197	-0.049099	-0.636475	0.064697	-0.518066
934.0	24.087255	-0.460378	-7.74468	0.546972	-0.981041	-0.076312	-0.638184	0.055664	-0.503662
935.0	16.87874	5.449669	-4.875853	4.459397	0.255802	-0.263632	-0.64209	0.035889	-0.514648
936.0	10.908442	9.486484	-1.233059	3.977117	1.863416	0.014169	-0.634766	0.024902	-0.525879
937.0	6.598887	8.389232	1.027135	0.033013	2.027933	0.519482	-0.628174	0.029297	-0.530762
938.0	5.156315	4.61632	0.600719	-3.446452	0.999662	0.843898	-0.624756	0.053711	-0.536133
939.0	5.848072	-0.094295	0.32853	-4.129621	0.069793	1.205811	-0.62793	0.075684	-0.534668
940.0	6.920074	-3.860968	0.576823	-2.596796	0.040164	1.170228	-0.628418	0.088867	-0.539795
941.0	6.673737	-4.77485	0.762758	-0.6058	0.176644	0.588301	-0.630859	0.097656	-0.535645
942.0	5.828637	-3.108534	0.895374	0.987356	-0.153336	0.246644	-0.630371	0.082275	-0.534912
943.0	5.100934	-1.346784	1.276425	1.074274	-0.658012	0.107359	-0.63501	0.08667	-0.525879
944.0	5.004408	-0.273994	1.149897	0.119074	-1.001536	0.182403	-0.637207	0.084473	-0.518799
945.0	5.237616	-0.28304	0.700817	-1.055324	-1.203012	0.341748	-0.644287	0.093262	-0.514404
946.0	5.576071	-1.041	-0.202163	-1.827787	-1.376092	0.432306	-0.648926	0.095459	-0.505127
947.0	5.968105	-1.809898	-1.292149	-1.806282	-1.644356	0.471796	-0.658447	0.11084	-0.494141
948.0	6.256878	-1.875199	-2.487032	-0.925887	-1.918974	0.422766	-0.667236	0.106201	-0.484619
949.0	6.392387	-1.322375	-3.168392	0.30631	-2.048601	0.313637	-0.669678	0.110596	-0.466309
950.0	6.28171	-0.547652	-3.750811	1.09429	-1.938361	0.200937	-0.674072	0.104004	-0.454346
951.0	6.202445	-0.063575	-4.141087	1.362852	-1.700558	0.172537	-0.683105	0.108398	-0.447754
952.0	6.175107	0.08213	-4.600024	1.154086	-1.347099	0.149959	-0.684814	0.094971	-0.440186
953.0	6.274051	0.035628	-5.031647	0.802679	-0.948521	0.144357	-0.694092	0.099365	-0.426514
954.0	6.702958	-0.314106	-5.683421	0.507431	-0.569449	0.099481	-0.69165	0.094971	-0.428467
955.0	7.259964	-0.85145	-6.075476	0.461056	-0.16137	0.026882	-0.693848	0.092773	-0.430908
956.0	7.671679	-1.341282	-6.376437	0.573167	0.389017	-0.114895	-0.693604	0.086182	-0.428223
957.0	7.843957	-1.529247	-6.218594	0.800831	0.983037	-0.295395	-0.693359	0.081787	-0.444336
958.0	7.992675	-1.414159	-5.433113	0.978905	1.589122	-0.444874	-0.690674	0.072998	-0.455566
959.0	8.302913	-1.171574	-4.279124	1.075944	2.210113	-0.531393	-0.683838	0.068604	-0.474121
960.0	8.812815	-1.017653	-2.73285	1.246232	2.878856	-0.532341	-0.676758	0.057617	-0.487549
961.0	9.573572	-0.437156	-1.258822	1.518235	3.297614	-0.484988	-0.669678	0.05127	-0.512939
962.0	10.924823	0.592715	0.156291	1.714377	2.691168	-0.276638	-0.653564	0.040283	-0.533447
963.0	12.859642	2.400206	0.420442	1.98004	1.137055	0.015608	-0.662109	0.033691	-0.528564
964.0	14.509884	4.410701	0.057893	2.221496	-0.739049	0.4482	-0.66626	0.024658	-0.523438
965.0	14.782879	4.886876	-0.789791	0.841068	-2.072791	0.869025	-0.677979	0.033447	-0.50293
966.0	14.043137	2.305306	-4.998419	-1.392911	-2.63526	1.116175	-0.682861	0.046631	-0.487061
967.0	13.451356	-1.18808	-10.195512	-1.797729	-2.285647	0.890731	-0.696777	0.05542	-0.471191
968.0	16.917054	-2.256671	-12.453128	-0.220276	-1.410748	0.401227	-0.701172	0.051025	-0.466309
969.0	22.028778	0.595452	-10.259858	2.664	-0.222657	-0.085957	-0.700684	0.042236	-0.466064
970.0	23.06681	5.350977	-4.059645	3.088927	2.10931	-0.14511	-0.691406	0.033447	-0.489014
971.0	16.025574	6.891741	1.663865	-0.963597	4.930331	0.325802	-0.67627	0.049072	-0.524414
972.0	8.238186	1.979176	2.625282	-4.479104	5.586487	0.740975	-0.652588	0.071289	-0.560059
973.0	3.860807	-2.342709	3.797114	-4.614916	4.941495	0.888067	-0.640137	0.0979	-0.588867
974.0	5.886543	-4.429505	6.055057	-1.885881	3.096839	0.5531	-0.628906	0.100098	-0.603027
975.0	9.297013	-2.015224	11.627211	3.660745	0.834654	0.717487	-0.626221	0.089111	-0.60498
976.0	9.062795	4.588682	14.334652	3.931677	-1.113544	0.862476	-0.636963	0.075684	-0.594971
977.0	8.231071	3.920816	7.605966	-0.290972	-2.405872	1.182436	-0.648926	0.093262	-0.574707
978.0	8.120697	-0.961428	-0.591872	-3.087559	-2.23822	1.583497	-0.658691	0.113037	-0.561523
979.0	8.682347	-4.706038	-4.365907	-1.759533	-0.976803	1.181888	-0.663818	0.126221	-0.557373
980.0	11.587654	-3.241118	-3.070544	1.916498	-0.396796	0.505878	-0.667725	0.115234	-0.55249
981.0	15.033718	0.232881	2.798386	3.465536	-1.014217	0.14486	-0.662842	0.106445	-0.549805
982.0	17.273365	1.988274	6.089996	0.558099	-1.401512	-0.035771	-0.674316	0.108643	-0.542969
983.0	14.568148	-1.663574	2.626462	-2.62853	-0.568462	0.000567	-0.676758	0.115234	-0.536133
984.0	10.849938	-5.690394	-1.473098	-3.154591	0.254	-0.048391	-0.674805	0.124023	-0.543457
985.0	8.740053	-6.558971	-3.926146	-1.432038	0.406252	-0.395642	-0.672852	0.130615	-0.545898
986.0	7.44186	-4.495335	-4.113155	1.462629	-0.098777	-0.655523	-0.676514	0.11084	-0.535889
987.0	6.601503	-1.176463	-1.979819	3.434215	-0.362098	-0.934484	-0.684814	0.09082	-0.542236
988.0	6.729598	2.611704	0.563447	3.464007	0.225898	-1.110374	-0.679443	0.071045	-0.543701
989.0	6.891196	5.291284	2.035693	2.063863	1.019705	-0.941602	-0.672607	0.06665	-0.54834
990.0	5.744177	5.178806	2.355455	0.200723	1.27329	-0.553538	-0.674561	0.060059	-0.55957
991.0	4.449075	3.002153	1.652324	-1.248457	0.898183	-0.23896	-0.672607	0.068848	-0.564697
992.0	3.732907	1.022001	0.501761	-1.396727	0.358296	-0.031681	-0.663574	0.068848	-0.562256
993.0	3.568373	0.249732	-0.029524	-0.370851	-0.231581	-0.096044	-0.672852	0.075439	-0.557861
994.0	4.209258	0.994984	0.399555	1.016388	-0.970537	-0.251193	-0.672363	0.064453	-0.552734
995.0	5.147836	2.0891	1.796417	1.486086	-1.715636	-0.292861	-0.685791	0.060059	-0.536377
996.0	6.149075	2.477363	2.466178	0.511681	-2.104097	-0.270142	-0.689941	0.051025	-0.524414
997.0	6.800432	1.386022	1.569405	-0.920265	-2.278776	-0.146524	-0.699219	0.057617	-0.506104
998.0	7.155311	-0.479897	-0.192862	-1.775263	-2.40611	-0.05599	-0.710938	0.066406	-0.490234
999.0	7.457447	-2.144678	-2.080796	-1.822101	-2.346923	-0.069247	-0.717529	0.066406	-0.476318
1000.0	7.713568	-2.730179	-3.792018	-1.245452	-2.191075	-0.163317	-0.722168	0.070801	-0.457764
1001.0	7.797515	-2.021928	-5.39788	-0.408877	-1.975241	-0.219452	-0.733643	0.072754	-0.44165
1002.0	8.038239	-0.711356	-6.537689	0.236067	-1.487737	-0.240435	-0.737793	0.066162	-0.436768
1003.0	8.444272	0.508072	-6.996954	0.476558	-0.758473	-0.165448	-0.733154	0.061768	-0.434326
1004.0	8.382646	1.250279	-6.301998	0.126311	0.167553	-0.062417	-0.735352	0.05957	-0.434082
1005.0	8.009007	1.492093	-5.325591	-0.481113	1.046477	0.021161	-0.733154	0.061768	-0.438965
1006.0	7.477899	1.415055	-4.38183	-0.697316	1.531971	0.094338	-0.72876	0.063965	-0.455322
1007.0	7.328364	1.485475	-3.249545	-0.515506	1.727571	0.160066	-0.724609	0.070801	-0.469482
1008.0	7.709948	1.747894	-1.765929	-0.434108	2.011844	0.245704	-0.713379	0.072998	-0.48584
1009.0	8.721671	2.122839	-0.396162	-0.606814	2.40356	0.3147	-0.709229	0.081787	-0.5
1010.0	9.562864	2.378812	0.408742	-0.853147	2.41759	0.333844	-0.702637	0.084229	-0.518799
1011.0	9.93299	1.915374	0.498829	-1.17829	1.771561	0.267439	-0.700439	0.086426	-0.525879
1012.0	10.621694	0.854838	-0.159934	-1.300077	0.116389	0.088741	-0.696045	0.09082	-0.523682
1013.0	11.603476	-1.025232	-0.830482	-1.365246	-1.946987	-0.048351	-0.705322	0.097412	-0.507568
1014.0	12.506707	-3.272774	-2.859351	-1.697375	-3.679009	-0.262493	-0.723389	0.097168	-0.472656
1015.0	13.335074	-4.504169	-6.980654	-1.286072	-4.436061	-0.49329	-0.743652	0.099121	-0.442627
1016.0	13.785382	-3.794097	-11.397994	0.064631	-3.93375	-0.616166	-0.747803	0.088135	-0.416748
1017.0	15.569642	-1.934246	-13.652408	1.255818	-2.720726	-0.601056	-0.756592	0.08374	-0.402588
1018.0	19.004887	-0.107106	-13.199761	1.230593	-1.543615	-0.622535	-0.753906	0.076904	-0.397705
1019.0	21.176801	0.678649	-11.573299	0.005825	0.612813	-0.65862	-0.756348	0.079346	-0.402344
1020.0	19.258217	0.274694	-8.886312	0.214384	3.697077	-0.911467	-0.742432	0.066162	-0.438965
1021.0	13.567106	0.573956	-4.727594	0.749517	6.101104	-1.193846	-0.726074	0.055176	-0.489746
1022.0	9.386539	2.371563	-0.335091	0.947653	6.801321	-1.165672	-0.696533	0.046631	-0.533691
1023.0	6.880114	4.572495	8.539117	-0.093642	6.674861	-0.883274	-0.674072	0.044678	-0.577637
1024.0	4.057334	3.550691	17.835638	-3.648201	6.340488	-0.60117	-0.645508	0.0625	-0.622559
1025.0	2.431741	-4.613408	18.383593	-2.92451	3.818975	-0.792659	-0.643066	0.0625	-0.636475
1026.0	3.856838	-3.902458	12.364997	1.949828	-1.042521	-0.751406	-0.646973	0.042725	-0.614746
1027.0	5.710508	1.537122	6.194437	3.603956	-4.455035	-0.819797	-0.67334	0.0271	-0.581543
1028.0	7.864473	2.427699	3.384984	1.636416	-5.455004	-0.832858	-0.688477	0.015869	-0.553467
1029.0	12.712512	1.986917	-0.541679	-2.192659	-4.297931	-0.655247	-0.707031	0.026855	-0.52124
1030.0	18.433775	-0.908288	-4.989424	-3.081005	-1.876467	-0.268232	-0.709473	0.033447	-0.514404
1031.0	22.447791	-1.915346	-6.690981	-0.843694	-0.87454	-0.266175	-0.71167	0.033447	-0.50293
1032.0	17.46883	2.698658	-5.427603	2.952097	0.055672	-0.407965	-0.70874	0.013428	-0.516113
1033.0	11.850471	8.156477	-1.901847	3.709607	1.665994	-0.40188	-0.703857	0.00708	-0.529785
1034.0	8.254284	8.983982	0.845577	1.222777	1.832124	0.281331	-0.699219	0.002686	-0.531982
1035.0	6.339155	5.388943	1.836904	-2.374341	0.952633	0.785358	-0.702637	0.03125	-0.544678
1036.0	6.68179	0.576518	1.15145	-3.489954	0.220113	1.160359	-0.69873	0.046631	-0.542969
1037.0	7.253905	-3.389808	1.105428	-2.284823	0.114593	1.226044	-0.699707	0.06665	-0.536621
1038.0	6.609224	-4.95612	1.088243	-0.747254	0.025017	0.810478	-0.695313	0.071045	-0.543701
1039.0	5.586117	-4.128597	0.55084	0.550954	-0.215897	0.49919	-0.69751	0.073242	-0.543945
1040.0	4.870053	-2.887154	0.645422	0.877578	-0.56224	0.340669	-0.702148	0.073242	-0.532227
1041.0	4.820102	-2.016558	0.447225	0.244936	-0.792836	0.250117	-0.706543	0.072998	-0.527588
1042.0	5.139262	-1.833583	0.072292	-0.441485	-0.713621	0.285441	-0.711426	0.077393	-0.527832
1043.0	5.709888	-1.885212	-0.243247	-0.712668	-0.630442	0.308608	-0.709473	0.086182	-0.516357
1044.0	5.92336	-1.838755	-0.497402	-0.450049	-0.659236	0.310657	-0.714111	0.088379	-0.51416
1045.0	6.220281	-1.331715	-0.729098	0.197429	-0.870961	0.315843	-0.716309	0.090576	-0.509766
1046.0	6.357984	-0.37619	-1.031877	0.932492	-1.267137	0.305335	-0.722656	0.081787	-0.5
1047.0	6.543323	0.492787	-1.654388	1.437082	-1.598507	0.316055	-0.727295	0.081787	-0.483887
1048.0	6.659975	0.957804	-2.453705	1.519729	-1.672493	0.336574	-0.727295	0.083984	-0.467529
1049.0	6.950064	0.989447	-3.412692	1.147397	-1.467593	0.355688	-0.740723	0.08374	-0.465332
1050.0	7.311344	0.725511	-4.453657	0.708403	-1.053237	0.349877	-0.738525	0.081543	-0.453613
1051.0	7.557701	0.244733	-5.124312	0.476746	-0.493347	0.278716	-0.745361	0.08374	-0.453613
1052.0	7.617529	-0.333293	-5.389101	0.386788	0.121693	0.168143	-0.738525	0.08374	-0.451416
1053.0	7.688293	-0.681314	-5.151141	0.420691	0.719953	0.018568	-0.739014	0.094971	-0.463379
1054.0	7.625432	-0.745824	-4.358792	0.403224	1.394922	-0.163151	-0.729492	0.083984	-0.476807
1055.0	7.336633	-0.515206	-3.296687	0.240552	1.904991	-0.332012	-0.729492	0.081787	-0.490723
1056.0	7.038427	-0.453325	-2.166839	0.066369	2.068158	-0.455335	-0.724609	0.072998	-0.504395
1057.0	6.976847	-0.480415	-0.948192	0.30562	2.018399	-0.498335	-0.711182	0.072998	-0.515869
1058.0	7.452773	-0.16511	0.279924	0.83485	1.603208	-0.504872	-0.704102	0.068604	-0.522705
1059.0	8.904734	0.612933	0.898314	1.217303	0.785438	-0.424816	-0.710693	0.059814	-0.5271
1060.0	11.357502	1.946816	0.676935	1.372142	-0.25545	-0.232395	-0.708008	0.053223	-0.522217
1061.0	14.144443	3.241795	0.03677	1.179883	-1.146773	0.144593	-0.714844	0.05542	-0.512939
1062.0	15.403054	3.902719	-1.316322	0.473278	-1.755429	0.601873	-0.726074	0.052979	-0.494385
1063.0	14.790081	2.655886	-3.583582	-0.811377	-2.055018	0.970122	-0.733643	0.075195	-0.490479
1064.0	13.601628	0.276331	-7.308834	-1.699757	-2.154856	1.126359	-0.734131	0.088379	-0.467773
1065.0	12.85229	-1.50394	-11.240853	-1.112344	-2.007223	0.85061	-0.741211	0.092529	-0.45166
1066.0	14.246516	-1.966952	-12.352653	0.074424	-1.401288	0.465676	-0.74585	0.094727	-0.444824
1067.0	20.02283	-0.397907	-11.496258	1.113563	-0.638937	0.267836	-0.74585	0.094727	-0.444824
1068.0	24.197331	2.830594	-7.398836	2.766974	1.394415	-0.078974	-0.736328	0.086182	-0.463135
1069.0	19.110329	5.242843	0.809006	0.446874	4.757849	0.226709	-0.721191	0.099365	-0.500732
1070.0	9.78696	2.236884	3.205022	-4.482128	6.528847	0.595306	-0.695068	0.119385	-0.538574
1071.0	2.999596	-2.404028	4.086285	-5.71097	5.690133	0.910156	-0.682861	0.152588	-0.570068
1072.0	1.246269	-7.136334	5.432319	-3.633773	2.865557	0.582539	-0.669434	0.157227	-0.584229
1073.0	6.455206	-8.072345	6.504928	2.39036	-0.590562	0.558294	-0.673584	0.148438	-0.576904
1074.0	11.858174	-0.769228	12.422077	6.766524	-1.567456	0.512915	-0.681641	0.124023	-0.57373
1075.0	12.942468	6.660171	12.955881	4.152019	-1.800705	0.649297	-0.683838	0.124023	-0.564453
1076.0	11.055261	3.774216	5.937732	-0.864416	-1.857118	1.376569	-0.697998	0.137207	-0.546143
1077.0	8.371592	-1.920765	-1.614953	-3.235139	-1.144705	1.700786	-0.698975	0.161377	-0.533203
1078.0	9.058756	-4.598725	-4.986131	-1.393466	-0.409892	1.049294	-0.697021	0.170166	-0.533447
1079.0	11.807629	-3.026854	-2.894538	2.047123	-0.695441	0.375245	-0.703369	0.161377	-0.530762
1080.0	15.210531	0.143895	2.845391	2.953419	-1.572485	-0.138669	-0.709961	0.154785	-0.519043
1081.0	16.013218	1.215716	4.873298	0.085788	-1.129942	-0.366801	-0.712158	0.156738	-0.509766
1082.0	12.687812	-1.764071	1.605301	-2.138573	0.147728	-0.285055	-0.710205	0.163574	-0.514648
1083.0	9.543702	-4.391591	-1.259819	-2.274878	0.436915	-0.359979	-0.708008	0.163574	-0.514648
1084.0	8.043601	-4.521829	-3.068774	-0.485431	0.188751	-0.6417	-0.707764	0.15918	-0.512207
1085.0	7.109452	-2.383277	-2.651197	2.033987	-0.244904	-0.908118	-0.709473	0.145752	-0.511719
1086.0	6.978713	0.79487	-0.546909	3.244476	-0.385131	-1.165314	-0.715576	0.128174	-0.501709
1087.0	7.451373	4.096838	1.142765	2.808954	-0.011156	-1.119197	-0.714844	0.112793	-0.508057
1088.0	6.954543	5.421732	1.951803	1.311621	0.478188	-0.748851	-0.712158	0.101807	-0.512451
1089.0	5.851037	4.244573	1.486786	-0.297866	0.441275	-0.416105	-0.710205	0.108398	-0.514893
1090.0	4.973527	2.587094	0.521853	-0.895226	-0.084666	-0.197482	-0.707764	0.104004	-0.51709
1091.0	4.760328	1.535558	0.241361	-0.489436	-0.675999	-0.146389	-0.719482	0.110596	-0.505859
1092.0	5.071592	1.559941	0.396164	0.268646	-1.246201	-0.21788	-0.716797	0.10376	-0.500977
1093.0	5.52363	2.118738	0.816078	0.698073	-1.761521	-0.241804	-0.730225	0.101563	-0.484619
1094.0	6.016018	2.377113	0.943802	0.355131	-2.091878	-0.196753	-0.737061	0.101563	-0.461182
1095.0	6.403237	1.789083	0.286307	-0.496566	-2.269995	-0.061331	-0.744141	0.108154	-0.44751
1096.0	6.766075	0.65138	-1.170288	-1.358184	-2.364451	0.039343	-0.744141	0.110107	-0.426758
1097.0	7.161339	-0.498644	-2.944724	-1.684633	-2.258766	0.082185	-0.757813	0.116699	-0.406006
1098.0	7.486601	-1.191271	-4.35264	-1.515009	-1.893208	0.04448	-0.76001	0.116699	-0.396729
1099.0	7.600255	-1.152335	-5.378178	-1.015029	-1.424466	-0.020073	-0.762939	0.129883	-0.385742
1100.0	7.465002	-0.434639	-5.866892	-0.499581	-0.798945	-0.022186	-0.760498	0.125488	-0.380859
1101.0	7.289649	0.315022	-6.039464	-0.254149	-0.072692	0.015185	-0.762695	0.127686	-0.383301
1102.0	7.022905	0.665488	-6.046215	-0.497909	0.332063	0.098972	-0.760742	0.13208	-0.378906
1103.0	6.718095	0.45395	-5.909048	-0.914445	0.649232	0.213991	-0.760742	0.13208	-0.385742
1104.0	6.664264	0.022346	-5.409282	-1.145889	0.950606	0.300552	-0.75415	0.138672	-0.399902
1105.0	7.106249	-0.126993	-4.386975	-1.112485	1.275398	0.394681	-0.75708	0.1521	-0.405029
1106.0	8.059689	-0.064287	-2.828567	-1.026525	1.847279	0.46236	-0.748047	0.154297	-0.421387
1107.0	9.348701	0.093377	-1.181977	-1.054636	2.723925	0.440828	-0.741455	0.158691	-0.437988
1108.0	10.226278	0.136687	0.015772	-1.05497	3.321328	0.373896	-0.735107	0.165527	-0.466064
1109.0	10.229788	-0.0178	0.475496	-1.023857	3.078055	0.274911	-0.721924	0.172119	-0.475586
1110.0	9.914484	-0.497174	0.39963	-0.845073	1.873359	0.032699	-0.72168	0.169922	-0.489502
1111.0	10.369614	-1.321209	0.150589	-0.590137	-0.239279	-0.235465	-0.726318	0.172119	-0.484863
1112.0	11.207904	-2.429883	-0.670653	-0.556346	-2.758323	-0.441247	-0.73291	0.169922	-0.45459
1113.0	12.117302	-3.166179	-3.151631	-0.408463	-4.580777	-0.573943	-0.748535	0.16748	-0.419678
1114.0	12.87711	-2.730417	-7.609106	0.247175	-4.976021	-0.613872	-0.759521	0.160645	-0.379883
1115.0	14.579109	-1.685435	-11.67651	1.128274	-4.129019	-0.50217	-0.768555	0.158447	-0.349609
1116.0	18.316739	-0.362103	-13.715644	1.482918	-2.974684	-0.479971	-0.770508	0.149658	-0.333008
1117.0	21.924193	0.19051	-13.107581	0.738529	-1.392795	-0.506879	-0.774902	0.149658	-0.340088
1118.0	21.576441	0.210893	-12.301383	-0.112413	1.536061	-0.622582	-0.776855	0.140869	-0.34668
1119.0	16.551269	0.174291	-9.424334	0.449527	4.413028	-1.0054	-0.760742	0.134277	-0.388184
1120.0	11.420102	1.110887	-5.312852	0.906258	5.923764	-1.150973	-0.746826	0.123535	-0.427246
1121.0	8.723494	2.530429	0.150384	0.872759	6.31175	-0.877746	-0.730957	0.116943	-0.480469
1122.0	6.974968	3.549201	8.408767	-0.660341	6.847573	-0.550106	-0.703857	0.11499	-0.531494
1123.0	3.218179	2.618711	14.85863	-4.055458	7.142482	-0.562816	-0.679932	0.137207	-0.574219
1124.0	0.184481	-2.641361	16.012421	-3.084581	4.900109	-0.811692	-0.675537	0.137451	-0.597412
1125.0	1.092192	-3.327919	13.349456	1.836678	-0.06801	-0.63876	-0.679443	0.121826	-0.582764
1126.0	4.134571	1.757942	8.404888	4.170266	-3.898351	-0.699079	-0.698486	0.095215	-0.556396
1127.0	7.293788	2.279285	5.138252	2.24211	-5.54579	-0.861104	-0.7229	0.088379	-0.511963
1128.0	12.056994	2.02196	1.116713	-1.287593	-5.527327	-0.780128	-0.740967	0.086182	-0.477051
1129.0	16.310633	0.077399	-3.707117	-2.701672	-3.327154	-0.437149	-0.741455	0.097168	-0.456543
1130.0	19.578974	-1.190215	-6.17613	-1.536314	-1.005223	-0.404198	-0.743408	0.092529	-0.454102
1131.0	18.908584	0.960222	-6.986277	0.843201	-0.863764	-0.311905	-0.75	0.090332	-0.447021
1132.0	14.112415	4.446619	-4.578198	3.000159	0.217628	-0.238922	-0.747314	0.074951	-0.450928
1133.0	10.500972	6.704403	-1.647463	2.484784	1.282635	0.067528	-0.745117	0.077148	-0.462646
1134.0	7.830229	5.884334	0.379917	-0.060143	1.452411	0.48361	-0.740479	0.077148	-0.469727
1135.0	7.166471	2.698547	0.665915	-2.209059	1.058841	0.809531	-0.741455	0.099365	-0.482178
1136.0	7.648453	-1.028502	0.779398	-2.293375	0.891561	1.031016	-0.735352	0.114746	-0.489746
1137.0	7.541753	-3.338433	1.190645	-1.120841	0.947344	0.91013	-0.726318	0.112549	-0.491943
1138.0	6.647896	-3.645053	1.405404	0.131628	0.735656	0.623399	-0.733154	0.119141	-0.489746
1139.0	5.583914	-2.818736	1.696344	0.804058	0.263775	0.450948	-0.733398	0.121338	-0.501465
1140.0	4.856827	-2.035745	1.567018	0.535027	-0.197666	0.341604	-0.730957	0.119141	-0.496826
1141.0	4.962062	-1.765439	1.16271	-0.031831	-0.536495	0.317986	-0.73584	0.12793	-0.487793
1142.0	5.466142	-1.807536	0.771987	-0.396135	-0.829049	0.342998	-0.744873	0.12793	-0.485596
1143.0	6.029567	-1.836843	0.419617	-0.350909	-1.036127	0.344719	-0.740479	0.130127	-0.473877
1144.0	6.418111	-1.483266	-0.136131	-0.04929	-1.364165	0.348991	-0.74292	0.136719	-0.469482
1145.0	6.767017	-0.734753	-0.801678	0.44396	-1.792843	0.318871	-0.752197	0.141113	-0.44873
1146.0	7.047835	0.035867	-1.680051	0.868594	-2.083547	0.324673	-0.760742	0.132324	-0.43457
1147.0	7.16801	0.548263	-2.633104	0.979184	-2.139685	0.366009	-0.763184	0.138672	-0.418457
1148.0	7.344951	0.717525	-3.819473	0.803232	-1.935139	0.35997	-0.774414	0.134277	-0.4021
1149.0	7.537434	0.604013	-4.894078	0.544306	-1.54621	0.31332	-0.765869	0.145264	-0.397949
1150.0	7.759073	0.37646	-5.495366	0.428958	-1.027138	0.226555	-0.774414	0.136475	-0.388184
1151.0	7.903996	0.115629	-5.643105	0.418268	-0.446563	0.119142	-0.774658	0.140869	-0.385986
1152.0	7.926546	-0.137487	-5.333783	0.461702	0.070414	0.015033	-0.774414	0.136475	-0.399902
1153.0	7.791454	-0.282975	-4.958161	0.503218	0.536113	-0.078173	-0.774414	0.136475	-0.397461
1154.0	7.625905	-0.431195	-4.529736	0.490011	1.025165	-0.185485	-0.771973	0.129883	-0.408936
1155.0	7.501763	-0.4357	-4.135184	0.48022	1.46956	-0.288354	-0.767578	0.134277	-0.418457
1156.0	7.489144	-0.372772	-3.744167	0.642138	1.885523	-0.360761	-0.762695	0.123291	-0.441162
1157.0	7.439775	-0.2908	-2.571153	0.873292	2.439441	-0.396879	-0.757813	0.116943	-0.457275
1158.0	7.51308	0.150187	-0.781392	1.027557	2.865652	-0.37994	-0.751465	0.121338	-0.476074
1159.0	8.383436	1.065518	1.19832	1.043707	2.641682	-0.286929	-0.737549	0.112549	-0.503418
1160.0	9.834431	1.882347	1.751799	1.039735	1.287646	-0.028651	-0.743896	0.105957	-0.512451
1161.0	11.930914	2.574222	0.910348	1.0934	-0.499863	0.280199	-0.744385	0.116943	-0.506104
1162.0	14.177906	2.810276	-0.492743	0.817175	-2.076551	0.62991	-0.753174	0.108154	-0.484863
1163.0	15.238032	1.776419	-3.074386	-0.158782	-3.033632	0.910026	-0.762451	0.119141	-0.459717
1164.0	14.865574	-0.426915	-7.654723	-0.941519	-3.150412	0.962109	-0.769531	0.127686	-0.434326
1165.0	13.61654	-2.304252	-11.655012	-0.735207	-2.24022	0.654805	-0.776611	0.13208	-0.422852
1166.0	14.546541	-2.312579	-12.153914	-0.101621	-1.006697	0.28719	-0.778564	0.127686	-0.418213
1167.0	19.307279	-0.312342	-9.815415	0.838165	-0.139196	0.061782	-0.776611	0.13208	-0.422852
1168.0	22.858794	2.368376	-6.115333	2.389355	1.542659	-0.244157	-0.773926	0.123291	-0.441162
1169.0	19.175017	5.427482	0.099795	1.435814	3.965204	0.095613	-0.762695	0.125732	-0.478516
1170.0	11.413574	3.829387	3.505687	-2.746889	5.446963	0.603715	-0.747803	0.143555	-0.518555
1171.0	5.177098	-0.767301	3.68717	-4.448338	5.214932	0.932744	-0.723877	0.163574	-0.549561
1172.0	1.901116	-3.847914	4.571279	-3.500471	3.754944	0.755456	-0.710693	0.174561	-0.570801
1173.0	4.858368	-5.136624	4.982103	0.007115	0.913367	0.685442	-0.713135	0.176758	-0.577881
1174.0	10.237048	-2.113486	10.302752	4.654944	-0.836857	0.773325	-0.7146	0.15918	-0.574951
1175.0	11.369067	3.726997	12.807756	3.743247	-1.222063	0.819073	-0.72583	0.15918	-0.565674
1176.0	9.740707	2.937021	6.659312	-0.150669	-1.631522	1.242188	-0.728516	0.170166	-0.554443
1177.0	8.095922	-0.962318	-0.713817	-2.153796	-1.341469	1.516985	-0.729492	0.189941	-0.548096
1178.0	9.286241	-2.783902	-3.725124	-0.606025	-0.897197	0.993623	-0.733887	0.189941	-0.536621
1179.0	12.624677	-1.223752	-1.510626	2.013564	-1.037609	0.370428	-0.745117	0.189941	-0.531982
1180.0	16.698321	1.264644	3.61781	1.938685	-1.653353	-0.018952	-0.749268	0.178711	-0.522217
1181.0	16.730523	0.491482	4.112915	-1.108855	-1.066309	-0.194457	-0.751709	0.185303	-0.513184
1182.0	12.918718	-3.281732	0.171712	-2.748282	0.219638	-0.208931	-0.749756	0.191895	-0.513428
1183.0	9.718311	-5.348175	-2.377266	-2.190638	0.668827	-0.380627	-0.75	0.196289	-0.520508
1184.0	8.269245	-4.498769	-3.603968	0.006665	0.364478	-0.666346	-0.751465	0.178711	-0.524414
1185.0	7.416516	-1.852454	-2.054484	2.300009	-0.023611	-0.909586	-0.753418	0.169922	-0.52417
1186.0	7.530228	1.572835	0.589075	2.828927	0.164362	-1.129208	-0.750244	0.147949	-0.525635
1187.0	7.679485	4.44254	2.226491	1.689071	0.752919	-1.02095	-0.749756	0.13916	-0.539307
1188.0	6.493491	4.566626	2.593535	0.026396	1.037363	-0.607225	-0.747314	0.132568	-0.54834
1189.0	5.229689	2.539988	1.840915	-1.247665	0.703465	-0.294959	-0.747559	0.134766	-0.55542
1190.0	4.682598	0.671064	0.765682	-1.308229	0.204318	-0.072543	-0.747559	0.136963	-0.553223
1191.0	4.484048	-0.066513	0.204544	-0.426705	-0.351438	-0.171921	-0.752197	0.141357	-0.546387
1192.0	4.871227	0.587391	0.586058	0.835703	-1.075337	-0.295934	-0.758545	0.130127	-0.543701
1193.0	5.105859	1.841671	1.517337	1.270418	-1.68267	-0.361746	-0.762939	0.125732	-0.529541
1194.0	5.497889	2.571487	1.937294	0.627642	-2.148719	-0.337911	-0.773926	0.119141	-0.512939
1195.0	5.854533	2.139432	1.524587	-0.556024	-2.501969	-0.235219	-0.781006	0.12793	-0.49707
1196.0	6.281045	0.699035	0.203082	-1.602852	-2.76004	-0.116491	-0.798828	0.123291	-0.466797
1197.0	6.891117	-0.831125	-1.630969	-1.944215	-2.796073	-0.061347	-0.803467	0.129883	-0.448486
1198.0	7.400246	-1.672883	-3.581991	-1.596809	-2.621034	-0.113999	-0.8125	0.131836	-0.42749
1199.0	7.779148	-1.371971	-5.409509	-0.858066	-2.246463	-0.166403	-0.819336	0.131836	-0.411377
1200.0	8.017858	-0.487111	-6.837387	-0.205126	-1.66457	-0.173272	-0.823975	0.134033	-0.397461
1201.0	8.156441	0.326913	-7.773042	0.041542	-0.819898	-0.138554	-0.821533	0.129639	-0.39502
1202.0	8.05964	0.822739	-7.867591	-0.122034	0.023158	-0.040337	-0.823486	0.125244	-0.394775
1203.0	7.804767	0.938907	-7.178503	-0.510472	0.652409	0.047117	-0.82373	0.131836	-0.408936
1204.0	7.84592	0.725651	-5.995777	-0.794362	1.216953	0.144983	-0.823975	0.131836	-0.418213
1205.0	8.235707	0.553531	-4.446148	-0.887855	1.79564	0.248658	-0.81958	0.138672	-0.432373
1206.0	8.649527	0.585271	-2.640379	-0.952304	2.529016	0.355993	-0.80835	0.138672	-0.462646
1207.0	8.743992	0.822711	-1.039848	-1.161005	3.322872	0.416642	-0.801758	0.143066	-0.481445
1208.0	8.580218	0.853383	0.020602	-1.433623	3.855017	0.424799	-0.788818	0.156494	-0.514404
1209.0	8.486132	0.578705	0.739528	-1.526126	3.661377	0.340794	-0.775391	0.158936	-0.540039
1210.0	8.855266	0.261671	1.174209	-1.408499	2.40541	0.191104	-0.769043	0.165527	-0.556641
1211.0	9.679791	-0.352272	1.275883	-0.9763	0.259658	-0.022441	-0.778076	0.165527	-0.547119
1212.0	10.403931	-1.339124	0.571533	-0.434744	-2.104783	-0.236977	-0.784668	0.160889	-0.521484
1213.0	11.119948	-2.189409	-0.9442	-0.133934	-4.086672	-0.36241	-0.804688	0.158691	-0.489014
1214.0	11.841448	-2.404298	-4.093995	-0.10958	-5.480225	-0.459399	-0.829346	0.15625	-0.447021
1215.0	13.038683	-1.798788	-8.771566	0.283989	-5.561464	-0.396853	-0.840088	0.14502	-0.402588
1216.0	15.070552	-0.680129	-12.676307	1.047719	-4.2383	-0.319377	-0.851318	0.144775	-0.367676
1217.0	18.469391	0.808304	-14.168193	1.348483	-2.698381	-0.42003	-0.860107	0.135986	-0.355713
1218.0	20.784176	1.051468	-13.181993	-0.040996	-0.939763	-0.378428	-0.857666	0.131592	-0.35791
1219.0	19.970525	0.298546	-12.514019	-1.665449	1.687106	-0.508127	-0.857422	0.129395	-0.378662
1220.0	16.262566	-1.552256	-9.081195	-1.081446	4.873642	-0.832399	-0.841309	0.114258	-0.429199
1221.0	11.943546	-1.221304	-3.842713	0.371974	7.159323	-1.041493	-0.825439	0.112305	-0.491943
1222.0	8.661238	1.339777	4.013617	0.554251	8.15307	-0.934252	-0.793213	0.094727	-0.558594
1223.0	3.490754	3.443289	15.888788	-2.407227	8.257044	-0.938791	-0.768799	0.101807	-0.623779
1224.0	-1.132032	-2.440251	21.321882	-3.878287	5.253631	-1.129831	-0.746094	0.101807	-0.640137
1225.0	2.102271	-6.304742	16.567528	1.031606	-0.398221	-0.968295	-0.759277	0.093018	-0.630371
1226.0	5.558033	1.0488	8.648937	4.55146	-4.173601	-0.889386	-0.780518	0.057373	-0.5896
1227.0	7.268386	3.453568	3.970795	3.075906	-5.918104	-1.160074	-0.809082	0.041748	-0.535645
1228.0	10.989826	4.317866	-0.493264	-0.743561	-5.194592	-0.884597	-0.822266	0.035156	-0.50293
1229.0	15.372728	1.268296	-4.558596	-3.338403	-2.161302	-0.169726	-0.827393	0.052734	-0.508301
1230.0	19.95827	-2.973153	-6.446465	-2.794672	0.236006	-0.070477	-0.827393	0.050537	-0.501221
1231.0	19.941378	-1.929715	-6.086265	0.724028	0.341267	-0.156042	-0.827393	0.050537	-0.508057
1232.0	14.244587	4.443688	-2.988737	4.369665	0.833258	-0.32877	-0.821777	0.023926	-0.51416
1233.0	10.629352	9.862676	0.488488	4.050369	1.438129	0.01943	-0.82373	0.012939	-0.525391
1234.0	7.694783	9.313875	2.868117	0.264777	1.198775	0.603495	-0.814941	0.017578	-0.537109
1235.0	6.677299	4.735328	2.076425	-3.242625	0.323266	1.022706	-0.813721	0.043945	-0.533447
1236.0	7.34227	-0.775885	0.80141	-3.77681	-0.056957	1.414782	-0.816895	0.068115	-0.536621
1237.0	7.438624	-4.718433	0.30418	-2.305691	0.239216	1.220634	-0.81958	0.081543	-0.534912
1238.0	6.678614	-5.246736	-0.374003	-0.393655	0.322937	0.571491	-0.819824	0.085938	-0.539551
1239.0	5.539071	-3.522018	0.195504	1.195687	0.023387	0.256372	-0.817627	0.08374	-0.539551
1240.0	5.114863	-1.744295	1.08969	1.092458	-0.377792	0.084002	-0.821777	0.076904	-0.541504
1241.0	5.650272	-0.864555	1.241522	-0.005181	-0.708179	0.125314	-0.828369	0.074707	-0.534668
1242.0	6.589519	-1.093047	0.905214	-1.042904	-0.920231	0.257562	-0.828613	0.079102	-0.516113
1243.0	7.241564	-1.644769	-0.082602	-1.196547	-1.004927	0.302562	-0.838135	0.092285	-0.509766
1244.0	7.327562	-1.848854	-1.155079	-0.55345	-1.225514	0.303721	-0.840088	0.087891	-0.493164
1245.0	7.13822	-1.238684	-2.047264	0.469174	-1.600672	0.283233	-0.849365	0.090088	-0.479492
1246.0	7.082375	-0.232536	-2.802723	1.339253	-1.895167	0.249057	-0.849121	0.085693	-0.476807
1247.0	7.242613	0.513648	-3.222003	1.667691	-1.887381	0.281639	-0.85791	0.081055	-0.453613
1248.0	7.44198	0.897057	-3.617398	1.40325	-1.535261	0.298021	-0.862305	0.078857	-0.439453
1249.0	7.541359	0.736571	-3.974456	0.850154	-0.981524	0.320537	-0.866943	0.081055	-0.430176
1250.0	7.466672	0.080766	-4.333101	0.42192	-0.427122	0.302273	-0.864502	0.078857	-0.432617
1251.0	7.427907	-0.750976	-4.393289	0.337563	-0.054963	0.247115	-0.871582	0.083252	-0.43042
1252.0	7.438567	-1.45619	-4.300581	0.444174	0.187023	0.147293	-0.871338	0.078857	-0.434814
1253.0	7.535104	-1.795156	-4.117487	0.557195	0.549662	-0.014208	-0.866943	0.078857	-0.439453
1254.0	7.449654	-1.48363	-3.8331	0.546158	1.00571	-0.204889	-0.868652	0.067871	-0.459961
1255.0	7.300465	-1.076028	-3.384791	0.464069	1.421348	-0.367906	-0.859619	0.065674	-0.466797
1256.0	7.321819	-1.030066	-2.572631	0.418293	1.80116	-0.478299	-0.859131	0.056885	-0.485107
1257.0	7.306326	-1.09893	-1.480157	0.639614	1.99334	-0.536592	-0.852051	0.045898	-0.491699
1258.0	7.380187	-0.880849	-0.307431	1.092833	1.792207	-0.565492	-0.847168	0.039307	-0.51001
1259.0	8.218835	-0.158424	0.249351	1.517291	0.989902	-0.504695	-0.844727	0.032715	-0.519043
1260.0	9.8016	0.875332	0.284413	1.740856	0.029397	-0.314704	-0.844238	0.019531	-0.509277
1261.0	11.986761	2.105333	-0.254539	1.511847	-0.781751	-0.022059	-0.853027	0.012939	-0.495117
1262.0	13.532296	2.907973	-1.544197	1.055283	-1.289178	0.325681	-0.859619	0.010498	-0.488037
1263.0	13.751394	2.922568	-3.269095	0.47279	-1.625804	0.607507	-0.862061	0.012695	-0.474121
1264.0	13.129614	2.108525	-5.457275	-0.17161	-1.979563	0.786413	-0.873535	0.021484	-0.458252
1265.0	12.246685	0.892906	-7.970399	-0.544448	-1.987572	0.776565	-0.874023	0.034668	-0.444824
1266.0	11.786796	-0.031744	-9.963916	-0.45281	-1.512862	0.577821	-0.876221	0.032471	-0.426025
1267.0	11.544538	-0.484618	-10.358364	-0.343164	-0.751042	0.338526	-0.880859	0.036865	-0.424072
1268.0	13.451596	-1.032152	-9.126375	-0.631244	-0.047853	0.368241	-0.878662	0.034668	-0.421631
1269.0	17.648321	-0.884134	-8.050144	-0.010291	0.770205	0.316786	-0.880859	0.036865	-0.43335
1270.0	20.629458	0.34176	-4.167871	2.4573	2.426274	-0.044274	-0.871338	0.023682	-0.462891
1271.0	16.660833	3.917513	3.230461	2.058248	4.118307	0.095677	-0.858154	0.030518	-0.500488
1272.0	9.1302	4.299269	6.588683	-1.351078	4.707573	0.519142	-0.840576	0.039551	-0.540283
1273.0	3.864753	0.661634	6.597225	-3.386824	3.489615	0.783485	-0.827637	0.057129	-0.561768
1274.0	5.070907	-2.336278	4.51397	-2.248011	1.217866	0.782533	-0.83252	0.063721	-0.569092
1275.0	11.349766	-2.759174	5.630359	2.314646	-0.271001	0.890116	-0.832275	0.059326	-0.571045
1276.0	13.262631	2.663752	11.32407	4.449597	-0.161347	0.796834	-0.833984	0.046143	-0.556641
1277.0	10.438783	5.727241	8.865985	1.609372	-0.721483	1.013919	-0.834473	0.054932	-0.547852
1278.0	7.70489	1.628274	2.532465	-2.186252	-1.042635	1.434471	-0.844482	0.079102	-0.541748
1279.0	7.447016	-2.453766	-2.737481	-2.99857	-0.512513	1.44698	-0.836182	0.099121	-0.537842
1280.0	10.238038	-3.809606	-3.055814	-0.530328	-0.075615	0.845681	-0.844971	0.094482	-0.544678
1281.0	13.118209	-1.773076	0.510918	2.350609	-0.329016	0.331627	-0.849365	0.090088	-0.532715
1282.0	15.890896	1.011283	5.018634	2.385033	-0.797086	0.023788	-0.844482	0.083496	-0.530273
1283.0	15.654395	0.562569	5.019982	-0.304273	-0.822744	0.006894	-0.858154	0.087891	-0.525635
1284.0	13.081368	-3.010346	1.141681	-2.128168	-0.596721	0.077501	-0.851807	0.094482	-0.514404
1285.0	10.878801	-5.476279	-2.192832	-1.669558	-0.46495	-0.096844	-0.86084	0.09668	-0.516846
1286.0	9.595609	-5.085895	-3.973376	0.410647	-0.564283	-0.489968	-0.862549	0.085693	-0.50708
1287.0	8.800763	-2.349712	-2.875553	2.52935	-0.62601	-0.824205	-0.859619	0.065674	-0.501709
1288.0	8.775131	1.449703	-0.727046	3.012633	-0.193849	-1.058862	-0.858887	0.050293	-0.503418
1289.0	8.688042	4.442398	0.878651	2.08315	0.662116	-0.915065	-0.858154	0.030518	-0.507324
1290.0	7.5365	4.932727	1.347139	0.524048	1.232182	-0.600954	-0.851318	0.026123	-0.516357
1291.0	6.002767	3.552992	0.876682	-0.70639	1.108268	-0.383848	-0.849121	0.02832	-0.525879
1292.0	5.127851	2.269545	0.224129	-0.900227	0.619118	-0.207199	-0.849121	0.026123	-0.528076
1293.0	4.992161	1.751862	0.280945	-0.331067	-0.002981	-0.175476	-0.855957	0.02832	-0.528076
1294.0	5.374608	2.277735	0.771563	0.333683	-0.609096	-0.216985	-0.848633	0.017334	-0.520752
1295.0	5.843657	2.925626	1.418422	0.466111	-1.118736	-0.199544	-0.855469	0.019531	-0.509277
1296.0	6.138139	3.029647	1.438953	-0.076295	-1.621917	-0.116618	-0.853027	0.015137	-0.490479
1297.0	6.355748	2.218155	0.698124	-0.868092	-2.108619	-0.002089	-0.868896	0.019287	-0.472168
1298.0	6.624047	1.036889	-0.437574	-1.416473	-2.46252	0.095126	-0.868896	0.019287	-0.446533
1299.0	7.180503	-0.060717	-1.80222	-1.555269	-2.555176	0.128046	-0.887695	0.034668	-0.428467
1300.0	7.677472	-0.868566	-3.157573	-1.307708	-2.312629	0.099952	-0.88501	0.027832	-0.409668
1301.0	7.787311	-0.950233	-4.013839	-0.928386	-1.860432	0.035245	-0.896729	0.036621	-0.400635
1302.0	7.612552	-0.461793	-4.328588	-0.595756	-1.398626	0.022037	-0.894043	0.027832	-0.379395
1303.0	7.393856	0.066992	-4.402592	-0.512207	-0.990261	0.08686	-0.90332	0.036621	-0.372803
1304.0	7.359564	0.250048	-4.817289	-0.723391	-0.499778	0.197785	-0.898682	0.034424	-0.377441
1305.0	7.451709	0.23133	-5.442965	-1.116625	0.08992	0.315723	-0.899414	0.049805	-0.37793
1306.0	7.51882	0.158015	-6.197098	-1.498228	0.68656	0.409939	-0.897217	0.049805	-0.38501
1307.0	7.412178	0.110977	-6.468114	-1.738983	1.332533	0.45718	-0.893066	0.058838	-0.396973
1308.0	7.215456	0.13478	-5.590461	-1.921636	2.030631	0.503118	-0.888672	0.063232	-0.42041
1309.0	7.383454	0.058525	-3.746562	-2.153202	2.66652	0.542044	-0.884766	0.078613	-0.441895
1310.0	7.919731	-0.07254	-1.609814	-2.3768	3.319147	0.545606	-0.873779	0.081055	-0.472168
1311.0	8.239646	-0.405733	0.2867	-2.410131	3.701645	0.532919	-0.86084	0.094482	-0.500488
1312.0	7.742451	-0.863303	1.032322	-2.339715	3.275554	0.415587	-0.849854	0.103271	-0.528564
1313.0	7.840158	-1.583122	1.250976	-2.045795	1.644853	0.271873	-0.841309	0.112305	-0.53125
1314.0	8.184074	-2.795476	0.727319	-1.554432	-0.760269	0.070825	-0.8479	0.112061	-0.512695
1315.0	8.957363	-3.82929	-0.614099	-0.600358	-2.84179	-0.144972	-0.861572	0.114258	-0.484863
1316.0	10.001795	-3.958226	-2.073936	0.470262	-4.288172	-0.383117	-0.874756	0.109619	-0.452148
1317.0	11.322613	-3.334986	-4.414482	1.085174	-5.16629	-0.571019	-0.887939	0.102783	-0.40332
1318.0	13.214849	-2.265914	-8.021627	1.159885	-4.953804	-0.589162	-0.896484	0.0896	-0.356201
