Acquisition frequency: 100 Hz
PacketCounter	Acc_X	Acc_Y	Acc_Z	Gyr_X	Gyr_Y	Gyr_Z	Mag_X	Mag_Y	Mag_Z
0.0	7.795897	1.579509	6.135761	-0.006692	0.002744	-0.022193	-0.794922	0.091309	-0.316895
1.0	7.817707	1.574856	6.128874	-0.012514	0.008792	-0.021567	-0.792725	0.093506	-0.314697
2.0	7.794087	1.581508	6.137545	-0.012629	0.016461	-0.020882	-0.790527	0.091309	-0.314697
3.0	7.802628	1.629518	6.131805	-0.010974	0.013394	-0.015471	-0.790527	0.093506	-0.310059
4.0	7.809408	1.631563	6.156361	-0.016222	0.021594	-0.012858	-0.790527	0.091309	-0.319336
5.0	7.794881	1.606005	6.138964	-0.01526	0.024041	-0.008747	-0.792969	0.095703	-0.310303
6.0	7.756249	1.540481	6.159021	-0.018152	0.020184	-0.010252	-0.786621	0.100098	-0.3125
7.0	7.787209	1.581943	6.146157	-0.015912	0.015797	-0.013682	-0.786133	0.093506	-0.317139
8.0	7.798804	1.606992	6.167397	-0.032086	0.020243	-0.014555	-0.78833	0.093506	-0.317139
9.0	7.829087	1.568695	6.135715	-0.049251	0.032587	-0.013503	-0.790527	0.093506	-0.3125
10.0	7.77197	1.609373	6.181161	-0.044724	0.040251	-0.011375	-0.792969	0.095703	-0.321533
11.0	7.73079	1.496584	6.232527	-0.051074	0.030396	-0.016383	-0.78833	0.093506	-0.310059
12.0	7.745212	1.534058	6.174494	-0.018125	0.016758	-0.021075	-0.790527	0.093506	-0.316895
13.0	7.752176	1.536856	6.198557	-0.007052	0.005947	-0.026713	-0.792969	0.095703	-0.319336
14.0	7.775612	1.5789	6.161603	0.00824	0.005159	-0.026993	-0.786133	0.091309	-0.316895
15.0	7.757039	1.53243	6.145988	0.004846	0.008687	-0.029934	-0.78833	0.089111	-0.316895
16.0	7.763948	1.537264	6.169615	0.012974	0.011229	-0.035825	-0.790771	0.0979	-0.321777
17.0	7.790071	1.558846	6.159375	0.012975	0.011235	-0.035824	-0.786133	0.093506	-0.323975
18.0	7.721169	1.578918	6.18248	0.003092	0.012576	-0.02986	-0.78833	0.091309	-0.321533
19.0	7.747341	1.520973	6.152576	0.002022	0.014375	-0.030885	-0.790527	0.093506	-0.316895
20.0	7.778029	1.566229	6.139157	0.025062	0.015867	-0.039174	-0.792725	0.091309	-0.314697
21.0	7.734712	1.559392	6.181306	0.008229	0.012065	-0.031779	-0.786133	0.089111	-0.319336
22.0	7.766196	1.526056	6.147162	0.011795	-0.002576	-0.040359	-0.790527	0.093506	-0.3125
23.0	7.760573	1.585146	6.170295	0.028028	0.002547	-0.038912	-0.78833	0.093506	-0.319336
24.0	7.792042	1.630816	6.155665	0.004915	-0.001613	-0.035973	-0.790527	0.091309	-0.319336
25.0	7.774284	1.58464	6.139176	0.00456	-0.008777	-0.033307	-0.790771	0.095703	-0.321533
26.0	7.846131	1.673093	6.132895	0.022487	0.002806	-0.025895	-0.786133	0.093506	-0.319336
27.0	7.805075	1.710431	6.144407	0.00251	0.007014	-0.016233	-0.790527	0.091309	-0.321533
28.0	7.809578	1.656342	6.121546	-0.013265	0.004827	-0.010207	-0.790527	0.091309	-0.319336
29.0	7.762159	1.621949	6.16738	-0.00927	0.016438	-0.007114	-0.79248	0.089111	-0.319092
30.0	7.780541	1.638131	6.134684	-0.006928	0.011272	-0.002801	-0.78833	0.093506	-0.319336
31.0	7.76218	1.588657	6.119879	-0.018737	0.014594	-0.009859	-0.790283	0.089111	-0.319092
32.0	7.775502	1.546409	6.197399	-0.017876	0.017822	-0.013487	-0.790527	0.091309	-0.321533
33.0	7.751889	1.552498	6.205976	-0.009281	0.006906	-0.020894	-0.792725	0.093506	-0.319336
34.0	7.757498	1.622817	6.173014	-0.011085	0.001245	-0.021381	-0.790771	0.0979	-0.321777
35.0	7.770263	1.570631	6.172823	-0.01804	-0.00046	-0.022346	-0.790527	0.091309	-0.316895
36.0	7.744145	1.599206	6.153813	-0.007949	-0.003343	-0.026044	-0.790771	0.095703	-0.317139
37.0	7.755358	1.580393	6.203003	-0.015269	-0.008778	-0.02674	-0.792969	0.0979	-0.317139
38.0	7.793976	1.61474	6.134809	-0.002119	-0.005926	-0.029059	-0.790527	0.091309	-0.316895
39.0	7.807677	1.687595	6.12444	-0.007716	0.004623	-0.023223	-0.790527	0.093506	-0.321533
40.0	7.762051	1.620772	6.120339	-0.030244	0.015558	-0.020133	-0.78833	0.089111	-0.321533
41.0	7.78598	1.672068	6.161127	-0.004741	0.020684	-0.015796	-0.792725	0.091309	-0.319336
42.0	7.800289	1.710132	6.10304	-0.030756	0.029032	-0.005383	-0.792969	0.095703	-0.321533
43.0	7.784301	1.55836	6.097095	-0.05094	0.051236	-0.002206	-0.790527	0.091309	-0.321533
44.0	7.727721	1.530438	6.19991	-0.033149	0.054095	-0.003073	-0.794922	0.091309	-0.319336
45.0	7.700887	1.48846	6.241075	-0.043428	0.032612	-0.011217	-0.796875	0.089111	-0.319092
46.0	7.731414	1.529222	6.228946	-0.032383	0.006207	-0.020378	-0.786377	0.0979	-0.317139
47.0	7.759712	1.592553	6.189003	-0.036674	-0.003038	-0.020271	-0.790771	0.095703	-0.321533
48.0	7.768929	1.639071	6.182628	-0.040557	-0.002457	-0.017465	-0.792969	0.095703	-0.317139
49.0	7.806753	1.749222	6.135908	-0.031914	0.002241	-0.008121	-0.78833	0.091309	-0.3125
50.0	7.843332	1.73359	6.099855	-0.062289	0.021207	0.009025	-0.788574	0.0979	-0.314941
51.0	7.789091	1.624469	6.180732	-0.060008	0.035897	0.019974	-0.78833	0.093506	-0.314697
52.0	7.771254	1.615958	6.138539	-0.055003	0.039631	0.021162	-0.794922	0.091309	-0.319336
53.0	7.794273	1.660909	6.18226	-0.065536	0.045668	0.03357	-0.790527	0.093506	-0.319336
54.0	7.784543	1.573903	6.143695	-0.075636	0.052047	0.034881	-0.792969	0.095703	-0.321533
55.0	7.757757	1.526684	6.185758	-0.061594	0.05124	0.033747	-0.788574	0.0979	-0.321777
56.0	7.7818	1.616801	6.200718	-0.058901	0.05326	0.03541	-0.786377	0.095703	-0.323975
57.0	7.752249	1.513153	6.19598	-0.083077	0.054412	0.034871	-0.790527	0.093506	-0.319336
58.0	7.747661	1.459892	6.230991	-0.072426	0.057146	0.030811	-0.792969	0.0979	-0.323975
59.0	7.739441	1.50804	6.260091	-0.059313	0.050435	0.027937	-0.788574	0.095703	-0.319336
60.0	7.733912	1.523834	6.238402	-0.073011	0.042043	0.030576	-0.792725	0.093506	-0.321533
61.0	7.730332	1.471206	6.271769	-0.070416	0.031867	0.026269	-0.790771	0.095703	-0.328369
62.0	7.717875	1.485362	6.225967	-0.069666	0.032437	0.030525	-0.788574	0.0979	-0.328613
63.0	7.714766	1.433222	6.258471	-0.065876	0.023151	0.019371	-0.788574	0.0979	-0.323975
64.0	7.71064	1.450108	6.234859	-0.059668	0.020826	0.018489	-0.78418	0.0979	-0.319336
65.0	7.698312	1.35175	6.2727	-0.055085	0.01817	0.014581	-0.791016	0.102295	-0.317139
66.0	7.689729	1.346526	6.25139	-0.047224	0.010158	0.000501	-0.791016	0.102295	-0.328613
67.0	7.689221	1.344893	6.252366	-0.023019	0.002957	-0.015149	-0.788818	0.102295	-0.321777
68.0	7.701643	1.370351	6.272509	-0.014229	-0.006122	-0.022728	-0.786621	0.102295	-0.321777
69.0	7.735782	1.459926	6.22924	-0.002937	-0.011616	-0.030883	-0.790771	0.0979	-0.323975
70.0	7.798735	1.500288	6.230572	0.003267	-0.013956	-0.031768	-0.791016	0.102295	-0.321777
71.0	7.73565	1.543036	6.248716	0.007995	-0.001817	-0.024307	-0.788818	0.100098	-0.323975
72.0	7.763486	1.485125	6.216841	0.003231	-0.00449	-0.01791	-0.792969	0.100098	-0.319336
73.0	7.731346	1.444926	6.229873	0.005868	-0.005127	-0.021605	-0.790771	0.100098	-0.321777
74.0	7.748661	1.49614	6.246241	0.013508	-0.005539	-0.021714	-0.786377	0.0979	-0.319336
75.0	7.758829	1.467829	6.218278	0.007814	-0.00715	-0.02182	-0.786621	0.100098	-0.323975
76.0	7.75416	1.446347	6.220748	0.010128	-0.005434	-0.022275	-0.784424	0.102295	-0.31958
77.0	7.736326	1.478375	6.224212	0.020222	-0.008348	-0.025959	-0.788818	0.100098	-0.317139
78.0	7.736703	1.48145	6.223013	0.017731	-0.0154	-0.023015	-0.791016	0.104492	-0.323975
79.0	7.795	1.498646	6.227078	0.013095	-0.011883	-0.02684	-0.786377	0.0979	-0.323975
80.0	7.724817	1.462033	6.200858	0.012394	-0.006328	-0.028097	-0.788574	0.0979	-0.321777
81.0	7.72261	1.497416	6.250333	0.020549	-0.01068	-0.029198	-0.788574	0.0979	-0.321777
82.0	7.733246	1.470052	6.221632	0.010374	-0.019945	-0.031506	-0.786377	0.0979	-0.323975
83.0	7.744026	1.442544	6.192799	0.007865	-0.016584	-0.035666	-0.788574	0.0979	-0.321777
84.0	7.761969	1.495078	6.207858	0.01691	-0.024608	-0.03563	-0.784424	0.100098	-0.3125
85.0	7.752811	1.529797	6.232925	0.0208	-0.025173	-0.03843	-0.786377	0.095703	-0.314697
86.0	7.765474	1.549312	6.174002	0.015988	-0.026998	-0.039762	-0.788574	0.0979	-0.323975
87.0	7.769507	1.530505	6.198286	0.008803	-0.017627	-0.02916	-0.795166	0.095703	-0.321533
88.0	7.797224	1.551735	6.186559	0.013279	-0.009971	-0.026961	-0.79541	0.102051	-0.314941
89.0	7.770078	1.535756	6.196271	0.002303	-0.00687	-0.022038	-0.786377	0.0979	-0.3125
90.0	7.784926	1.530336	6.165431	-0.00191	-0.003954	-0.016	-0.792969	0.0979	-0.321777
91.0	7.770073	1.538468	6.195604	0.002902	-0.002116	-0.014669	-0.792725	0.093506	-0.316895
92.0	7.768607	1.493827	6.224702	-0.002655	-0.004488	-0.020253	-0.792969	0.095703	-0.317139
93.0	7.757521	1.516036	6.175077	0.001978	-0.004518	-0.018801	-0.788818	0.100098	-0.319336
94.0	7.752884	1.493992	6.177826	0.001233	-0.005052	-0.023055	-0.786377	0.0979	-0.319336
95.0	7.757414	1.51972	6.174306	0.006045	-0.003211	-0.021724	-0.788574	0.0979	-0.323975
96.0	7.775313	1.492634	6.169788	0.00104	-0.003447	-0.025303	-0.790771	0.100098	-0.317139
97.0	7.760402	1.501625	6.199831	0.002992	-0.005462	-0.025519	-0.790771	0.0979	-0.3125
98.0	7.757145	1.526159	6.173055	0.00332	-0.007802	-0.028755	-0.793213	0.102295	-0.317139
99.0	7.792463	1.548384	6.184774	0.00103	-0.012991	-0.025924	-0.790771	0.095703	-0.317139
100.0	7.784789	1.548898	6.160967	0.003365	-0.005186	-0.023391	-0.792725	0.093506	-0.321533
101.0	7.792593	1.552544	6.183568	0.002993	-0.005451	-0.025518	-0.790771	0.100098	-0.317139
102.0	7.760811	1.512104	6.196771	-0.00283	-0.006344	-0.020129	-0.790771	0.095703	-0.319336
103.0	7.757613	1.535726	6.170093	-0.000326	-0.006223	-0.01834	-0.788574	0.0979	-0.3125
104.0	7.76096	1.515146	6.195842	0.00499	-0.004851	-0.02037	-0.792969	0.0979	-0.317139
105.0	7.803078	1.52876	6.154273	0.006395	-0.008999	-0.02259	-0.790771	0.0979	-0.314941
106.0	7.776078	1.512447	6.163995	0.006395	-0.008997	-0.02259	-0.78833	0.093506	-0.319336
107.0	7.784146	1.516231	6.186252	0.006023	-0.009261	-0.024717	-0.792969	0.0979	-0.317139
108.0	7.784403	1.51875	6.18531	0.010987	-0.011622	-0.026503	-0.792969	0.095703	-0.3125
109.0	7.781397	1.543641	6.15801	0.013864	-0.011231	-0.022588	-0.790771	0.095703	-0.310303
110.0	7.808801	1.564449	6.146612	0.005694	-0.006914	-0.021479	-0.786377	0.0979	-0.326172
111.0	7.789353	1.549139	6.179972	-0.001381	0.00167	-0.016363	-0.792969	0.100098	-0.317139
112.0	7.761881	1.531821	6.190586	-0.000305	-0.000137	-0.015347	-0.792969	0.0979	-0.3125
113.0	7.788827	1.55134	6.180083	-0.004565	0.000151	-0.014669	-0.788574	0.095703	-0.314697
114.0	7.783896	1.528359	6.183582	-0.008675	0.00578	-0.016487	-0.795166	0.0979	-0.314697
115.0	7.783362	1.52942	6.183991	0.002176	0.003461	-0.01593	-0.790771	0.0979	-0.317139
116.0	7.77622	1.574574	6.131882	-0.013791	0.002799	-0.012206	-0.790771	0.0979	-0.319336
117.0	7.797164	1.523375	6.154629	-0.015224	0.010419	-0.012358	-0.792969	0.095703	-0.314697
118.0	7.750996	1.534237	6.170326	-0.006701	0.009849	-0.013711	-0.788574	0.0979	-0.317139
119.0	7.777337	1.55295	6.160796	-0.018233	0.010769	-0.010787	-0.790771	0.0979	-0.319336
120.0	7.794527	1.523427	6.157955	-0.020348	0.01699	-0.007456	-0.79541	0.102051	-0.314941
121.0	7.751439	1.511175	6.200408	-0.01626	0.014837	-0.00801	-0.792969	0.095703	-0.321533
122.0	7.745894	1.487058	6.204947	-0.019134	0.014454	-0.011926	-0.792969	0.100098	-0.319336
123.0	7.75511	1.456593	6.179043	-0.01206	0.01543	-0.016419	-0.788574	0.0979	-0.314941
124.0	7.736046	1.486617	6.184115	-0.006945	0.002792	-0.024316	-0.788574	0.0979	-0.317139
125.0	7.75818	1.482594	6.177156	-0.015838	0.003102	-0.025092	-0.792969	0.0979	-0.319336
126.0	7.762189	1.508105	6.174193	-0.002383	-0.002419	-0.033592	-0.788574	0.095703	-0.314697
127.0	7.751496	1.540892	6.201338	-0.008947	-0.003859	-0.032458	-0.786377	0.0979	-0.314941
128.0	7.766251	1.535974	6.170564	-0.012846	-0.009383	-0.032652	-0.786377	0.095703	-0.319336
129.0	7.775168	1.585578	6.163785	-0.003779	-0.007812	-0.031996	-0.788574	0.0979	-0.317139
130.0	7.778549	1.564731	6.189645	-0.023463	-0.006076	-0.025597	-0.792969	0.0979	-0.321777
131.0	7.780085	1.487498	6.168346	-0.015311	-0.006896	-0.029075	-0.795166	0.0979	-0.3125
132.0	7.770794	1.565341	6.165916	-0.010279	-0.010129	-0.02313	-0.790771	0.095703	-0.317139
133.0	7.793762	1.561137	6.157948	-0.024717	-0.012197	-0.029487	-0.795166	0.095703	-0.310303
134.0	7.812201	1.532919	6.153286	-0.016327	-0.005962	-0.022356	-0.795166	0.095703	-0.310303
135.0	7.802591	1.610304	6.151332	-0.009561	-5.1e-05	-0.018245	-0.792969	0.095703	-0.321533
136.0	7.785587	1.561195	6.134887	-0.028194	0.003339	-0.013193	-0.795166	0.0979	-0.314697
137.0	7.792995	1.56214	6.158665	-0.019638	0.005371	-0.00918	-0.790771	0.095703	-0.3125
138.0	7.81077	1.532312	6.155254	-0.026368	0.008121	-0.004926	-0.790771	0.100098	-0.3125
139.0	7.764686	1.541533	6.171148	-0.021766	0.011583	-0.005841	-0.790527	0.093506	-0.314697
140.0	7.79013	1.513571	6.190931	-0.017706	0.006849	-0.011765	-0.795166	0.100098	-0.317139
141.0	7.76956	1.486416	6.148551	-0.022678	0.003133	-0.012977	-0.792969	0.100098	-0.314941
142.0	7.807561	1.4841	6.187854	-0.018417	0.002856	-0.013653	-0.791016	0.102295	-0.314941
143.0	7.785471	1.535271	6.166464	-0.017336	0.001046	-0.01264	-0.78418	0.095703	-0.314697
144.0	7.77304	1.509831	6.146736	-0.020006	-0.000939	-0.014311	-0.795166	0.095703	-0.317139
145.0	7.780672	1.511396	6.170058	-0.014325	0.000712	-0.014211	-0.792969	0.0979	-0.317139
146.0	7.762019	1.540793	6.174686	-0.010264	0.002047	-0.017132	-0.797119	0.095703	-0.323975
147.0	7.779962	1.512477	6.170687	-0.012395	0.002188	-0.016794	-0.792969	0.100098	-0.3125
148.0	7.806597	1.531762	6.160683	-0.009724	0.004177	-0.015122	-0.797119	0.095703	-0.317139
149.0	7.806089	1.532407	6.161165	-0.012595	0.003805	-0.019038	-0.786377	0.0979	-0.3125
150.0	7.774149	1.490558	6.175088	-0.010094	0.003924	-0.017249	-0.790771	0.100098	-0.3125
151.0	7.808539	1.511827	6.188143	-0.005322	0.003194	-0.021285	-0.786377	0.0979	-0.3125
152.0	7.774051	1.539133	6.146579	-0.00336	0.001187	-0.021505	-0.790771	0.100098	-0.319336
153.0	7.789204	1.543404	6.193058	-0.005664	0.00552	-0.018042	-0.792969	0.0979	-0.3125
154.0	7.802615	1.491794	6.19224	-0.004783	0.005325	-0.019275	-0.792969	0.0979	-0.319336
155.0	7.772358	1.542952	6.147762	0.001441	0.003041	-0.020171	-0.790771	0.095703	-0.3125
156.0	7.793663	1.493066	6.16991	-0.010663	0.00529	-0.021621	-0.795166	0.0979	-0.314697
157.0	7.762532	1.498256	6.154552	0.003714	0.002203	-0.025995	-0.788574	0.095703	-0.317139
158.0	7.735872	1.491477	6.241449	-0.000395	-0.004286	-0.033813	-0.788574	0.0979	-0.317139
159.0	7.765427	1.481191	6.180158	0.005998	-0.004693	-0.034826	-0.792969	0.0979	-0.314697
160.0	7.786116	1.557753	6.193349	0.018283	-0.011119	-0.036501	-0.790771	0.0979	-0.314941
161.0	7.793453	1.553214	6.138582	0.00463	-0.016162	-0.036247	-0.792725	0.091309	-0.314697
162.0	7.816445	1.551342	6.130061	0.00888	-0.010368	-0.033916	-0.792969	0.0979	-0.310303
163.0	7.828611	1.579697	6.14927	0.005154	-0.007969	-0.031231	-0.790771	0.0979	-0.310303
164.0	7.794481	1.608239	6.106762	0.006405	-0.007906	-0.030336	-0.793213	0.104492	-0.31958
165.0	7.820644	1.582966	6.125128	-0.001907	-0.000352	-0.018364	-0.790771	0.0979	-0.3125
166.0	7.801736	1.612931	6.129744	-0.005305	0.005782	-0.015914	-0.795166	0.095703	-0.310303
167.0	7.79559	1.497604	6.191552	-0.00635	0.004106	-0.014564	-0.790527	0.093506	-0.3125
168.0	7.788015	1.543035	6.139653	-0.003134	0.002163	-0.01389	-0.792969	0.0979	-0.3125
169.0	7.814585	1.562718	6.129544	-0.0051	0.004168	-0.013669	-0.78833	0.093506	-0.314697
170.0	7.802803	1.547609	6.186533	-0.007231	0.004302	-0.013331	-0.786621	0.100098	-0.321777
171.0	7.798797	1.570658	6.160768	-0.004383	0.002106	-0.014784	-0.792969	0.100098	-0.321777
172.0	7.79046	1.569739	6.138178	-0.003665	0.00867	-0.007524	-0.78833	0.091309	-0.316895
173.0	7.812472	1.564971	6.131662	-0.010262	0.010688	-0.008754	-0.788574	0.095703	-0.3125
174.0	7.780408	1.522373	6.146151	-0.010466	0.012308	-0.010998	-0.78833	0.091309	-0.314697
175.0	7.801581	1.47137	6.169027	-0.011347	0.012502	-0.009766	-0.792725	0.093506	-0.319336
176.0	7.782147	1.500398	6.174502	-0.010834	0.012059	-0.013125	-0.797119	0.093506	-0.314697
177.0	7.77283	1.453377	6.181457	-0.013001	0.007059	-0.023525	-0.794922	0.093506	-0.314697
178.0	7.777081	1.525038	6.1497	0.002307	0.000327	-0.026769	-0.786377	0.095703	-0.317139
179.0	7.776743	1.527146	6.149604	-0.006398	-0.003578	-0.030671	-0.790527	0.093506	-0.3125
180.0	7.79492	1.500593	6.145144	0.000323	-0.000228	-0.031917	-0.790771	0.095703	-0.314697
181.0	7.787973	1.557594	6.169402	0.006186	-0.002741	-0.03494	-0.790771	0.095703	-0.310303
182.0	7.779785	1.558687	6.146129	-0.004101	-0.00183	-0.031125	-0.790771	0.095703	-0.317139
183.0	7.80591	1.533913	6.164547	0.00285	-0.006153	-0.033136	-0.795166	0.095703	-0.307861
184.0	7.809847	1.560799	6.161079	0.010817	-0.002737	-0.033488	-0.788574	0.0979	-0.3125
185.0	7.798087	1.584285	6.11159	-0.001763	-0.003574	-0.029218	-0.790527	0.093506	-0.3125
186.0	7.805563	1.587812	6.134588	-0.001587	0.000862	-0.023966	-0.792725	0.093506	-0.321533
187.0	7.769788	1.522652	6.15132	-0.008907	0.004935	-0.024081	-0.786377	0.0979	-0.314941
188.0	7.792045	1.519447	6.144158	-0.001232	-0.001444	-0.027208	-0.790771	0.0979	-0.3125
189.0	7.799431	1.522847	6.167321	-0.002307	0.00293	-0.02285	-0.788574	0.0979	-0.317139
190.0	7.799579	1.570776	6.138179	-0.003683	-0.005053	-0.026636	-0.790771	0.095703	-0.310303
191.0	7.791551	1.571092	6.114894	-0.000864	-0.001186	-0.025081	-0.786377	0.095703	-0.310303
192.0	7.806863	1.575968	6.160999	-0.002628	-0.000807	-0.022616	-0.790527	0.091309	-0.3125
193.0	7.79094	1.574373	6.114829	-0.00226	-0.000556	-0.020489	-0.792725	0.093506	-0.316895
194.0	7.806227	1.578898	6.161055	-0.001734	0.001565	-0.018479	-0.792969	0.0979	-0.314697
195.0	7.793808	1.55466	6.14131	-0.003179	0.005686	-0.016248	-0.786377	0.095703	-0.314697
196.0	7.80159	1.603222	6.135634	-0.010051	0.000453	-0.014885	-0.788574	0.0979	-0.3125
197.0	7.79695	1.579949	6.139166	-0.004259	0.010056	-0.01189	-0.792969	0.100098	-0.314941
198.0	7.792165	1.55641	6.142951	-0.010605	0.006942	-0.008517	-0.788574	0.095703	-0.314697
199.0	7.814316	1.551675	6.136335	-0.008314	0.008688	-0.008971	-0.792969	0.095703	-0.3125
200.0	7.787186	1.579027	6.11841	-0.004567	0.00887	-0.006287	-0.792969	0.095703	-0.3125
201.0	7.821209	1.599768	6.131909	-0.006699	0.008998	-0.00595	-0.792969	0.095703	-0.310303
202.0	7.804459	1.550367	6.115811	-0.009395	0.013057	-0.004613	-0.797119	0.091309	-0.319336
203.0	7.788615	1.556695	6.147379	-0.005132	0.012804	-0.005287	-0.790771	0.0979	-0.308105
204.0	7.833404	1.546963	6.133634	-0.009712	0.009314	-0.004381	-0.795166	0.095703	-0.307861
205.0	7.782773	1.532455	6.152673	-0.010891	0.020677	-0.00474	-0.792969	0.095703	-0.3125
206.0	7.781702	1.532793	6.153943	8e-06	0.009813	-0.012561	-0.792969	0.0979	-0.317139
207.0	7.77731	1.556146	6.128496	-0.003171	0.005701	-0.016247	-0.790771	0.095703	-0.3125
208.0	7.768474	1.509453	6.135039	-0.004261	0.007514	-0.017258	-0.790527	0.091309	-0.314697
209.0	7.802445	1.53146	6.148299	0.001611	0.005017	-0.020279	-0.78833	0.091309	-0.319336
210.0	7.794088	1.531639	6.125512	-0.001409	0.002779	-0.02408	-0.792969	0.095703	-0.317139
211.0	7.770875	1.538282	6.13295	-0.002089	-0.001212	-0.025976	-0.792725	0.093506	-0.3125
212.0	7.801038	1.537096	6.148678	-0.001413	0.000232	-0.02945	-0.790527	0.093506	-0.319336
213.0	7.808299	1.540886	6.171865	0.001242	0.002229	-0.027775	-0.792969	0.0979	-0.314697
214.0	7.804173	1.565499	6.145724	0.000406	-0.003633	-0.029554	-0.790527	0.093506	-0.3125
215.0	7.777159	1.548778	6.155683	0.001133	-0.005688	-0.03067	-0.786133	0.091309	-0.314697
216.0	7.799889	1.546386	6.147807	0.001342	-0.007312	-0.028427	-0.788574	0.0979	-0.3125
217.0	7.811875	1.620393	6.138388	0.004151	-0.003441	-0.026868	-0.790771	0.095703	-0.3125
218.0	7.83043	1.593793	6.133749	-0.000631	-0.002762	-0.022837	-0.795166	0.0979	-0.317139
219.0	7.822353	1.593758	6.110642	-0.002969	0.001538	-0.019373	-0.788574	0.095703	-0.307861
220.0	7.802919	1.577515	6.144244	-0.004217	0.001479	-0.020268	-0.794922	0.093506	-0.316895
221.0	7.809596	1.570518	6.091197	-0.009053	0.008202	-0.013225	-0.792969	0.095703	-0.317139
222.0	7.805711	1.603014	6.142392	-0.002813	0.005963	-0.014119	-0.797363	0.097656	-0.310303
223.0	7.789384	1.55416	6.125823	-0.016123	0.004581	-0.014112	-0.788574	0.0979	-0.3125
224.0	7.815394	1.527537	6.14514	-0.008688	0.005905	-0.016468	-0.795166	0.0979	-0.310303
225.0	7.79219	1.579467	6.124003	-0.006036	0.005356	-0.020162	-0.788574	0.095703	-0.310303
226.0	7.795395	1.557953	6.150585	-0.011858	0.004339	-0.014784	-0.792969	0.0979	-0.3125
227.0	7.772098	1.563402	6.158379	-0.004579	0.003792	-0.017025	-0.786133	0.093506	-0.305664
228.0	7.794474	1.605903	6.122542	-0.007649	0.007601	-0.017814	-0.792725	0.093506	-0.316895
229.0	7.808616	1.554292	6.121785	-0.010299	0.005607	-0.01949	-0.792969	0.095703	-0.307861
230.0	7.785236	1.55996	6.129621	-0.005825	0.003735	-0.01792	-0.790527	0.093506	-0.3125
231.0	7.811569	1.580127	6.119631	-0.005616	0.002106	-0.015678	-0.794922	0.093506	-0.314697
232.0	7.833871	1.576327	6.112698	-0.007803	0.005733	-0.017698	-0.792969	0.095703	-0.321533
233.0	7.787582	1.586397	6.128072	-0.010302	0.008153	-0.014119	-0.794922	0.091309	-0.310059
234.0	7.813573	1.559973	6.147406	-0.00884	0.004044	-0.016352	-0.799316	0.093506	-0.310059
235.0	7.79429	1.589298	6.152155	-0.005251	0.002354	-0.013551	-0.790527	0.091309	-0.316895
236.0	7.786036	1.588467	6.1295	-0.009934	0.005859	-0.017362	-0.792969	0.095703	-0.310303
237.0	7.804286	1.560718	6.125671	-0.002812	0.005983	-0.014115	-0.790771	0.095703	-0.3125
238.0	7.773628	1.574185	6.186977	-0.003328	0.003868	-0.016128	-0.792725	0.093506	-0.310059
239.0	7.799355	1.538751	6.129382	-0.010602	0.001872	-0.019261	-0.790771	0.095703	-0.3125
240.0	7.772139	1.520671	6.139963	-0.001921	0.003268	-0.020717	-0.792969	0.0979	-0.310303
241.0	7.802411	1.56555	6.126826	0.001676	-0.000959	-0.023287	-0.797119	0.091309	-0.3125
242.0	7.802081	1.567221	6.126819	-0.009709	-0.000842	-0.025863	-0.795166	0.095703	-0.314697
243.0	7.805504	1.546701	6.152912	0.001104	0.000439	-0.027655	-0.799316	0.093506	-0.3125
244.0	7.786074	1.577561	6.15739	0.000894	0.002075	-0.029896	-0.795166	0.095703	-0.3125
245.0	7.823598	1.568839	6.119538	-0.006108	-0.005063	-0.028433	-0.797119	0.095703	-0.307861
246.0	7.80043	1.575517	6.126794	0.00375	0.002445	-0.025978	-0.790771	0.095703	-0.307861
247.0	7.785059	1.58414	6.156984	0.001909	-0.007645	-0.031788	-0.790527	0.093506	-0.314697
248.0	7.826738	1.645917	6.086813	0.003298	-0.003172	-0.025635	-0.788574	0.0979	-0.310303
249.0	7.841336	1.548904	6.114475	-0.009778	0.005209	-0.022846	-0.790527	0.093506	-0.310059
250.0	7.798948	1.5836	6.126596	0.000733	0.002752	-0.02441	-0.78833	0.091309	-0.314697
251.0	7.836692	1.630078	6.136769	-0.009043	0.003159	-0.023963	-0.790283	0.089111	-0.316895
252.0	7.812924	1.534035	6.125826	-0.00868	0.003401	-0.021836	-0.794922	0.093506	-0.3125
253.0	7.804845	1.589423	6.150949	-0.001473	0.008917	-0.021057	-0.78833	0.093506	-0.3125
254.0	7.784817	1.563652	6.108219	-0.01631	0.001161	-0.027097	-0.788574	0.095703	-0.314697
255.0	7.799829	1.568264	6.15465	-0.002793	0.000947	-0.024856	-0.792969	0.095703	-0.317139
256.0	7.829833	1.613262	6.14166	-0.004776	0.002939	-0.024634	-0.78833	0.093506	-0.310059
257.0	7.810053	1.587689	6.098582	-0.008452	-0.000754	-0.024967	-0.794922	0.091309	-0.3125
258.0	7.809602	1.58915	6.098779	-0.004414	0.003182	-0.022506	-0.797119	0.093506	-0.310059
259.0	7.839638	1.587379	6.114925	-0.009203	0.003828	-0.018477	-0.792725	0.093506	-0.310059
260.0	7.79337	1.597429	6.130102	-0.008169	0.005528	-0.019822	-0.795166	0.0979	-0.3125
261.0	7.819495	1.617784	6.120268	-0.008104	0.002018	-0.017468	-0.792725	0.093506	-0.307861
262.0	7.792271	1.599045	6.131078	-0.011564	0.008109	-0.01501	-0.797119	0.091309	-0.3125
263.0	7.791598	1.599579	6.131794	-0.008332	0.006183	-0.014336	-0.788574	0.095703	-0.310303
264.0	7.829298	1.598756	6.171297	-0.009218	0.00636	-0.013105	-0.790771	0.095703	-0.310303
265.0	7.809441	1.571874	6.128702	-0.014368	0.006764	-0.011203	-0.79248	0.089111	-0.314697
266.0	7.812597	1.595978	6.12657	-0.008709	0.008474	-0.01109	-0.788574	0.095703	-0.307861
267.0	7.800257	1.616943	6.078282	-0.010481	0.008825	-0.008628	-0.790771	0.095703	-0.310303
268.0	7.815035	1.619984	6.125381	-0.012253	0.009176	-0.006166	-0.794922	0.093506	-0.314697
269.0	7.810343	1.595573	6.129549	-0.018061	0.01702	-0.005611	-0.790527	0.091309	-0.314697
270.0	7.832209	1.590399	6.123654	-0.010878	0.013637	-9e-06	-0.790527	0.093506	-0.3125
271.0	7.796776	1.61452	6.08339	-0.024264	0.018248	0.003005	-0.78833	0.091309	-0.3125
272.0	7.810966	1.514259	6.112651	-0.022197	0.021654	0.000319	-0.790771	0.095703	-0.310303
273.0	7.77549	1.54768	6.149399	-0.016306	0.019203	-0.002699	-0.792969	0.0979	-0.314697
274.0	7.778254	1.52461	6.177	-0.021056	0.014803	-0.009421	-0.795166	0.095703	-0.310303
275.0	7.788572	1.540765	6.121821	-0.011933	0.010421	-0.011764	-0.797119	0.095703	-0.317139
276.0	7.821904	1.56205	6.135982	-0.013096	0.015757	-0.015122	-0.788574	0.095703	-0.317139
277.0	7.771456	1.547391	6.154569	-0.021304	0.006018	-0.019948	-0.78833	0.093506	-0.314697
278.0	7.789737	1.566026	6.121961	-0.008509	0.005336	-0.021949	-0.795166	0.095703	-0.317139
279.0	7.811991	1.562578	6.115171	-0.011675	0.003749	-0.020274	-0.786133	0.093506	-0.317139
280.0	7.819081	1.564927	6.138847	-0.01117	0.005861	-0.018257	-0.790771	0.095703	-0.319336
281.0	7.791607	1.59256	6.120867	-0.008532	0.007859	-0.016574	-0.78833	0.093506	-0.307861
282.0	7.786983	1.569083	6.124682	-0.015524	0.012127	-0.014564	-0.790283	0.089111	-0.316895
283.0	7.790092	1.547126	6.151558	-0.011168	0.005867	-0.018257	-0.790527	0.093506	-0.307861
284.0	7.819789	1.591419	6.139242	-0.005154	0.007811	-0.016009	-0.792969	0.095703	-0.3125
285.0	7.781145	1.547149	6.12965	-0.017326	0.00205	-0.020396	-0.786133	0.093506	-0.314697
286.0	7.811206	1.545175	6.145861	-0.004028	0.003484	-0.020377	-0.797119	0.093506	-0.3125
287.0	7.787799	1.550952	6.153497	-0.005272	0.003426	-0.021274	-0.795166	0.095703	-0.3125
288.0	7.813982	1.571793	6.143584	-0.006807	-0.000385	-0.021951	-0.792969	0.095703	-0.307861
289.0	7.832485	1.591188	6.110526	-0.00314	0.003318	-0.021607	-0.790527	0.091309	-0.314697
290.0	7.839552	1.593924	6.134113	-0.01028	0.005704	-0.019487	-0.797119	0.095703	-0.319336
291.0	7.812352	1.5755	6.144707	-0.004026	0.003494	-0.020376	-0.797119	0.091309	-0.314697
292.0	7.834367	1.618618	6.109151	-0.005156	0.007823	-0.016007	-0.792725	0.091309	-0.3125
293.0	7.803374	1.575714	6.122797	-0.01383	0.006393	-0.014566	-0.795166	0.0979	-0.317139
294.0	7.810438	1.57755	6.146614	-0.008851	0.006632	-0.010976	-0.792725	0.093506	-0.310059
295.0	7.79852	1.552575	6.126861	-0.008821	0.004124	-0.016352	-0.790527	0.093506	-0.316895
296.0	7.805606	1.554923	6.150515	-0.009033	0.005773	-0.018589	-0.792969	0.0979	-0.3125
297.0	7.785795	1.584185	6.155558	-0.005299	0.005953	-0.015896	-0.790527	0.093506	-0.307861
298.0	7.777624	1.583462	6.132867	-0.010208	0.002191	-0.017141	-0.794922	0.093506	-0.316895
299.0	7.800367	1.53361	6.154614	-0.006299	0.001742	-0.019934	-0.790771	0.095703	-0.314697
300.0	7.79956	1.581439	6.126181	0.000386	0.005167	-0.021149	-0.790527	0.091309	-0.314697
301.0	7.810474	1.552702	6.099086	-0.009565	0.006178	-0.015231	-0.795166	0.0979	-0.307861
302.0	7.821293	1.532648	6.148971	-0.007715	0.011245	-0.020146	-0.790527	0.093506	-0.310059
303.0	7.774441	1.589004	6.135469	-0.005265	0.003456	-0.021273	-0.795166	0.095703	-0.310303
304.0	7.808345	1.556034	6.100963	-0.009886	0.003449	-0.022736	-0.790771	0.0979	-0.3125
305.0	7.796159	1.587236	6.12901	-0.001745	0.005289	-0.020816	-0.792969	0.0979	-0.314697
306.0	7.791949	1.564596	6.132161	-0.008783	0.001634	-0.02173	-0.792969	0.095703	-0.310303
307.0	7.799039	1.567457	6.155663	-0.004233	0.005174	-0.022611	-0.790771	0.095703	-0.319336
308.0	7.813754	1.562853	6.125608	-0.005938	0.001984	-0.017806	-0.790527	0.093506	-0.316895
309.0	7.817107	1.587914	6.122912	-0.006577	-0.001999	-0.019717	-0.795166	0.0979	-0.319336
310.0	7.813052	1.565114	6.125926	-0.003522	0.005634	-0.018355	-0.792725	0.091309	-0.3125
311.0	7.789587	1.570493	6.133654	-0.005441	0.004093	-0.015786	-0.78833	0.091309	-0.3125
312.0	7.785071	1.593986	6.108105	-0.003663	0.003759	-0.018246	-0.792969	0.095703	-0.3125
313.0	7.796141	1.574121	6.157633	-0.007788	0.005854	-0.01769	-0.790771	0.0979	-0.314941
314.0	7.81484	1.54688	6.153609	-0.003663	0.003762	-0.018246	-0.795166	0.0979	-0.3125
315.0	7.787385	1.574898	6.13532	-0.006505	0.003418	-0.02217	-0.786133	0.093506	-0.307861
316.0	7.836263	1.591543	6.118363	-0.00615	0.003646	-0.020042	-0.792969	0.095703	-0.3125
317.0	7.809154	1.572902	6.128901	-0.007788	0.00586	-0.01769	-0.794922	0.093506	-0.3125
318.0	7.800835	1.572209	6.10642	-0.007293	0.007965	-0.01567	-0.790527	0.091309	-0.310059
319.0	7.80782	1.574719	6.130134	-0.008636	0.003532	-0.021838	-0.790771	0.095703	-0.310303
320.0	7.799631	1.574518	6.107364	-0.00437	0.003321	-0.022501	-0.792725	0.091309	-0.316895
321.0	7.791427	1.583038	6.161312	-0.010414	0.003868	-0.019378	-0.788574	0.095703	-0.3125
322.0	7.825489	1.550083	6.126814	-0.005259	0.003491	-0.021271	-0.790527	0.091309	-0.316895
323.0	7.8133	1.58128	6.154716	-0.003264	0.001508	-0.021495	-0.788574	0.095703	-0.310303
324.0	7.805293	1.581056	6.131721	-0.008913	-0.000217	-0.021623	-0.792969	0.0979	-0.310303
325.0	7.797116	1.580782	6.108956	-0.003737	0.007314	-0.020588	-0.792725	0.093506	-0.310059
326.0	7.807641	1.607663	6.129833	-0.006501	0.003439	-0.022169	-0.792725	0.091309	-0.310059
327.0	7.837586	1.606081	6.146172	-0.005301	0.005992	-0.015892	-0.795166	0.095703	-0.317139
328.0	7.802906	1.585769	6.133541	-0.007036	0.003831	-0.018811	-0.792725	0.091309	-0.310059
329.0	7.805885	1.610818	6.13124	-0.003168	0.00589	-0.016223	-0.792725	0.093506	-0.3125
330.0	7.805785	1.565125	6.160484	-0.009213	0.006429	-0.013102	-0.790771	0.0979	-0.314941
331.0	7.828035	1.561591	6.1539	-0.006406	0.007817	-0.016897	-0.790527	0.091309	-0.310059
332.0	7.807975	1.59081	6.159017	-0.003167	0.005894	-0.016223	-0.788574	0.0979	-0.317139
333.0	7.807382	1.582916	6.082943	-0.007295	0.007983	-0.015668	-0.792969	0.095703	-0.310303
334.0	7.79901	1.590736	6.13721	-0.011346	0.006536	-0.012771	-0.790771	0.095703	-0.310303
335.0	7.802465	1.568793	6.163757	-0.008675	0.006047	-0.016459	-0.788574	0.095703	-0.307861
336.0	7.813027	1.58629	6.108129	-0.007295	0.007987	-0.015667	-0.795166	0.095703	-0.317139
337.0	7.796974	1.592569	6.139321	-0.011208	0.008419	-0.012878	-0.788574	0.0979	-0.314941
338.0	7.785189	1.567505	6.119627	-0.005836	0.006392	-0.012534	-0.78833	0.093506	-0.310059
339.0	7.826134	1.590926	6.156697	-0.008938	0.010197	-0.013315	-0.797119	0.093506	-0.314697
340.0	7.810823	1.541774	6.13978	-0.013967	0.004544	-0.014463	-0.78833	0.093506	-0.321533
341.0	7.809543	1.588653	6.111968	-0.006316	0.012198	-0.011623	-0.79248	0.086914	-0.307861
342.0	7.816419	1.590654	6.135915	-0.011833	0.004443	-0.014794	-0.792725	0.093506	-0.305664
343.0	7.804718	1.565587	6.116134	-0.005346	0.0085	-0.010511	-0.783936	0.093506	-0.3125
344.0	7.792248	1.595773	6.144487	-0.006725	0.006561	-0.011304	-0.795166	0.095703	-0.310303
345.0	7.811028	1.568064	6.140675	-0.009074	0.008324	-0.013208	-0.790527	0.093506	-0.310059
346.0	7.813822	1.592474	6.13875	-0.008722	0.008546	-0.011079	-0.794922	0.093506	-0.307861
347.0	7.829056	1.540463	6.137807	-0.014231	0.008694	-0.011318	-0.795166	0.095703	-0.319336
348.0	7.805344	1.544877	6.145964	-0.008937	0.010208	-0.013313	-0.792725	0.093506	-0.310059
349.0	7.807945	1.569228	6.144298	-0.013068	0.012296	-0.012759	-0.794922	0.093506	-0.3125
350.0	7.803714	1.545679	6.147832	-0.010046	0.00413	-0.017254	-0.792969	0.0979	-0.314697
351.0	7.783574	1.574523	6.153051	-0.008046	0.010052	-0.014541	-0.792725	0.091309	-0.307861
352.0	7.77183	1.54968	6.133291	-0.010045	0.004133	-0.017254	-0.790771	0.095703	-0.3125
353.0	7.805251	1.571876	6.147044	-0.007777	0.005913	-0.017688	-0.790527	0.093506	-0.3125
354.0	7.797645	1.524898	6.153013	-0.007236	0.005534	-0.021046	-0.794922	0.091309	-0.316895
355.0	7.792872	1.54898	6.127613	-0.000295	0.004852	-0.025392	-0.790527	0.093506	-0.316895
356.0	7.822185	1.594525	6.115288	-0.006614	0.001616	-0.022065	-0.790771	0.0979	-0.310303
357.0	7.80286	1.577678	6.148593	-0.007665	0.000962	-0.02845	-0.792969	0.095703	-0.310303
358.0	7.790749	1.600343	6.099686	-0.004964	-0.00058	-0.024418	-0.790527	0.091309	-0.3125
359.0	7.820813	1.59922	6.115817	-0.005237	0.003561	-0.02127	-0.792969	0.0979	-0.3125
360.0	7.820255	1.600564	6.116179	-0.005237	0.003563	-0.02127	-0.79248	0.089111	-0.310059
361.0	7.793249	1.581757	6.12659	-0.010262	0.005806	-0.019487	-0.790771	0.095703	-0.314697
362.0	7.81549	1.578647	6.120022	-0.006753	0.007647	-0.019021	-0.792725	0.093506	-0.314697
363.0	7.802818	1.609182	6.148383	-0.008669	0.006085	-0.016459	-0.790771	0.0979	-0.308105
364.0	7.78764	1.560381	6.13137	-0.012128	0.009673	-0.019366	-0.792725	0.091309	-0.310059
365.0	7.820868	1.582588	6.145341	-0.010043	0.004148	-0.017254	-0.792969	0.095703	-0.310303
366.0	7.797307	1.587313	6.153156	-0.014527	0.006014	-0.018829	-0.797119	0.093506	-0.314697
367.0	7.812729	1.536018	6.151989	-0.006752	0.007658	-0.01902	-0.790527	0.093506	-0.314697
368.0	7.780774	1.586024	6.108188	-0.009909	0.006035	-0.017358	-0.797363	0.0979	-0.314697
369.0	7.814837	1.561918	6.150492	-0.007365	0.003682	-0.02094	-0.794922	0.093506	-0.314697
370.0	7.82104	1.610943	6.14566	-0.008668	0.006096	-0.016458	-0.792725	0.091309	-0.314697
371.0	7.794036	1.591636	6.156183	-0.010801	0.006196	-0.016129	-0.795166	0.100098	-0.319336
372.0	7.789964	1.568215	6.159552	-0.006945	0.008255	-0.013533	-0.788574	0.095703	-0.314697
373.0	7.811495	1.611191	6.124577	-0.013826	0.006454	-0.014572	-0.790771	0.100098	-0.3125
374.0	7.8271	1.559246	6.123404	-0.010646	0.007003	-0.008514	-0.790771	0.095703	-0.307861
375.0	7.795997	1.562164	6.1081	-0.007425	0.006162	-0.015557	-0.786377	0.095703	-0.3125
376.0	7.779886	1.568305	6.139187	-0.010319	0.0083	-0.014103	-0.792725	0.091309	-0.3125
377.0	7.817679	1.559437	6.102209	-0.006663	0.004126	-0.016683	-0.794922	0.093506	-0.314697
378.0	7.801719	1.565927	6.133006	-0.00577	0.003972	-0.017911	-0.78833	0.093506	-0.310059
379.0	7.781632	1.595005	6.13791	-0.008383	0.001974	-0.019609	-0.78833	0.093506	-0.319336
380.0	7.827156	1.588156	6.123737	-0.004115	0.001781	-0.020265	-0.786377	0.0979	-0.3125
381.0	7.777301	1.573247	6.141197	-0.007773	0.005955	-0.017685	-0.790527	0.091309	-0.310059
382.0	7.799686	1.570211	6.134497	-0.008252	0.003861	-0.019712	-0.790527	0.093506	-0.319336
383.0	7.810076	1.596927	6.155349	-0.004114	0.001786	-0.020265	-0.78833	0.093506	-0.307861
384.0	7.79871	1.572414	6.135173	-0.012519	0.004058	-0.019055	-0.792969	0.095703	-0.3125
385.0	7.820257	1.615983	6.100017	-0.002265	0.005826	-0.017441	-0.792969	0.095703	-0.3125
386.0	7.797603	1.574197	6.136123	-0.013193	0.002545	-0.015596	-0.792725	0.093506	-0.310059
387.0	7.793758	1.550737	6.139258	-0.007425	0.006177	-0.015556	-0.788574	0.095703	-0.3125
388.0	7.776916	1.60384	6.141584	-0.00163	0.001912	-0.018464	-0.792969	0.095703	-0.314697
389.0	7.796057	1.576797	6.137419	-0.009559	0.006275	-0.015228	-0.792725	0.091309	-0.316895
390.0	7.82261	1.551037	6.156638	-0.007773	0.005968	-0.017684	-0.792725	0.093506	-0.314697
391.0	7.828664	1.59987	6.151935	-0.010928	0.004337	-0.016026	-0.78833	0.089111	-0.30542
392.0	7.786736	1.57761	6.115939	-0.006879	0.005818	-0.018913	-0.792725	0.091309	-0.314697
393.0	7.763153	1.582527	6.123641	-0.007901	0.00409	-0.017582	-0.78833	0.091309	-0.314697
394.0	7.785601	1.579612	6.116866	-0.007354	0.003727	-0.020939	-0.795166	0.095703	-0.310303
395.0	7.811287	1.600838	6.107534	-0.006879	0.005823	-0.018912	-0.790527	0.093506	-0.310059
396.0	7.818086	1.603163	6.131408	-0.011912	0.00805	-0.01713	-0.795166	0.095703	-0.3125
397.0	7.768045	1.587507	6.149238	-0.011564	0.008263	-0.015001	-0.792725	0.093506	-0.307861
398.0	7.813342	1.580334	6.135555	-0.007771	0.005981	-0.017684	-0.790771	0.095703	-0.314697
399.0	7.772399	1.511429	6.127925	-0.010032	0.004194	-0.017255	-0.786133	0.093506	-0.3125
400.0	7.812278	1.582187	6.136433	-0.002864	0.001877	-0.019364	-0.792725	0.093506	-0.310059
401.0	7.781335	1.58578	6.120697	-0.010853	0.001894	-0.021412	-0.790771	0.0979	-0.3125
402.0	7.788266	1.588442	6.144305	-0.00633	0.005474	-0.022268	-0.78833	0.093506	-0.314697
403.0	7.795513	1.582917	6.091349	-0.007443	0.007302	-0.02327	-0.790283	0.089111	-0.310059
404.0	7.805541	1.60936	6.112639	-0.014173	0.006271	-0.016702	-0.790527	0.091309	-0.310059
405.0	7.805867	1.563554	6.141643	-0.005983	0.00569	-0.020139	-0.786133	0.093506	-0.305664
406.0	7.797706	1.563116	6.119034	-0.010251	0.005878	-0.019485	-0.795166	0.095703	-0.307861
407.0	7.823406	1.584249	6.109718	-0.009609	0.001962	-0.020511	-0.792969	0.095703	-0.310303
408.0	7.799831	1.589307	6.117323	-0.006328	0.005488	-0.022267	-0.792725	0.091309	-0.310059
409.0	7.799146	1.590426	6.117906	-0.01149	0.005826	-0.020386	-0.790527	0.091309	-0.310059
410.0	7.824782	1.611591	6.108658	-0.005762	0.004024	-0.017909	-0.795166	0.095703	-0.3125
411.0	7.805438	1.593614	6.142177	-0.014172	0.006279	-0.016702	-0.792725	0.091309	-0.314697
412.0	7.793959	1.568675	6.122384	-0.009653	0.009864	-0.017555	-0.790527	0.091309	-0.319336
413.0	7.803804	1.594772	6.143952	-0.011097	0.010372	-0.01297	-0.790771	0.095703	-0.310303
414.0	7.806118	1.619096	6.14246	-0.013105	0.01235	-0.012744	-0.792969	0.095703	-0.314697
415.0	7.806192	1.572704	6.17196	-0.01345	0.012145	-0.014873	-0.794922	0.093506	-0.307861
416.0	7.80102	1.595785	6.147225	-0.005588	0.010251	-0.012721	-0.790283	0.089111	-0.316895
417.0	7.80018	1.596039	6.148224	-0.017498	0.010654	-0.011992	-0.792969	0.095703	-0.310303
418.0	7.791917	1.594574	6.126032	-0.014594	0.00853	-0.013446	-0.792725	0.093506	-0.321533
419.0	7.795451	1.572209	6.152653	-0.01122	0.008497	-0.01287	-0.79248	0.086914	-0.316895
420.0	7.771644	1.576271	6.160752	-0.013229	0.010475	-0.012644	-0.788574	0.095703	-0.310303
421.0	7.792871	1.619516	6.126107	-0.007075	0.006433	-0.013423	-0.790527	0.091309	-0.316895
422.0	7.823644	1.570892	6.171329	-0.013105	0.012362	-0.012742	-0.786133	0.091309	-0.319336
423.0	7.788094	1.596242	6.130457	-0.009553	0.006322	-0.015227	-0.790283	0.089111	-0.314697
424.0	7.807309	1.568891	6.126493	-0.010448	0.006471	-0.013999	-0.795166	0.095703	-0.310303
425.0	7.79113	1.57461	6.15751	-0.00797	0.006586	-0.012195	-0.790527	0.093506	-0.3125
426.0	7.813606	1.571412	6.150898	-0.007542	0.00435	-0.015453	-0.795166	0.0979	-0.319336
427.0	7.808714	1.594869	6.125729	-0.002682	0.008143	-0.014172	-0.792969	0.095703	-0.3125
428.0	7.805027	1.571696	6.128681	-0.008131	0.000377	-0.017386	-0.794922	0.093506	-0.310059
429.0	7.807805	1.596578	6.126443	-0.005064	0.004466	-0.013649	-0.795166	0.095703	-0.314697
430.0	7.780985	1.577049	6.136718	-0.007295	0.008124	-0.01565	-0.790527	0.091309	-0.314697
431.0	7.803418	1.573962	6.130148	-0.003481	0.004728	-0.010617	-0.790527	0.093506	-0.310059
432.0	7.798597	1.597348	6.104902	-0.004044	0.006207	-0.014975	-0.78833	0.091309	-0.3125
433.0	7.78245	1.603416	6.13575	-0.005063	0.004469	-0.013649	-0.790527	0.093506	-0.3125
434.0	7.778744	1.580097	6.138775	-0.00494	0.006356	-0.013747	-0.792725	0.093506	-0.307861
435.0	7.79813	1.553	6.13459	-0.007662	0.002472	-0.015356	-0.78833	0.093506	-0.307861
436.0	7.800722	1.577757	6.132604	-0.006952	0.008333	-0.01352	-0.790527	0.093506	-0.307861
437.0	7.769498	1.580908	6.117274	-0.005503	0.007839	-0.018104	-0.790527	0.091309	-0.314697
438.0	7.810413	1.596808	6.078163	-0.011319	0.012083	-0.015196	-0.790771	0.095703	-0.310303
439.0	7.824306	1.600218	6.125699	-0.01008	0.012141	-0.014293	-0.795166	0.095703	-0.314697
440.0	7.766746	1.582432	6.120374	-0.015366	0.010581	-0.012319	-0.792969	0.095703	-0.314697
441.0	7.822493	1.600587	6.127917	-0.01311	0.012379	-0.012741	-0.788574	0.095703	-0.310303
442.0	7.795366	1.580282	6.138761	-0.014902	0.012672	-0.010287	-0.790527	0.093506	-0.3125
443.0	7.809931	1.575082	6.109768	-0.013762	0.016301	-0.011708	-0.792725	0.093506	-0.314697
444.0	7.823694	1.577866	6.157592	-0.019512	0.012652	-0.011769	-0.788574	0.095703	-0.3125
445.0	7.80485	1.550777	6.114817	-0.012888	0.010702	-0.010514	-0.792969	0.095703	-0.305664
446.0	7.795733	1.557484	6.169483	-0.013108	0.01239	-0.01274	-0.792725	0.093506	-0.314697
447.0	7.797994	1.581813	6.16802	-0.013692	0.008418	-0.014677	-0.790527	0.091309	-0.310059
448.0	7.783616	1.532508	6.150625	-0.012454	0.008475	-0.013774	-0.790771	0.0979	-0.317139
449.0	7.801699	1.551908	6.118551	-0.009543	0.006357	-0.015228	-0.786133	0.089111	-0.312256
450.0	7.811571	1.578182	6.139916	-0.007749	0.00607	-0.017681	-0.792969	0.095703	-0.314697
451.0	7.803513	1.577577	6.117319	-0.011121	0.006105	-0.018261	-0.790771	0.0979	-0.308105
452.0	7.779868	1.581939	6.125016	-0.009663	0.004474	-0.015131	-0.799316	0.095703	-0.314697
453.0	7.809753	1.580425	6.141652	-0.005274	0.006186	-0.015874	-0.790527	0.093506	-0.314697
454.0	7.804805	1.603843	6.116587	-0.012018	0.006252	-0.017034	-0.788818	0.100098	-0.314941
455.0	7.797817	1.556205	6.122407	-0.010079	0.012169	-0.014288	-0.794922	0.093506	-0.3125
456.0	7.807431	1.582277	6.144128	-0.010659	0.008198	-0.016227	-0.797119	0.095703	-0.314697
457.0	7.796324	1.557438	6.123995	-0.007527	0.004393	-0.015455	-0.790527	0.093506	-0.316895
458.0	7.806284	1.583624	6.145238	-0.008424	0.004537	-0.014228	-0.790771	0.0979	-0.3125
459.0	7.805651	1.584382	6.145846	-0.00639	0.008027	-0.016872	-0.790527	0.093506	-0.314697
460.0	7.802013	1.560962	6.148844	-0.00944	0.002794	-0.012907	-0.78833	0.093506	-0.314697
461.0	7.797194	1.584152	6.123674	-0.009541	0.006372	-0.015227	-0.795166	0.095703	-0.3125
462.0	7.797879	1.538051	6.152349	-0.007526	0.004399	-0.015455	-0.797119	0.095703	-0.3125
463.0	7.792968	1.56178	6.127158	-0.003816	0.00572	-0.020456	-0.794922	0.093506	-0.314697
464.0	7.779719	1.592218	6.155503	-0.00607	0.003921	-0.020038	-0.792725	0.093506	-0.3125
465.0	7.791739	1.564171	6.128112	-0.009322	0.005841	-0.020714	-0.795166	0.095703	-0.305664
466.0	7.80159	1.59095	6.149305	-0.004392	0.001754	-0.022395	-0.790527	0.091309	-0.310059
467.0	7.801083	1.592052	6.149663	-0.011236	0.004239	-0.018166	-0.794922	0.093506	-0.3125
468.0	7.797503	1.568757	6.15258	-0.007864	0.00421	-0.017585	-0.795166	0.095703	-0.3125
469.0	7.815632	1.588869	6.120312	-0.00595	0.005818	-0.020132	-0.792969	0.0979	-0.3125
470.0	7.803607	1.572116	6.176923	-0.012015	0.006272	-0.017035	-0.790771	0.0979	-0.314941
471.0	7.808332	1.54231	6.126344	-0.006627	0.00427	-0.016681	-0.794678	0.086914	-0.314697
472.0	7.77209	1.576001	6.161709	-0.007083	0.002188	-0.018716	-0.790527	0.091309	-0.314697
473.0	7.787366	1.572079	6.131646	-0.006185	0.002049	-0.019943	-0.78833	0.093506	-0.3125
474.0	7.783913	1.549222	6.134313	-0.005286	0.001911	-0.021169	-0.792969	0.095703	-0.314697
475.0	7.789427	1.598773	6.129757	-0.002696	0.003911	-0.019455	-0.788574	0.095703	-0.314697
476.0	7.816378	1.573682	6.148636	-0.008319	0.002138	-0.01962	-0.799316	0.095703	-0.3125
477.0	7.785548	1.577015	6.132687	-0.004165	8.3e-05	-0.020171	-0.792969	0.0979	-0.307861
478.0	7.792472	1.579762	6.156138	-0.003932	0.003861	-0.020359	-0.794922	0.093506	-0.316895
479.0	7.807805	1.576173	6.125938	-0.003383	-0.001941	-0.021303	-0.792725	0.093506	-0.310059
480.0	7.81484	1.578987	6.149231	-0.004049	0.001976	-0.020264	-0.78833	0.093506	-0.319336
481.0	7.781044	1.558426	6.135623	0.000444	0.000116	-0.018684	-0.78833	0.093506	-0.307861
482.0	7.817129	1.606073	6.146915	0.001342	-2.1e-05	-0.019911	-0.788574	0.095703	-0.3125
483.0	7.806313	1.581888	6.126366	-0.005614	0.006032	-0.018	-0.790283	0.089111	-0.30542
484.0	7.790106	1.588287	6.156938	0.004714	-4.5e-05	-0.019328	-0.795166	0.095703	-0.3125
485.0	7.789919	1.589677	6.156816	-0.00619	-0.003407	-0.01753	-0.790771	0.095703	-0.3125
486.0	7.825706	1.558355	6.121567	-0.000123	-0.003846	-0.020627	-0.790771	0.095703	-0.314697
487.0	7.785173	1.615286	6.130831	0.00393	0.001987	-0.018196	-0.795166	0.095703	-0.314697
488.0	7.801963	1.564716	6.128776	-0.008879	0.002479	-0.016263	-0.792969	0.0979	-0.317139
489.0	7.797136	1.58844	6.103381	-0.000339	0.002153	-0.017552	-0.794922	0.093506	-0.3125
490.0	7.804085	1.591062	6.126829	-0.004609	0.002317	-0.016908	-0.796875	0.089111	-0.314697
491.0	7.803514	1.591894	6.127339	-0.006962	0.008394	-0.013511	-0.78833	0.091309	-0.310059
492.0	7.792687	1.566882	6.107065	-0.006966	0.002922	-0.011099	-0.790771	0.100098	-0.314941
493.0	7.802465	1.592943	6.128402	-0.012021	0.006286	-0.017033	-0.792725	0.093506	-0.3125
494.0	7.794514	1.592336	6.105714	-0.005729	0.004156	-0.017905	-0.792969	0.0979	-0.3125
495.0	7.793805	1.59325	6.10638	-0.008422	0.010041	-0.016638	-0.790283	0.089111	-0.314697
496.0	7.816048	1.590236	6.100256	-0.012017	0.010587	-0.011734	-0.797119	0.093506	-0.314697
497.0	7.791999	1.593771	6.108549	-0.01606	0.014527	-0.011277	-0.79248	0.089111	-0.312256
498.0	7.78807	1.56969	6.112232	-0.014375	0.012369	-0.013636	-0.788574	0.095703	-0.307861
499.0	7.794386	1.571222	6.136747	-0.015161	0.014395	-0.012503	-0.78833	0.093506	-0.314697
500.0	7.816421	1.567713	6.131032	-0.014824	0.014588	-0.010372	-0.792725	0.093506	-0.314697
501.0	7.81828	1.592023	6.129933	-0.016283	0.01194	-0.018801	-0.78833	0.093506	-0.307861
502.0	7.788215	1.547212	6.143249	-0.021004	0.018612	-0.009594	-0.794922	0.091309	-0.319336
503.0	7.79428	1.548365	6.168156	-0.018754	0.016131	-0.015309	-0.792725	0.091309	-0.310059
504.0	7.761232	1.597593	6.125278	-0.015493	0.009925	-0.019935	-0.792969	0.0979	-0.310303
505.0	7.805248	1.520289	6.142422	-0.015605	0.008038	-0.019843	-0.786133	0.091309	-0.3125
506.0	7.798951	1.551463	6.194321	-0.014365	0.003804	-0.024241	-0.79541	0.102051	-0.3125
507.0	7.809867	1.570646	6.138629	-0.007396	-0.002236	-0.026153	-0.790527	0.093506	-0.3125
508.0	7.783621	1.55139	6.148016	-0.009195	-0.001966	-0.023701	-0.790527	0.093506	-0.3125
509.0	7.832482	1.57038	6.131386	-0.006378	-0.004763	-0.032773	-0.790527	0.091309	-0.307861
510.0	7.819242	1.601388	6.159208	-0.000543	-0.000387	-0.025075	-0.794922	0.093506	-0.319336
511.0	7.808782	1.577752	6.138187	-0.008176	-0.004491	-0.030322	-0.790527	0.093506	-0.314697
512.0	7.801177	1.578324	6.114796	0.001592	-0.000459	-0.025395	-0.792969	0.100098	-0.310303
513.0	7.821133	1.630942	6.156647	-0.008413	0.000307	-0.019531	-0.78833	0.091309	-0.307861
514.0	7.797503	1.556612	6.11759	-0.009881	0.006243	-0.017354	-0.797119	0.093506	-0.310059
515.0	7.796898	1.557582	6.118113	-0.006056	0.004013	-0.020034	-0.792725	0.093506	-0.3125
516.0	7.77315	1.562242	6.125658	-0.006281	0.005718	-0.022256	-0.792969	0.095703	-0.310303
517.0	7.802993	1.561508	6.142273	-0.011106	0.001909	-0.023563	-0.78833	0.093506	-0.317139
518.0	7.802672	1.563028	6.142293	-0.003228	-0.004253	-0.026702	-0.792969	0.0979	-0.3125
519.0	7.795081	1.563445	6.118934	-0.006379	-0.000448	-0.027469	-0.790527	0.091309	-0.319336
520.0	7.794731	1.565265	6.118914	-0.005588	-0.002466	-0.028604	-0.794678	0.086914	-0.312256
521.0	7.797218	1.591447	6.116443	-0.002552	-0.00267	-0.030149	-0.78833	0.093506	-0.310059
522.0	7.797035	1.593557	6.116127	-0.001199	-0.006207	-0.026932	-0.795166	0.095703	-0.307861
523.0	7.822714	1.616171	6.106535	-0.00728	-0.000308	-0.026243	-0.794922	0.093506	-0.314697
524.0	7.793793	1.573109	6.118097	-0.004002	-0.006495	-0.030873	-0.794678	0.086914	-0.316895
525.0	7.80818	1.577961	6.164382	-0.003009	-0.000452	-0.026884	-0.79248	0.089111	-0.316895
526.0	7.800681	1.57874	6.140804	0.000163	-0.008527	-0.031423	-0.792725	0.093506	-0.314697
527.0	7.725584	1.393902	6.149002	-0.005383	-0.027425	-0.052817	-0.790283	0.089111	-0.312256
528.0	7.71448	1.28017	6.155924	0.039006	-0.089723	-0.101957	-0.78833	0.091309	-0.310059
529.0	7.768118	1.278076	6.312329	0.054299	-0.117474	-0.133814	-0.799316	0.093506	-0.305664
530.0	7.69703	1.273012	6.223282	0.139985	-0.180426	-0.184845	-0.792725	0.091309	-0.307861
531.0	7.819783	1.391187	6.036895	0.116102	-0.171052	-0.237355	-0.796875	0.086914	-0.30542
532.0	7.922229	1.533193	6.03579	0.144933	-0.130005	-0.265384	-0.794434	0.08252	-0.303223
533.0	7.898043	1.628976	6.157015	0.095176	-0.112059	-0.310957	-0.796631	0.08252	-0.303223
534.0	7.953215	1.70883	5.97287	0.052357	-0.073927	-0.319071	-0.79248	0.086914	-0.30542
535.0	7.973469	1.977618	5.943679	0.028148	-0.011072	-0.300534	-0.792236	0.08252	-0.303223
536.0	7.93074	2.040641	6.055309	0.010259	0.012229	-0.254982	-0.796143	0.07373	-0.307617
537.0	7.907527	2.094643	5.905164	-0.002978	0.019635	-0.216028	-0.796143	0.07373	-0.302979
538.0	7.904072	2.230103	5.872511	0.038676	0.068954	-0.168884	-0.794434	0.080322	-0.307617
539.0	7.790192	2.116749	5.999094	-0.004098	0.086172	-0.125822	-0.794189	0.075928	-0.302979
540.0	7.87209	2.263795	5.992298	0.010307	0.089711	-0.083338	-0.794189	0.075928	-0.305176
541.0	7.921585	2.281827	5.929251	0.015807	0.106698	-0.038998	-0.791992	0.075928	-0.302979
542.0	7.924458	2.134582	5.947501	-0.048878	0.144239	-0.002332	-0.794189	0.075928	-0.312012
543.0	7.858376	2.015217	5.988044	-0.052121	0.176824	0.022954	-0.789551	0.071533	-0.309814
544.0	7.812076	1.907205	6.176206	-0.054545	0.180424	0.041763	-0.79834	0.071533	-0.309814
545.0	7.707662	1.782973	6.177935	-0.092	0.162114	0.04605	-0.796387	0.078125	-0.312256
546.0	7.762554	1.692733	6.177429	-0.108832	0.135037	0.037745	-0.794434	0.08252	-0.316895
547.0	7.737147	1.561443	6.178078	-0.086541	0.128496	0.028145	-0.794189	0.075928	-0.31665
548.0	7.681414	1.434068	6.161261	-0.072433	0.119944	-0.006379	-0.791992	0.078125	-0.319092
549.0	7.689393	1.634403	6.228272	-0.001876	0.106353	-0.027185	-0.789795	0.078125	-0.309814
550.0	7.827703	1.629817	6.294215	-0.019979	0.079764	-0.051801	-0.789795	0.07373	-0.318848
551.0	7.551681	1.462345	6.062577	0.016817	0.083737	-0.070498	-0.790039	0.080322	-0.31665
552.0	7.695679	1.773297	6.281761	0.04061	0.061914	-0.079619	-0.794189	0.075928	-0.318848
553.0	7.644022	1.793374	6.119271	0.004569	0.027616	-0.082711	-0.787842	0.078125	-0.321289
554.0	7.640814	1.800384	6.121217	0.022718	0.029749	-0.078898	-0.791992	0.07373	-0.318848
555.0	7.67848	1.761178	6.190457	0.003668	0.012913	-0.076484	-0.785156	0.071777	-0.31665
556.0	7.773379	1.678143	6.116696	0.004779	-0.011788	-0.075584	-0.793945	0.071533	-0.318848
557.0	7.825669	1.553866	6.08369	0.001607	-0.014135	-0.081574	-0.787598	0.075928	-0.312012
558.0	7.734987	1.525163	6.138052	0.016316	-0.011921	-0.101298	-0.791748	0.071533	-0.314209
559.0	7.741358	1.473833	6.265866	0.034921	-0.049548	-0.118775	-0.787598	0.073975	-0.318848
560.0	7.845441	1.119773	6.128076	-0.011094	-0.119051	-0.157084	-0.791992	0.07373	-0.314453
561.0	7.864362	1.012349	6.123873	0.052816	-0.112684	-0.222467	-0.789551	0.06958	-0.318848
562.0	7.862092	1.037667	6.345568	0.135102	-0.144483	-0.292182	-0.793945	0.069336	-0.312012
563.0	7.955133	1.437125	6.326827	0.199764	-0.171444	-0.379189	-0.797852	0.062988	-0.316406
564.0	7.929479	2.186399	6.158778	0.353286	-0.109642	-0.437628	-0.79126	0.058594	-0.311768
565.0	7.815157	2.592721	6.610477	0.339125	-0.001961	-0.386023	-0.79541	0.056396	-0.318604
566.0	7.815242	2.168024	7.317357	0.17699	0.214552	-0.180373	-0.79126	0.058594	-0.313965
567.0	6.85745	1.164433	7.796894	0.387375	0.493613	0.180764	-0.79126	0.058594	-0.316406
568.0	6.082154	3.134694	7.770014	1.003673	0.452778	0.483609	-0.793213	0.056396	-0.332275
569.0	11.09394	16.215263	17.246334	1.578792	2.049886	0.633582	-0.788818	0.056396	-0.350586
570.0	1.525275	14.371488	19.832705	-1.276048	1.944806	1.364229	-0.782959	0.067383	-0.359863
571.0	-3.256472	4.272208	7.662278	-2.802026	-0.209516	1.87583	-0.785889	0.087158	-0.355713
572.0	-1.858092	1.484123	2.450386	-1.368753	-0.624504	1.979579	-0.786621	0.102295	-0.355957
573.0	0.088982	6.426967	5.988571	2.000307	-0.138487	2.12244	-0.789063	0.108887	-0.365234
574.0	-0.612992	12.084437	10.193016	2.324209	-0.226578	2.299969	-0.793701	0.115479	-0.365234
575.0	-0.351203	12.911062	9.577426	0.296651	-1.321511	2.346565	-0.794434	0.132813	-0.352051
576.0	2.763034	11.148224	10.650224	-1.466796	-1.659275	2.15811	-0.806396	0.154541	-0.354736
577.0	10.010893	6.077245	15.645227	-2.898952	-1.28088	1.407778	-0.804932	0.169922	-0.348145
578.0	5.225804	8.127053	13.852938	2.072718	0.538023	0.580608	-0.808838	0.158936	-0.377441
579.0	-0.899508	10.009582	12.48341	3.674555	0.314282	0.263253	-0.820801	0.137207	-0.390869
580.0	2.263062	12.067207	12.048851	0.909884	-0.375718	-0.050854	-0.831543	0.130615	-0.406494
581.0	6.137435	9.997426	13.995318	-1.825424	-0.220902	-0.550654	-0.833252	0.121826	-0.424561
582.0	7.26742	4.420045	14.557714	-1.013798	0.462012	-1.201342	-0.838867	0.100098	-0.458496
583.0	6.861159	3.893405	12.801459	1.815188	1.422204	-1.836126	-0.828125	0.052246	-0.498535
584.0	5.264521	6.560852	12.511148	2.299329	1.88595	-2.118524	-0.808594	0.006592	-0.543213
585.0	4.521339	5.31237	11.037034	0.656292	1.594855	-2.121962	-0.776367	-0.028076	-0.581299
586.0	5.469791	2.357127	9.942742	-0.161285	1.389442	-2.038494	-0.737549	-0.069092	-0.621582
587.0	6.26945	0.528055	8.763157	0.46723	1.441265	-1.978586	-0.683594	-0.10791	-0.643555
588.0	6.970325	1.138263	8.303737	1.026072	1.511449	-1.904781	-0.625244	-0.140381	-0.658936
589.0	7.146655	1.45131	8.136533	0.622919	1.427289	-1.758981	-0.563232	-0.161621	-0.679199
590.0	7.598097	0.885846	7.760558	0.119941	1.218808	-1.569136	-0.5	-0.165771	-0.677002
591.0	8.155253	0.407116	7.210855	-0.069483	1.084526	-1.41172	-0.440918	-0.165283	-0.672363
592.0	8.37608	0.451748	6.833663	-0.206696	1.006045	-1.284174	-0.386475	-0.165039	-0.665771
593.0	8.369214	0.2106	6.659973	-0.470434	0.904262	-1.20994	-0.325928	-0.153564	-0.654541
594.0	8.600359	-0.262354	6.582083	-0.657377	0.787922	-1.188838	-0.274414	-0.138184	-0.641357
595.0	8.626266	-0.903863	6.323574	-0.67651	0.719774	-1.168831	-0.218506	-0.118164	-0.618896
596.0	8.691589	-1.577216	5.980751	-0.61901	0.655392	-1.140767	-0.175781	-0.098389	-0.587402
597.0	9.118117	-2.080983	5.766253	-0.604019	0.624959	-1.108769	-0.131104	-0.069824	-0.560791
598.0	9.108667	-2.701488	5.490235	-0.485758	0.661077	-1.058543	-0.093262	-0.04126	-0.536377
599.0	9.245813	-3.076481	4.993123	-0.353386	0.623834	-0.989293	-0.05542	-0.010498	-0.491455
600.0	9.189414	-3.29093	4.043017	-0.365009	0.585989	-0.88989	-0.036865	0.017822	-0.44873
601.0	8.879317	-3.582988	2.767086	-0.448787	0.514547	-0.751007	-0.014648	0.054932	-0.408447
602.0	9.244204	-3.696848	1.846973	-0.556092	0.354753	-0.589773	-0.00708	0.081055	-0.36792
603.0	9.525771	-3.74564	1.085005	-0.564585	0.279632	-0.422611	0.002686	0.107422	-0.325195
604.0	9.473613	-3.76724	0.481066	-0.545873	0.205139	-0.244698	0.005615	0.137695	-0.296143
605.0	9.49448	-3.687284	-0.026214	-0.51862	0.079898	-0.054641	0.013428	0.159668	-0.26001
606.0	9.062139	-3.278685	-0.89785	-0.253396	-0.128557	0.099985	0.016602	0.185791	-0.226318
607.0	9.60942	-2.379002	-1.06354	-0.0613	-0.500671	0.222879	0.022217	0.205322	-0.199463
608.0	10.860648	-1.758728	-0.692008	-0.349999	-0.728352	0.381689	0.023438	0.227051	-0.172363
609.0	12.293265	-1.932918	-0.168336	-0.804807	-0.748216	0.610292	0.029053	0.246582	-0.145508
610.0	12.728831	-2.723289	0.352107	-0.932259	-0.498928	0.926031	0.039551	0.257568	-0.127441
611.0	11.749186	-3.184303	0.574978	-0.63675	-0.50413	1.148972	0.049805	0.272949	-0.100586
612.0	12.176827	-1.829249	0.795947	-0.188558	-0.801835	1.134139	0.068848	0.283936	-0.084717
613.0	12.655954	0.658221	-0.015365	0.269773	-0.81577	0.871548	0.08374	0.294922	-0.069092
614.0	14.267341	3.258592	0.423714	0.28756	-0.851484	0.448078	0.10083	0.303711	-0.060059
615.0	11.531697	3.645838	2.075366	-0.603613	-0.33001	0.633908	0.126465	0.3125	-0.060303
616.0	3.490835	6.820214	14.975358	0.863644	0.61473	1.040591	0.141846	0.312744	-0.062744
617.0	-5.5288	9.412846	19.731261	1.643706	-1.712092	1.125942	0.163086	0.325928	-0.049316
618.0	6.225236	9.113356	3.156591	2.107421	-4.415073	1.310985	0.171143	0.338867	-0.03125
619.0	14.962184	11.843003	1.37465	-1.141365	-5.080404	0.416646	0.174805	0.356445	-0.013428
620.0	15.086856	3.968858	-2.582359	-4.742311	-3.05379	0.09335	0.1875	0.363037	0.009277
621.0	13.266541	-4.95671	2.401248	-4.63194	0.621732	0.150475	0.193604	0.371826	0.025146
622.0	1.152445	-10.368793	18.076614	0.402249	-0.443789	0.32057	0.208984	0.374023	0.03418
623.0	31.684999	-2.516048	25.435504	-0.686717	-1.195335	1.061333	0.215088	0.382813	0.042969
624.0	10.345656	-0.850936	-9.265928	3.260355	-3.169648	-0.436495	0.210449	0.38501	0.0271
625.0	11.795187	5.491386	0.408567	2.262606	1.971918	0.292676	0.219727	0.374023	0.027344
626.0	7.681231	4.805989	9.683937	-1.033566	2.300092	0.107039	0.215332	0.376221	0.0271
627.0	3.070825	-0.138834	13.066849	-1.988678	-0.030674	0.093349	0.213135	0.376221	0.038574
628.0	8.58675	-1.546126	4.706944	0.047435	-0.980445	-0.068431	0.210938	0.376221	0.029541
629.0	9.228226	2.164609	4.004391	1.283569	0.083105	-0.09657	0.22168	0.378418	0.031738
630.0	7.143482	3.345001	6.97047	0.196069	0.481659	-0.043792	0.217285	0.380615	0.036133
631.0	6.882616	1.303346	7.719559	-0.708788	-0.109966	-0.015096	0.217529	0.376221	0.029541
632.0	7.92869	0.447912	5.785154	0.024998	-0.229282	-0.044077	0.215088	0.380615	0.029297
633.0	7.870563	1.778368	5.999673	0.363805	0.059615	-0.065621	0.215332	0.374023	0.036377
634.0	7.25945	1.756799	6.852688	-0.070134	0.007114	-0.061566	0.215332	0.376221	0.036377
635.0	7.557128	1.180575	6.51049	-0.064537	-0.156784	-0.073697	0.215332	0.376221	0.029541
636.0	7.835142	1.643524	6.153741	0.171476	-0.103898	-0.082872	0.221436	0.387207	0.026855
637.0	7.587903	1.834421	6.385963	0.098286	-0.039435	-0.07668	0.217285	0.382813	0.029297
638.0	7.57077	1.755918	6.515581	0.06905	-0.09166	-0.053967	0.22168	0.380615	0.024902
639.0	7.815952	2.124727	6.169638	0.175283	-0.110714	-0.037448	0.22168	0.380615	0.031738
640.0	7.981549	2.629298	5.966784	0.177148	-0.008126	0.014116	0.221436	0.38501	0.024658
641.0	7.775203	2.485439	6.183722	0.006482	0.07927	0.083082	0.219238	0.38501	0.029297
642.0	7.790409	2.184313	6.250312	-0.030966	0.115488	0.142809	0.223877	0.380615	0.031738
643.0	7.805555	2.259248	6.125186	0.018746	0.171562	0.189056	0.223633	0.382813	0.024658
644.0	7.903048	2.43879	6.281542	-0.061605	0.24103	0.244939	0.22168	0.378418	0.022461
645.0	7.594311	2.014604	6.352155	-0.258812	0.245915	0.284331	0.219482	0.382813	0.022461
646.0	7.616851	1.698779	6.301726	-0.299881	0.234136	0.290117	0.208496	0.382813	0.0271
647.0	7.783447	1.718687	6.299853	-0.257524	0.225742	0.274969	0.206299	0.382813	0.024902
648.0	7.624056	1.613169	6.26466	-0.323612	0.277074	0.294534	0.191406	0.373779	0.03418
649.0	7.440679	1.289991	6.317803	-0.399988	0.25886	0.265617	0.187988	0.352051	0.043701
650.0	7.270372	0.79376	6.393494	-0.454405	0.28272	0.231954	0.19751	0.33667	0.041748
651.0	7.181628	0.768573	6.507357	-0.186455	0.167317	0.17905	0.210693	0.33252	0.037109
652.0	7.141124	0.900902	6.624533	-0.159633	0.076364	0.113789	0.218994	0.343506	0.032471
653.0	7.232333	0.799654	6.632239	-0.247901	0.025749	0.05369	0.220703	0.352295	0.036865
654.0	7.147231	0.61701	6.555865	-0.187874	-0.058453	-0.009475	0.2229	0.354492	0.036621
655.0	7.194764	0.604372	6.513779	-0.140959	-0.147953	-0.071033	0.229004	0.361084	0.038818
656.0	7.70717	1.340005	6.316171	-0.032487	-0.166275	-0.102003	0.226807	0.363281	0.029785
657.0	7.636242	1.544831	6.429039	-0.272503	-0.052792	-0.111702	0.224609	0.365234	0.03418
658.0	7.489122	1.165176	6.094478	-0.515119	0.008346	-0.139966	0.22876	0.369629	0.038818
659.0	7.870906	1.446512	6.505088	-0.265609	0.034456	-0.121921	0.226563	0.369629	0.03418
660.0	8.080738	2.227914	6.483029	-0.295341	0.020802	-0.111502	0.224365	0.369629	0.03418
661.0	8.467518	3.101625	6.044174	-0.417931	0.035681	-0.002239	0.219971	0.367432	0.036377
662.0	8.550932	3.476104	5.9719	-0.31664	0.209417	0.274205	0.222656	0.36084	0.04126
663.0	7.966435	3.754176	6.717291	-0.298599	0.486962	0.391845	0.229004	0.361084	0.031982
664.0	6.725139	3.789126	8.858973	-0.236612	0.401237	0.790041	0.216309	0.356445	0.034424
665.0	5.298744	3.291049	10.539653	-0.774182	-0.513176	1.071213	0.2229	0.352295	0.030029
666.0	5.605429	0.726671	8.519244	-1.510697	-1.34975	1.233572	0.216553	0.3479	0.039063
667.0	5.972547	-1.622705	7.468405	-1.658264	-1.587046	1.158327	0.216553	0.3479	0.039063
668.0	5.191704	-1.658809	8.023065	-0.817802	-1.742259	1.082613	0.218994	0.341309	0.043945
669.0	4.768334	-0.38182	9.304551	-0.596704	-2.394372	1.05207	0.2146	0.343506	0.043701
670.0	4.595323	-0.544103	8.347154	-0.800762	-3.283565	1.101757	0.216553	0.3479	0.045898
671.0	5.874843	-1.271492	7.141999	-0.492317	-4.161969	1.018641	0.2146	0.345703	0.04834
672.0	4.217519	-0.758065	8.331332	0.738801	-4.714714	0.981161	0.216553	0.350098	0.043701
673.0	3.334487	0.506369	9.584	1.028258	-5.87236	0.937749	0.222656	0.356689	0.04126
674.0	11.683119	-1.749905	7.792457	1.593847	-6.341032	0.455476	0.22876	0.367432	0.038818
675.0	5.254925	-0.556049	8.100321	2.918219	-6.193483	0.385753	0.232666	0.380615	0.0271
676.0	20.145791	5.087116	7.898731	1.882679	-7.445638	0.922157	0.234375	0.387207	0.017822
677.0	17.686504	7.499314	10.420482	0.010889	-8.022473	1.387346	0.240967	0.389404	0.015381
678.0	16.703173	6.944626	8.36025	-0.323298	-9.004915	2.508615	0.245361	0.385254	0.013184
679.0	17.226062	8.076759	7.481311	-0.764645	-10.174935	4.374143	0.25	0.380859	0.010986
680.0	21.35812	4.353672	11.372422	-3.564607	-9.820147	4.786455	0.259521	0.361084	0.036621
681.0	26.576563	0.827501	4.368025	-2.562271	-9.229497	4.198863	0.261963	0.356934	0.050293
682.0	28.360738	5.817901	13.610228	0.510151	-6.481958	4.301715	0.258301	0.34375	0.068848
683.0	22.037215	10.396585	19.375437	2.264799	-6.142216	4.541632	0.247559	0.336914	0.08252
684.0	19.926252	17.334361	27.122618	2.824217	-5.590406	3.949918	0.240479	0.3479	0.109863
685.0	21.197675	27.751667	23.589665	3.341917	-1.731065	1.790842	0.203125	0.358398	0.148438
686.0	13.964569	29.885765	31.771418	-0.05569	2.111193	0.305933	0.156738	0.371094	0.202881
687.0	11.692594	12.857352	24.646141	-1.977778	2.80099	0.355102	0.097412	0.37915	0.250732
688.0	5.850653	4.52169	15.77794	1.29561	4.256885	0.300576	0.037598	0.400635	0.277588
689.0	5.250636	7.197451	13.851167	3.839483	4.787105	0.295988	-0.026855	0.42627	0.290771
690.0	5.29303	9.899352	10.666331	3.716786	5.169322	-0.000273	-0.092773	0.441162	0.283936
691.0	7.103109	11.658103	9.914379	3.240104	5.530679	-0.37471	-0.154541	0.456055	0.274414
692.0	9.06294	12.443394	11.077409	2.376167	6.08552	-1.019269	-0.224854	0.4646	0.258545
693.0	9.470204	9.850186	11.547844	1.696833	6.709838	-1.896901	-0.303223	0.464111	0.231201
694.0	8.435998	6.651694	9.508247	1.96172	7.130655	-2.787201	-0.365967	0.452881	0.192871
695.0	7.098608	4.705456	7.39459	2.106957	7.150173	-3.331289	-0.42627	0.435059	0.156738
696.0	6.201841	2.540264	6.017832	1.695625	6.871129	-3.348325	-0.477539	0.408691	0.116211
697.0	6.641263	0.659921	5.859882	1.449799	6.579778	-3.16575	-0.516113	0.395264	0.089111
698.0	7.466324	-0.577006	5.789308	2.03906	6.342841	-3.014129	-0.557373	0.390869	0.04834
699.0	8.223587	-0.444386	5.567277	2.762572	5.848953	-2.93288	-0.594238	0.386475	-0.008545
700.0	8.509821	1.393033	5.371607	3.337896	5.301157	-2.947525	-0.615479	0.373291	-0.07666
701.0	9.515428	4.479275	6.366696	3.529321	4.64413	-2.993292	-0.635986	0.344971	-0.128418
702.0	12.530113	7.885836	8.849373	2.615061	3.95465	-3.241038	-0.660889	0.31665	-0.166504
703.0	16.117491	8.64079	11.462138	0.724387	3.446272	-3.636903	-0.676758	0.281494	-0.202393
704.0	17.072034	4.527036	11.106108	-0.31144	3.002363	-4.096972	-0.694824	0.246582	-0.23584
705.0	17.768185	1.450072	9.5783	0.295403	2.349994	-4.539857	-0.703613	0.19873	-0.248535
706.0	18.980207	-0.533055	9.044488	0.46897	1.355478	-4.728803	-0.710449	0.157227	-0.261475
707.0	24.506288	-1.689251	10.314912	-0.536582	0.650288	-4.880485	-0.715332	0.11792	-0.267334
708.0	32.249417	-3.67809	11.164576	-0.616474	1.282824	-4.888277	-0.713623	0.078613	-0.278076
709.0	26.453341	-6.697777	7.181997	0.505033	0.487091	-3.716109	-0.714111	0.041504	-0.275146
710.0	29.66353	-12.678059	4.695264	-1.679737	0.111004	-5.124525	-0.708008	0.002197	-0.283447
711.0	38.182393	-13.886526	-0.043038	1.129876	2.674968	-5.455123	-0.687988	-0.056396	-0.302734
712.0	24.152934	-11.02914	-4.274916	3.907506	4.106183	-4.946167	-0.655518	-0.099854	-0.317871
713.0	16.067468	-15.104826	-9.174325	2.083168	2.31627	-3.484587	-0.63916	-0.121582	-0.312988
714.0	19.241206	-20.777477	-19.090899	-1.781285	-0.516225	-1.651355	-0.630615	-0.117188	-0.303955
715.0	26.781331	-27.115955	-26.075707	-0.991952	-0.187745	-0.976541	-0.621826	-0.119385	-0.29248
716.0	24.528228	-23.852057	-25.343527	2.727365	1.74372	-0.473372	-0.616699	-0.136719	-0.30127
717.0	17.88053	-16.418708	-15.615659	2.446478	1.825651	0.38898	-0.60791	-0.136719	-0.30127
718.0	20.231479	-14.518527	-10.028854	-1.701446	0.238988	0.976225	-0.608643	-0.121582	-0.299316
719.0	25.581405	-16.206529	-10.808497	-3.231382	0.413058	1.619107	-0.607178	-0.106201	-0.313232
720.0	21.957359	-22.981367	-10.953814	-3.77038	-0.209389	4.036709	-0.609131	-0.0625	-0.307373
721.0	-3.729095	-15.231749	-28.415227	-2.831172	-2.239108	5.305422	-0.616455	-0.042969	-0.303223
722.0	26.033158	26.001189	15.737239	10.130744	-2.469864	5.473685	-0.611816	-0.053711	-0.346191
723.0	26.655005	28.842103	27.288367	5.040328	3.925344	3.022428	-0.622314	-0.05835	-0.300537
724.0	-7.901203	8.281844	-2.294878	-2.972126	-9.159288	1.469802	-0.643066	-0.034668	-0.237305
725.0	9.472995	3.676184	-3.036134	-11.16299	-10.204766	0.455342	-0.653076	-0.006348	-0.189941
726.0	78.560965	-12.642111	34.164305	-11.749451	2.667549	4.483187	-0.631348	0.046387	-0.240967
727.0	3.221578	-39.084964	-6.534969	-3.482477	3.996341	2.651153	-0.635498	0.039551	-0.222656
728.0	5.354733	-5.7035	-3.325665	10.554986	-5.875022	-2.528474	-0.646973	0.002441	-0.217285
729.0	13.918399	12.939319	9.436082	5.026063	3.910848	0.7434	-0.635742	-0.001709	-0.237793
730.0	3.397177	8.306018	12.931125	-1.588403	0.912809	-0.145344	-0.638428	0.006836	-0.240234
731.0	4.825299	-1.358357	10.249056	-3.86938	-0.992868	0.229604	-0.640869	0.015625	-0.233643
732.0	8.34214	-4.424608	4.314788	-0.249629	-1.01242	-0.177419	-0.645508	0.017822	-0.224609
733.0	8.990131	2.687135	4.307335	2.707853	-0.621871	-0.189878	-0.640625	0.009033	-0.229004
734.0	8.417198	5.209783	5.563913	0.36496	0.25298	-0.073553	-0.64502	0.01123	-0.231201
735.0	7.427326	0.931515	6.455725	-1.248422	0.233568	-0.053892	-0.640625	0.009033	-0.226563
736.0	6.640962	-1.138922	7.138158	0.376711	-0.029678	-0.160932	-0.642822	0.009033	-0.231201
737.0	7.233386	2.382199	7.068649	1.230774	-0.40587	-0.241667	-0.64502	0.009033	-0.224365
738.0	7.426674	2.701258	5.874611	0.10325	-0.575358	-0.222512	-0.656006	0.009033	-0.219727
739.0	8.109046	0.90798	5.479028	0.065298	-0.357858	-0.244621	-0.642578	0.002441	-0.226563
740.0	7.71525	1.551282	6.12248	0.877788	-0.179229	-0.284514	-0.646729	0.000244	-0.22876
741.0	7.446095	2.751179	6.751668	0.632925	-0.305887	-0.243383	-0.646729	0.000244	-0.226563
742.0	7.600034	2.203875	6.375324	0.224097	-0.467915	-0.219071	-0.646729	-0.00415	-0.219482
743.0	8.051558	2.479089	5.793744	0.459433	-0.424936	-0.196608	-0.648926	0.000244	-0.221924
744.0	8.247025	3.582863	5.667697	0.497881	-0.271049	-0.109189	-0.648926	-0.001953	-0.219482
745.0	8.377808	4.008983	5.592975	0.205839	-0.093176	0.048939	-0.655518	-0.001953	-0.219482
746.0	8.261266	3.469873	5.603506	0.045661	0.05573	0.247377	-0.648926	-0.001953	-0.224121
747.0	8.16416	3.051327	5.727456	-0.045346	0.111093	0.390772	-0.657715	0.002441	-0.230957
748.0	8.186491	2.824403	5.816242	-0.07016	0.169357	0.49544	-0.653809	0.01123	-0.233398
749.0	8.229477	2.471305	5.972696	-0.140825	0.217066	0.564545	-0.673584	0.015381	-0.229004
750.0	8.115416	1.773458	5.97318	-0.235099	0.336975	0.534521	-0.695068	0.006592	-0.217529
751.0	7.897776	0.939321	6.231069	-0.175568	0.469497	0.36715	-0.689209	-0.026123	-0.2146
752.0	7.165766	0.52641	5.987205	-0.008703	0.667387	0.075856	-0.668945	-0.039063	-0.230225
753.0	7.434124	1.869612	6.240057	0.07289	0.530959	0.114781	-0.654053	-0.032471	-0.237305
754.0	7.451054	2.374172	6.955584	-0.005393	0.472648	0.195967	-0.646484	-0.008301	-0.242188
755.0	6.991894	1.60319	6.748862	-0.698104	0.282495	0.126252	-0.642334	-0.001709	-0.246826
756.0	7.293277	1.159139	6.339957	-0.769754	0.167257	0.064076	-0.644775	0.002441	-0.244629
757.0	7.667744	1.241828	6.069461	-0.572492	0.193065	-0.002826	-0.651367	0.006836	-0.24707
758.0	7.924033	1.959238	6.162529	-0.444526	0.205209	-0.018835	-0.651611	0.01123	-0.249512
759.0	7.500704	1.82251	6.155848	-0.680602	0.346286	0.037059	-0.647217	0.009033	-0.24707
760.0	7.718813	2.061056	6.484584	-0.565329	0.376079	0.097193	-0.649902	0.017822	-0.256348
761.0	8.239433	2.903857	6.805205	-0.388492	0.296001	0.186452	-0.649658	0.015625	-0.260986
762.0	8.144894	4.066541	6.337823	-0.472618	0.193617	0.356959	-0.647705	0.017822	-0.263184
763.0	7.898268	5.058516	7.455985	-0.525028	0.517245	0.578744	-0.645752	0.022217	-0.263428
764.0	5.67943	3.657843	9.420598	-1.037075	-0.082695	1.05662	-0.654541	0.028809	-0.265869
765.0	4.823353	0.486205	9.078137	-1.994939	-0.856656	1.081536	-0.650879	0.039551	-0.254639
766.0	5.439019	-1.822055	7.729015	-1.821933	-1.379061	0.949439	-0.655518	0.04834	-0.240967
767.0	5.807274	-1.255085	7.532345	-0.737361	-1.573579	0.876365	-0.664551	0.054688	-0.241211
768.0	4.933806	0.244302	9.048101	-0.462261	-1.970724	0.923022	-0.660645	0.065674	-0.225342
769.0	4.600575	0.91383	9.554158	-0.798671	-2.836291	1.007007	-0.665283	0.072266	-0.198242
770.0	5.637063	-0.80621	8.294014	-0.867961	-3.965224	1.033594	-0.670166	0.080811	-0.180176
771.0	5.501101	-0.090259	6.636789	0.251805	-4.660253	0.895701	-0.674561	0.084961	-0.150635
772.0	2.023381	1.851609	10.639735	1.185535	-5.613985	1.115876	-0.672852	0.09375	-0.105225
773.0	9.50709	-1.257412	10.587881	1.21052	-6.501519	0.426952	-0.672852	0.093506	-0.066406
774.0	8.595627	2.781978	8.38482	2.615345	-6.433061	1.043169	-0.668945	0.106689	-0.030273
775.0	19.357833	8.233164	12.681181	0.686895	-7.651003	1.879365	-0.660645	0.117432	0.017334
776.0	16.486055	8.705608	12.333619	-1.257065	-8.689693	2.574743	-0.635254	0.13501	0.067139
777.0	19.101438	8.189686	11.088224	-1.305892	-9.91186	3.775018	-0.597168	0.156982	0.128174
778.0	19.583428	9.546213	10.83491	-2.908555	-11.036853	5.988681	-0.55249	0.183105	0.18457
779.0	25.846237	1.071864	8.329419	-4.940856	-10.185265	6.145327	-0.493896	0.192139	0.243652
780.0	28.03196	3.876434	6.736321	-1.438078	-9.669929	5.253404	-0.44043	0.212158	0.277344
781.0	28.249851	12.853227	21.146587	1.290939	-6.866931	4.746941	-0.393311	0.236328	0.306396
782.0	23.526539	16.58042	30.047816	1.80056	-6.629569	4.992819	-0.337646	0.256348	0.317383
783.0	27.681952	25.695458	30.627514	2.199415	-2.987346	2.764689	-0.316162	0.267334	0.317139
784.0	21.915134	32.002378	29.086554	0.398438	1.877	0.511914	-0.320801	0.269531	0.3125
785.0	8.532936	18.953464	30.168455	-1.752378	3.420544	0.408823	-0.334229	0.275879	0.314697
786.0	7.07104	7.219124	16.04477	-0.348372	3.78012	0.090528	-0.347412	0.278076	0.301025
787.0	2.954702	7.780402	13.249872	2.347258	4.504485	0.006775	-0.370117	0.299805	0.286865
788.0	3.074107	8.918588	11.003694	2.325023	4.616537	-0.170331	-0.39502	0.321533	0.266113
789.0	4.23629	8.950411	9.784922	1.979023	4.927464	-0.514727	-0.429932	0.319092	0.23877
790.0	4.962529	9.018988	9.149004	2.34417	5.269263	-0.989152	-0.467041	0.319092	0.193115
791.0	5.654205	9.548616	9.070143	2.137754	5.497735	-1.582056	-0.487549	0.295166	0.12085
792.0	6.489751	8.474578	9.230601	1.558013	5.739867	-2.203061	-0.480713	0.238525	0.05127
793.0	7.947913	6.689168	9.327822	1.478155	6.02007	-2.939135	-0.418701	0.165039	-0.013428
794.0	8.78637	5.407616	8.948948	1.791852	6.300663	-3.635567	-0.307617	0.119873	-0.017334
795.0	9.489769	4.449233	8.460232	1.762051	6.490253	-4.021961	-0.200684	0.120361	0.048584
796.0	10.065668	2.685925	8.202399	1.453238	6.590946	-4.001285	-0.155518	0.183594	0.129395
797.0	10.122068	0.881558	8.169665	1.526213	6.64589	-3.822624	-0.171387	0.244629	0.180664
798.0	11.248076	0.118297	8.546081	2.170662	6.606032	-3.606431	-0.20166	0.290283	0.195801
799.0	11.059745	0.070928	7.85267	2.831776	6.405676	-3.352746	-0.239746	0.30957	0.188477
800.0	10.486041	0.230311	6.535285	3.130211	5.604205	-3.033028	-0.256104	0.333496	0.172119
801.0	12.890009	2.26675	6.816335	3.215352	4.655149	-2.911675	-0.267822	0.35083	0.178711
802.0	18.293262	6.068989	9.518596	2.98239	4.040351	-3.109887	-0.293945	0.400879	0.186768
803.0	22.856968	7.447722	11.517103	1.966822	3.799504	-3.551618	-0.362305	0.466064	0.174316
804.0	22.686649	4.651986	10.314054	1.14072	3.217264	-3.959526	-0.471191	0.51123	0.114258
805.0	24.415832	-0.091494	10.866772	0.059284	2.433915	-4.297483	-0.615234	0.514893	0.016357
806.0	30.070774	-6.564029	10.825107	-0.520208	2.62107	-4.951335	-0.707764	0.438477	-0.132568
807.0	32.591047	-8.814657	8.693964	2.019322	2.992711	-5.430894	-0.72168	0.307861	-0.30542
808.0	31.929737	-5.400852	10.312598	2.987558	3.001072	-5.48804	-0.624268	0.175537	-0.398682
809.0	31.752611	-7.480161	8.182174	0.286805	2.567103	-5.241815	-0.497314	0.119629	-0.408936
810.0	22.605209	-15.756282	-3.472555	-2.109614	1.084845	-5.063693	-0.412842	0.133057	-0.350098
811.0	20.224823	-22.409872	-23.304512	-2.237925	-1.244047	-4.59307	-0.376953	0.161377	-0.26416
812.0	25.494514	-25.413075	-37.105405	3.176042	-2.429649	-1.944673	-0.386963	0.185303	-0.203125
813.0	36.567544	-24.688295	-23.006858	2.700955	-0.691251	-1.065104	-0.394287	0.207031	-0.157959
814.0	25.592654	-24.774429	-27.546169	-2.041486	2.245665	-1.230859	-0.422119	0.243896	-0.135742
815.0	19.578145	-22.070818	-19.529732	-1.369483	1.878444	0.347233	-0.436523	0.27417	-0.113525
816.0	26.894014	-18.126537	-3.312131	-1.079921	1.080571	1.452715	-0.448486	0.298096	-0.088867
817.0	24.047398	-17.899824	-1.811677	-2.746254	0.74234	1.610988	-0.45166	0.319824	-0.064453
818.0	20.255126	-16.614672	-7.427328	-2.47924	-0.115122	1.888322	-0.455322	0.350342	-0.0354
819.0	12.804339	-17.227818	-6.372115	-2.973253	-2.717504	4.188701	-0.430908	0.391846	0.004883
820.0	-5.731095	8.986876	-18.503781	3.519933	-1.589868	2.93652	-0.417236	0.428955	-0.025391
821.0	17.527898	59.938936	65.257668	13.769277	7.100001	4.002251	-0.4104	0.466309	-0.053711
822.0	-2.578898	27.282119	-4.637618	3.185024	-9.857886	4.201411	-0.422119	0.487793	0.034912
823.0	-8.916687	-4.798841	-20.296116	-16.075141	-13.458541	1.69267	-0.42627	0.48291	0.205811
824.0	54.527461	-18.927368	-20.477883	-17.403649	-7.490224	-2.461931	-0.435059	0.48291	0.251465
825.0	23.865167	-27.363841	-1.606854	0.60395	7.827625	3.626103	-0.432129	0.515625	0.218994
826.0	18.164811	-8.823399	81.979996	4.703347	-0.675983	2.374867	-0.426514	0.539795	0.216064
827.0	19.271005	-3.096513	-14.705273	5.971699	-10.432048	1.612769	-0.409424	0.543945	0.259277
828.0	12.252602	1.007906	-21.860834	-3.858225	-1.936281	-1.745411	-0.419922	0.535156	0.268799
829.0	25.319414	8.909361	0.197024	-0.052869	6.254546	1.106426	-0.422119	0.537598	0.227539
830.0	-2.634723	-5.014157	15.742245	-1.218604	6.405054	0.739723	-0.42627	0.531006	0.205078
831.0	-7.191806	-2.01885	20.762254	0.45103	-1.109482	-0.382953	-0.424316	0.5354	0.21167
832.0	12.061897	3.744996	6.45052	0.988282	-2.945534	-0.286191	-0.420166	0.541992	0.225342
833.0	9.30318	3.173251	-0.455926	-0.130585	-1.306452	-0.187107	-0.419678	0.533203	0.22998
834.0	11.183893	2.446934	2.057332	-0.549776	0.924269	0.048038	-0.421875	0.533203	0.223145
835.0	6.95449	0.263999	6.327885	0.022903	1.881039	0.050084	-0.426514	0.5354	0.209473
836.0	5.059131	1.656947	11.396088	0.876284	0.615126	-0.049934	-0.422363	0.544189	0.209229
837.0	6.724352	3.523331	7.755014	0.061699	-0.804755	-0.055452	-0.424316	0.537598	0.218506
838.0	8.550555	2.182793	4.759519	-0.735979	-0.732347	0.040437	-0.426514	0.539551	0.2229
839.0	8.626073	0.461322	4.254439	-0.172241	0.112899	0.043432	-0.424316	0.537598	0.218506
840.0	7.541395	1.324831	6.321186	0.620278	0.54771	0.005453	-0.422363	0.544189	0.209229
841.0	6.97149	2.839571	7.736924	0.496333	0.251701	0.03711	-0.422363	0.539795	0.207031
842.0	7.236383	2.97693	7.003203	-0.156959	-0.161268	0.069803	-0.417969	0.541992	0.204834
843.0	8.133183	2.452647	5.815357	-0.370107	-0.168756	0.137949	-0.417969	0.539795	0.207031
844.0	8.038568	1.878099	5.711607	-0.205992	0.087196	0.18727	-0.422607	0.546387	0.202393
845.0	7.673127	1.257126	5.940288	-0.237092	0.278946	0.171643	-0.422607	0.546387	0.200195
846.0	7.128505	0.759152	6.482007	-0.06099	0.322973	0.098936	-0.42041	0.546387	0.190918
847.0	7.172029	1.477262	7.108523	0.221692	0.150521	0.027658	-0.442383	0.552734	0.190918
848.0	7.168959	1.789953	6.986259	-0.055373	-0.045039	-0.001431	-0.45752	0.546143	0.209229
849.0	7.293925	1.188608	6.546964	-0.250364	-0.109269	0.001096	-0.460449	0.513184	0.214355
850.0	7.453094	0.959324	6.420476	-0.112526	-0.100624	-0.042513	-0.437744	0.49585	0.214844
851.0	7.36463	1.215779	6.441671	0.00495	-0.126712	-0.080198	-0.420898	0.509277	0.200928
852.0	7.433514	1.482783	6.371567	0.00141	-0.164179	-0.088012	-0.416992	0.518066	0.202881
853.0	7.692395	1.763822	6.354685	-0.083391	-0.1375	-0.096487	-0.410889	0.531006	0.200439
854.0	7.848752	1.85279	6.103424	-0.211485	-0.084101	-0.111724	-0.417725	0.533203	0.209473
855.0	8.11891	2.055996	5.899179	-0.233216	0.06179	-0.086706	-0.417725	0.533203	0.209473
856.0	8.338942	2.74554	5.885973	-0.152846	0.226083	-0.077693	-0.417725	0.533203	0.207275
857.0	8.368102	3.463496	5.857752	-0.263172	0.420956	0.03015	-0.413574	0.537598	0.207031
858.0	8.269265	3.643685	6.364904	-0.432475	0.492249	0.281088	-0.420166	0.541992	0.197998
859.0	7.885573	3.351371	6.246902	-0.467164	0.593865	0.4752	-0.415527	0.537598	0.202637
860.0	7.910206	2.765135	7.148295	-0.451677	0.452147	0.765171	-0.408936	0.5354	0.200195
861.0	6.640474	3.525257	8.032333	-0.400303	0.361984	0.834166	-0.411133	0.533203	0.188965
862.0	6.013635	2.433093	9.362487	-0.517212	-0.204711	1.240318	-0.404541	0.535645	0.186523
863.0	5.351271	-0.499584	8.062647	-1.478956	-1.087038	1.320632	-0.400391	0.537598	0.202637
864.0	6.357274	-1.647824	6.748977	-1.111883	-1.367273	1.241969	-0.400391	0.537598	0.204834
865.0	6.407632	0.266619	7.868321	0.323253	-1.118522	1.214909	-0.394043	0.540039	0.204834
866.0	4.301782	1.082833	9.966478	-0.064662	-1.576034	1.25547	-0.38501	0.537842	0.204834
867.0	4.441835	1.232823	9.700504	-0.908619	-2.702216	1.285286	-0.385498	0.546387	0.213623
868.0	5.994037	0.337912	8.431113	-0.842386	-3.531994	1.370038	-0.374268	0.540039	0.239014
869.0	6.124439	-0.358831	6.556385	-0.218731	-4.2426	1.243659	-0.365967	0.546631	0.247803
870.0	4.312916	2.148182	8.537529	0.966738	-4.902275	1.500442	-0.353271	0.555176	0.270508
871.0	7.733071	0.553343	12.691016	0.429644	-6.184809	1.625184	-0.342041	0.551025	0.28418
872.0	5.788934	1.529634	7.297347	2.039459	-5.654183	0.983672	-0.32959	0.566406	0.290771
873.0	17.395989	6.455598	10.053126	1.177787	-6.687827	2.189791	-0.312012	0.564209	0.304443
874.0	18.189376	6.559215	13.889498	-1.393497	-7.557463	3.053325	-0.279053	0.555664	0.334229
875.0	16.0118	5.41324	10.492941	-1.271905	-8.814193	3.468397	-0.25	0.540527	0.352783
876.0	19.009952	8.753369	10.797958	-1.340285	-10.103894	4.791374	-0.201416	0.529785	0.386963
877.0	19.565136	5.837042	9.367846	-3.854418	-10.319546	6.067463	-0.156738	0.503906	0.417236
878.0	28.276495	-0.505847	6.251357	-3.123072	-9.572982	5.766657	-0.112061	0.482178	0.442627
879.0	28.614937	6.876745	14.325894	0.751979	-7.859999	4.925799	-0.085693	0.478027	0.435791
880.0	24.400454	16.936841	26.849758	2.311914	-6.678921	5.213384	-0.061523	0.473877	0.447266
881.0	22.138659	21.700934	31.929028	0.31881	-6.048173	4.907379	-0.062988	0.458496	0.456543
882.0	29.167915	30.240545	23.714314	1.855866	-1.809926	1.708159	-0.102539	0.460449	0.461182
883.0	13.982135	32.206589	31.29099	-0.681013	3.238556	-0.585862	-0.164795	0.437988	0.484619
884.0	9.115969	17.063444	25.723798	-3.548388	2.719141	-0.794435	-0.226318	0.400635	0.505859
885.0	6.061169	4.567036	15.254606	-2.025599	3.56932	-1.167623	-0.288818	0.384766	0.513184
886.0	3.479868	2.632519	13.149597	1.373917	4.394972	-1.121395	-0.360352	0.37793	0.50415
887.0	4.267916	4.728636	12.66209	2.329123	4.72945	-1.381682	-0.421143	0.366699	0.479492
888.0	5.400031	5.607775	11.951184	2.342378	5.177421	-1.524754	-0.483887	0.359863	0.449951
889.0	6.256543	5.722942	11.487863	2.512761	5.687537	-1.745575	-0.544678	0.35083	0.411377
890.0	6.673916	5.9517	11.29157	2.33883	6.152191	-2.139489	-0.607666	0.343994	0.359375
891.0	6.513068	5.322665	10.414938	2.142783	6.39274	-2.573085	-0.652344	0.319824	0.307373
892.0	7.39719	4.433052	9.573819	1.97654	6.514051	-3.000746	-0.681885	0.295654	0.248535
893.0	8.418721	3.555344	8.97122	1.873821	6.60605	-3.267789	-0.702393	0.267334	0.19458
894.0	9.56477	2.778508	9.08305	1.703648	6.756498	-3.39188	-0.717529	0.265137	0.153564
895.0	9.730408	1.648984	8.851075	1.791595	6.88241	-3.444142	-0.722168	0.271729	0.096436
896.0	10.373855	1.460785	9.040027	2.260898	6.885799	-3.490601	-0.73584	0.282959	0.020996
897.0	9.774338	1.250716	7.936415	2.704898	6.610046	-3.401673	-0.733643	0.282959	-0.058838
898.0	9.160917	1.052519	6.26412	2.825983	5.868643	-3.122856	-0.715576	0.272461	-0.113281
899.0	11.384935	2.109437	6.749261	2.730821	4.962816	-2.886375	-0.710938	0.261719	-0.15625
900.0	15.48501	4.421974	8.481375	2.562177	4.427126	-2.977314	-0.702148	0.259521	-0.195068
901.0	18.87108	5.962836	11.026267	2.386118	4.056426	-3.323665	-0.697021	0.242188	-0.224365
902.0	21.292662	6.153413	12.086391	1.712507	3.471173	-3.759042	-0.696045	0.224854	-0.23999
903.0	22.671238	4.768445	11.521679	0.949493	2.551202	-4.000464	-0.695801	0.218262	-0.249023
904.0	25.304621	-0.380688	12.10728	-1.015869	1.689887	-4.071929	-0.706543	0.216064	-0.241943
905.0	30.071254	-7.622943	9.942815	-1.918341	1.838252	-4.489837	-0.715088	0.21167	-0.253418
906.0	32.793498	-11.574027	7.187027	0.492174	2.361692	-4.544972	-0.731689	0.191895	-0.273438
907.0	33.543305	-10.800402	7.894693	2.00339	2.799645	-4.437444	-0.743652	0.165771	-0.295654
908.0	33.704843	-11.62421	6.578906	1.163126	3.159546	-4.411285	-0.753418	0.141846	-0.320313
909.0	28.424841	-14.3569	-0.604662	0.605595	2.950528	-4.607587	-0.765381	0.113281	-0.344727
910.0	17.713945	-18.553976	-14.897714	0.591877	1.345872	-4.434188	-0.761963	0.087158	-0.3396
911.0	17.697708	-27.290979	-36.169869	1.73243	-0.210912	-2.067791	-0.774658	0.076172	-0.3396
912.0	21.285895	-27.701726	-42.600556	5.248132	-2.399653	-0.707052	-0.786865	0.058594	-0.320801
913.0	34.180258	-16.647803	-15.395354	1.907061	-2.158696	-0.230598	-0.793457	0.058594	-0.323242
914.0	31.396199	-17.978402	-15.778724	-3.446335	1.861527	-0.176868	-0.792236	0.080322	-0.343994
915.0	18.407612	-18.050721	-15.835296	-1.504694	1.99625	0.949763	-0.79248	0.089111	-0.360352
916.0	21.028831	-14.148878	-4.055016	-0.531063	0.590352	1.506283	-0.791016	0.100098	-0.358154
917.0	18.526842	-10.108275	-6.372549	-0.654499	-1.316944	1.125709	-0.800049	0.11084	-0.346924
918.0	19.736132	-5.375828	-11.64865	0.726065	-2.788047	1.265953	-0.804443	0.113037	-0.331055
919.0	14.2383	3.320548	1.16631	-1.390664	-2.110838	2.735222	-0.803955	0.145752	-0.347656
920.0	-4.206094	24.773971	2.922056	0.956893	6.634888	0.925768	-0.779297	0.133057	-0.436279
921.0	-15.268722	44.138012	65.921679	4.106133	-0.755058	4.722789	-0.787354	0.165527	-0.35498
922.0	0.869787	7.030182	-9.825408	-1.05162	-16.292431	4.0196	-0.819336	0.202148	-0.180176
923.0	6.638666	-12.884827	-51.409604	-16.499982	-14.486925	-1.647381	-0.828613	0.210449	-0.061768
924.0	76.491549	-17.604131	-3.279049	-7.124096	2.425454	0.487596	-0.820557	0.226074	-0.139648
925.0	0.893657	-21.736304	26.608112	-1.98226	6.011273	2.796861	-0.814697	0.243652	-0.178711
926.0	24.405832	-15.085315	57.037348	1.655517	-1.521284	2.995161	-0.811035	0.260742	-0.105957
927.0	13.590957	0.470681	-16.263374	7.479795	-13.365124	-0.00663	-0.815186	0.251953	-0.05127
928.0	23.573235	8.090084	-27.929315	-2.15849	3.001327	-0.082967	-0.810791	0.25415	-0.090088
929.0	17.263173	5.197923	6.001608	-3.1503	8.633651	1.125502	-0.811523	0.267578	-0.163086
930.0	-9.586523	-4.520076	24.406211	-2.149317	5.003806	0.497641	-0.800537	0.269775	-0.188232
931.0	-1.000259	-1.820358	14.20907	0.273758	-1.462139	0.159944	-0.809082	0.265381	-0.158447
932.0	12.423815	2.859679	5.094299	1.077334	-2.801703	-0.027677	-0.807129	0.267578	-0.142578
933.0	9.258535	2.655582	0.258064	0.342712	-0.333574	0.268444	-0.807129	0.269775	-0.149414
934.0	10.473649	3.202585	3.453123	-0.8393	1.483078	0.349059	-0.807373	0.27417	-0.161133
935.0	8.027989	0.96118	6.578975	-1.211852	2.492774	0.343374	-0.798828	0.276367	-0.183838
936.0	3.043738	-0.383198	11.515604	-0.641852	1.342237	0.290209	-0.801025	0.280762	-0.183838
937.0	4.982937	-1.191987	8.116843	-0.381314	-0.553461	0.071364	-0.803467	0.285156	-0.174805
938.0	7.905213	0.017101	5.454591	0.515536	-0.73371	-0.059426	-0.798584	0.271973	-0.167725
939.0	7.938416	1.59288	5.564747	0.569515	-0.062289	-0.094596	-0.800781	0.27417	-0.177002
940.0	7.42724	1.987197	6.445093	0.00059	0.300918	-0.098129	-0.801025	0.278564	-0.177002
941.0	7.020925	1.447874	7.22225	-0.199107	0.22308	-0.08599	-0.796631	0.276367	-0.183838
942.0	7.13302	1.121348	6.881171	-0.005452	-0.111902	-0.089014	-0.801025	0.280762	-0.186279
943.0	7.669614	1.673055	6.432927	0.142591	-0.208077	-0.100415	-0.803223	0.276367	-0.183838
944.0	7.76497	2.119068	6.17514	0.048362	-0.064509	-0.057806	-0.803223	0.276367	-0.181641
945.0	7.742893	2.068882	6.207537	-0.223209	0.092298	-0.021953	-0.807861	0.282959	-0.186279
946.0	7.762222	1.858924	6.267825	-0.198001	0.193937	0.049902	-0.818848	0.284912	-0.184082
947.0	7.545322	1.704021	6.529413	-0.169234	0.239767	0.080471	-0.83374	0.27832	-0.179199
948.0	7.420789	1.689886	6.747788	-0.182823	0.262597	0.114331	-0.826416	0.258789	-0.176758
949.0	7.348642	2.061488	7.058078	-0.261596	0.303163	0.07873	-0.812744	0.250244	-0.18335
950.0	6.920346	1.576013	7.335853	-0.453428	0.186332	0.199363	-0.800293	0.26123	-0.188232
951.0	6.783818	0.720225	6.944727	-0.7607	0.007214	0.14842	-0.794189	0.272217	-0.190674
952.0	7.000479	0.270011	6.601934	-0.596912	0.024874	0.101291	-0.799072	0.280762	-0.183838
953.0	7.325239	0.762767	6.653218	-0.205216	0.025382	0.048271	-0.803223	0.278564	-0.188477
954.0	7.417628	1.86964	6.569616	-0.131269	0.098823	0.05926	-0.794678	0.285156	-0.188477
955.0	7.524266	1.909731	6.884545	-0.281655	0.100065	0.186482	-0.79248	0.282959	-0.190918
956.0	7.54603	1.484474	6.58322	-0.464687	0.088552	0.213606	-0.790283	0.282959	-0.190918
957.0	7.979408	1.889392	6.578579	-0.182014	0.130214	0.304449	-0.801514	0.291748	-0.193359
958.0	7.933722	2.556196	6.998975	0.09785	0.193405	0.452514	-0.792725	0.287354	-0.195557
959.0	7.089086	2.465675	7.542705	-0.253529	0.111352	0.588165	-0.797363	0.293945	-0.200195
960.0	6.306937	2.920999	9.119406	-0.566844	-0.032455	0.769873	-0.795654	0.302734	-0.195801
961.0	5.756604	0.350181	9.302065	-1.054945	-0.741634	1.057858	-0.793945	0.313477	-0.191406
962.0	5.657189	-1.864758	7.054385	-0.94793	-1.22972	1.178383	-0.790039	0.324463	-0.17334
963.0	5.344307	-1.49111	7.561965	0.051229	-1.424883	1.123064	-0.792236	0.32666	-0.166504
964.0	5.108128	0.655191	9.880242	0.114167	-1.726937	1.047636	-0.792969	0.341797	-0.15332
965.0	4.50667	1.103207	9.995341	-0.611549	-2.2297	0.975802	-0.788574	0.343994	-0.130615
966.0	4.080344	0.087199	8.950049	-0.881669	-3.036409	1.092602	-0.786865	0.352783	-0.101074
967.0	5.62846	-0.631289	8.299824	-0.400861	-4.011923	1.109503	-0.787354	0.363525	-0.073975
968.0	4.556173	0.28995	8.247067	0.560895	-4.725045	1.024406	-0.78125	0.374268	-0.040039
969.0	1.198215	0.914673	10.369254	1.137529	-5.892647	1.0969	-0.777344	0.385254	0.005371
970.0	12.553399	-2.627734	8.690726	1.73603	-6.441417	0.637275	-0.770752	0.383057	0.039551
971.0	7.918408	1.135349	9.144615	3.442227	-6.246552	0.86074	-0.751709	0.395996	0.073486
972.0	17.846638	8.738651	13.127592	1.302558	-7.840678	1.630901	-0.724365	0.415771	0.118652
973.0	17.041542	9.179988	13.549608	-1.47424	-9.014642	2.605896	-0.694092	0.422363	0.189209
974.0	19.357221	8.19565	11.954295	-1.520066	-10.199389	3.869404	-0.63623	0.44873	0.250244
975.0	22.64411	12.273339	12.901673	-2.736756	-11.418107	6.016659	-0.565186	0.466553	0.333984
976.0	25.181832	3.293116	10.925874	-6.176972	-10.668256	6.230197	-0.484619	0.471191	0.399902
977.0	25.673357	0.280282	6.518693	-1.910805	-9.775874	5.114874	-0.406982	0.489014	0.436035
978.0	26.005817	9.534473	20.259426	3.771404	-7.472733	4.607906	-0.343018	0.526611	0.4375
979.0	24.22663	16.658905	30.354106	4.207738	-7.056441	4.564146	-0.287598	0.555176	0.43457
980.0	28.057603	25.060362	24.678037	4.01045	-4.369932	2.176553	-0.273682	0.581543	0.422607
981.0	26.976002	36.227246	24.358803	1.766426	1.54325	-0.461637	-0.308838	0.590088	0.406494
982.0	8.034063	22.789025	30.855329	-2.045112	3.324853	-0.096575	-0.334717	0.583496	0.424805
983.0	8.343956	6.229346	16.87856	-2.648278	2.988331	-0.162251	-0.367676	0.585449	0.424805
984.0	4.196202	0.807775	10.432452	1.361274	4.054596	-0.161914	-0.409668	0.600342	0.39502
985.0	3.341539	4.108166	10.150544	3.622224	4.462504	-0.586154	-0.45166	0.613281	0.351563
986.0	4.368703	7.709354	10.205091	3.712224	4.78248	-0.953917	-0.498047	0.626221	0.308105
987.0	5.007982	8.661961	9.092508	3.179242	5.100267	-1.364117	-0.548096	0.621826	0.262695
988.0	4.951731	8.837266	8.826667	2.475747	5.515728	-1.849686	-0.597656	0.606201	0.221924
989.0	4.986194	7.837344	8.986377	1.694788	5.63309	-2.326734	-0.642578	0.59082	0.176758
990.0	6.473774	6.316671	8.854359	1.171055	5.718949	-2.828696	-0.67627	0.562256	0.134033
991.0	6.648121	3.985861	7.860229	1.010384	5.917445	-3.264007	-0.718262	0.522949	0.09375
992.0	6.229821	1.987575	7.140016	1.096339	5.897576	-3.4481	-0.747559	0.496582	0.055664
993.0	6.96588	0.843817	7.470555	1.453526	5.772989	-3.433789	-0.781494	0.474609	0.017334
994.0	8.385179	0.957531	8.624529	2.188848	5.753255	-3.462866	-0.809082	0.459229	-0.037109
995.0	9.931039	2.33861	9.977046	2.796978	5.803305	-3.555005	-0.83667	0.441895	-0.10498
996.0	10.737109	3.446834	10.368633	2.874856	5.787007	-3.596829	-0.850098	0.400391	-0.17041
997.0	11.356251	3.190223	10.136412	2.530383	5.596547	-3.530264	-0.859375	0.365723	-0.224365
998.0	12.612832	2.802499	10.087117	2.306941	5.341936	-3.52198	-0.866455	0.324219	-0.278076
999.0	14.181374	3.178806	10.073461	2.356314	4.994491	-3.614308	-0.875732	0.289307	-0.313965
1000.0	15.41612	3.435154	9.945149	2.104656	4.361881	-3.798085	-0.877686	0.237061	-0.351563
1001.0	16.972642	2.306768	9.75671	1.313221	3.607793	-4.041802	-0.882324	0.193359	-0.378174
1002.0	20.248763	-0.521043	10.441342	0.677809	2.905754	-4.340102	-0.875977	0.149902	-0.390869
1003.0	27.165184	-2.457891	12.727529	0.261258	2.743421	-4.617991	-0.878418	0.106201	-0.410645
1004.0	30.018489	-5.473784	13.050014	0.392504	3.068297	-4.74514	-0.863281	0.05835	-0.432373
1005.0	29.602572	-9.3826	12.623462	0.232803	3.305247	-4.899126	-0.856445	0.006104	-0.456543
1006.0	31.938034	-13.630995	12.464483	-0.285344	3.408955	-4.888886	-0.840088	-0.022217	-0.471924
1007.0	31.791915	-17.318591	8.888012	-0.30985	3.256752	-4.650368	-0.825195	-0.061279	-0.482666
1008.0	27.74794	-16.549296	0.905595	-0.106868	1.50267	-4.174403	-0.814941	-0.096191	-0.470459
1009.0	19.989906	-19.63918	-16.138064	-0.152696	-2.346109	-3.314845	-0.824463	-0.122559	-0.424316
1010.0	24.047933	-26.447115	-44.435235	2.813287	-3.313386	-1.299232	-0.828125	-0.140137	-0.387695
1011.0	33.675435	-25.207669	-44.875659	4.589855	-1.641439	-0.292762	-0.831543	-0.162109	-0.373535
1012.0	33.379981	-15.447092	-27.056984	-0.618366	1.908898	-1.350091	-0.820801	-0.159668	-0.398682
1013.0	20.578658	-15.45368	-19.205493	-1.865203	2.100355	-0.277998	-0.812012	-0.159668	-0.414551
1014.0	23.284621	-12.980456	-6.308428	-1.645209	1.00414	0.656477	-0.810303	-0.146484	-0.428467
1015.0	22.852675	-12.660563	-3.335522	-2.260962	0.032945	0.967703	-0.817383	-0.135498	-0.430908
1016.0	19.397861	-19.89096	-5.613573	-4.295361	-2.196766	2.784779	-0.825928	-0.092041	-0.418213
1017.0	-6.325498	-5.338237	-18.084118	-4.015853	-2.281135	3.276549	-0.837891	-0.070313	-0.429932
1018.0	18.910921	33.023591	44.707826	11.621117	7.055613	4.030252	-0.805664	-0.104736	-0.479492
1019.0	0.223474	28.739241	18.582521	7.82997	-5.35418	4.262422	-0.849365	-0.103271	-0.358643
1020.0	-9.934946	5.544561	-13.757245	-5.561735	-14.499269	3.348056	-0.882813	-0.03833	-0.227783
1021.0	25.538633	-3.38772	-24.301678	-18.973175	-12.373833	-1.316006	-0.876953	-0.020996	-0.198486
1022.0	54.66615	-22.630838	-2.502632	-5.199415	4.945902	2.406021	-0.874023	0.007813	-0.271973
1023.0	27.347434	-29.682194	61.157183	4.758337	8.701981	4.498469	-0.863037	0.007813	-0.29248
1024.0	11.817384	10.998087	8.877686	6.36442	-7.342444	-0.917906	-0.875732	-0.001221	-0.237549
1025.0	3.441464	3.68582	-11.877727	-2.824226	-3.112451	0.66564	-0.880615	0.011963	-0.210449
1026.0	20.090557	2.66489	-0.869834	-3.92243	1.277847	0.378295	-0.876709	0.018555	-0.242432
1027.0	9.476353	-4.403038	1.989561	-1.253349	4.977388	0.521879	-0.86792	0.018799	-0.297119
1028.0	-3.284864	-2.205348	17.701292	1.888736	2.35558	-0.014101	-0.861084	0.012207	-0.303955
1029.0	5.750755	4.640379	13.023103	0.968807	-1.193062	-0.163727	-0.865234	0.007813	-0.278809
1030.0	8.092178	3.550378	4.034837	-0.686285	-1.843319	-0.083332	-0.867676	0.014404	-0.269775
1031.0	10.029036	0.971212	2.628105	-0.98694	-0.410048	0.044796	-0.869873	0.01416	-0.271973
1032.0	8.402791	-0.117544	4.144165	0.170114	1.004383	-0.014539	-0.865723	0.016602	-0.288086
1033.0	6.431948	1.315959	8.48959	0.724668	1.065961	-0.119301	-0.867432	0.01001	-0.287842
1034.0	5.56576	2.393024	9.337881	0.253184	-0.082541	-0.138339	-0.865234	0.007813	-0.290283
1035.0	7.022545	1.829137	7.062325	-0.241506	-0.777283	-0.09793	-0.871826	0.007813	-0.283203
1036.0	7.968755	1.037818	5.348708	-0.124118	-0.648027	-0.123848	-0.867676	0.012207	-0.278809
1037.0	8.03951	1.501044	5.37701	0.392335	-0.131572	-0.186111	-0.869385	0.001221	-0.276367
1038.0	7.705374	2.267539	6.295033	0.398062	0.162693	-0.164027	-0.86499	0.003418	-0.281006
1039.0	7.331657	2.667492	6.900305	0.303147	0.14254	-0.094645	-0.869629	0.005615	-0.285645
1040.0	7.219849	2.63579	6.875537	0.079162	-0.030758	-0.028871	-0.871826	0.01001	-0.278809
1041.0	7.653122	2.612058	6.305003	-0.067799	-0.102685	0.026187	-0.869385	0.003418	-0.290039
1042.0	7.78317	2.623231	5.949196	-0.077566	0.000429	0.09829	-0.869629	0.01001	-0.290283
1043.0	7.773992	2.572384	6.162911	-0.138865	0.169616	0.178873	-0.881104	0.020752	-0.290527
1044.0	7.500571	2.116632	6.644512	-0.250191	0.229693	0.249171	-0.889893	0.022949	-0.292725
1045.0	7.548353	1.63019	6.881823	-0.250766	0.140086	0.254518	-0.904297	0.005371	-0.290039
1046.0	7.168455	1.873758	6.480497	-0.085311	0.123133	0.240219	-0.901367	-0.01416	-0.285156
1047.0	7.19913	1.286044	6.993017	-0.464039	0.041796	0.167725	-0.881348	-0.022949	-0.287354
1048.0	7.678734	1.161309	6.208285	-0.398238	0.075445	0.084028	-0.868896	-0.009766	-0.296631
1049.0	7.620917	1.436169	6.292596	-0.191501	0.229158	0.065135	-0.869629	0.005615	-0.301514
1050.0	7.456312	1.700522	6.505466	-0.265443	0.264524	0.06838	-0.867432	0.01001	-0.306152
1051.0	7.248932	1.586273	6.599588	-0.313811	0.331398	0.105107	-0.865967	0.020996	-0.306396
1052.0	7.190712	1.599517	6.932349	-0.274814	0.317169	0.117922	-0.86377	0.020996	-0.301758
1053.0	7.092636	1.43117	7.077098	-0.351631	0.204364	0.10621	-0.868164	0.025391	-0.311035
1054.0	7.372316	1.867853	6.821705	-0.365974	0.124231	0.061559	-0.866211	0.027588	-0.315674
1055.0	8.030116	2.735322	6.605002	-0.336085	0.097086	0.118886	-0.870605	0.027344	-0.308838
1056.0	8.265715	3.11882	6.342053	-0.330962	0.136748	0.280347	-0.864014	0.029785	-0.315674
1057.0	8.063985	3.393819	6.424936	-0.323769	0.318957	0.48068	-0.866699	0.03833	-0.324951
1058.0	7.602416	4.172003	7.727329	-0.149453	0.646572	0.682444	-0.862549	0.042725	-0.32959
1059.0	4.99282	3.183074	10.310655	-0.566051	-0.103294	1.146191	-0.869141	0.047119	-0.325195
1060.0	4.599393	0.336546	9.172911	-1.566539	-1.173243	1.19735	-0.872559	0.071045	-0.312012
1061.0	5.648131	-1.671492	6.961206	-1.537255	-1.495859	1.080881	-0.872559	0.073242	-0.29834
1062.0	5.756384	-1.195914	7.79768	-0.480919	-1.309483	0.956205	-0.872803	0.077637	-0.289307
1063.0	4.217698	0.382243	9.918334	-0.188664	-1.671185	0.948391	-0.877686	0.090576	-0.275879
1064.0	4.413814	0.83224	9.902843	-0.821138	-2.737411	1.005052	-0.884521	0.097168	-0.250977
1065.0	5.912397	0.271253	8.182023	-0.824339	-3.649791	1.094587	-0.889648	0.114502	-0.212402
1066.0	5.597475	0.560881	7.146324	-0.047227	-4.247928	1.081144	-0.894531	0.125244	-0.173828
1067.0	3.278666	1.580848	10.050938	0.563102	-5.11893	1.287554	-0.903564	0.131592	-0.128418
1068.0	7.603796	-2.126817	10.561843	0.724777	-6.00135	0.895419	-0.899414	0.135742	-0.080811
1069.0	7.653936	0.786001	7.188109	3.252188	-5.915596	0.840576	-0.892822	0.137939	-0.035156
1070.0	15.405891	8.003675	12.682255	2.032173	-7.02715	1.891175	-0.878662	0.159668	0.02832
1071.0	16.934151	8.4018	13.691647	-1.004703	-8.585153	2.872008	-0.85791	0.183594	0.098389
1072.0	16.844835	7.080394	10.973023	-1.142527	-9.816307	3.496275	-0.819824	0.214111	0.184326
1073.0	21.744502	9.301848	11.950219	-1.361438	-10.952395	5.335495	-0.764404	0.240479	0.268066
1074.0	23.513433	3.829652	11.817998	-4.507916	-10.993701	6.197018	-0.700195	0.269043	0.347168
1075.0	30.024751	1.605615	8.037238	-1.304345	-9.824107	5.425528	-0.629395	0.295654	0.401367
1076.0	27.000621	10.323326	19.583945	1.863864	-7.437738	5.026504	-0.568115	0.3396	0.432129
1077.0	21.918026	15.976002	28.360946	3.008414	-7.047956	5.369496	-0.508545	0.374756	0.461182
1078.0	22.740865	20.346227	27.884336	2.684824	-5.334603	3.91298	-0.470215	0.394775	0.465332
1079.0	30.092546	29.984451	23.003513	1.792736	-0.791905	0.691732	-0.466553	0.407959	0.453613
1080.0	8.329627	27.95853	32.169192	0.916486	3.61628	-0.134717	-0.492432	0.40332	0.442383
1081.0	8.279688	15.528872	21.348413	-1.750887	2.532741	-0.505915	-0.505127	0.394531	0.437988
1082.0	5.644095	6.802345	13.776207	-0.23496	3.719617	-0.706369	-0.533447	0.394531	0.41748
1083.0	2.957022	5.392376	11.744229	1.573357	4.413563	-0.879388	-0.562012	0.396484	0.390137
1084.0	3.156881	5.955222	10.833693	1.984147	4.672538	-1.240118	-0.594727	0.396484	0.360596
1085.0	3.654161	6.171721	9.568444	2.456383	4.935323	-1.549706	-0.621094	0.402832	0.326172
1086.0	4.568602	7.254997	9.223361	2.578074	5.243297	-1.946005	-0.65625	0.406982	0.289795
1087.0	4.992047	7.675548	9.181905	1.942994	5.58481	-2.330746	-0.683838	0.389648	0.251465
1088.0	5.882879	6.82862	9.167511	1.401131	5.804688	-2.684134	-0.724609	0.376221	0.219727
1089.0	7.573413	5.647159	9.07033	1.182214	6.053201	-3.055326	-0.75415	0.352295	0.174805
1090.0	8.850728	4.734291	8.635965	1.095672	6.369936	-3.332425	-0.790527	0.33667	0.13623
1091.0	8.896455	3.404185	8.182874	1.095581	6.632595	-3.47317	-0.826904	0.323486	0.093262
1092.0	9.152978	2.185106	7.880198	1.375865	6.735971	-3.575423	-0.857178	0.316895	0.031982
1093.0	10.002449	2.150032	7.858139	2.156278	6.673188	-3.653494	-0.882568	0.299561	-0.045166
1094.0	10.792644	2.798374	7.582183	2.655696	6.472791	-3.662379	-0.89209	0.269043	-0.119873
1095.0	10.504409	2.806888	6.218849	2.74654	5.93269	-3.497169	-0.903809	0.236328	-0.176025
1096.0	11.190838	2.928857	5.785983	2.449468	5.075771	-3.34713	-0.908691	0.197266	-0.227783
1097.0	14.133792	4.328427	6.381023	2.124956	4.259392	-3.354959	-0.911621	0.164551	-0.265869
1098.0	18.737388	6.012348	8.863186	1.798997	3.804272	-3.611624	-0.912109	0.129639	-0.301514
1099.0	22.02366	4.980702	10.921534	1.099991	3.691421	-3.956089	-0.903564	0.083984	-0.3396
1100.0	23.973681	2.345687	11.717813	0.788276	3.345653	-4.280973	-0.893311	0.047119	-0.359375
1101.0	25.882564	-2.091666	12.564468	0.277737	2.827691	-4.319486	-0.891602	0.01001	-0.383545
1102.0	29.946194	-7.163557	12.337972	0.000878	2.760177	-4.45126	-0.885742	-0.022705	-0.401123
1103.0	34.003366	-9.341211	11.775904	1.233932	2.982535	-4.479041	-0.866455	-0.061768	-0.425537
1104.0	35.513361	-9.578735	12.118406	1.688058	3.367443	-4.416753	-0.855957	-0.105225	-0.452148
1105.0	32.766321	-11.387813	8.135671	0.813446	3.325295	-4.603563	-0.841064	-0.14209	-0.465088
1106.0	23.238901	-14.660643	-2.007117	-0.039077	1.770991	-4.915442	-0.832764	-0.181396	-0.464355
1107.0	16.35937	-21.665794	-23.26816	-0.139189	-1.01304	-4.622506	-0.827148	-0.211914	-0.431641
1108.0	19.722825	-30.1011	-45.842821	3.870946	-1.583184	-1.528794	-0.832275	-0.240479	-0.410645
1109.0	33.524798	-22.851704	-24.061435	4.495309	-2.516393	-0.689606	-0.838135	-0.255859	-0.398926
1110.0	36.579563	-20.200296	-15.676482	-2.587159	1.823318	-1.040613	-0.825684	-0.244873	-0.419678
1111.0	17.900803	-21.461268	-22.813962	-1.167868	2.067679	-0.213637	-0.823242	-0.246826	-0.437988
1112.0	21.72895	-15.595504	-5.821488	0.703059	0.031608	1.300625	-0.83252	-0.236084	-0.44043
1113.0	26.307775	-13.744458	-0.470502	-1.808777	-1.057505	1.281329	-0.841797	-0.225342	-0.429199
1114.0	25.926415	-13.742437	-7.134893	-2.037843	-1.158184	1.421569	-0.844971	-0.203369	-0.434082
1115.0	7.605489	-9.297058	-3.342332	-3.37161	-1.654341	4.615172	-0.860107	-0.157715	-0.450928
1116.0	0.668061	20.809008	4.3378	4.934856	4.887069	2.856258	-0.822021	-0.181152	-0.530273
1117.0	1.574727	43.197597	68.102164	7.330226	2.136377	6.5343	-0.862549	-0.15332	-0.439697
1118.0	-4.840885	5.243725	-7.538981	0.036716	-12.79777	5.626352	-0.910889	-0.094971	-0.299561
1119.0	-4.06542	-8.383481	-41.573833	-15.039603	-13.02324	-0.345536	-0.927246	-0.069092	-0.222412
1120.0	65.991746	-8.644181	0.451148	-8.600573	0.066006	-0.061083	-0.921875	-0.044922	-0.289063
1121.0	5.579321	-22.543985	3.993533	-3.006353	6.386275	2.378693	-0.913818	-0.029541	-0.343994
1122.0	3.36243	-8.868268	65.367586	3.861893	-2.151462	1.803813	-0.909424	-0.031738	-0.325684
1123.0	36.903257	9.27211	7.101521	7.026077	-5.347367	3.179713	-0.933838	-0.02124	-0.216553
1124.0	8.957943	-4.253219	-8.999562	-5.340454	-6.839547	-1.182478	-0.938477	-0.014893	-0.177979
1125.0	20.359538	1.224816	-18.100587	-1.84474	2.488691	0.152003	-0.92749	-0.014404	-0.255371
1126.0	13.410412	0.934973	7.259653	0.55631	8.368211	1.106589	-0.914795	-0.007813	-0.319336
1127.0	-13.076647	-0.470059	27.061244	-0.153915	2.475668	-0.064924	-0.921387	-0.007813	-0.319336
1128.0	6.111941	1.646684	10.507773	-0.189343	-2.592042	-0.065256	-0.921143	-0.012207	-0.287354
1129.0	10.516563	2.265025	2.306318	-0.323634	-2.302941	-0.18642	-0.925537	-0.01001	-0.27832
1130.0	10.558861	2.340355	1.140256	0.154187	-0.191682	0.010531	-0.925537	-0.007813	-0.276123
1131.0	8.740826	1.725975	3.864608	-0.242259	1.580691	0.09347	-0.918945	-0.01001	-0.298828
1132.0	6.120886	0.432343	8.913135	0.095298	1.704982	0.048271	-0.912354	-0.01416	-0.317139
1133.0	4.700813	1.707121	10.934242	0.499102	0.104429	-0.04716	-0.921143	-0.012207	-0.303467
1134.0	7.215947	2.506031	7.00198	-0.186386	-0.907397	-0.047006	-0.918945	-0.01001	-0.298828
1135.0	8.349146	1.210792	4.797084	-0.462993	-0.504119	0.00016	-0.921387	-0.007813	-0.296631
1136.0	8.219471	0.805012	5.149661	0.18109	0.282599	-0.032037	-0.921143	-0.012207	-0.303467
1137.0	7.130127	1.912036	7.124508	0.571075	0.525753	-0.046702	-0.921143	-0.01001	-0.310303
1138.0	6.729718	2.758128	7.928058	0.273679	0.122653	-0.00123	-0.912354	-0.01001	-0.314941
1139.0	7.396573	2.562555	6.823024	-0.166466	-0.23858	0.049678	-0.916504	-0.014404	-0.307861
1140.0	7.694457	2.191581	5.896789	-0.175403	-0.134133	0.060469	-0.92334	-0.007813	-0.314941
1141.0	7.694408	1.756734	5.915502	-0.34232	0.121496	0.026192	-0.921387	-0.007813	-0.314941
1142.0	7.296462	1.181745	6.355918	-0.263	0.302058	0.075623	-0.921631	-0.001221	-0.31958
1143.0	7.008526	1.250334	7.066363	0.002239	0.233516	0.031395	-0.930664	0.007568	-0.32666
1144.0	6.823329	1.85831	7.647499	0.109831	-0.092543	0.022835	-0.943604	0.00293	-0.317383
1145.0	6.963001	1.193231	6.775015	-0.379506	-0.260815	-0.00656	-0.960205	-0.012451	-0.303223
1146.0	7.202016	0.583551	6.57119	-0.109151	-0.204092	-0.023458	-0.950439	-0.036377	-0.305176
1147.0	7.110988	0.946533	6.67027	0.074938	-0.206595	-0.098561	-0.928467	-0.040527	-0.300537
1148.0	7.534629	1.716082	6.589218	-0.003735	-0.184122	-0.135763	-0.922363	-0.033936	-0.307617
1149.0	7.498355	1.68867	6.491403	-0.19799	-0.096771	-0.128232	-0.92041	-0.025146	-0.30542
1150.0	7.894565	1.758023	6.187565	-0.353628	0.022619	-0.158054	-0.920898	-0.016602	-0.307861
1151.0	7.976838	2.209332	6.149368	-0.229967	0.233896	-0.150151	-0.916504	-0.014404	-0.3125
1152.0	7.890743	2.34004	6.331303	-0.293702	0.405944	-0.066715	-0.916748	-0.01001	-0.319336
1153.0	8.313264	3.27556	6.220785	-0.213767	0.474657	-0.017973	-0.921143	-0.01001	-0.321777
1154.0	8.700893	4.147485	6.357196	-0.221867	0.539196	0.242683	-0.919434	-0.001221	-0.328613
1155.0	8.152205	3.726089	6.061889	-0.322981	0.626851	0.581917	-0.921631	-0.001221	-0.335449
1156.0	7.736044	2.769889	6.820886	-0.331153	0.759889	0.723297	-0.917725	0.009766	-0.347168
1157.0	6.784905	1.725368	7.802867	-0.472662	0.640197	0.87497	-0.917725	0.009766	-0.351563
1158.0	5.466993	3.315724	9.974702	-0.243449	0.243183	1.067166	-0.91626	0.025146	-0.347412
1159.0	5.119907	1.40751	9.849984	-0.812749	-0.823793	1.414082	-0.916504	0.033691	-0.343018
1160.0	5.732418	-1.296097	7.035624	-1.460106	-1.299398	1.360278	-0.921875	0.055664	-0.334229
1161.0	5.937181	-0.897918	6.670713	-0.41053	-1.057321	1.217908	-0.926514	0.057617	-0.325195
1162.0	4.461176	1.280635	10.562407	0.280141	-1.071053	1.203875	-0.931396	0.072998	-0.325439
1163.0	3.251827	1.134644	11.007368	-0.908216	-2.058726	1.166852	-0.936035	0.079346	-0.29834
1164.0	4.777166	-0.012326	8.685554	-1.595449	-3.209856	1.180936	-0.938965	0.09668	-0.27124
1165.0	6.43389	-0.660287	7.606276	-0.782579	-3.669052	1.163791	-0.948486	0.111816	-0.23291
1166.0	5.611212	0.823411	7.448208	0.194449	-4.30033	1.083961	-0.955322	0.120361	-0.185059
1167.0	3.133326	2.947575	10.711874	0.462336	-5.230266	1.539536	-0.962646	0.135498	-0.137695
1168.0	9.954813	-0.58238	9.47547	0.360807	-5.776297	1.273542	-0.954102	0.14209	-0.085205
1169.0	8.115007	1.734813	7.944848	2.665729	-5.43169	1.642107	-0.950439	0.157227	-0.042236
1170.0	15.145609	6.855822	12.719974	0.778732	-6.597116	2.54647	-0.936279	0.18335	0.016357
1171.0	16.24904	7.233592	13.63823	-1.892447	-8.095924	3.403736	-0.91333	0.205078	0.095703
1172.0	17.270068	7.206211	12.452786	-2.301055	-9.295939	3.781457	-0.873291	0.237793	0.177002
1173.0	18.692272	7.8271	10.095154	-3.192036	-10.410875	5.347107	-0.817871	0.268555	0.276611
1174.0	23.95704	1.618601	11.751666	-4.383761	-10.353927	5.787973	-0.755615	0.290527	0.358154
1175.0	28.021292	-0.933509	6.949693	-1.919847	-9.428383	4.875286	-0.697998	0.316895	0.416992
1176.0	29.215104	10.448252	20.037298	3.584242	-6.83076	4.867048	-0.63916	0.367432	0.445557
1177.0	23.048983	18.437907	29.766045	2.628453	-6.87173	5.513116	-0.571045	0.405029	0.474365
1178.0	18.968892	25.101096	22.274498	1.590589	-5.373756	4.246441	-0.535156	0.429199	0.485107
1179.0	27.067584	33.101124	23.53757	0.079651	-0.717864	1.129864	-0.539063	0.422607	0.489746
1180.0	11.050141	25.70843	33.162017	-3.394134	2.490403	-0.253304	-0.544678	0.402832	0.490234
1181.0	9.973312	9.323147	20.131522	-3.211866	2.592205	-0.802428	-0.574463	0.385254	0.49292
1182.0	5.731707	3.942104	15.266621	0.59165	3.918222	-0.994384	-0.603271	0.395996	0.467529
1183.0	4.521984	4.835296	14.198602	1.985137	4.599232	-1.117146	-0.63623	0.400391	0.440186
1184.0	3.946048	4.815992	12.047892	2.474391	5.024533	-1.285347	-0.663086	0.41333	0.401367
1185.0	4.102583	5.589402	10.133832	3.31213	5.445944	-1.536622	-0.702881	0.42627	0.357666
1186.0	4.097781	7.093115	9.163671	3.506145	5.726791	-1.898017	-0.740479	0.437012	0.305176
1187.0	5.062808	7.925219	9.076298	2.616696	5.906916	-2.25685	-0.772949	0.43042	0.259766
1188.0	5.418888	6.574605	8.419068	1.718804	6.102384	-2.597871	-0.811768	0.421631	0.214355
1189.0	6.1902	4.708275	7.998234	1.476715	6.206676	-2.896	-0.845947	0.408447	0.171387
1190.0	6.565813	3.517594	7.214316	1.77722	6.215667	-3.137331	-0.875977	0.397461	0.123779
1191.0	6.887551	3.270753	7.197945	2.164565	6.16048	-3.32408	-0.90625	0.388672	0.076172
1192.0	7.991828	3.70442	7.880032	2.328133	6.107986	-3.503936	-0.941406	0.392822	0.019043
1193.0	8.507564	3.673712	7.744163	2.517442	6.020297	-3.635352	-0.965088	0.388428	-0.044678
1194.0	8.309492	3.616941	6.981892	2.657732	5.66481	-3.638286	-0.980225	0.384277	-0.108398
1195.0	9.60953	4.142534	7.503699	2.47743	5.09194	-3.586445	-0.990723	0.373291	-0.174072
1196.0	11.890056	4.697152	8.640727	2.229043	4.592206	-3.625703	-0.992432	0.362549	-0.22168
1197.0	13.909028	5.128048	9.570664	2.107016	4.089668	-3.790761	-0.993652	0.345215	-0.246582
1198.0	17.776317	6.161454	12.214022	1.836375	3.684497	-4.071551	-1.022217	0.349365	-0.269287
1199.0	21.161543	6.290133	13.79264	1.476577	3.458416	-4.355853	-1.086182	0.362061	-0.299072
1200.0	22.879961	5.329182	13.761538	1.022504	3.16544	-4.515567	-1.168945	0.361816	-0.374268
1201.0	24.112719	1.605465	13.644805	0.073688	2.62692	-4.441402	-1.261719	0.3396	-0.469482
1202.0	25.856044	-5.308596	12.639199	-0.68841	2.331687	-4.67058	-1.331543	0.291504	-0.571045
1203.0	30.043472	-8.962222	10.777707	1.341723	2.301065	-5.213785	-1.392578	0.190918	-0.676025
1204.0	33.045538	-5.567927	11.611914	4.010516	1.85104	-5.699658	-1.419678	0.064453	-0.764648
1205.0	33.527621	-2.6533	11.089645	3.032151	1.069014	-5.821306	-1.452881	-0.071045	-0.83252
1206.0	26.627808	-9.129609	0.922026	0.156153	-0.896266	-5.638079	-1.458496	-0.186523	-0.873535
1207.0	21.753283	-19.410132	-22.025874	-0.972681	-2.080202	-4.809531	-1.445313	-0.286865	-0.903564
1208.0	26.321593	-29.752348	-41.472893	1.133947	-0.885381	-2.299889	-1.422119	-0.369385	-0.938477
1209.0	36.30948	-24.358201	-21.891745	2.139611	0.547275	-1.242876	-1.373291	-0.43457	-1.007813
1210.0	28.976455	-26.090162	-17.069525	-1.622444	2.521413	-1.543001	-1.318115	-0.453613	-1.0896
1211.0	19.72887	-23.824364	-20.549595	-0.902448	1.757839	-0.46199	-1.28833	-0.483887	-1.13916
1212.0	22.519658	-18.608566	-8.251144	0.534544	0.143492	1.014498	-1.28125	-0.496826	-1.164063
1213.0	25.740726	-13.385767	-4.298372	-1.57022	-0.623285	1.261026	-1.28418	-0.477051	-1.200928
1214.0	24.096066	-12.46848	-10.080913	-2.501544	-0.352619	1.537159	-1.291992	-0.450928	-1.242432
1215.0	23.297231	-11.528691	-8.550846	-1.455971	0.049419	1.999726	-1.320313	-0.405029	-1.286621
1216.0	1.184246	-4.782049	-6.458159	-3.271906	-0.975981	4.768477	-1.337646	-0.359131	-1.351318
1217.0	-5.785361	36.495882	20.747887	8.635427	6.148349	3.169622	-1.266113	-0.491699	-1.448975
1218.0	-3.346202	45.501876	45.212765	4.543243	-2.747709	5.729655	-1.390625	-0.486328	-1.289551
1219.0	-6.191882	-6.159082	-14.68158	-4.023053	-15.190753	4.791457	-1.556885	-0.330566	-1.116699
1220.0	8.821599	-12.727126	-60.071816	-17.643224	-12.875617	-2.280469	-1.650146	-0.244141	-1.075195
1221.0	77.427969	-13.303613	14.843877	-3.851223	5.672524	2.061514	-1.584717	-0.195068	-1.251709
1222.0	-1.761999	-19.441957	64.898256	-0.612393	3.204425	2.727545	-1.563477	-0.181885	-1.297607
1223.0	29.596751	-2.092664	12.535694	4.315066	-4.89805	3.297009	-1.684814	-0.202637	-1.084961
1224.0	16.101328	1.674027	-13.960928	0.21158	-8.011829	-0.663985	-1.703125	-0.178955	-1.053467
1225.0	24.953742	3.404324	-17.334961	-2.477455	4.43013	0.447604	-1.634766	-0.151855	-1.193115
1226.0	7.031696	-0.651038	8.568477	-0.856132	8.796573	0.940426	-1.574219	-0.138184	-1.293701
1227.0	-15.200591	0.238023	32.262315	-1.216231	0.433235	-0.080446	-1.585938	-0.12085	-1.27124
1228.0	10.85426	0.098898	4.540603	-0.382984	-3.282169	-0.056035	-1.612061	-0.121094	-1.228027
1229.0	11.414478	1.583874	-0.545957	0.67901	-0.892915	-0.066926	-1.611572	-0.134277	-1.220947
1230.0	10.119271	4.009277	2.63702	0.468942	1.581831	0.200723	-1.598633	-0.129639	-1.257568
1231.0	6.342741	2.583284	8.638943	-0.680841	2.207145	0.343553	-1.57959	-0.118652	-1.285156
1232.0	3.707097	0.82221	12.182039	-0.764629	0.318677	0.330681	-1.577881	-0.103271	-1.282959
1233.0	7.39107	0.020991	6.497983	-0.361937	-0.756528	0.122932	-1.584473	-0.103516	-1.269287
1234.0	8.392475	1.235602	4.858068	0.078405	-0.175371	0.045695	-1.589111	-0.099121	-1.271729
1235.0	7.910207	1.981131	5.837418	0.019965	0.499625	0.086465	-1.577881	-0.103271	-1.278564
1236.0	6.783683	1.595546	7.513406	-0.179336	0.598558	0.135574	-1.576416	-0.090332	-1.287842
1237.0	6.080959	0.684827	8.00701	-0.309616	0.18161	0.089323	-1.573975	-0.094482	-1.290039
1238.0	6.765149	0.675367	6.885635	-0.046464	-0.130003	-0.049158	-1.576416	-0.090332	-1.290283
1239.0	7.558079	1.84033	6.486969	0.138216	-0.065979	-0.097498	-1.573975	-0.094482	-1.29248
1240.0	7.660445	2.331919	6.354417	-0.050698	0.12476	-0.0416	-1.572021	-0.092285	-1.294678
1241.0	7.698955	2.355594	6.535706	-0.152719	0.26553	0.04723	-1.570068	-0.083496	-1.301758
1242.0	7.38691	2.123603	6.738942	-0.2609	0.295394	0.088691	-1.570557	-0.074951	-1.306396
1243.0	7.366563	2.16996	6.739106	-0.290393	0.26802	0.114127	-1.570557	-0.072754	-1.308838
1244.0	7.311264	2.188503	6.819213	-0.335046	0.255386	0.182603	-1.577393	-0.066162	-1.304443
1245.0	7.321894	2.022335	6.846132	-0.499736	0.250013	0.238131	-1.594727	-0.072754	-1.302002
1246.0	7.505795	1.820637	7.04678	-0.556632	0.256708	0.317936	-1.583496	-0.079346	-1.301758
1247.0	6.742622	1.341871	6.695317	-0.700148	0.254986	0.322807	-1.566406	-0.070557	-1.311035
1248.0	6.643054	0.647323	7.20047	-0.5541	0.135753	0.335783	-1.554199	-0.048584	-1.322998
1249.0	6.517407	0.224342	6.758995	-0.559279	0.089926	0.220483	-1.550293	-0.041992	-1.320801
1250.0	6.650468	0.350061	6.845438	-0.334517	0.061688	0.143271	-1.548828	-0.022217	-1.328125
1251.0	6.595287	0.617786	6.957644	-0.217159	0.017534	0.063669	-1.55127	-0.015869	-1.323486
1252.0	6.544188	0.500576	6.965795	-0.317063	0.004735	-0.003067	-1.551758	-0.009277	-1.328369
1253.0	6.634887	0.209933	6.950719	-0.351224	-0.004712	-0.089462	-1.553955	-0.00708	-1.321533
1254.0	6.846955	0.169729	7.069832	-0.167768	0.022828	-0.162423	-1.556152	-0.00708	-1.330566
1255.0	7.276142	0.95152	7.247801	0.138736	0.030091	-0.188807	-1.553711	-0.013672	-1.330566
1256.0	7.702421	2.339959	7.329316	0.36018	-0.055788	-0.119202	-1.557861	-0.015869	-1.332764
1257.0	7.825639	2.774353	7.259636	0.129674	-0.023818	0.048263	-1.560303	-0.013672	-1.330566
1258.0	7.401001	3.680506	7.992109	0.190746	0.093457	0.214495	-1.560303	-0.011475	-1.337402
1259.0	6.043459	3.644175	9.606751	-0.181829	-0.245375	0.553193	-1.562744	-0.004883	-1.326172
1260.0	5.827737	1.86655	8.740787	-0.827571	-0.837431	0.733373	-1.574951	0.025391	-1.312988
1261.0	5.905867	-0.04192	7.544964	-1.080942	-0.966506	0.759644	-1.584717	0.045166	-1.295166
1262.0	5.534476	-0.473144	8.015885	-0.812118	-1.008764	0.748864	-1.589844	0.0625	-1.279541
1263.0	4.961421	-0.509399	8.932738	-0.808169	-1.403498	0.697679	-1.60791	0.079834	-1.25708
1264.0	5.55654	-0.119647	8.710129	-0.745638	-2.011349	0.692014	-1.619873	0.103516	-1.227783
1265.0	6.192955	0.160218	8.011344	-0.320357	-2.419704	0.729633	-1.644531	0.118652	-1.187012
1266.0	5.845586	0.92478	7.909567	0.064532	-2.928927	0.840763	-1.671143	0.12915	-1.137207
1267.0	6.09297	1.842512	8.371359	-0.181077	-3.724059	0.973267	-1.711182	0.141846	-1.075684
1268.0	5.203299	2.013717	8.09968	0.001528	-4.458898	1.275526	-1.740723	0.172119	-0.998779
1269.0	7.247849	-0.111774	10.143773	0.378498	-5.021097	1.281827	-1.773438	0.173828	-0.93042
1270.0	7.007044	0.589018	7.738477	2.503608	-4.902445	1.081097	-1.801758	0.169189	-0.848389
1271.0	11.379907	6.745102	10.897441	1.520558	-5.566035	2.15162	-1.818115	0.197266	-0.764404
1272.0	14.96282	5.539143	11.800391	-1.565647	-6.582385	2.842998	-1.84082	0.264404	-0.647217
1273.0	13.234757	4.464372	10.791524	-1.919876	-7.770122	3.276138	-1.838623	0.312012	-0.509277
1274.0	16.638226	7.66782	11.909581	-2.180643	-8.738104	3.805341	-1.81543	0.381592	-0.35791
1275.0	17.964956	7.561494	9.650341	-3.332018	-9.737568	4.974665	-1.775391	0.459961	-0.197754
1276.0	22.508919	3.034847	9.527316	-3.4322	-10.133952	5.555939	-1.700195	0.534424	-0.035156
1277.0	26.220149	-0.376124	7.243211	-1.69773	-9.150474	5.231229	-1.60376	0.576172	0.080078
1278.0	27.596312	7.175262	13.980489	2.662165	-7.195583	4.915372	-1.488281	0.626953	0.124512
1279.0	24.250591	11.988481	24.892137	3.803331	-6.378253	5.514855	-1.358887	0.6604	0.164795
1280.0	19.667698	20.662288	27.265203	3.730762	-4.862633	4.253857	-1.234375	0.654785	0.151123
1281.0	24.408829	34.618665	22.926022	3.641324	-1.253268	0.503865	-1.140869	0.611816	0.117676
1282.0	12.856958	33.036059	30.194985	-1.312501	2.73741	-0.906351	-1.040527	0.562256	0.111572
1283.0	8.330054	12.595526	19.542882	-4.339179	2.486731	-1.176545	-0.95166	0.525635	0.132813
1284.0	4.085331	1.682473	13.448436	-0.668795	3.546825	-1.442846	-0.885742	0.512939	0.144287
1285.0	2.034879	3.328871	11.716474	2.806617	3.788957	-1.766225	-0.848633	0.517578	0.166992
1286.0	2.848413	7.226182	12.310139	3.185242	3.991612	-2.023767	-0.853516	0.52832	0.182617
1287.0	3.618207	7.89791	11.448174	2.328704	4.264507	-2.209243	-0.884277	0.532471	0.182617
1288.0	4.57445	7.732128	11.505262	1.741166	4.694889	-2.403914	-0.92334	0.525635	0.171387
1289.0	5.246358	6.755317	11.231027	1.213506	5.03215	-2.601856	-0.972656	0.505859	0.144531
1290.0	5.968856	4.746799	10.813717	0.735609	5.424661	-2.763785	-1.013184	0.488281	0.106201
1291.0	5.679773	2.406472	10.030939	0.866398	5.806313	-2.91173	-1.05542	0.455322	0.054443
1292.0	6.771144	2.355452	9.487968	1.668192	6.011607	-3.048985	-1.106201	0.420166	-0.001709
1293.0	7.628237	3.319851	9.436291	2.066076	6.138137	-3.127796	-1.162842	0.37207	-0.075928
1294.0	8.277492	3.757041	8.94439	2.051097	6.146689	-3.215507	-1.199219	0.304443	-0.170166
1295.0	9.331546	3.770107	8.275764	2.129616	6.011725	-3.299681	-1.187012	0.226074	-0.287354
1296.0	9.965148	4.061711	7.380939	2.321012	5.652341	-3.405322	-1.107178	0.148438	-0.397461
1297.0	11.284807	4.548538	7.250437	2.215111	5.162523	-3.531555	-0.98291	0.099121	-0.458252
1298.0	13.147306	4.538588	7.430136	1.847778	4.650647	-3.688788	-0.873535	0.093262	-0.485596
1299.0	15.108483	4.171843	7.732102	1.630038	4.183288	-3.871433	-0.806396	0.102539	-0.490479
1300.0	17.557804	4.120046	8.843808	1.653049	3.772087	-4.03993	-0.769531	0.107178	-0.510986
1301.0	20.236936	3.739937	10.271966	1.541335	3.439253	-4.236455	-0.743164	0.105225	-0.531494
1302.0	22.164668	2.858959	10.394952	1.50612	2.942331	-4.492403	-0.717041	0.105469	-0.542969
1303.0	23.572561	-0.124853	10.678931	0.977559	2.218585	-4.543618	-0.712646	0.107666	-0.547607
1304.0	26.233826	-4.876918	9.913521	0.248116	2.038065	-4.789229	-0.706543	0.116455	-0.552246
1305.0	30.092786	-7.503757	9.001821	1.474367	2.4164	-5.01049	-0.717041	0.103271	-0.574951
1306.0	31.751928	-6.096279	10.560533	3.031666	3.134057	-4.998277	-0.724365	0.077148	-0.597168
1307.0	26.850257	-7.036902	8.682039	1.951345	3.338293	-4.789059	-0.727783	0.051025	-0.633057
1308.0	21.734407	-12.339439	4.232474	0.031561	2.57559	-4.357771	-0.729248	0.035889	-0.646484
1309.0	18.908771	-16.579014	-3.205961	-0.759456	0.965213	-3.918125	-0.737061	0.018311	-0.659668
1310.0	17.174755	-18.965346	-14.376476	0.949266	-1.285979	-2.925698	-0.746582	-0.014648	-0.640869
1311.0	25.111259	-20.120932	-17.402034	4.855854	-2.45007	-1.518117	-0.757568	-0.05835	-0.630859
1312.0	31.222697	-16.505246	-12.981081	5.515047	-0.230838	-1.063709	-0.756348	-0.088867	-0.637207
1313.0	23.608721	-15.231847	-14.527453	2.400518	1.832859	-0.880153	-0.738037	-0.106201	-0.670898
1314.0	20.815207	-15.373438	-9.036172	-0.635559	2.413582	-0.276091	-0.721436	-0.088379	-0.689453
1315.0	19.958975	-15.644291	-6.353953	-1.80827	2.276777	0.572181	-0.706787	-0.075195	-0.714844
1316.0	19.663996	-15.400397	-3.589811	-1.563372	1.658807	1.472433	-0.69458	-0.053223	-0.731201
1317.0	19.2078	-15.958226	-3.035903	-1.980435	0.861581	2.097405	-0.693848	-0.020508	-0.736572
1318.0	16.694855	-15.637259	-8.654248	-1.213176	0.120881	2.662614	-0.690674	0.001465	-0.741455
1319.0	16.353256	-9.100063	-10.438512	2.296235	-1.162416	3.133274	-0.705566	-0.005371	-0.743652
1320.0	20.698142	4.935305	3.191555	3.497116	-0.606194	3.69721	-0.695068	0.005859	-0.775879
1321.0	3.668062	21.058113	-0.393258	0.840775	3.354272	3.028155	-0.642334	-0.006836	-0.843994
1322.0	-18.12859	67.533476	57.582647	6.915963	6.192949	3.759361	-0.630859	-0.017578	-0.834717
1323.0	2.914243	22.32836	0.025897	-1.232293	-9.823228	7.323932	-0.731934	0.049072	-0.708252
1324.0	-12.15386	-18.685533	-25.407723	-15.470983	-15.205616	3.720704	-0.794678	0.183594	-0.590088
1325.0	43.227763	-14.265241	-34.966813	-13.965212	-8.131831	-3.100973	-0.802734	0.216309	-0.602051
1326.0	37.810357	-15.97339	7.432418	2.098886	8.256063	4.054278	-0.761719	0.227783	-0.672852
1327.0	-21.406834	-13.813996	33.606813	-1.38813	0.183663	1.241941	-0.771484	0.251709	-0.666504
