Acquisition frequency: 100 Hz
PacketCounter	Acc_X	Acc_Y	Acc_Z	Gyr_X	Gyr_Y	Gyr_Z	Mag_X	Mag_Y	Mag_Z
0.0	9.836206	-0.129107	1.577854	0.055873	0.011624	-0.008404	-0.563232	0.09375	-0.561035
1.0	9.806737	-0.117657	1.563411	0.054163	0.004031	-0.006666	-0.556396	0.09375	-0.570313
2.0	9.84025	-0.147013	1.440241	0.057516	-0.003033	-0.009805	-0.561279	0.100342	-0.565918
3.0	9.850622	-0.135699	1.387481	0.071357	0.001187	-0.009224	-0.554443	0.102539	-0.570557
4.0	9.888581	-0.112346	1.52357	0.066566	0.008585	-0.011712	-0.561035	0.098145	-0.563477
5.0	9.856628	-0.100999	1.474783	0.048469	0.00954	-0.009762	-0.563232	0.095947	-0.570313
6.0	9.887059	-0.079182	1.508069	0.040093	0.011753	-0.00745	-0.561035	0.09375	-0.570313
7.0	9.828201	-0.058242	1.478465	0.052674	0.008723	-0.006612	-0.556641	0.095947	-0.570313
8.0	9.816584	-0.036485	1.513785	0.058532	-0.006767	-0.004825	-0.56543	0.09375	-0.565674
9.0	9.844839	-0.015526	1.510596	0.036851	-0.012223	-0.001646	-0.561035	0.095947	-0.574951
10.0	9.818141	-0.064404	1.529453	0.035867	-0.009119	-0.001596	-0.558838	0.095947	-0.565674
11.0	9.818285	-0.063588	1.528562	0.033537	-0.009489	-0.004218	-0.558594	0.091553	-0.57251
12.0	9.815993	-0.062914	1.492982	0.038237	-0.014313	-0.008248	-0.560791	0.091553	-0.56543
13.0	9.815001	-0.0914	1.474769	0.043788	-0.015339	-0.013163	-0.56543	0.091553	-0.56543
14.0	9.828075	-0.079685	1.454729	0.047098	-0.019289	-0.014177	-0.563477	0.098145	-0.565674
15.0	9.853914	-0.058436	1.416464	0.040025	-0.011714	-0.010664	-0.560791	0.091553	-0.577148
16.0	9.825951	-0.076825	1.417956	0.036219	-0.006207	-0.009632	-0.56543	0.09375	-0.565674
17.0	9.868182	-0.075538	1.414585	0.033354	-0.000681	-0.006543	-0.561035	0.095947	-0.572754
18.0	9.863185	-0.075773	1.345777	0.036131	0.001269	-0.001846	-0.561035	0.095947	-0.570313
19.0	9.911559	-0.103545	1.429908	0.038281	0.010437	-0.001544	-0.56543	0.09375	-0.57251
20.0	9.870422	-0.072794	1.45088	0.02664	0.013474	-0.000322	-0.563232	0.09375	-0.57251
21.0	9.855043	-0.082469	1.435479	0.027354	-0.001215	-0.003712	-0.563232	0.095947	-0.565674
22.0	9.838536	-0.062224	1.401299	0.038589	-0.007706	-0.005544	-0.561035	0.09375	-0.57251
23.0	9.827051	-0.040585	1.435682	0.046467	-0.007119	-0.004267	-0.556641	0.095947	-0.572754
24.0	9.828379	-0.009241	1.451547	0.044182	-0.009384	-0.005413	-0.560791	0.089355	-0.567871
25.0	9.841375	0.001567	1.431752	0.042032	-0.018546	-0.00571	-0.558594	0.09375	-0.570313
26.0	9.840324	0.03223	1.412257	0.045702	-0.015912	-0.004013	-0.563232	0.09375	-0.563232
27.0	9.858395	0.044305	1.460847	0.045789	-0.020917	-0.004642	-0.561035	0.09375	-0.57251
28.0	9.88305	0.034275	1.405267	0.035135	-0.020985	-0.00346	-0.563232	0.091553	-0.567871
29.0	9.896163	-0.015027	1.386356	0.026629	-0.013128	-0.005565	-0.558594	0.09375	-0.574951
30.0	9.909073	-0.004489	1.366954	0.02139	-0.006101	-0.006575	-0.563232	0.09375	-0.565674
31.0	9.881069	-0.023466	1.368897	0.01951	-0.004912	-0.007112	-0.556396	0.09375	-0.567871
32.0	9.881069	-0.022491	1.368916	0.013286	0.005212	-0.008079	-0.563232	0.095947	-0.570313
33.0	9.866981	-0.061356	1.37159	0.00854	0.010688	-0.009111	-0.561035	0.09375	-0.570313
34.0	9.89611	-0.010091	1.386782	0.011762	0.011746	-0.009494	-0.567627	0.089355	-0.56543
35.0	9.898471	-0.008221	1.422354	0.010374	0.011385	-0.010052	-0.560791	0.091553	-0.56543
36.0	9.892116	-0.038946	1.337824	0.006303	0.006531	-0.008772	-0.561035	0.09375	-0.561035
37.0	9.836913	0.012155	1.358939	0.004825	0.01118	-0.00871	-0.565186	0.089355	-0.567871
38.0	9.866128	0.003468	1.375607	0.006614	0.015003	-0.007553	-0.56543	0.095947	-0.568115
39.0	9.870855	0.005648	1.446455	0.008759	0.025412	-0.003699	-0.558838	0.095947	-0.572754
40.0	9.827215	-0.023979	1.434932	0.005226	0.014642	-0.008112	-0.567627	0.09375	-0.567871
41.0	9.816723	-0.032242	1.489155	-0.004439	0.012705	-0.003393	-0.556641	0.098145	-0.574951
42.0	9.826872	-0.023191	1.437291	0.003083	0.007955	-0.00124	-0.558594	0.091553	-0.567871
43.0	9.839553	-0.013382	1.419601	0.006798	0.007466	-0.001641	-0.560791	0.087158	-0.572266
44.0	9.8406	0.017243	1.436966	0.005365	0.008988	-0.003678	-0.558838	0.095947	-0.568115
45.0	9.868675	-0.022015	1.436834	0.007153	0.011571	-0.006096	-0.560791	0.089355	-0.567871
46.0	9.840439	-0.0414	1.44048	0.010867	0.012323	-0.002923	-0.567627	0.091553	-0.56543
47.0	9.855545	-0.030578	1.457573	0.003484	0.010176	-0.004218	-0.560791	0.089355	-0.574707
48.0	9.86819	-0.020677	1.440175	0.002096	0.011056	-0.001202	-0.563232	0.09375	-0.561035
49.0	9.855247	-0.030016	1.459602	-0.006227	0.008881	-0.004555	-0.56543	0.091553	-0.570068
50.0	9.893522	-0.001187	1.40516	-0.00851	0.009089	0.001457	-0.561035	0.09375	-0.567871
51.0	9.889738	-0.032546	1.355464	-0.01608	0.016965	0.001396	-0.561035	0.09375	-0.57251
52.0	9.876644	-0.042542	1.375972	-0.017161	0.025078	0.002052	-0.56543	0.09375	-0.570313
53.0	9.848216	-0.063087	1.380969	-0.020431	0.027146	0.004526	-0.558594	0.09375	-0.57251
54.0	9.851457	-0.032633	1.434274	-0.023558	0.019835	0.000709	-0.563232	0.09375	-0.570313
55.0	9.837054	-0.013297	1.436818	-0.031438	0.020481	0.003001	-0.560791	0.091553	-0.57251
56.0	9.821523	-0.024202	1.422759	-0.024946	0.019477	0.000147	-0.563232	0.09375	-0.570313
57.0	9.795503	0.015849	1.459755	-0.022882	0.009505	0.003021	-0.560791	0.091553	-0.57251
58.0	9.807102	-0.005433	1.425446	-0.032994	0.004752	0.002071	-0.565186	0.089355	-0.563232
59.0	9.777865	-0.056317	1.411454	-0.030127	0.000465	0.002569	-0.558594	0.09375	-0.57251
60.0	9.805928	-0.036833	1.409129	-0.025514	0.000649	-0.000823	-0.561035	0.09375	-0.567871
61.0	9.821303	-0.086632	1.426449	-0.021354	0.001734	0.000859	-0.55835	0.087158	-0.570068
62.0	9.854179	-0.065579	1.493037	-0.016696	3e-05	-0.001056	-0.567871	0.095947	-0.568115
63.0	9.82369	-0.086175	1.461017	-0.019066	0.001534	-0.005152	-0.558594	0.09375	-0.570313
64.0	9.890421	-0.097049	1.404552	-0.025915	-0.002809	-0.00143	-0.567627	0.091553	-0.567871
65.0	9.903232	-0.087396	1.386307	-0.020548	0.006187	-0.005089	-0.560791	0.091553	-0.570068
66.0	9.864454	-0.056341	1.441231	-0.018806	0.011898	-0.0054	-0.561035	0.09375	-0.563232
67.0	9.839772	-0.045286	1.495587	-0.022878	0.007041	-0.004135	-0.558594	0.091553	-0.570068
68.0	9.836214	-0.076103	1.444742	-0.022245	-0.001409	-0.003308	-0.563232	0.09375	-0.565674
69.0	9.822113	-0.056185	1.445253	-0.007877	-0.00059	-0.00129	-0.560791	0.091553	-0.574707
70.0	9.793933	-0.016629	1.446125	-0.009578	-0.006955	0.00407	-0.560791	0.089355	-0.56543
71.0	9.796646	-0.076348	1.480648	-0.012707	-0.013025	0.003816	-0.560791	0.089355	-0.570068
72.0	9.809707	-0.067125	1.460709	-0.003793	-0.018659	0.002959	-0.559082	0.100342	-0.568115
73.0	9.793651	-0.107922	1.425827	0.003285	-0.024991	0.003035	-0.561035	0.09375	-0.57251
74.0	9.823204	-0.05792	1.437749	0.003733	-0.024651	0.001537	-0.561035	0.098145	-0.574951
75.0	9.823561	-0.057971	1.435307	0.007449	-0.025142	0.001139	-0.558838	0.098145	-0.570313
76.0	9.808687	-0.068263	1.416649	0.008436	-0.028241	0.001093	-0.563232	0.091553	-0.563232
77.0	9.839745	-0.107534	1.447166	0.007	-0.025478	0.002634	-0.563232	0.09375	-0.563232
78.0	9.864414	-0.058689	1.390046	0.007941	-0.026688	0.001113	-0.563477	0.098145	-0.563477
79.0	9.906899	-0.058537	1.384842	0.009144	-0.017541	-0.000648	-0.558594	0.09375	-0.567871
80.0	9.889375	-0.069567	1.332781	0.003098	-0.014963	0.004288	-0.561279	0.100342	-0.565918
81.0	9.905985	-0.029264	1.364175	0.00811	-0.011318	0.001499	-0.558594	0.091553	-0.567871
82.0	9.893314	-0.038902	1.381716	0.007077	-0.006331	6.9e-05	-0.563232	0.091553	-0.560791
83.0	9.840925	-0.047945	1.43695	0.005242	-0.007029	0.001007	-0.553955	0.089355	-0.567871
84.0	9.851352	-0.039094	1.383228	0.005334	-0.010804	0.003956	-0.563232	0.091553	-0.558594
85.0	9.822141	-0.029614	1.36659	0.00632	-0.015137	0.000333	-0.55835	0.087158	-0.567627
86.0	9.83778	-0.078943	1.382237	0.011871	-0.01493	-0.001006	-0.567627	0.091553	-0.563232
87.0	9.854429	-0.038304	1.41357	0.016481	-0.012276	0.002752	-0.563232	0.095947	-0.565674
88.0	9.853426	-0.068255	1.395708	0.018761	-0.012475	-0.003262	-0.561035	0.09375	-0.565674
89.0	9.866328	-0.058293	1.37641	0.016343	-0.005378	0.001903	-0.558838	0.095947	-0.565674
90.0	9.908512	-0.058209	1.373265	0.018487	0.003789	0.002195	-0.562988	0.089355	-0.56543
91.0	9.894502	-0.098125	1.375435	0.01804	0.003453	0.003692	-0.558838	0.098145	-0.563477
92.0	9.895597	-0.067942	1.392668	0.017007	0.008439	0.00226	-0.56543	0.09375	-0.563232
93.0	9.880181	-0.078256	1.377597	0.016514	0.009989	0.002281	-0.558594	0.09375	-0.565674
94.0	9.864743	-0.088602	1.362698	0.017408	0.0119	0.002862	-0.567627	0.09375	-0.565674
95.0	9.853014	-0.068184	1.398615	0.019874	0.00539	0.006329	-0.563232	0.091553	-0.560791
96.0	9.841317	-0.047692	1.434271	0.022602	0.006762	0.002394	-0.563477	0.100342	-0.561279
97.0	9.838726	-0.04829	1.400513	0.027705	0.006633	0.00255	-0.556396	0.091553	-0.570068
98.0	9.823227	0.001331	1.383858	0.0333	0.004956	0.002685	-0.558594	0.09375	-0.563232
99.0	9.837314	-0.018397	1.383376	0.030661	-0.002661	0.002422	-0.561035	0.095947	-0.568115
100.0	9.866744	-0.027703	1.398454	0.031601	-0.003873	0.000902	-0.561035	0.09375	-0.561035
101.0	9.87955	-0.017832	1.379901	0.027794	0.00163	0.001922	-0.556396	0.09375	-0.574951
102.0	9.822039	-0.02792	1.367354	0.023987	0.005891	-0.000634	-0.561035	0.095947	-0.563477
103.0	9.878234	-0.047833	1.364329	0.022646	0.006128	0.007435	-0.556152	0.089355	-0.558594
104.0	9.867832	-0.056681	1.417898	0.018391	0.00757	-0.000772	-0.567871	0.095947	-0.556396
105.0	9.878003	-0.047853	1.366006	0.019733	0.012302	0.005456	-0.561035	0.09375	-0.57251
106.0	9.865038	-0.057754	1.385651	0.017898	0.011606	0.006395	-0.55835	0.084961	-0.567627
107.0	9.850786	-0.038114	1.387279	0.017451	0.010029	0.004318	-0.558594	0.09375	-0.570313
108.0	9.839042	-0.017462	1.423094	0.017496	0.006902	0.002223	-0.558838	0.095947	-0.570313
109.0	9.82252	-0.058109	1.391082	0.020361	0.002617	0.002724	-0.560791	0.087158	-0.56543
110.0	9.850563	-0.038065	1.38886	0.019421	0.002589	0.000666	-0.558594	0.09375	-0.567871
111.0	9.850556	-0.037893	1.388917	0.017185	-0.001569	0.001011	-0.556396	0.091553	-0.567871
112.0	9.833973	-0.018709	1.355135	0.018481	0.003806	0.002182	-0.56543	0.091553	-0.567871
113.0	9.863319	-0.02817	1.370763	0.016692	-1.9e-05	0.001029	-0.558594	0.091553	-0.57251
114.0	9.863306	-0.028359	1.370853	0.013916	0.001747	0.007059	-0.563232	0.091553	-0.570068
115.0	9.879815	-0.047922	1.40513	0.009664	0.00567	0.005998	-0.558594	0.089355	-0.57251
116.0	9.850375	-0.038834	1.390174	0.010156	0.004121	0.005979	-0.561035	0.09375	-0.565674
117.0	9.847869	-0.040145	1.356021	0.012528	0.001385	0.006501	-0.558594	0.089355	-0.570068
118.0	9.834999	-0.050128	1.374898	0.007784	0.006858	0.005457	-0.561035	0.09375	-0.563232
119.0	9.851451	-0.069552	1.409512	0.008232	0.007191	0.003958	-0.556152	0.089355	-0.567871
120.0	9.850069	-0.040307	1.392301	0.010067	0.007887	0.003017	-0.558594	0.089355	-0.563232
121.0	9.823088	-0.030132	1.411795	0.004608	0.00267	0.003747	-0.55835	0.087158	-0.572266
122.0	9.865243	-0.030334	1.408953	0.002774	0.000726	0.001116	-0.561035	0.095947	-0.563477
123.0	9.835859	-0.020963	1.393646	0.003221	0.002306	0.003189	-0.563232	0.095947	-0.568115
124.0	9.833401	-0.021917	1.359231	0.004206	-0.00204	-0.000418	-0.561035	0.09375	-0.563232
125.0	9.835891	-0.021074	1.393421	0.008412	-0.002833	0.002736	-0.558838	0.095947	-0.570313
126.0	9.823119	-0.030683	1.411572	0.010739	-0.003687	0.001778	-0.565674	0.100342	-0.561279
127.0	9.810391	-0.040299	1.429428	0.00528	-0.008905	0.002509	-0.560791	0.091553	-0.567871
128.0	9.794	-0.021401	1.3944	0.006756	-0.013553	0.002457	-0.56543	0.095947	-0.565674
129.0	9.808267	-0.041706	1.392614	0.011409	-0.012765	0.007683	-0.556152	0.087158	-0.56543
130.0	9.835301	0.007295	1.370589	0.008232	-0.018202	0.002404	-0.561035	0.098145	-0.563477
131.0	9.820344	-0.063325	1.354312	-4.7e-05	-0.019766	0.007686	-0.558838	0.095947	-0.565674
132.0	9.849953	-0.073468	1.368007	0.006352	-0.015766	0.005434	-0.561035	0.09375	-0.567871
133.0	9.838601	-0.053128	1.401215	0.011989	-0.019324	0.007052	-0.556396	0.091553	-0.563232
134.0	9.809575	-0.103868	1.38527	0.011585	-0.022785	0.006459	-0.563232	0.09375	-0.558594
135.0	9.882661	-0.083495	1.411863	0.01852	-0.022216	0.005668	-0.563232	0.095947	-0.563477
136.0	9.895786	-0.074376	1.390999	0.012568	-0.025881	0.006422	-0.56543	0.091553	-0.567871
137.0	9.869224	-0.064104	1.407861	0.020263	-0.017756	0.001759	-0.561035	0.095947	-0.563477
138.0	9.880967	-0.025271	1.369599	0.015657	-0.017927	0.005161	-0.563232	0.095947	-0.563477
139.0	9.877387	0.002952	1.315372	0.00778	-0.018526	0.003898	-0.556152	0.089355	-0.570068
140.0	9.864822	-0.006733	1.332284	0.005364	-0.01391	0.001896	-0.56543	0.09375	-0.558594
141.0	9.898164	0.014833	1.397394	0.000177	-0.008771	0.002355	-0.558594	0.091553	-0.56543
142.0	9.840798	0.003989	1.383702	-0.006262	-0.009637	0.006703	-0.563232	0.095947	-0.563477
143.0	9.854947	-0.016524	1.382634	-0.004114	-0.00172	0.003387	-0.56543	0.095947	-0.561035
144.0	9.869055	-0.036983	1.381839	0.000586	-0.00406	0.006516	-0.56543	0.09375	-0.558594
145.0	9.853805	-0.048166	1.365351	0.000676	-0.00782	0.009479	-0.558594	0.091553	-0.560791
146.0	9.857796	-0.077496	1.416734	0.009575	-0.01345	0.008612	-0.563232	0.09375	-0.563232
147.0	9.845243	-0.087752	1.433694	0.010603	-0.018427	0.010057	-0.556152	0.089355	-0.567871
148.0	9.84037	-0.090518	1.36296	0.010647	-0.020306	0.011537	-0.560791	0.091553	-0.560791
149.0	9.853389	-0.081887	1.34255	0.011047	-0.018095	0.008556	-0.558594	0.09375	-0.565674
150.0	9.829384	-0.071179	1.394258	0.012435	-0.01773	0.009109	-0.56543	0.09375	-0.565674
151.0	9.814274	-0.082039	1.376657	0.010995	-0.017464	0.003502	-0.556396	0.091553	-0.567871
152.0	9.856632	-0.082649	1.372089	0.00676	-0.011041	0.009588	-0.56543	0.09375	-0.563232
153.0	9.815915	-0.052829	1.390567	0.009975	-0.011235	0.005626	-0.556396	0.09375	-0.565674
154.0	9.886359	-0.033471	1.383534	0.010465	-0.012784	0.005608	-0.558838	0.098145	-0.563477
155.0	9.87378	-0.043402	1.400817	0.016508	-0.012879	0.007805	-0.558594	0.09375	-0.567871
156.0	9.886695	-0.034436	1.381114	0.017851	-0.010636	0.006876	-0.56543	0.095947	-0.558838
157.0	9.872785	-0.015	1.380625	0.010427	-0.009651	0.007696	-0.567627	0.091553	-0.56543
158.0	9.87683	-0.044056	1.432134	0.010427	-0.00965	0.007695	-0.56543	0.091553	-0.560791
159.0	9.818186	-0.025783	1.400124	0.004564	-0.017067	0.011426	-0.558594	0.09375	-0.563232
160.0	9.887363	-0.097098	1.377653	0.006923	-0.021053	0.008373	-0.567627	0.091553	-0.560791
161.0	9.855545	-0.089451	1.326138	0.006851	-0.01479	0.012549	-0.560791	0.091553	-0.563232
162.0	9.844297	-0.069436	1.359888	0.006715	-0.009156	0.008103	-0.56543	0.095947	-0.561035
163.0	9.848352	-0.098596	1.411462	0.001614	-0.009025	0.007962	-0.560791	0.091553	-0.563232
164.0	9.871302	-0.081309	1.339074	0.008992	-0.008134	0.005656	-0.563477	0.100342	-0.558838
165.0	9.844609	-0.071125	1.357543	0.014946	-0.004475	0.004885	-0.562988	0.089355	-0.560791
166.0	9.886805	-0.071673	1.354029	0.009811	-0.001213	0.006832	-0.558838	0.098145	-0.558838
167.0	9.885481	-0.102649	1.337384	0.008957	-0.005001	0.007744	-0.561035	0.09375	-0.556396
168.0	9.874155	-0.082144	1.371888	0.006579	-0.003522	0.003657	-0.567627	0.09375	-0.556396
169.0	9.86018	-0.06272	1.371981	0.009901	-0.004966	0.009795	-0.561035	0.09375	-0.561035
170.0	9.858857	-0.093976	1.355274	0.012189	-0.002691	0.010917	-0.56543	0.095947	-0.563477
171.0	9.846271	-0.04455	1.371573	0.010435	-0.008391	0.011259	-0.567627	0.089355	-0.56543
172.0	9.871731	-0.086414	1.335585	0.009411	-0.003416	0.009812	-0.561035	0.09375	-0.561035
173.0	9.832241	-0.086127	1.373109	0.011211	0.000408	0.010951	-0.561035	0.09375	-0.563232
174.0	9.844944	-0.077703	1.35475	0.006522	0.004	0.011398	-0.563477	0.098145	-0.551758
175.0	9.828257	-0.059667	1.320872	0.00941	-0.003415	0.009811	-0.558594	0.091553	-0.567871
176.0	9.816797	-0.099231	1.357404	0.010266	0.000373	0.008898	-0.56543	0.09375	-0.547119
177.0	9.842282	-0.081273	1.320206	0.011699	-0.00114	0.010932	-0.558838	0.098145	-0.561035
178.0	9.858951	-0.100881	1.354092	0.008377	0.000302	0.004794	-0.56543	0.095947	-0.551758
179.0	9.857697	-0.071875	1.335897	0.010743	-0.002432	0.005311	-0.563232	0.09375	-0.563232
180.0	9.883203	-0.053537	1.298586	0.006544	-0.000388	0.005741	-0.563232	0.091553	-0.560791
181.0	9.871694	-0.092722	1.335433	0.0074	0.0034	0.004827	-0.563232	0.09375	-0.561035
182.0	9.85763	-0.07319	1.336318	0.006467	0.004622	0.006344	-0.563232	0.095947	-0.558838
183.0	9.857552	-0.073588	1.336873	0.000379	0.006594	0.00267	-0.556396	0.091553	-0.56543
184.0	9.856072	-0.104427	1.321118	-0.005121	0.004524	0.005514	-0.56543	0.091553	-0.551514
185.0	9.857408	-0.074454	1.337889	0.000868	0.005045	0.002654	-0.563477	0.098145	-0.565674
186.0	9.871319	-0.094801	1.338062	0.000835	0.008179	0.004739	-0.567871	0.098145	-0.561035
187.0	9.857216	-0.075241	1.339254	-6.6e-05	0.006267	0.00417	-0.561035	0.098145	-0.565674
188.0	9.841723	-0.085985	1.324063	0.000379	0.006595	0.00267	-0.563232	0.09375	-0.561035
189.0	9.854377	-0.076907	1.306242	0.002669	0.00887	0.003791	-0.556152	0.089355	-0.563232
190.0	9.869665	-0.066697	1.32292	0.005436	0.008338	0.001327	-0.567871	0.095947	-0.551758
191.0	9.870746	-0.09616	1.34218	0.004871	0.014897	0.001944	-0.556641	0.095947	-0.561035
192.0	9.871939	-0.065822	1.359988	0.006705	0.015587	0.000996	-0.563232	0.091553	-0.558594
193.0	9.843407	-0.145313	1.366023	0.00115	0.014136	-0.001213	-0.558594	0.09375	-0.567871
194.0	9.842035	-0.115903	1.348942	0.005923	0.00679	0.00131	-0.561279	0.100342	-0.558838
195.0	9.881491	-0.117146	1.31196	0.008246	0.005931	0.000347	-0.561035	0.095947	-0.561035
196.0	9.867405	-0.096958	1.313084	0.011914	0.007311	-0.001548	-0.563232	0.09375	-0.553955
197.0	9.89404	-0.107306	1.295123	0.017836	0.014102	-0.000239	-0.561035	0.095947	-0.570313
198.0	9.852881	-0.136223	1.318107	0.017759	0.019114	0.000359	-0.558838	0.095947	-0.556396
199.0	9.879453	-0.146457	1.300686	0.017827	0.012844	-0.003808	-0.560791	0.091553	-0.560791
200.0	9.837163	-0.145533	1.30489	0.026714	0.007207	-0.004675	-0.561279	0.100342	-0.558838
201.0	9.835848	-0.115287	1.287561	0.025282	0.00872	-0.006714	-0.560791	0.091553	-0.56543
202.0	9.834561	-0.085091	1.269997	0.01798	0.002825	-0.005006	-0.561035	0.098145	-0.561035
203.0	9.803749	-0.105197	1.238817	0.018837	0.006614	-0.005925	-0.558594	0.091553	-0.558594
204.0	9.84721	-0.07425	1.252562	0.019779	0.006653	-0.003873	-0.560791	0.091553	-0.560791
205.0	9.8331	-0.053844	1.253817	0.022074	0.010193	0.000811	-0.56543	0.09375	-0.565674
206.0	9.832975	-0.05373	1.254802	0.015141	0.009634	0.001616	-0.56543	0.091553	-0.558594
207.0	9.807248	-0.072167	1.293131	0.010403	0.01384	-0.002999	-0.563232	0.09375	-0.561035
208.0	9.863233	-0.092133	1.291029	0.011798	0.015468	0.001119	-0.563232	0.091553	-0.558594
209.0	9.838888	-0.080078	1.345339	0.013823	0.002996	-0.003096	-0.563232	0.091553	-0.563232
210.0	9.864305	-0.12076	1.310343	0.012478	0.000757	-0.002162	-0.560791	0.089355	-0.560791
211.0	9.879672	-0.109937	1.326202	0.014354	-0.000427	-0.001624	-0.560791	0.091553	-0.563232
212.0	9.875766	-0.140996	1.275432	0.021322	-0.003003	-0.004509	-0.567871	0.098145	-0.556396
213.0	9.906513	-0.119277	1.307055	0.020302	0.00197	-0.00597	-0.558838	0.095947	-0.565674
214.0	9.909009	-0.117346	1.342109	0.015535	0.010575	-0.004943	-0.562988	0.091553	-0.556152
215.0	9.864134	-0.117728	1.311909	0.011378	0.010744	-0.003034	-0.558594	0.091553	-0.567871
216.0	9.907481	-0.0869	1.326302	0.005706	0.01617	-0.006139	-0.565918	0.102539	-0.556641
217.0	9.861314	-0.057674	1.278544	0.007944	0.01906	-0.010076	-0.560791	0.091553	-0.563232
218.0	9.851995	-0.094179	1.351939	0.011581	0.024846	-0.00633	-0.56543	0.091553	-0.560791
219.0	9.861991	-0.085336	1.300947	0.015455	0.015593	-0.004353	-0.556641	0.095947	-0.565674
220.0	9.850294	-0.063673	1.337374	0.018681	0.017916	-0.001184	-0.561035	0.09375	-0.558594
221.0	9.851261	-0.092569	1.357389	0.023778	0.017791	-0.001041	-0.56543	0.095947	-0.563477
222.0	9.838341	-0.041836	1.375539	0.016888	0.015354	0.00125	-0.565918	0.102539	-0.552002
223.0	9.825314	-0.05111	1.39561	0.009955	0.014791	0.002052	-0.562988	0.089355	-0.56543
224.0	9.808578	-0.032267	1.362971	0.014113	0.014623	0.000144	-0.558594	0.09375	-0.567871
225.0	9.812102	-0.060019	1.416939	0.003016	0.011693	-0.004277	-0.56543	0.09375	-0.565674
226.0	9.795447	-0.040767	1.383765	0.004484	0.007045	-0.00431	-0.561035	0.09375	-0.558594
227.0	9.84004	-0.038994	1.415745	0.003542	0.005735	-0.009928	-0.56543	0.091553	-0.558594
228.0	9.882153	-0.038304	1.413143	0.003136	0.003538	-0.006938	-0.56543	0.09375	-0.558594
229.0	9.850256	-0.029215	1.363556	0.002196	0.003495	-0.008991	-0.556396	0.091553	-0.560791
230.0	9.86302	-0.019072	1.345441	-0.000617	0.005903	-0.008022	-0.565674	0.098145	-0.563477
231.0	9.893502	-0.057233	1.379725	-0.004734	0.004197	-0.004626	-0.556152	0.089355	-0.563232
232.0	9.889787	-0.028727	1.327194	-0.006039	-0.001185	-0.005765	-0.561035	0.09375	-0.556396
233.0	9.865417	-0.016427	1.380608	-0.001471	0.003381	-0.003532	-0.560791	0.089355	-0.56543
234.0	9.864097	-0.046434	1.364653	-0.006081	0.000689	-0.007254	-0.560791	0.091553	-0.560791
235.0	9.838452	-0.064401	1.401793	-0.005591	-0.00086	-0.007266	-0.563232	0.091553	-0.558594
236.0	9.839784	-0.033303	1.417671	-0.001349	-0.004774	-0.006193	-0.558594	0.09375	-0.565674
237.0	9.807944	-0.08416	1.369233	-0.005019	-0.007424	-0.007863	-0.560791	0.091553	-0.567871
238.0	9.836213	-0.063623	1.365625	0.002445	-0.010279	-0.007186	-0.562988	0.091553	-0.551514
239.0	9.864478	-0.043189	1.362002	0.012153	-0.007711	-0.003317	-0.558594	0.09375	-0.563232
240.0	9.838948	-0.061272	1.398447	0.008889	-0.006895	-0.004411	-0.56543	0.091553	-0.56543
241.0	9.892713	-0.082006	1.360235	0.009253	-0.001556	-0.005326	-0.560791	0.091553	-0.563232
242.0	9.849299	-0.052183	1.345181	0.013823	0.004278	0.000471	-0.565674	0.098145	-0.561035
243.0	9.863266	-0.07197	1.345393	0.008683	0.006275	-0.001165	-0.56543	0.09375	-0.558594
244.0	9.878511	-0.06123	1.361791	0.01056	0.005093	-0.000624	-0.561035	0.09375	-0.558594
245.0	9.849085	-0.051454	1.346771	0.014718	0.004928	-0.002531	-0.560791	0.091553	-0.560791
246.0	9.849041	-0.050931	1.347114	0.009661	0.00191	-0.004752	-0.567627	0.09375	-0.563232
247.0	9.8515	-0.049153	1.381853	0.013331	0.004562	-0.003084	-0.560791	0.091553	-0.563232
248.0	9.879578	-0.028875	1.379511	0.016594	0.003748	-0.00199	-0.56543	0.091553	-0.556152
249.0	9.851467	0.011499	1.380322	0.017574	0.00065	-0.002011	-0.560791	0.089355	-0.563232
250.0	9.83735	-0.027996	1.382959	0.014312	0.002733	0.000458	-0.55835	0.084961	-0.555908
251.0	9.850124	-0.018453	1.364698	0.011496	0.003871	-0.002138	-0.55835	0.087158	-0.56543
252.0	9.878207	0.001631	1.362305	0.005951	0.003669	-0.000783	-0.562988	0.089355	-0.556152
253.0	9.834677	-0.028681	1.349841	0.00542	0.00836	0.0013	-0.563232	0.091553	-0.56543
254.0	9.848605	-0.048706	1.350383	0.00542	0.00836	0.0013	-0.561035	0.09375	-0.563232
255.0	9.850956	-0.047301	1.385784	0.009046	0.011617	-0.002089	-0.558594	0.089355	-0.567871
256.0	9.836771	-0.026933	1.38709	0.01186	0.009211	-0.003057	-0.561035	0.09375	-0.565674
257.0	9.86232	-0.007941	1.350676	0.007743	0.006234	-0.003223	-0.563232	0.095947	-0.568115
258.0	9.860989	-0.038067	1.335081	0.011496	0.003872	-0.002137	-0.561035	0.09375	-0.556396
259.0	9.865862	-0.035103	1.4045	0.013736	0.008031	-0.002515	-0.556396	0.09375	-0.563232
260.0	9.836421	-0.025192	1.389603	0.010067	0.005377	-0.004182	-0.563477	0.098145	-0.556396
261.0	9.862023	-0.006258	1.352848	0.009661	0.003181	-0.001189	-0.567627	0.089355	-0.560791
262.0	9.835074	-0.05514	1.374168	0.009704	0.001309	0.000303	-0.567627	0.09375	-0.558594
263.0	9.850281	-0.044397	1.39067	0.011817	0.012357	-0.000989	-0.563232	0.091553	-0.56543
264.0	9.877038	-0.054697	1.372707	0.010067	0.005378	-0.004183	-0.561035	0.09375	-0.558594
265.0	9.834765	-0.0542	1.376415	0.010963	0.008567	-5.8e-05	-0.562988	0.089355	-0.570068
266.0	9.83348	-0.024614	1.35861	0.011048	0.00228	-0.0042	-0.560791	0.089355	-0.558594
267.0	9.84748	-0.044179	1.358714	0.009171	0.004732	-0.001181	-0.558594	0.09375	-0.565674
268.0	9.834597	-0.053126	1.377658	0.011986	0.002326	-0.002147	-0.563232	0.09375	-0.561035
269.0	9.874279	-0.054265	1.340527	0.016144	0.003433	-0.00049	-0.558838	0.095947	-0.563477
270.0	9.834501	-0.052441	1.378368	0.014715	0.004937	-0.002536	-0.563232	0.09375	-0.561035
271.0	9.847264	-0.042823	1.360328	0.013777	0.006164	-0.001027	-0.560791	0.089355	-0.563232
272.0	9.889365	-0.042707	1.3579	0.017039	0.005354	6.9e-05	-0.561035	0.09375	-0.556396
273.0	9.835503	-0.021158	1.396154	0.01239	0.007068	0.001982	-0.55835	0.082764	-0.560547
274.0	9.862305	-0.03181	1.37796	0.011942	0.005473	-7.9e-05	-0.565186	0.087158	-0.553711
275.0	9.862211	-0.031627	1.378638	0.009575	0.008202	-0.000616	-0.562988	0.087158	-0.567627
276.0	9.887814	-0.013093	1.342056	0.008273	0.004089	0.001819	-0.562988	0.089355	-0.560791
277.0	9.845549	-0.012907	1.34567	0.010961	0.008572	-6.5e-05	-0.556396	0.09375	-0.561035
278.0	9.833825	-0.051307	1.383221	0.010149	0.00291	0.002364	-0.563232	0.091553	-0.56543
279.0	9.861891	-0.031259	1.380932	0.009577	0.006928	-0.00418	-0.563232	0.091553	-0.570068
280.0	9.873412	-0.052297	1.346973	0.009617	0.006332	0.000876	-0.558594	0.091553	-0.556152
281.0	9.85926	-0.032077	1.347945	0.011858	0.009217	-0.003069	-0.556152	0.089355	-0.567871
282.0	9.831009	-0.051469	1.351596	0.01512	0.008408	-0.001972	-0.562988	0.089355	-0.560791
283.0	9.834579	-0.019005	1.402679	0.013778	0.004892	-0.004592	-0.562744	0.084961	-0.560547
284.0	9.844956	-0.01063	1.35002	0.017081	0.002213	-0.001999	-0.56543	0.09375	-0.551758
285.0	9.83325	-0.048607	1.387406	0.0161	0.005312	-0.001987	-0.565186	0.087158	-0.570068
286.0	9.803835	-0.038883	1.372401	0.011899	0.007348	-0.001577	-0.560791	0.091553	-0.560791
287.0	9.819114	-0.028056	1.388206	0.01403	-0.007608	0.000818	-0.558594	0.091553	-0.563232
288.0	9.805151	-0.008204	1.387755	0.018184	-0.00522	0.006034	-0.561035	0.09375	-0.556396
289.0	9.847425	-0.068328	1.386346	0.019699	-0.013014	0.00395	-0.561035	0.09375	-0.565674
290.0	9.843961	-0.040502	1.332313	0.023816	-0.011308	0.000547	-0.56543	0.09375	-0.558594
291.0	9.870978	-0.050994	1.312655	0.02744	-0.006775	0.00071	-0.560791	0.087158	-0.560791
292.0	9.889971	-0.067707	1.38081	0.025522	-0.003726	-0.001333	-0.561035	0.09375	-0.558594
293.0	9.883939	-0.041008	1.2932	0.021812	-0.003238	-0.000928	-0.563477	0.098145	-0.565674
294.0	9.882771	-0.011471	1.274479	0.019935	-0.00206	-0.001475	-0.565186	0.089355	-0.558594
295.0	9.865054	-0.023086	1.224218	0.011536	0.000732	-0.004215	-0.562988	0.089355	-0.560791
296.0	9.869896	-0.019588	1.293336	0.01516	0.005264	-0.004054	-0.570068	0.09375	-0.565674
297.0	9.857024	0.031525	1.30982	0.013817	0.003024	-0.003108	-0.565186	0.087158	-0.56543
298.0	9.886317	0.022477	1.325769	0.010595	0.003241	0.000852	-0.565186	0.089355	-0.560791
299.0	9.882626	0.05031	1.273259	0.014263	0.004625	-0.001051	-0.563232	0.091553	-0.56543
300.0	9.88376	0.021269	1.292282	0.015647	0.006278	0.00306	-0.560791	0.089355	-0.560791
301.0	9.857969	0.00281	1.330234	0.010061	0.007941	0.002918	-0.563232	0.091553	-0.560791
302.0	9.845026	-0.00659	1.349537	0.003622	0.005814	0.003719	-0.562988	0.087158	-0.560791
303.0	9.830871	-0.04653	1.352781	0.00501	0.004905	0.00071	-0.558594	0.09375	-0.570313
304.0	9.816803	-0.026394	1.353041	0.008359	-0.0022	-0.002316	-0.562988	0.089355	-0.563232
305.0	9.859024	-0.026323	1.349791	0.004691	-0.003583	-0.000414	-0.565186	0.089355	-0.563232
306.0	9.885951	-0.036783	1.330869	0.00367	0.000102	-0.005463	-0.562988	0.087158	-0.55835
307.0	9.859026	-0.025586	1.349789	0.004563	0.003304	-0.001348	-0.55835	0.082764	-0.560547
308.0	9.858997	-0.025447	1.350005	0.003219	0.001064	-0.000401	-0.556396	0.09375	-0.565674
309.0	9.858966	-0.025431	1.350229	0.000404	0.00347	0.000559	-0.567627	0.089355	-0.56543
310.0	9.889475	-0.004137	1.382129	0.0055	0.003357	0.000705	-0.567627	0.089355	-0.560791
311.0	9.858865	-0.025425	1.35097	0.010104	0.004792	0.000855	-0.562744	0.084961	-0.565186
312.0	9.858825	-0.025425	1.351258	0.009251	0.001003	0.001798	-0.562988	0.087158	-0.56543
313.0	9.857605	0.003542	1.332923	0.009697	0.002605	0.003855	-0.560791	0.089355	-0.57251
314.0	9.816568	-0.025719	1.354758	0.005497	0.004639	0.004264	-0.563232	0.09375	-0.561035
315.0	9.842247	-0.007774	1.317747	0.008353	0.000365	0.004803	-0.562744	0.084961	-0.560547
316.0	9.844622	-0.066363	1.354828	0.008353	0.000365	0.004803	-0.56543	0.091553	-0.563232
317.0	9.8587	-0.026965	1.352141	0.009739	0.000737	0.005353	-0.558594	0.089355	-0.546875
318.0	9.861036	-0.085423	1.389472	0.016136	0.004733	0.003052	-0.563232	0.09375	-0.563232
319.0	9.886698	-0.067222	1.352612	0.016626	0.003184	0.003048	-0.558594	0.091553	-0.567871
320.0	9.871389	-0.018272	1.33476	0.017926	0.008576	0.004159	-0.562988	0.087158	-0.56543
321.0	9.886514	-0.067406	1.353951	0.009614	0.006342	0.000855	-0.560791	0.089355	-0.56543
322.0	9.843029	-0.038337	1.339243	0.006306	0.011583	0.005375	-0.567627	0.09375	-0.563232
323.0	9.872176	-0.047912	1.356166	0.005329	0.013397	0.001822	-0.55835	0.084961	-0.567627
324.0	9.857974	-0.028024	1.357402	0.004924	0.009927	0.001265	-0.563232	0.095947	-0.558838
325.0	9.873101	-0.017394	1.374218	0.003049	0.011104	0.000717	-0.560791	0.087158	-0.56543
326.0	9.843618	-0.008105	1.35976	0.007163	0.014089	0.000869	-0.558594	0.09375	-0.563232
327.0	9.858734	0.002596	1.376623	0.009124	0.007893	0.000859	-0.560547	0.084961	-0.567627
328.0	9.829302	0.011839	1.361816	0.001214	0.010413	0.001668	-0.56543	0.095947	-0.565674
329.0	9.873766	0.013022	1.394071	0.00085	0.005075	0.002611	-0.560791	0.089355	-0.570068
330.0	9.832656	-0.016067	1.416133	0.000809	0.006942	0.001112	-0.562988	0.089355	-0.560791
331.0	9.858341	0.002037	1.379437	-0.00192	0.00433	0.001509	-0.567383	0.087158	-0.56543
332.0	9.843021	-0.008917	1.364068	-0.007464	0.004124	0.002863	-0.56543	0.091553	-0.560791
333.0	9.844108	-0.0382	1.383111	-0.003345	0.005825	-0.000541	-0.562988	0.087158	-0.570068
334.0	9.842874	-0.00907	1.365125	0.001749	0.005712	-0.000393	-0.567627	0.09375	-0.563232
335.0	9.814665	-0.028792	1.368413	-0.005625	0.003531	-0.001646	-0.560791	0.087158	-0.572266
336.0	9.843928	-0.038004	1.384402	-0.005135	0.001981	-0.001649	-0.56543	0.09375	-0.563232
337.0	9.842716	-0.008704	1.366266	-0.002446	0.006462	-0.003546	-0.560791	0.089355	-0.563232
338.0	9.843812	-0.037759	1.385232	0.00183	0.001976	0.002607	-0.563232	0.09375	-0.558594
339.0	9.856658	-0.028715	1.366915	0.002239	0.004162	-0.000395	-0.55835	0.084961	-0.567627
340.0	9.884736	-0.008852	1.364576	0.001749	0.005712	-0.000393	-0.558594	0.089355	-0.560791
341.0	9.856523	-0.028583	1.36789	0.002239	0.004163	-0.000395	-0.55835	0.087158	-0.562988
342.0	9.843596	-0.03763	1.386766	0.00322	0.001064	-0.0004	-0.56543	0.091553	-0.560791
343.0	9.883414	-0.039391	1.349503	-0.00045	-0.000318	0.001502	-0.563232	0.09375	-0.563232
344.0	9.843553	-0.03771	1.387069	0.001749	0.005712	-0.000393	-0.56543	0.091553	-0.556152
345.0	9.843508	-0.037514	1.387396	0.007379	0.000896	-0.002304	-0.561035	0.09375	-0.567871
346.0	9.871645	-0.017732	1.384635	0.008349	0.000368	0.004808	-0.562988	0.089355	-0.558594
347.0	9.843485	-0.037777	1.387555	0.005539	0.001491	0.002205	-0.558594	0.089355	-0.56543
348.0	9.843448	-0.037861	1.387815	0.006884	0.003731	0.001256	-0.556396	0.09375	-0.565674
349.0	9.843389	-0.037952	1.388227	0.004559	0.00459	0.002209	-0.560791	0.091553	-0.56543
350.0	9.842128	-0.068692	1.372716	0.007374	0.002182	0.001254	-0.558594	0.089355	-0.560791
351.0	9.856209	-0.02893	1.370141	0.005989	0.001809	0.000703	-0.560791	0.091553	-0.567871
352.0	9.828041	-0.048741	1.373112	0.009248	0.001006	0.001803	-0.558594	0.09375	-0.561035
353.0	9.870226	-0.048848	1.370251	0.013898	-0.000711	-0.000103	-0.560791	0.089355	-0.563232
354.0	9.843278	-0.037977	1.389015	0.014787	0.002498	0.004007	-0.56543	0.091553	-0.560791
355.0	9.853801	-0.030484	1.336112	0.016667	3.5e-05	0.000999	-0.560791	0.091553	-0.56543
356.0	9.856139	-0.028838	1.370648	0.013852	0.002444	0.001953	-0.56543	0.091553	-0.560791
357.0	9.843222	-0.037994	1.389408	0.012507	0.000204	0.002903	-0.562988	0.087158	-0.56543
358.0	9.854873	-0.05972	1.35518	0.014297	0.004049	0.004007	-0.558838	0.095947	-0.563477
359.0	9.856023	-0.029161	1.371473	0.012872	0.005544	0.001954	-0.558594	0.089355	-0.56543
360.0	9.857108	-0.058267	1.390433	0.017111	0.001642	0.003053	-0.563232	0.091553	-0.563232
361.0	9.853583	-0.030851	1.337705	0.013362	0.003995	0.001952	-0.556152	0.089355	-0.563232
362.0	9.867556	-0.050827	1.33814	0.011487	0.005171	0.001402	-0.560791	0.091553	-0.556152
363.0	9.8815	-0.070769	1.338788	0.015601	0.008159	0.001552	-0.556152	0.089355	-0.57251
364.0	9.867329	-0.050606	1.339821	0.016907	0.012266	-0.000902	-0.563232	0.091553	-0.563232
365.0	9.840255	-0.039377	1.359448	0.018376	0.007618	-0.000903	-0.56543	0.095947	-0.563477
366.0	9.86711	-0.049974	1.341456	0.022124	0.005267	0.000197	-0.563232	0.091553	-0.563232
367.0	9.867055	-0.049657	1.341873	0.019845	0.002971	-0.000905	-0.560547	0.084961	-0.565186
368.0	9.840049	-0.038489	1.360959	0.019799	0.006128	0.001147	-0.563232	0.091553	-0.563232
369.0	9.855209	-0.027613	1.377342	0.019799	0.006129	0.001146	-0.565186	0.084961	-0.562988
370.0	9.839895	-0.038127	1.362081	0.023998	0.004095	0.000745	-0.561035	0.09375	-0.561035
371.0	9.830474	-0.014665	1.431216	0.020327	0.002716	0.002649	-0.560791	0.087158	-0.56543
372.0	9.826932	-0.047099	1.381081	0.014868	-0.002512	0.003454	-0.567627	0.089355	-0.55835
373.0	9.839904	-0.038044	1.362021	0.018623	-0.006154	0.001001	-0.560547	0.082764	-0.562988
374.0	9.866935	-0.048783	1.342787	0.022332	-0.006638	0.000599	-0.561035	0.09375	-0.563232
375.0	9.870528	-0.016223	1.392593	0.027783	-0.000115	0.003345	-0.562988	0.087158	-0.567627
376.0	9.884583	-0.03591	1.392475	0.015776	-0.003172	-0.003109	-0.56543	0.09375	-0.561035
377.0	9.850614	-0.029788	1.308024	0.014704	0.006244	0.000988	-0.565186	0.087158	-0.574707
378.0	9.90451	0.008256	1.268481	0.010512	0.006984	-0.002167	-0.561035	0.09375	-0.556396
379.0	9.852851	0.032251	1.340836	0.008638	0.008159	-0.002718	-0.562744	0.084961	-0.567627
380.0	9.88082	-0.007395	1.341651	0.008677	0.006294	-0.001214	-0.562988	0.089355	-0.56543
381.0	9.852686	0.032759	1.342034	0.005948	0.00368	-0.000809	-0.562988	0.089355	-0.567871
382.0	9.851452	0.002119	1.326529	0.006477	0.000266	0.000698	-0.562744	0.084961	-0.574463
383.0	9.86667	0.013003	1.342453	0.009657	0.003196	-0.00121	-0.565186	0.089355	-0.567871
384.0	9.83614	-0.008602	1.311313	0.010132	0.004237	0.0059	-0.562988	0.087158	-0.56543
385.0	9.866559	0.012586	1.343272	0.005941	0.004976	0.002745	-0.56543	0.091553	-0.563232
386.0	9.841774	-0.034542	1.399722	0.006881	0.003741	0.001244	-0.563232	0.09375	-0.565674
387.0	9.853458	-0.056267	1.365584	0.006477	0.000267	0.000698	-0.558594	0.09375	-0.565674
388.0	9.854675	-0.025396	1.381199	0.004649	-0.001719	-0.001902	-0.563232	0.095947	-0.563477
389.0	9.855873	0.005592	1.396955	0.009657	0.003196	-0.001211	-0.567627	0.089355	-0.570068
390.0	9.88276	-0.005036	1.378837	0.007744	0.006234	-0.003269	-0.562988	0.087158	-0.556152
391.0	9.867467	-0.015412	1.363484	-0.000972	0.001803	-0.003559	-0.564941	0.082764	-0.565186
392.0	9.883871	0.026232	1.395173	0.000404	0.003474	0.000545	-0.563232	0.09375	-0.565674
393.0	9.854455	-0.024414	1.382787	-0.007013	0.004442	0.001347	-0.565186	0.089355	-0.56543
394.0	9.866192	0.013437	1.345953	-0.000575	0.006573	0.00054	-0.567627	0.089355	-0.556152
395.0	9.840274	-0.004559	1.383765	0.000855	0.003789	-0.000958	-0.567627	0.089355	-0.567871
396.0	9.840223	-0.004653	1.384131	-0.003756	0.003644	0.002449	-0.567627	0.091553	-0.558594
397.0	9.810919	0.004295	1.368565	-0.00465	0.001719	0.001901	-0.562988	0.089355	-0.567871
398.0	9.825996	-0.044768	1.387802	0.00126	0.007264	-0.000413	-0.569824	0.091553	-0.570068
399.0	9.824851	-0.016135	1.369359	-0.002256	-0.001572	0.007515	-0.560791	0.087158	-0.560791
400.0	9.865856	-0.047605	1.350731	-0.002286	-0.001004	0.002456	-0.562988	0.091553	-0.556152
401.0	9.8271	-0.074753	1.406489	0.007456	-0.002832	0.000705	-0.556152	0.084961	-0.572266
402.0	9.855276	-0.055043	1.403493	0.013886	0.000595	0.003452	-0.567627	0.089355	-0.56543
403.0	9.852965	-0.056787	1.369109	0.015278	-0.000326	0.000448	-0.558594	0.091553	-0.574707
404.0	9.865891	-0.047683	1.350475	0.012953	0.000534	0.001398	-0.562988	0.087158	-0.56543
405.0	9.865965	0.012148	1.347632	0.012425	0.003948	-0.000111	-0.562988	0.089355	-0.56543
406.0	9.879937	-0.007699	1.348131	0.008716	0.004432	0.000289	-0.562988	0.089355	-0.563232
407.0	9.852906	0.003449	1.367225	0.008678	0.006296	-0.001217	-0.556152	0.089355	-0.56543
408.0	9.85282	0.003593	1.367848	0.00961	0.006358	0.000835	-0.565186	0.084961	-0.560547
409.0	9.837511	-0.007246	1.352656	0.00594	0.004979	0.002742	-0.567383	0.084961	-0.562988
410.0	9.852682	0.003415	1.368836	0.006881	0.003743	0.001242	-0.560791	0.091553	-0.563232
411.0	9.824483	-0.016334	1.371995	0.004603	0.001442	0.000146	-0.565186	0.089355	-0.56543
412.0	9.866682	-0.016533	1.36914	0.008839	-0.002455	0.001256	-0.562988	0.089355	-0.560791
413.0	9.824483	-0.016375	1.37199	0.011521	0.003322	0.002894	-0.560547	0.084961	-0.562988
414.0	9.866633	-0.016709	1.369496	0.010138	0.002946	0.002344	-0.562988	0.089355	-0.558594
415.0	9.824398	-0.016404	1.372603	0.009657	0.003197	-0.001212	-0.563232	0.091553	-0.56543
416.0	9.86423	-0.018492	1.335881	0.006382	0.006592	0.00479	-0.567627	0.091553	-0.56543
417.0	9.8512	-0.027676	1.355215	0.012377	0.007111	0.001932	-0.565186	0.087158	-0.56543
418.0	9.8394	-0.005912	1.389966	0.00737	0.002194	0.001245	-0.562744	0.082764	-0.560547
419.0	9.851119	-0.0277	1.3558	0.006476	0.000269	0.000699	-0.562744	0.084961	-0.560547
420.0	9.852311	0.003124	1.371509	0.009695	0.001334	0.000295	-0.567627	0.091553	-0.560791
421.0	9.867391	-0.045634	1.39063	0.009657	0.003197	-0.001213	-0.560791	0.091553	-0.563232
422.0	9.866252	-0.016404	1.37224	0.014259	0.00464	-0.001068	-0.567627	0.091553	-0.558594
423.0	9.849923	0.001984	1.337837	0.00929	-0.00214	-0.000246	-0.560791	0.087158	-0.562988
424.0	9.85101	-0.02695	1.356607	0.01201	0.001776	0.002897	-0.572021	0.091553	-0.560791
425.0	9.881435	-0.005339	1.388298	0.012913	0.002402	-0.000111	-0.560791	0.089355	-0.56543
426.0	9.866161	-0.015989	1.372896	0.008715	0.004435	0.000285	-0.572021	0.091309	-0.558594
427.0	9.850898	-0.026761	1.357427	0.009243	0.001023	0.001797	-0.562988	0.087158	-0.56543
428.0	9.83565	-0.037565	1.341845	0.012461	0.00209	0.001392	-0.563232	0.091553	-0.567871
429.0	9.850837	-0.026742	1.357869	0.011972	0.003639	0.001387	-0.560791	0.089355	-0.56543
430.0	9.837843	-0.035572	1.376892	0.01104	0.003575	-0.000666	-0.558594	0.091553	-0.56543
431.0	9.851831	-0.055412	1.377302	0.011077	0.001714	0.000843	-0.562988	0.087158	-0.572266
432.0	9.849655	0.002485	1.339809	0.014334	0.000918	0.001946	-0.56543	0.09375	-0.563232
433.0	9.878739	-0.066668	1.359222	0.012893	0.005008	0.00699	-0.565186	0.089355	-0.563232
434.0	9.848383	-0.028911	1.324741	0.015755	-0.000566	0.004004	-0.562988	0.089355	-0.56543
435.0	9.852913	-0.025338	1.393715	0.019378	0.003977	0.004136	-0.565186	0.084961	-0.565186
436.0	9.879855	-0.036566	1.375398	0.017138	-0.000188	0.004552	-0.560791	0.089355	-0.558594
437.0	9.836591	-0.007522	1.359323	0.016206	-0.000253	0.002499	-0.563232	0.09375	-0.563232
438.0	9.850611	-0.027552	1.359487	0.017589	0.000125	0.003047	-0.56543	0.09375	-0.558594
439.0	9.8506	-0.027494	1.359573	0.02126	0.001503	0.001137	-0.565186	0.089355	-0.570068
440.0	9.863544	-0.018362	1.340936	0.018982	-0.0008	4.5e-05	-0.567871	0.095947	-0.561035
441.0	9.836586	-0.007065	1.359364	0.01389	-0.000694	-0.000104	-0.565186	0.089355	-0.57251
442.0	9.849522	0.002022	1.340788	0.014295	0.002783	0.000432	-0.567627	0.089355	-0.563232
443.0	9.86473	0.01288	1.356635	0.011114	-0.000144	0.002349	-0.562988	0.087158	-0.570068
444.0	9.86232	-0.04869	1.325536	0.01389	-0.000693	-0.000105	-0.56543	0.09375	-0.558594
445.0	9.864732	0.013117	1.356617	0.014784	0.001234	0.000437	-0.562988	0.089355	-0.567871
446.0	9.850547	-0.026353	1.359975	0.013363	0.002717	-0.001622	-0.56543	0.09375	-0.561035
447.0	9.878714	-0.00641	1.357071	0.012055	-0.001381	0.000851	-0.565186	0.089355	-0.563232
448.0	9.864576	-0.045955	1.360107	0.011123	-0.001448	-0.001202	-0.567627	0.091553	-0.563232
449.0	9.876468	-0.00779	1.322461	0.014793	-7.1e-05	-0.003114	-0.567383	0.087158	-0.56543
450.0	9.863491	-0.016333	1.341356	0.018896	0.004231	0.000568	-0.563232	0.09375	-0.558594
451.0	9.890379	-0.027112	1.323485	0.01373	0.008055	-0.002602	-0.562988	0.089355	-0.563232
452.0	9.834076	-0.006471	1.326713	0.011001	0.005439	-0.002187	-0.567383	0.087158	-0.56543
453.0	9.834019	-0.006071	1.327136	0.008724	0.003133	-0.003276	-0.55835	0.084961	-0.560547
454.0	9.853728	0.009084	1.411984	0.006399	0.003994	-0.002328	-0.56543	0.091553	-0.563232
455.0	9.876124	-0.00563	1.325037	0.006889	0.002445	-0.00232	-0.567627	0.091553	-0.56543
456.0	9.836162	-0.003184	1.362443	0.00782	0.002513	-0.000268	-0.558594	0.091553	-0.553955
457.0	9.80913	0.008047	1.381311	0.006841	0.005612	-0.000284	-0.562744	0.084961	-0.55835
458.0	9.838331	-0.000889	1.39752	0.010633	0.000104	-0.001209	-0.563232	0.091553	-0.56543
459.0	9.852381	-0.020842	1.397545	0.003782	-0.0042	0.002624	-0.562988	0.089355	-0.563232
460.0	9.851253	-0.051763	1.381573	0.008431	-0.005922	0.000727	-0.563232	0.091553	-0.563232
461.0	9.864299	-0.042814	1.362218	0.014011	-0.007574	0.000882	-0.563232	0.09375	-0.565674
462.0	9.863206	-0.073492	1.345969	0.016335	-0.008434	-6.7e-05	-0.562988	0.087158	-0.560791
463.0	9.894921	-0.02074	1.392342	0.017144	-0.001478	0.000996	-0.574219	0.089111	-0.56543
464.0	9.89492	-0.020539	1.392353	0.010144	0.001654	-0.00122	-0.56543	0.091553	-0.558594
465.0	9.87633	-0.004514	1.323506	0.006915	0.001896	0.002738	-0.565186	0.084961	-0.567627
466.0	9.889243	0.004512	1.305092	0.005468	0.003924	-0.004384	-0.565186	0.087158	-0.567627
467.0	9.835197	0.027092	1.342753	0.002117	0.011052	-0.001417	-0.565186	0.089355	-0.56543
468.0	9.864288	0.018344	1.359783	0.006729	0.011189	-0.004827	-0.567627	0.091553	-0.560791
469.0	9.89342	0.009533	1.376497	0.003622	0.004546	0.000121	-0.567627	0.089355	-0.567871
470.0	9.850063	0.038763	1.360997	0.007697	0.009401	-0.001262	-0.560791	0.087158	-0.55835
471.0	9.85327	0.012107	1.415153	0.006351	0.007163	-0.000297	-0.565186	0.084961	-0.567627
472.0	9.823958	0.021065	1.399736	0.002266	0.003619	0.004635	-0.567627	0.089355	-0.563232
473.0	9.809762	-0.018851	1.403302	-0.002362	0.002719	-0.000565	-0.562988	0.087158	-0.567627
474.0	9.837918	0.000625	1.400425	0.001409	-0.000168	0.005609	-0.56543	0.09375	-0.565674
475.0	9.840201	0.002214	1.434615	-0.006399	-0.003994	0.002331	-0.561035	0.09375	-0.567871
476.0	9.837987	-6.2e-05	1.399938	-0.005053	-0.001756	0.001366	-0.567383	0.087158	-0.56543
477.0	9.836816	-0.030923	1.384324	-0.000441	-0.00162	-0.002044	-0.567627	0.089355	-0.563232
478.0	9.864989	-0.01085	1.381346	-0.000515	0.002098	-0.00507	-0.563232	0.09375	-0.565674
479.0	9.867346	0.051248	1.41244	-0.006058	0.001891	-0.003713	-0.567627	0.089355	-0.56543
480.0	9.836796	-0.029714	1.384491	-0.006451	-0.002898	-0.007792	-0.567627	0.091553	-0.558594
481.0	9.877963	-0.000444	1.362542	0.001405	-0.002241	-0.006549	-0.563232	0.091553	-0.56543
482.0	9.835801	0.000417	1.365054	0.006043	-0.002652	-0.004897	-0.56543	0.09375	-0.565674
483.0	9.862819	-0.010231	1.346346	0.006974	-0.002582	-0.002844	-0.565186	0.089355	-0.56543
484.0	9.848819	0.010044	1.345904	0.006032	-0.001341	-0.001349	-0.563232	0.091553	-0.563232
485.0	9.834702	-0.029503	1.348974	0.002814	-0.00241	-0.000939	-0.565186	0.087158	-0.56543
486.0	9.862887	-0.009767	1.345849	0.006021	-3.1e-05	0.002199	-0.567627	0.091553	-0.563232
487.0	9.863971	-0.038818	1.364707	0.006059	-0.001889	0.003713	-0.567383	0.084961	-0.565186
488.0	9.849944	-0.019066	1.364457	0.006915	0.001898	0.002738	-0.567627	0.09375	-0.563232
489.0	9.890958	-0.050191	1.346211	0.017633	-0.003023	0.001006	-0.563232	0.091553	-0.570068
490.0	9.935365	-0.048407	1.378193	0.016031	0.009822	0.003534	-0.572021	0.089355	-0.56543
491.0	9.961095	-0.031002	1.342138	0.019152	0.017231	0.007191	-0.565186	0.084961	-0.565186
492.0	9.961932	-0.000614	1.360143	0.020241	0.034554	0.007781	-0.56958	0.087158	-0.562988
493.0	9.921384	0.000929	1.401503	0.0135	0.050676	0.012185	-0.565186	0.087158	-0.570068
494.0	9.912129	-0.004874	1.493913	-0.004047	0.048676	0.010648	-0.567627	0.091553	-0.563232
495.0	9.935198	-0.049919	1.429421	-0.005983	0.026253	0.007488	-0.565186	0.089355	-0.57251
496.0	9.906934	-0.010761	1.430442	-0.004714	0.006207	0.00747	-0.56543	0.09375	-0.556396
497.0	9.842995	-0.028136	1.313916	-0.010882	-0.01233	0.003185	-0.562988	0.089355	-0.567871
498.0	9.800971	-0.028416	1.315268	-0.00112	-0.0147	0.006505	-0.567383	0.082764	-0.565186
499.0	9.784067	0.077096	1.256823	-0.019218	-0.010668	0.010535	-0.567627	0.089355	-0.570068
500.0	9.826053	0.015442	1.258064	-0.055319	0.018372	0.014104	-0.567627	0.09375	-0.565674
501.0	9.755307	-0.0063	1.266442	-0.057948	0.0375	0.018636	-0.569824	0.089355	-0.570068
502.0	9.684649	0.031187	1.272059	-0.084716	0.03394	0.020338	-0.562988	0.089355	-0.567871
503.0	9.647437	0.000548	1.139733	-0.130203	0.014802	0.016837	-0.567383	0.087158	-0.572266
504.0	9.542453	0.013206	1.042129	-0.124847	-0.003731	-0.000317	-0.563232	0.09375	-0.565674
505.0	9.469297	0.079526	0.989336	-0.13498	-0.03527	-0.005879	-0.567627	0.09375	-0.567871
506.0	9.574794	0.121713	0.854558	-0.181725	-0.064209	-0.016141	-0.572266	0.09375	-0.561035
507.0	9.796833	0.067883	0.785825	-0.217631	-0.049562	-0.019243	-0.567627	0.091553	-0.567871
508.0	10.036976	-0.00236	0.789529	-0.248386	0.015898	-0.019761	-0.570068	0.095947	-0.563477
509.0	10.180534	-0.050582	0.837995	-0.281962	0.055212	-0.022594	-0.567627	0.091553	-0.563232
510.0	10.192725	-0.16073	0.830579	-0.309993	0.066183	-0.030106	-0.560791	0.089355	-0.558594
511.0	10.201808	-0.241848	0.770047	-0.306316	0.062633	-0.046387	-0.561035	0.098145	-0.570313
512.0	10.174122	-0.348008	0.799432	-0.308972	0.078083	-0.052506	-0.565674	0.100342	-0.561279
513.0	10.144374	-0.454169	0.794651	-0.285946	0.080943	-0.071065	-0.567871	0.095947	-0.572754
514.0	10.057567	-0.450092	0.771951	-0.277553	0.075142	-0.070498	-0.565674	0.100342	-0.565918
515.0	10.058344	-0.474204	0.796424	-0.255384	0.07611	-0.075884	-0.563477	0.100342	-0.568115
516.0	10.016853	-0.437933	0.822182	-0.2333	0.082089	-0.080641	-0.563721	0.104736	-0.563721
517.0	9.977145	-0.34064	0.881679	-0.212555	0.085807	-0.084443	-0.563477	0.100342	-0.570557
518.0	9.854829	-0.302721	0.98261	-0.202518	0.091929	-0.079966	-0.563721	0.104736	-0.568359
519.0	9.743433	-0.256246	1.030666	-0.190767	0.082738	-0.085361	-0.559082	0.104736	-0.577637
520.0	9.670423	-0.211084	1.006216	-0.185828	0.06663	-0.08053	-0.561279	0.104736	-0.559082
521.0	9.627795	-0.205083	1.013695	-0.171531	0.047762	-0.084509	-0.563477	0.102539	-0.570557
522.0	9.64166	-0.218543	1.01757	-0.153978	0.049724	-0.08278	-0.565918	0.104736	-0.565918
523.0	9.610744	-0.262721	0.972313	-0.132584	0.046162	-0.082022	-0.565918	0.102539	-0.570557
524.0	9.62406	-0.306065	0.95871	-0.092564	0.039473	-0.078	-0.561523	0.106934	-0.570801
525.0	9.638884	-0.28921	0.978019	-0.04727	0.02572	-0.072894	-0.561279	0.100342	-0.572754
526.0	9.624106	-0.202783	0.979825	-0.005733	0.015037	-0.073944	-0.556885	0.104736	-0.565918
527.0	9.69866	-0.143886	1.062243	0.03513	-0.005693	-0.078326	-0.561279	0.100342	-0.568115
528.0	9.73708	-0.143032	1.250294	0.073953	0.000262	-0.081603	-0.563721	0.104736	-0.561279
529.0	9.798578	-0.091814	1.34991	0.114107	-0.010028	-0.088303	-0.561279	0.100342	-0.565918
530.0	9.754879	-0.081499	1.315827	0.167514	-0.030358	-0.103349	-0.561279	0.100342	-0.561279
531.0	9.617283	0.010618	1.387914	0.22613	-0.037876	-0.111311	-0.558594	0.09375	-0.567871
532.0	9.183746	0.06979	1.457466	0.303709	-0.062825	-0.109326	-0.563232	0.095947	-0.563477
533.0	8.845151	0.198166	1.466421	0.343159	-0.085624	-0.085562	-0.558594	0.09375	-0.574951
534.0	8.563436	0.337201	1.227484	0.332497	-0.107603	-0.020605	-0.562988	0.089355	-0.570068
535.0	8.574211	0.352477	0.647486	0.31392	-0.058625	0.086581	-0.562988	0.089355	-0.567871
536.0	8.621437	0.34902	0.229053	0.332943	0.076469	0.220423	-0.560791	0.091553	-0.567871
537.0	8.917954	0.359186	-0.020293	0.389522	0.192945	0.356954	-0.55835	0.084961	-0.569824
538.0	9.685241	0.419438	0.079025	0.4522	0.341543	0.490445	-0.556396	0.09375	-0.567871
539.0	10.866751	0.310112	0.580631	0.464865	0.473249	0.579925	-0.558594	0.089355	-0.574707
540.0	11.925881	-0.01673	1.048967	0.418893	0.519311	0.616121	-0.547363	0.09375	-0.574951
541.0	12.658567	-0.466676	0.96907	0.360511	0.333905	0.5587	-0.558594	0.089355	-0.577148
542.0	12.960719	-0.808466	0.27044	0.324614	0.023674	0.401811	-0.552246	0.098145	-0.577393
543.0	12.448702	-1.154462	-0.345492	0.359653	-0.002845	0.224077	-0.552002	0.095947	-0.57959
544.0	11.49606	-1.188176	-0.103237	0.560795	0.1519	0.03082	-0.552246	0.098145	-0.57959
545.0	10.746048	-0.540395	0.629087	0.686268	0.097966	-0.10669	-0.551758	0.089355	-0.586426
546.0	10.304151	0.058528	0.538399	0.547812	-0.045899	-0.158345	-0.556152	0.087158	-0.576904
547.0	10.170511	0.130846	-0.091362	0.458263	-0.076363	-0.185346	-0.553711	0.082764	-0.58374
548.0	10.215461	0.392287	-0.532184	0.526647	0.042067	-0.208944	-0.549072	0.080566	-0.579102
549.0	9.846051	0.761307	-0.346531	0.568064	0.269212	-0.204509	-0.548828	0.06958	-0.581055
550.0	9.526357	0.811586	0.294379	0.500303	0.35404	-0.184201	-0.546387	0.06958	-0.581055
551.0	9.347537	0.760324	0.612742	0.400106	0.32535	-0.161858	-0.541992	0.067383	-0.583252
552.0	9.255076	0.700491	0.474816	0.282449	0.275837	-0.147667	-0.548828	0.06958	-0.585693
553.0	9.148442	0.650887	0.26307	0.212344	0.240839	-0.144893	-0.537354	0.065186	-0.585449
554.0	8.975144	0.623014	0.170966	0.153259	0.257059	-0.138986	-0.539551	0.067383	-0.583252
555.0	8.692387	0.62235	0.233751	0.116836	0.244625	-0.154096	-0.534668	0.058594	-0.596924
556.0	8.663111	0.620501	0.288807	0.060969	0.18567	-0.163106	-0.539307	0.058594	-0.589844
557.0	8.477044	0.644218	0.200207	0.033772	0.149971	-0.173003	-0.536865	0.056396	-0.592041
558.0	8.504546	0.567211	0.291141	-0.003217	0.125161	-0.166953	-0.54126	0.054199	-0.584961
559.0	8.486618	0.541875	0.045002	-0.052636	0.105306	-0.146434	-0.532227	0.054199	-0.5896
560.0	8.668104	0.399288	-0.069995	-0.105985	0.086818	-0.117032	-0.536865	0.056396	-0.592041
561.0	8.835553	0.266425	-0.257507	-0.159028	0.058495	-0.071099	-0.532227	0.049805	-0.5896
562.0	8.876763	0.193354	-0.417183	-0.171339	0.064718	-0.02727	-0.528076	0.058594	-0.589844
563.0	8.947599	0.187259	-0.394105	-0.203549	0.048012	0.003525	-0.527832	0.056396	-0.592041
564.0	9.130829	0.132278	-0.437797	-0.229103	0.03074	0.0265	-0.530273	0.058594	-0.587646
565.0	9.087696	0.112946	-0.605404	-0.233486	0.047509	0.036388	-0.534912	0.060791	-0.592285
566.0	9.341179	0.1365	-0.659519	-0.240186	-0.010845	0.028845	-0.525879	0.062988	-0.590088
567.0	9.340239	0.18114	-0.802857	-0.222277	0.001359	0.038529	-0.530029	0.054199	-0.592041
568.0	9.396845	0.16011	-0.799359	-0.231535	0.032055	0.027068	-0.525635	0.058594	-0.585205
569.0	9.326244	0.130062	-0.895485	-0.223943	0.062387	0.025676	-0.528076	0.062988	-0.590088
570.0	9.34095	0.110469	-0.887583	-0.227816	0.064098	0.012144	-0.52832	0.065186	-0.590088
571.0	9.482256	0.057622	-0.929706	-0.240826	0.053517	0.005976	-0.525879	0.062988	-0.599365
572.0	9.511314	0.086024	-0.856013	-0.237318	0.08433	-0.015853	-0.528564	0.06958	-0.590332
573.0	9.470043	0.130407	-0.729376	-0.224344	0.091063	-0.041235	-0.523682	0.065186	-0.583252
574.0	9.470359	0.262754	-0.663769	-0.207493	0.037064	-0.086113	-0.52832	0.067383	-0.585449
575.0	9.680828	0.414141	-0.796308	-0.218784	-0.047905	-0.12098	-0.523682	0.065186	-0.587891
576.0	10.074062	0.459993	-0.941634	-0.235159	-0.045182	-0.151531	-0.519287	0.065186	-0.578613
577.0	10.438111	0.565026	-1.312177	-0.251311	0.023592	-0.203356	-0.519287	0.065186	-0.583252
578.0	10.831664	0.694278	-1.310618	-0.273925	0.127127	-0.242282	-0.519531	0.073975	-0.585693
579.0	10.972178	0.79149	-0.950423	-0.25049	0.180143	-0.293614	-0.519043	0.058594	-0.585205
580.0	11.332203	1.198955	-0.695071	-0.289426	0.132494	-0.342077	-0.514648	0.060791	-0.580566
581.0	12.029939	1.496703	-0.964351	-0.445231	0.15085	-0.388008	-0.512207	0.058594	-0.589844
582.0	12.595253	1.344002	-1.266871	-0.459679	0.203805	-0.4358	-0.507813	0.058594	-0.585205
583.0	13.160795	1.762061	-1.411658	-0.307903	0.116332	-0.488249	-0.507813	0.058594	-0.583008
584.0	14.125272	2.390793	-1.746333	-0.367786	-0.001882	-0.463841	-0.51001	0.060791	-0.578369
585.0	14.853465	2.412031	-2.19344	-0.56669	-0.001478	-0.361532	-0.509766	0.056396	-0.587402
586.0	14.929569	1.794249	-2.176907	-0.611076	0.127577	-0.248717	-0.505371	0.058594	-0.583008
587.0	14.134484	1.120797	-1.758713	-0.524854	0.031518	-0.166087	-0.500977	0.061035	-0.583008
588.0	14.84624	0.278466	-0.227785	-0.181864	-0.156385	-0.162791	-0.507813	0.060791	-0.578369
589.0	16.7338	-0.370555	2.221824	0.014269	-0.128892	-0.170822	-0.501221	0.06543	-0.583252
590.0	15.287212	-0.764047	2.256817	-0.440727	-0.069529	-0.112352	-0.503418	0.062988	-0.57373
591.0	11.677205	-1.381497	-0.251067	-0.656192	0.002074	-0.05313	-0.500977	0.058594	-0.575928
592.0	9.904178	-2.154068	0.291021	-0.069886	0.20588	-0.063009	-0.496826	0.067627	-0.578613
593.0	8.417323	-1.028411	4.102956	0.580292	0.389961	-0.083256	-0.496338	0.058838	-0.585205
594.0	6.74137	0.668256	6.743278	0.2908	0.17232	-0.003498	-0.498779	0.058838	-0.580566
595.0	7.104467	0.864226	6.022737	-0.322821	-0.045391	0.044724	-0.496826	0.06543	-0.585449
596.0	7.590485	-0.053074	6.774566	-0.25395	-0.020944	-0.010946	-0.496826	0.067627	-0.580811
597.0	8.833137	0.705191	5.28606	-0.189933	-0.111995	-0.146541	-0.489746	0.063232	-0.583008
598.0	10.301038	0.990193	2.971675	-0.416146	0.098527	-0.271467	-0.496826	0.069824	-0.583252
599.0	11.519516	-0.409595	3.261127	-0.356919	0.364282	-0.330632	-0.487549	0.061035	-0.590088
600.0	12.118242	-0.743097	4.169793	-0.027395	0.456316	-0.328602	-0.480957	0.067627	-0.587891
601.0	12.113005	0.197645	4.045977	0.0594	0.221151	-0.216967	-0.48291	0.056641	-0.587402
602.0	11.548316	0.765741	3.007915	-0.080159	0.073337	-0.038267	-0.480713	0.058838	-0.587646
603.0	10.598666	0.825378	2.321999	-0.069183	0.13881	0.103692	-0.478516	0.061035	-0.585449
604.0	9.54503	0.995377	2.153517	-0.013164	0.188743	0.194182	-0.481201	0.069824	-0.583252
605.0	8.654419	1.01175	2.059502	-0.106283	0.194595	0.258632	-0.483154	0.063232	-0.590088
606.0	8.214217	1.145112	2.30317	-0.044609	0.178791	0.291624	-0.47876	0.06543	-0.585449
607.0	8.10146	1.415065	2.725058	-0.13751	0.118609	0.327623	-0.474609	0.074219	-0.588135
608.0	7.649319	1.030927	2.846531	-0.341181	0.149699	0.366444	-0.479004	0.074219	-0.590576
609.0	6.688955	0.331204	2.449491	-0.444818	0.174102	0.366402	-0.472412	0.078613	-0.595215
610.0	6.059678	0.024627	2.142697	-0.419078	0.112639	0.307153	-0.472656	0.085205	-0.586182
611.0	6.022806	-0.031333	1.990374	-0.389809	0.041173	0.25168	-0.472656	0.085205	-0.588623
612.0	5.987553	-0.173227	1.886856	-0.426371	0.055949	0.210945	-0.468262	0.087646	-0.586426
613.0	5.96652	-0.548266	1.605753	-0.427805	0.018781	0.162527	-0.470703	0.089844	-0.593262
614.0	6.008674	-0.71649	1.358445	-0.298877	-0.090974	0.117302	-0.468506	0.092041	-0.584229
615.0	6.40751	-0.763545	1.309989	-0.21425	-0.199259	0.091418	-0.473145	0.098633	-0.59375
616.0	6.675186	-1.001489	1.157356	-0.236848	-0.315428	0.103124	-0.473145	0.096436	-0.58667
617.0	6.851199	-1.247222	0.766969	-0.177786	-0.428639	0.126213	-0.466309	0.096436	-0.58667
618.0	7.076325	-1.270495	0.308067	-0.064202	-0.477232	0.143656	-0.473633	0.105225	-0.582275
619.0	7.061769	-0.983896	-0.045289	0.080789	-0.449946	0.155833	-0.475586	0.103027	-0.584473
620.0	6.95527	-0.676977	-0.138423	0.152053	-0.439609	0.164915	-0.477783	0.10083	-0.577637
621.0	6.776891	-0.333084	-0.162968	0.206179	-0.475194	0.150947	-0.477783	0.10083	-0.577637
622.0	6.614643	-0.036636	-0.208226	0.174957	-0.52673	0.127906	-0.47998	0.098389	-0.572754
623.0	6.499252	0.058114	-0.485922	0.083257	-0.617405	0.096394	-0.484619	0.100586	-0.568115
624.0	6.650653	-0.007568	-0.892562	0.076517	-0.680159	0.064582	-0.482422	0.102783	-0.565918
625.0	7.164428	-0.019632	-1.115286	0.151545	-0.649419	0.026379	-0.491211	0.098389	-0.561279
626.0	7.893685	-0.091525	-1.066389	0.244917	-0.503713	-0.011857	-0.484375	0.098389	-0.558838
627.0	8.834131	-0.500087	-0.74413	0.307908	-0.323835	-0.045404	-0.484375	0.093994	-0.565674
628.0	9.964597	-0.981693	-0.347712	0.473958	-0.202502	-0.056478	-0.48877	0.091797	-0.553955
629.0	11.304612	-1.156136	0.08574	0.71133	-0.21636	-0.046918	-0.479492	0.085205	-0.556152
630.0	12.861097	-1.07359	0.28478	0.869631	-0.232604	-0.011384	-0.488525	0.087402	-0.546875
631.0	14.114507	-0.78897	-0.107161	0.907981	-0.256742	0.080296	-0.481689	0.085205	-0.553711
632.0	15.013317	-0.453788	-0.878692	0.724356	-0.435102	0.233617	-0.484131	0.0896	-0.551514
633.0	15.681031	-0.856626	-2.254591	0.462811	-0.448928	0.332339	-0.481445	0.080811	-0.546631
634.0	16.068198	-1.175812	-3.241636	0.580252	-0.400178	0.338044	-0.49292	0.083008	-0.549072
635.0	15.848564	-0.761631	-3.681238	0.719821	-0.320349	0.245563	-0.486084	0.080811	-0.546631
636.0	15.142342	-0.086673	-4.01307	0.66393	-0.237457	0.140688	-0.490479	0.080811	-0.541992
637.0	15.062755	0.094385	-4.022537	0.625916	-0.250768	0.038499	-0.492676	0.078613	-0.548828
638.0	18.034108	0.208083	-2.740213	0.808243	-0.04202	-0.053968	-0.490234	0.076416	-0.546387
639.0	22.917676	2.527104	0.867853	1.280249	0.609868	-0.027467	-0.483398	0.069824	-0.548584
640.0	19.231901	6.031914	4.793407	0.625053	1.237662	0.359262	-0.476807	0.074219	-0.5625
641.0	11.219432	2.533738	4.608547	-1.779903	1.196835	0.765952	-0.472656	0.087402	-0.560791
642.0	6.513691	-2.46932	4.347828	-1.101755	0.591476	0.767172	-0.470947	0.096191	-0.563477
643.0	4.242985	-0.157195	8.504982	1.080842	-0.206554	0.367382	-0.475098	0.0896	-0.563232
644.0	4.640628	2.838477	9.734814	0.290858	-0.922447	0.321041	-0.475586	0.098389	-0.556641
645.0	6.429155	-1.150458	6.71359	-0.744701	-0.530247	0.495602	-0.473389	0.100586	-0.561279
646.0	9.017999	-3.305542	4.403558	-0.187895	0.071582	0.583791	-0.478271	0.109375	-0.547607
647.0	8.698545	-3.517042	3.827062	0.168885	0.158824	0.691247	-0.473633	0.107422	-0.561523
648.0	10.573566	-2.519083	3.507223	0.694764	-0.10126	0.595941	-0.47583	0.10498	-0.559082
649.0	13.604173	-1.132048	4.108403	1.014896	-0.059181	0.521521	-0.471191	0.103027	-0.563721
650.0	13.584523	-0.77537	4.896225	0.801807	0.20811	0.41438	-0.480713	0.116211	-0.561768
651.0	12.062376	-1.261332	4.201689	0.498977	-0.164929	0.184611	-0.468994	0.107422	-0.559326
652.0	11.271041	-1.568468	2.247475	0.197817	-0.502798	0.021407	-0.478271	0.109619	-0.559326
653.0	10.925526	-2.076781	0.349118	0.07871	-0.452229	-0.031581	-0.473633	0.107422	-0.556885
654.0	10.479889	-1.864247	-0.207584	0.471869	-0.025591	-0.104299	-0.471436	0.109619	-0.550049
655.0	8.980399	-1.008919	0.983652	0.624229	0.333922	-0.18844	-0.473145	0.098389	-0.554199
656.0	7.812979	-0.353993	2.180993	0.646068	0.274063	-0.285596	-0.471436	0.107422	-0.552246
657.0	7.075174	0.338301	2.413746	0.615127	0.082561	-0.360675	-0.473145	0.096191	-0.561035
658.0	6.479031	0.946467	1.970621	0.577523	0.003602	-0.404607	-0.475342	0.096191	-0.561035
659.0	6.036467	1.269405	1.527846	0.554917	-0.033913	-0.417944	-0.475098	0.0896	-0.560791
660.0	5.616093	1.576275	1.411261	0.576469	-0.053357	-0.418771	-0.472656	0.087402	-0.55835
661.0	5.1967	1.836926	1.436697	0.539497	-0.036898	-0.393082	-0.474854	0.083008	-0.565186
662.0	4.966046	1.94472	1.388329	0.417944	-0.025281	-0.345959	-0.477295	0.087402	-0.546875
663.0	4.946863	1.752604	1.166891	0.265256	-0.033221	-0.261745	-0.470459	0.083008	-0.55835
664.0	5.160751	1.423058	0.784346	0.136674	-0.043801	-0.180413	-0.475098	0.0896	-0.558594
665.0	5.468883	1.251843	0.499379	0.061435	-0.012215	-0.119453	-0.472412	0.076416	-0.560303
666.0	5.63008	1.336307	0.236681	0.012456	0.010967	-0.090143	-0.474854	0.085205	-0.55835
667.0	5.896121	1.314416	0.23124	-0.115566	-0.011157	-0.078817	-0.470215	0.078613	-0.560547
668.0	6.187261	1.188217	0.204888	-0.187607	-0.037968	-0.081332	-0.4729	0.0896	-0.56543
669.0	6.404008	0.97608	0.124496	-0.276279	-0.006187	-0.100185	-0.468262	0.087402	-0.553711
670.0	6.480299	0.816368	0.026534	-0.319739	0.029243	-0.129501	-0.470947	0.098389	-0.556641
671.0	6.631861	0.609234	0.089566	-0.405656	0.012241	-0.140321	-0.463867	0.0896	-0.560791
672.0	6.97256	0.21668	-0.008495	-0.532814	-0.063582	-0.107375	-0.46875	0.098389	-0.556641
673.0	7.457074	0.290583	-0.301689	-0.537973	-0.117544	-0.082768	-0.46875	0.098633	-0.558838
674.0	8.189432	0.722281	-0.529489	-0.587462	-0.153735	-0.032594	-0.473633	0.107422	-0.559082
675.0	9.179676	1.193115	-0.650117	-0.619356	-0.181109	-0.001041	-0.468994	0.105225	-0.549805
676.0	10.30949	1.695053	-0.465753	-0.616454	-0.175017	0.008363	-0.467041	0.111816	-0.54541
677.0	11.56528	2.00862	0.089096	-0.749695	-0.072923	0.015941	-0.467041	0.111816	-0.554688
678.0	12.938719	1.748578	0.307095	-0.994784	-0.026392	0.000943	-0.474365	0.127197	-0.543701
679.0	13.783466	0.9737	-0.081914	-1.187723	0.01681	-0.041765	-0.463379	0.131592	-0.553223
680.0	13.852952	-0.099009	-1.013352	-1.210829	-0.177233	-0.131173	-0.472412	0.135986	-0.553223
681.0	14.359669	-1.098137	-1.954439	-0.936371	-0.432181	-0.252579	-0.461426	0.140381	-0.55127
682.0	15.317257	-1.47903	-2.710865	-0.666071	-0.439842	-0.353221	-0.472656	0.138184	-0.541748
683.0	15.517751	-1.092151	-3.670373	-0.487185	-0.340718	-0.340916	-0.466064	0.142578	-0.544189
684.0	15.269641	-0.241561	-4.695828	-0.435335	-0.307007	-0.248218	-0.470459	0.144775	-0.532715
685.0	16.268024	0.578299	-4.6306	-0.147622	-0.129793	-0.162865	-0.468262	0.144775	-0.539795
686.0	21.082148	0.269274	0.291672	0.386213	0.718156	-0.210693	-0.466309	0.14917	-0.542236
687.0	24.626067	-0.468151	7.484438	-0.003216	1.788182	-0.25507	-0.46167	0.144775	-0.55127
688.0	15.573009	0.105553	6.014592	-0.883266	0.613419	-0.369416	-0.45752	0.153809	-0.553955
689.0	10.387379	-0.496441	2.400707	-1.021087	0.033605	-0.438838	-0.454834	0.146973	-0.549072
690.0	7.721527	-2.584046	3.608438	-0.743517	0.076726	-0.322432	-0.464355	0.160156	-0.549561
691.0	5.94842	-3.647297	7.253647	0.337564	0.080664	-0.336269	-0.452637	0.149414	-0.55835
692.0	7.418173	-1.525362	12.306364	0.958256	0.081361	-0.576201	-0.464111	0.151367	-0.553955
693.0	8.638415	0.867605	10.601731	0.04356	-0.637098	-0.712537	-0.45459	0.142578	-0.548828
694.0	10.295938	1.356904	1.950444	-1.071604	-0.541586	-0.680559	-0.464111	0.151367	-0.544678
695.0	10.852154	-1.555366	-0.83723	-0.722077	0.362962	-0.528891	-0.452881	0.151611	-0.556152
696.0	11.666065	-2.222077	1.994167	0.74795	0.799436	-0.616108	-0.459473	0.146973	-0.553711
697.0	13.914867	0.517479	6.338164	1.248459	0.481012	-0.472353	-0.450195	0.140381	-0.560547
698.0	14.51088	2.696788	6.941718	0.242407	0.013791	-0.102351	-0.454834	0.144775	-0.560547
699.0	12.303908	1.994126	3.612122	-0.486576	-0.280319	0.153448	-0.454834	0.146973	-0.55835
700.0	10.710085	1.559234	0.743681	-0.286793	-0.446814	0.252851	-0.459717	0.153564	-0.553955
701.0	9.917132	1.734241	-0.57935	-0.203644	-0.152401	0.283032	-0.452637	0.147217	-0.55835
702.0	9.115513	1.475743	-0.088986	-0.143097	0.346091	0.320108	-0.461914	0.155762	-0.551758
703.0	7.685265	1.38534	1.701086	0.028188	0.607464	0.382274	-0.44873	0.1604	-0.563477
704.0	6.371792	1.343191	3.377042	-0.106961	0.571369	0.442627	-0.44873	0.162598	-0.563477
705.0	5.510411	0.746976	3.553885	-0.3941	0.365723	0.488794	-0.446777	0.169189	-0.563721
706.0	4.996057	0.007513	2.741905	-0.42491	0.153025	0.489113	-0.45166	0.175781	-0.563965
707.0	4.603412	-0.536217	1.912176	-0.355593	0.099933	0.455676	-0.440186	0.175781	-0.564209
708.0	4.28798	-0.671483	1.539773	-0.19361	0.124862	0.390783	-0.445313	0.188965	-0.573975
709.0	4.286497	-0.778183	1.665089	-0.107161	0.099928	0.339136	-0.44043	0.182373	-0.571289
710.0	4.367056	-0.73046	1.770433	-0.021102	0.053546	0.276005	-0.440674	0.186768	-0.564453
711.0	4.575409	-0.679335	1.734037	-0.015234	-0.046551	0.235541	-0.436035	0.18457	-0.564453
712.0	4.885163	-0.616551	1.742957	-0.016224	-0.182594	0.227439	-0.441162	0.195801	-0.56958
713.0	5.309613	-0.534825	1.637543	-0.050238	-0.378196	0.223899	-0.445068	0.18457	-0.559814
714.0	5.81574	-0.577136	1.10406	-0.084621	-0.55516	0.239728	-0.447754	0.195557	-0.55542
715.0	6.242957	-0.672859	0.373642	-0.027625	-0.509383	0.245739	-0.443359	0.195557	-0.560059
716.0	6.640109	-0.819162	-0.126342	0.079631	-0.282087	0.249485	-0.443604	0.20459	-0.562744
717.0	6.774837	-1.005531	-0.2929	0.279946	-0.025183	0.221691	-0.440918	0.193359	-0.5625
718.0	6.894412	-1.23542	0.05661	0.53626	0.048176	0.163925	-0.445801	0.199951	-0.558105
719.0	7.255913	-1.317788	0.467958	0.702785	-0.118983	0.097782	-0.443359	0.193359	-0.564697
720.0	7.716018	-1.474874	0.29417	0.712924	-0.376634	0.046562	-0.447754	0.193359	-0.5625
721.0	8.173894	-1.755418	-0.362508	0.742814	-0.621142	-1.5e-05	-0.445313	0.188965	-0.564453
722.0	8.659074	-1.901135	-1.231325	0.858852	-0.746127	-0.03517	-0.452148	0.191162	-0.550781
723.0	9.158066	-1.621627	-1.904256	1.031529	-0.730233	-0.059013	-0.449463	0.182373	-0.554932
724.0	10.031841	-1.047472	-2.065597	1.157494	-0.586358	-0.041325	-0.456299	0.180176	-0.552734
725.0	11.170726	-0.372638	-1.840248	1.125467	-0.396388	0.01218	-0.45166	0.175781	-0.559326
726.0	12.638607	0.053433	-1.606824	1.028042	-0.3015	0.067594	-0.456055	0.177979	-0.557129
727.0	14.122408	0.427531	-1.39798	0.920632	-0.281313	0.100533	-0.453369	0.166992	-0.563721
728.0	15.201657	1.074503	-1.400001	0.725211	-0.374396	0.107535	-0.465088	0.173584	-0.559326
729.0	15.613132	1.525042	-2.023139	0.311881	-0.502696	0.072931	-0.457764	0.164795	-0.554443
730.0	15.666084	1.063147	-3.047903	-0.153828	-0.447298	0.029148	-0.462402	0.166992	-0.556885
731.0	15.079719	0.170476	-4.1529	-0.267808	-0.156116	-0.05469	-0.460205	0.169189	-0.556885
732.0	13.945869	-0.297347	-4.637472	0.01906	0.130818	-0.161281	-0.460205	0.169189	-0.554443
733.0	12.343683	0.034944	-4.299002	0.368943	0.339663	-0.25975	-0.455322	0.158203	-0.561035
734.0	14.526124	-0.431334	-1.737187	0.849325	0.600416	-0.329384	-0.459961	0.1604	-0.565918
735.0	20.365746	2.108148	6.869386	2.634638	1.06359	-0.111327	-0.448242	0.147217	-0.576904
736.0	16.014999	6.899223	14.002883	1.019451	1.093601	0.608533	-0.45752	0.158203	-0.582031
737.0	8.206088	1.787396	7.659017	-2.613112	0.217136	1.127584	-0.447021	0.173584	-0.580322
738.0	4.932718	-4.127735	1.951866	-1.740077	-0.725948	1.152456	-0.45874	0.18457	-0.569092
739.0	4.389815	-2.33879	1.747223	0.507261	-1.106048	0.688474	-0.449463	0.177979	-0.566406
740.0	7.150679	-0.330308	5.757891	0.87078	-0.793359	0.551076	-0.460693	0.180176	-0.568848
741.0	13.390223	-0.112402	8.620209	0.870345	0.384865	0.500775	-0.45166	0.175781	-0.573486
742.0	14.244821	-0.222446	8.380648	0.141145	0.552529	0.875956	-0.454346	0.188965	-0.578613
743.0	12.545808	-0.691471	4.082337	-0.298979	-0.001527	0.864765	-0.451904	0.18457	-0.571289
744.0	14.421947	-0.956625	1.529843	0.13634	-0.379581	0.636268	-0.45459	0.193359	-0.576416
745.0	15.15511	-1.481657	2.233506	0.688034	0.098968	0.269909	-0.451904	0.182373	-0.580566
746.0	12.91629	-0.72082	3.838951	0.767024	0.261356	-0.055146	-0.454346	0.188965	-0.580811
747.0	11.435258	-0.258073	3.713093	0.207599	-0.034401	-0.122581	-0.449707	0.18457	-0.580566
748.0	11.113732	-1.408466	1.771669	-0.117027	-0.260048	-0.059734	-0.45874	0.188965	-0.578613
749.0	10.969169	-2.516802	0.361233	0.083664	-0.18531	-0.058239	-0.456299	0.180176	-0.582764
750.0	9.39443	-2.548328	0.12732	0.513478	0.111535	-0.167248	-0.460938	0.182373	-0.578369
751.0	8.001653	-1.439362	1.166481	0.806384	0.173069	-0.295239	-0.449463	0.177979	-0.587402
752.0	7.434744	-0.26576	2.098764	0.802856	0.073593	-0.388129	-0.458252	0.175781	-0.5896
753.0	7.026107	0.654277	2.337179	0.703032	0.024401	-0.430972	-0.455566	0.162598	-0.586914
754.0	6.436424	1.311764	1.846844	0.595891	0.009927	-0.449255	-0.462402	0.164795	-0.584473
755.0	6.116227	1.789423	1.605675	0.54635	-0.01454	-0.454613	-0.459961	0.1604	-0.58667
756.0	5.84879	2.113048	1.718222	0.482336	-0.013129	-0.426703	-0.461914	0.151611	-0.593262
757.0	5.399772	2.146419	1.898407	0.341587	0.000932	-0.363651	-0.466309	0.147217	-0.588623
758.0	5.17751	2.002064	1.726902	0.187506	-0.085954	-0.299913	-0.468506	0.151611	-0.588623
759.0	5.156755	1.859622	1.326692	0.084665	-0.176475	-0.248902	-0.459229	0.142822	-0.588379
760.0	5.183184	1.802383	0.921342	0.013584	-0.226045	-0.210852	-0.46875	0.151611	-0.595703
761.0	5.077406	1.736176	0.669545	-0.100607	-0.189721	-0.187674	-0.468262	0.142578	-0.59082
762.0	5.017818	1.678976	0.275216	-0.222321	-0.150131	-0.185352	-0.473145	0.14917	-0.581543
763.0	4.975946	1.505247	0.011767	-0.302241	-0.108457	-0.189012	-0.472656	0.142578	-0.579102
764.0	5.168388	1.220527	-0.281609	-0.377519	-0.075525	-0.188055	-0.470947	0.151611	-0.588623
765.0	5.458106	0.908749	-0.399414	-0.395178	0.011511	-0.180489	-0.466309	0.147217	-0.588623
766.0	5.824592	0.764689	-0.322788	-0.358024	0.081348	-0.178565	-0.475586	0.153809	-0.598145
767.0	6.325042	0.576084	-0.140339	-0.45246	0.109729	-0.142084	-0.46875	0.153809	-0.588867
768.0	6.723588	0.263334	-0.367463	-0.556749	0.118616	-0.083048	-0.470947	0.153809	-0.586426
769.0	7.279356	0.19122	-0.472682	-0.549661	0.127111	-0.028281	-0.468994	0.158203	-0.591309
770.0	7.892378	0.491258	-0.504167	-0.541832	0.069044	0.038415	-0.47583	0.164795	-0.596191
771.0	8.711863	0.856258	-0.648995	-0.667651	0.007951	0.102464	-0.469238	0.166992	-0.591553
772.0	9.725845	0.99675	-0.767424	-0.800175	0.077767	0.12576	-0.474121	0.175781	-0.594238
773.0	10.670615	0.844368	-0.320338	-0.871866	0.168865	0.105391	-0.469482	0.173584	-0.5896
774.0	12.149247	0.71267	0.314727	-0.856038	0.095405	0.035293	-0.469971	0.182373	-0.592285
775.0	13.769061	0.716904	0.685981	-0.770822	-0.007811	-0.065072	-0.474121	0.177979	-0.592041
776.0	14.83808	0.669078	-0.017412	-0.816098	-0.214581	-0.172487	-0.474609	0.188965	-0.583008
777.0	15.191512	0.111408	-1.679674	-0.876884	-0.485916	-0.264887	-0.474365	0.18457	-0.583008
778.0	15.897678	-0.85051	-3.09793	-0.790641	-0.486472	-0.351321	-0.479248	0.191162	-0.583252
779.0	15.943464	-1.305408	-4.164839	-0.492965	-0.307455	-0.387097	-0.481445	0.188965	-0.576172
780.0	15.065152	-0.703054	-4.928478	-0.334121	-0.137119	-0.318958	-0.486084	0.191162	-0.580811
781.0	14.270876	-0.084251	-5.502008	-0.421017	-0.060323	-0.171011	-0.481445	0.188965	-0.580811
782.0	14.866966	0.112196	-5.133735	-0.315001	0.012389	-0.046897	-0.481689	0.193359	-0.583252
783.0	19.758441	-0.709673	0.468852	0.563233	0.63395	-0.195612	-0.471924	0.180176	-0.587402
784.0	24.016373	-1.042997	9.591	0.57338	1.588611	-0.348876	-0.472168	0.182373	-0.599121
785.0	14.17817	1.384642	7.652043	-0.548015	0.410848	-0.523964	-0.474365	0.180176	-0.601318
786.0	8.982805	1.010774	2.169878	-1.2354	-0.260114	-0.534258	-0.483643	0.188965	-0.601807
787.0	6.157796	-1.983295	2.879037	-0.805508	-0.333342	-0.444526	-0.479248	0.188965	-0.587891
788.0	4.670773	-2.426158	5.271567	0.205429	-0.851291	-0.448893	-0.488037	0.186768	-0.585449
789.0	6.689933	1.281518	6.360788	0.599987	-0.330936	-0.640962	-0.485352	0.173584	-0.591797
790.0	8.908669	2.027323	9.555854	0.024287	0.454876	-0.48157	-0.492432	0.180176	-0.599121
791.0	8.33412	1.302538	8.678901	0.135013	-0.054816	-0.52592	-0.485107	0.171387	-0.593994
792.0	12.656102	1.870559	3.636621	-0.71093	-0.219916	-0.6604	-0.492432	0.180176	-0.594482
793.0	16.24518	-0.70191	0.839941	-0.913298	0.173269	-0.497456	-0.487305	0.166992	-0.596191
794.0	14.987523	-2.103603	2.423019	0.162807	0.819631	-0.362434	-0.489746	0.171143	-0.589355
795.0	13.833111	-0.550022	5.071218	0.601622	-0.056153	-0.093814	-0.482666	0.164795	-0.60083
796.0	13.380129	0.598086	4.225437	0.013821	-0.422156	0.208279	-0.494385	0.17334	-0.591797
797.0	11.567717	0.377623	1.714327	-0.194796	-0.17188	0.355664	-0.494141	0.168945	-0.598633
798.0	9.848527	0.911855	0.060526	-0.053014	-0.014132	0.386042	-0.499023	0.177734	-0.592041
799.0	9.333125	1.681628	0.402008	0.111722	-0.025011	0.396307	-0.494385	0.177979	-0.592041
800.0	8.868082	1.856823	1.684912	0.038937	0.065272	0.440097	-0.494873	0.18457	-0.589844
801.0	7.855186	1.264709	2.458414	-0.281307	0.160291	0.50045	-0.492432	0.18457	-0.589844
802.0	6.684438	0.081904	2.203577	-0.504937	0.126243	0.547793	-0.49292	0.195557	-0.592529
803.0	5.755339	-0.69152	1.599855	-0.487437	0.074299	0.523259	-0.488525	0.197754	-0.597412
804.0	5.076206	-0.83145	1.180987	-0.311657	0.061183	0.452154	-0.490967	0.202148	-0.590576
805.0	4.619369	-0.70197	1.202045	-0.162795	0.036725	0.366867	-0.486328	0.199951	-0.590576
806.0	4.58613	-0.680306	1.391972	-0.119477	-0.020243	0.290372	-0.486572	0.206543	-0.593018
807.0	4.494559	-0.849774	1.506124	-0.14561	-0.056117	0.248958	-0.486572	0.204346	-0.590576
808.0	4.474164	-0.966083	1.403184	-0.079339	-0.125525	0.208662	-0.491211	0.20874	-0.59082
809.0	4.544895	-1.074829	1.170014	-0.015179	-0.205983	0.183343	-0.48877	0.204346	-0.590576
810.0	4.860842	-1.037707	1.014156	0.093709	-0.300662	0.182918	-0.49585	0.20874	-0.59082
811.0	5.127092	-0.825706	0.55448	0.152689	-0.357743	0.192349	-0.48877	0.204346	-0.597656
812.0	5.45912	-0.837352	0.061147	0.142094	-0.383352	0.210717	-0.502441	0.206543	-0.58374
813.0	5.849415	-0.838271	-0.544723	0.207776	-0.380792	0.224164	-0.497803	0.206543	-0.58374
814.0	6.328981	-0.750311	-0.884902	0.386835	-0.296314	0.190693	-0.502441	0.20874	-0.58374
815.0	6.69843	-0.475992	-0.700932	0.519119	-0.156013	0.148115	-0.495361	0.202148	-0.595215
816.0	6.896884	-0.28888	-0.545263	0.567165	-0.092615	0.085178	-0.502197	0.202148	-0.585938
817.0	7.106809	-0.297816	-0.568882	0.568561	-0.109254	0.01381	-0.499756	0.195557	-0.592529
818.0	7.475631	-0.371269	-0.709346	0.571123	-0.176909	-0.054023	-0.504395	0.197754	-0.585693
819.0	7.785816	-0.449627	-0.712712	0.58899	-0.307121	-0.109332	-0.50415	0.193359	-0.587891
820.0	8.201974	-0.542913	-0.945979	0.583185	-0.470967	-0.138894	-0.508545	0.193115	-0.585693
821.0	8.856968	-0.648759	-1.322622	0.543711	-0.614175	-0.12366	-0.508301	0.182129	-0.582764
822.0	9.882143	-0.708433	-1.917981	0.576732	-0.691889	-0.089166	-0.517578	0.190918	-0.573975
823.0	11.434898	-0.574553	-2.202555	0.690749	-0.556269	-0.036056	-0.519287	0.177734	-0.578125
824.0	13.089153	-0.075361	-2.14614	0.805904	-0.221926	0.040235	-0.52124	0.17334	-0.580078
825.0	13.919648	0.69815	-1.92001	0.649579	-0.048453	0.167076	-0.512207	0.171143	-0.580078
826.0	14.687177	1.270097	-2.358774	0.244656	-0.270082	0.28003	-0.521729	0.182129	-0.582764
827.0	15.742692	1.685961	-3.437883	-0.010779	-0.582675	0.333581	-0.52124	0.17334	-0.573242
828.0	16.555506	1.788695	-4.623358	-0.22418	-0.615771	0.350648	-0.52832	0.179932	-0.571045
829.0	16.092889	1.12349	-5.69059	-0.478733	-0.2147	0.300458	-0.532959	0.179932	-0.571045
830.0	14.991251	0.229613	-6.407398	-0.484827	0.102188	0.187001	-0.530762	0.182129	-0.575928
831.0	14.101985	-0.668396	-6.4291	-0.358704	0.156127	0.064108	-0.526123	0.179932	-0.573486
832.0	16.149955	-1.881081	-4.857158	-0.020856	0.333992	-0.038072	-0.526367	0.186523	-0.571289
833.0	22.300174	-1.310891	0.499571	1.190655	1.395234	0.049992	-0.514648	0.17334	-0.587158
834.0	19.521652	2.937582	8.370226	1.089233	2.45571	0.432919	-0.508057	0.177734	-0.598877
835.0	9.546578	1.291211	8.960321	-1.825552	1.889486	0.861015	-0.499268	0.186768	-0.596924
836.0	3.934352	-2.748775	6.088357	-1.322098	0.076435	0.850809	-0.508789	0.199951	-0.602051
837.0	2.458027	-0.521741	6.545025	0.419707	-1.489821	0.463032	-0.510986	0.195313	-0.590332
838.0	5.862961	0.481239	8.085305	-0.058039	-1.50715	0.445727	-0.524658	0.201904	-0.581299
839.0	10.932121	-1.453952	7.102282	-0.118881	-0.183521	0.492571	-0.515869	0.204102	-0.588379
840.0	12.410922	-1.865334	6.365396	-0.224785	0.308108	0.783957	-0.520508	0.208496	-0.588379
841.0	10.233035	-2.794103	3.846545	-0.563309	0.162512	0.922042	-0.513916	0.213135	-0.586426
842.0	11.779222	-2.539315	1.74833	0.079314	-0.338466	0.774203	-0.518799	0.219727	-0.584229
843.0	14.643414	-1.3799	2.211682	0.870465	-0.091124	0.47319	-0.516113	0.20874	-0.593018
844.0	14.999578	-0.620966	4.087163	0.949858	0.207445	0.154767	-0.516113	0.210938	-0.588623
845.0	13.736782	-0.234853	3.978212	0.413934	-0.024846	-0.099668	-0.518066	0.206299	-0.59082
846.0	13.094951	-1.46117	1.522982	-0.341025	-0.308794	-0.154664	-0.522705	0.208496	-0.58374
847.0	12.674397	-2.518701	-0.835171	-0.248819	-0.2046	-0.153185	-0.524902	0.204102	-0.57666
848.0	11.142135	-2.969784	-1.385639	0.121884	0.431551	-0.230733	-0.520264	0.199707	-0.588135
849.0	8.586856	-2.690626	-0.198822	0.621357	0.92891	-0.329519	-0.517578	0.190918	-0.592529
850.0	6.606665	-1.45461	1.936535	1.033065	0.67731	-0.451941	-0.517578	0.190918	-0.594727
851.0	6.292633	0.369721	3.006216	1.022898	0.160731	-0.546523	-0.521729	0.179932	-0.59668
852.0	6.508821	1.350883	2.425296	0.655423	0.005284	-0.530476	-0.523926	0.179932	-0.594482
853.0	6.040964	1.268702	1.220515	0.526151	0.119179	-0.506754	-0.525635	0.166748	-0.596191
854.0	5.325546	1.564871	1.01784	0.67793	0.199144	-0.471644	-0.527588	0.157959	-0.602783
855.0	4.878644	2.143419	1.143441	0.660953	0.14285	-0.436139	-0.522705	0.14917	-0.5979
856.0	4.778059	2.414317	1.243359	0.495184	0.02702	-0.368166	-0.529785	0.157959	-0.602783
857.0	4.737096	2.180877	0.980593	0.290431	-0.020947	-0.30098	-0.5271	0.146973	-0.607178
858.0	4.835399	1.832597	0.535222	0.104131	-0.061288	-0.250282	-0.531738	0.151367	-0.607178
859.0	4.969593	1.950258	0.41313	0.093429	-0.056462	-0.208349	-0.529053	0.140137	-0.602295
860.0	5.06454	1.881813	0.450827	-0.12584	-0.053888	-0.159686	-0.533691	0.144531	-0.606934
861.0	5.104404	1.643447	-0.141687	-0.350365	-0.033521	-0.132162	-0.53125	0.140137	-0.604492
862.0	5.237459	1.35707	-0.414839	-0.441589	0.011837	-0.129054	-0.53833	0.148926	-0.600098
863.0	5.292747	1.189059	-0.487465	-0.49054	0.096077	-0.12808	-0.533447	0.135742	-0.594971
864.0	5.513008	0.857636	-0.351755	-0.583837	0.175112	-0.13072	-0.540283	0.142334	-0.597656
865.0	5.817675	0.549531	-0.243324	-0.622792	0.201143	-0.139843	-0.535889	0.144531	-0.597656
866.0	6.327978	0.284972	0.138714	-0.664364	0.201886	-0.132968	-0.53833	0.146729	-0.600098
867.0	6.703281	0.175195	0.331013	-0.66366	0.135525	-0.109117	-0.533936	0.146729	-0.600098
868.0	7.050581	0.467369	0.307692	-0.671534	-0.037053	-0.056862	-0.541016	0.155518	-0.600342
869.0	7.684529	1.07369	-0.428543	-0.785366	-0.204051	0.017071	-0.542725	0.146729	-0.600098
870.0	8.946874	1.435703	-1.120668	-1.019298	-0.386661	0.075108	-0.545654	0.159912	-0.593506
871.0	10.37915	1.509968	-1.265863	-1.147405	-0.413682	0.091821	-0.547852	0.157715	-0.593506
872.0	12.326583	1.394015	-0.745713	-1.226862	-0.302125	0.05458	-0.550293	0.162109	-0.589111
873.0	14.549939	1.389285	-0.557248	-1.171223	-0.224147	-0.044145	-0.550293	0.166504	-0.582275
874.0	15.734446	1.316195	-1.208379	-1.265318	-0.387743	-0.118079	-0.55542	0.179688	-0.582764
875.0	15.826888	0.479686	-3.077714	-1.591238	-0.652047	-0.154812	-0.55957	0.170898	-0.575439
876.0	16.121432	-1.347879	-4.877698	-1.601785	-0.667939	-0.188537	-0.564697	0.186279	-0.575928
877.0	16.027228	-2.774015	-5.97117	-1.138808	-0.450992	-0.222555	-0.559814	0.179688	-0.566406
878.0	15.33437	-2.475659	-6.494081	-0.434805	0.001161	-0.237712	-0.564697	0.186279	-0.571289
879.0	17.234803	-1.862457	-4.504624	0.332535	0.409603	-0.293518	-0.568604	0.173096	-0.575439
880.0	22.931778	-3.603517	1.973709	0.623808	1.153129	-0.37571	-0.562012	0.173096	-0.58252
881.0	23.750248	-3.471618	6.548319	0.280879	1.29943	-0.474876	-0.556885	0.162109	-0.589111
882.0	14.478163	-1.3924	4.000637	0.196351	0.477737	-0.633554	-0.561523	0.162109	-0.59375
883.0	9.83236	0.02323	2.975491	0.031842	0.461721	-0.67458	-0.558838	0.151123	-0.5979
884.0	7.122692	-1.42958	6.236345	-0.194714	0.246586	-0.496089	-0.563477	0.15332	-0.588623
885.0	8.014803	-2.184992	10.797366	0.582799	-0.00115	-0.563375	-0.562744	0.137939	-0.595215
886.0	8.764884	0.946996	13.130238	0.738692	-0.368487	-0.706926	-0.567383	0.137939	-0.588135
887.0	9.174532	4.731682	5.631056	-0.337906	-0.774705	-0.881408	-0.57373	0.128906	-0.580811
888.0	10.214378	3.290221	0.155641	-1.461051	-0.390731	-0.582791	-0.573975	0.137695	-0.581055
889.0	10.95918	-1.073411	0.506893	-0.783479	0.287995	-0.591561	-0.57373	0.131104	-0.578613
890.0	13.11947	-0.703313	3.969529	0.658745	0.375003	-0.677968	-0.577881	0.120117	-0.582764
891.0	14.376354	1.6209	6.330717	0.531816	0.15443	-0.437362	-0.577881	0.120117	-0.589844
892.0	13.4116	1.357649	4.892088	-0.463063	-0.077909	-0.147628	-0.580078	0.120117	-0.580566
893.0	11.945755	0.20051	1.690935	-0.608616	-0.234338	0.034291	-0.577881	0.122314	-0.575928
894.0	10.696601	-0.109166	-0.744045	-0.441792	-0.247659	0.154682	-0.582764	0.131104	-0.578613
895.0	10.098116	-0.376896	-1.481676	-0.032262	0.073577	0.217661	-0.577881	0.122314	-0.580566
896.0	8.98169	0.37477	0.315994	0.588789	0.416651	0.256148	-0.580322	0.126709	-0.583008
897.0	7.626431	1.366698	2.956819	0.542009	0.401669	0.31669	-0.575439	0.120117	-0.582764
898.0	6.715067	1.116006	3.562492	-0.090856	0.098549	0.389557	-0.577881	0.124512	-0.580566
899.0	6.36981	-0.068288	2.177196	-0.435125	-0.097181	0.447793	-0.575928	0.128906	-0.583252
900.0	5.699273	-0.665747	1.019926	-0.327535	0.011096	0.462741	-0.582764	0.133301	-0.583252
901.0	4.765446	-0.747906	0.847298	-0.164353	0.140438	0.467203	-0.578369	0.135498	-0.588135
902.0	3.959146	-0.749267	1.324712	-0.08245	0.164406	0.44224	-0.583008	0.139893	-0.581299
903.0	3.604508	-0.710999	1.801544	-0.031701	0.028112	0.396947	-0.578613	0.14209	-0.588379
904.0	3.708824	-0.501657	1.962278	-0.025667	-0.160067	0.336486	-0.583252	0.144287	-0.58374
905.0	4.318827	-0.425231	1.770546	-0.084069	-0.293728	0.290642	-0.583252	0.14209	-0.579102
906.0	4.967494	-0.492753	1.293545	-0.153494	-0.312222	0.267186	-0.585693	0.148682	-0.576904
907.0	5.429047	-0.574703	0.810034	-0.119683	-0.274603	0.272707	-0.587891	0.146484	-0.586182
908.0	5.799076	-0.539356	0.296453	-0.027936	-0.290651	0.278256	-0.594727	0.150879	-0.574707
909.0	6.255179	-0.535243	-0.17574	0.050966	-0.329645	0.296201	-0.590088	0.144287	-0.579102
910.0	6.602611	-0.546154	-0.728047	0.146917	-0.302267	0.303972	-0.597168	0.153076	-0.567871
911.0	6.755254	-0.619351	-1.053009	0.227497	-0.234358	0.291246	-0.594727	0.146484	-0.572266
912.0	7.059651	-0.65226	-1.251538	0.385441	-0.241551	0.217496	-0.60376	0.146484	-0.576904
913.0	7.494525	-0.698797	-1.114439	0.466095	-0.195668	0.128169	-0.598877	0.14209	-0.567383
914.0	7.666687	-0.889213	-1.065069	0.466279	-0.074267	0.037146	-0.603271	0.139893	-0.567383
915.0	7.712715	-1.227456	-0.854274	0.506487	-0.067581	-0.058405	-0.601074	0.135498	-0.569336
916.0	7.893264	-1.436844	-0.592111	0.601718	-0.217259	-0.12606	-0.598633	0.135498	-0.567139
917.0	8.235085	-1.459162	-0.590275	0.633196	-0.430235	-0.154691	-0.60498	0.12207	-0.56665
918.0	8.766283	-1.505264	-1.216738	0.531706	-0.58876	-0.146346	-0.614258	0.130859	-0.564697
919.0	9.864512	-1.656621	-2.03726	0.627305	-0.593126	-0.106655	-0.616211	0.119873	-0.564209
920.0	11.408698	-1.246445	-2.520339	0.969342	-0.357091	-0.058185	-0.618164	0.115479	-0.561768
921.0	13.085021	-0.211182	-2.280927	1.153122	-0.068925	0.038533	-0.613037	0.102295	-0.561279
922.0	15.056596	0.418489	-1.733588	0.984249	0.013536	0.156578	-0.615479	0.104492	-0.559082
923.0	16.17578	1.09467	-1.944489	0.73861	-0.142196	0.271549	-0.617676	0.102295	-0.563477
924.0	15.91612	1.982585	-2.812413	0.442591	-0.326536	0.297684	-0.620117	0.108887	-0.561523
925.0	15.243528	2.352888	-4.281784	0.043639	-0.419432	0.248411	-0.626709	0.102295	-0.558838
926.0	14.187266	1.899962	-5.549055	-0.318984	-0.21794	0.162112	-0.617676	0.102295	-0.554199
927.0	13.382696	0.90896	-6.228449	-0.378504	0.128336	0.044715	-0.626709	0.102295	-0.558838
928.0	16.859877	-0.206871	-3.62653	0.400458	0.542568	-0.080125	-0.624512	0.102295	-0.558838
929.0	21.373986	2.094502	2.983522	1.621448	1.148995	0.032007	-0.610352	0.091309	-0.570068
930.0	18.025082	4.606153	8.687489	-0.27964	1.202111	0.513747	-0.613525	0.113281	-0.571045
931.0	10.848196	-0.757295	4.73834	-3.094569	0.684237	0.920137	-0.609619	0.126465	-0.57373
932.0	4.820343	-5.006912	3.558491	-1.182975	-0.295071	0.868757	-0.612061	0.133057	-0.571777
933.0	5.048289	-0.996124	6.259014	1.243093	-1.426372	0.348698	-0.622803	0.119873	-0.562012
934.0	11.548484	2.053497	9.973374	0.699339	-0.69027	0.491201	-0.623291	0.133057	-0.564697
935.0	13.393719	-1.369277	10.283507	-0.688219	0.159752	0.980371	-0.621582	0.141846	-0.567383
936.0	11.194295	-4.695198	4.179838	-1.492108	0.014376	1.092003	-0.622314	0.159668	-0.561035
937.0	11.476603	-5.474894	-1.001225	-0.41715	-0.145452	1.009427	-0.619873	0.157471	-0.556396
938.0	13.700706	-4.36296	-1.064001	1.178599	-0.15079	0.608969	-0.615479	0.159668	-0.561035
939.0	15.925158	-2.339365	2.835281	1.885165	0.360354	0.217825	-0.619385	0.14624	-0.565186
940.0	14.831988	0.042356	5.301543	1.493873	0.5639	-0.029099	-0.619629	0.148682	-0.576904
941.0	11.830998	0.699896	4.148206	0.513799	0.306641	-0.099173	-0.619141	0.139648	-0.56958
942.0	10.680457	0.074875	1.387803	0.097959	-0.032131	-0.096421	-0.617188	0.144287	-0.572021
943.0	10.718634	-0.843465	-0.045639	0.053121	-0.019751	-0.137215	-0.614502	0.137695	-0.571777
944.0	9.5891	-1.750522	-0.008426	0.13996	0.182471	-0.216213	-0.619141	0.141846	-0.56958
945.0	8.175538	-1.76782	0.923249	0.491772	0.116303	-0.348906	-0.623535	0.133057	-0.573975
946.0	7.542395	-0.71345	1.663663	0.702819	-0.035507	-0.457119	-0.618896	0.135254	-0.576416
947.0	6.881648	0.21926	1.722297	0.581151	-0.013929	-0.507213	-0.618408	0.12207	-0.573486
948.0	5.89756	0.653759	1.553121	0.510837	0.041809	-0.530962	-0.623047	0.124268	-0.578369
949.0	5.216551	1.211421	1.381335	0.533498	-0.01633	-0.548256	-0.620361	0.111084	-0.577881
950.0	4.818537	1.771267	1.239519	0.499109	-0.043107	-0.537172	-0.624512	0.104492	-0.575195
951.0	4.690485	2.23595	1.058416	0.381392	-0.057958	-0.507478	-0.624268	0.0979	-0.565674
952.0	4.560221	2.379106	0.922162	0.267953	-0.034321	-0.465213	-0.624512	0.104492	-0.577637
953.0	4.432966	2.454842	0.709053	0.156799	-0.059556	-0.414968	-0.621826	0.095703	-0.574951
954.0	4.620424	2.416159	0.566954	0.040478	-0.126667	-0.37054	-0.626221	0.091309	-0.570068
955.0	4.909004	2.229982	0.348499	-0.124466	-0.160526	-0.301251	-0.626221	0.093506	-0.570313
956.0	5.141073	1.897814	-0.103951	-0.272118	-0.146577	-0.243236	-0.626465	0.095703	-0.567871
957.0	5.372335	1.601167	-0.454396	-0.345726	-0.092542	-0.188425	-0.630859	0.095703	-0.570313
958.0	5.533675	1.228681	-0.784215	-0.442813	-0.027847	-0.128729	-0.630859	0.093506	-0.567871
959.0	5.877581	0.838147	-1.008075	-0.505242	0.018686	-0.085785	-0.628662	0.093506	-0.570313
960.0	6.315414	0.26066	-0.972592	-0.527492	0.081826	-0.073723	-0.628906	0.100098	-0.575195
961.0	6.757971	-0.183206	-0.675643	-0.551759	0.141486	-0.067546	-0.633301	0.0979	-0.572754
962.0	7.136915	-0.763097	-0.409515	-0.654206	0.174531	-0.054162	-0.626953	0.106689	-0.582275
963.0	7.233693	-1.009921	-0.226198	-0.561195	0.17418	-0.035499	-0.626709	0.104492	-0.570557
964.0	7.196768	-0.621778	-0.277667	-0.47491	0.063835	0.000476	-0.626953	0.111084	-0.570801
965.0	7.767684	-0.046068	-0.817741	-0.513288	-0.074827	0.047391	-0.62915	0.106689	-0.570801
966.0	8.837227	0.307668	-1.406276	-0.508426	-0.086182	0.082964	-0.629395	0.113281	-0.573242
967.0	9.835111	0.81407	-0.934178	-0.412859	-0.032307	0.079532	-0.627197	0.115479	-0.568604
968.0	11.359137	1.414556	0.071227	-0.431821	-0.052041	0.033883	-0.63208	0.12207	-0.564209
969.0	13.518259	2.048059	0.481091	-0.501309	-0.140835	-0.013845	-0.631592	0.111084	-0.566162
970.0	15.43647	2.396312	-0.249941	-0.671392	-0.176579	-0.036973	-0.629639	0.119873	-0.564209
971.0	15.390243	1.702836	-1.954644	-1.130144	-0.315992	0.01886	-0.63208	0.126465	-0.564453
972.0	14.879933	-0.402369	-3.851471	-1.38223	-0.43463	0.045629	-0.628174	0.137451	-0.560303
973.0	14.895959	-2.328407	-5.057059	-0.906752	-0.452403	-0.026473	-0.63916	0.135254	-0.55542
974.0	14.318477	-2.347495	-5.631487	-0.254249	-0.320405	-0.135595	-0.641602	0.137451	-0.553223
975.0	13.377193	-1.180598	-5.683791	-0.035141	-0.179131	-0.106605	-0.63501	0.139648	-0.548584
976.0	13.983176	-0.510405	-5.228052	0.088633	-0.079098	-0.097991	-0.641846	0.141846	-0.553467
977.0	19.720338	-2.046456	0.324955	0.762437	0.358287	-0.264051	-0.632568	0.135254	-0.557861
978.0	26.475406	-3.04563	7.570846	0.723539	1.727765	-0.478836	-0.632324	0.128662	-0.564453
979.0	16.270496	0.223219	6.156698	0.309406	0.914692	-0.726664	-0.623047	0.124268	-0.57373
980.0	8.599609	1.390069	2.110181	-0.24749	0.088939	-0.754728	-0.629883	0.124268	-0.57373
981.0	5.476636	-0.479167	3.182372	-0.482752	-0.363914	-0.589106	-0.631836	0.119873	-0.568848
982.0	4.980792	-2.119514	5.704927	0.121102	-0.768901	-0.518693	-0.634033	0.115479	-0.563965
983.0	8.403513	1.381507	9.130657	1.113779	0.229246	-0.743909	-0.626709	0.104492	-0.572998
984.0	8.584093	3.589771	12.714262	0.253375	0.60129	-0.540769	-0.626709	0.100098	-0.575195
985.0	7.65433	3.417459	8.119731	-0.444001	-0.319689	-0.632715	-0.635742	0.102295	-0.563477
986.0	12.968381	1.705464	1.460823	-1.612407	-0.778713	-0.729579	-0.635986	0.108887	-0.561523
987.0	15.987756	-2.207745	-0.531661	-1.051289	0.062588	-0.554378	-0.635498	0.099854	-0.561035
988.0	15.055803	-3.046986	1.878836	0.308731	0.714075	-0.491952	-0.633545	0.104492	-0.561279
989.0	14.344392	-1.062683	5.021783	0.687477	0.031836	-0.191816	-0.635498	0.097656	-0.561035
990.0	13.451834	0.362163	3.982298	-0.009377	-0.317972	0.128782	-0.635742	0.106689	-0.559082
991.0	11.265787	0.21951	1.080107	-0.308606	0.031456	0.242308	-0.628906	0.100098	-0.563477
992.0	9.440455	0.493977	-0.665265	-0.121241	0.222414	0.238921	-0.631592	0.111084	-0.573242
993.0	8.66021	1.119659	-0.235401	0.205853	0.171918	0.207736	-0.631348	0.106689	-0.563721
994.0	8.864947	1.709872	1.372483	0.337477	0.062023	0.201385	-0.631348	0.108887	-0.563721
995.0	8.692169	1.528226	2.567259	0.017139	0.155388	0.255106	-0.62915	0.106689	-0.563721
996.0	7.971302	0.496592	2.058215	-0.353209	0.197826	0.325222	-0.629395	0.115479	-0.566406
997.0	7.05868	-0.451281	1.088559	-0.374455	0.193006	0.350794	-0.627197	0.117676	-0.564209
998.0	6.225776	-0.785968	0.598369	-0.234487	0.202016	0.327674	-0.632568	0.135254	-0.564697
999.0	5.521883	-0.967659	0.64194	-0.099955	0.169337	0.306042	-0.625244	0.124268	-0.57373
1000.0	5.106892	-1.085809	0.931414	-0.036283	0.111987	0.266404	-0.62793	0.133057	-0.5625
1001.0	4.811625	-1.082877	1.323439	0.035226	0.014799	0.236457	-0.625488	0.130859	-0.566895
1002.0	4.810143	-1.067306	1.494175	0.029883	-0.098572	0.216283	-0.628174	0.137451	-0.560303
1003.0	4.940511	-1.038717	1.369793	0.021656	-0.217369	0.218284	-0.628174	0.137451	-0.5625
1004.0	5.109036	-0.94283	0.887127	0.054921	-0.299026	0.222765	-0.625732	0.137451	-0.555664
1005.0	5.330091	-0.747966	0.391091	0.142114	-0.366473	0.239527	-0.632813	0.141846	-0.553467
1006.0	5.719146	-0.583172	-0.107955	0.191047	-0.411546	0.252263	-0.63501	0.141846	-0.548828
1007.0	6.112268	-0.445696	-0.680743	0.262294	-0.403438	0.264121	-0.637207	0.137451	-0.546387
1008.0	6.475163	-0.36731	-1.111232	0.272971	-0.357618	0.254489	-0.637451	0.148438	-0.553711
1009.0	6.79379	-0.232376	-1.538725	0.332369	-0.279445	0.21649	-0.637451	0.144043	-0.546631
1010.0	6.855961	-0.026874	-1.467667	0.423799	-0.174349	0.163805	-0.635254	0.14624	-0.546631
1011.0	6.825917	0.200543	-1.226364	0.41139	-0.110613	0.111131	-0.632813	0.144043	-0.537354
1012.0	6.962792	0.136651	-1.143544	0.347641	-0.125718	0.043527	-0.637207	0.139648	-0.543945
1013.0	7.45907	-0.174379	-1.138171	0.297461	-0.08344	-0.017639	-0.639404	0.141846	-0.548828
1014.0	8.01262	-0.558409	-1.250286	0.301036	0.004479	-0.065535	-0.635254	0.14624	-0.539551
1015.0	8.62814	-1.020761	-1.077886	0.42029	0.030954	-0.098691	-0.636963	0.133057	-0.541504
1016.0	9.381886	-1.143621	-0.823983	0.673891	-0.119517	-0.113867	-0.641602	0.135254	-0.536865
1017.0	10.427393	-1.024562	-0.63445	0.767236	-0.22784	-0.108997	-0.63916	0.135254	-0.541504
1018.0	12.024312	-0.841262	-0.827525	0.692099	-0.258611	-0.052013	-0.641357	0.130859	-0.539063
1019.0	13.640955	-0.625918	-1.547503	0.467768	-0.258914	0.060846	-0.63916	0.130859	-0.534424
1020.0	14.747319	-0.584245	-2.45807	0.267472	-0.20356	0.181101	-0.643799	0.137451	-0.534668
1021.0	15.199883	-0.187367	-3.36035	0.352204	-0.216556	0.249076	-0.645996	0.132813	-0.529785
1022.0	14.930457	0.944814	-3.848503	0.480454	-0.196463	0.243161	-0.641602	0.135254	-0.530029
1023.0	13.876957	1.799145	-4.043966	0.223764	-0.128521	0.210682	-0.648193	0.130615	-0.529785
1024.0	12.668896	1.548215	-4.650463	-0.149524	-0.19236	0.149133	-0.648438	0.141846	-0.523193
1025.0	14.017519	0.613344	-4.525386	-0.029215	-0.33739	0.062814	-0.652832	0.139404	-0.520752
1026.0	19.732213	0.893708	-1.386031	0.943486	0.025861	0.077526	-0.643799	0.139648	-0.520752
1027.0	22.517869	4.404144	3.398517	1.021745	0.765157	0.377935	-0.64624	0.141846	-0.530273
1028.0	16.47697	3.253043	3.544537	-2.11592	1.231243	0.883781	-0.635742	0.157227	-0.5354
1029.0	10.583196	-3.052137	0.312197	-3.04401	0.978873	0.994393	-0.631836	0.172607	-0.540527
1030.0	5.43689	-4.785379	2.547133	-0.07064	0.398054	0.689416	-0.627441	0.177246	-0.536133
1031.0	5.377673	0.700783	9.007437	2.014105	-1.031108	0.324519	-0.635986	0.166016	-0.531006
1032.0	10.411751	2.853705	11.957616	0.422585	-0.769329	0.481239	-0.634277	0.179199	-0.526855
1033.0	11.955113	-1.391995	9.226635	-1.063132	0.108241	0.835101	-0.636963	0.190186	-0.525146
1034.0	9.960561	-4.95636	3.961549	-1.626547	-0.136683	1.0306	-0.641846	0.199219	-0.527588
1035.0	9.927583	-6.239374	-0.601938	-0.52782	-0.395106	0.908943	-0.637695	0.205811	-0.525635
1036.0	12.047704	-4.61327	-0.890939	1.383898	-0.317152	0.525898	-0.639893	0.205811	-0.523193
1037.0	14.30822	-1.699177	2.707447	2.177675	0.265334	0.241998	-0.634766	0.194824	-0.522949
1038.0	14.285103	0.47742	5.26262	1.553316	0.338845	0.058928	-0.639404	0.192383	-0.527344
1039.0	12.898025	0.093073	3.880404	0.346149	-0.029624	-0.073179	-0.637207	0.194824	-0.529785
1040.0	11.673368	-1.203961	0.743416	-0.0029	-0.174712	-0.123374	-0.634766	0.194824	-0.527588
1041.0	10.966938	-1.357282	-1.076571	0.264437	0.045477	-0.179273	-0.63916	0.187988	-0.524902
1042.0	9.882027	-1.461881	-0.65963	0.423653	0.461283	-0.246521	-0.636963	0.190186	-0.520264
1043.0	8.120897	-1.603754	0.86606	0.586625	0.556401	-0.314489	-0.634277	0.177002	-0.531494
1044.0	7.301372	-0.992391	2.195735	0.812099	0.241215	-0.398079	-0.638672	0.177002	-0.531494
1045.0	7.322319	0.160821	2.250953	0.818483	0.044187	-0.447979	-0.634033	0.174805	-0.533691
1046.0	6.995061	0.886764	1.667609	0.73974	0.145812	-0.447066	-0.631348	0.161621	-0.535645
1047.0	6.317869	1.269161	1.416173	0.759068	0.216055	-0.443027	-0.633057	0.150635	-0.530518
1048.0	5.905491	1.849066	1.268527	0.734198	0.132206	-0.428309	-0.633301	0.152832	-0.539795
1049.0	5.67124	2.389576	1.094211	0.623257	0.07581	-0.389524	-0.639648	0.14624	-0.537354
1050.0	5.385663	2.433234	1.007202	0.37188	0.052984	-0.325478	-0.635254	0.14624	-0.541992
1051.0	5.291976	2.21787	0.700737	0.191304	0.007284	-0.287595	-0.637451	0.144043	-0.539551
1052.0	5.483632	2.117851	0.608639	0.119248	-0.006773	-0.248082	-0.635254	0.150635	-0.530518
1053.0	5.762092	2.056128	0.643141	-0.009195	-0.003844	-0.200826	-0.637207	0.139648	-0.537109
1054.0	5.977919	1.9573	0.481749	-0.186189	-0.021069	-0.160111	-0.639893	0.150635	-0.542236
1055.0	6.242739	1.863028	0.084699	-0.254374	-0.072203	-0.132744	-0.637451	0.144043	-0.534912
1056.0	6.452924	1.695779	-0.398729	-0.407574	-0.051967	-0.124611	-0.639893	0.148438	-0.532715
1057.0	6.706257	1.322194	-0.918822	-0.494903	-0.019295	-0.114744	-0.639648	0.14624	-0.530273
1058.0	6.628322	1.098775	-1.002288	-0.493445	0.10993	-0.131271	-0.637695	0.155029	-0.5354
1059.0	6.392037	0.824794	-0.811976	-0.56437	0.111288	-0.126318	-0.639893	0.148438	-0.532715
1060.0	6.27444	0.378211	-0.790158	-0.72103	-0.015831	-0.105302	-0.640137	0.155029	-0.532959
1061.0	6.264502	0.013872	-1.015525	-0.716227	-0.114705	-0.097315	-0.640137	0.157227	-0.530762
1062.0	6.366733	-0.026637	-1.099156	-0.696037	-0.205898	-0.082446	-0.646973	0.159424	-0.5354
1063.0	6.823984	-0.043095	-1.318334	-0.717298	-0.261505	-0.042181	-0.644775	0.159424	-0.523926
1064.0	7.902832	-0.105862	-1.407897	-0.670198	-0.133659	-0.016267	-0.651855	0.166016	-0.531006
1065.0	9.438532	0.050116	-0.757817	-0.481615	0.119315	-0.002006	-0.645264	0.17041	-0.52417
1066.0	10.875102	0.705777	0.289893	-0.443024	0.324559	0.003337	-0.642822	0.17041	-0.526611
1067.0	12.477678	1.223992	1.152208	-0.618403	0.359188	-0.027812	-0.647461	0.17041	-0.53125
1068.0	14.060169	1.433061	1.251236	-0.761146	0.140552	-0.063358	-0.647705	0.179199	-0.522217
1069.0	14.749627	1.624932	-0.122986	-0.910709	-0.237672	-0.103268	-0.645264	0.174805	-0.522217
1070.0	15.374718	1.186519	-2.040432	-1.151812	-0.566737	-0.128616	-0.645752	0.183594	-0.52002
1071.0	15.887489	-0.26378	-3.801512	-1.306046	-0.537255	-0.140212	-0.650391	0.185791	-0.513184
1072.0	15.008115	-1.699205	-5.167214	-1.202631	-0.185962	-0.142438	-0.64624	0.198975	-0.511475
1073.0	12.972969	-2.009884	-6.058441	-0.873144	0.217137	-0.124634	-0.648193	0.192383	-0.513428
1074.0	11.664154	-1.222149	-6.328383	-0.463568	0.179377	-0.076251	-0.650635	0.196777	-0.513672
1075.0	13.549579	-0.286994	-4.984069	0.258223	-0.200717	-0.177294	-0.650635	0.19458	-0.51123
1076.0	20.62323	-1.619457	1.557546	0.949195	0.061995	-0.438924	-0.650391	0.190186	-0.520264
1077.0	25.70801	-0.767701	7.393641	0.752293	1.08393	-0.593488	-0.649902	0.177002	-0.524414
1078.0	15.460843	1.697988	4.019052	-0.401295	0.675097	-0.569121	-0.643311	0.181396	-0.5271
1079.0	8.881395	0.271398	1.752645	-0.813658	0.530337	-0.458333	-0.650146	0.181396	-0.531738
1080.0	5.559681	-2.475645	5.464623	-0.685556	-0.212921	-0.326032	-0.649902	0.177002	-0.517578
1081.0	6.065084	-3.228369	7.451288	-0.265252	-1.151852	-0.352642	-0.656494	0.174805	-0.522217
1082.0	9.730467	0.452413	7.287206	0.398659	-0.301872	-0.523383	-0.649658	0.17041	-0.52417
1083.0	9.358849	1.813123	10.096723	0.247842	0.372071	-0.455418	-0.656738	0.174805	-0.529053
1084.0	8.819935	2.891851	6.838694	0.115515	-0.149212	-0.703474	-0.658691	0.168213	-0.519531
1085.0	11.462535	2.427087	1.700478	-0.984875	-0.2323	-0.771111	-0.656006	0.159424	-0.521484
1086.0	13.269995	-0.828875	0.44461	-0.811114	0.182042	-0.629025	-0.654053	0.168213	-0.519531
1087.0	13.402674	-1.387469	2.430185	0.184682	0.32272	-0.477005	-0.662842	0.159424	-0.523926
1088.0	13.330971	0.028337	4.886101	0.273874	-0.07864	-0.159548	-0.6604	0.159424	-0.526123
1089.0	12.900037	0.284175	3.752038	-0.382665	-0.25857	0.181288	-0.658447	0.166016	-0.519531
1090.0	11.351332	-0.15719	0.761851	-0.5022	-0.083445	0.344571	-0.658691	0.172607	-0.519775
1091.0	9.736737	0.099036	-1.124625	-0.215448	0.190598	0.356339	-0.665527	0.172607	-0.521973
1092.0	8.765079	0.587718	-0.586453	0.224989	0.255312	0.319635	-0.658936	0.174805	-0.524414
1093.0	8.443992	1.205488	1.521676	0.456017	0.121076	0.30322	-0.667725	0.17041	-0.519531
1094.0	8.277385	1.399752	2.887541	0.101869	0.03069	0.336808	-0.656738	0.179199	-0.526855
1095.0	8.194978	0.352676	2.15255	-0.350441	0.010419	0.399951	-0.661377	0.179199	-0.526855
1096.0	7.729822	-0.766864	0.762112	-0.415313	0.143065	0.426937	-0.65918	0.183594	-0.533936
1097.0	6.840506	-1.214514	0.177087	-0.198346	0.276002	0.395179	-0.661377	0.181396	-0.533936
1098.0	6.199414	-1.318192	0.341272	0.005265	0.239883	0.329369	-0.657227	0.190186	-0.536621
1099.0	5.826847	-1.321153	0.82012	0.129692	0.124486	0.2557	-0.654785	0.185791	-0.536377
1100.0	5.770161	-1.42092	1.31821	0.192598	-0.012038	0.191596	-0.650635	0.192383	-0.539063
1101.0	5.787372	-1.572348	1.511533	0.213477	-0.080574	0.155774	-0.655029	0.187988	-0.54126
1102.0	5.841747	-1.627009	1.488429	0.27442	-0.128428	0.137009	-0.655029	0.190186	-0.54126
1103.0	5.856979	-1.519733	1.201823	0.347175	-0.177935	0.134078	-0.659424	0.187988	-0.543457
1104.0	6.119981	-1.234522	0.84623	0.458156	-0.27499	0.146902	-0.654785	0.187988	-0.53418
1105.0	6.265555	-0.971826	0.303868	0.475465	-0.342876	0.167675	-0.663818	0.185791	-0.531738
1106.0	6.354453	-0.811136	-0.3558	0.52446	-0.355924	0.184194	-0.661621	0.185791	-0.536377
1107.0	6.507335	-0.550268	-1.046474	0.630433	-0.310414	0.188287	-0.661377	0.179199	-0.538574
1108.0	6.698847	-0.157836	-1.366382	0.75323	-0.215302	0.176359	-0.666016	0.185791	-0.538818
1109.0	6.780035	0.29687	-1.418172	0.838599	-0.137636	0.155693	-0.67041	0.183594	-0.538574
1110.0	6.82094	0.691801	-1.341164	0.803539	-0.0566	0.127989	-0.661133	0.177002	-0.53833
1111.0	6.793456	0.833602	-1.35901	0.705064	-0.021399	0.085866	-0.665527	0.17041	-0.547607
1112.0	6.903352	0.688733	-1.384353	0.629885	-0.029745	0.0254	-0.665527	0.172607	-0.53833
1113.0	7.295939	0.451113	-1.27381	0.622443	-0.031725	-0.057142	-0.66748	0.166016	-0.549561
1114.0	8.009963	0.300278	-0.960854	0.676977	-0.026709	-0.115073	-0.667725	0.168213	-0.540527
1115.0	8.657459	0.209351	-0.365048	0.662284	-0.039606	-0.145466	-0.66748	0.163818	-0.544922
1116.0	9.267083	0.080595	-0.357458	0.551853	-0.119009	-0.117151	-0.671875	0.159424	-0.551758
1117.0	10.010624	0.111108	-0.93654	0.458609	-0.231269	-0.056919	-0.673828	0.154785	-0.551514
1118.0	11.125743	0.386211	-1.74487	0.429701	-0.296672	0.013523	-0.674316	0.166016	-0.542725
1119.0	12.619231	0.573645	-2.210017	0.24327	-0.198124	0.090686	-0.685059	0.154785	-0.544678
1120.0	14.057869	0.33438	-2.380468	0.060098	-0.111975	0.186658	-0.674072	0.156982	-0.542236
1121.0	14.806087	0.5969	-2.917153	0.053893	-0.145044	0.238997	-0.678467	0.15918	-0.553955
1122.0	14.986215	1.435707	-3.645902	0.024046	-0.250967	0.207223	-0.67627	0.159424	-0.556396
1123.0	14.564086	2.01819	-4.359252	-0.196059	-0.290975	0.168823	-0.683105	0.15918	-0.547119
1124.0	13.787247	1.524414	-4.963164	-0.567095	-0.238826	0.10685	-0.678711	0.166016	-0.549561
1125.0	14.176942	0.125547	-5.074466	-0.583995	-0.131852	0.016136	-0.683105	0.15918	-0.547119
1126.0	18.624207	-0.707439	-2.511491	0.17987	0.272381	-0.049646	-0.681152	0.166016	-0.556641
1127.0	21.900874	2.304523	1.613089	0.716124	0.725158	0.171635	-0.674316	0.163818	-0.565918
1128.0	19.554057	3.019825	4.594189	-1.48582	1.217748	0.601478	-0.672607	0.179199	-0.568604
1129.0	11.652397	-1.469775	2.589808	-3.012109	1.526102	0.842464	-0.66626	0.190186	-0.57373
1130.0	4.47723	-4.318226	4.849222	-0.808454	0.100722	0.735501	-0.671143	0.196777	-0.578613
1131.0	3.735961	0.031048	8.82261	1.245731	-1.804903	0.361179	-0.684326	0.192383	-0.566895
1132.0	9.549723	2.207425	10.208644	0.312366	-1.589989	0.45703	-0.686768	0.196777	-0.550781
1133.0	11.944897	-2.050538	7.371118	-1.152973	0.190429	0.828016	-0.682861	0.207764	-0.553467
1134.0	10.31328	-6.348105	5.146802	-1.236305	0.373736	1.203228	-0.676514	0.21875	-0.558594
1135.0	9.609796	-6.905058	1.17587	-0.6394	-0.097571	1.046528	-0.676514	0.223389	-0.556396
1136.0	12.963169	-5.110668	-0.740594	1.058815	-0.501751	0.819757	-0.681152	0.220947	-0.547119
1137.0	16.284177	-2.560108	1.881919	1.994617	0.054873	0.488504	-0.680908	0.216553	-0.563232
1138.0	15.727419	0.123827	4.603707	1.72812	0.656161	0.200432	-0.678467	0.2146	-0.574707
1139.0	12.941908	1.187724	4.479906	0.791831	0.352744	-0.046935	-0.676025	0.208008	-0.581299
1140.0	10.941417	0.511073	1.809449	-0.023783	-0.093472	-0.082889	-0.682861	0.207764	-0.572021
1141.0	10.492523	-0.234356	-0.550486	-0.069637	-0.114331	-0.082818	-0.684814	0.203369	-0.57666
1142.0	10.355485	-1.131757	-0.852712	0.015662	0.234614	-0.143583	-0.684814	0.203369	-0.57666
1143.0	8.930445	-1.722692	0.145306	0.28991	0.514167	-0.241128	-0.677979	0.198975	-0.585693
1144.0	7.52957	-1.108051	1.571447	0.649526	0.363999	-0.362465	-0.682129	0.192383	-0.580811
1145.0	6.88003	0.025259	2.208842	0.637186	0.112745	-0.450115	-0.684082	0.183594	-0.587402
1146.0	6.298672	0.666806	1.769227	0.475524	0.043502	-0.487326	-0.681641	0.181396	-0.592041
1147.0	5.668835	0.955844	1.299372	0.429487	0.019805	-0.519771	-0.68335	0.168213	-0.596191
1148.0	5.512221	1.226253	1.035952	0.43495	-0.008435	-0.537179	-0.687988	0.168213	-0.589111
1149.0	5.255635	1.445372	0.964186	0.422129	0.056371	-0.526271	-0.689697	0.155029	-0.591064
1150.0	5.067478	1.702089	0.861723	0.349425	0.065289	-0.496724	-0.69165	0.150391	-0.595459
1151.0	4.99862	1.557573	0.645472	0.199276	0.036111	-0.451259	-0.691406	0.143799	-0.595215
1152.0	5.195116	1.315022	0.414611	0.159164	-0.015147	-0.409289	-0.687012	0.141602	-0.599854
1153.0	5.538023	1.257173	0.243213	0.174707	-0.087639	-0.373704	-0.693604	0.139404	-0.597412
1154.0	6.072711	1.239505	0.111231	0.104258	-0.147829	-0.316879	-0.693359	0.132813	-0.594727
1155.0	6.560077	0.977753	-0.103757	-0.041265	-0.168687	-0.246836	-0.697754	0.130615	-0.597168
1156.0	6.888509	0.672996	-0.61165	-0.129011	-0.156853	-0.17422	-0.699951	0.130615	-0.597168
1157.0	7.369021	0.604979	-0.854681	-0.129281	-0.077741	-0.125801	-0.699951	0.128418	-0.590088
1158.0	7.872377	0.593839	-0.908496	-0.262666	0.047598	-0.089103	-0.695557	0.130615	-0.601807
1159.0	8.141843	0.404762	-0.828882	-0.424335	0.169411	-0.055175	-0.702148	0.126221	-0.596924
1160.0	7.834542	0.097677	-0.661621	-0.593522	0.249496	-0.004957	-0.702393	0.132813	-0.597168
1161.0	7.440037	0.110312	-0.498409	-0.621722	0.166607	0.031342	-0.704834	0.139404	-0.604248
1162.0	7.048765	0.427404	-0.143968	-0.665067	-0.103314	0.055392	-0.707031	0.139404	-0.606689
1163.0	7.048641	0.690037	-0.120622	-0.717097	-0.391479	0.065626	-0.702637	0.139404	-0.599609
1164.0	7.480627	0.986496	-0.581606	-0.725134	-0.540047	0.059943	-0.709473	0.143799	-0.599854
1165.0	8.055907	1.26803	-1.113276	-0.716804	-0.472202	0.05717	-0.71167	0.141602	-0.590576
1166.0	8.915871	1.258303	-1.154706	-0.712089	-0.339059	0.040998	-0.716553	0.150391	-0.586182
1167.0	10.320676	1.058177	-0.75433	-0.615305	-0.241085	-0.002857	-0.723145	0.143799	-0.590576
1168.0	12.178438	1.156009	-0.474552	-0.434825	-0.165389	-0.061093	-0.72583	0.154785	-0.583984
1169.0	13.847192	1.456281	-0.624247	-0.50023	-0.152991	-0.093367	-0.725342	0.145996	-0.58374
1170.0	14.514485	1.081711	-1.742366	-0.920297	-0.40915	-0.076627	-0.725586	0.152588	-0.581543
1171.0	14.711049	-0.296057	-3.318227	-1.138992	-0.676213	-0.067965	-0.732422	0.150391	-0.569824
1172.0	14.973562	-1.527458	-4.75545	-0.942422	-0.698079	-0.134754	-0.739502	0.158936	-0.563232
1173.0	14.278599	-1.748559	-5.765416	-0.657535	-0.385537	-0.179643	-0.736816	0.150146	-0.567627
1174.0	12.617253	-1.230055	-6.07031	-0.404973	0.103278	-0.149193	-0.734619	0.150146	-0.569824
1175.0	11.433735	-0.474501	-5.479827	-0.176279	0.283915	-0.125058	-0.736816	0.147949	-0.569824
1176.0	14.58638	-0.50126	-1.708423	0.597205	0.345174	-0.274852	-0.729736	0.141357	-0.57666
1177.0	19.971726	-1.401243	4.932214	0.926675	0.96531	-0.509314	-0.740723	0.132568	-0.585449
1178.0	19.657463	0.839081	8.866894	0.705106	1.151901	-0.692794	-0.731201	0.121582	-0.599121
1179.0	11.428977	1.789317	5.092983	-0.565768	0.172282	-0.719433	-0.733398	0.121582	-0.592041
1180.0	6.944112	0.473237	2.006925	-1.166584	-0.273794	-0.582659	-0.738037	0.121582	-0.580566
1181.0	5.815968	-2.75165	3.976161	-1.11154	-0.875667	-0.44714	-0.740234	0.125977	-0.575928
1182.0	8.319812	-2.728907	5.946341	0.28727	-0.555181	-0.540661	-0.742188	0.11499	-0.577881
1183.0	10.482553	0.575406	10.388658	0.896036	0.429393	-0.589803	-0.746094	0.099609	-0.57959
1184.0	9.246439	3.172925	10.693048	0.440243	-0.133937	-0.669757	-0.748047	0.094971	-0.577148
1185.0	10.584817	3.115927	3.400847	-1.369613	-0.567386	-0.825635	-0.752441	0.088379	-0.574463
1186.0	12.604193	-0.81661	-0.881384	-1.50403	-0.116388	-0.682876	-0.754883	0.097168	-0.570313
1187.0	12.625192	-3.028677	0.541741	-0.088952	0.207583	-0.680448	-0.752197	0.083984	-0.581299
1188.0	13.626791	-1.423026	3.707936	0.625396	-0.277609	-0.462875	-0.751953	0.077393	-0.567139
1189.0	14.586087	0.199973	3.910949	0.054031	-0.425936	-0.079243	-0.760986	0.07959	-0.56958
1190.0	13.192728	0.152437	1.278657	-0.274644	-0.184601	0.219767	-0.751953	0.07959	-0.564941
1191.0	11.395085	0.314296	-0.984998	-0.091191	0.102805	0.325501	-0.759033	0.083984	-0.567383
1192.0	10.599251	0.5815	-1.346072	0.176444	0.30118	0.348581	-0.754395	0.081787	-0.564941
1193.0	10.020358	0.804119	0.276743	0.400504	0.341209	0.344095	-0.752197	0.081787	-0.574219
1194.0	9.476333	0.726841	2.003588	0.250461	0.283075	0.346997	-0.75	0.083984	-0.572021
1195.0	9.106304	0.063993	2.167448	-0.093363	0.163766	0.365728	-0.75	0.086182	-0.579102
1196.0	8.274903	-0.723984	1.223252	-0.197543	0.196014	0.366018	-0.745605	0.088379	-0.581543
1197.0	7.208499	-0.834649	0.511419	-0.059115	0.244586	0.320168	-0.75	0.088379	-0.581543
1198.0	6.556184	-0.66193	0.395589	0.058959	0.199043	0.254582	-0.745605	0.086182	-0.586182
1199.0	6.304237	-0.53189	0.486466	0.182672	0.136445	0.188758	-0.747803	0.086182	-0.58374
1200.0	6.216178	-0.358973	0.969578	0.225594	0.105436	0.146162	-0.745605	0.088379	-0.579346
1201.0	6.176829	-0.347471	1.241035	0.203891	0.069695	0.133886	-0.749756	0.081787	-0.58374
1202.0	6.215416	-0.449751	1.311314	0.171782	-0.036247	0.139249	-0.743164	0.081787	-0.579102
1203.0	6.3956	-0.643704	1.013063	0.145231	-0.136307	0.177886	-0.747803	0.086182	-0.58374
1204.0	6.617933	-0.703022	0.403091	0.251874	-0.179588	0.214399	-0.747803	0.086182	-0.581543
1205.0	6.757646	-0.527695	-0.139005	0.390394	-0.182336	0.253071	-0.747803	0.083984	-0.581299
1206.0	6.89939	-0.423469	-0.556205	0.460833	-0.139834	0.284829	-0.752197	0.081787	-0.57666
1207.0	7.078812	-0.395653	-0.79806	0.53519	-0.087572	0.290065	-0.754395	0.081787	-0.581299
1208.0	6.978469	-0.340991	-0.7902	0.647922	0.002606	0.264936	-0.754395	0.081787	-0.578857
1209.0	6.748311	-0.082634	-0.583725	0.710143	0.000442	0.215066	-0.747314	0.075195	-0.573975
1210.0	6.639168	0.062742	-0.549123	0.678215	-0.110298	0.145532	-0.75415	0.07959	-0.57666
1211.0	6.641596	0.205256	-0.643502	0.62788	-0.232166	0.076083	-0.758301	0.070801	-0.576172
1212.0	6.701541	0.273809	-0.835704	0.548726	-0.323829	0.029842	-0.756104	0.068604	-0.569092
1213.0	6.701506	0.332055	-1.041921	0.474006	-0.377997	0.006338	-0.758301	0.066406	-0.566895
1214.0	6.91734	0.276956	-1.41331	0.374915	-0.424982	-0.000222	-0.762695	0.064209	-0.569092
1215.0	7.587545	0.214689	-1.68245	0.364518	-0.462548	-0.004541	-0.766846	0.057373	-0.564209
1216.0	9.032415	0.15998	-1.640684	0.390792	-0.427151	-0.001698	-0.762451	0.05957	-0.557373
1217.0	10.625546	0.115482	-1.221989	0.322706	-0.277592	0.03231	-0.77124	0.052979	-0.561523
1218.0	12.084833	-0.030143	-0.671578	0.161404	-0.075749	0.098521	-0.762207	0.055176	-0.554688
1219.0	12.737732	0.023922	-0.525373	0.0036	0.015005	0.181607	-0.77124	0.050781	-0.563965
1220.0	12.846653	0.259722	-1.377342	-0.265324	-0.235895	0.237196	-0.769043	0.057373	-0.550293
1221.0	13.393442	0.156871	-2.655038	-0.376681	-0.538604	0.261282	-0.775879	0.055176	-0.547852
1222.0	13.727899	0.306929	-3.876023	-0.174349	-0.494019	0.219209	-0.773682	0.057373	-0.543213
1223.0	13.023357	0.653906	-4.642138	-0.048965	-0.117569	0.151745	-0.773682	0.057373	-0.547852
1224.0	11.810242	0.221352	-4.836466	-0.110433	0.22362	0.105232	-0.773682	0.05957	-0.545654
1225.0	11.80084	-0.88416	-4.224436	0.164159	0.199562	0.07644	-0.769043	0.055176	-0.547852
1226.0	14.940033	-0.670434	-1.634821	1.131721	-0.132705	0.133456	-0.77124	0.052979	-0.550049
1227.0	17.200163	2.054398	0.676334	1.029156	-0.225409	0.353706	-0.775635	0.052979	-0.550049
1228.0	17.6442	2.135309	1.604463	-0.992962	0.45005	0.705802	-0.773926	0.063965	-0.557373
1229.0	12.194716	-1.025314	0.479678	-2.406662	0.990487	0.953094	-0.767578	0.075195	-0.550781
1230.0	6.512073	-2.832467	0.829408	-1.280017	0.578505	0.740161	-0.763672	0.088379	-0.560547
1231.0	6.552383	-1.595712	5.212479	1.268673	-0.623593	0.385676	-0.772217	0.07959	-0.551025
1232.0	13.440167	3.965916	10.812269	2.388415	-1.127661	0.43645	-0.769775	0.074951	-0.543945
1233.0	15.398977	4.461131	11.492639	-0.394797	0.249465	0.975147	-0.772461	0.083984	-0.553467
1234.0	9.432315	-3.313076	6.537864	-2.150991	0.391997	1.220981	-0.768799	0.10376	-0.549561
1235.0	8.194048	-6.542008	0.911721	-1.012727	-0.459679	0.862864	-0.773438	0.105957	-0.542725
1236.0	10.043914	-5.534114	-1.559749	0.976626	-0.706991	0.602484	-0.775635	0.105957	-0.538086
1237.0	12.792406	-3.98373	1.475324	2.076932	-0.425115	0.371178	-0.779541	0.094727	-0.5354
1238.0	15.058212	-2.15849	3.81218	1.97395	-0.120703	0.170721	-0.777588	0.099365	-0.54248
1239.0	14.642297	-1.792096	3.737092	1.220964	-0.00773	0.067129	-0.779541	0.092773	-0.542236
1240.0	12.191314	-2.13979	1.407285	0.816381	0.006749	-0.004148	-0.772461	0.086182	-0.539551
1241.0	11.029347	-1.57772	-0.659135	1.099599	-0.025061	-0.108502	-0.78125	0.077148	-0.539307
1242.0	11.203873	-0.929586	-1.281296	1.287256	0.104436	-0.200013	-0.776367	0.070557	-0.536865
1243.0	10.966918	-0.849006	-0.43953	1.28757	0.427317	-0.25519	-0.776123	0.061768	-0.541016
1244.0	9.916602	-0.712422	0.726193	1.48631	0.498316	-0.308323	-0.769043	0.052979	-0.54541
1245.0	9.147112	0.066027	1.667485	1.700637	0.334044	-0.345056	-0.777588	0.041992	-0.552002
1246.0	8.715191	0.751451	1.652326	1.622641	0.243263	-0.339932	-0.772461	0.031006	-0.549316
1247.0	7.936142	0.76703	0.945658	1.485688	0.302003	-0.313627	-0.77002	0.022217	-0.555908
1248.0	7.094566	0.811772	0.522492	1.522147	0.273157	-0.302436	-0.762939	0.013428	-0.553223
1249.0	6.504344	1.157532	0.595855	1.527535	0.160976	-0.29083	-0.76709	0.006836	-0.555176
1250.0	6.110337	1.44781	0.977971	1.455896	0.083044	-0.263502	-0.764404	-0.004395	-0.554932
1251.0	5.970656	1.598871	1.1293	1.287132	-0.003769	-0.232373	-0.76416	-0.010986	-0.556885
1252.0	6.219595	1.681446	0.608818	1.10084	-0.063918	-0.196567	-0.766113	-0.019775	-0.554199
1253.0	6.613679	1.820767	0.261036	1.014148	-0.042649	-0.169751	-0.768066	-0.02417	-0.554199
1254.0	6.933471	1.899434	0.146381	0.919271	-0.019507	-0.151483	-0.762939	-0.037354	-0.549072
1255.0	7.261875	2.043089	0.045853	0.826547	-0.004283	-0.132104	-0.767334	-0.041748	-0.548828
1256.0	7.507585	2.173072	-0.128279	0.683595	0.001078	-0.117446	-0.765137	-0.039551	-0.539551
1257.0	7.551144	2.209936	-0.140332	0.583799	0.039794	-0.100045	-0.76709	-0.046143	-0.548584
1258.0	7.220332	2.161857	-7.9e-05	0.54356	0.032233	-0.101244	-0.764648	-0.050537	-0.543945
1259.0	6.739108	2.145324	-0.053267	0.516392	-0.058241	-0.082419	-0.771484	-0.052979	-0.539063
1260.0	6.528714	2.147689	-0.35302	0.418303	-0.192431	-0.042449	-0.766846	-0.054932	-0.54126
1261.0	6.509144	1.865018	-0.937366	0.240944	-0.241999	0.024675	-0.766846	-0.052734	-0.539063
1262.0	6.746418	1.297873	-1.512665	0.073288	-0.205091	0.106	-0.766846	-0.057373	-0.536621
1263.0	7.45878	0.507785	-1.370905	0.086431	-0.086662	0.180424	-0.77124	-0.055176	-0.529785
1264.0	8.350368	-0.145202	-0.445138	0.240244	0.041742	0.236686	-0.775879	-0.055176	-0.531982
1265.0	9.413945	-0.436095	0.221617	0.276613	0.041349	0.294005	-0.773438	-0.057373	-0.531982
1266.0	10.568052	-0.667015	-0.057603	0.17866	-0.014989	0.358315	-0.766846	-0.055176	-0.529785
1267.0	11.192411	-0.934262	-0.932739	0.172843	-0.065901	0.398626	-0.77124	-0.055176	-0.534424
1268.0	11.300755	-0.852245	-1.480004	0.346103	-0.073472	0.395947	-0.773926	-0.048584	-0.527588
1269.0	11.174123	-0.388524	-1.383454	0.522023	-0.087392	0.384043	-0.77124	-0.055176	-0.527344
1270.0	10.858023	0.182445	-0.922806	0.580094	-0.157948	0.347742	-0.773682	-0.050781	-0.518311
1271.0	10.882578	0.544678	-0.221143	0.558673	-0.194863	0.271134	-0.77124	-0.055176	-0.515869
1272.0	12.398639	0.349541	1.720489	0.640118	-0.062553	0.067356	-0.768799	-0.05957	-0.510986
1273.0	15.569456	-0.276626	4.639041	0.83763	0.215922	-0.295161	-0.766357	-0.068359	-0.522217
1274.0	17.809226	0.005833	6.603428	1.110766	0.528369	-0.608929	-0.768066	-0.077148	-0.517334
1275.0	14.576213	1.996774	6.089505	1.015896	0.445823	-0.856521	-0.767578	-0.090332	-0.519287
1276.0	11.571761	2.475685	4.361492	0.081053	-0.334401	-0.891363	-0.763428	-0.085938	-0.519287
1277.0	10.163313	-0.938607	3.043678	-0.670649	-0.684607	-0.646583	-0.769531	-0.096924	-0.504883
1278.0	8.813704	-3.243792	2.805028	0.09924	-0.492023	-0.482169	-0.767334	-0.099121	-0.504883
1279.0	9.010347	-2.230161	3.307637	0.691288	-0.317183	-0.352246	-0.764893	-0.10376	-0.502441
1280.0	10.186479	-1.928172	3.062191	0.676539	-0.066128	-0.174591	-0.766846	-0.108154	-0.495361
1281.0	11.171008	-1.626501	2.052618	1.255202	0.07162	-0.132171	-0.766602	-0.116943	-0.499512
1282.0	12.586124	-0.338276	1.676158	1.765549	-0.077337	-0.136703	-0.759521	-0.123535	-0.48999
1283.0	14.124469	0.26547	1.292458	1.761992	-0.200069	-0.070268	-0.765869	-0.134521	-0.480469
1284.0	14.781678	-0.292726	0.854318	1.559165	-0.150166	0.008006	-0.759033	-0.134521	-0.480469
1285.0	13.967447	-1.207708	0.414297	1.424523	-0.110734	0.094746	-0.765625	-0.138916	-0.475586
1286.0	12.351427	-1.862685	0.433079	1.454545	-0.033402	0.175758	-0.765381	-0.143311	-0.473145
1287.0	11.07514	-2.355127	0.860152	1.575001	-0.062668	0.232766	-0.767334	-0.150146	-0.46582
1288.0	9.975786	-2.525805	1.20256	1.759585	-0.03335	0.248894	-0.772217	-0.145752	-0.461426
1289.0	9.114494	-2.459698	1.322384	1.944841	-0.028071	0.251429	-0.769531	-0.154541	-0.454102
1290.0	8.830728	-2.403803	1.16044	2.126006	-0.096621	0.221966	-0.764648	-0.161133	-0.453857
1291.0	8.892924	-2.354748	1.011205	2.326235	-0.075775	0.19239	-0.769043	-0.167725	-0.441895
1292.0	9.096662	-2.313591	0.970417	2.510738	-0.000917	0.174136	-0.766602	-0.172119	-0.439453
1293.0	9.100516	-2.236767	1.022153	2.619739	0.071959	0.189486	-0.761475	-0.185303	-0.434326
1294.0	8.901982	-2.16209	0.830216	2.740492	0.081963	0.2171	-0.765869	-0.1875	-0.427246
1295.0	8.727448	-1.826485	0.598611	2.898919	0.026306	0.245486	-0.765625	-0.192139	-0.415527
1296.0	8.572083	-1.246933	0.388798	3.060636	-0.003174	0.244757	-0.767578	-0.203125	-0.4104
1297.0	8.296575	-0.719354	0.266377	3.188292	2.2e-05	0.21892	-0.767334	-0.20752	-0.396484
1298.0	7.888645	-0.27257	0.332559	3.294547	0.01205	0.172546	-0.771729	-0.209717	-0.39624
1299.0	7.591581	0.050528	0.247886	3.333743	-0.003661	0.120095	-0.77124	-0.220703	-0.38208
1300.0	7.412586	0.188876	0.050815	3.337235	-0.012489	0.065781	-0.768555	-0.229736	-0.372314
1301.0	7.598295	0.227264	-0.240007	3.309932	0.002349	0.01951	-0.772949	-0.236328	-0.360596
1302.0	8.130834	0.09105	-0.304103	3.276406	0.078582	-0.008463	-0.763672	-0.24292	-0.353271
1303.0	8.735836	-0.054246	-0.112091	3.259548	0.204165	-0.022719	-0.774414	-0.251709	-0.350586
1304.0	9.451688	-0.266968	0.056323	3.221819	0.270099	-0.028574	-0.765381	-0.256104	-0.334229
1305.0	10.124936	-0.501479	0.111731	3.269465	0.328862	-0.038134	-0.765137	-0.262695	-0.331543
1306.0	10.397465	-0.446776	0.305551	3.367944	0.370201	-0.064326	-0.764893	-0.267334	-0.319824
1307.0	10.481417	-0.275162	0.292613	3.448703	0.350578	-0.094517	-0.764404	-0.276123	-0.303223
1308.0	10.539118	-0.158199	0.187066	3.463481	0.334844	-0.112824	-0.761963	-0.284912	-0.300537
1309.0	10.501468	-0.254844	0.157929	3.393814	0.349982	-0.110724	-0.763916	-0.287109	-0.29126
1310.0	10.501838	-0.684723	0.298489	3.313481	0.399117	-0.103714	-0.756836	-0.295898	-0.283936
1311.0	10.394252	-1.0583	0.659256	3.269772	0.442328	-0.092595	-0.756592	-0.300293	-0.274658
1312.0	10.070059	-1.443843	0.735039	3.190374	0.373978	-0.092227	-0.754639	-0.298096	-0.265381
1313.0	9.995169	-1.740799	0.279252	3.210398	0.286977	-0.115396	-0.760986	-0.302734	-0.251221
1314.0	9.742778	-1.654262	-0.175196	3.364944	0.266196	-0.138225	-0.753906	-0.311523	-0.243896
1315.0	9.399681	-1.602066	-0.195883	3.410939	0.249135	-0.128707	-0.749512	-0.307129	-0.225586
1316.0	9.019187	-1.81531	-0.123936	3.440881	0.21381	-0.101937	-0.755859	-0.318115	-0.220459
1317.0	8.699339	-1.811011	-0.173996	3.630163	0.096009	-0.070431	-0.749268	-0.313721	-0.211426
1318.0	8.871617	-1.268573	-0.582643	3.883541	0.093772	-0.025737	-0.746826	-0.320313	-0.192627
1319.0	8.908075	-0.458312	-0.808449	4.135202	0.334856	0.03873	-0.746826	-0.320313	-0.180908
1320.0	8.378084	0.236057	-0.651791	4.304551	0.539028	0.115942	-0.749023	-0.318115	-0.166992
1321.0	8.771676	0.537266	0.025055	4.63207	0.507592	0.178301	-0.751465	-0.318359	-0.143799
1322.0	10.518922	1.26816	0.988652	5.025675	0.567757	0.224896	-0.74707	-0.313965	-0.136963
1323.0	12.230045	2.264457	1.697223	4.952163	0.779548	0.349681	-0.749268	-0.311768	-0.116211
