Acquisition frequency: 100 Hz
PacketCounter	Acc_X	Acc_Y	Acc_Z	Gyr_X	Gyr_Y	Gyr_Z	Mag_X	Mag_Y	Mag_Z
0.0	5.869809	3.294682	7.454734	-0.001878	0.010781	-0.016991	-0.478516	-0.10376	-0.101563
1.0	5.876636	3.296494	7.43249	-0.005267	0.009738	-0.022011	-0.478271	-0.108154	-0.10376
2.0	5.881897	3.273872	7.434679	-0.00483	0.010221	-0.018617	-0.47876	-0.099365	-0.094727
3.0	5.902502	3.281444	7.443586	-0.003572	0.010256	-0.019502	-0.476318	-0.108154	-0.099121
4.0	5.870789	3.274617	7.459165	-0.004676	0.011837	-0.020812	-0.478516	-0.105957	-0.101563
5.0	5.861045	3.27462	7.482889	-0.002313	0.010288	-0.020387	-0.476318	-0.10376	-0.099365
6.0	5.89811	3.284234	7.445836	-0.002724	0.010511	-0.018247	-0.482666	-0.108154	-0.105957
7.0	5.895072	3.260732	7.471017	-0.005522	0.011569	-0.022069	-0.478516	-0.10376	-0.094727
8.0	5.873194	3.279305	7.439163	-0.0029	0.008179	-0.021588	-0.478516	-0.10376	-0.101563
9.0	5.880247	3.281231	7.416724	-0.001361	0.007082	-0.016882	-0.474121	-0.10376	-0.096924
10.0	5.870749	3.281228	7.440245	-0.001465	0.010541	-0.019132	-0.474121	-0.10791	-0.101563
11.0	5.869507	3.282113	7.440834	-0.003464	0.006781	-0.017254	-0.476563	-0.101563	-0.094727
12.0	5.897018	3.266315	7.45102	-0.004157	0.008135	-0.020705	-0.48291	-0.105957	-0.099121
13.0	5.880766	3.289684	7.473149	-0.003311	0.008395	-0.019449	-0.478271	-0.108154	-0.101563
14.0	5.85057	3.254364	7.435893	-0.006673	0.008057	-0.018937	-0.476563	-0.101563	-0.099365
15.0	5.886322	3.292207	7.451641	-0.001983	0.014219	-0.019244	-0.476318	-0.108154	-0.099121
16.0	5.862949	3.286341	7.444138	-0.00305	0.006548	-0.019395	-0.480713	-0.105957	-0.099121
17.0	5.875508	3.292865	7.475884	-0.006239	0.00854	-0.015543	-0.474121	-0.108154	-0.094727
18.0	5.867243	3.264344	7.44687	-0.004001	0.009742	-0.022902	-0.478516	-0.10376	-0.099365
19.0	5.89457	3.248727	7.457163	-0.004154	0.008123	-0.020707	-0.47876	-0.101563	-0.096924
20.0	5.871516	3.295493	7.477862	-0.004153	0.008122	-0.020707	-0.480713	-0.105957	-0.096924
21.0	5.893514	3.275022	7.433991	-0.002894	0.008158	-0.021591	-0.476563	-0.101563	-0.094727
22.0	5.861846	3.268231	7.449415	-0.002569	0.012103	-0.020446	-0.480469	-0.108154	-0.094727
23.0	5.89886	3.278172	7.412416	-0.00417	0.007401	-0.026245	-0.476318	-0.108154	-0.096924
24.0	5.880909	3.277483	7.458843	-0.000375	0.008228	-0.023359	-0.478271	-0.108154	-0.092285
25.0	5.87938	3.278947	7.459405	0.003311	0.012513	-0.022724	-0.480713	-0.10376	-0.101563
26.0	5.842402	3.320381	7.448828	-0.000958	0.006117	-0.024562	-0.476563	-0.101563	-0.096924
27.0	5.864362	3.300311	7.404874	-0.000635	0.010062	-0.023416	-0.478516	-0.10376	-0.10376
28.0	5.876606	3.307366	7.436625	-0.002047	0.008406	-0.020338	-0.47876	-0.101563	-0.099365
29.0	5.873721	3.284073	7.461608	-0.001894	0.01002	-0.022533	-0.474121	-0.10791	-0.099121
30.0	5.843492	3.301845	7.452571	0.00021	0.010321	-0.02216	-0.478271	-0.108154	-0.10376
31.0	5.892724	3.293471	7.471035	-0.002475	0.007909	-0.023736	-0.480469	-0.110352	-0.101318
32.0	5.89964	3.29576	7.448617	-0.000371	0.008211	-0.023362	-0.478516	-0.105957	-0.105957
33.0	5.854334	3.283379	7.43268	0.00147	0.010354	-0.023044	-0.476318	-0.105957	-0.101563
34.0	5.896722	3.298517	7.449707	-0.003318	0.007636	-0.024994	-0.476318	-0.105957	-0.099121
35.0	5.858176	3.315485	7.463491	0.00399	0.010428	-0.024811	-0.476318	-0.105957	-0.096924
36.0	5.893717	3.301338	7.450835	-0.004411	0.009925	-0.02077	-0.474121	-0.105957	-0.092285
37.0	5.863509	3.318918	7.441815	0.001056	0.010573	-0.020905	-0.478027	-0.114502	-0.09668
38.0	5.877222	3.297572	7.420994	-0.005669	0.009882	-0.019888	-0.476318	-0.105957	-0.101563
39.0	5.868941	3.321988	7.420233	0.001056	0.01057	-0.020906	-0.476074	-0.110352	-0.094482
40.0	5.859157	3.321836	7.44394	-0.008452	0.011639	-0.018179	-0.474121	-0.105957	-0.101563
41.0	5.866073	3.323607	7.421775	-0.002885	0.008115	-0.0216	-0.480713	-0.10376	-0.094727
42.0	5.855015	3.299135	7.469661	-0.003301	0.00834	-0.01946	-0.478516	-0.105957	-0.099121
43.0	5.892215	3.309026	7.432711	-0.003565	0.010178	-0.019516	-0.476318	-0.108154	-0.099121
44.0	5.853813	3.325182	7.44665	-0.006663	0.00799	-0.018953	-0.478271	-0.110352	-0.099121
45.0	5.898008	3.3115	7.411146	-0.003717	0.008563	-0.01732	-0.478516	-0.105957	-0.099121
46.0	5.851406	3.326386	7.448004	-0.009182	0.007907	-0.017189	-0.476318	-0.108154	-0.101563
47.0	5.865357	3.304572	7.427265	-0.003981	0.010401	-0.017376	-0.476318	-0.108154	-0.096924
48.0	5.870893	3.281618	7.429577	-0.009286	0.012078	-0.013902	-0.476318	-0.105957	-0.10376
49.0	5.86815	3.310149	7.482996	-0.00402	0.005336	-0.01293	-0.480713	-0.105957	-0.101563
50.0	5.845375	3.303501	7.475279	-0.00849	0.006557	-0.013737	-0.476318	-0.108154	-0.101563
51.0	5.86099	3.305917	7.430113	-0.006235	0.008476	-0.015557	-0.474121	-0.108154	-0.094727
52.0	5.888761	3.289742	7.440516	-0.008908	0.006782	-0.011597	-0.478271	-0.110352	-0.101318
53.0	5.879509	3.288847	7.464093	-0.006387	0.006863	-0.013362	-0.473877	-0.110107	-0.101318
54.0	5.858092	3.306756	7.432025	-0.002182	0.00748	-0.01261	-0.476318	-0.105957	-0.099121
55.0	5.848895	3.306363	7.455327	-0.001233	0.003574	-0.01464	-0.474121	-0.10376	-0.101563
56.0	5.854752	3.2838	7.457224	-0.001878	0.010701	-0.017	-0.476563	-0.101563	-0.092529
57.0	5.854979	3.309465	7.433272	0.007748	0.006195	-0.017471	-0.474121	-0.10791	-0.101563
58.0	5.882871	3.294398	7.443115	0.002973	0.004191	-0.013888	-0.47876	-0.097168	-0.097168
59.0	5.853089	3.312224	7.433532	0.011686	0.008651	-0.016774	-0.476318	-0.105957	-0.094727
60.0	5.873849	3.320875	7.441958	0.005647	0.00588	-0.017848	-0.474121	-0.108154	-0.094727
61.0	5.857729	3.292098	7.435329	0.009318	0.010176	-0.017206	-0.476318	-0.105957	-0.096924
62.0	5.87851	3.300748	7.443747	0.0097	0.004888	-0.0149	-0.476318	-0.108154	-0.094727
63.0	5.856992	3.320039	7.411101	0.014208	0.008727	-0.018539	-0.476318	-0.108154	-0.096924
64.0	5.854457	3.297839	7.435362	0.016845	0.005359	-0.018051	-0.474121	-0.108154	-0.096924
65.0	5.898596	3.338236	7.427498	0.009433	0.006721	-0.014957	-0.478516	-0.10376	-0.094727
66.0	5.874396	3.308694	7.443468	0.01417	0.002936	-0.019631	-0.476074	-0.110352	-0.096924
67.0	5.866578	3.33432	7.441681	0.017113	0.003516	-0.017996	-0.480713	-0.10376	-0.106201
68.0	5.859174	3.307248	7.411597	0.015012	0.003202	-0.018373	-0.478271	-0.110352	-0.101318
69.0	5.85145	3.332727	7.409784	0.014019	0.001322	-0.017435	-0.480713	-0.105957	-0.096924
70.0	5.871232	3.317431	7.442075	0.013179	0.001049	-0.018694	-0.476563	-0.099365	-0.099365
71.0	5.90078	3.327394	7.427137	0.008555	0.000655	-0.017307	-0.474365	-0.101563	-0.096924
72.0	5.876855	3.297591	7.443051	0.008287	0.002492	-0.017364	-0.476318	-0.108154	-0.101563
73.0	5.862233	3.345855	7.439928	0.008136	0.000884	-0.015167	-0.478516	-0.10376	-0.099365
74.0	5.876868	3.325138	7.418331	0.005765	0.001674	-0.02114	-0.476074	-0.112305	-0.094482
75.0	5.867687	3.325521	7.44126	0.003395	0.003933	-0.016035	-0.48291	-0.105957	-0.096924
76.0	5.890062	3.358184	7.425278	0.002555	0.00366	-0.017293	-0.478516	-0.10376	-0.096924
77.0	5.881291	3.305557	7.420162	0.000184	0.005184	-0.017727	-0.476318	-0.10376	-0.096924
78.0	5.866272	3.353277	7.417546	0.001596	0.007566	-0.015267	-0.476318	-0.105957	-0.094727
79.0	5.863876	3.329989	7.442266	0.001446	0.005223	-0.018609	-0.478271	-0.110352	-0.094482
80.0	5.879676	3.333294	7.396625	0.003397	0.003929	-0.016035	-0.478271	-0.108154	-0.101563
81.0	5.870364	3.333283	7.419826	-0.001346	0.006976	-0.016903	-0.476318	-0.105957	-0.092285
82.0	5.891217	3.341197	7.428532	-0.001497	0.00537	-0.014706	-0.474121	-0.10791	-0.099121
83.0	5.868479	3.334863	7.420606	-0.002337	0.005096	-0.015965	-0.480713	-0.105957	-0.094727
84.0	5.867452	3.33547	7.421146	-0.006239	0.008415	-0.015575	-0.476074	-0.110352	-0.094482
85.0	5.857995	3.334938	7.444681	-0.004708	0.006618	-0.016399	-0.474121	-0.10791	-0.099121
86.0	5.866698	3.360929	7.39793	-0.004289	0.007122	-0.013	-0.480713	-0.105957	-0.090088
87.0	5.872744	3.338054	7.399985	-0.005968	0.006574	-0.015518	-0.476318	-0.105957	-0.096924
88.0	5.870252	3.314049	7.425113	-0.01029	0.009385	-0.018528	-0.473877	-0.110107	-0.099121
89.0	5.869228	3.314528	7.425709	-0.003325	0.003213	-0.015027	-0.476318	-0.108154	-0.101563
90.0	5.882869	3.345424	7.433244	-0.009153	0.013603	-0.016124	-0.474121	-0.105957	-0.10376
91.0	5.859714	3.338593	7.425854	-0.0075	0.008365	-0.014695	-0.478271	-0.110352	-0.094482
92.0	5.845056	3.332996	7.395389	-0.005248	0.010284	-0.016514	-0.474121	-0.105957	-0.096924
93.0	5.857218	3.339466	7.42743	-0.00777	0.010199	-0.014752	-0.480469	-0.108154	-0.101563
94.0	5.886208	3.348056	7.413632	-0.007076	0.008129	-0.016836	-0.474121	-0.10791	-0.101563
95.0	5.87545	3.322871	7.461603	-0.008489	0.006481	-0.013758	-0.478516	-0.105957	-0.094727
96.0	5.869224	3.318224	7.408268	-0.00678	0.012073	-0.01569	-0.476318	-0.105957	-0.096924
97.0	5.875537	3.372376	7.414572	-0.010287	0.00937	-0.018532	-0.476318	-0.105957	-0.099121
98.0	5.858228	3.317656	7.432995	-0.010293	0.010107	-0.012991	-0.476318	-0.105957	-0.101563
99.0	5.880218	3.349239	7.417851	-0.011699	0.007721	-0.015454	-0.476318	-0.108154	-0.099121
100.0	5.879053	3.349338	7.41873	-0.00987	0.009873	-0.015132	-0.476318	-0.108154	-0.10376
101.0	5.871507	3.320006	7.389909	-0.013232	0.009511	-0.014631	-0.476074	-0.110352	-0.096924
102.0	5.87672	3.349236	7.420624	-0.012121	0.007948	-0.013315	-0.474121	-0.105957	-0.101563
103.0	5.860688	3.318924	7.41471	-0.008729	0.013351	-0.018266	-0.476318	-0.108154	-0.096924
104.0	5.859289	3.319141	7.415718	-0.011131	0.009824	-0.014253	-0.478516	-0.105957	-0.092285
105.0	5.881171	3.35076	7.400679	-0.012807	0.009272	-0.016773	-0.476318	-0.108154	-0.094727
106.0	5.858144	3.343697	7.39326	-0.00903	0.010139	-0.013873	-0.478516	-0.105957	-0.096924
107.0	5.868973	3.325499	7.449743	-0.009444	0.009631	-0.017274	-0.478271	-0.108154	-0.101563
108.0	5.862662	3.320907	7.396524	-0.008041	0.012015	-0.01481	-0.476318	-0.105957	-0.099121
109.0	5.883144	3.328287	7.405827	-0.009867	0.009859	-0.015134	-0.474121	-0.10376	-0.094727
110.0	5.846	3.367763	7.395455	-0.012118	0.007935	-0.013319	-0.476318	-0.105957	-0.096924
111.0	5.8724	3.327234	7.430521	-0.007203	0.012287	-0.013549	-0.47168	-0.110107	-0.099121
112.0	5.871095	3.327381	7.431487	-0.012804	0.009259	-0.016776	-0.478271	-0.108154	-0.096924
113.0	5.869784	3.327595	7.432426	-0.005103	0.012605	-0.013169	-0.476318	-0.10376	-0.099365
114.0	5.877119	3.329049	7.410267	-0.008206	0.004624	-0.013709	-0.478516	-0.105957	-0.105957
115.0	5.866463	3.303598	7.458139	-0.008754	0.008292	-0.01382	-0.48291	-0.105957	-0.092285
116.0	5.866666	3.328299	7.434573	-0.007492	0.008336	-0.0147	-0.482666	-0.108154	-0.101563
117.0	5.865557	3.328604	7.435311	-0.007491	0.008335	-0.0147	-0.47168	-0.110107	-0.096924
118.0	5.85248	3.347306	7.380421	-0.008479	0.006454	-0.013765	-0.476318	-0.105957	-0.092285
119.0	5.886484	3.360816	7.420822	-0.006503	0.010212	-0.015635	-0.473877	-0.110107	-0.099121
120.0	5.840509	3.32211	7.429191	-0.011278	0.008196	-0.012062	-0.48291	-0.105957	-0.101563
121.0	5.862618	3.353727	7.414044	-0.008904	0.006682	-0.011626	-0.48291	-0.105957	-0.094727
122.0	5.882031	3.336593	7.447525	-0.007765	0.010164	-0.014756	-0.476318	-0.105957	-0.096924
123.0	5.874694	3.307509	7.418493	-0.008752	0.008283	-0.013822	-0.478271	-0.108154	-0.096924
124.0	5.866535	3.330978	7.417783	-0.008477	0.006448	-0.013767	-0.478271	-0.110352	-0.101318
125.0	5.86554	3.331143	7.418496	-0.007916	0.008557	-0.012561	-0.476074	-0.110107	-0.099121
126.0	5.886235	3.338502	7.427675	-0.008752	0.00828	-0.013822	-0.478516	-0.105957	-0.099121
127.0	5.8633	3.331596	7.420063	-0.006501	0.010204	-0.015636	-0.473877	-0.110107	-0.099121
128.0	5.870603	3.332951	7.398024	-0.011277	0.008185	-0.012065	-0.484863	-0.108154	-0.099121
129.0	5.882868	3.338974	7.43013	-0.008751	0.008276	-0.013823	-0.476318	-0.108154	-0.099121
130.0	5.874537	3.362427	7.429554	-0.009862	0.009831	-0.01514	-0.476318	-0.105957	-0.101563
131.0	5.874504	3.310009	7.401883	-0.008475	0.00644	-0.013769	-0.478516	-0.10376	-0.094727
132.0	5.857895	3.332178	7.424069	-0.009178	0.008503	-0.011683	-0.474121	-0.105957	-0.101563
133.0	5.885831	3.31627	7.43462	-0.007211	0.006485	-0.014648	-0.476318	-0.108154	-0.092285
134.0	5.855878	3.332582	7.425479	-0.00875	0.00827	-0.013824	-0.474121	-0.10376	-0.099365
135.0	5.889966	3.34605	7.46584	-0.006099	0.004928	-0.013333	-0.478516	-0.105957	-0.101563
136.0	5.875639	3.340366	7.435222	-0.008599	0.00987	-0.01602	-0.474121	-0.105957	-0.099121
137.0	5.851482	3.30884	7.451877	-0.007079	0.008822	-0.011301	-0.474365	-0.099365	-0.101563
138.0	5.867562	3.311478	7.40673	-0.00792	0.002767	-0.013663	-0.478271	-0.110352	-0.096924
139.0	5.90178	3.324906	7.447011	-0.008473	0.006432	-0.013771	-0.473877	-0.110107	-0.10376
140.0	5.863425	3.340031	7.460644	-0.004276	0.007082	-0.013004	-0.478271	-0.108154	-0.096924
141.0	5.857734	3.33566	7.406997	-0.006097	0.004923	-0.013334	-0.476318	-0.10376	-0.096924
142.0	5.885903	3.319802	7.417374	-0.008623	0.004826	-0.011577	-0.478271	-0.108154	-0.094727
143.0	5.870466	3.366606	7.415262	-0.0065	0.010188	-0.015637	-0.478516	-0.105957	-0.099121
144.0	5.853691	3.31172	7.433202	-0.010721	0.004498	-0.011962	-0.478271	-0.108154	-0.096924
145.0	5.883107	3.320282	7.419378	-0.009864	0.004036	-0.016243	-0.478516	-0.105957	-0.094727
146.0	5.860519	3.313156	7.411554	-0.0089	0.006655	-0.011631	-0.480713	-0.10376	-0.094727
147.0	5.87413	3.343714	7.419301	-0.009735	0.006375	-0.012894	-0.471924	-0.10791	-0.099121
148.0	5.885273	3.325286	7.475498	-0.009028	0.004312	-0.014982	-0.480713	-0.105957	-0.096924
149.0	5.879685	3.32083	7.421844	-0.006095	0.004917	-0.013335	-0.478516	-0.105957	-0.105957
150.0	5.878712	3.321223	7.422439	-0.006222	0.00835	-0.015583	-0.478516	-0.105957	-0.099121
151.0	5.879085	3.345959	7.39879	-0.010442	0.002658	-0.01191	-0.478271	-0.110352	-0.099121
152.0	5.877045	3.321677	7.423556	-0.003846	0.006844	-0.015145	-0.476318	-0.105957	-0.094727
153.0	5.876204	3.322154	7.424008	-0.005816	0.003082	-0.013282	-0.478516	-0.10376	-0.101563
154.0	5.868121	3.345836	7.423099	-0.005943	0.006514	-0.01553	-0.478271	-0.110352	-0.099121
155.0	5.881691	3.299773	7.426392	-0.005665	0.004681	-0.015477	-0.476074	-0.110107	-0.099121
156.0	5.850461	3.368697	7.445694	-0.007485	0.008294	-0.014705	-0.478516	-0.105957	-0.101563
157.0	5.8881	3.301703	7.404894	-0.009583	0.007964	-0.015091	-0.476318	-0.108154	-0.094727
158.0	5.885768	3.35442	7.434191	-0.010138	0.005852	-0.016301	-0.476074	-0.112305	-0.094482
159.0	5.861709	3.322897	7.450702	-0.0065	0.010172	-0.015637	-0.476318	-0.105957	-0.094727
160.0	5.861753	3.347757	7.427263	-0.008748	0.00824	-0.013828	-0.47876	-0.101563	-0.101563
161.0	5.889676	3.331927	7.437884	-0.007081	0.008799	-0.011302	-0.478271	-0.108154	-0.096924
162.0	5.880057	3.330704	7.46159	-0.011958	0.009459	-0.015531	-0.478271	-0.108154	-0.101563
163.0	5.874303	3.326044	7.408219	-0.008065	0.006915	-0.010372	-0.480469	-0.108154	-0.096924
164.0	5.864838	3.32476	7.431825	-0.011678	0.007625	-0.015479	-0.478271	-0.108154	-0.101563
165.0	5.872303	3.326024	7.409813	-0.010442	0.008414	-0.010811	-0.471924	-0.10791	-0.099121
166.0	5.884506	3.331869	7.442	-0.011275	0.008133	-0.012075	-0.474121	-0.10376	-0.101563
167.0	5.883579	3.331616	7.442846	-0.015189	0.005639	-0.012795	-0.480469	-0.108154	-0.096924
168.0	5.869462	3.32539	7.412348	-0.011274	0.00813	-0.012075	-0.480469	-0.110352	-0.101318
169.0	5.880607	3.306517	7.468676	-0.013242	0.004366	-0.010216	-0.47876	-0.101563	-0.096924
170.0	5.883592	3.302896	7.39244	-0.014204	0.007516	-0.013725	-0.474121	-0.105957	-0.092285
171.0	5.85836	3.323231	7.437616	-0.012258	0.006245	-0.011146	-0.474121	-0.10376	-0.096924
172.0	5.86608	3.324335	7.415498	-0.013643	0.003853	-0.013622	-0.471924	-0.105957	-0.094727
173.0	5.88573	3.306897	7.448924	-0.013492	0.005453	-0.015815	-0.48291	-0.10376	-0.101563
174.0	5.864335	3.323681	7.417171	-0.022189	0.00669	-0.011869	-0.476318	-0.108154	-0.096924
175.0	5.848985	3.292171	7.411198	-0.024134	0.007956	-0.014449	-0.474121	-0.105957	-0.101563
176.0	5.884122	3.328807	7.428163	-0.027245	0.006475	-0.008362	-0.478516	-0.10376	-0.099365
177.0	5.853514	3.318084	7.443727	-0.041228	-0.002954	-0.008729	-0.474121	-0.108154	-0.096924
178.0	5.889424	3.354175	7.460344	-0.022879	-0.002803	-0.012003	-0.476318	-0.108154	-0.096924
179.0	5.900486	3.32678	7.385154	-0.021765	-0.004355	-0.010688	-0.480469	-0.108154	-0.10376
180.0	5.873778	3.296762	7.478356	-0.026389	-0.004798	-0.009322	-0.476318	-0.108154	-0.099121
181.0	5.900347	3.324094	7.386474	-0.028496	0.000635	-0.008596	-0.476318	-0.10376	-0.099365
182.0	5.874671	3.318009	7.45595	-0.034654	-0.003805	-0.007519	-0.476318	-0.108154	-0.094727
183.0	5.906355	3.272278	7.413756	-0.034221	-0.004036	-0.009661	-0.474121	-0.105957	-0.094727
184.0	5.881866	3.291114	7.458959	-0.023589	-0.00076	-0.009914	-0.478271	-0.108154	-0.099121
185.0	5.860106	3.282003	7.45129	-0.037179	-0.003928	-0.005768	-0.480713	-0.105957	-0.094727
186.0	5.897406	3.265548	7.43928	-0.029176	0.001944	-0.012053	-0.476563	-0.101563	-0.094727
187.0	5.89812	3.288724	7.416211	-0.030157	5.5e-05	-0.011128	-0.476074	-0.110107	-0.099121
188.0	5.891855	3.258037	7.387139	-0.030439	0.001881	-0.011177	-0.480713	-0.10376	-0.099365
189.0	5.888715	3.284219	7.44111	-0.026796	0.000441	-0.011618	-0.474365	-0.101563	-0.092529
190.0	5.8955	3.259648	7.443377	-0.028192	0.003817	-0.012979	-0.474121	-0.108154	-0.092285
191.0	5.8889	3.306249	7.418999	-0.027495	-0.003282	-0.010648	-0.476318	-0.10376	-0.099365
192.0	5.865729	3.272914	7.435367	-0.025813	0.002318	-0.012544	-0.478516	-0.105957	-0.099121
193.0	5.895352	3.28075	7.421941	-0.020907	0.000938	-0.013862	-0.480469	-0.108154	-0.090088
194.0	5.88644	3.278308	7.445515	-0.024416	-0.001066	-0.011186	-0.478516	-0.10376	-0.101563
195.0	5.894504	3.278708	7.423516	-0.023716	0.002648	-0.012156	-0.480713	-0.105957	-0.096924
196.0	5.888163	3.24883	7.394134	-0.017147	0.001832	-0.010943	-0.480713	-0.105957	-0.094727
197.0	5.893504	3.277032	7.42505	-0.02177	0.001376	-0.009579	-0.48291	-0.105957	-0.094727
198.0	5.884565	3.274531	7.448659	-0.020506	0.001432	-0.010456	-0.476318	-0.108154	-0.099121
199.0	5.871019	3.268039	7.417885	-0.013105	0.000899	-0.007977	-0.476318	-0.10376	-0.101563
200.0	5.875265	3.271654	7.47271	-0.019241	0.001488	-0.011333	-0.48291	-0.105957	-0.101563
201.0	5.928144	3.234956	7.438671	-0.011576	0.004895	-0.007679	-0.476318	-0.10376	-0.096924
202.0	5.876458	3.32044	7.425859	-0.006387	0.001694	-0.008952	-0.482666	-0.110352	-0.101318
203.0	5.895442	3.277871	7.482922	-0.01382	0.002946	-0.005881	-0.478516	-0.10376	-0.099365
204.0	5.89891	3.274558	7.406453	-0.010062	0.003847	-0.00296	-0.474121	-0.10376	-0.099365
205.0	5.949156	3.265302	7.425412	-0.013271	0.005055	-0.004661	-0.480713	-0.10376	-0.101563
206.0	5.910995	3.279096	7.439241	-0.009364	0.007564	-0.003927	-0.476318	-0.10376	-0.094727
207.0	5.911153	3.303881	7.416014	0.001957	0.01459	-0.005131	-0.478516	-0.10376	-0.090088
208.0	5.915792	3.255896	7.442453	-0.008555	0.024422	-0.00482	-0.478271	-0.110352	-0.096924
209.0	5.905172	3.254326	7.466949	-2.6e-05	0.027388	-0.005446	-0.476563	-0.101563	-0.099365
210.0	5.920031	3.257315	7.423099	-0.008724	0.028575	-0.001504	-0.476074	-0.112305	-0.094482
211.0	5.903562	3.226288	7.417645	-0.00912	0.028071	-0.004913	-0.48291	-0.10376	-0.096924
212.0	5.891008	3.276773	7.471473	-0.003949	0.030636	-0.005052	-0.48291	-0.10376	-0.092529
213.0	5.912048	3.231543	7.452951	-0.013855	0.025275	-0.00692	-0.476563	-0.101563	-0.099365
214.0	5.880971	3.247285	7.444859	-0.004041	0.022538	-0.009546	-0.478516	-0.105957	-0.094727
215.0	5.87169	3.270588	7.445147	-0.00921	0.019967	-0.009411	-0.48291	-0.105957	-0.099121
216.0	5.877357	3.247226	7.447738	-0.008927	0.018137	-0.009366	-0.471924	-0.10376	-0.099365
217.0	5.914608	3.257596	7.411994	-0.008359	0.014481	-0.009276	-0.476563	-0.101563	-0.099365
218.0	5.896156	3.254323	7.458705	-0.010999	0.01203	-0.010891	-0.478516	-0.10376	-0.094727
219.0	5.881911	3.248476	7.428247	-0.008621	0.010543	-0.010454	-0.478271	-0.108154	-0.101563
220.0	5.873454	3.271695	7.427917	-0.008337	0.008715	-0.010409	-0.476318	-0.105957	-0.101563
221.0	5.901486	3.255786	7.438521	-0.009166	0.008434	-0.011677	-0.48291	-0.10376	-0.099365
222.0	5.900468	3.2558	7.439322	-0.009995	0.008151	-0.012944	-0.476563	-0.101563	-0.101563
223.0	5.892178	3.279065	7.438839	-0.008598	0.004778	-0.011588	-0.483154	-0.101563	-0.099365
224.0	5.87707	3.248604	7.432021	-0.00873	0.00821	-0.013819	-0.480713	-0.10376	-0.101563
225.0	5.906213	3.257699	7.41864	-0.008729	0.008209	-0.013819	-0.478516	-0.105957	-0.099121
226.0	5.882466	3.22563	7.434671	-0.008881	0.006602	-0.011633	-0.476563	-0.101563	-0.106201
227.0	5.874194	3.249051	7.4341	-0.007724	0.004334	-0.015872	-0.47876	-0.099365	-0.094727
228.0	5.879107	3.278385	7.464779	-0.006326	0.000962	-0.014516	-0.476318	-0.10376	-0.101563
229.0	5.894626	3.256803	7.443513	-0.015137	-0.000192	-0.01395	-0.47876	-0.099365	-0.099365
230.0	5.902709	3.258464	7.421092	-0.007154	0.000679	-0.015784	-0.480957	-0.101563	-0.094727
231.0	5.909688	3.235437	7.422521	-0.011493	-0.001616	-0.014386	-0.476318	-0.105957	-0.101563
232.0	5.878614	3.303546	7.441983	-0.005515	-0.003799	-0.008832	-0.478516	-0.10376	-0.092529
233.0	5.910591	3.260492	7.398674	-0.010486	-0.005491	-0.01644	-0.478516	-0.10376	-0.096924
234.0	5.902122	3.259002	7.421323	-0.009237	-0.01047	-0.012898	-0.478516	-0.10376	-0.094727
235.0	5.902452	3.259158	7.420992	-0.0088	-0.010691	-0.015041	-0.47876	-0.097168	-0.101563
236.0	5.885683	3.256129	7.466184	-0.007686	-0.012237	-0.013729	-0.48291	-0.105957	-0.092285
237.0	5.902174	3.234719	7.444079	-0.010608	-0.012865	-0.015391	-0.474365	-0.101563	-0.092529
238.0	5.886626	3.256404	7.465321	-0.00895	-0.012302	-0.012856	-0.478516	-0.105957	-0.105957
239.0	5.904144	3.259622	7.419443	-0.01288	-0.009059	-0.012462	-0.480713	-0.10376	-0.094727
240.0	5.925918	3.266905	7.427997	-0.010637	-0.007107	-0.014254	-0.480713	-0.10376	-0.099365
241.0	5.924948	3.242168	7.451768	-0.008257	-0.008589	-0.013818	-0.47876	-0.101563	-0.096924
242.0	5.911957	3.236509	7.420246	-0.013845	-0.005912	-0.015959	-0.480713	-0.10376	-0.101563
243.0	5.933533	3.243948	7.428889	-0.0102	-0.00733	-0.016398	-0.480713	-0.105957	-0.092285
244.0	5.911811	3.236761	7.420252	-0.009945	-0.003395	-0.015216	-0.478516	-0.105957	-0.094727
245.0	5.911459	3.237065	7.4204	-0.008531	-0.001725	-0.018276	-0.478516	-0.105957	-0.094727
246.0	5.940082	3.221751	7.430307	-0.006438	-0.001379	-0.017883	-0.480713	-0.105957	-0.094727
247.0	5.946016	3.276178	7.437014	-0.005206	0.004447	-0.017617	-0.478271	-0.108154	-0.099121
248.0	5.909639	3.238733	7.421122	-0.006873	-0.001163	-0.015741	-0.480713	-0.10376	-0.101563
249.0	5.939148	3.24851	7.407173	-0.004046	0.002179	-0.021861	-0.476318	-0.10376	-0.092529
250.0	5.929706	3.247659	7.430324	-0.005206	0.004443	-0.017618	-0.48291	-0.105957	-0.094727
251.0	5.915684	3.242597	7.399366	-0.006322	0.005984	-0.018929	-0.474121	-0.10376	-0.096924
252.0	5.93608	3.2507	7.408672	-0.004805	0.009984	-0.01862	-0.478516	-0.105957	-0.096924
253.0	5.935683	3.27641	7.38556	-0.004656	0.011589	-0.020806	-0.480957	-0.101563	-0.106201
254.0	5.924535	3.250783	7.433082	-0.002563	0.011936	-0.020412	-0.480713	-0.105957	-0.099121
255.0	5.931558	3.253188	7.411201	-0.007082	0.013785	-0.015689	-0.478516	-0.10376	-0.094727
256.0	5.92107	3.252244	7.435204	-0.004396	0.020558	-0.024036	-0.480713	-0.10376	-0.099365
257.0	5.918924	3.253464	7.436379	0.003678	0.018742	-0.018089	-0.480957	-0.101563	-0.096924
258.0	5.924076	3.231491	7.438851	-0.000148	0.029342	-0.018738	-0.478516	-0.10376	-0.094727
259.0	5.936326	3.288255	7.424227	0.002383	0.029468	-0.020487	-0.480713	-0.10376	-0.101563
260.0	5.910832	3.257089	7.441226	-0.001701	0.031093	-0.017909	-0.478271	-0.108154	-0.101563
261.0	5.893969	3.227413	7.43549	-0.003065	0.028694	-0.020406	-0.47876	-0.097168	-0.106201
262.0	5.903006	3.311274	7.474075	0.000294	0.029106	-0.020884	-0.47876	-0.101563	-0.092529
263.0	5.902414	3.260278	7.44651	-0.001947	0.027146	-0.019096	-0.48291	-0.105957	-0.099121
264.0	5.892178	3.284525	7.447042	-0.001507	0.026922	-0.021239	-0.47876	-0.101563	-0.099365
265.0	5.905775	3.263992	7.427024	-0.00584	0.024612	-0.019848	-0.476807	-0.097168	-0.099365
266.0	5.874329	3.280523	7.418672	-0.001515	0.021884	-0.016826	-0.478516	-0.10376	-0.099365
267.0	5.89263	3.263911	7.452665	-0.005258	0.020957	-0.019764	-0.480713	-0.105957	-0.10376
268.0	5.8993	3.266347	7.431133	-0.004001	0.01599	-0.016223	-0.480469	-0.112549	-0.101318
269.0	5.868449	3.282721	7.422353	-0.004826	0.015702	-0.017493	-0.478271	-0.108154	-0.096924
270.0	5.895844	3.26768	7.433291	-0.004001	0.015987	-0.016223	-0.474121	-0.105957	-0.092285
271.0	5.885572	3.266481	7.457115	-0.007068	0.013743	-0.015707	-0.476318	-0.105957	-0.101563
272.0	5.892717	3.268765	7.435293	-0.004243	0.012051	-0.017408	-0.480469	-0.108154	-0.092285
273.0	5.904301	3.275098	7.467576	-0.006194	0.00827	-0.015578	-0.478516	-0.10376	-0.096924
274.0	5.881647	3.268069	7.459515	-0.006194	0.008269	-0.015579	-0.480713	-0.10376	-0.101563
275.0	5.897724	3.272138	7.414699	-0.003952	0.010224	-0.017366	-0.480713	-0.105957	-0.090088
276.0	5.871607	3.29234	7.459828	-0.006636	0.008487	-0.013437	-0.478271	-0.108154	-0.092285
277.0	5.885775	3.246222	7.462802	-0.007902	0.008419	-0.012565	-0.480469	-0.108154	-0.094727
278.0	5.873103	3.265582	7.407989	-0.008675	0.002376	-0.014978	-0.478516	-0.105957	-0.096924
279.0	5.86345	3.264313	7.431325	-0.003951	0.01022	-0.017366	-0.478516	-0.105957	-0.101563
280.0	5.883994	3.27234	7.440626	-0.004111	0.00359	-0.010767	-0.478271	-0.108154	-0.096924
281.0	5.904637	3.280237	7.449909	-0.006193	0.008262	-0.01558	-0.480713	-0.105957	-0.092285
282.0	5.860553	3.26569	7.433005	-0.0059	0.006438	-0.015538	-0.480713	-0.105957	-0.099121
283.0	5.905034	3.229027	7.421829	-0.006343	0.006657	-0.013395	-0.476318	-0.10376	-0.096924
284.0	5.880168	3.273849	7.442987	-0.009257	0.006013	-0.015066	-0.476563	-0.101563	-0.096924
285.0	5.880236	3.299047	7.419758	-0.00799	0.00608	-0.015938	-0.48291	-0.10376	-0.099365
286.0	5.894562	3.252998	7.422616	-0.009257	0.006011	-0.015066	-0.478516	-0.10376	-0.096924
287.0	5.891084	3.305327	7.452629	-0.008283	0.0079	-0.015981	-0.476563	-0.101563	-0.101563
288.0	5.8838	3.251967	7.446705	-0.005455	0.006212	-0.017681	-0.480713	-0.10376	-0.094727
289.0	5.913062	3.261691	7.433269	-0.00814	0.004473	-0.013754	-0.478516	-0.105957	-0.094727
290.0	5.890547	3.254363	7.425205	-0.011489	0.009072	-0.017695	-0.476318	-0.105957	-0.094727
291.0	5.880669	3.252913	7.448764	-0.007838	0.007674	-0.018124	-0.474121	-0.10376	-0.099365
292.0	5.909677	3.26272	7.435509	-0.007838	0.007673	-0.018125	-0.480713	-0.105957	-0.096924
293.0	5.878333	3.254009	7.45013	-0.003657	0.008386	-0.017324	-0.48291	-0.10376	-0.090088
294.0	5.914935	3.240859	7.437963	-0.005218	0.010137	-0.016496	-0.480713	-0.105957	-0.096924
295.0	5.876861	3.280217	7.427683	-0.005746	0.008026	-0.017725	-0.471924	-0.10376	-0.096924
296.0	5.913431	3.267169	7.415514	-0.003506	0.009983	-0.01951	-0.478516	-0.105957	-0.092285
297.0	5.89472	3.264309	7.461748	-0.00604	0.009843	-0.017768	-0.480713	-0.10376	-0.099365
298.0	5.888282	3.236085	7.432057	-0.004772	0.009911	-0.01864	-0.480469	-0.108154	-0.099121
299.0	5.862867	3.281306	7.453344	-0.004772	0.009909	-0.01864	-0.47876	-0.101563	-0.099365
300.0	5.907996	3.270143	7.418535	-0.002977	0.012088	-0.018281	-0.474121	-0.10376	-0.094727
301.0	5.897773	3.269275	7.442079	-0.003353	0.011576	-0.021696	-0.476318	-0.105957	-0.101563
302.0	5.896212	3.270298	7.442867	-0.002531	0.011864	-0.020425	-0.478271	-0.108154	-0.096924
303.0	5.889772	3.242353	7.413083	-0.001564	0.008731	-0.016926	-0.480469	-0.108154	-0.096924
304.0	5.893467	3.272188	7.44421	-0.001708	0.01215	-0.019153	-0.480469	-0.108154	-0.094727
305.0	5.879056	3.267514	7.413476	-0.003201	0.013168	-0.023883	-0.47876	-0.099365	-0.094727
306.0	5.906745	3.253004	7.424131	-0.003206	0.008146	-0.019472	-0.480713	-0.105957	-0.096924
307.0	5.883929	3.246534	7.415893	0.000302	0.010174	-0.022125	-0.472168	-0.101563	-0.101563
308.0	5.887335	3.276734	7.447062	-0.000289	0.013812	-0.02221	-0.476318	-0.108154	-0.096924
309.0	5.914763	3.2625	7.457822	-0.00111	0.013519	-0.023483	-0.483154	-0.099365	-0.090332
310.0	5.892735	3.28111	7.425826	-0.000667	0.008278	-0.021214	-0.478516	-0.10376	-0.096924
311.0	5.877494	3.251626	7.418764	-0.00111	0.013514	-0.023484	-0.478271	-0.108154	-0.094727
312.0	5.904861	3.237406	7.429596	-0.001406	0.015331	-0.023527	-0.476318	-0.108154	-0.094727
313.0	5.865088	3.252675	7.443147	0.002619	0.011388	-0.029469	-0.476318	-0.105957	-0.10376
314.0	5.878922	3.208284	7.445893	0.00329	0.010078	-0.026011	-0.474121	-0.10376	-0.094727
315.0	5.877268	3.21029	7.446334	0.005455	0.009703	-0.031168	-0.476318	-0.108154	-0.099121
316.0	5.891017	3.293551	7.406688	0.013438	0.010636	-0.032972	-0.482422	-0.114746	-0.101318
317.0	5.885324	3.32314	7.460251	0.002249	0.010857	-0.032889	-0.474121	-0.10376	-0.101563
318.0	5.891184	3.302766	7.461677	0.018065	0.011134	-0.03431	-0.480713	-0.105957	-0.092285
319.0	5.876605	3.299533	7.430445	0.000534	0.010998	-0.029879	-0.478271	-0.108154	-0.099121
320.0	5.905102	3.311403	7.416837	0.018139	0.008452	-0.026523	-0.480713	-0.10376	-0.099365
321.0	5.86075	3.298605	7.399194	0.009038	0.009033	-0.026038	-0.482666	-0.110352	-0.094482
322.0	5.89324	3.314863	7.439679	0.024106	0.011359	-0.025356	-0.476074	-0.110352	-0.096924
323.0	5.87802	3.287084	7.431915	0.017393	0.010484	-0.024425	-0.478516	-0.105957	-0.099121
324.0	5.877339	3.314871	7.408043	0.022389	0.011505	-0.022345	-0.478516	-0.105957	-0.094727
325.0	5.900103	3.273419	7.387634	0.020002	0.012954	-0.022793	-0.476318	-0.10376	-0.096924
326.0	5.881795	3.29757	7.40929	0.021272	0.013021	-0.023664	-0.476318	-0.108154	-0.101563
327.0	5.86355	3.321726	7.43087	0.021123	0.011424	-0.021477	-0.480713	-0.105957	-0.101563
328.0	5.88348	3.332512	7.43952	0.026351	0.00829	-0.022724	-0.476318	-0.105957	-0.101563
329.0	5.868523	3.304783	7.431571	0.019787	0.009006	-0.023982	-0.471924	-0.10791	-0.096924
330.0	5.884526	3.311574	7.385917	0.027321	0.01017	-0.02364	-0.474121	-0.105957	-0.099121
331.0	5.878306	3.31702	7.462595	0.021209	0.005659	-0.02262	-0.476074	-0.110352	-0.092285
332.0	5.902478	3.300754	7.417887	0.028743	0.006823	-0.022278	-0.473877	-0.110107	-0.10376
333.0	5.87269	3.344397	7.383493	0.026504	0.00986	-0.024918	-0.471924	-0.105957	-0.092285
334.0	5.878164	3.299666	7.408384	0.020241	0.008756	-0.02613	-0.473877	-0.110107	-0.099121
335.0	5.890139	3.33355	7.415881	0.020242	0.008752	-0.026131	-0.471924	-0.105713	-0.099121
336.0	5.859291	3.351617	7.405805	0.018284	0.01307	-0.019796	-0.480469	-0.108154	-0.096924
337.0	5.894871	3.315758	7.417244	0.013227	0.00969	-0.025248	-0.480469	-0.108154	-0.101563
338.0	5.87654	3.339327	7.439024	0.010083	0.013184	-0.023604	-0.478271	-0.108154	-0.101563
339.0	5.861323	3.310533	7.431846	0.007996	0.012814	-0.024009	-0.476074	-0.112305	-0.092285
340.0	5.851648	3.335603	7.431108	0.007179	0.012512	-0.025283	-0.480713	-0.105957	-0.090088
341.0	5.871236	3.345429	7.440471	0.007179	0.012509	-0.025284	-0.478271	-0.110352	-0.099121
342.0	5.835439	3.333607	7.400572	0.006059	0.014024	-0.026605	-0.473877	-0.110352	-0.090088
343.0	5.875518	3.326121	7.442902	0.001283	0.011928	-0.023082	-0.478271	-0.110107	-0.10376
344.0	5.862223	3.346635	7.387848	0.006519	0.0088	-0.024321	-0.473877	-0.110107	-0.094482
345.0	5.873267	3.354499	7.419815	0.004128	0.010245	-0.024774	-0.478271	-0.112305	-0.099121
346.0	5.842459	3.371345	7.410148	0.000258	0.007688	-0.025537	-0.473877	-0.110107	-0.096924
347.0	5.879056	3.35945	7.398057	0.000771	0.009802	-0.024311	-0.478271	-0.112305	-0.099121
348.0	5.860803	3.381901	7.420164	-0.00676	0.008621	-0.024659	-0.476318	-0.105957	-0.101563
349.0	5.879829	3.365738	7.453794	-0.005885	0.011267	-0.020015	-0.478271	-0.110352	-0.096924
350.0	5.865697	3.360366	7.423148	-0.009093	0.01241	-0.021743	-0.478516	-0.10376	-0.096924
351.0	5.851651	3.354638	7.392599	-0.013053	0.010614	-0.016947	-0.478271	-0.110352	-0.096924
352.0	5.854075	3.35903	7.447861	-0.010207	0.008936	-0.018637	-0.478271	-0.112305	-0.099121
353.0	5.878122	3.339801	7.404832	-0.013969	0.016057	-0.017089	-0.482666	-0.108154	-0.101563
354.0	5.859802	3.360863	7.427577	-0.016409	0.010166	-0.016486	-0.476074	-0.110352	-0.096924
355.0	5.853878	3.331605	7.398387	-0.015444	0.01205	-0.017402	-0.480469	-0.110352	-0.101318
356.0	5.856911	3.360618	7.429969	-0.014173	0.012118	-0.018271	-0.48291	-0.105957	-0.101563
357.0	5.872279	3.339097	7.409785	-0.021342	0.011461	-0.015205	-0.478271	-0.108154	-0.10376
358.0	5.845157	3.35777	7.45543	-0.019867	0.01546	-0.014892	-0.476074	-0.112305	-0.099121
359.0	5.861296	3.360704	7.411567	-0.024697	0.011011	-0.014746	-0.474121	-0.108154	-0.096924
360.0	5.867967	3.336787	7.41424	-0.024241	0.010778	-0.01689	-0.480469	-0.110352	-0.094482
361.0	5.871696	3.389944	7.422341	-0.021443	0.017194	-0.014071	-0.478271	-0.108154	-0.105957
362.0	5.864935	3.335042	7.417423	-0.023521	0.011834	-0.010055	-0.478271	-0.110352	-0.096924
363.0	5.854736	3.332055	7.441689	-0.023677	0.01523	-0.012291	-0.476318	-0.108154	-0.101563
364.0	5.875396	3.363753	7.428395	-0.023827	0.013642	-0.010102	-0.474121	-0.10791	-0.099121
365.0	5.85997	3.306726	7.446103	-0.023011	0.013941	-0.008827	-0.482666	-0.110352	-0.101318
366.0	5.888778	3.315258	7.433981	-0.025096	0.013563	-0.009237	-0.478271	-0.110352	-0.099121
367.0	5.858197	3.329096	7.425415	-0.025603	0.011445	-0.010468	-0.47583	-0.114502	-0.09668
368.0	5.879094	3.360706	7.412026	-0.023517	0.011817	-0.01006	-0.478271	-0.112305	-0.101318
369.0	5.85582	3.326805	7.428315	-0.022752	0.009773	-0.012159	-0.480225	-0.114502	-0.101318
370.0	5.846686	3.34883	7.428462	-0.02031	0.010675	-0.00833	-0.474121	-0.105957	-0.10376
371.0	5.853725	3.324729	7.430896	-0.022088	0.008484	-0.008695	-0.476074	-0.110107	-0.099121
372.0	5.890848	3.310318	7.419736	-0.024787	0.011733	-0.009195	-0.473633	-0.114502	-0.09668
373.0	5.869298	3.326335	7.388253	-0.01873	0.00893	-0.009153	-0.478271	-0.110352	-0.096924
374.0	5.858607	3.298482	7.435976	-0.021936	0.010064	-0.010885	-0.476318	-0.105957	-0.101563
375.0	5.887657	3.30738	7.423578	-0.01741	0.011342	-0.006644	-0.478271	-0.108154	-0.094727
376.0	5.85716	3.321635	7.414756	-0.020971	0.011948	-0.011796	-0.480469	-0.112549	-0.099121
377.0	5.868489	3.32691	7.447574	-0.013793	0.007637	-0.010433	-0.478271	-0.112305	-0.101318
378.0	5.854335	3.295595	7.44062	-0.014606	0.007335	-0.011711	-0.47168	-0.110107	-0.099121
379.0	5.862262	3.297175	7.418867	-0.014606	0.007333	-0.011711	-0.47168	-0.110107	-0.10376
380.0	5.882573	3.304813	7.428749	-0.012062	0.007484	-0.013444	-0.476318	-0.108154	-0.096924
381.0	5.852226	3.319964	7.419399	-0.007893	0.008237	-0.012621	-0.482666	-0.108154	-0.096924
382.0	5.863553	3.326237	7.451761	-0.004078	0.008465	-0.01522	-0.478516	-0.105957	-0.101563
383.0	5.879626	3.305478	7.430786	-0.010324	0.002344	-0.012038	-0.480469	-0.110352	-0.094482
384.0	5.856682	3.272914	7.446098	-0.003619	0.008238	-0.017363	-0.476318	-0.105957	-0.099121
385.0	5.869679	3.32945	7.430716	-0.00392	0.005063	-0.01299	-0.473633	-0.114502	-0.094482
386.0	5.846657	3.297298	7.445901	-0.000766	0.006576	-0.019052	-0.47168	-0.110107	-0.099121
387.0	5.876593	3.333481	7.408692	0.007729	0.004691	-0.015176	-0.478516	-0.10376	-0.094727
388.0	5.86686	3.332951	7.431372	0.006917	0.004387	-0.016453	-0.476318	-0.105957	-0.099121
389.0	5.852779	3.303651	7.423472	0.009461	0.004539	-0.018185	-0.480469	-0.108154	-0.094727
390.0	5.864218	3.311345	7.455109	0.008649	0.004235	-0.019463	-0.478271	-0.112549	-0.094482
391.0	5.864095	3.337912	7.431328	0.005646	0.004307	-0.015589	-0.478271	-0.112305	-0.101318
392.0	5.858929	3.310523	7.400791	0.010274	0.004838	-0.016908	-0.476074	-0.110352	-0.096924
393.0	5.874805	3.347166	7.462834	0.010893	0.001213	-0.016822	-0.476318	-0.108154	-0.10376
394.0	5.899768	3.329957	7.418561	0.007528	0.005737	-0.020786	-0.476318	-0.105957	-0.099121
395.0	5.851631	3.342792	7.453724	0.009462	0.004531	-0.018187	-0.478516	-0.10376	-0.099365
396.0	5.876627	3.325565	7.409447	0.010585	0.003021	-0.016866	-0.473877	-0.110107	-0.096924
397.0	5.828702	3.338466	7.444395	0.011045	0.002792	-0.01901	-0.476074	-0.112305	-0.101318
398.0	5.896287	3.337325	7.418018	0.011356	0.000979	-0.018966	-0.478271	-0.110352	-0.094482
399.0	5.85714	3.352221	7.430372	0.008341	0.006032	-0.019511	-0.478271	-0.108154	-0.099121
400.0	5.885554	3.338918	7.440535	0.006879	0.002026	-0.019835	-0.476074	-0.110352	-0.096924
401.0	5.876441	3.363344	7.439501	0.001318	0.006926	-0.018649	-0.476318	-0.108154	-0.099121
402.0	5.892473	3.343554	7.418244	0.003563	0.003911	-0.016004	-0.474121	-0.10791	-0.101563
403.0	5.87927	3.338795	7.386685	0.001941	0.0033	-0.01856	-0.480469	-0.108154	-0.101563
404.0	5.8865	3.317084	7.388004	0.005336	0.006102	-0.015637	-0.474121	-0.105957	-0.099121
405.0	5.860259	3.36237	7.408576	0.003402	0.007302	-0.018238	-0.480713	-0.105957	-0.094727
406.0	5.858545	3.338648	7.432608	0.003565	0.003907	-0.016005	-0.474121	-0.105957	-0.096924
407.0	5.878119	3.322884	7.465644	8e-06	0.004495	-0.021162	-0.478271	-0.112305	-0.10376
408.0	5.857178	3.365992	7.409367	-0.001077	0.008345	-0.019108	-0.480469	-0.112549	-0.099121
409.0	5.893709	3.329034	7.4211	-0.000601	0.00314	-0.016831	-0.480469	-0.110352	-0.096924
410.0	5.854588	3.342857	7.433834	-0.002186	0.004873	-0.01601	-0.476074	-0.110352	-0.094482
411.0	5.913887	3.363683	7.40696	-0.002997	0.004566	-0.017288	-0.476318	-0.105957	-0.101563
412.0	5.861633	3.34657	7.411866	0.00117	0.005331	-0.016463	-0.476318	-0.108154	-0.099121
413.0	5.903085	3.363504	7.430306	-0.001687	0.006987	-0.014777	-0.478271	-0.108154	-0.101563
414.0	5.859699	3.348225	7.412648	-0.002185	0.004869	-0.016011	-0.478516	-0.10376	-0.094727
415.0	5.866855	3.325954	7.41432	-0.005704	0.007799	-0.017792	-0.476318	-0.10791	-0.105957
416.0	5.878883	3.357496	7.422728	-0.003919	0.00502	-0.013002	-0.476074	-0.112305	-0.10376
417.0	5.864907	3.326967	7.415406	-0.006166	0.008026	-0.015648	-0.480469	-0.112549	-0.101318
418.0	5.868	3.356331	7.446562	-0.006315	0.006444	-0.01346	-0.482666	-0.108154	-0.096924
419.0	5.884819	3.360851	7.401821	-0.003769	0.006598	-0.015191	-0.478271	-0.112305	-0.10376
420.0	5.866032	3.357407	7.447628	-0.003769	0.006597	-0.015191	-0.476318	-0.108154	-0.101563
421.0	5.852725	3.352008	7.416447	-0.003769	0.006596	-0.015191	-0.474121	-0.10376	-0.096924
422.0	5.851733	3.352552	7.416983	-0.005851	0.00621	-0.015605	-0.47583	-0.114502	-0.101318
423.0	5.889023	3.340065	7.405189	-0.006628	0.008249	-0.013506	-0.478271	-0.108154	-0.096924
424.0	5.857744	3.33043	7.419513	-0.006016	0.009599	-0.017838	-0.476074	-0.110352	-0.096924
425.0	5.887296	3.365819	7.382954	-0.009487	0.009901	-0.011821	-0.480469	-0.112549	-0.101318
426.0	5.885393	3.341125	7.407595	-0.006825	0.009289	-0.019118	-0.474121	-0.10791	-0.101563
427.0	5.854837	3.356559	7.398031	-0.00423	0.006821	-0.013049	-0.471924	-0.105713	-0.099121
428.0	5.892213	3.344175	7.386162	-0.005039	0.006512	-0.014328	-0.476074	-0.110107	-0.105957
429.0	5.865143	3.363475	7.430886	-0.004545	0.008629	-0.013093	-0.478271	-0.112305	-0.101318
430.0	5.890128	3.344999	7.387452	-0.006627	0.008241	-0.013508	-0.473877	-0.110107	-0.105957
431.0	5.880232	3.343192	7.410761	-0.008394	0.006044	-0.013878	-0.47168	-0.112305	-0.099121
432.0	5.849689	3.358236	7.401342	-0.009339	0.011471	-0.014011	-0.476318	-0.10376	-0.099365
433.0	5.86896	3.341367	7.435158	-0.011105	0.009273	-0.014382	-0.474121	-0.10791	-0.10376
434.0	5.906263	3.328665	7.423532	-0.008393	0.006041	-0.013879	-0.473877	-0.110107	-0.105957
435.0	5.846449	3.358514	7.403775	-0.009172	0.008079	-0.011779	-0.478516	-0.105957	-0.105957
436.0	5.861937	3.31272	7.406846	-0.009516	0.00754	-0.015203	-0.471924	-0.105713	-0.099121
437.0	5.864806	3.341833	7.438225	-0.009023	0.009656	-0.013968	-0.480713	-0.105957	-0.099121
438.0	5.894309	3.377152	7.401828	-0.00853	0.011772	-0.012732	-0.476318	-0.105957	-0.099121
439.0	5.871414	3.344054	7.417361	-0.010937	0.005877	-0.012152	-0.478271	-0.110352	-0.101318
440.0	5.861946	3.367096	7.417117	-0.010806	0.012423	-0.01876	-0.474121	-0.10791	-0.099121
441.0	5.847852	3.336233	7.410041	-0.008855	0.006263	-0.011737	-0.476318	-0.105957	-0.101563
442.0	5.85846	3.317128	7.466331	-0.01076	0.009799	-0.010961	-0.476074	-0.110352	-0.096924
443.0	5.866919	3.344184	7.420858	-0.010295	0.009569	-0.013105	-0.480713	-0.105957	-0.094727
444.0	5.857487	3.367126	7.420625	-0.010294	0.009568	-0.013105	-0.473877	-0.112305	-0.101318
445.0	5.873556	3.3463	7.400046	-0.010294	0.009567	-0.013106	-0.476318	-0.105957	-0.105957
446.0	5.881431	3.348355	7.378292	-0.011251	0.007677	-0.012199	-0.478516	-0.10376	-0.10376
447.0	5.870736	3.321361	7.425478	-0.006473	0.009806	-0.015698	-0.474121	-0.105957	-0.101563
448.0	5.870132	3.346551	7.40265	-0.011884	0.01129	-0.012286	-0.480469	-0.112549	-0.101318
449.0	5.860079	3.344293	7.426212	-0.01125	0.007673	-0.0122	-0.478271	-0.108154	-0.099121
450.0	5.889218	3.354319	7.413557	-0.011716	0.0079	-0.010056	-0.478271	-0.110352	-0.096924
451.0	5.858161	3.343964	7.427873	-0.009976	0.007752	-0.013064	-0.480469	-0.110352	-0.099121
452.0	5.883341	3.325084	7.384665	-0.013306	0.009624	-0.009236	-0.478271	-0.108154	-0.099121
453.0	5.864467	3.320466	7.43083	-0.012522	0.007587	-0.011338	-0.476318	-0.108154	-0.099121
454.0	5.881391	3.324622	7.386426	-0.009975	0.007749	-0.013065	-0.474121	-0.105957	-0.096924
455.0	5.905245	3.36141	7.427211	-0.014748	0.012925	-0.010603	-0.484619	-0.112549	-0.099121
456.0	5.861111	3.319877	7.43374	-0.009484	0.009864	-0.011827	-0.473877	-0.110107	-0.101318
457.0	5.842726	3.340511	7.456174	-0.013645	0.00908	-0.012663	-0.476318	-0.105957	-0.099121
458.0	5.880055	3.327504	7.444828	-0.014919	0.008996	-0.0118	-0.478271	-0.108154	-0.099121
459.0	5.8675	3.346361	7.390278	-0.011247	0.007662	-0.012203	-0.476318	-0.10376	-0.101563
460.0	5.887576	3.35436	7.400318	-0.012371	0.009158	-0.013527	-0.478271	-0.110107	-0.10376
461.0	5.873733	3.323137	7.393185	-0.013326	0.007267	-0.012622	-0.474121	-0.10791	-0.099121
462.0	5.884814	3.328871	7.425901	-0.010269	0.011892	-0.009726	-0.473877	-0.110107	-0.10376
463.0	5.845287	3.341294	7.439208	-0.014938	0.006645	-0.015186	-0.482666	-0.110352	-0.094482
464.0	5.882724	3.328502	7.427722	-0.011245	0.007656	-0.012205	-0.476318	-0.108154	-0.099121
465.0	5.852384	3.343109	7.418241	-0.011395	0.006076	-0.010019	-0.476074	-0.112305	-0.096924
466.0	5.880828	3.328106	7.4294	-0.011881	0.011267	-0.012289	-0.480469	-0.110352	-0.099121
467.0	5.879718	3.327967	7.430342	-0.011244	0.007653	-0.012205	-0.476074	-0.110107	-0.10376
468.0	5.845505	3.313712	7.390239	-0.012518	0.007568	-0.011343	-0.473877	-0.110107	-0.099121
469.0	5.865683	3.321579	7.400272	-0.012518	0.007567	-0.011344	-0.478271	-0.110352	-0.099121
470.0	5.894126	3.306596	7.411437	-0.011562	0.009456	-0.012248	-0.480713	-0.105957	-0.099121
471.0	5.845768	3.316711	7.447222	-0.013473	0.005675	-0.01044	-0.476318	-0.10376	-0.101563
472.0	5.883923	3.328911	7.412088	-0.012031	0.00968	-0.010104	-0.480469	-0.108154	-0.094727
473.0	5.844557	3.341201	7.425268	-0.011392	0.006067	-0.010021	-0.480957	-0.099365	-0.101563
474.0	5.882134	3.328385	7.413744	-0.013322	0.007251	-0.012627	-0.480713	-0.105957	-0.101563
475.0	5.863819	3.348896	7.436107	-0.011242	0.007645	-0.012207	-0.474121	-0.105957	-0.10376
476.0	5.871177	3.32571	7.438102	-0.01411	0.00928	-0.010525	-0.471924	-0.108154	-0.092285
477.0	5.878549	3.302517	7.440088	-0.010436	0.007954	-0.010925	-0.478516	-0.105957	-0.099121
478.0	5.878296	3.327403	7.417228	-0.014276	0.005356	-0.011726	-0.476318	-0.10376	-0.094727
479.0	5.868318	3.324824	7.440754	-0.012349	0.011478	-0.010145	-0.474121	-0.105957	-0.099121
480.0	5.846175	3.316313	7.432539	-0.013789	0.00747	-0.010485	-0.478271	-0.108154	-0.099121
481.0	5.892638	3.305694	7.398576	-0.013639	0.009048	-0.01267	-0.480469	-0.108154	-0.10376
482.0	5.865296	3.323636	7.443667	-0.017143	0.006985	-0.010045	-0.476074	-0.110107	-0.101318
483.0	5.872792	3.300189	7.445665	-0.014593	0.007155	-0.011769	-0.471924	-0.10791	-0.101563
484.0	5.881423	3.327191	7.400401	-0.014108	0.00927	-0.010527	-0.478271	-0.110107	-0.10376
485.0	5.854099	3.345014	7.445507	-0.016337	0.007291	-0.008764	-0.474121	-0.105957	-0.10376
486.0	5.882664	3.329611	7.456786	-0.014578	0.009492	-0.008382	-0.478516	-0.105957	-0.099121
487.0	5.865974	3.294252	7.39526	-0.020024	0.006269	-0.011753	-0.476318	-0.108154	-0.099121
488.0	5.889814	3.330137	7.436451	-0.023684	0.009927	-0.007966	-0.480469	-0.108154	-0.094727
489.0	5.888287	3.303961	7.461239	-0.016336	0.007285	-0.008765	-0.476318	-0.108154	-0.096924
490.0	5.866898	3.319998	7.429561	-0.023683	0.009923	-0.007967	-0.476318	-0.108154	-0.096924
491.0	5.874288	3.295813	7.431962	-0.024487	0.00961	-0.009251	-0.478516	-0.105957	-0.10376
492.0	5.885332	3.300386	7.46515	-0.024486	0.009607	-0.009252	-0.476318	-0.105957	-0.10376
493.0	5.87231	3.293336	7.434623	-0.022087	0.008199	-0.008791	-0.478516	-0.10376	-0.099365
494.0	5.883381	3.298051	7.46772	-0.024014	0.009379	-0.011397	-0.478516	-0.10376	-0.094727
495.0	5.879204	3.29346	7.414702	-0.021452	0.011891	-0.00973	-0.476318	-0.108154	-0.101563
496.0	5.890802	3.323443	7.424267	-0.022888	0.007881	-0.010077	-0.476318	-0.10376	-0.101563
497.0	5.867463	3.263719	7.46348	-0.02353	0.011486	-0.010154	-0.478516	-0.105957	-0.10376
498.0	5.896975	3.298327	7.428037	-0.020648	0.012194	-0.008446	-0.476318	-0.105957	-0.099121
499.0	5.86568	3.28682	7.442736	-0.022253	0.011571	-0.011016	-0.480713	-0.10376	-0.096924
500.0	5.873563	3.288158	7.421522	-0.021129	0.010075	-0.009694	-0.480469	-0.110352	-0.10376
501.0	5.905536	3.30102	7.464006	-0.022725	0.011787	-0.008872	-0.478271	-0.108154	-0.105957
502.0	5.871348	3.285921	7.424265	-0.022403	0.009981	-0.008835	-0.476318	-0.10376	-0.099365
503.0	5.873886	3.313591	7.456415	-0.01905	0.01047	-0.009271	-0.478516	-0.105957	-0.094727
504.0	5.869158	3.283903	7.42689	-0.023526	0.011469	-0.010158	-0.480713	-0.105957	-0.096924
505.0	5.877037	3.285347	7.405664	-0.018576	0.010246	-0.011416	-0.48291	-0.105957	-0.096924
506.0	5.884456	3.261544	7.407839	-0.02208	0.008169	-0.008801	-0.478271	-0.108154	-0.101563
507.0	5.895478	3.266315	7.440912	-0.019048	0.010462	-0.009272	-0.476318	-0.105957	-0.101563
508.0	5.864892	3.280202	7.431893	-0.020652	0.009839	-0.011843	-0.48291	-0.10376	-0.096924
509.0	5.876388	3.310391	7.441501	-0.01985	0.010147	-0.010558	-0.48291	-0.105957	-0.101563
510.0	5.892793	3.288975	7.421176	-0.021124	0.010054	-0.0097	-0.480713	-0.105957	-0.099121
511.0	5.891232	3.2629	7.445772	-0.014249	0.007654	-0.008349	-0.478516	-0.105957	-0.105957
512.0	5.881737	3.285071	7.445971	-0.020972	0.011634	-0.011881	-0.476563	-0.101563	-0.101563
513.0	5.888938	3.261673	7.448123	-0.011868	0.011221	-0.012284	-0.476318	-0.105957	-0.10376
514.0	5.866901	3.253191	7.43973	-0.016331	0.004915	-0.012172	-0.476318	-0.108154	-0.101563
515.0	5.866583	3.278115	7.417149	-0.013623	0.009013	-0.012675	-0.484863	-0.108154	-0.101563
516.0	5.898592	3.291666	7.459292	-0.014575	0.007117	-0.011781	-0.476074	-0.110107	-0.10376
517.0	5.867544	3.28083	7.473357	-0.012024	0.007301	-0.013499	-0.478516	-0.10376	-0.094727
518.0	5.875721	3.283026	7.45162	-0.014253	0.005312	-0.011747	-0.472168	-0.099365	-0.099365
519.0	5.874855	3.282716	7.45244	-0.013299	0.007206	-0.012641	-0.471924	-0.105957	-0.096924
520.0	5.861301	3.251638	7.444821	-0.008671	0.007795	-0.013931	-0.47876	-0.101563	-0.101563
521.0	5.864385	3.305583	7.453098	-0.011222	0.007608	-0.012214	-0.478516	-0.105957	-0.10376
522.0	5.868914	3.279332	7.400484	-0.013147	0.008786	-0.014822	-0.478516	-0.105957	-0.099121
523.0	5.879342	3.259693	7.456566	-0.0093	0.004096	-0.013003	-0.478271	-0.110352	-0.101318
524.0	5.879	3.285067	7.433836	-0.010269	0.009499	-0.013108	-0.476318	-0.10376	-0.096924
525.0	5.895477	3.264682	7.41306	-0.010747	0.007385	-0.01436	-0.47876	-0.101563	-0.10376
526.0	5.864379	3.254029	7.42704	-0.012823	0.006979	-0.014789	-0.474121	-0.10376	-0.099365
527.0	5.86671	3.282781	7.458825	-0.006442	0.009778	-0.015684	-0.476318	-0.105957	-0.096924
528.0	5.862221	3.254444	7.428562	-0.008821	0.006203	-0.011753	-0.478271	-0.108154	-0.105957
529.0	5.873738	3.285519	7.437794	-0.011069	0.009181	-0.014396	-0.478516	-0.105957	-0.096924
530.0	5.881199	3.262767	7.439469	-0.009146	0.005672	-0.015185	-0.476074	-0.110107	-0.10376
531.0	5.892133	3.268731	7.472034	-0.007393	0.007878	-0.014791	-0.478516	-0.10376	-0.096924
532.0	5.879223	3.263292	7.440802	-0.008345	0.005982	-0.013899	-0.47876	-0.101563	-0.106201
533.0	5.878264	3.263412	7.441506	-0.010745	0.007375	-0.014363	-0.476318	-0.105957	-0.108398
534.0	5.877306	3.263532	7.44221	-0.008344	0.00598	-0.0139	-0.474121	-0.105957	-0.10376
535.0	5.867952	3.286667	7.441853	-0.005944	0.004585	-0.013437	-0.478271	-0.108154	-0.099121
536.0	5.896423	3.272235	7.452852	-0.009317	0.01138	-0.014003	-0.478516	-0.10376	-0.10376
537.0	5.883285	3.266622	7.421887	-0.011068	0.00917	-0.014399	-0.476318	-0.10376	-0.099365
538.0	5.852262	3.255968	7.435743	-0.009294	0.00408	-0.013009	-0.474121	-0.105957	-0.099121
539.0	5.9024	3.274977	7.432694	-0.008193	0.009888	-0.012682	-0.478516	-0.105957	-0.101563
540.0	5.862098	3.262054	7.4691	-0.006115	0.007966	-0.015651	-0.47876	-0.101563	-0.099365
541.0	5.891177	3.2731	7.45662	-0.008342	0.005973	-0.013902	-0.47876	-0.101563	-0.10376
542.0	5.869187	3.265225	7.447872	-0.006115	0.007964	-0.015651	-0.476318	-0.105957	-0.096924
543.0	5.877316	3.267931	7.426038	-0.010894	0.005778	-0.012188	-0.476318	-0.105957	-0.101563
544.0	5.909273	3.281737	7.468113	-0.012817	0.006952	-0.014797	-0.478516	-0.105957	-0.094727
545.0	5.875457	3.2676	7.427655	-0.013771	0.007383	-0.010507	-0.480957	-0.101563	-0.099365
546.0	5.877332	3.270534	7.482894	-0.014888	0.004211	-0.018628	-0.48291	-0.105957	-0.099121
547.0	5.864575	3.264743	7.451716	-0.013767	0.005052	-0.013907	-0.480713	-0.10376	-0.101563
548.0	5.863166	3.239285	7.475814	-0.011214	0.005244	-0.015622	-0.476318	-0.10376	-0.099365
549.0	5.880403	3.244447	7.431522	-0.01154	0.007042	-0.015656	-0.478516	-0.10376	-0.094727
550.0	5.874199	3.29581	7.462447	-0.01249	0.005144	-0.014766	-0.474121	-0.10791	-0.101563
551.0	5.899361	3.252881	7.442438	-0.008037	0.009131	-0.018261	-0.476318	-0.105957	-0.10376
552.0	5.880608	3.273439	7.464809	-0.010414	0.005551	-0.014336	-0.478516	-0.105957	-0.101563
553.0	5.897275	3.253441	7.443846	-0.00771	0.007329	-0.018228	-0.476563	-0.099365	-0.101563
554.0	5.866486	3.268448	7.43437	-0.008841	0.011142	-0.016149	-0.476318	-0.108154	-0.101563
555.0	5.865237	3.268841	7.435182	-0.007709	0.007326	-0.018229	-0.478271	-0.108154	-0.096924
556.0	5.884533	3.252163	7.46866	-0.007709	0.007325	-0.018229	-0.47876	-0.101563	-0.099365
557.0	5.884	3.278068	7.445909	-0.005785	0.006152	-0.01562	-0.476318	-0.10376	-0.099365
558.0	5.870422	3.247654	7.438009	-0.002139	0.012155	-0.017	-0.480957	-0.101563	-0.099365
559.0	5.884292	3.282481	7.501681	-0.005784	0.006149	-0.015621	-0.474365	-0.101563	-0.096924
560.0	5.898077	3.259748	7.426298	-0.004213	0.011741	-0.017433	-0.478516	-0.105957	-0.094727
561.0	5.878934	3.280816	7.448699	-0.005002	0.009096	-0.022123	-0.478516	-0.10376	-0.094727
562.0	5.874513	3.2531	7.41823	-0.004507	0.006244	-0.016478	-0.476318	-0.10376	-0.099365
563.0	5.846936	3.296844	7.439676	-0.005011	0.011422	-0.018723	-0.480713	-0.105957	-0.101563
564.0	5.883791	3.260191	7.451559	-0.003557	0.008138	-0.017368	-0.474121	-0.105957	-0.099121
565.0	5.861679	3.252682	7.442706	-0.003557	0.008137	-0.017369	-0.478271	-0.110352	-0.096924
566.0	5.872617	3.284494	7.452061	-0.004541	0.01353	-0.017468	-0.476318	-0.105957	-0.092285
567.0	5.850311	3.276877	7.443399	-0.00563	0.00772	-0.017802	-0.476318	-0.105957	-0.099121
568.0	5.896515	3.242898	7.432626	-0.002747	0.006119	-0.019482	-0.480469	-0.108154	-0.096924
569.0	5.877917	3.289289	7.431622	-0.006615	0.013111	-0.017902	-0.480713	-0.105957	-0.101563
570.0	5.887947	3.270123	7.487671	-0.003706	0.006549	-0.015192	-0.478271	-0.108154	-0.099121
571.0	5.88414	3.267738	7.433839	-0.003884	0.009927	-0.017403	-0.480957	-0.101563	-0.10376
572.0	5.874241	3.291307	7.433635	-0.004351	0.007813	-0.018661	-0.480469	-0.108154	-0.094727
573.0	5.851602	3.258264	7.448192	-0.00516	0.009825	-0.016548	-0.474121	-0.10376	-0.106201
574.0	5.889019	3.247089	7.436737	-0.00181	0.010339	-0.016971	-0.476318	-0.105957	-0.096924
575.0	5.870442	3.293473	7.435676	-0.007219	0.007077	-0.020385	-0.476318	-0.105957	-0.099121
576.0	5.868815	3.268601	7.45968	-0.006107	0.007924	-0.015661	-0.480713	-0.105957	-0.099121
577.0	5.867582	3.26928	7.460353	-0.003401	0.009703	-0.019551	-0.476318	-0.10376	-0.10376
578.0	5.896367	3.281044	7.447983	-0.003552	0.008121	-0.017373	-0.474365	-0.101563	-0.096924
579.0	5.865122	3.27093	7.461564	-0.002275	0.00822	-0.018229	-0.478516	-0.10376	-0.101563
580.0	5.863921	3.271765	7.462142	-0.004348	0.007802	-0.018664	-0.476318	-0.105957	-0.101563
581.0	5.88967	3.254919	7.418711	-0.00516	0.009813	-0.016551	-0.476563	-0.099365	-0.104004
582.0	5.879369	3.252909	7.441827	-0.006089	0.005585	-0.019066	-0.476318	-0.108154	-0.096924
583.0	5.890462	3.28481	7.450994	-0.001479	0.008532	-0.01694	-0.478516	-0.10376	-0.096924
584.0	5.88661	3.282538	7.397209	-0.007545	0.008858	-0.020423	-0.474121	-0.105957	-0.094727
585.0	5.849046	3.298191	7.464538	-6.8e-05	0.012541	-0.016571	-0.478271	-0.108154	-0.094727
586.0	5.865586	3.278843	7.443605	-0.005623	0.007692	-0.017811	-0.480469	-0.108154	-0.096924
587.0	5.864429	3.279469	7.444241	-0.005622	0.007691	-0.017811	-0.478516	-0.105957	-0.099121
588.0	5.863264	3.280159	7.444854	-0.00355	0.008108	-0.017376	-0.476318	-0.108154	-0.099121
589.0	5.870826	3.258052	7.446321	-0.004827	0.008006	-0.016521	-0.476563	-0.101563	-0.106201
590.0	5.899802	3.269685	7.433918	-0.004495	0.006209	-0.016489	-0.476074	-0.110107	-0.099121
591.0	5.862815	3.31054	7.477843	-0.006285	0.011278	-0.017878	-0.476318	-0.105957	-0.101563
592.0	5.867193	3.259874	7.448387	-0.005953	0.00948	-0.017845	-0.476563	-0.101563	-0.096924
593.0	5.887253	3.294382	7.435249	-0.005137	0.007466	-0.019959	-0.478516	-0.10376	-0.101563
594.0	5.856055	3.283977	7.448845	-0.006103	0.007898	-0.015668	-0.478516	-0.10376	-0.101563
595.0	5.875822	3.292804	7.459021	-0.006103	0.007897	-0.015668	-0.474121	-0.10376	-0.099365
596.0	5.871746	3.264876	7.428538	-0.004825	0.007998	-0.016523	-0.478271	-0.108154	-0.099121
597.0	5.879342	3.242783	7.429999	-0.003547	0.008098	-0.017379	-0.478516	-0.10376	-0.101563
598.0	5.890641	3.300083	7.416023	-0.006745	0.009153	-0.019139	-0.48291	-0.105957	-0.094727
599.0	5.87974	3.272617	7.46254	-0.003879	0.009891	-0.017412	-0.474121	-0.105713	-0.108398
600.0	5.887904	3.276006	7.440566	-0.003031	0.002926	-0.015136	-0.474121	-0.10791	-0.101563
601.0	5.878044	3.299483	7.440271	-0.0058	0.011046	-0.020027	-0.478516	-0.10376	-0.096924
602.0	5.87622	3.274832	7.464341	-0.002601	0.00999	-0.018267	-0.476318	-0.105957	-0.101563
603.0	5.856941	3.295708	7.486641	-0.003879	0.009886	-0.017413	-0.474121	-0.10791	-0.099121
604.0	5.882843	3.279018	7.443242	-0.005616	0.007668	-0.017818	-0.474121	-0.10791	-0.101563
605.0	5.863648	3.299707	7.465548	-0.006743	0.009142	-0.019142	-0.474121	-0.105957	-0.094727
606.0	5.880264	3.280232	7.444745	-0.004698	0.011893	-0.0153	-0.478516	-0.10376	-0.101563
607.0	5.890708	3.286593	7.477406	-0.003209	0.006292	-0.017349	-0.480469	-0.108154	-0.099121
608.0	5.857082	3.27304	7.436517	-0.008505	0.009251	-0.016143	-0.476318	-0.108154	-0.099121
609.0	5.855889	3.273574	7.437221	-0.003543	0.008084	-0.017382	-0.476318	-0.105957	-0.101563
610.0	5.884831	3.285396	7.424862	-0.004486	0.006185	-0.016496	-0.472168	-0.099365	-0.097168
611.0	5.865361	3.280656	7.470321	-0.003543	0.008082	-0.017383	-0.478271	-0.108154	-0.099121
612.0	5.873348	3.283976	7.448552	-0.006434	0.009668	-0.015707	-0.480713	-0.105957	-0.099121
613.0	5.87218	3.284431	7.449273	-0.006099	0.007873	-0.015675	-0.476318	-0.105957	-0.094727
614.0	5.880324	3.287708	7.427409	-0.004485	0.006181	-0.016497	-0.480713	-0.10376	-0.099365
615.0	5.870013	3.285757	7.450396	-0.003055	0.007861	-0.01953	-0.476318	-0.10376	-0.101563
616.0	5.889466	3.295148	7.460611	-0.001655	0.011872	-0.019156	-0.474121	-0.10376	-0.094727
617.0	5.885266	3.267507	7.430201	-0.005947	0.009444	-0.017855	-0.480469	-0.108154	-0.099121
618.0	5.854459	3.282511	7.420404	-0.003205	0.00628	-0.017353	-0.476318	-0.108154	-0.10376
619.0	5.864951	3.288996	7.452953	-0.005124	0.00743	-0.01997	-0.478271	-0.108154	-0.099121
620.0	5.884649	3.29816	7.46308	-0.005274	0.005852	-0.017792	-0.476318	-0.108154	-0.101563
621.0	5.862728	3.290427	7.45407	-0.004332	0.007749	-0.018678	-0.478516	-0.10376	-0.101563
622.0	5.879642	3.271046	7.433096	-0.005306	0.008181	-0.014386	-0.478271	-0.108154	-0.101563
623.0	5.881223	3.30019	7.464883	-0.004635	0.007208	-0.022118	-0.476074	-0.110352	-0.096924
624.0	5.849888	3.289666	7.478487	-0.00677	0.011443	-0.015744	-0.478516	-0.105957	-0.10376
625.0	5.89679	3.281419	7.444721	-0.00369	0.006489	-0.015209	-0.476318	-0.10376	-0.101563
626.0	5.865993	3.296305	7.434927	-0.005945	0.009431	-0.017859	-0.480469	-0.108154	-0.099121
627.0	5.864712	3.296902	7.435672	-0.005154	0.009751	-0.016566	-0.476318	-0.105957	-0.099121
628.0	5.86345	3.297482	7.43641	-0.004363	0.010072	-0.015274	-0.474121	-0.10376	-0.101563
629.0	5.873375	3.278424	7.492419	-0.003386	0.009637	-0.019566	-0.476563	-0.101563	-0.10376
630.0	5.881666	3.307461	7.447362	-0.006397	0.00731	-0.019121	-0.482666	-0.110352	-0.099121
631.0	5.889304	3.285427	7.448878	-0.003874	0.009851	-0.017421	-0.474121	-0.10376	-0.099365
632.0	5.867337	3.277769	7.439854	-0.001129	0.006693	-0.016917	-0.478516	-0.105957	-0.096924
633.0	5.857278	3.301249	7.439602	-0.005944	0.00942	-0.017862	-0.476318	-0.105957	-0.099121
634.0	5.876529	3.285074	7.473047	-0.00064	0.006473	-0.019064	-0.478271	-0.108154	-0.096924
635.0	5.863891	3.280354	7.441432	-0.001128	0.006689	-0.016918	-0.476318	-0.105957	-0.099121
636.0	5.862784	3.28148	7.441808	0.002709	0.007006	-0.019477	-0.485107	-0.10376	-0.101563
637.0	5.882391	3.291444	7.451684	0.007638	0.008185	-0.017303	-0.473877	-0.112305	-0.101318
638.0	5.89069	3.295933	7.429231	0.010272	0.001121	-0.018028	-0.47583	-0.114502	-0.094482
639.0	5.859839	3.286294	7.442003	0.005908	0.005961	-0.017713	-0.476318	-0.10376	-0.096924
640.0	5.859213	3.313498	7.418703	0.011214	0.003017	-0.018914	-0.474121	-0.108154	-0.096924
641.0	5.876031	3.269793	7.420454	0.00399	0.007102	-0.020333	-0.480713	-0.10376	-0.10376
642.0	5.878017	3.325087	7.428484	0.004818	0.002486	-0.014649	-0.476318	-0.105957	-0.094727
643.0	5.856061	3.29227	7.442335	0.002221	0.007212	-0.017334	-0.476318	-0.108154	-0.099121
644.0	5.884955	3.304703	7.429881	0.000152	0.006781	-0.017775	-0.476318	-0.108154	-0.096924
645.0	5.853872	3.294438	7.443098	0.000152	0.006779	-0.017776	-0.480469	-0.110352	-0.101318
646.0	5.891561	3.284165	7.431626	0.000752	0.010467	-0.018694	-0.476318	-0.105957	-0.096924
647.0	5.881478	3.307784	7.431262	-0.004924	0.004018	-0.017773	-0.476318	-0.108154	-0.101563
648.0	5.859697	3.299959	7.422146	-0.003535	0.00803	-0.017397	-0.476318	-0.10376	-0.099365
649.0	5.869964	3.306521	7.454808	-0.001807	0.010252	-0.016989	-0.474121	-0.10791	-0.099121
650.0	5.868592	3.307482	7.455462	-0.002894	0.009381	-0.021724	-0.474121	-0.10791	-0.099121
651.0	5.864973	3.305359	7.401694	-0.005943	0.009385	-0.017873	-0.474121	-0.10791	-0.101563
652.0	5.874894	3.2863	7.457746	-0.004663	0.00949	-0.018726	-0.478271	-0.108154	-0.096924
653.0	5.873948	3.312471	7.43513	-0.004025	0.008243	-0.015253	-0.480469	-0.108154	-0.096924
654.0	5.881785	3.290451	7.436587	-0.002745	0.008348	-0.016105	-0.476074	-0.110107	-0.105957
655.0	5.88311	3.31973	7.468345	-0.003041	0.007802	-0.019546	-0.48291	-0.10376	-0.099365
656.0	5.879708	3.317828	7.41433	0.003013	0.007528	-0.016042	-0.471924	-0.105713	-0.101563
657.0	5.878317	3.293532	7.437965	-0.000139	0.006222	-0.02122	-0.482666	-0.108154	-0.10376
658.0	5.856687	3.311795	7.405377	0.005573	0.007739	-0.017747	-0.478516	-0.105957	-0.094727
659.0	5.887566	3.301981	7.470587	0.002567	0.005407	-0.017305	-0.476318	-0.108154	-0.101563
660.0	5.87505	3.297408	7.438829	0.002226	0.007197	-0.017338	-0.474121	-0.10376	-0.099365
661.0	5.864663	3.295855	7.461581	0.002718	0.006976	-0.019485	-0.48291	-0.105957	-0.101563
662.0	5.872848	3.29995	7.439441	0.002568	0.005404	-0.017305	-0.480469	-0.110352	-0.094482
663.0	5.862627	3.323886	7.43897	0.001246	0.010227	-0.020846	-0.473877	-0.112305	-0.101318
664.0	5.861112	3.299632	7.462702	0.003014	0.007519	-0.016044	-0.478271	-0.110352	-0.096924
665.0	5.899114	3.314918	7.42802	-0.003381	0.009574	-0.019585	-0.480713	-0.105957	-0.101563
666.0	5.888648	3.313057	7.450962	0.001735	0.00741	-0.015193	-0.476318	-0.105957	-0.096924
667.0	5.855453	3.299549	7.409686	-0.0024	0.006539	-0.016078	-0.480469	-0.108154	-0.099121
668.0	5.886642	3.340346	7.42865	-0.001313	0.010005	-0.019144	-0.478516	-0.10376	-0.101563
669.0	5.864448	3.307052	7.442913	-0.00481	0.007891	-0.016555	-0.478271	-0.108154	-0.10376
670.0	5.881841	3.313332	7.398716	-0.00481	0.00789	-0.016555	-0.471924	-0.10376	-0.099365
671.0	5.871546	3.336816	7.398473	-0.001312	0.010001	-0.019144	-0.476318	-0.108154	-0.096924
672.0	5.87913	3.289407	7.423267	-0.00609	0.007779	-0.015704	-0.473877	-0.112305	-0.094482
673.0	5.88057	3.318575	7.454884	-0.00043	0.003062	-0.016866	-0.476318	-0.105957	-0.101563
674.0	5.849808	3.333599	7.444713	-0.000968	0.008209	-0.019112	-0.476318	-0.108154	-0.101563
675.0	5.876138	3.317751	7.401266	0.000313	0.008315	-0.019964	-0.47168	-0.112305	-0.099121
676.0	5.884024	3.296161	7.402594	-0.001904	0.006308	-0.018228	-0.478516	-0.105957	-0.099121
677.0	5.875975	3.322677	7.45668	-0.001461	0.008425	-0.016966	-0.476318	-0.108154	-0.099121
678.0	5.875064	3.349014	7.433911	-0.003183	0.006198	-0.017377	-0.480469	-0.108154	-0.10376
679.0	5.844044	3.338178	7.447187	-0.00245	0.008864	-0.012673	-0.474121	-0.105957	-0.10376
680.0	5.890887	3.305029	7.436904	-0.004217	0.011562	-0.017477	-0.478271	-0.108154	-0.096924
681.0	5.878222	3.299819	7.405574	-0.006088	0.007766	-0.015708	-0.474121	-0.105957	-0.099121
682.0	5.858614	3.320124	7.427858	-0.005497	0.011451	-0.016626	-0.478271	-0.108154	-0.092285
683.0	5.857354	3.320705	7.428592	-0.004021	0.008202	-0.015265	-0.476318	-0.10376	-0.099365
684.0	5.87685	3.329895	7.438961	-0.006432	0.009551	-0.015743	-0.476074	-0.110107	-0.101318
685.0	5.855082	3.321692	7.429942	-0.005741	0.005973	-0.015677	-0.476074	-0.110107	-0.099121
686.0	5.863089	3.299512	7.431465	-0.005647	0.009878	-0.014447	-0.480713	-0.105957	-0.096924
687.0	5.88274	3.334249	7.418586	-0.007161	0.006879	-0.020449	-0.478027	-0.114502	-0.099121
688.0	5.85174	3.323193	7.431903	-0.006236	0.00619	-0.013531	-0.484863	-0.108154	-0.096924
689.0	5.871431	3.332129	7.442239	-0.008648	0.007538	-0.014009	-0.476318	-0.108154	-0.101563
690.0	5.858686	3.30111	7.434227	-0.006778	0.011332	-0.015777	-0.476318	-0.108154	-0.101563
691.0	5.878242	3.335676	7.421509	-0.007712	0.009433	-0.014894	-0.476318	-0.108154	-0.101563
692.0	5.846994	3.324533	7.435038	-0.005496	0.011439	-0.016629	-0.482666	-0.108154	-0.094727
693.0	5.864094	3.305243	7.41435	-0.009281	0.00877	-0.017487	-0.480469	-0.108154	-0.105957
694.0	5.86509	3.334009	7.446396	-0.009281	0.008768	-0.017488	-0.476318	-0.10376	-0.101563
695.0	5.822676	3.316804	7.427789	-0.010711	0.007089	-0.014457	-0.478271	-0.108154	-0.094727
696.0	5.871986	3.311759	7.448849	-0.008496	0.009096	-0.016192	-0.478271	-0.110352	-0.099121
697.0	5.861673	3.334556	7.448842	-0.011058	0.008874	-0.014491	-0.476318	-0.108154	-0.096924
698.0	5.858274	3.306143	7.418548	-0.01062	0.010991	-0.013227	-0.474121	-0.105957	-0.099121
699.0	5.847773	3.303237	7.44187	-0.011057	0.008871	-0.014492	-0.476318	-0.10376	-0.099365
700.0	5.885856	3.317888	7.407694	-0.010559	0.00865	-0.016639	-0.480713	-0.105957	-0.099121
701.0	5.866167	3.337688	7.430154	-0.011404	0.010655	-0.014525	-0.476318	-0.105957	-0.101563
702.0	5.85347	3.306383	7.422233	-0.01184	0.008536	-0.01579	-0.478516	-0.105957	-0.105957
703.0	5.872939	3.314959	7.432934	-0.012399	0.011092	-0.010231	-0.478516	-0.10376	-0.106201
704.0	5.842043	3.328807	7.42326	-0.01021	0.006858	-0.016609	-0.476318	-0.108154	-0.094727
705.0	5.849988	3.30616	7.425077	-0.015881	0.011551	-0.015453	-0.480713	-0.10376	-0.096924
706.0	5.887799	3.294938	7.41442	-0.014749	0.010094	-0.014124	-0.480469	-0.112305	-0.10376
707.0	5.86825	3.339899	7.41382	-0.014749	0.010092	-0.014124	-0.48291	-0.105957	-0.10376
708.0	5.855357	3.28279	7.429246	-0.013032	0.01232	-0.013709	-0.476074	-0.110107	-0.101318
709.0	5.856249	3.336577	7.438472	-0.013814	0.011987	-0.015007	-0.474121	-0.10791	-0.10376
710.0	5.884713	3.322613	7.450135	-0.010618	0.010974	-0.01323	-0.473877	-0.110107	-0.105957
711.0	5.842241	3.330591	7.408599	-0.017793	0.012662	-0.018083	-0.478516	-0.105957	-0.10376
712.0	5.879855	3.293773	7.421238	-0.016028	0.00997	-0.013278	-0.476318	-0.105957	-0.10376
713.0	5.880727	3.32187	7.453613	-0.013464	0.010194	-0.014977	-0.480713	-0.105957	-0.108398
714.0	5.868134	3.290414	7.44566	-0.012332	0.008738	-0.013648	-0.474121	-0.105957	-0.096924
715.0	5.876397	3.318768	7.401169	-0.014312	0.012195	-0.012862	-0.476318	-0.108154	-0.096924
716.0	5.865817	3.315655	7.42457	-0.011832	0.008517	-0.015797	-0.473877	-0.110352	-0.092285
717.0	5.864549	3.29003	7.448653	-0.012331	0.008734	-0.01365	-0.476318	-0.105957	-0.101563
718.0	5.863413	3.290057	7.449535	-0.009767	0.00896	-0.015348	-0.476318	-0.10376	-0.101563
719.0	5.882941	3.324704	7.436949	-0.006421	0.009519	-0.015748	-0.478516	-0.105957	-0.099121
720.0	5.872487	3.32189	7.460097	-0.012763	0.006612	-0.014919	-0.478271	-0.112549	-0.094482
721.0	5.860279	3.290828	7.451661	-0.001394	0.003487	-0.012578	-0.478271	-0.108154	-0.094727
722.0	5.878062	3.271953	7.430417	-0.002026	0.004721	-0.016055	-0.478516	-0.10376	-0.10376
723.0	5.858814	3.317997	7.429052	0.00117	0.003714	-0.014276	-0.476318	-0.108154	-0.10376
724.0	5.858065	3.31892	7.42923	0.00117	0.003713	-0.014276	-0.474121	-0.108154	-0.092285
725.0	5.857297	3.319916	7.429391	0.002452	0.003827	-0.015125	-0.48291	-0.10376	-0.101563
726.0	5.856565	3.320766	7.429588	-0.001394	0.003483	-0.012579	-0.473877	-0.110107	-0.094482
727.0	5.885713	3.333548	7.417186	0.004235	0.003721	-0.018122	-0.480713	-0.105957	-0.096924
728.0	5.894187	3.311954	7.418161	0.000169	0.004147	-0.009982	-0.478271	-0.108154	-0.099121
729.0	5.902785	3.315658	7.396099	-0.001243	0.005047	-0.014758	-0.478516	-0.105957	-0.096924
730.0	5.86267	3.301558	7.431368	-0.002525	0.004932	-0.01391	-0.480469	-0.112549	-0.096924
731.0	5.852676	3.32477	7.430862	-0.001393	0.00348	-0.01258	-0.480713	-0.105957	-0.099121
732.0	5.872332	3.308557	7.464186	-0.002095	0.007048	-0.012642	-0.476318	-0.108154	-0.101563
733.0	5.880834	3.31204	7.442301	-0.005089	0.0047	-0.012213	-0.480957	-0.101563	-0.101563
734.0	5.880169	3.337991	7.419584	-0.00587	0.004366	-0.013512	-0.478516	-0.105957	-0.101563
735.0	5.867876	3.307015	7.41121	-0.004861	0.010167	-0.013155	-0.478271	-0.112305	-0.099121
736.0	5.887487	3.316105	7.421627	-0.00637	0.004583	-0.011365	-0.476318	-0.10791	-0.105957
737.0	5.877418	3.313509	7.444345	-0.002953	0.00281	-0.015179	-0.478271	-0.108154	-0.101563
738.0	5.885927	3.317191	7.422379	-0.003656	0.006377	-0.015241	-0.478271	-0.110352	-0.099121
739.0	5.884948	3.292442	7.445862	0.001675	0.003487	-0.016426	-0.478516	-0.105957	-0.096924
740.0	5.845008	3.329727	7.434676	-0.002022	0.004706	-0.016059	-0.478516	-0.10376	-0.099365
741.0	5.892482	3.297405	7.424107	0.003034	0.007503	-0.016037	-0.480469	-0.108154	-0.10376
742.0	5.902681	3.355595	7.410311	0.005526	0.01007	-0.014319	-0.476318	-0.108154	-0.094727
743.0	5.90127	3.382805	7.387607	0.016065	0.017784	-0.013006	-0.478271	-0.108154	-0.099121
744.0	5.910313	3.33873	7.467048	0.000922	0.02444	-0.011574	-0.473877	-0.112305	-0.096924
745.0	5.894821	3.306211	7.40478	0.024264	0.030731	-0.010937	-0.476318	-0.105957	-0.096924
746.0	5.964881	3.365725	7.444712	0.008116	0.037822	-0.005216	-0.476318	-0.108154	-0.094727
747.0	6.048603	3.400757	7.355138	0.050418	0.076465	0.002515	-0.478516	-0.105957	-0.10376
748.0	5.997447	3.494761	7.431819	0.061063	0.09685	0.0019	-0.480957	-0.101563	-0.10376
749.0	5.976025	3.120849	7.379804	0.034744	0.110695	-0.009059	-0.478516	-0.105957	-0.105957
750.0	5.888016	3.236369	7.632234	0.098361	0.102619	-0.030461	-0.474121	-0.10791	-0.101563
751.0	6.024565	3.219301	7.478826	0.084086	0.079708	-0.041957	-0.478516	-0.10376	-0.106201
752.0	5.96553	3.424864	7.591905	0.112166	0.091693	-0.058157	-0.469727	-0.105713	-0.101563
753.0	6.101169	3.183525	7.702575	0.078976	0.086428	-0.076728	-0.476074	-0.110107	-0.10376
754.0	6.368658	3.111559	7.330387	0.176962	0.107983	-0.102361	-0.47168	-0.110107	-0.110596
755.0	6.192254	3.472911	7.601338	0.156331	0.135495	-0.126601	-0.476074	-0.112305	-0.110596
756.0	5.837352	3.185398	7.500118	0.108312	0.146056	-0.143657	-0.47168	-0.112305	-0.105957
757.0	5.643035	3.413856	7.31983	0.227795	0.168781	-0.149896	-0.473877	-0.112305	-0.110596
758.0	5.536592	4.076608	7.578193	0.197154	0.157741	-0.123087	-0.467285	-0.114502	-0.105957
759.0	5.523995	4.050127	7.255275	0.109475	0.162499	-0.08257	-0.465088	-0.110107	-0.112793
760.0	5.397648	4.008225	7.178077	0.072507	0.156596	-0.052512	-0.467041	-0.116699	-0.112793
761.0	5.323703	3.858343	7.272581	-0.028107	0.128591	-0.030112	-0.467285	-0.112305	-0.11499
762.0	5.578728	3.599296	7.337913	-0.081635	0.099795	-0.021028	-0.467285	-0.112305	-0.117432
763.0	5.658316	3.424628	7.443597	-0.094399	0.080874	-0.032091	-0.464844	-0.116699	-0.11499
764.0	5.778828	3.243427	7.592005	-0.084588	0.067897	-0.043678	-0.467529	-0.10791	-0.117432
765.0	6.118611	3.101844	7.679703	-0.037195	0.07114	-0.066906	-0.465088	-0.112305	-0.117432
766.0	6.356177	2.924855	7.770268	0.027572	0.083816	-0.121061	-0.465088	-0.112305	-0.11499
767.0	5.963492	2.827804	7.752301	0.10089	0.111922	-0.157235	-0.458496	-0.116699	-0.119629
768.0	5.763531	3.004267	7.69084	0.185967	0.090177	-0.18372	-0.467285	-0.112305	-0.117432
769.0	5.76157	3.088456	7.674757	0.22572	0.083329	-0.213386	-0.462646	-0.116699	-0.121826
770.0	5.589068	3.10323	7.651561	0.277518	0.067381	-0.232595	-0.460449	-0.121094	-0.119385
771.0	5.566035	3.079088	7.606266	0.332616	0.05813	-0.247602	-0.456055	-0.12085	-0.124023
772.0	5.314918	3.138355	7.466276	0.377047	0.041005	-0.252709	-0.460205	-0.125244	-0.121582
773.0	5.315933	3.451959	7.410889	0.455357	0.016571	-0.250304	-0.457764	-0.129639	-0.123779
774.0	5.476858	3.662349	7.490802	0.429863	-0.001851	-0.249694	-0.45752	-0.134033	-0.121582
775.0	5.278812	3.477436	7.364723	0.394892	-0.019085	-0.243206	-0.45752	-0.134033	-0.125977
776.0	5.062193	3.656412	7.215764	0.472348	-0.028188	-0.226188	-0.459717	-0.134033	-0.116943
777.0	5.094476	4.2489	7.108692	0.497441	-0.053237	-0.191547	-0.461914	-0.13623	-0.116943
778.0	5.170983	4.442341	7.191824	0.352801	-0.070431	-0.144728	-0.455078	-0.140625	-0.119141
779.0	5.1223	4.273078	7.052718	0.24824	-0.09057	-0.09669	-0.46167	-0.140625	-0.116699
780.0	5.375703	4.285654	7.146799	0.230569	-0.10219	-0.061026	-0.455322	-0.138428	-0.114502
781.0	5.24238	4.260378	7.094038	0.16328	-0.117643	-0.016984	-0.459473	-0.142822	-0.114502
782.0	5.101414	4.328534	7.021162	0.109251	-0.13914	0.040256	-0.463623	-0.14502	-0.112061
783.0	5.15407	4.513421	7.044145	0.038585	-0.160914	0.112015	-0.461426	-0.14502	-0.109863
784.0	5.172051	4.692421	7.025204	-0.047729	-0.189055	0.195121	-0.459473	-0.138428	-0.110107
785.0	5.167364	4.988254	7.060523	-0.118863	-0.22699	0.281526	-0.463623	-0.142822	-0.112305
786.0	5.226849	4.93499	7.278904	-0.293802	-0.291239	0.421234	-0.466309	-0.13208	-0.101074
787.0	4.996187	4.817325	7.313122	-0.354682	-0.341431	0.599783	-0.468994	-0.125488	-0.10791
788.0	5.009152	5.050531	7.5553	-0.351127	-0.464039	0.81634	-0.473389	-0.121094	-0.103516
789.0	5.430642	4.845712	8.155142	-0.488625	-0.589941	1.068634	-0.482666	-0.112549	-0.10376
790.0	5.660321	4.373854	8.239229	-0.471784	-0.653869	1.349842	-0.483154	-0.101563	-0.099365
791.0	5.923686	4.818622	8.644204	-0.348141	-0.718733	1.528114	-0.48584	-0.088379	-0.097168
792.0	5.356804	4.710819	8.464466	-0.259785	-0.836202	1.535519	-0.492676	-0.082031	-0.088379
793.0	6.31557	3.804695	9.114574	0.102195	-0.915071	1.723637	-0.501953	-0.071045	-0.09082
794.0	6.175368	6.247384	8.791446	0.731572	-0.948466	1.908023	-0.504395	-0.060303	-0.077393
795.0	5.38884	6.625248	9.933043	-0.046597	-1.017941	2.052893	-0.511475	-0.049316	-0.075195
796.0	4.325135	7.746686	10.541383	0.100452	-0.913207	2.08189	-0.514404	-0.03418	-0.071045
797.0	2.735455	10.309813	11.583746	-0.014725	-0.652015	1.897351	-0.52124	-0.027588	-0.06665
798.0	1.91587	10.842924	12.292102	-0.59541	-0.448829	1.548511	-0.523926	-0.019043	-0.071289
799.0	-0.602846	9.790749	10.576406	-0.409462	-0.277571	0.966319	-0.526367	-0.010254	-0.064697
800.0	-1.969084	10.437083	10.286556	-0.063082	-0.347765	0.424578	-0.532715	-0.014648	-0.069092
801.0	-1.894798	9.585246	10.642463	-0.282321	-0.417836	-0.048165	-0.532471	-0.02124	-0.071289
802.0	-1.87131	8.367485	10.976875	-0.089096	-0.33583	-0.47338	-0.536377	-0.032227	-0.071045
803.0	-1.692661	7.669974	11.687569	0.013464	-0.194967	-0.796821	-0.540283	-0.038574	-0.084473
804.0	-1.216868	6.194057	12.280111	-0.064743	0.022562	-1.01407	-0.542236	-0.047363	-0.102539
805.0	-0.938822	4.487931	12.43461	0.063745	0.297386	-1.165817	-0.537109	-0.060303	-0.11377
806.0	-0.553688	3.34495	12.520296	0.282609	0.542286	-1.245777	-0.529785	-0.082031	-0.133789
807.0	0.428016	3.160223	12.84028	0.412632	0.82191	-1.246589	-0.518066	-0.097168	-0.167725
808.0	1.323782	3.063429	13.113996	0.309269	1.113752	-1.196706	-0.493164	-0.116699	-0.197021
809.0	2.022398	2.69372	12.928231	0.186793	1.420105	-1.127074	-0.464111	-0.133789	-0.226318
810.0	2.424771	2.652307	12.34943	0.189989	1.668511	-1.062704	-0.423828	-0.157471	-0.26001
811.0	2.92613	3.089275	11.732824	0.190808	1.840108	-1.044017	-0.377197	-0.174561	-0.293945
812.0	3.332292	3.605295	11.161739	0.117192	1.948725	-1.049837	-0.322266	-0.185059	-0.309814
813.0	3.521221	3.606811	10.427592	-0.017725	1.974405	-1.05834	-0.256348	-0.195557	-0.334717
814.0	3.642961	3.464671	9.73335	-0.100447	1.911455	-1.047311	-0.184082	-0.20166	-0.336914
815.0	3.681631	3.401778	9.048885	-0.221208	1.765983	-0.988874	-0.112061	-0.203369	-0.33252
816.0	4.345302	3.219937	9.199803	-0.383894	1.560133	-0.886516	-0.046875	-0.198486	-0.319092
817.0	6.150491	3.022685	9.956868	-0.379025	1.448364	-0.85194	0.018066	-0.189453	-0.310059
818.0	6.58803	3.061843	9.888419	-0.287015	1.509224	-0.913135	0.086914	-0.169434	-0.281006
819.0	5.959088	2.929946	9.046073	-0.328996	1.474282	-0.928889	0.156006	-0.149414	-0.247314
820.0	5.991528	2.436743	8.611639	-0.390103	1.325099	-0.905738	0.213623	-0.12085	-0.20459
821.0	6.993001	2.372005	8.784654	-0.314272	1.213718	-0.872395	0.268799	-0.090088	-0.155029
822.0	8.944754	2.318599	9.81664	-0.184386	1.268254	-0.910534	0.321777	-0.052734	-0.094482
823.0	8.407783	1.742508	8.670493	0.0146	1.509462	-1.044464	0.359375	-0.015625	-0.024414
824.0	7.096315	1.733187	7.379997	0.192438	1.525972	-1.026055	0.37915	0.028076	0.052002
825.0	7.089437	1.170174	6.796489	0.076195	1.386304	-0.911499	0.385986	0.07373	0.126465
826.0	7.645284	0.900965	6.533215	0.197318	1.32078	-0.792926	0.377441	0.11499	0.196289
827.0	7.78787	1.166904	6.621271	0.222871	1.302567	-0.679859	0.347656	0.151611	0.266113
828.0	7.78032	0.924228	6.298192	0.153441	1.282395	-0.587674	0.313477	0.181885	0.324951
829.0	7.488928	0.809106	5.718341	0.16739	1.237817	-0.519459	0.270752	0.209717	0.37915
830.0	7.33089	0.843431	5.08687	0.145076	1.112722	-0.449011	0.224121	0.231201	0.424316
831.0	7.60101	0.897591	4.542755	0.049685	0.945206	-0.387357	0.170898	0.248291	0.458252
832.0	7.778437	0.776699	3.996503	-0.055803	0.774262	-0.32193	0.120605	0.252197	0.490234
833.0	8.066644	0.702131	3.461872	-0.099483	0.59005	-0.266703	0.072021	0.264893	0.508057
834.0	8.461578	0.962174	2.965982	-0.079367	0.401428	-0.21357	0.028076	0.27124	0.528564
835.0	8.811985	1.234029	2.384381	-0.161756	0.182863	-0.185427	-0.015381	0.270752	0.542236
836.0	9.22712	1.128189	1.845776	-0.329519	-0.071532	-0.182421	-0.054932	0.2771	0.562744
837.0	9.68515	0.999477	1.34062	-0.391966	-0.333676	-0.165393	-0.083496	0.279053	0.56958
838.0	10.249234	0.925766	1.093001	-0.482281	-0.599386	-0.125282	-0.114014	0.278809	0.585693
839.0	10.973311	0.767406	0.98313	-0.533753	-0.826407	-0.045539	-0.135742	0.278564	0.596924
840.0	11.533937	0.524227	1.068833	-0.505759	-1.01001	0.073323	-0.161865	0.27832	0.626709
841.0	11.365061	-2.753694	-0.136084	-0.751002	-1.442413	0.478532	-0.168457	0.280518	0.644775
842.0	14.820746	-1.353342	-4.579265	1.249928	-1.939614	0.699453	-0.174072	0.306641	0.674072
843.0	10.036231	6.702875	3.831613	2.194716	-1.775203	0.728625	-0.173096	0.334961	0.696289
844.0	5.16423	13.315114	17.146301	0.745316	-1.814234	1.120134	-0.173584	0.345703	0.721191
845.0	-1.832629	7.914497	9.565527	-0.906523	-1.842142	1.174926	-0.178467	0.354492	0.746094
846.0	10.20056	6.958093	9.477667	0.284511	-3.328213	1.105983	-0.172607	0.374023	0.766113
847.0	19.382182	8.600192	13.425179	0.084664	-2.134024	0.551815	-0.170898	0.380615	0.781982
848.0	7.061109	3.172792	9.912382	-1.267364	-1.347625	0.457274	-0.170654	0.378418	0.80249
849.0	2.910086	-1.968293	8.35739	-1.133094	-1.393451	0.567121	-0.168457	0.378418	0.816162
850.0	3.000103	-1.29219	5.902832	0.605445	-1.617843	0.352426	-0.17334	0.391357	0.838623
851.0	6.623477	3.707597	7.71677	0.990225	-1.924034	0.069253	-0.171875	0.406494	0.852051
852.0	7.628946	5.88443	7.923172	0.360462	-1.911398	-0.040402	-0.165527	0.410889	0.872559
853.0	17.487353	8.960554	14.643711	-0.233219	-1.232182	0.067263	-0.165527	0.410889	0.890625
854.0	10.801846	5.252827	5.72576	-1.152527	-0.11678	0.1658	-0.171631	0.397705	0.897949
855.0	7.33901	3.13957	10.052829	-0.776223	-0.428243	0.181225	-0.169189	0.393311	0.904785
856.0	7.380939	1.522811	6.535326	-0.467475	-0.140129	0.084962	-0.165039	0.397705	0.904541
857.0	6.587149	4.477669	8.376391	0.383222	-0.168309	-0.000407	-0.164795	0.395508	0.906982
858.0	6.442071	4.054552	7.740011	-0.39263	-0.183612	0.028774	-0.164795	0.395508	0.916016
859.0	6.245347	2.743256	7.490422	-0.172918	-0.133098	0.004163	-0.166992	0.395508	0.916016
860.0	6.032821	3.319695	7.78002	0.032716	-0.120034	-0.031593	-0.166992	0.393311	0.91626
861.0	5.769926	3.29916	7.624271	-0.049434	-0.113447	-0.045404	-0.162598	0.395508	0.920654
862.0	5.727178	3.24902	7.588594	-0.0049	-0.110473	-0.050021	-0.164795	0.393311	0.92749
863.0	5.773085	3.350869	7.588418	-0.000659	-0.122585	-0.061941	-0.166992	0.393311	0.925293
864.0	5.720101	3.325441	7.550915	-0.009846	-0.117818	-0.066125	-0.162598	0.391113	0.929932
865.0	5.756045	3.368529	7.508965	0.008593	-0.131865	-0.073821	-0.166992	0.391113	0.929932
866.0	5.761008	3.560771	7.504605	0.009577	-0.127088	-0.067806	-0.162598	0.393311	0.934326
867.0	5.754401	3.770958	7.445969	-0.022512	-0.117427	-0.045191	-0.168945	0.388916	0.93457
868.0	5.858925	3.838892	7.359863	-0.070244	-0.113947	-0.017172	-0.164551	0.388916	0.93457
869.0	5.8648	3.885502	7.310801	-0.076337	-0.096532	0.008096	-0.168945	0.391113	0.932129
870.0	5.766266	3.749751	7.403995	-0.115777	-0.077821	0.039646	-0.168457	0.380127	0.943848
871.0	5.756703	3.596741	7.453531	-0.127025	-0.071759	0.05886	-0.166504	0.382324	0.946045
872.0	5.815962	3.418988	7.447838	-0.124784	-0.065464	0.073129	-0.157471	0.37793	0.950684
873.0	5.816989	3.215819	7.520887	-0.131195	-0.055946	0.072044	-0.168213	0.373535	0.943848
874.0	5.747266	2.954148	7.553051	-0.091891	-0.06161	0.053291	-0.169922	0.362549	0.959961
875.0	5.781109	3.093902	7.534931	-0.029194	-0.05974	0.038825	-0.16748	0.356201	0.969238
876.0	5.634594	3.450584	7.556725	-0.007515	-0.071706	0.039717	-0.147217	0.34082	0.971924
877.0	5.72744	3.672457	7.46669	-0.01778	-0.085789	0.059539	-0.122559	0.325928	0.969727
878.0	5.733601	3.770257	7.371744	-0.034858	-0.097502	0.092654	-0.066162	0.334961	0.951416
879.0	5.784576	3.913221	7.383299	-0.040675	-0.104455	0.141955	-0.030029	0.405273	0.904297
880.0	5.792648	3.761792	7.460841	-0.115749	-0.116003	0.197466	-0.04541	0.505615	0.868164
881.0	5.878884	3.529606	7.39644	-0.116857	-0.135458	0.232531	-0.133301	0.563965	0.869385
882.0	5.891144	3.424877	7.481886	-0.111939	-0.155161	0.245136	-0.19043	0.528564	0.908936
883.0	5.92065	3.111245	7.428339	-0.106573	-0.192059	0.241318	-0.205566	0.476074	0.926025
884.0	5.937387	2.984078	7.530205	-0.028705	-0.233143	0.219017	-0.197266	0.43457	0.935791
885.0	5.952477	2.940458	7.505094	0.0297	-0.284612	0.192055	-0.189697	0.415039	0.943115
886.0	6.052842	3.15248	7.497871	0.094163	-0.331158	0.178883	-0.171875	0.404053	0.938721
887.0	6.00514	3.274196	7.462959	0.10319	-0.361715	0.177125	-0.165039	0.399902	0.931885
888.0	6.047939	3.381276	7.377931	0.121346	-0.40554	0.187957	-0.164795	0.391113	0.932129
889.0	6.066498	3.344271	7.546841	0.114947	-0.454126	0.202475	-0.162598	0.391113	0.932129
890.0	6.118075	3.184284	7.517685	0.123804	-0.515996	0.221784	-0.153809	0.391113	0.92749
891.0	5.999636	3.3488	7.626698	0.168084	-0.592624	0.247509	-0.140625	0.391357	0.92749
892.0	6.003986	3.401651	7.6498	0.158568	-0.703825	0.296959	-0.14502	0.38916	0.92749
893.0	5.984716	3.385409	7.483586	0.224906	-0.839554	0.350983	-0.138428	0.38916	0.920654
894.0	5.929734	3.511245	7.754606	0.335582	-1.014428	0.424734	-0.131836	0.38916	0.918457
895.0	6.061634	3.468546	7.78465	0.329105	-1.220745	0.499513	-0.123291	0.38916	0.913818
896.0	6.062136	3.021048	7.669475	0.381925	-1.424894	0.52634	-0.110107	0.389404	0.909424
897.0	6.059788	2.835848	7.908189	0.507164	-1.640798	0.530674	-0.108398	0.398193	0.911377
898.0	6.058237	2.89038	8.0261	0.609136	-1.873661	0.521389	-0.093018	0.398193	0.902344
899.0	6.112002	3.125725	8.002809	0.720785	-2.114602	0.525119	-0.084229	0.398193	0.897705
900.0	6.183316	3.469594	7.943345	0.773367	-2.364549	0.552971	-0.069092	0.398438	0.890869
901.0	6.23022	3.77068	7.81881	0.871565	-2.664636	0.646723	-0.056152	0.400635	0.888428
902.0	6.189607	3.820513	7.775161	0.981709	-2.987908	0.789409	-0.039063	0.409424	0.876953
903.0	6.064403	4.109224	8.058748	1.070144	-3.345485	0.986597	-0.028076	0.407471	0.872314
904.0	6.002446	4.569177	8.686811	0.922019	-3.70115	1.219536	-0.008545	0.409668	0.870117
905.0	5.728146	5.727583	9.171574	0.540691	-4.033364	1.523702	0.009033	0.405518	0.863281
906.0	5.291825	6.860384	9.717133	-0.453092	-4.292375	1.8563	0.025146	0.385986	0.861328
907.0	3.604622	6.59852	9.283488	-1.804479	-4.963421	2.119124	0.043701	0.362061	0.859619
908.0	2.972505	4.300301	7.593592	-2.726875	-6.462214	2.222889	0.067383	0.322998	0.864746
909.0	4.505545	-0.000434	4.187084	-1.736799	-8.103254	2.222541	0.10498	0.310059	0.860596
910.0	13.019672	2.040922	4.573688	1.5168	-9.273631	2.196509	0.152832	0.314697	0.855713
911.0	31.007012	12.932402	11.206782	2.914323	-8.671185	2.693345	0.185059	0.32373	0.8396
912.0	27.263076	8.100251	9.024893	0.265361	-7.7461	3.7337	0.205566	0.306396	0.819336
913.0	22.051759	3.877202	7.883793	1.656354	-7.371682	3.846245	0.218262	0.313232	0.805664
914.0	19.967388	12.581182	11.5508	4.370799	-6.802506	4.341667	0.233398	0.317627	0.775879
915.0	18.686639	15.242298	13.66905	1.878577	-6.888414	5.018437	0.231201	0.31543	0.755371
916.0	19.251496	12.661166	14.682741	1.206514	-6.576853	4.793735	0.235596	0.313477	0.744141
917.0	17.312442	9.22205	20.06744	1.416954	-4.909418	4.29764	0.220215	0.319824	0.734863
918.0	22.548913	-0.590844	25.720801	0.681197	-2.046073	4.183992	0.187256	0.321777	0.734863
919.0	18.353899	8.908196	22.431355	5.008321	1.580366	2.830379	0.137695	0.356445	0.718262
920.0	9.779814	19.108999	20.333825	4.931646	3.860627	1.808647	0.075684	0.37793	0.70874
921.0	-1.291431	17.042364	12.253655	1.250662	3.934048	1.364084	0.024902	0.392822	0.703857
922.0	-2.365911	11.85612	8.736413	-0.597282	3.183763	1.064526	-0.020752	0.388184	0.699463
923.0	-0.626454	8.080401	7.947636	-0.75965	2.987842	0.566396	-0.069092	0.396729	0.687988
924.0	0.890035	6.40941	8.125774	-0.458994	3.03674	-0.120546	-0.10791	0.389893	0.676758
925.0	1.986094	5.613998	8.325098	-0.216563	3.366299	-0.843437	-0.145264	0.394043	0.660889
926.0	2.028739	5.406407	8.153135	0.090348	3.790579	-1.44457	-0.190918	0.391602	0.64502
927.0	1.893889	4.95962	8.031671	0.024108	4.120963	-1.852327	-0.236572	0.387207	0.620117
928.0	2.001439	3.444309	7.857984	-0.088346	4.383116	-2.097735	-0.275391	0.375977	0.59082
929.0	2.703116	1.040814	8.02658	-0.008054	4.604816	-2.196591	-0.31665	0.375732	0.554199
930.0	4.533566	-1.579012	7.950581	0.51921	4.948519	-2.15964	-0.351318	0.366943	0.520264
931.0	6.013261	-2.719617	7.701969	1.601338	5.51388	-2.058201	-0.383789	0.360352	0.46582
932.0	6.691569	-2.264496	7.700965	2.519257	5.984856	-1.822199	-0.40918	0.342773	0.402344
933.0	7.615014	-2.558165	6.886145	2.956922	6.222883	-1.517029	-0.415039	0.332031	0.352539
934.0	9.443193	-1.727816	6.266143	3.664309	6.402905	-1.266226	-0.418213	0.303711	0.305176
935.0	10.96437	0.61271	6.269053	4.005131	6.517334	-1.212703	-0.437012	0.286377	0.27124
936.0	11.234857	1.946198	6.219598	3.660245	6.465349	-1.368978	-0.443359	0.277588	0.241943
937.0	11.395107	1.108946	5.925569	3.222827	6.052507	-1.712239	-0.458252	0.273193	0.203125
938.0	13.827273	0.888862	5.764303	3.263961	5.578206	-2.187143	-0.46875	0.260254	0.164795
939.0	15.401961	4.201194	6.22412	3.464403	5.280993	-2.749869	-0.476807	0.249268	0.126221
940.0	14.870007	7.508698	7.514123	2.509486	4.883841	-3.2907	-0.477783	0.218994	0.074463
941.0	14.735021	5.969221	8.3312	0.818695	4.295158	-3.726666	-0.476563	0.195068	0.036133
942.0	15.81815	2.549038	9.217739	0.598027	3.871341	-4.158227	-0.470947	0.162354	0.004883
943.0	17.026787	2.775607	10.739936	1.368291	3.750968	-4.517553	-0.456299	0.129883	-0.02417
944.0	17.92727	4.476193	12.082448	1.383334	3.728996	-4.689047	-0.446045	0.092773	-0.052979
945.0	18.420235	4.038892	11.949768	1.01073	3.778656	-4.725449	-0.427002	0.058105	-0.077393
946.0	18.246632	3.219729	11.279781	0.852113	3.817346	-4.728475	-0.399414	0.030029	-0.106445
947.0	18.514371	3.607003	10.409979	0.755019	3.756502	-4.739534	-0.374268	-0.000488	-0.119629
948.0	18.99035	4.385987	9.822179	0.415003	3.591156	-4.824325	-0.344482	-0.028564	-0.123779
949.0	19.43965	0.512023	7.989968	-0.661305	3.079232	-5.074711	-0.31958	-0.050293	-0.118652
950.0	22.02448	3.385812	5.6668	0.3107	2.927201	-5.195868	-0.303467	-0.069824	-0.118408
951.0	19.787912	3.357016	4.806859	-1.334872	2.396995	-4.96254	-0.2854	-0.080566	-0.120361
952.0	27.619141	-9.006919	-1.087195	-3.94668	1.256378	-4.173077	-0.278564	-0.087158	-0.118164
953.0	32.08809	-14.964116	-11.461544	-0.532331	1.757761	-3.311191	-0.27124	-0.104492	-0.113281
954.0	25.679553	-15.425527	-14.59227	2.490451	1.116476	-2.116518	-0.266602	-0.115479	-0.101563
955.0	26.874765	-13.392018	-16.393104	1.934722	-0.336817	-1.493939	-0.268311	-0.12207	-0.092285
956.0	26.109733	-7.003562	-15.038622	1.894767	-0.558999	-1.104348	-0.259277	-0.128418	-0.089844
957.0	23.988309	-1.755745	-8.649514	-0.593585	-1.337856	-0.533066	-0.259766	-0.119873	-0.078613
958.0	23.902346	-8.675848	-8.679765	-4.597563	-2.401642	0.438601	-0.266846	-0.106689	-0.074463
959.0	15.900281	-10.561032	-6.996212	-2.447012	-2.226645	0.368612	-0.269287	-0.100342	-0.063232
960.0	-3.674932	5.910647	24.469755	2.997566	-2.969944	0.558054	-0.271729	-0.095947	-0.044922
961.0	-15.752862	12.79668	31.615566	0.093882	-3.385576	1.746189	-0.294189	-0.078613	-0.033936
962.0	13.862201	-2.217104	-1.868058	-2.017944	-6.021367	2.869392	-0.305908	-0.061279	-0.004639
963.0	34.669093	-8.69626	14.311359	-3.920058	-5.135457	1.296579	-0.306641	-0.046143	0.010986
964.0	17.317741	-6.659671	15.314125	2.761179	-3.367724	0.368944	-0.306641	-0.046143	0.031494
965.0	9.059279	6.898558	9.293825	3.876615	-1.745447	0.028597	-0.308838	-0.046143	0.049805
966.0	-0.067685	11.357915	6.524787	1.4559	-2.584764	0.164147	-0.308838	-0.046387	0.068115
967.0	6.731945	7.363828	8.158135	-1.841121	-3.844603	0.19819	-0.313477	-0.037598	0.090576
968.0	24.985636	5.362632	19.527653	-2.241921	-2.168264	0.385859	-0.313477	-0.039795	0.102051
969.0	20.187575	5.001704	-0.320626	0.623325	-0.371611	-0.170998	-0.313721	-0.0354	0.111084
970.0	3.162421	10.069955	11.895554	1.08865	-0.080404	0.067297	-0.309326	-0.033203	0.11792
971.0	9.929368	6.199267	7.565599	-2.811361	-1.083863	0.58063	-0.313965	-0.03125	0.122559
972.0	7.81076	0.228501	6.543717	-1.181324	-0.217004	0.27574	-0.311768	-0.03125	0.122559
973.0	6.596767	3.672116	7.295587	0.880587	-0.198084	0.097151	-0.314209	-0.024658	0.12915
974.0	6.217628	6.262174	8.510522	-0.02523	-0.118665	0.128332	-0.311768	-0.03125	0.126953
975.0	6.107661	3.106487	7.624482	-0.864684	-0.173131	0.172651	-0.311768	-0.026855	0.124756
976.0	5.890912	2.212444	7.316036	-0.004869	-0.101552	0.074478	-0.311768	-0.029053	0.131592
977.0	5.765973	3.877337	7.958098	0.122393	-0.106906	0.010051	-0.312012	-0.022461	0.126953
978.0	5.604375	3.314565	7.511181	-0.100629	-0.148267	-0.009869	-0.307617	-0.024658	0.12915
979.0	5.613151	3.365099	7.454008	0.101041	-0.155301	-0.045221	-0.312256	-0.020264	0.131348
980.0	5.734924	3.626673	7.493496	0.09137	-0.175537	-0.081634	-0.30957	-0.026855	0.135986
981.0	5.831634	3.694673	7.308751	0.1589	-0.17569	-0.104118	-0.316162	-0.026855	0.135986
982.0	5.756377	4.108119	7.27449	0.199074	-0.164764	-0.107724	-0.315918	-0.03125	0.140625
983.0	5.732312	4.161499	7.221993	0.136258	-0.154192	-0.092109	-0.313721	-0.033447	0.145264
984.0	5.803146	4.069298	7.19679	0.129426	-0.138071	-0.068619	-0.315918	-0.035645	0.149902
985.0	5.764356	4.456983	7.045419	0.166718	-0.111914	-0.039963	-0.319824	-0.042236	0.149902
986.0	5.660424	4.738427	7.017155	0.079487	-0.081795	0.013713	-0.31543	-0.044434	0.15918
987.0	5.611693	4.388265	7.083153	-0.040323	-0.061812	0.077343	-0.317627	-0.044434	0.168213
988.0	5.622514	4.063229	7.181755	-0.042565	-0.043779	0.114351	-0.3125	-0.05957	0.179932
989.0	5.655793	3.901283	7.174874	-0.040688	-0.046957	0.124943	-0.285645	-0.074707	0.184814
990.0	5.561943	3.97796	7.164677	-0.00274	-0.065861	0.12289	-0.239746	-0.081055	0.173584
991.0	5.523272	4.041948	7.307234	-0.020734	-0.09991	0.139281	-0.182861	-0.036865	0.124756
992.0	5.572223	4.11526	7.138454	-0.008106	-0.131168	0.157753	-0.183105	0.065918	0.07251
993.0	5.600792	4.471775	7.200983	0.008443	-0.16416	0.201972	-0.260742	0.145996	0.05957
994.0	5.64393	4.406886	7.142633	-0.089778	-0.196806	0.241894	-0.347168	0.125732	0.098877
995.0	5.65444	4.271418	7.169005	-0.111972	-0.234911	0.282185	-0.366699	0.075439	0.129639
996.0	5.668028	4.217206	7.228537	-0.115824	-0.280581	0.313819	-0.356201	0.036133	0.139404
997.0	5.74956	4.058717	7.326975	-0.127992	-0.340999	0.336744	-0.350586	0.01001	0.139893
998.0	5.848947	3.972083	7.248513	-0.083807	-0.387589	0.35562	-0.336914	-0.005127	0.146973
999.0	5.877249	4.02943	7.36243	-0.084033	-0.437603	0.374133	-0.336914	-0.005127	0.149414
1000.0	5.996453	3.84138	7.29577	-0.067829	-0.507031	0.38337	-0.334473	-0.009521	0.151611
1001.0	6.035472	3.979346	7.380821	0.017203	-0.564726	0.406458	-0.330322	-0.00293	0.151611
1002.0	6.165015	3.714898	7.319973	-0.01913	-0.65256	0.416024	-0.328125	-0.005127	0.151611
1003.0	6.089365	3.518795	7.257471	0.062575	-0.740279	0.408165	-0.332275	-0.009521	0.15625
1004.0	5.850697	3.754498	7.454338	0.137431	-0.844753	0.424244	-0.334717	-0.00293	0.165283
1005.0	5.8046	3.654872	7.390951	0.153051	-1.011196	0.449495	-0.330322	-0.00293	0.158447
1006.0	5.988542	3.501005	7.413201	0.288986	-1.204286	0.465644	-0.332764	-0.000977	0.16748
1007.0	6.146624	3.642029	7.633281	0.390869	-1.417467	0.486634	-0.330322	-0.005127	0.176758
1008.0	6.329664	2.913092	7.430982	0.387825	-1.669554	0.472857	-0.332764	0.001221	0.178711
1009.0	6.081592	2.948205	7.79346	0.808653	-1.962825	0.451502	-0.337158	0.003418	0.185547
1010.0	6.18098	3.581337	7.873969	1.05296	-2.333422	0.463998	-0.328857	0.014404	0.196777
1011.0	6.13031	4.090424	7.832748	1.14477	-2.695082	0.541914	-0.326904	0.016602	0.208008
1012.0	6.079992	4.220474	7.815594	1.24412	-3.073601	0.662553	-0.326904	0.016602	0.221924
1013.0	5.904181	4.277127	7.570191	1.417389	-3.467739	0.836183	-0.325195	0.027344	0.237549
1014.0	5.654521	4.37302	7.765572	1.58573	-3.944934	1.061016	-0.321045	0.033936	0.253418
1015.0	5.324829	4.939376	8.323208	1.643028	-4.516411	1.336816	-0.317139	0.044922	0.271484
1016.0	5.031703	6.485527	8.615014	1.593469	-5.152763	1.730322	-0.311279	0.055664	0.298584
1017.0	5.121142	8.044034	9.092341	1.099682	-5.732312	2.220849	-0.302734	0.064453	0.321045
1018.0	4.782121	8.028648	10.850605	-0.280274	-6.262713	2.649077	-0.292236	0.071045	0.352783
1019.0	5.782466	4.543743	7.335111	-1.358974	-7.245328	2.975041	-0.277344	0.081787	0.379883
1020.0	13.713231	5.863661	4.530988	0.760029	-8.319769	3.155427	-0.258789	0.101563	0.413818
1021.0	29.011501	15.641596	10.761928	2.467459	-8.133623	3.666058	-0.233154	0.116943	0.44751
1022.0	26.151763	7.896262	8.968416	-0.89531	-7.55252	4.415764	-0.214111	0.12793	0.477051
1023.0	22.199953	7.361045	8.074284	2.278533	-7.083807	4.591501	-0.193604	0.158447	0.499268
1024.0	17.944052	14.663369	12.303758	3.287271	-6.860391	5.122104	-0.159912	0.182617	0.526123
1025.0	15.379446	16.072221	13.412608	1.530501	-6.814005	5.642099	-0.132813	0.211182	0.545898
1026.0	17.286415	15.916888	17.299552	0.860024	-6.60506	5.452365	-0.100586	0.222168	0.568359
1027.0	17.88686	10.841019	24.354693	-0.006347	-4.663516	5.022194	-0.083252	0.22876	0.582031
1028.0	26.878506	0.716644	28.521393	-0.504483	-0.862362	4.443143	-0.06665	0.246338	0.581543
1029.0	16.521046	12.440727	26.117644	4.829574	2.780436	2.454701	-0.076416	0.270508	0.55835
1030.0	6.751974	18.10494	19.405411	3.193065	4.850884	1.479858	-0.090088	0.283447	0.546631
1031.0	-3.928136	14.843413	11.245069	0.678559	4.740062	1.114136	-0.09668	0.283447	0.539795
1032.0	-3.507183	11.792253	8.443621	-0.364697	3.998471	0.9339	-0.095947	0.265869	0.538086
1033.0	-0.737356	9.047195	8.307808	-1.049836	3.77419	0.542737	-0.099854	0.255127	0.522217
1034.0	1.187828	6.164716	8.075203	-0.979937	3.941017	-0.108572	-0.090332	0.237793	0.5271
1035.0	1.686191	4.75242	7.813118	-0.295466	4.384153	-0.837492	-0.084961	0.218018	0.522949
1036.0	1.281233	4.631049	7.548579	0.143731	4.660773	-1.41272	-0.077393	0.194092	0.534912
1037.0	1.731274	3.678471	7.165618	0.237556	4.818795	-1.757845	-0.07251	0.183105	0.557861
1038.0	2.81121	2.603743	6.795221	0.473014	5.044081	-1.875599	-0.080566	0.167725	0.580811
1039.0	4.633515	1.748828	7.03918	0.753207	5.310631	-1.793027	-0.104492	0.165283	0.605957
1040.0	6.182419	0.43358	7.111733	1.095021	5.707853	-1.693168	-0.145508	0.154053	0.619873
1041.0	7.348748	-0.94036	6.687025	1.751924	6.068961	-1.588725	-0.190674	0.143066	0.61792
1042.0	8.256356	-1.354855	5.957044	2.591078	6.372378	-1.494119	-0.233154	0.116455	0.602539
1043.0	9.124658	0.259225	5.28311	3.33421	6.479879	-1.400785	-0.269287	0.094482	0.589355
1044.0	10.436168	2.256075	5.175144	3.449305	6.421819	-1.376915	-0.299072	0.076904	0.57373
1045.0	11.613743	3.149311	5.35309	3.178505	6.226812	-1.52366	-0.323242	0.081055	0.553223
1046.0	12.847095	2.053657	5.742523	2.828623	5.883864	-1.87613	-0.341064	0.089844	0.519043
1047.0	15.336528	1.765055	5.347302	3.07099	5.574984	-2.394514	-0.350342	0.105225	0.470703
1048.0	15.588456	5.690833	5.750398	3.357653	5.377648	-2.995334	-0.344971	0.127197	0.422363
1049.0	15.005302	8.629043	6.758456	2.142125	4.89973	-3.493493	-0.342041	0.160156	0.360352
1050.0	15.193987	6.30186	7.572231	0.602312	4.289554	-3.886487	-0.336914	0.190918	0.29126
1051.0	16.572626	3.299512	8.925114	0.645218	3.935504	-4.306828	-0.336182	0.22168	0.210938
1052.0	17.452905	3.648578	10.382905	1.335448	3.852856	-4.666841	-0.319092	0.23291	0.124023
1053.0	17.971772	4.692802	11.227905	1.372607	3.844846	-4.838474	-0.2771	0.220215	0.053711
1054.0	18.042554	3.977424	10.708102	1.111586	3.861008	-4.844232	-0.221436	0.194336	0.026855
1055.0	18.202858	3.559035	10.085403	1.063683	3.853922	-4.772373	-0.168457	0.181641	0.042969
1056.0	18.934367	4.375176	9.2875	0.971656	3.799908	-4.699432	-0.137695	0.177246	0.104492
1057.0	19.404344	4.268065	9.064283	0.469734	3.590377	-4.763254	-0.1604	0.192383	0.170166
1058.0	20.086696	-0.940951	6.312578	-0.470909	3.00291	-5.016908	-0.214844	0.194092	0.227295
1059.0	23.134708	2.645328	5.028859	1.0677	2.772229	-5.15338	-0.300049	0.197754	0.252441
1060.0	21.503471	1.964737	4.54316	-0.842164	2.125203	-4.909499	-0.379639	0.17334	0.250732
1061.0	31.180968	-11.138939	-1.877596	-3.416989	1.078057	-4.092023	-0.447998	0.140137	0.219482
1062.0	31.927739	-16.116631	-13.545944	0.279386	1.558123	-3.249469	-0.492432	0.111572	0.19043
1063.0	27.093704	-16.098763	-16.637436	2.536575	0.214202	-1.986736	-0.524414	0.091797	0.177246
1064.0	29.902383	-12.696532	-18.656652	1.489441	-0.915688	-1.285977	-0.547607	0.074219	0.168457
1065.0	27.641198	-5.748371	-13.691807	0.767652	-0.701519	-0.841117	-0.571289	0.067383	0.166504
1066.0	24.859864	-5.441281	-6.661704	-2.616734	-1.817936	-0.039038	-0.599365	0.062988	0.177979
1067.0	18.600997	-12.589806	-10.440109	-4.396766	-2.50102	0.348695	-0.614746	0.064941	0.193848
1068.0	-3.793091	1.010048	19.356353	1.496227	-2.709526	0.412904	-0.635254	0.082275	0.214111
1069.0	-17.617532	12.053986	38.114184	1.492323	-3.585669	2.100339	-0.661865	0.094971	0.231934
1070.0	16.926673	-0.9907	-1.362887	-1.484413	-6.023516	3.519977	-0.682373	0.114502	0.281738
1071.0	37.439429	-7.958768	13.254668	-5.035694	-4.729339	1.754057	-0.693115	0.112061	0.313721
1072.0	16.796095	-5.899936	16.973189	3.045012	-3.504143	0.730658	-0.711182	0.122803	0.331787
1073.0	10.881761	8.487224	9.250391	3.827595	-1.490927	0.184068	-0.716064	0.138184	0.349854
1074.0	0.816229	11.761134	7.234625	0.873638	-2.393213	0.48192	-0.718262	0.135742	0.377197
1075.0	8.254733	5.81801	8.52608	-2.444355	-3.325907	0.599229	-0.733154	0.12915	0.397949
1076.0	12.628067	1.064496	8.604701	-0.737245	-2.601493	0.3225	-0.730957	0.12915	0.425293
1077.0	20.074813	8.21792	13.784538	1.001114	-0.910457	0.188104	-0.744385	0.133301	0.436523
1078.0	9.900384	9.728618	5.891699	-0.06023	-0.362475	-0.022633	-0.741699	0.126709	0.443359
1079.0	7.214533	6.008147	8.588319	-1.761652	-0.701447	0.220777	-0.737305	0.124512	0.454834
1080.0	8.278241	2.226893	6.741502	-1.214429	-0.605232	0.223822	-0.732666	0.120117	0.459473
1081.0	6.986056	4.745128	7.76763	0.32301	-0.273079	0.120112	-0.737549	0.128906	0.463867
1082.0	6.49995	5.097038	8.361315	-0.586692	-0.33664	0.157114	-0.739502	0.122314	0.473145
1083.0	6.263131	2.485797	7.789115	-0.615205	-0.271856	0.121948	-0.73291	0.122314	0.473145
1084.0	5.837009	2.461153	8.085941	-0.012394	-0.221978	0.017874	-0.737061	0.120117	0.475586
1085.0	5.536313	3.379851	7.864867	0.097602	-0.227507	-0.045072	-0.737305	0.124512	0.47998
1086.0	5.36028	3.54166	7.640569	0.070937	-0.244366	-0.064002	-0.737305	0.124512	0.482178
1087.0	5.630992	3.464216	7.649937	0.10195	-0.283604	-0.095568	-0.735107	0.122314	0.484619
1088.0	5.805153	3.363459	7.579082	0.206582	-0.286552	-0.139727	-0.737305	0.126709	0.486816
1089.0	5.629599	3.85784	7.408128	0.377905	-0.287802	-0.168686	-0.732666	0.120117	0.493652
1090.0	5.715959	4.254695	7.313782	0.352989	-0.305112	-0.17012	-0.737061	0.11792	0.500732
1091.0	5.684364	4.434247	7.087169	0.352723	-0.302145	-0.152255	-0.741455	0.11792	0.507568
1092.0	5.541224	4.974328	6.901289	0.376905	-0.278166	-0.094759	-0.736816	0.113525	0.509766
1093.0	5.615214	5.211804	6.997761	0.238902	-0.272849	-0.014216	-0.74292	0.104736	0.519043
1094.0	5.569572	4.794197	6.930183	0.098219	-0.266036	0.056898	-0.742676	0.098145	0.52832
1095.0	5.657681	4.530013	7.155602	0.081528	-0.251686	0.105409	-0.726807	0.085205	0.5354
1096.0	5.647255	4.231542	7.122335	0.058409	-0.2485	0.134376	-0.693604	0.072266	0.551514
1097.0	5.624187	4.370038	7.096622	0.118731	-0.264815	0.158922	-0.643799	0.079102	0.521729
1098.0	5.657412	4.651142	7.104205	0.099948	-0.295398	0.192519	-0.596924	0.153809	0.467773
1099.0	5.67083	4.790628	7.008734	0.050223	-0.316409	0.247809	-0.636963	0.271484	0.410889
1100.0	5.683302	4.84271	6.958666	-0.015288	-0.33526	0.311088	-0.73877	0.303711	0.435547
1101.0	5.682825	4.88935	7.009985	-0.091684	-0.355956	0.3857	-0.787109	0.259521	0.470459
1102.0	5.825761	4.653096	6.965657	-0.194416	-0.376673	0.451347	-0.781982	0.194092	0.506104
1103.0	5.73319	4.824642	6.807507	-0.207215	-0.379575	0.52755	-0.772461	0.178711	0.515381
1104.0	5.719041	5.30652	6.973318	-0.284945	-0.397323	0.651439	-0.756348	0.161377	0.524902
1105.0	5.828647	5.011004	6.942195	-0.511068	-0.420609	0.76741	-0.751709	0.152588	0.522705
1106.0	6.163646	4.481222	6.929826	-0.559982	-0.447628	0.839892	-0.747314	0.154785	0.522705
1107.0	6.454147	3.815398	6.879548	-0.497018	-0.487801	0.853349	-0.73877	0.159424	0.522705
1108.0	6.34305	3.200754	6.929017	-0.325284	-0.517232	0.84428	-0.730225	0.161621	0.524902
1109.0	6.256131	2.787435	7.099291	-0.040912	-0.578097	0.879272	-0.730713	0.172363	0.526855
1110.0	6.309831	3.37798	7.076441	0.413888	-0.666647	0.943611	-0.731201	0.181152	0.526611
1111.0	6.295475	4.331152	7.574463	0.431407	-0.833845	0.984239	-0.7229	0.189941	0.531006
1112.0	6.496171	3.453937	7.499057	0.143599	-1.104279	0.941071	-0.716553	0.19873	0.540039
1113.0	6.155614	2.550994	7.533269	0.308628	-1.342147	0.834304	-0.7146	0.203125	0.544434
1114.0	5.986449	2.583787	8.309307	0.537462	-1.696964	0.731653	-0.701904	0.209717	0.560303
1115.0	5.995967	2.273895	8.318463	0.617241	-2.084024	0.638408	-0.700195	0.220459	0.564697
1116.0	6.013572	2.689025	8.351707	0.950235	-2.504602	0.580148	-0.682861	0.2229	0.585205
1117.0	6.037399	3.584381	8.32579	1.129828	-2.928312	0.587635	-0.674805	0.23584	0.591553
1118.0	5.877429	3.938701	7.99525	1.205638	-3.378027	0.720431	-0.659424	0.238281	0.612061
1119.0	5.718522	4.336764	8.032542	1.50012	-3.85882	0.952613	-0.642822	0.255615	0.632324
1120.0	5.450586	5.022104	8.457156	1.627849	-4.381276	1.284539	-0.621826	0.273193	0.656982
1121.0	5.131241	6.085471	9.209403	1.372856	-4.953636	1.656454	-0.598389	0.286377	0.681641
1122.0	5.019462	7.894689	9.874701	0.738775	-5.420402	2.106837	-0.572266	0.288574	0.708984
1123.0	4.5739	7.491906	9.90244	-0.912286	-5.991305	2.591478	-0.541992	0.29541	0.74292
1124.0	4.561036	2.833825	4.708823	-1.890766	-7.576177	2.936145	-0.498291	0.291016	0.791016
1125.0	13.990496	5.010099	4.410061	1.4837	-9.10252	3.233111	-0.445313	0.326172	0.831299
1126.0	32.452351	20.298128	14.162149	3.602477	-8.313294	3.795598	-0.394287	0.352783	0.855713
1127.0	25.367382	9.922599	10.678979	-1.336037	-7.827072	4.992587	-0.335449	0.355225	0.885254
1128.0	23.49623	7.046019	8.288247	1.978111	-7.255109	5.118484	-0.276123	0.394775	0.891113
1129.0	19.971664	16.180854	13.043862	3.960014	-6.877793	5.658759	-0.22998	0.436768	0.887939
1130.0	17.578192	19.031764	15.483215	1.657684	-6.685456	6.148837	-0.171387	0.445801	0.896973
1131.0	15.840496	16.244045	17.79062	0.520189	-6.292484	5.838895	-0.134766	0.45459	0.894287
1132.0	14.955889	9.872274	22.950645	0.710392	-4.092543	5.308207	-0.11499	0.450439	0.901367
1133.0	25.245387	5.521358	25.957649	0.547694	-1.007254	4.459407	-0.126465	0.463623	0.882813
1134.0	17.175704	16.284948	27.574587	4.044214	2.384016	2.128422	-0.162354	0.487305	0.850586
1135.0	3.505346	18.829224	17.09185	2.775412	4.25783	0.890381	-0.208496	0.493652	0.813965
1136.0	-4.889074	17.014431	10.964968	0.524047	3.808904	0.428176	-0.249512	0.482666	0.79834
1137.0	-2.362975	12.383534	8.950214	-1.482987	3.041266	0.184574	-0.291992	0.458252	0.785156
1138.0	0.102551	7.300406	8.215442	-1.764749	3.063808	-0.272471	-0.325684	0.429932	0.762939
1139.0	1.844775	4.833151	8.404492	-1.031909	3.41701	-0.903279	-0.368652	0.414307	0.733643
1140.0	2.707143	4.402502	8.433584	-0.453983	3.965219	-1.469757	-0.40918	0.394531	0.69751
1141.0	2.408227	4.137769	7.876928	-0.214409	4.460158	-1.823038	-0.445313	0.372559	0.652588
1142.0	2.528574	3.740923	7.431328	-0.155575	4.798665	-1.952274	-0.472656	0.348633	0.600586
1143.0	3.211506	2.654172	7.290884	-0.135177	5.082124	-1.944891	-0.498047	0.335449	0.546143
1144.0	4.113492	0.96302	7.241092	0.061805	5.388458	-1.856211	-0.507813	0.309326	0.489746
1145.0	5.149073	-0.871894	6.873363	0.590744	5.773061	-1.77935	-0.511475	0.291992	0.419434
1146.0	5.521457	-1.866823	6.33712	1.490088	6.131669	-1.691592	-0.499268	0.261719	0.354004
1147.0	6.44025	-1.606222	6.125438	2.303448	6.305052	-1.531004	-0.471924	0.238037	0.299561
1148.0	7.975626	-0.85523	6.166133	2.912643	6.391992	-1.358605	-0.451172	0.209717	0.279785
1149.0	10.183757	0.780596	6.309351	3.398852	6.499961	-1.263306	-0.435791	0.209961	0.270508
1150.0	11.424416	2.269886	6.453866	3.416357	6.58099	-1.339492	-0.42749	0.216553	0.254395
1151.0	11.96321	2.496165	6.520631	3.177841	6.453555	-1.593392	-0.419189	0.225342	0.222412
1152.0	13.411387	1.600078	6.170037	3.048644	6.1314	-1.988931	-0.421387	0.229736	0.192627
1153.0	15.62826	3.992275	6.000106	3.465543	5.86847	-2.519231	-0.410889	0.23877	0.151367
1154.0	15.919246	8.765525	7.278914	3.077068	5.549589	-3.132819	-0.408691	0.236572	0.126465
1155.0	16.309581	9.927979	8.875831	1.314333	4.984831	-3.673481	-0.412842	0.230225	0.094727
1156.0	17.831073	6.353237	9.802639	0.303228	4.461067	-4.231199	-0.417236	0.230225	0.071777
1157.0	19.701885	4.672585	11.093161	0.859767	4.270947	-4.806658	-0.418701	0.215088	0.035645
1158.0	20.622091	6.385678	11.839488	1.433227	4.269306	-5.19272	-0.428711	0.195313	0.008789
1159.0	21.345294	7.041841	11.389716	1.030711	4.185111	-5.30692	-0.43457	0.177979	-0.025146
1160.0	22.2477	6.518927	9.626438	0.782868	4.108403	-5.292027	-0.441895	0.149658	-0.052002
1161.0	23.577867	7.129731	8.084094	0.651666	3.951143	-5.345322	-0.445313	0.125732	-0.087891
1162.0	23.944005	6.809452	5.775549	0.198091	3.5808	-5.534538	-0.443848	0.093018	-0.116943
1163.0	23.102632	1.123657	4.038897	-0.829945	2.668512	-5.811041	-0.447021	0.066895	-0.136963
1164.0	20.381975	-1.911279	2.171294	0.065625	2.088524	-6.168077	-0.44751	0.031982	-0.158936
1165.0	31.816662	-8.017588	-0.356895	-1.048528	0.323296	-5.676366	-0.448242	-0.000732	-0.176514
1166.0	36.75377	-12.520386	-10.665302	0.397314	0.417042	-4.400628	-0.45166	-0.024658	-0.185303
1167.0	29.136372	-21.107282	-21.634718	-0.175852	0.33937	-3.031568	-0.453125	-0.037842	-0.194092
1168.0	31.545223	-21.705864	-27.344333	1.033522	-0.605975	-1.796079	-0.459229	-0.051025	-0.189209
1169.0	28.009161	-8.201051	-14.604543	4.040695	-0.797967	-1.041302	-0.465088	-0.064209	-0.186768
1170.0	25.460148	0.174237	-4.361946	-0.899595	-1.777954	-0.209072	-0.476807	-0.046875	-0.171143
1171.0	23.504082	-6.470408	-6.435488	-5.494121	-2.51943	0.632274	-0.488525	-0.0271	-0.166748
1172.0	12.226001	-5.382963	2.169159	-2.427976	-2.222155	0.279094	-0.493408	-0.016357	-0.148926
1173.0	-12.046435	7.329129	30.672899	1.226376	-2.889141	-0.052905	-0.510986	-0.012207	-0.139893
1174.0	-17.47287	5.57629	26.833846	-1.333637	-4.026717	1.652045	-0.533936	0.011719	-0.10376
1175.0	23.727754	-10.06308	-3.49896	-3.674498	-7.914755	2.62261	-0.565674	0.039551	-0.049561
1176.0	38.813588	-18.279266	18.404507	-2.256992	-5.010176	0.641484	-0.567627	0.035156	-0.019775
1177.0	16.693707	-3.477007	16.936866	4.264973	-2.900349	0.592701	-0.57666	0.039551	-0.001709
1178.0	6.752926	11.775852	4.204853	3.682585	-1.396434	0.300634	-0.581055	0.041504	0.020996
1179.0	1.018863	17.037288	7.029199	1.738336	-2.821111	0.43753	-0.579346	0.054688	0.052734
1180.0	16.926875	13.253558	15.672978	-4.404363	-3.894303	0.532357	-0.590576	0.061035	0.079834
1181.0	26.145104	-1.048544	12.050985	-5.559146	-0.828472	0.771848	-0.594971	0.061035	0.091309
1182.0	8.019083	1.50257	-3.09072	2.401774	0.181455	0.274749	-0.595459	0.06958	0.095703
1183.0	5.92823	11.710585	17.235147	0.726468	-0.638644	0.512615	-0.595459	0.073975	0.104736
1184.0	10.574459	4.981329	6.755157	-3.653296	-0.642697	0.776775	-0.59375	0.080566	0.11377
1185.0	6.000613	-0.910235	5.854833	-1.426681	-0.195475	0.606755	-0.593994	0.087158	0.118164
1186.0	7.010289	3.973948	8.133382	1.001463	-0.082423	0.484686	-0.600586	0.091309	0.120361
1187.0	6.285639	5.31669	9.37035	-0.742123	-0.139983	0.497612	-0.596436	0.093506	0.120361
1188.0	6.6135	1.092566	7.554648	-1.419757	-0.165869	0.438849	-0.592041	0.095703	0.124756
1189.0	5.934344	1.396913	7.330922	0.046995	-0.068212	0.287436	-0.596924	0.102295	0.122559
1190.0	5.712177	3.852106	8.435139	-0.010491	-0.113066	0.244534	-0.592285	0.100098	0.124756
1191.0	5.826976	2.624494	7.843176	-0.619609	-0.133649	0.237022	-0.596924	0.104492	0.120117
1192.0	5.814901	2.240713	7.448677	-0.158879	-0.13193	0.171754	-0.594727	0.106689	0.131348
1193.0	5.743181	3.355912	7.87126	-0.081557	-0.145455	0.139156	-0.594727	0.104492	0.138428
1194.0	5.661111	3.149757	7.61408	-0.248874	-0.160492	0.142568	-0.603271	0.100098	0.140625
1195.0	5.660307	3.478955	7.440113	-0.064023	-0.171366	0.163116	-0.603271	0.102295	0.147461
1196.0	5.650096	4.047248	7.508458	-0.128609	-0.1786	0.225893	-0.605713	0.104492	0.1521
1197.0	5.746157	3.778565	7.480431	-0.309272	-0.193211	0.309584	-0.607666	0.099854	0.161133
1198.0	5.840008	3.137597	7.502002	-0.398219	-0.197114	0.351771	-0.598389	0.089111	0.170654
1199.0	6.120351	2.723079	7.57877	-0.34113	-0.18623	0.349705	-0.582031	0.067383	0.189209
1200.0	6.157446	2.601161	7.671355	-0.271435	-0.19391	0.322046	-0.54248	0.058838	0.184814
1201.0	6.271654	2.753494	7.397031	-0.223989	-0.215269	0.285936	-0.485107	0.092041	0.143066
1202.0	6.11706	3.037355	7.499595	-0.176059	-0.225745	0.275742	-0.459229	0.195068	0.09082
1203.0	6.238285	3.135359	7.428695	-0.211146	-0.243784	0.292202	-0.533447	0.292725	0.075195
1204.0	6.1371	3.066417	7.409904	-0.216641	-0.249001	0.310775	-0.620117	0.28125	0.109863
1205.0	6.196425	2.994256	7.375766	-0.158258	-0.268182	0.331703	-0.645996	0.226318	0.135986
1206.0	6.216786	3.139339	7.512089	-0.113451	-0.2861	0.360857	-0.637695	0.184814	0.152832
1207.0	6.273995	3.031305	7.570523	-0.153691	-0.309848	0.405158	-0.628174	0.16748	0.155273
1208.0	6.256294	2.723983	7.598366	-0.120244	-0.348448	0.443492	-0.621338	0.160889	0.157715
1209.0	6.229397	2.709082	7.634104	-0.023131	-0.412112	0.473737	-0.614502	0.156738	0.155518
1210.0	6.225848	2.399959	7.814058	-0.000863	-0.501123	0.522334	-0.612549	0.16333	0.159912
1211.0	6.14974	1.485284	7.720652	0.126693	-0.66271	0.590619	-0.608154	0.161133	0.160156
1212.0	6.314843	2.105384	7.665394	0.689792	-0.893998	0.67966	-0.612793	0.16748	0.162109
1213.0	6.330215	3.045879	7.930768	0.744353	-1.043732	0.756173	-0.606445	0.171875	0.171143
1214.0	6.17254	2.872434	8.015738	0.576784	-1.246759	0.808786	-0.602051	0.169922	0.18042
1215.0	6.09972	2.561968	8.122907	0.538811	-1.446224	0.80334	-0.604492	0.178467	0.187012
1216.0	5.9432	2.579571	8.307362	0.531065	-1.636789	0.755317	-0.596191	0.185059	0.193848
1217.0	5.864366	2.744371	8.638451	0.421713	-1.834661	0.701847	-0.596436	0.193848	0.209473
1218.0	5.846675	2.368861	8.879357	0.16028	-2.053109	0.647428	-0.598633	0.19165	0.223145
1219.0	6.052655	2.124977	8.500223	0.129201	-2.32962	0.639877	-0.598877	0.197998	0.232178
1220.0	6.118965	3.086404	8.982047	0.271526	-2.629127	0.733535	-0.599121	0.202393	0.257324
1221.0	6.251528	4.404311	9.610608	-0.055765	-2.868592	0.964571	-0.595215	0.213379	0.270752
1222.0	5.905819	4.812778	9.510418	-0.750156	-3.054412	1.267696	-0.595215	0.210938	0.29126
1223.0	4.821793	3.982621	8.606839	-1.23289	-3.593022	1.55741	-0.589355	0.226318	0.322754
1224.0	4.521699	3.962024	8.862376	-1.303416	-4.493627	1.829337	-0.580566	0.228516	0.3479
1225.0	4.566853	4.982398	8.846349	-1.321692	-5.408427	2.153049	-0.563965	0.248047	0.393066
1226.0	4.21012	4.516542	8.14239	-1.515569	-6.496107	2.461688	-0.553711	0.259033	0.436035
1227.0	4.089525	1.937984	5.577471	-1.180702	-8.088556	2.609087	-0.528076	0.271973	0.495117
1228.0	11.325911	3.583046	6.444634	1.317666	-9.330387	2.692859	-0.485352	0.296143	0.546875
1229.0	28.506475	9.717026	13.233646	1.876105	-9.363746	3.152505	-0.44751	0.326904	0.596436
1230.0	27.16352	1.342776	11.27174	-0.078945	-8.651294	3.866395	-0.404785	0.344482	0.64624
1231.0	25.282821	5.086286	9.439205	3.55788	-7.877874	3.897391	-0.358887	0.390625	0.667969
1232.0	22.02949	14.994603	15.537371	4.048013	-7.368126	4.706458	-0.317139	0.434326	0.696777
1233.0	19.807785	12.283186	14.935558	0.794045	-7.693315	5.332297	-0.270264	0.460693	0.728027
1234.0	21.486487	9.120239	16.310372	1.633452	-7.455966	4.808069	-0.219482	0.496094	0.75
1235.0	19.169936	9.784957	22.312851	3.145455	-5.297849	3.946734	-0.192871	0.531006	0.751709
1236.0	25.955044	9.802102	29.533465	2.239723	-1.288807	3.169966	-0.189697	0.55957	0.744141
1237.0	15.321043	17.867283	26.444199	3.024419	2.263958	1.314114	-0.218994	0.579102	0.725586
1238.0	5.589802	16.951048	17.733905	1.833859	3.883177	0.337653	-0.248047	0.598389	0.704834
1239.0	-5.198791	12.923237	10.710057	0.592175	3.491294	-0.081497	-0.28125	0.60498	0.688721
1240.0	-3.565882	9.607766	8.947049	-0.711697	2.360615	-0.3535	-0.30249	0.59375	0.688965
1241.0	0.853985	5.95212	9.317793	-0.907892	2.281478	-0.867519	-0.337402	0.595703	0.679932
1242.0	2.727979	4.412689	9.493385	-0.061432	2.77877	-1.503455	-0.376221	0.586914	0.664063
1243.0	3.025612	4.700904	9.647444	0.257122	3.415893	-2.025822	-0.419434	0.577881	0.64624
1244.0	2.529893	3.695492	8.930812	0.19	3.876543	-2.342841	-0.458496	0.569092	0.614502
1245.0	2.380439	2.490767	8.149773	0.252425	4.249848	-2.496392	-0.501709	0.560059	0.575928
1246.0	2.559785	1.512412	7.965386	0.366681	4.5028	-2.519039	-0.544678	0.549072	0.537598
1247.0	3.603685	0.143585	8.153086	0.463817	4.714457	-2.451597	-0.585449	0.529297	0.494629
1248.0	4.910181	-1.487857	8.290028	0.862344	5.076755	-2.379742	-0.623535	0.507324	0.424561
1249.0	5.721947	-2.857351	7.807954	1.63085	5.514569	-2.279368	-0.637939	0.483398	0.358887
1250.0	6.341354	-3.085766	7.612458	2.468998	5.81745	-2.136487	-0.65332	0.441895	0.298096
1251.0	7.313449	-2.902194	7.257674	3.03005	5.967353	-1.929901	-0.64502	0.400635	0.246582
1252.0	8.982358	-2.03326	7.1288	3.545431	6.071987	-1.718308	-0.648438	0.376709	0.212891
1253.0	10.816874	-0.445058	7.495396	3.789293	6.168017	-1.613879	-0.656006	0.35498	0.178955
1254.0	11.396379	0.332484	7.50962	3.589468	6.19609	-1.661095	-0.660156	0.350586	0.135742
1255.0	12.287907	-0.617514	7.512075	3.336093	5.977581	-1.845551	-0.67749	0.344238	0.083496
1256.0	14.773282	-0.128077	7.236832	3.626008	5.778857	-2.152215	-0.682861	0.318115	0.0271
1257.0	15.562559	4.101409	7.86413	3.835665	5.696051	-2.588694	-0.681885	0.296387	-0.036377
1258.0	14.857742	7.43182	8.887319	2.644849	5.356939	-3.015088	-0.68042	0.263916	-0.083496
1259.0	14.91727	5.685173	9.538191	1.063674	4.77633	-3.428348	-0.672363	0.229004	-0.128418
1260.0	16.579747	2.981987	10.906766	1.02811	4.336776	-3.916075	-0.670166	0.18335	-0.157227
1261.0	18.550107	3.285634	12.942014	1.615503	4.216222	-4.398024	-0.657227	0.137695	-0.201904
1262.0	19.292142	4.156362	13.712988	1.75212	4.215201	-4.71017	-0.644287	0.087646	-0.230469
1263.0	19.905032	4.114472	12.941482	1.592344	4.174577	-4.868197	-0.624512	0.039795	-0.254639
1264.0	21.257081	5.625446	11.69089	1.4248	4.119623	-4.957995	-0.606934	-0.012451	-0.287842
1265.0	21.208055	4.106053	10.883766	0.270571	3.836399	-5.145533	-0.578857	-0.055908	-0.305176
1266.0	23.07941	-0.964217	6.006357	-0.512352	3.187466	-5.48525	-0.55542	-0.094971	-0.322754
1267.0	25.767268	4.440612	4.236246	0.712225	2.920201	-5.755753	-0.529297	-0.140625	-0.340088
1268.0	24.387095	3.004917	1.800014	-2.078327	2.02143	-5.461049	-0.510986	-0.162109	-0.355713
1269.0	32.492754	-13.201077	-6.360642	-5.347727	0.720339	-4.572488	-0.503662	-0.17749	-0.368896
1270.0	33.852199	-23.054485	-20.539384	-1.623155	0.71482	-3.731823	-0.487549	-0.199219	-0.368652
1271.0	28.717999	-22.421402	-25.272584	3.037645	-0.117641	-2.675827	-0.487793	-0.238525	-0.354248
1272.0	29.497023	-10.681445	-17.169284	3.661187	-1.226292	-2.020492	-0.484619	-0.262451	-0.330811
1273.0	27.822282	-1.723998	-10.782203	-0.311949	-1.581216	-1.103244	-0.491211	-0.258057	-0.326416
1274.0	26.705516	-11.798336	-6.987442	-5.804535	-2.467546	0.618447	-0.507813	-0.22998	-0.33374
1275.0	16.76951	-17.016112	-10.121193	-3.471269	-1.349377	0.432252	-0.508057	-0.225586	-0.32251
1276.0	-9.106894	5.261242	29.556378	6.631896	-3.401912	1.357681	-0.540039	-0.243408	-0.276611
1277.0	-7.08422	18.578642	28.105811	2.066112	-3.424433	3.008426	-0.572021	-0.210938	-0.254395
1278.0	20.501005	3.875998	-0.52414	-3.834176	-6.14311	3.726021	-0.605957	-0.182861	-0.220703
1279.0	29.466998	-7.032364	11.719195	-4.461492	-3.774052	1.512687	-0.61084	-0.169678	-0.197998
1280.0	15.389078	-1.752379	14.475298	3.307669	-3.102086	0.293162	-0.625488	-0.185303	-0.168213
1281.0	6.645339	7.736215	9.452313	1.894616	-1.870056	0.060564	-0.636719	-0.176514	-0.143311
1282.0	2.67097	5.921477	8.101498	-1.032942	-2.896475	0.573094	-0.643066	-0.178955	-0.115723
1283.0	9.376892	3.597614	7.818419	-0.58017	-3.044706	0.305393	-0.654541	-0.168213	-0.086426
1284.0	23.495247	8.27782	18.679649	-0.665427	-1.522729	0.352706	-0.658936	-0.168213	-0.072754
1285.0	17.117709	6.141987	2.477374	-0.928365	-0.382029	0.155036	-0.656494	-0.17041	-0.070313
1286.0	4.9571	5.983481	10.776943	-0.441656	-0.420757	0.264722	-0.661621	-0.155273	-0.063965
1287.0	10.147058	3.289927	6.68794	-1.42859	-0.665064	0.365802	-0.661621	-0.157227	-0.063721
1288.0	6.863374	3.460302	7.430743	0.03145	-0.197536	0.188715	-0.659424	-0.157227	-0.054688
1289.0	6.684523	4.978357	8.289399	-0.233822	-0.202309	0.208514	-0.66626	-0.150879	-0.05249
1290.0	6.341286	3.389335	7.744613	-0.54041	-0.15357	0.202337	-0.668213	-0.155273	-0.05249
1291.0	5.903751	2.60412	7.849756	-0.224647	-0.119103	0.142344	-0.666504	-0.146484	-0.048096
1292.0	5.764433	2.904813	7.957825	-0.084741	-0.124495	0.065191	-0.663818	-0.155273	-0.047852
1293.0	5.582094	2.944927	7.753123	-0.025961	-0.136821	0.012201	-0.664063	-0.148682	-0.050293
1294.0	5.507868	3.090243	7.697057	0.042298	-0.160799	-0.026014	-0.664063	-0.148682	-0.043457
1295.0	5.485298	3.237613	7.607824	0.093388	-0.177285	-0.053598	-0.670654	-0.148682	-0.045654
1296.0	5.572183	3.583611	7.516494	0.146842	-0.19127	-0.070325	-0.663818	-0.157471	-0.036377
1297.0	5.599242	3.928449	7.420356	0.146162	-0.197258	-0.061499	-0.670654	-0.148682	-0.034424
1298.0	5.594236	4.140774	7.289539	0.106657	-0.182728	-0.036783	-0.677002	-0.155273	-0.027344
1299.0	5.452629	4.183783	7.345246	0.01584	-0.172818	0.010812	-0.674805	-0.155273	-0.025146
1300.0	5.530127	4.3916	7.17855	-0.008883	-0.171657	0.07337	-0.680908	-0.161865	-0.01123
1301.0	5.56541	4.777923	7.184364	-0.084326	-0.157109	0.156904	-0.678711	-0.16626	-0.002197
1302.0	5.586765	4.72942	7.207814	-0.249513	-0.143708	0.258611	-0.67334	-0.188232	0.014404
1303.0	5.668867	4.263025	7.313637	-0.349125	-0.136785	0.332596	-0.657227	-0.203369	0.023682
1304.0	5.687658	3.889899	7.376559	-0.353003	-0.148172	0.379094	-0.598145	-0.209473	0.01001
1305.0	5.770789	3.633469	7.483476	-0.319505	-0.182543	0.388501	-0.535645	-0.143555	-0.04834
1306.0	5.872512	3.515808	7.477747	-0.259934	-0.223635	0.3812	-0.543457	-0.02124	-0.109863
1307.0	5.934998	3.461009	7.429469	-0.206334	-0.260292	0.374774	-0.651367	0.054443	-0.106689
1308.0	6.037697	3.481592	7.351088	-0.152743	-0.300026	0.361381	-0.717041	0.012451	-0.0625
1309.0	6.038145	3.671309	7.246897	-0.110048	-0.305345	0.368824	-0.736328	-0.046631	-0.031738
1310.0	5.935121	4.040062	7.338836	-0.125182	-0.30215	0.410504	-0.721924	-0.072754	-0.017578
1311.0	6.09499	4.029639	7.304098	-0.195366	-0.322525	0.468232	-0.712402	-0.092285	-0.01709
1312.0	6.212961	3.641166	7.300813	-0.232691	-0.338238	0.526828	-0.712158	-0.101074	-0.019287
1313.0	6.337814	3.548049	7.289218	-0.178852	-0.347888	0.567984	-0.707764	-0.09668	-0.014893
1314.0	6.494347	3.382973	7.223657	-0.186175	-0.368521	0.619594	-0.701416	-0.094482	-0.012695
1315.0	6.413045	2.904063	7.324043	-0.105524	-0.408292	0.675872	-0.703857	-0.087891	-0.012695
1316.0	6.245828	2.147519	7.202925	0.138592	-0.461255	0.75585	-0.706299	-0.085693	-0.003662
1317.0	6.192959	3.022453	7.399415	0.688373	-0.574829	0.82118	-0.708496	-0.081299	0.000732
1318.0	6.056492	3.932133	7.790876	0.636032	-0.767498	0.880703	-0.715576	-0.070557	0.00293
1319.0	5.871106	3.20839	7.993262	0.357639	-0.984403	0.871812	-0.711426	-0.063965	0.007324
1320.0	5.892065	2.494845	7.879424	0.446201	-1.238228	0.794418	-0.713867	-0.061768	0.018799
1321.0	5.679156	2.612341	8.718045	0.495986	-1.536071	0.676744	-0.714111	-0.053223	0.032227
1322.0	5.680587	1.958101	8.825445	0.329727	-1.906386	0.575389	-0.718506	-0.05542	0.045898
1323.0	5.840593	1.848971	8.54352	0.695048	-2.255164	0.481738	-0.720947	-0.046631	0.068604
