Acquisition frequency: 100 Hz
PacketCounter	Acc_X	Acc_Y	Acc_Z	Gyr_X	Gyr_Y	Gyr_Z	Mag_X	Mag_Y	Mag_Z
0.0	9.309411	-1.454466	3.205953	0.030056	-0.004122	0.00805	-0.444824	0.229004	-0.68457
1.0	9.286897	-1.457076	3.196893	0.029978	-0.006336	0.011932	-0.445068	0.233398	-0.68457
2.0	9.308238	-1.430561	3.201801	0.030252	-0.001115	0.012071	-0.442383	0.224609	-0.675049
3.0	9.299986	-1.451188	3.228485	0.028364	-0.003936	0.009405	-0.44043	0.231201	-0.682129
4.0	9.308127	-1.43068	3.202071	0.025033	-0.002437	0.010196	-0.44043	0.231201	-0.682129
5.0	9.298729	-1.427386	3.224532	0.020538	-0.001073	0.009262	-0.451904	0.235596	-0.682373
6.0	9.309092	-1.455019	3.206629	0.019373	-0.001211	0.007534	-0.44043	0.235596	-0.682373
7.0	9.276056	-1.430271	3.215806	0.01817	-0.002453	0.00775	-0.449219	0.226807	-0.679688
8.0	9.285332	-1.43377	3.19361	0.021054	-0.001415	0.00616	-0.440186	0.226807	-0.684326
9.0	9.275953	-1.430419	3.216037	0.011993	-0.000887	0.008186	-0.447266	0.233398	-0.682373
10.0	9.277018	-1.454691	3.220331	0.018167	-0.002457	0.007745	-0.437988	0.229004	-0.682129
11.0	9.276986	-1.454854	3.220349	0.015319	-0.002394	0.007388	-0.442627	0.229004	-0.686768
12.0	9.254445	-1.457597	3.211306	0.018645	-0.003901	0.00659	-0.44043	0.233398	-0.68457
13.0	9.246255	-1.478239	3.237788	0.020971	-0.00363	0.010037	-0.447266	0.233398	-0.682373
14.0	9.263788	-1.461439	3.188761	0.024737	-0.007683	0.010031	-0.444824	0.231201	-0.682129
15.0	9.295697	-1.46237	3.175259	0.029985	-0.005274	0.009941	-0.442383	0.224609	-0.684326
16.0	9.268984	-1.475679	3.246212	0.036595	-0.009397	0.010285	-0.44458	0.226807	-0.682129
17.0	9.286606	-1.458749	3.196978	0.027536	-0.008863	0.012315	-0.444824	0.229004	-0.68457
18.0	9.317556	-1.43572	3.178726	0.030615	-0.014499	0.009432	-0.440186	0.229004	-0.682129
19.0	9.309557	-1.456025	3.204823	0.031656	-0.005494	0.008547	-0.444824	0.231201	-0.68457
20.0	9.327132	-1.439097	3.155689	0.026365	-0.009009	0.010578	-0.440186	0.229004	-0.679932
21.0	9.286063	-1.434732	3.191052	0.022638	-0.003854	0.008636	-0.444824	0.231201	-0.672852
22.0	9.308535	-1.432351	3.200136	0.022841	-0.000833	0.012654	-0.440186	0.229004	-0.682129
23.0	9.287088	-1.459199	3.19537	0.019546	-0.007914	0.006204	-0.444824	0.231201	-0.67749
24.0	9.278922	-1.479515	3.221953	0.020592	0.001093	0.005317	-0.444824	0.231201	-0.682129
25.0	9.309486	-1.456348	3.204882	0.02532	0.003839	0.008312	-0.449219	0.224609	-0.677246
26.0	9.277365	-1.455298	3.219056	0.019231	0.007623	0.004872	-0.442627	0.231201	-0.686768
27.0	9.286377	-1.458789	3.197623	0.016826	0.005147	0.005317	-0.447021	0.229004	-0.68457
28.0	9.299406	-1.452405	3.22961	0.018506	0.004939	0.003943	-0.440186	0.229004	-0.686768
29.0	9.289932	-1.448595	3.252509	0.010455	0.003706	0.001747	-0.442383	0.226807	-0.684326
30.0	9.320526	-1.42547	3.235351	0.008773	0.003912	0.003119	-0.442383	0.224609	-0.675049
31.0	9.298894	-1.452092	3.231224	0.003127	0.005155	0.000477	-0.437988	0.226807	-0.684326
32.0	9.298518	-1.4521	3.232303	0.003215	0.017049	0.001881	-0.438232	0.233398	-0.679932
33.0	9.266129	-1.451265	3.247102	0.000811	0.014575	0.002328	-0.44043	0.231201	-0.682129
34.0	9.288142	-1.448626	3.257601	-0.00075	0.018082	-0.002135	-0.442627	0.229004	-0.679932
35.0	9.256828	-1.47173	3.276765	-0.006518	0.016022	0.001054	-0.447266	0.233398	-0.679932
36.0	9.265596	-1.47556	3.255926	-0.006478	0.017121	-0.000892	-0.444824	0.229004	-0.679932
37.0	9.288626	-1.497074	3.270885	-0.005757	0.0198	3e-05	-0.449463	0.231201	-0.68457
38.0	9.255043	-1.472091	3.281642	-0.001193	0.02062	-0.002938	-0.442627	0.233398	-0.687012
39.0	9.240166	-1.454109	3.247765	-0.004758	0.01801	-0.004214	-0.444824	0.229004	-0.682129
40.0	9.253973	-1.471775	3.284799	-0.007204	0.014436	-0.001823	-0.445068	0.233398	-0.687012
41.0	9.285529	-1.472767	3.272398	-0.008207	0.006534	-0.002873	-0.449219	0.226807	-0.682129
42.0	9.240154	-1.478093	3.255226	-0.007205	0.014435	-0.001825	-0.442627	0.233398	-0.682373
43.0	9.262381	-1.475511	3.265082	-0.01105	0.006603	-0.003227	-0.442627	0.229004	-0.686768
44.0	9.248966	-1.481786	3.234405	-0.004644	0.009141	-0.0016	-0.442627	0.233398	-0.68457
45.0	9.270072	-1.455142	3.24007	-0.002722	0.013056	-0.000899	-0.442871	0.237793	-0.684814
46.0	9.207016	-1.47722	3.272022	0.001762	0.011679	2.8e-05	-0.44043	0.233398	-0.68457
47.0	9.261237	-1.475314	3.268413	-0.006764	0.002204	-0.006318	-0.447021	0.229004	-0.675293
48.0	9.271658	-1.502669	3.250612	0.004045	0.001166	0.00013	-0.442627	0.231201	-0.689209
49.0	9.250242	-1.529137	3.245921	-0.000679	-0.001579	-0.002869	-0.44458	0.226807	-0.67749
50.0	9.290488	-1.509493	3.205848	0.003765	-0.004055	4e-06	-0.444824	0.231201	-0.679932
51.0	9.235079	-1.487073	3.205557	0.007328	-0.001446	0.00128	-0.440186	0.229004	-0.68457
52.0	9.246585	-1.538499	3.192066	0.009731	0.001026	0.000834	-0.442627	0.231201	-0.68457
53.0	9.289356	-1.484908	3.201923	0.017338	0.0048	0.002237	-0.449463	0.235596	-0.682373
54.0	9.258393	-1.507547	3.220193	0.024664	0.003351	0.003515	-0.447021	0.231201	-0.679932
55.0	9.234739	-1.485699	3.207175	0.022021	-0.003245	0.001891	-0.447021	0.229004	-0.686768
56.0	9.297612	-1.463095	3.175983	0.026662	-0.012388	0.003491	-0.442627	0.231201	-0.686768
57.0	9.288623	-1.45919	3.197347	0.020893	-0.014447	0.006677	-0.447021	0.231201	-0.682129
58.0	9.34449	-1.481515	3.196358	0.016848	-0.015613	0.006549	-0.442871	0.235596	-0.687012
59.0	9.330482	-1.464004	3.159828	0.017807	-0.008813	0.009536	-0.442627	0.233398	-0.68457
60.0	9.323376	-1.508624	3.190505	0.016927	-0.003729	0.007934	-0.447266	0.233398	-0.68457
61.0	9.322232	-1.48483	3.186234	0.018849	0.000184	0.008628	-0.445068	0.233398	-0.682373
62.0	9.282061	-1.504417	3.226166	0.015724	-0.004967	0.008157	-0.44043	0.231201	-0.686768
63.0	9.280961	-1.480766	3.221702	0.017604	-0.002152	0.010796	-0.447021	0.226807	-0.67749
64.0	9.290329	-1.484704	3.199194	0.019481	-0.00903	0.008156	-0.447266	0.235596	-0.682373
65.0	9.299821	-1.48847	3.176399	0.022321	-0.009106	0.008501	-0.44043	0.231201	-0.682129
66.0	9.286665	-1.494752	3.144981	0.023846	-0.001553	0.006446	-0.442627	0.229004	-0.67749
67.0	9.290489	-1.484542	3.198803	0.027886	-0.000396	0.006563	-0.449219	0.229004	-0.686768
68.0	9.267852	-1.487005	3.190177	0.026203	-0.000187	0.007932	-0.449463	0.231201	-0.68457
69.0	9.267732	-1.487147	3.190462	0.027276	-0.002249	0.013539	-0.44458	0.226807	-0.682129
70.0	9.268807	-1.511334	3.194746	0.025151	-0.009193	0.008836	-0.442627	0.229004	-0.682129
71.0	9.266754	-1.463472	3.185656	0.03223	-0.005086	0.013304	-0.442627	0.233398	-0.687012
72.0	9.277193	-1.491372	3.167542	0.03358	-0.011624	0.013756	-0.44458	0.226807	-0.679688
73.0	9.271819	-1.477714	3.243157	0.043101	-0.003958	0.015812	-0.447021	0.226807	-0.682129
74.0	9.266852	-1.463977	3.185139	0.038769	-0.010344	0.015574	-0.447021	0.231201	-0.679932
75.0	9.282276	-1.505718	3.22494	0.041603	-0.010429	0.015909	-0.444824	0.229004	-0.682129
76.0	9.289678	-1.461529	3.193211	0.044191	-0.014643	0.014183	-0.442627	0.229004	-0.68457
77.0	9.300247	-1.489235	3.174791	0.043706	-0.013204	0.015316	-0.444824	0.229004	-0.686768
78.0	9.300455	-1.489272	3.174164	0.045336	-0.014525	0.015877	-0.442871	0.237793	-0.687012
79.0	9.290361	-1.461731	3.191133	0.036775	-0.015387	0.016792	-0.447021	0.229004	-0.686768
80.0	9.300884	-1.489673	3.172719	0.044889	-0.011999	0.015052	-0.442383	0.226807	-0.682129
81.0	9.330736	-1.442924	3.150179	0.046331	-0.006648	0.016862	-0.447021	0.229004	-0.682129
82.0	9.322433	-1.46306	3.177089	0.040738	-0.004302	0.012283	-0.449219	0.229004	-0.68457
83.0	9.298884	-1.441665	3.16355	0.0416	-0.009397	0.013882	-0.447021	0.226807	-0.679688
84.0	9.298997	-1.441608	3.163244	0.037601	-0.009457	0.011824	-0.44458	0.226807	-0.684326
85.0	9.29086	-1.461631	3.189725	0.037597	-0.009463	0.011816	-0.447021	0.226807	-0.679688
86.0	9.300249	-1.465387	3.167193	0.035958	-0.008155	0.011239	-0.45166	0.229004	-0.682129
87.0	9.299269	-1.441397	3.162538	0.040672	-0.005429	0.014185	-0.449219	0.229004	-0.682129
88.0	9.300241	-1.465354	3.167231	0.035041	-0.004171	0.011562	-0.451416	0.226807	-0.682129
89.0	9.277705	-1.467889	3.158274	0.033155	-0.006993	0.008939	-0.449219	0.226807	-0.67749
90.0	9.280922	-1.433358	3.206588	0.034447	-0.014631	0.01135	-0.449219	0.229004	-0.679932
91.0	9.299676	-1.441112	3.161472	0.034737	-0.009412	0.011442	-0.449219	0.229004	-0.682129
92.0	9.29056	-1.437105	3.18333	0.033576	-0.009553	0.009725	-0.440186	0.226807	-0.686768
93.0	9.291668	-1.460858	3.187723	0.031509	-0.005697	0.008345	-0.447021	0.229004	-0.686768
94.0	9.322511	-1.437911	3.169855	0.029443	-0.00184	0.006965	-0.451416	0.226807	-0.67749
95.0	9.299871	-1.440383	3.161232	0.026133	-0.000301	0.007771	-0.45166	0.229004	-0.682129
96.0	9.314127	-1.457375	3.197339	0.029957	-0.002209	0.003869	-0.442627	0.231201	-0.67749
97.0	9.282253	-1.455682	3.210987	0.023341	0.000874	0.005486	-0.453613	0.226807	-0.682129
98.0	9.300727	-1.463287	3.166761	0.027077	-0.003216	0.00548	-0.449219	0.229004	-0.679932
99.0	9.291506	-1.458919	3.189084	0.025918	-0.003356	0.003769	-0.449219	0.229004	-0.686768
100.0	9.300815	-1.462437	3.166894	0.023084	-0.003268	0.003437	-0.444824	0.231201	-0.68457
101.0	9.29056	-1.434115	3.184678	0.02501	0.000638	0.004094	-0.449463	0.231201	-0.679932
102.0	9.29156	-1.457455	3.189596	0.017981	-0.002366	-0.002259	-0.44458	0.226807	-0.679688
103.0	9.291594	-1.456944	3.18973	0.018144	-0.000409	0.003674	-0.447021	0.226807	-0.686768
104.0	9.291547	-1.456523	3.19006	0.009782	0.003131	-0.003155	-0.447021	0.229004	-0.68457
105.0	9.291561	-1.455949	3.190279	0.013473	-0.002049	-0.00121	-0.449219	0.229004	-0.68457
106.0	9.289648	-1.407381	3.181014	0.009099	0.001538	-0.006003	-0.446777	0.224609	-0.684326
107.0	9.314199	-1.451813	3.199657	0.005793	0.003084	-0.005191	-0.449219	0.226807	-0.684326
108.0	9.302924	-1.399343	3.212871	-0.001499	0.004584	-0.006415	-0.444824	0.229004	-0.686768
109.0	9.290585	-1.429495	3.186683	-0.006731	0.002222	-0.00626	-0.449219	0.226807	-0.682129
110.0	9.304865	-1.44627	3.222814	-0.007118	0.005854	-0.009019	-0.449463	0.231201	-0.679932
111.0	9.313171	-1.425614	3.196078	-0.014188	0.001761	-0.013421	-0.447021	0.229004	-0.68457
112.0	9.314105	-1.448844	3.201276	-0.016906	0.013755	-0.012433	-0.45166	0.231201	-0.682129
113.0	9.282111	-1.446827	3.215396	-0.012696	0.00821	-0.013577	-0.440186	0.229004	-0.682129
114.0	9.305551	-1.467006	3.229857	-0.014673	0.014245	-0.018857	-0.449219	0.229004	-0.679932
115.0	9.277823	-1.455287	3.163755	-0.01995	0.010789	-0.016759	-0.440186	0.224609	-0.688965
116.0	9.269509	-1.474287	3.191268	-0.017845	0.008016	-0.017333	-0.451416	0.229004	-0.675293
117.0	9.282857	-1.466598	3.22272	-0.01977	0.004104	-0.017996	-0.449219	0.226807	-0.682129
118.0	9.291249	-1.445567	3.195904	-0.019772	0.004102	-0.018	-0.449219	0.224609	-0.681885
119.0	9.283085	-1.4645	3.223017	-0.020207	0.006642	-0.018812	-0.451416	0.226807	-0.684326
120.0	9.269847	-1.470258	3.192143	-0.017938	0.005828	-0.013445	-0.445068	0.233398	-0.679932
121.0	9.270987	-1.493437	3.196836	-0.016553	0.000376	-0.014919	-0.44458	0.226807	-0.686768
122.0	9.270208	-1.468457	3.191923	-0.020026	-4.4e-05	-0.020055	-0.449463	0.233398	-0.679932
123.0	9.304463	-1.51654	3.187412	-0.019678	-0.004767	-0.015349	-0.449219	0.226807	-0.684326
124.0	9.271932	-1.49063	3.195404	-0.017323	-0.003402	-0.013879	-0.447021	0.229004	-0.68457
125.0	9.305144	-1.514818	3.186243	-0.012774	-0.002624	-0.016878	-0.449463	0.231201	-0.679932
126.0	9.304254	-1.489892	3.181605	-0.005459	0.005616	-0.010414	-0.447021	0.226807	-0.688965
127.0	9.281756	-1.491699	3.172928	-0.002872	0.001395	-0.012127	-0.445068	0.233398	-0.679932
128.0	9.282909	-1.514459	3.177835	-0.000433	0.004942	-0.014554	-0.447021	0.231201	-0.679932
129.0	9.283079	-1.513367	3.177859	0.003624	-0.004948	-0.007896	-0.449463	0.233398	-0.68457
130.0	9.304739	-1.486056	3.181981	0.006185	-0.000532	-0.002427	-0.449219	0.229004	-0.686768
131.0	9.328418	-1.506757	3.195608	0.00786	-0.000757	-0.003807	-0.44458	0.226807	-0.67749
132.0	9.315152	-1.512817	3.164706	0.013771	0.003211	-0.001098	-0.45166	0.231201	-0.67749
133.0	9.293493	-1.539048	3.161113	0.014016	0.007346	0.000945	-0.447021	0.226807	-0.67041
134.0	9.28296	-1.510782	3.179435	0.01776	0.003265	0.000944	-0.442383	0.226807	-0.684326
135.0	9.273456	-1.506636	3.202401	0.027577	0.005109	0.009594	-0.449219	0.226807	-0.682129
136.0	9.295726	-1.503663	3.212271	0.028134	0.005828	0.004547	-0.442383	0.226807	-0.679688
137.0	9.2597	-1.512768	3.172918	0.031317	0.001022	0.009587	-0.449219	0.226807	-0.684326
138.0	9.272775	-1.505806	3.204762	0.039851	0.001847	0.008622	-0.440186	0.229004	-0.675293
139.0	9.27151	-1.481634	3.200807	0.039287	0.001121	0.013657	-0.449219	0.229004	-0.67749
140.0	9.259124	-1.512184	3.174878	0.037404	-0.001708	0.01104	-0.444824	0.231201	-0.682129
141.0	9.294808	-1.5026	3.215422	0.041387	-0.001661	0.013072	-0.449219	0.226807	-0.67749
142.0	9.280262	-1.485272	3.180303	0.048486	0.003519	0.015515	-0.447021	0.229004	-0.68457
143.0	9.280065	-1.484988	3.181011	0.046356	-0.00345	0.010861	-0.446777	0.224609	-0.679688
144.0	9.270628	-1.480671	3.203807	0.047752	0.00082	0.014594	-0.442383	0.224609	-0.681885
145.0	9.27877	-1.46031	3.17738	0.052478	-0.005105	0.010355	-0.44458	0.224609	-0.684326
146.0	9.269532	-1.455699	3.199723	0.052861	-0.008743	0.013108	-0.446777	0.220215	-0.681885
147.0	9.292128	-1.452502	3.208739	0.053575	-0.006072	0.013987	-0.449219	0.224609	-0.686523
148.0	9.34358	-1.485344	3.155961	0.054042	-0.007541	0.012835	-0.447021	0.229004	-0.686768
149.0	9.3107	-1.459548	3.164777	0.053169	-0.00247	0.011191	-0.447021	0.226807	-0.679688
150.0	9.309596	-1.434932	3.160541	0.050377	-0.001304	0.008902	-0.451172	0.222412	-0.684326
151.0	9.35553	-1.452682	3.184082	0.052969	0.004192	0.012376	-0.447021	0.226807	-0.682129
152.0	9.340009	-1.411048	3.144228	0.05156	-0.000102	0.008632	-0.45166	0.233398	-0.682373
153.0	9.331496	-1.430295	3.172245	0.046827	0.005821	0.012843	-0.449219	0.226807	-0.682129
154.0	9.330146	-1.40586	3.16863	0.047382	0.006516	0.007789	-0.442139	0.222412	-0.679688
155.0	9.308309	-1.431722	3.165781	0.045025	0.005143	0.006323	-0.449219	0.229004	-0.682129
156.0	9.320401	-1.400253	3.192835	0.043013	-0.00093	0.009586	-0.451416	0.226807	-0.682129
157.0	9.3203	-1.399864	3.193299	0.042964	-0.002018	0.011532	-0.448975	0.222412	-0.679688
158.0	9.305896	-1.382673	3.157764	0.042485	-0.000564	0.012657	-0.44458	0.224609	-0.681885
159.0	9.325166	-1.414818	3.119193	0.04067	0.007432	0.013277	-0.446777	0.220215	-0.684082
160.0	9.337925	-1.407881	3.151829	0.033682	0.014166	0.012126	-0.446777	0.224609	-0.684326
161.0	9.34135	-1.396539	3.206855	0.029069	0.013595	0.005309	-0.449219	0.224609	-0.679688
162.0	9.307916	-1.371058	3.217005	0.019173	0.018275	0.007753	-0.442383	0.224609	-0.684326
163.0	9.339103	-1.372657	3.205588	0.008352	0.017211	0.005348	-0.446777	0.224609	-0.686523
164.0	9.338423	-1.372825	3.207497	0.000693	0.022348	0.001363	-0.449219	0.226807	-0.688965
165.0	9.314135	-1.351784	3.195789	-0.006536	0.024944	-0.0018	-0.446777	0.222412	-0.677246
166.0	9.267292	-1.333301	3.175263	-0.013246	0.027155	-0.008054	-0.44458	0.224609	-0.681885
167.0	9.307632	-1.338632	3.142425	-0.007357	0.031094	-0.005409	-0.44458	0.222412	-0.686523
168.0	9.256302	-1.328206	3.20267	-0.008665	0.028963	-0.01304	-0.446777	0.222412	-0.681885
169.0	9.297825	-1.356689	3.17455	-0.007284	0.023499	-0.014484	-0.444824	0.231201	-0.679932
170.0	9.265509	-1.354287	3.189479	-0.008816	0.01598	-0.012335	-0.44458	0.224609	-0.681885
171.0	9.28882	-1.374444	3.204401	-0.012604	0.009256	-0.015549	-0.446777	0.224609	-0.684326
172.0	9.294157	-1.388829	3.129771	-0.019161	0.013449	-0.015887	-0.44458	0.222412	-0.684326
173.0	9.308071	-1.404787	3.167062	-0.017203	0.018424	-0.017218	-0.453613	0.224609	-0.681885
174.0	9.306634	-1.379866	3.16389	-0.012944	0.023683	-0.015139	-0.447021	0.226807	-0.682129
175.0	9.295867	-1.350715	3.182822	-0.016729	0.016957	-0.018359	-0.447021	0.226807	-0.686768
176.0	9.318231	-1.346687	3.192808	-0.023338	0.010327	-0.021903	-0.447021	0.226807	-0.686768
177.0	9.309853	-1.365375	3.220393	-0.029079	0.00836	-0.018642	-0.448975	0.222412	-0.677246
178.0	9.319283	-1.368662	3.198403	-0.032146	0.004311	-0.020986	-0.44458	0.226807	-0.679688
179.0	9.328726	-1.371746	3.176467	-0.035799	0.010551	-0.024925	-0.44458	0.224609	-0.681885
180.0	9.319183	-1.366549	3.199599	-0.039739	0.021307	-0.023761	-0.44458	0.224609	-0.681885
181.0	9.319719	-1.389503	3.206308	-0.044356	0.030457	-0.025442	-0.449219	0.226807	-0.679688
182.0	9.254363	-1.362033	3.229687	-0.048622	0.025177	-0.027553	-0.444824	0.231201	-0.68457
183.0	9.264327	-1.389197	3.214056	-0.049156	0.025542	-0.02448	-0.442383	0.222412	-0.684326
184.0	9.26404	-1.388299	3.215273	-0.051981	0.01589	-0.029996	-0.446777	0.222412	-0.686523
185.0	9.286461	-1.384624	3.224925	-0.057733	0.013897	-0.02676	-0.449463	0.231201	-0.682129
186.0	9.295659	-1.388104	3.203606	-0.051142	0.020518	-0.023208	-0.449463	0.231201	-0.68457
187.0	9.285939	-1.383402	3.226952	-0.050627	0.020128	-0.026316	-0.45166	0.229004	-0.682129
188.0	9.29612	-1.410525	3.210794	-0.05227	0.021425	-0.026911	-0.442383	0.226807	-0.684326
189.0	9.299496	-1.398911	3.265317	-0.051841	0.018876	-0.026105	-0.447021	0.229004	-0.689209
190.0	9.296667	-1.43289	3.217769	-0.053486	0.020172	-0.026702	-0.44458	0.226807	-0.682129
191.0	9.295357	-1.408326	3.213964	-0.061545	0.017876	-0.026907	-0.447021	0.229004	-0.689209
192.0	9.296251	-1.43179	3.219459	-0.058771	0.016694	-0.024633	-0.44458	0.226807	-0.686768
193.0	9.297123	-1.455259	3.225021	-0.056393	0.019129	-0.025137	-0.442627	0.229004	-0.68457
194.0	9.296744	-1.454953	3.226251	-0.055509	0.024841	-0.020275	-0.442383	0.226807	-0.684326
195.0	9.283138	-1.461377	3.196806	-0.050698	0.030812	-0.023215	-0.449219	0.226807	-0.682129
196.0	9.295502	-1.454034	3.230242	-0.042214	0.030557	-0.022208	-0.449219	0.224609	-0.681885
197.0	9.286507	-1.47335	3.259227	-0.036116	0.027854	-0.020715	-0.440186	0.226807	-0.682129
198.0	9.262391	-1.451549	3.247268	-0.026782	0.021462	-0.016093	-0.444824	0.229004	-0.691406
199.0	9.273735	-1.5025	3.235841	-0.025328	0.017106	-0.019507	-0.44458	0.224609	-0.686523
200.0	9.253359	-1.470169	3.276624	-0.01749	0.013989	-0.009511	-0.44458	0.226807	-0.686768
201.0	9.254178	-1.493377	3.282455	-0.00838	0.015551	-0.015489	-0.442383	0.224609	-0.681885
202.0	9.25385	-1.492339	3.28385	0.000738	0.015829	-0.009642	-0.447021	0.231201	-0.67749
203.0	9.253489	-1.491362	3.285313	0.008041	0.014369	-0.008369	-0.447021	0.229004	-0.686768
204.0	9.229539	-1.469247	3.272998	0.012023	0.014435	-0.006305	-0.444824	0.229004	-0.679932
205.0	9.260107	-1.445518	3.256459	0.016146	0.005681	-0.001533	-0.44458	0.224609	-0.679688
206.0	9.242125	-1.460985	3.306028	0.019909	0.001621	-0.001501	-0.437744	0.224609	-0.679688
207.0	9.260037	-1.444186	3.257249	0.016285	-0.003142	0.001174	-0.44458	0.224609	-0.681885
208.0	9.260125	-1.443825	3.25716	0.019073	-0.004302	0.003477	-0.444824	0.229004	-0.679932
209.0	9.246142	-1.426558	3.220935	0.013324	-0.00631	0.006705	-0.442627	0.229004	-0.686768
210.0	9.260235	-1.444077	3.256735	0.017526	-0.002117	0.010797	-0.449463	0.231201	-0.682129
211.0	9.261268	-1.468471	3.261462	0.023144	-0.003357	0.013442	-0.449219	0.229004	-0.686768
212.0	9.260131	-1.444998	3.256621	0.024073	-0.007341	0.013128	-0.442383	0.226807	-0.67749
213.0	9.30624	-1.463717	3.279182	0.022877	-0.00857	0.013365	-0.44458	0.224609	-0.681885
214.0	9.29443	-1.494892	3.252243	0.02805	-0.007282	0.015181	-0.444824	0.229004	-0.682129
215.0	9.271954	-1.498167	3.242946	0.04052	-0.007463	0.018261	-0.449219	0.226807	-0.682129
216.0	9.283656	-1.467725	3.269867	0.04719	0.001332	0.017936	-0.444824	0.229004	-0.68457
217.0	9.250334	-1.442933	3.278807	0.056028	-0.003615	0.023689	-0.451416	0.224609	-0.679688
218.0	9.264332	-1.460203	3.314971	0.048323	-0.009334	0.016402	-0.449219	0.226807	-0.688965
219.0	9.263376	-1.436475	3.309757	0.044648	-0.015176	0.021038	-0.444824	0.229004	-0.682129
220.0	9.249627	-1.419667	3.272683	0.040924	-0.020829	0.015817	-0.447021	0.229004	-0.682129
221.0	9.234994	-1.378635	3.230376	0.037909	-0.023805	0.011487	-0.44458	0.226807	-0.682129
222.0	9.259144	-1.399459	3.242679	0.044753	-0.02276	0.011906	-0.449219	0.226807	-0.682129
223.0	9.258598	-1.375104	3.236549	0.041522	-0.019073	0.008773	-0.447021	0.231201	-0.679932
224.0	9.323014	-1.377123	3.209038	0.036258	-0.022519	0.010879	-0.44458	0.226807	-0.679688
225.0	9.346009	-1.374253	3.216646	0.035286	-0.019616	0.013136	-0.444824	0.229004	-0.682129
226.0	9.346437	-1.37422	3.215418	0.028081	-0.015983	0.007962	-0.449219	0.226807	-0.684326
227.0	9.347757	-1.39824	3.219481	0.020053	-0.007456	0.010996	-0.44458	0.226807	-0.675049
228.0	9.324214	-1.377523	3.205378	0.016346	-0.002303	0.009007	-0.442627	0.231201	-0.679932
229.0	9.325166	-1.401742	3.210422	0.009814	0.002938	0.006687	-0.447021	0.226807	-0.684326
230.0	9.315612	-1.39784	3.232819	0.006803	-3.1e-05	0.002377	-0.447021	0.226807	-0.684326
231.0	9.29196	-1.376866	3.219148	0.008664	0.002792	0.004974	-0.446777	0.224609	-0.686523
232.0	9.270444	-1.403706	3.215151	0.015238	-0.001375	0.005333	-0.442627	0.229004	-0.682129
233.0	9.315554	-1.397879	3.23297	0.011955	-0.009556	0.000966	-0.449219	0.229004	-0.682129
234.0	9.283823	-1.396475	3.24555	0.016158	-0.005366	0.005025	-0.447021	0.226807	-0.679688
235.0	9.29233	-1.376466	3.218252	0.013858	-0.005657	0.0016	-0.446777	0.224609	-0.681885
236.0	9.283004	-1.372182	3.24016	0.008917	-0.002801	0.001821	-0.44458	0.226807	-0.682129
237.0	9.284054	-1.396085	3.245057	0.006319	0.001423	0.003506	-0.447266	0.233398	-0.68457
238.0	9.285037	-1.420046	3.25012	0.005169	0.001278	0.001794	-0.442627	0.229004	-0.682129
239.0	9.261404	-1.399107	3.236371	0.009101	0.000257	0.005796	-0.449219	0.226807	-0.679688
240.0	9.261381	-1.39929	3.236359	0.012847	-0.003823	0.005822	-0.446777	0.224609	-0.677246
241.0	9.258959	-1.434185	3.187495	0.019901	-0.009451	0.005046	-0.442139	0.220215	-0.681885
242.0	9.249822	-1.429926	3.208851	0.026426	-0.014701	0.007359	-0.449463	0.231201	-0.682129
243.0	9.303496	-1.404182	3.199149	0.030004	-0.01104	0.006607	-0.448975	0.222412	-0.677246
244.0	9.275425	-1.391508	3.265115	0.033538	-0.008457	0.007813	-0.44458	0.226807	-0.679688
245.0	9.327502	-1.424479	3.212101	0.03048	-0.012507	0.005466	-0.442627	0.229004	-0.686768
246.0	9.305186	-1.427129	3.202617	0.024096	-0.005273	0.009081	-0.451416	0.224609	-0.684326
247.0	9.320438	-1.467888	3.243432	0.021795	-0.005567	0.005659	-0.446777	0.224609	-0.677246
248.0	9.327659	-1.424331	3.211711	0.01895	0.004258	0.010484	-0.451416	0.226807	-0.679688
249.0	9.318965	-1.444419	3.239546	0.018512	0.006789	0.009653	-0.447021	0.231201	-0.682129
250.0	9.273711	-1.450415	3.222068	0.019866	0.000262	0.010178	-0.444824	0.231201	-0.675293
251.0	9.282942	-1.45487	3.20034	0.02503	0.001532	0.01196	-0.44458	0.226807	-0.682129
252.0	9.260233	-1.457874	3.191839	0.03235	0.001102	0.011226	-0.446777	0.222412	-0.688965
253.0	9.259946	-1.457728	3.192736	0.046738	0.005837	0.012896	-0.451416	0.224609	-0.667969
254.0	9.259555	-1.45743	3.194005	0.053526	0.005782	0.015242	-0.449463	0.231201	-0.682129
255.0	9.236758	-1.459711	3.186089	0.056634	0.00115	0.010457	-0.444824	0.231201	-0.675293
256.0	9.258022	-1.432595	3.190929	0.053142	-0.001598	0.01909	-0.442627	0.229004	-0.679932
257.0	9.282866	-1.394578	3.2491	0.052263	0.003457	0.017412	-0.44458	0.222412	-0.681885
258.0	9.246771	-1.404615	3.210342	0.052719	0.011724	0.021401	-0.446777	0.224609	-0.684326
259.0	9.299568	-1.379511	3.202948	0.04803	0.008987	0.018486	-0.446777	0.220215	-0.681885
260.0	9.290712	-1.399365	3.231265	0.043732	0.002649	0.018372	-0.449219	0.224609	-0.681885
261.0	9.266986	-1.378708	3.217675	0.041061	-0.005004	0.018838	-0.449219	0.226807	-0.682129
262.0	9.332863	-1.429727	3.201324	0.037244	-0.0128	0.017604	-0.449219	0.224609	-0.681885
263.0	9.310405	-1.433118	3.191922	0.042631	-0.007407	0.021357	-0.442139	0.218018	-0.679443
264.0	9.323486	-1.42644	3.222871	0.037993	-0.009066	0.016494	-0.448975	0.222412	-0.684326
265.0	9.314196	-1.422382	3.244518	0.03331	-0.011794	0.013597	-0.442139	0.222412	-0.681885
266.0	9.300269	-1.405909	3.207761	0.035645	-0.010439	0.015035	-0.447021	0.226807	-0.686768
267.0	9.314532	-1.422935	3.243312	0.032062	-0.01409	0.015805	-0.451416	0.224609	-0.686523
268.0	9.299697	-1.382904	3.20111	0.026422	-0.013886	0.015165	-0.44458	0.226807	-0.682129
269.0	9.310209	-1.411756	3.183421	0.025031	-0.008429	0.016576	-0.442383	0.226807	-0.684326
270.0	9.279302	-1.434667	3.201301	0.025123	-0.006293	0.012649	-0.447021	0.229004	-0.68457
271.0	9.304475	-1.396862	3.258484	0.022109	0.000486	0.013485	-0.447021	0.226807	-0.679688
272.0	9.301641	-1.432674	3.210429	0.023973	-0.006444	0.010942	-0.44458	0.222412	-0.679688
273.0	9.313921	-1.401981	3.235897	0.019197	-0.011302	0.011982	-0.451416	0.226807	-0.679688
274.0	9.324403	-1.430729	3.218315	0.018288	-0.007305	0.012268	-0.44458	0.222412	-0.679688
275.0	9.28782	-1.4175	3.172761	0.015039	-0.004666	0.011115	-0.449219	0.224609	-0.681885
276.0	9.298056	-1.446316	3.155844	0.019287	0.000583	0.013154	-0.449219	0.229004	-0.67749
277.0	9.301556	-1.435123	3.209581	0.024537	0.003968	0.010981	-0.44873	0.218018	-0.674805
278.0	9.265684	-1.445287	3.170092	0.028306	0.000926	0.009041	-0.449219	0.229004	-0.682129
279.0	9.300192	-1.411262	3.205633	0.036274	0.002063	0.011099	-0.44458	0.222412	-0.677246
280.0	9.299096	-1.387444	3.200892	0.03708	-0.004079	0.014729	-0.446777	0.222412	-0.681885
281.0	9.299994	-1.411377	3.206157	0.031971	-0.004264	0.011013	-0.44458	0.226807	-0.682129
282.0	9.308418	-1.39206	3.178887	0.023522	-0.003938	0.010074	-0.44458	0.226807	-0.684326
283.0	9.298778	-1.387985	3.20158	0.024287	0.009562	0.01406	-0.44458	0.222412	-0.684326
284.0	9.289642	-1.407931	3.230618	0.020425	0.021416	0.013212	-0.451416	0.224609	-0.681885
285.0	9.25315	-1.418598	3.192728	0.018084	0.020057	0.011773	-0.442139	0.222412	-0.681885
286.0	9.265486	-1.411877	3.225847	0.022469	0.017553	0.014617	-0.444336	0.220215	-0.681885
287.0	9.242546	-1.415239	3.217835	0.017404	-0.00226	0.010571	-0.446777	0.222412	-0.677246
288.0	9.296988	-1.414207	3.213621	0.024463	-0.006887	0.007824	-0.453613	0.222412	-0.679688
289.0	9.274455	-1.417194	3.204601	0.025367	-0.001134	0.012619	-0.449219	0.226807	-0.679688
290.0	9.287404	-1.410109	3.236098	0.033379	0.001057	0.012705	-0.451416	0.226807	-0.686768
291.0	9.310504	-1.431257	3.251205	0.033188	0.007731	0.013836	-0.448975	0.222412	-0.681885
292.0	9.28577	-1.386588	3.232807	0.035281	0.004934	0.013283	-0.447021	0.226807	-0.686768
293.0	9.299465	-1.403378	3.269966	0.032364	0.002912	0.016893	-0.451416	0.224609	-0.675049
294.0	9.294578	-1.391875	3.212072	0.029308	-0.001123	0.014604	-0.44458	0.222412	-0.686523
295.0	9.28494	-1.387887	3.234633	0.026733	0.003134	0.016265	-0.44458	0.224609	-0.681885
296.0	9.316448	-1.390072	3.222496	0.02593	0.009263	0.012614	-0.448975	0.222412	-0.679688
297.0	9.262472	-1.415425	3.232941	0.023541	0.006842	0.013145	-0.448975	0.222412	-0.684326
298.0	9.26114	-1.392	3.228763	0.017541	0.010671	0.009722	-0.447266	0.233398	-0.68457
299.0	9.28417	-1.413572	3.243859	0.013141	0.00224	0.013597	-0.449219	0.229004	-0.68457
300.0	9.293363	-1.41884	3.222053	0.014093	-0.000699	0.011357	-0.446777	0.220215	-0.684082
301.0	9.283848	-1.414918	3.244193	0.012898	-0.001908	0.011623	-0.444336	0.218018	-0.684082
302.0	9.315523	-1.417334	3.231503	0.013907	0.005977	0.01248	-0.451416	0.224609	-0.681885
303.0	9.305837	-1.413335	3.254165	0.010906	0.003013	0.00824	-0.44458	0.222412	-0.681885
304.0	9.293232	-1.444886	3.229253	0.011968	0.011962	0.007133	-0.44458	0.224609	-0.679688
305.0	9.291904	-1.421226	3.225207	0.009684	0.011675	0.003744	-0.446777	0.224609	-0.684326
306.0	9.268997	-1.42421	3.217258	0.010056	0.008077	0.00655	-0.446777	0.224609	-0.688965
307.0	9.281775	-1.417127	3.249156	0.008862	0.006869	0.006818	-0.448975	0.222412	-0.688965
308.0	9.258142	-1.396393	3.235458	0.007003	0.00405	0.004274	-0.447021	0.226807	-0.682129
309.0	9.303764	-1.414941	3.25939	0.00438	0.00725	0.007897	-0.448975	0.220215	-0.684082
310.0	9.266068	-1.378006	3.209495	-0.001136	0.009616	0.003357	-0.449219	0.224609	-0.686523
311.0	9.299322	-1.427984	3.207909	-0.001719	0.008957	0.0084	-0.449219	0.226807	-0.67749
312.0	9.266957	-1.426996	3.221895	-0.007711	0.012792	0.004977	-0.440186	0.226807	-0.67749
313.0	9.28902	-1.424891	3.23189	-0.004478	0.010139	0.006128	-0.451172	0.220215	-0.684082
314.0	9.276324	-1.456842	3.207079	-0.010523	0.01291	0.004667	-0.447021	0.226807	-0.682129
315.0	9.285208	-1.462185	3.186212	-0.006996	0.015464	0.005822	-0.444336	0.220215	-0.679443
316.0	9.306955	-1.460097	3.197128	-0.005218	0.027082	0.005557	-0.446777	0.224609	-0.686523
317.0	9.278466	-1.470718	3.271406	-0.009248	0.035859	0.000744	-0.449219	0.226807	-0.686768
318.0	9.264136	-1.478679	3.243631	-0.011878	0.03905	0.004356	-0.447021	0.226807	-0.684326
319.0	9.231208	-1.477389	3.259226	-0.014026	0.021275	-0.003239	-0.448975	0.222412	-0.684326
320.0	9.230699	-1.477553	3.260592	-0.009467	0.012092	-0.001507	-0.449463	0.231201	-0.68457
321.0	9.249297	-1.487098	3.217153	-0.008729	0.004901	0.004111	-0.44458	0.224609	-0.681885
322.0	9.249185	-1.487306	3.217379	0.002866	0.000945	-0.001652	-0.449219	0.229004	-0.68457
323.0	9.258614	-1.491746	3.195446	0.006761	-9.6e-05	0.002317	-0.446777	0.222412	-0.681885
324.0	9.236154	-1.494553	3.186281	0.01323	-0.005398	0.004631	-0.44458	0.224609	-0.681885
325.0	9.277711	-1.500901	3.150753	0.019698	-0.010701	0.006944	-0.439941	0.222412	-0.688965
326.0	9.268489	-1.4965	3.172065	0.020781	-0.011625	0.010598	-0.448975	0.222412	-0.684326
327.0	9.291279	-1.493902	3.180171	0.023352	-0.015889	0.008941	-0.449219	0.224609	-0.679688
328.0	9.301921	-1.522515	3.162246	0.020484	-0.016836	0.010591	-0.449219	0.224609	-0.677246
329.0	9.310762	-1.503656	3.134003	0.021492	-0.008959	0.011435	-0.446777	0.222412	-0.684326
330.0	9.314632	-1.491959	3.186329	0.024484	-0.015757	0.010624	-0.449219	0.224609	-0.684326
331.0	9.323574	-1.472994	3.157837	0.021671	-0.015639	0.010312	-0.455811	0.222412	-0.679688
332.0	9.323059	-1.44952	3.15143	0.021193	-0.014173	0.011424	-0.447021	0.229004	-0.679932
333.0	9.332786	-1.454413	3.128339	0.018912	-0.01446	0.008036	-0.449219	0.224609	-0.681885
334.0	9.32744	-1.437844	3.202321	0.012629	-0.015827	0.004613	-0.451416	0.224609	-0.686523
335.0	9.345656	-1.423606	3.152107	0.012158	-0.004602	0.010765	-0.449219	0.224609	-0.684326
336.0	9.314634	-1.445906	3.1701	0.008077	-0.006639	0.002881	-0.442383	0.226807	-0.672852
337.0	9.301634	-1.453497	3.138647	0.004315	-0.003577	0.004806	-0.449219	0.224609	-0.686523
338.0	9.302509	-1.477495	3.143741	0.008794	-0.003966	0.003725	-0.444824	0.229004	-0.68457
339.0	9.270709	-1.475796	3.156355	0.008021	-0.007704	0.004842	-0.446777	0.224609	-0.686523
340.0	9.280346	-1.480478	3.133597	0.011782	-0.010768	0.002915	-0.44458	0.226807	-0.686768
341.0	9.285125	-1.492135	3.191366	0.012499	-0.008094	0.003758	-0.451416	0.226807	-0.682129
342.0	9.279894	-1.456618	3.127184	0.01555	-0.004074	0.006022	-0.453613	0.224609	-0.679688
343.0	9.293867	-1.472955	3.163502	0.015604	-0.003013	0.004058	-0.451172	0.222412	-0.684326
344.0	9.271454	-1.475827	3.154152	0.013582	-0.009018	0.007409	-0.449219	0.224609	-0.681885
345.0	9.307308	-1.465864	3.193458	0.014001	-0.011552	0.008255	-0.447021	0.226807	-0.682129
346.0	9.316979	-1.470844	3.170444	0.008858	-0.012775	0.006531	-0.442383	0.226807	-0.684326
347.0	9.316431	-1.44749	3.164089	0.009522	-0.011163	0.009336	-0.44458	0.222412	-0.679688
348.0	9.30433	-1.479045	3.137618	0.0113	-0.009306	0.004022	-0.446777	0.220215	-0.679443
349.0	9.303739	-1.455355	3.13154	0.00963	-0.00904	0.005409	-0.44458	0.226807	-0.688965
350.0	9.327263	-1.47668	3.145196	0.005153	-0.008648	0.006494	-0.446777	0.224609	-0.686523
351.0	9.295367	-1.475118	3.158083	0.008615	0.002706	0.004827	-0.448975	0.222412	-0.684326
352.0	9.308548	-1.467623	3.189032	0.005791	-0.006932	-0.000508	-0.446777	0.220215	-0.681885
353.0	9.286934	-1.49444	3.185015	0.000975	-0.003046	0.007576	-0.45166	0.229004	-0.679932
354.0	9.272249	-1.454621	3.142842	0.002508	-0.005335	0.000305	-0.446777	0.222412	-0.679688
355.0	9.295777	-1.475545	3.156676	0.000174	-0.006681	-0.001112	-0.444824	0.229004	-0.679932
356.0	9.286581	-1.470759	3.178255	0.003702	-0.004132	3.2e-05	-0.451416	0.226807	-0.679688
357.0	9.286729	-1.470676	3.177861	0.002508	-0.005336	0.000305	-0.448975	0.220215	-0.679443
358.0	9.286943	-1.470597	3.177273	0.001787	-0.008011	-0.000539	-0.449219	0.224609	-0.675049
359.0	9.308885	-1.444138	3.180162	-0.00041	-0.007335	0.003927	-0.448975	0.222412	-0.677246
360.0	9.309088	-1.444334	3.179479	-0.005443	-0.006429	-0.001715	-0.453857	0.231201	-0.679932
361.0	9.30922	-1.444403	3.179061	-0.004003	-0.001078	-2.9e-05	-0.449219	0.226807	-0.67749
362.0	9.278143	-1.466387	3.197452	-0.00837	0.001441	-0.002865	-0.447021	0.229004	-0.68457
363.0	9.310814	-1.492092	3.189847	-0.006036	0.002786	-0.001448	-0.448975	0.222412	-0.684326
364.0	9.278137	-1.466421	3.197453	-0.007477	-0.002565	-0.003136	-0.447021	0.229004	-0.682129
365.0	9.27531	-1.502147	3.149378	-0.006949	-0.002974	-0.006214	-0.446777	0.224609	-0.677246
366.0	9.266214	-1.497191	3.170777	-0.004496	-0.009373	-0.00395	-0.445068	0.233398	-0.682373
367.0	9.275836	-1.501564	3.148106	-0.000192	-0.003084	-0.003922	-0.453857	0.229004	-0.686768
368.0	9.265844	-1.472592	3.164479	0.008707	-0.004933	-0.004135	-0.446777	0.224609	-0.684326
369.0	9.25755	-1.491344	3.191345	0.003402	-0.009342	3.2e-05	-0.451172	0.222412	-0.681885
370.0	9.279695	-1.464401	3.193856	0.013667	-0.016669	-0.00157	-0.449219	0.229004	-0.67749
371.0	9.267059	-1.471382	3.161484	0.011998	-0.016403	-0.000184	-0.453857	0.229004	-0.68457
372.0	9.290179	-1.468095	3.168957	0.010136	-0.019223	-0.002719	-0.45166	0.231201	-0.67749
373.0	9.299392	-1.448431	3.139752	0.010554	-0.02176	-0.001876	-0.449219	0.226807	-0.679688
374.0	9.300107	-1.448079	3.137796	0.013254	-0.024014	0.002344	-0.449219	0.224609	-0.686523
375.0	9.301599	-1.471705	3.141279	0.013973	-0.021339	0.003185	-0.45166	0.229004	-0.682129
376.0	9.299163	-1.507256	3.091972	0.014131	-0.018154	-0.002703	-0.451416	0.226807	-0.682129
377.0	9.302767	-1.470834	3.138228	0.018695	-0.017588	0.004048	-0.447021	0.226807	-0.679688
378.0	9.339868	-1.484108	3.182155	0.020307	-0.018922	0.004615	-0.453613	0.224609	-0.675049
379.0	9.325528	-1.443845	3.138856	0.017497	-0.018797	0.004315	-0.453613	0.226807	-0.686768
380.0	9.326893	-1.467429	3.142755	0.016354	-0.018942	0.002625	-0.451416	0.226807	-0.67749
381.0	9.351535	-1.511986	3.161293	0.016184	-0.012256	0.003739	-0.449219	0.229004	-0.67749
382.0	9.304353	-1.446018	3.126137	0.011512	-0.014951	0.000911	-0.449219	0.224609	-0.677246
383.0	9.327976	-1.46677	3.139848	0.018404	-0.00316	0.004302	-0.447021	0.226807	-0.679688
384.0	9.337284	-1.471124	3.117945	0.023651	0.00018	0.002083	-0.448975	0.222412	-0.681885
385.0	9.304433	-1.44482	3.126452	0.033097	0.007686	0.003803	-0.449219	0.224609	-0.679688
386.0	9.285745	-1.4346	3.171148	0.030621	-0.005568	0.001277	-0.449463	0.231201	-0.679932
387.0	9.317888	-1.435917	3.157436	0.027821	-0.015316	0.005753	-0.449219	0.229004	-0.68457
388.0	9.323724	-1.452753	3.080992	0.024655	-0.021467	0.007421	-0.458008	0.224609	-0.677246
389.0	9.338263	-1.468952	3.116038	0.026099	-0.016113	0.009097	-0.451416	0.226807	-0.682129
390.0	9.338455	-1.469039	3.115423	0.027849	-0.005542	0.010768	-0.451416	0.226807	-0.675049
391.0	9.307348	-1.490976	3.134226	0.030958	-0.000461	0.01105	-0.453857	0.229004	-0.67749
392.0	9.306354	-1.467287	3.129241	0.033291	0.000881	0.012452	-0.447021	0.231201	-0.67749
393.0	9.306336	-1.467232	3.12932	0.036002	-0.010104	0.009674	-0.453613	0.224609	-0.677246
394.0	9.305736	-1.443327	3.123263	0.030806	-0.012382	0.009933	-0.45166	0.229004	-0.679932
395.0	9.329365	-1.464115	3.136959	0.035271	-0.012794	0.008823	-0.451172	0.222412	-0.681885
396.0	9.360566	-1.441945	3.11797	0.040767	-0.005313	0.008538	-0.453613	0.226807	-0.67749
397.0	9.329403	-1.463331	3.137213	0.041325	0.004054	0.010471	-0.45166	0.229004	-0.679932
398.0	9.329135	-1.462828	3.138245	0.043036	0.004829	0.007105	-0.453613	0.222412	-0.677246
399.0	9.328867	-1.462323	3.139275	0.041315	0.004041	0.010455	-0.449219	0.226807	-0.675049
400.0	9.305262	-1.441228	3.125643	0.03887	0.000575	0.012971	-0.448975	0.220215	-0.686523
401.0	9.359531	-1.440139	3.121911	0.037108	-0.000138	0.006523	-0.451172	0.220215	-0.674805
402.0	9.304886	-1.440691	3.127009	0.036369	0.005916	0.012655	-0.449219	0.224609	-0.677246
403.0	9.305256	-1.464389	3.13386	0.039945	0.00951	0.011802	-0.451416	0.226807	-0.675049
404.0	9.318079	-1.456456	3.166236	0.0388	0.00936	0.010113	-0.449219	0.224609	-0.684326
405.0	9.271804	-1.438036	3.144106	0.035739	0.005332	0.007877	-0.451416	0.224609	-0.672607
406.0	9.312666	-1.44467	3.109877	0.038483	0.004133	0.010119	-0.449219	0.229004	-0.67749
407.0	9.325635	-1.436663	3.141834	0.035263	0.006801	0.008976	-0.453369	0.220215	-0.677246
408.0	9.294307	-1.457878	3.161563	0.036666	0.002355	0.005634	-0.449219	0.224609	-0.677246
409.0	9.280044	-1.441603	3.125787	0.032816	0.003341	0.011497	-0.453613	0.226807	-0.686768
410.0	9.302365	-1.438559	3.13548	0.033391	0.003965	0.006451	-0.451416	0.226807	-0.679688
411.0	9.302179	-1.438083	3.13625	0.031056	0.002619	0.005051	-0.453613	0.222412	-0.681885
412.0	9.324606	-1.434766	3.145753	0.029861	0.001418	0.005332	-0.451416	0.224609	-0.679688
413.0	9.301205	-1.413531	3.131578	0.02628	-0.002177	0.006186	-0.453613	0.224609	-0.672607
414.0	9.315146	-1.429291	3.168515	0.026534	0.001981	0.008118	-0.449219	0.226807	-0.679688
415.0	9.309594	-1.394326	3.104484	0.018871	-0.003668	0.001148	-0.451172	0.222412	-0.679688
416.0	9.342311	-1.419796	3.096887	0.018815	-0.004723	0.003112	-0.446777	0.220215	-0.672607
417.0	9.297854	-1.449044	3.085175	0.021711	0.005991	0.006405	-0.446777	0.222412	-0.675049
418.0	9.324207	-1.433275	3.147612	0.015856	0.002112	0.003907	-0.453613	0.222412	-0.679688
419.0	9.301568	-1.435933	3.139047	0.01793	-0.00071	0.003364	-0.44873	0.21582	-0.677002
420.0	9.320149	-1.445639	3.09512	0.015599	-0.002051	0.001971	-0.453613	0.224609	-0.679688
421.0	9.300868	-1.411654	3.133426	0.014406	-0.003248	0.002258	-0.453613	0.222412	-0.684326
422.0	9.320219	-1.44504	3.095189	0.017983	0.000339	0.001394	-0.455566	0.218018	-0.674805
423.0	9.310175	-1.415888	3.111695	0.012854	-0.000859	-0.000277	-0.448975	0.222412	-0.679688
424.0	9.310903	-1.439366	3.117605	0.01466	0.000911	0.004187	-0.448975	0.222412	-0.675049
425.0	9.31012	-1.415518	3.112027	0.01	-0.001769	0.001407	-0.455811	0.220215	-0.679443
426.0	9.334249	-1.459866	3.132293	0.008862	-0.001913	-0.000271	-0.45166	0.229004	-0.682129
427.0	9.328774	-1.425061	3.06797	0.008394	-0.00043	0.000839	-0.453369	0.220215	-0.679443
428.0	9.356011	-1.43282	3.135797	0.011503	0.004639	0.001083	-0.453369	0.220215	-0.679443
429.0	9.319264	-1.419546	3.090891	0.007567	0.004639	-0.000875	-0.453613	0.224609	-0.677246
430.0	9.319829	-1.443161	3.09724	0.006576	0.006554	0.00331	-0.453613	0.222412	-0.677246
431.0	9.351507	-1.445185	3.084693	0.003632	0.004638	-0.002832	-0.455811	0.220215	-0.679443
432.0	9.319523	-1.442832	3.098313	0.008649	0.003731	0.002768	-0.453613	0.222412	-0.679688
433.0	9.310105	-1.437678	3.120767	0.006374	0.003442	-0.000587	-0.455811	0.224609	-0.679688
434.0	9.341943	-1.439624	3.107782	0.003266	-0.001627	-0.00083	-0.451416	0.226807	-0.682129
435.0	9.31862	-1.41849	3.093316	0.005237	0.003298	-0.002265	-0.455811	0.220215	-0.679443
436.0	9.329336	-1.470579	3.083208	0.003632	0.004637	-0.002833	-0.456055	0.226807	-0.684326
437.0	9.319124	-1.441546	3.100112	0.005493	0.007459	-0.000336	-0.455811	0.222412	-0.675049
438.0	9.34155	-1.438301	3.109574	-0.00144	0.004491	-0.006468	-0.451416	0.224609	-0.681885
439.0	9.32812	-1.445964	3.079293	0.004968	0.007892	0.002739	-0.453613	0.222412	-0.681885
440.0	9.318688	-1.44068	3.101824	-0.003768	0.003152	-0.007857	-0.449219	0.224609	-0.677246
441.0	9.350474	-1.442402	3.089124	0.003163	0.006119	-0.001725	-0.451416	0.224609	-0.675049
442.0	9.296628	-1.466569	3.099775	0.001557	0.007458	-0.002294	-0.449219	0.229004	-0.68457
443.0	9.326796	-1.421031	3.075841	0.003162	0.006119	-0.001725	-0.453613	0.222412	-0.681885
444.0	9.31892	-1.463156	3.109716	-0.002687	0.002245	-0.004213	-0.453613	0.226807	-0.67749
445.0	9.327428	-1.444183	3.082223	-0.000358	0.003584	-0.002825	-0.455811	0.224609	-0.681885
446.0	9.308716	-1.433939	3.126626	-0.000827	0.005067	-0.001716	-0.453857	0.229004	-0.68457
447.0	9.30547	-1.470081	3.079883	-0.000915	0.004057	-0.009546	-0.453369	0.21582	-0.684082
448.0	9.317851	-1.437873	3.10564	0.002748	0.008652	-0.002584	-0.446777	0.224609	-0.693604
449.0	9.318475	-1.461181	3.111978	0.0041	0.003152	-0.003943	-0.451416	0.224609	-0.681885
450.0	9.295895	-1.463593	3.103378	0.002908	0.001957	-0.003654	-0.451172	0.222412	-0.679688
451.0	9.305247	-1.468132	3.081485	0.004983	-0.000865	-0.004193	-0.455811	0.224609	-0.684326
452.0	9.317816	-1.435936	3.106639	0.00778	-0.001009	-0.003914	-0.455811	0.222412	-0.681885
453.0	9.32798	-1.464074	3.090399	0.007779	-0.001009	-0.003914	-0.450928	0.213623	-0.679199
454.0	9.32735	-1.439756	3.08453	0.00426	-0.003544	-0.005013	-0.460205	0.218018	-0.679443
455.0	9.304133	-1.418442	3.069801	0.010052	-0.000719	-0.000559	-0.460205	0.222412	-0.686523
456.0	9.340662	-1.430867	3.115665	0.006481	0.00554	-0.004524	-0.451416	0.224609	-0.681885
457.0	9.318833	-1.456879	3.112922	0.010107	0.00033	-0.002527	-0.451416	0.224609	-0.677246
458.0	9.318156	-1.43259	3.107166	0.01099	-0.003687	-0.002777	-0.456055	0.226807	-0.675049
459.0	9.350115	-1.434288	3.093984	0.007254	-0.000576	-0.00084	-0.453613	0.222412	-0.677246
460.0	9.327571	-1.436749	3.085263	0.0085	0.001667	-0.003098	-0.451172	0.222412	-0.679688
461.0	9.318223	-1.431278	3.107568	0.010773	0.001958	0.000257	-0.453613	0.222412	-0.681885
462.0	9.319679	-1.478297	3.119529	0.009222	0.004345	-0.002281	-0.453369	0.220215	-0.679443
463.0	9.336641	-1.440771	3.06448	0.011384	0.002538	0.00501	-0.453369	0.21582	-0.684082
464.0	9.327972	-1.459338	3.092663	0.009167	0.003295	-0.000314	-0.449219	0.226807	-0.67749
465.0	9.317824	-1.430329	3.109202	0.006784	0.000906	0.000267	-0.449219	0.224609	-0.677246
466.0	9.310031	-1.472451	3.142896	0.013982	-0.000721	0.001394	-0.446777	0.224609	-0.681885
467.0	9.318627	-1.453461	3.115136	0.01326	-0.0034	0.000576	-0.451416	0.224609	-0.679688
468.0	9.317973	-1.429426	3.10917	0.012068	-0.004595	0.000866	-0.462646	0.222412	-0.679688
469.0	9.318023	-1.429124	3.109159	0.012376	0.000616	0.000822	-0.453613	0.224609	-0.679688
470.0	9.327308	-1.433942	3.087365	0.015116	-0.000578	0.003068	-0.448975	0.220215	-0.674805
471.0	9.331979	-1.444403	3.146195	0.017912	-0.000724	0.003344	-0.455811	0.222412	-0.684326
472.0	9.340468	-1.425608	3.118657	0.014646	0.000905	0.004173	-0.458008	0.222412	-0.681885
473.0	9.359737	-1.459362	3.08088	0.014231	0.003437	0.003311	-0.455811	0.224609	-0.679688
474.0	9.326967	-1.433353	3.088666	0.015836	0.002097	0.003879	-0.455811	0.222412	-0.681885
475.0	9.327546	-1.456923	3.095085	0.017748	0.005968	0.004401	-0.455811	0.222412	-0.675049
476.0	9.3266	-1.433058	3.089913	0.018629	0.001949	0.004154	-0.449219	0.226807	-0.682129
477.0	9.308673	-1.446299	3.139998	0.016771	-0.000877	0.001662	-0.460449	0.224609	-0.684326
478.0	9.326438	-1.432626	3.0906	0.019294	0.003578	0.006933	-0.451172	0.220215	-0.681885
479.0	9.307759	-1.422426	3.134724	0.015937	-0.005652	0.004783	-0.453613	0.224609	-0.684326
480.0	9.31784	-1.451104	3.118587	0.02023	0.000604	0.004716	-0.453857	0.229004	-0.679932
481.0	9.280509	-1.414536	3.067293	0.018261	-0.004316	0.006163	-0.455811	0.220215	-0.679443
482.0	9.325588	-1.408825	3.085105	0.018513	-0.000153	0.008081	-0.455811	0.222412	-0.679688
483.0	9.326216	-1.432669	3.091252	0.019703	0.001038	0.007785	-0.453369	0.220215	-0.679443
484.0	9.294234	-1.430384	3.104729	0.02302	0.000448	0.004983	-0.449219	0.224609	-0.681885
485.0	9.316005	-1.403602	3.107951	0.022241	-0.003278	0.006139	-0.453369	0.218018	-0.679443
486.0	9.339278	-1.424355	3.122791	0.017374	-0.000304	0.006398	-0.455566	0.218018	-0.679443
487.0	9.329982	-1.419249	3.144713	0.013135	-0.005514	0.0045	-0.44873	0.218018	-0.679443
488.0	9.358045	-1.434653	3.078375	0.010809	-0.006852	0.003119	-0.451172	0.220215	-0.677246
489.0	9.34881	-1.429521	3.100127	0.012253	-0.001496	0.00474	-0.453369	0.218018	-0.681641
490.0	9.334722	-1.413637	3.063805	0.017127	0.00536	-0.000379	-0.451172	0.222412	-0.681885
491.0	9.325921	-1.431574	3.092649	0.020229	0.01042	-0.000161	-0.451172	0.220215	-0.681885
492.0	9.337453	-1.375412	3.112761	0.021577	0.004912	-0.001509	-0.451172	0.222412	-0.677246
493.0	9.307043	-1.419881	3.138	0.017227	-0.002386	0.000536	-0.453369	0.220215	-0.681885
494.0	9.329053	-1.392961	3.140551	0.007759	-0.010871	0.000931	-0.453369	0.220215	-0.679443
495.0	9.339357	-1.4218	3.123717	0.01075	-0.0079	0.005088	-0.453369	0.220215	-0.679443
496.0	9.33542	-1.435174	3.070822	0.003047	0.004016	0.002187	-0.451416	0.226807	-0.67749
497.0	9.329774	-1.416821	3.146424	0.009665	0.011605	0.003485	-0.455566	0.218018	-0.679443
498.0	9.297571	-1.414561	3.160518	0.003825	0.007739	0.001025	-0.455566	0.218018	-0.681641
499.0	9.306707	-1.419839	3.139017	0.000666	0.001634	0.002778	-0.458008	0.220215	-0.677246
500.0	9.320058	-1.411917	3.169478	0.003306	-0.010425	0.00206	-0.453613	0.224609	-0.672607
501.0	9.316413	-1.425171	3.115792	0.003362	-0.009381	9e-05	-0.460205	0.222412	-0.679688
502.0	9.339209	-1.421909	3.124112	0.004253	-0.00357	-0.005012	-0.453613	0.222412	-0.681885
503.0	9.308006	-1.443197	3.143402	0.007228	0.008178	0.006045	-0.455566	0.218018	-0.693359
504.0	9.339679	-1.445379	3.130912	0.004095	0.003128	-0.003964	-0.455811	0.220215	-0.679443
505.0	9.30694	-1.419114	3.138652	0.011012	0.006096	0.002138	-0.458008	0.222412	-0.679688
506.0	9.298924	-1.461178	3.173025	0.011424	0.003563	0.003002	-0.451172	0.218018	-0.679443
507.0	9.339269	-1.444874	3.132368	0.009511	-0.000306	0.002491	-0.453369	0.220215	-0.679443
508.0	9.284754	-1.445418	3.136905	0.014216	0.003411	0.003273	-0.453613	0.222412	-0.675049
509.0	9.316437	-1.447546	3.124428	0.019331	0.004595	0.004921	-0.451172	0.218018	-0.677002
510.0	9.28368	-1.421329	3.132181	0.020266	0.001617	0.002711	-0.451172	0.222412	-0.684326
511.0	9.306918	-1.441704	3.147307	0.023468	-0.001068	0.003847	-0.453369	0.220215	-0.684082
512.0	9.315469	-1.422794	3.119698	0.020732	0.000125	0.001603	-0.451172	0.218018	-0.679443
513.0	9.328632	-1.414374	3.150907	0.028056	0.000558	0.008563	-0.451172	0.218018	-0.681641
514.0	9.314544	-1.398793	3.114489	0.020148	-0.000476	0.006643	-0.448975	0.220215	-0.677246
515.0	9.315973	-1.446035	3.126511	0.016691	-0.00196	0.003595	-0.453613	0.222412	-0.684326
516.0	9.292632	-1.425188	3.111903	0.018545	0.000864	0.00607	-0.451172	0.222412	-0.681885
517.0	9.337568	-1.41923	3.130228	0.020513	0.005772	0.004603	-0.453369	0.220215	-0.681885
518.0	9.314793	-1.421821	3.122158	0.018246	0.005476	0.001258	-0.449219	0.224609	-0.677246
519.0	9.304521	-1.392551	3.139016	0.021701	0.006957	0.0043	-0.453369	0.21582	-0.681641
520.0	9.327526	-1.413163	3.154725	0.016062	0.006222	0.00573	-0.453369	0.218018	-0.681641
521.0	9.335868	-1.394625	3.127601	0.016585	0.005773	0.002655	-0.455811	0.224609	-0.681885
522.0	9.331789	-1.407792	3.07541	0.014673	0.001905	0.002151	-0.451172	0.222412	-0.681885
523.0	9.32695	-1.412499	3.156724	0.014984	0.007114	0.002083	-0.453613	0.222412	-0.679688
524.0	9.313444	-1.4205	3.126782	0.013326	0.007414	0.003483	-0.453613	0.224609	-0.675049
525.0	9.322527	-1.42552	3.10565	0.01545	0.005621	0.000979	-0.451172	0.222412	-0.677246
526.0	9.299742	-1.428273	3.09755	0.016057	0.006217	0.005722	-0.453613	0.222412	-0.677246
527.0	9.29881	-1.404441	3.092287	0.017049	0.004276	0.001546	-0.453369	0.220215	-0.681885
528.0	9.302631	-1.390521	3.145511	0.020716	9.8e-05	0.001582	-0.448975	0.220215	-0.679443
529.0	9.289999	-1.422153	3.121139	0.019254	0.003527	0.006856	-0.453369	0.218018	-0.679443
530.0	9.344246	-1.421393	3.117577	0.017047	0.004272	0.001541	-0.449219	0.224609	-0.67041
531.0	9.32151	-1.42406	3.109371	0.019309	0.004565	0.004881	-0.455811	0.220215	-0.679443
532.0	9.333815	-1.392066	3.134861	0.016519	0.00472	0.004611	-0.448975	0.222412	-0.672607
533.0	9.311823	-1.418479	3.132522	0.014666	0.001894	0.00214	-0.455811	0.220215	-0.679443
534.0	9.33419	-1.415335	3.142045	0.016108	0.007248	0.003736	-0.451172	0.222412	-0.677246
535.0	9.334618	-1.438858	3.148957	0.013319	0.007404	0.003467	-0.451172	0.220215	-0.679443
536.0	9.310367	-1.394278	3.128972	0.016164	0.008285	0.001761	-0.448975	0.222412	-0.679688
537.0	9.311534	-1.441482	3.141799	0.013669	0.003833	0.00631	-0.453369	0.218018	-0.681641
538.0	9.319235	-1.399382	3.108512	0.013843	0.006949	0.000391	-0.451172	0.220215	-0.679443
539.0	9.342254	-1.419755	3.124286	0.014973	0.007095	0.00206	-0.457764	0.21582	-0.690918
540.0	9.310092	-1.417282	3.138204	0.011658	0.007705	0.004863	-0.448975	0.220215	-0.679443
541.0	9.34099	-1.395956	3.119994	0.012184	0.007251	0.00179	-0.453369	0.21582	-0.677002
542.0	9.309527	-1.417184	3.139922	0.008869	0.007862	0.004594	-0.451172	0.220215	-0.677246
543.0	9.327844	-1.427954	3.097095	0.015165	0.010221	0.005924	-0.453369	0.218018	-0.681641
544.0	9.318101	-1.422611	3.120232	0.015223	0.011258	0.00395	-0.451416	0.224609	-0.681885
545.0	9.327096	-1.427785	3.099424	0.010583	0.008591	0.001216	-0.446777	0.222412	-0.681885
546.0	9.29423	-1.401501	3.107352	0.01337	0.008431	0.001482	-0.453613	0.222412	-0.677246
547.0	9.307826	-1.41664	3.145207	0.0145	0.008578	0.003151	-0.457764	0.218018	-0.679443
548.0	9.326206	-1.427167	3.102388	0.014499	0.008577	0.00315	-0.446777	0.222412	-0.681885
549.0	9.30641	-1.392758	3.141396	0.013152	0.014087	0.004469	-0.453613	0.224609	-0.679688
550.0	9.325362	-1.427109	3.10495	0.011242	0.010226	0.003978	-0.446777	0.224609	-0.679688
551.0	9.306234	-1.416384	3.15003	0.017535	0.012581	0.005305	-0.453369	0.220215	-0.684082
552.0	9.305821	-1.41621	3.151329	0.010171	0.011113	0.000332	-0.453369	0.220215	-0.679443
553.0	9.337925	-1.442112	3.145895	0.016655	0.016598	0.005522	-0.453369	0.220215	-0.679443
554.0	9.336748	-1.418233	3.141388	0.016931	0.011973	0.000559	-0.451172	0.220215	-0.684082
555.0	9.3457	-1.423274	3.120866	0.016401	0.012427	0.003629	-0.453369	0.218018	-0.681641
556.0	9.303327	-1.391702	3.150981	0.015212	0.011242	0.003932	-0.451172	0.220215	-0.677246
557.0	9.31366	-1.444137	3.14253	0.016868	0.010932	0.002529	-0.453369	0.220215	-0.681885
558.0	9.334364	-1.393809	3.140715	0.01546	0.015406	0.005815	-0.448975	0.220215	-0.679443
559.0	9.335255	-1.440827	3.154396	0.013013	0.011978	-0.001386	-0.455811	0.220215	-0.681885
560.0	9.302286	-1.414497	3.162514	0.009636	0.011559	0.00339	-0.453369	0.21582	-0.679443
561.0	9.311224	-1.420017	3.141869	0.011891	0.011854	0.006727	-0.450928	0.213623	-0.679199
562.0	9.288382	-1.422928	3.13388	0.014238	0.004393	0.001249	-0.444336	0.218018	-0.681641
563.0	9.323855	-1.411357	3.174354	0.012171	0.007229	0.00177	-0.453369	0.220215	-0.672607
564.0	9.301696	-1.437799	3.172477	0.015613	0.008706	0.0048	-0.44873	0.218018	-0.681641
565.0	9.28692	-1.398861	3.130314	0.012109	0.006192	0.003743	-0.455811	0.220215	-0.679443
566.0	9.33235	-1.416669	3.155133	0.012766	0.007831	0.006505	-0.451172	0.220215	-0.679443
567.0	9.300221	-1.414213	3.16871	0.011859	0.002024	0.001858	-0.453369	0.218018	-0.677002
568.0	9.310084	-1.443066	3.1536	0.007787	0.008731	0.000923	-0.455811	0.220215	-0.677246
569.0	9.309104	-1.419341	3.148449	0.01561	0.008701	0.004795	-0.455566	0.218018	-0.677002
570.0	9.308133	-1.395771	3.143207	0.010448	0.006499	0.00514	-0.455811	0.222412	-0.679688
571.0	9.33112	-1.416537	3.158827	0.007415	0.002495	0.00299	-0.451172	0.222412	-0.681885
572.0	9.326587	-1.406787	3.100367	0.011326	0.00248	0.004926	-0.450928	0.21582	-0.681641
573.0	9.27697	-1.440834	3.169946	0.008851	0.007842	0.004563	-0.457764	0.215576	-0.674805
574.0	9.331117	-1.44047	3.166778	0.013231	0.006333	0.005404	-0.451172	0.220215	-0.677246
575.0	9.317053	-1.425289	3.130624	0.007724	0.007693	0.002893	-0.453369	0.220215	-0.684082
576.0	9.326201	-1.43063	3.109541	0.013762	0.005873	0.002333	-0.446777	0.220215	-0.679443
577.0	9.325955	-1.430632	3.110278	0.007661	0.006659	0.004867	-0.451172	0.218018	-0.681641
578.0	9.31696	-1.448813	3.139036	0.013761	0.005871	0.002332	-0.455811	0.224609	-0.677246
579.0	9.307258	-1.443178	3.161878	0.011286	0.011233	0.001966	-0.455811	0.220215	-0.679443
580.0	9.306845	-1.443156	3.163104	0.010754	0.011692	0.005034	-0.448975	0.220215	-0.681885
581.0	9.337761	-1.422079	3.145082	0.010505	0.007525	0.003156	-0.455811	0.220215	-0.679443
582.0	9.274307	-1.440825	3.177733	0.008066	0.004132	0.005747	-0.44873	0.218018	-0.681641
583.0	9.315522	-1.448846	3.143284	0.012261	-0.000512	0.002736	-0.455811	0.220215	-0.681885
584.0	9.324783	-1.454466	3.121784	0.013101	0.004261	0.009348	-0.448975	0.220215	-0.677246
585.0	9.313792	-1.402179	3.132009	0.015476	0.00662	0.00873	-0.453369	0.21582	-0.679443
586.0	9.327809	-1.440999	3.17627	0.015256	0.012241	0.001916	-0.451172	0.220215	-0.677246
587.0	9.314291	-1.4493	3.146721	0.015129	0.010175	0.005867	-0.453369	0.220215	-0.677246
588.0	9.304536	-1.443908	3.169547	0.013223	0.006322	0.005391	-0.451172	0.220215	-0.677246
589.0	9.339278	-1.409036	3.203798	0.013629	0.003796	0.006275	-0.451172	0.222412	-0.679688
590.0	9.325932	-1.417738	3.173575	0.007593	0.005621	0.006833	-0.453369	0.220215	-0.681885
591.0	9.322602	-1.455652	3.127738	0.007592	0.00562	0.006832	-0.453369	0.218018	-0.681641
592.0	9.289732	-1.429755	3.135237	0.010031	0.00901	0.004236	-0.451172	0.220215	-0.679443
593.0	9.343742	-1.429528	3.13254	0.0059	0.014686	0.005265	-0.451172	0.218018	-0.679443
594.0	9.307041	-1.417562	3.087845	0.009559	0.010501	0.005326	-0.450928	0.21582	-0.681641
595.0	9.323984	-1.41881	3.178818	0.014781	0.013721	0.002996	-0.453369	0.218018	-0.681641
596.0	9.309959	-1.403541	3.142776	0.008594	0.003663	0.002672	-0.451172	0.222412	-0.684326
597.0	9.300494	-1.398133	3.164696	0.003125	-0.003723	0.00313	-0.453369	0.218018	-0.681641
598.0	9.319417	-1.409345	3.1207	0.000343	-0.003555	0.002863	-0.453369	0.218018	-0.684082
599.0	9.341827	-1.406816	3.129789	-0.000758	0.00612	0.006028	-0.451172	0.220215	-0.681885
600.0	9.287649	-1.431215	3.140736	0.001275	0.012032	0.002546	-0.450928	0.21582	-0.677002
601.0	9.300837	-1.446622	3.179153	0.002709	0.017374	0.004105	-0.455566	0.218018	-0.677002
602.0	9.277228	-1.426185	3.165283	-0.001037	0.010705	0.001187	-0.448975	0.222412	-0.677246
603.0	9.309579	-1.452685	3.159081	-0.003382	-0.000402	0.004776	-0.451172	0.222412	-0.677246
604.0	9.295898	-1.438019	3.121802	0.000277	-0.004586	0.00484	-0.451172	0.222412	-0.679688
605.0	9.318479	-1.435298	3.13047	0.003189	-0.002692	0.001154	-0.455811	0.222412	-0.681885
606.0	9.300232	-1.447875	3.180351	0.007876	0.000989	0.001891	-0.451172	0.218018	-0.679443
607.0	9.300607	-1.471568	3.187208	0.006775	0.010663	0.005054	-0.449219	0.224609	-0.684326
608.0	9.309146	-1.453613	3.159929	0.005811	0.003828	0.002404	-0.451172	0.220215	-0.679443
609.0	9.298884	-1.424663	3.176124	0.004869	0.006813	0.004583	-0.453369	0.21582	-0.677002
610.0	9.295095	-1.438842	3.123814	0.006623	-0.001221	0.004178	-0.453613	0.222412	-0.675049
611.0	9.318124	-1.459674	3.139188	0.008528	0.002628	0.004647	-0.44873	0.218018	-0.681641
612.0	9.285408	-1.433638	3.146251	0.009715	0.003805	0.004336	-0.453369	0.218018	-0.674805
613.0	9.30777	-1.430764	3.155639	0.015685	0.000943	0.005756	-0.451172	0.218018	-0.686279
614.0	9.285133	-1.433871	3.146957	0.011244	0.001427	0.006888	-0.446777	0.220215	-0.679443
615.0	9.307592	-1.431071	3.156025	0.009874	-0.002885	0.003354	-0.450928	0.21582	-0.681641
616.0	9.317643	-1.460373	3.14029	0.014836	-0.003791	0.008928	-0.455811	0.222412	-0.675049
617.0	9.29518	-1.463411	3.131123	0.013125	-0.004549	0.002529	-0.453369	0.21582	-0.677002
618.0	9.320753	-1.422962	3.186428	0.011648	-0.001099	0.007772	-0.448975	0.222412	-0.679688
619.0	9.308226	-1.455452	3.161793	0.009271	-0.003454	0.008394	-0.450928	0.21582	-0.684082
620.0	9.308258	-1.455854	3.161513	0.005837	-0.004925	0.005373	-0.448975	0.222412	-0.677246
621.0	9.340227	-1.458666	3.148479	0.009401	-0.001394	0.004439	-0.448975	0.220215	-0.684082
622.0	9.307659	-1.432682	3.155096	0.007743	-0.001078	0.005838	-0.446777	0.220215	-0.677246
623.0	9.329454	-1.406467	3.158059	0.013552	0.002745	0.008234	-0.450928	0.21582	-0.681641
624.0	9.284878	-1.436318	3.146594	0.008864	-0.000932	0.007503	-0.448975	0.222412	-0.679688
625.0	9.316244	-1.415516	3.127373	0.007559	-0.004214	0.001995	-0.451172	0.218018	-0.686279
626.0	9.316793	-1.439258	3.133668	0.006867	0.002939	0.006037	-0.451416	0.224609	-0.681885
627.0	9.316598	-1.439572	3.134104	0.008055	0.004115	0.005724	-0.455811	0.222412	-0.679688
628.0	9.306925	-1.434264	3.156542	0.00765	0.006639	0.004835	-0.448975	0.222412	-0.679688
629.0	9.307214	-1.458092	3.163554	0.011553	0.006613	0.006764	-0.455566	0.21582	-0.688721
630.0	9.307016	-1.458278	3.164052	0.006213	0.001297	0.003282	-0.446533	0.218018	-0.679443
631.0	9.293884	-1.467135	3.133226	0.01198	-0.00466	0.010631	-0.44873	0.218018	-0.677002
632.0	9.293292	-1.44391	3.126837	0.009397	-0.0014	0.004435	-0.451172	0.220215	-0.684082
633.0	9.325246	-1.446665	3.113896	0.012581	-0.004097	0.005588	-0.453613	0.222412	-0.679688
634.0	9.302637	-1.449834	3.105096	0.011956	0.004086	0.007648	-0.451172	0.220215	-0.681885
635.0	9.306087	-1.435942	3.158249	0.012491	0.00362	0.004583	-0.453613	0.224609	-0.681885
636.0	9.31535	-1.44146	3.136944	0.014149	0.0033	0.003182	-0.44873	0.218018	-0.679443
637.0	9.347127	-1.444018	3.12463	0.01527	0.003445	0.004845	-0.453369	0.220215	-0.677246
638.0	9.315546	-1.464987	3.14436	0.0148	0.004939	0.005931	-0.451172	0.220215	-0.679443
639.0	9.311069	-1.455692	3.086144	0.013141	0.005258	0.00733	-0.455811	0.224609	-0.679688
640.0	9.333309	-1.452663	3.095986	0.021679	0.007822	0.002188	-0.451172	0.222412	-0.677246
641.0	9.314271	-1.441387	3.140178	0.014416	-0.001286	0.008022	-0.453613	0.222412	-0.681885
642.0	9.323001	-1.423569	3.112409	0.019167	0.003412	0.006766	-0.453369	0.220215	-0.686523
643.0	9.345949	-1.444164	3.128087	0.018918	-0.000755	0.004905	-0.451172	0.220215	-0.681885
644.0	9.333348	-1.476214	3.103875	0.018447	0.000739	0.00599	-0.453613	0.222412	-0.675049
645.0	9.322659	-1.423364	3.113527	0.020822	0.003086	0.005359	-0.453369	0.220215	-0.681885
646.0	9.309962	-1.455349	3.089643	0.020821	0.003084	0.005357	-0.451172	0.218018	-0.679443
647.0	9.322852	-1.446639	3.121068	0.019229	0.004432	0.004778	-0.453369	0.218018	-0.674805
648.0	9.313338	-1.440747	3.143238	0.018261	-0.002404	0.00215	-0.451172	0.220215	-0.681885
649.0	9.331601	-1.428335	3.093491	0.016785	0.001055	0.007382	-0.453613	0.224609	-0.675049
650.0	9.332027	-1.451923	3.100197	0.01573	0.001935	0.003741	-0.44873	0.218018	-0.677002
651.0	9.331363	-1.428338	3.094208	0.012884	0.001083	0.005456	-0.453369	0.21582	-0.681641
652.0	9.312952	-1.440669	3.144419	0.011763	0.000936	0.003793	-0.451172	0.222412	-0.679688
653.0	9.331683	-1.452002	3.101195	0.009703	0.003782	0.004301	-0.448975	0.222412	-0.688965
654.0	9.340966	-1.457571	3.079885	0.013018	0.003135	0.001498	-0.449219	0.224609	-0.681885
655.0	9.321903	-1.446086	3.124157	0.013266	0.0073	0.003351	-0.457764	0.21582	-0.679443
656.0	9.321625	-1.445891	3.125078	0.013333	0.008325	0.001372	-0.44458	0.222412	-0.679688
657.0	9.321343	-1.445664	3.126023	0.007778	0.008679	0.000849	-0.455811	0.222412	-0.677246
658.0	9.298569	-1.448538	3.11786	0.009299	0.006302	0.003404	-0.451172	0.220215	-0.679443
659.0	9.343275	-1.442577	3.136793	0.011272	0.01117	0.001877	-0.451172	0.220215	-0.679443
660.0	9.32042	-1.445347	3.128922	0.006187	0.010028	0.000269	-0.451172	0.222412	-0.677246
661.0	9.319595	-1.421619	3.12348	0.009366	0.007327	0.001424	-0.451172	0.218018	-0.684082
662.0	9.307443	-1.477272	3.105979	0.003495	0.002491	0.001029	-0.453369	0.218018	-0.679443
663.0	9.319872	-1.445082	3.130676	0.003495	0.002491	0.001028	-0.455811	0.220215	-0.681885
664.0	9.329163	-1.450699	3.109376	0.008178	0.006154	0.00174	-0.451172	0.222412	-0.677246
665.0	9.30644	-1.453583	3.101064	0.0054	0.006331	0.001478	-0.451172	0.218018	-0.681641
666.0	9.328791	-1.450555	3.110557	0.009049	0.002134	0.001551	-0.451416	0.224609	-0.679688
667.0	9.319238	-1.444864	3.132663	0.004614	0.002637	0.00269	-0.446777	0.222412	-0.679688
668.0	9.328595	-1.450496	3.111173	0.005152	0.002166	-0.000373	-0.448975	0.222412	-0.679688
669.0	9.29647	-1.447678	3.124512	0.007707	0.007649	0.002822	-0.453369	0.218018	-0.686279
670.0	9.338193	-1.479621	3.096987	0.003093	0.005012	0.000132	-0.453613	0.222412	-0.684326
671.0	9.304946	-1.429549	3.097783	0.007843	0.009699	-0.001137	-0.451172	0.218018	-0.679443
672.0	9.327794	-1.449888	3.113858	0.003563	0.003515	-0.000952	-0.453613	0.224609	-0.679688
673.0	9.305606	-1.476396	3.111893	0.004458	0.009323	0.003642	-0.448975	0.220215	-0.677246
674.0	9.304258	-1.429268	3.099981	0.005467	0.007354	-0.000504	-0.451172	0.220215	-0.681885
675.0	9.317564	-1.444127	3.137976	0.003339	0.009176	0.001979	-0.453369	0.220215	-0.681885
676.0	9.304255	-1.452722	3.108016	0.00269	0.007532	-0.000766	-0.451172	0.222412	-0.677246
677.0	9.303516	-1.429042	3.102309	0.001503	0.006361	-0.000448	-0.453613	0.222412	-0.679688
678.0	9.316937	-1.443728	3.14002	0.003631	0.004539	-0.002931	-0.451416	0.224609	-0.681885
679.0	9.326245	-1.449269	3.118781	0.008105	0.005125	0.003715	-0.455811	0.222412	-0.675049
680.0	9.313497	-1.481648	3.095034	0.004858	0.0068	0.004536	-0.451416	0.226807	-0.67749
681.0	9.334687	-1.431518	3.092054	0.005535	0.008377	-0.002485	-0.451172	0.222412	-0.679688
682.0	9.326071	-1.472726	3.127317	0.006986	0.004977	0.002053	-0.451172	0.220215	-0.684082
683.0	9.325308	-1.449105	3.121659	0.004995	0.008848	0.000576	-0.451172	0.222412	-0.681885
684.0	9.324448	-1.425501	3.116283	0.002935	0.011694	0.001078	-0.458008	0.222412	-0.681885
685.0	9.324673	-1.448985	3.123612	0.002689	0.00753	-0.000769	-0.455811	0.224609	-0.681885
686.0	9.311895	-1.481147	3.10009	0.001747	0.010523	0.001395	-0.453613	0.222412	-0.679688
687.0	9.301512	-1.451935	3.116582	0.001345	0.013043	0.000496	-0.451172	0.222412	-0.679688
688.0	9.301191	-1.451766	3.117617	0.002758	0.008553	-0.002749	-0.458008	0.224609	-0.679688
689.0	9.336494	-1.439891	3.158145	0.000384	0.006211	-0.002114	-0.451172	0.222412	-0.679688
690.0	9.314285	-1.466365	3.156244	0.000559	0.009351	0.001711	-0.451172	0.222412	-0.675049
691.0	9.300533	-1.451457	3.119724	-0.000804	0.00504	-0.001797	-0.453613	0.222412	-0.677246
692.0	9.33292	-1.477587	3.113807	0.003562	0.003512	-0.000953	-0.448975	0.222412	-0.681885
693.0	9.309751	-1.456869	3.098903	0.005395	0.006325	0.001472	-0.451172	0.220215	-0.681885
694.0	9.309531	-1.456652	3.099667	0.005534	0.008372	-0.002488	-0.453369	0.220215	-0.679443
695.0	9.322672	-1.471563	3.13798	0.008588	0.013447	0.007403	-0.448975	0.222412	-0.675049
696.0	9.311663	-1.418839	3.148303	0.004188	0.013883	-0.001226	-0.45166	0.231201	-0.682129
697.0	9.308308	-1.456543	3.10339	0.00459	0.011363	-0.000328	-0.451172	0.218018	-0.681641
698.0	9.321558	-1.47131	3.141409	0.003089	0.005006	0.000126	-0.451172	0.222412	-0.686523
699.0	9.321364	-1.471251	3.142011	-0.002865	0.007885	-0.0013	-0.451172	0.222412	-0.679688
700.0	9.330056	-1.453392	3.11473	-0.003739	0.0119	-0.00112	-0.453613	0.222412	-0.681885
701.0	9.329687	-1.45334	3.11586	0.000224	0.01289	-0.001174	-0.455811	0.220215	-0.684082
702.0	9.297345	-1.450386	3.129709	0.003472	0.011214	-0.001992	-0.446777	0.222412	-0.681885
703.0	9.337994	-1.434927	3.09003	0.007434	0.012204	-0.002046	-0.453857	0.229004	-0.67749
704.0	9.296592	-1.449595	3.132311	0.009335	0.016039	-0.001604	-0.453613	0.222412	-0.677246
705.0	9.318717	-1.446183	3.142626	0.008308	0.008188	-0.002228	-0.455566	0.218018	-0.677002
706.0	9.295599	-1.425383	3.127623	0.003892	-3.2e-05	0.001927	-0.453369	0.220215	-0.681885
707.0	9.337599	-1.457391	3.099694	0.001187	0.00117	-0.000318	-0.448975	0.220215	-0.679443
708.0	9.305914	-1.478163	3.119416	0.002927	0.011685	0.001065	-0.44458	0.224609	-0.679688
709.0	9.327476	-1.451533	3.123312	0.004184	0.013876	-0.001235	-0.44873	0.218018	-0.681641
710.0	9.308507	-1.463507	3.174565	0.002524	0.014202	0.000162	-0.448975	0.222412	-0.679688
711.0	9.327224	-1.474789	3.132146	0.00546	0.007342	-0.000513	-0.455811	0.220215	-0.679443
712.0	9.304114	-1.453993	3.117129	0.006738	0.00081	0.000211	-0.449219	0.224609	-0.677246
713.0	9.335961	-1.45657	3.10501	0.007762	0.008658	0.00083	-0.448975	0.220215	-0.681885
714.0	9.322758	-1.464964	3.075129	0.012197	0.008151	-0.000303	-0.448975	0.220215	-0.681885
715.0	9.348828	-1.470672	3.144342	0.011392	0.013186	-0.002109	-0.451172	0.222412	-0.684326
716.0	9.302982	-1.452588	3.121162	0.009732	0.013512	-0.000712	-0.453613	0.224609	-0.675049
717.0	9.338522	-1.464086	3.168753	0.009018	0.010846	-0.001473	-0.451172	0.218018	-0.677002
718.0	9.302812	-1.475415	3.129951	0.008946	0.009824	0.000508	-0.451172	0.222412	-0.686523
719.0	9.270058	-1.448887	3.136967	0.008636	0.004642	0.000651	-0.44873	0.218018	-0.681641
720.0	9.29224	-1.445565	3.147051	0.01528	0.013148	-0.000187	-0.451416	0.226807	-0.675049
721.0	9.301983	-1.474483	3.132851	0.013711	0.005776	0.002258	-0.453369	0.220215	-0.674805
722.0	9.282131	-1.439179	3.170725	0.016083	0.008111	0.001618	-0.453369	0.218018	-0.681641
723.0	9.291433	-1.444502	3.14992	0.016556	0.006614	0.000538	-0.453613	0.222412	-0.681885
724.0	9.291234	-1.444033	3.150723	0.018143	0.005264	0.001122	-0.455811	0.222412	-0.681885
725.0	9.291576	-1.467201	3.157828	0.019659	0.002893	0.003687	-0.455811	0.220215	-0.677246
726.0	9.323493	-1.469677	3.14563	0.018946	0.000228	0.002928	-0.451172	0.222412	-0.679688
727.0	9.291417	-1.466662	3.158546	0.025535	-0.001009	0.007099	-0.453369	0.21582	-0.681641
728.0	9.332407	-1.45147	3.118053	0.022831	0.00019	0.00485	-0.446777	0.220215	-0.681885
729.0	9.310871	-1.501196	3.122285	0.028377	-0.000177	0.005374	-0.449219	0.224609	-0.684326
730.0	9.332586	-1.474303	3.125817	0.032884	0.010146	0.006994	-0.455811	0.222412	-0.679688
731.0	9.319336	-1.482519	3.0963	0.032714	0.006999	0.003175	-0.451172	0.222412	-0.684326
732.0	9.331454	-1.449617	3.121768	0.034939	0.007291	0.006492	-0.448975	0.222412	-0.684326
733.0	9.331165	-1.449167	3.12284	0.035337	0.00477	0.007394	-0.455566	0.21582	-0.679443
734.0	9.362943	-1.45158	3.111135	0.03692	0.003415	0.007973	-0.448975	0.220215	-0.684082
735.0	9.330718	-1.448286	3.124583	0.035804	0.003261	0.006306	-0.44873	0.218018	-0.686279
736.0	9.362418	-1.450699	3.113127	0.036751	0.010082	0.008879	-0.451172	0.222412	-0.679688
737.0	9.361914	-1.45047	3.114748	0.038572	0.012888	0.011283	-0.453369	0.220215	-0.677246
738.0	9.319647	-1.441451	3.151229	0.033081	0.02298	0.005716	-0.451172	0.218018	-0.677002
739.0	9.327915	-1.423248	3.125668	0.034262	0.024138	0.005385	-0.450928	0.21582	-0.679443
740.0	9.359699	-1.449071	3.122048	0.037119	0.016253	0.006711	-0.44873	0.218018	-0.686279
741.0	9.3462	-1.45728	3.093434	0.038373	0.018425	0.004394	-0.451172	0.220215	-0.681885
742.0	9.357906	-1.424078	3.120117	0.043035	0.022057	0.005067	-0.44873	0.218018	-0.686279
743.0	9.389616	-1.449623	3.116911	0.045325	0.023359	0.00639	-0.446533	0.218018	-0.681641
744.0	9.388636	-1.448658	3.12031	0.048782	0.034525	0.004315	-0.44873	0.218018	-0.679443
745.0	9.409717	-1.444902	3.133878	0.039987	0.0464	0.009292	-0.446533	0.213623	-0.683838
746.0	9.357268	-1.453353	3.201366	0.035149	0.049425	0.009498	-0.451172	0.218018	-0.684082
747.0	9.316522	-1.456638	3.107792	0.027777	0.056801	0.011253	-0.446533	0.218018	-0.688721
748.0	9.279396	-1.468908	3.073373	0.028091	0.053263	0.01414	-0.446533	0.218018	-0.684082
749.0	9.277584	-1.469331	3.078636	0.034018	0.050356	0.015566	-0.450928	0.211426	-0.681396
750.0	9.253403	-1.472493	3.074681	0.049509	0.049046	0.015462	-0.448975	0.220215	-0.684082
751.0	9.363512	-1.457178	3.126691	0.076355	0.061938	0.020892	-0.446777	0.220215	-0.684082
752.0	9.422277	-1.450512	3.241849	0.070164	0.061767	0.025368	-0.446533	0.21582	-0.686279
753.0	9.446417	-1.479802	3.322822	0.059658	0.044653	0.027431	-0.44873	0.213623	-0.688477
754.0	9.464203	-1.492759	3.283765	0.041339	0.026641	0.027664	-0.442383	0.222412	-0.686523
755.0	9.430599	-1.495278	3.10737	0.040059	0.033145	0.026863	-0.44873	0.21582	-0.688721
756.0	9.388112	-1.562028	2.974182	0.062927	0.053713	0.029226	-0.439941	0.220215	-0.691162
757.0	9.350583	-1.574739	2.941534	0.0943	0.07781	0.03413	-0.446533	0.21582	-0.686279
758.0	9.251114	-1.542737	2.980051	0.1031	0.069123	0.042675	-0.442139	0.218018	-0.688721
759.0	9.187985	-1.55121	2.878406	0.107474	0.043642	0.058608	-0.446533	0.21582	-0.684082
760.0	9.211819	-1.540689	2.752312	0.109099	0.017229	0.06654	-0.446533	0.21582	-0.688721
761.0	9.238507	-1.492129	2.67087	0.117796	0.02486	0.070804	-0.446533	0.21582	-0.688721
762.0	9.267627	-1.428134	2.643773	0.138162	0.059285	0.06936	-0.444336	0.21582	-0.688721
763.0	9.299333	-1.37202	2.678155	0.112633	0.077882	0.065658	-0.44458	0.222412	-0.688965
764.0	9.342333	-1.439754	2.724339	0.057831	0.042577	0.058485	-0.448975	0.218018	-0.690918
765.0	9.557562	-1.577738	2.696944	0.0115	-0.018408	0.049908	-0.446533	0.213623	-0.688477
766.0	9.838313	-1.722188	2.64048	0.006037	-0.04742	0.035642	-0.44873	0.21582	-0.684082
767.0	10.054648	-1.834699	2.601986	0.034225	-0.008912	0.013645	-0.441895	0.21582	-0.686279
768.0	10.138036	-1.923449	2.560009	0.070285	0.078186	-0.001124	-0.44165	0.209229	-0.686035
769.0	9.994263	-1.96281	2.606106	0.108353	0.170964	-0.019647	-0.441895	0.21582	-0.693359
770.0	9.771715	-2.002338	2.65383	0.157661	0.234234	-0.026912	-0.439453	0.209229	-0.690674
771.0	9.595134	-1.971484	2.761718	0.211267	0.23395	-0.028651	-0.439453	0.209229	-0.690674
772.0	9.571426	-1.863665	2.861574	0.251714	0.220043	-0.024641	-0.437256	0.207031	-0.692871
773.0	9.450167	-1.721554	2.989875	0.277747	0.236859	-0.015165	-0.439453	0.209229	-0.693115
774.0	9.406711	-1.63037	3.200978	0.284487	0.276662	-0.002714	-0.432617	0.204834	-0.692871
775.0	9.303635	-1.462215	3.335669	0.273759	0.313097	0.011295	-0.437012	0.202637	-0.695068
776.0	9.20733	-1.41143	3.427739	0.238746	0.339245	0.019322	-0.425781	0.207031	-0.699951
777.0	9.111735	-1.392175	3.586692	0.200309	0.343713	0.02727	-0.430176	0.202637	-0.706787
778.0	9.010809	-1.424449	3.587779	0.15832	0.322473	0.033615	-0.423584	0.204834	-0.702148
779.0	8.931619	-1.402353	3.520747	0.129471	0.286899	0.038462	-0.427979	0.204834	-0.69751
780.0	8.897803	-1.421738	3.48567	0.111908	0.274865	0.043147	-0.421143	0.202637	-0.706787
781.0	8.778708	-1.421089	3.512836	0.097442	0.257042	0.045499	-0.425781	0.202637	-0.699707
782.0	8.704148	-1.391489	3.550442	0.086581	0.24578	0.050481	-0.423096	0.196045	-0.706543
783.0	8.652108	-1.360163	3.595646	0.051333	0.216278	0.062779	-0.418945	0.204834	-0.711426
784.0	8.513628	-1.326688	3.649123	0.02499	0.188772	0.076639	-0.421387	0.204834	-0.709229
785.0	8.516955	-1.34098	3.642581	-0.005519	0.144719	0.105138	-0.42334	0.200439	-0.711182
786.0	8.456379	-1.298571	3.578343	-0.004513	0.090447	0.146625	-0.418945	0.204834	-0.709229
787.0	8.398026	-1.218861	3.554757	0.013746	0.058387	0.185278	-0.418945	0.202637	-0.713623
788.0	8.39506	-1.126292	3.581883	0.020532	0.071076	0.23927	-0.414551	0.207031	-0.706787
789.0	8.193706	-1.036026	3.451238	0.022215	0.091048	0.304418	-0.418945	0.204834	-0.711426
790.0	7.893687	-0.924688	3.234496	0.028433	0.108959	0.360608	-0.412354	0.209473	-0.713867
791.0	7.821814	-0.927727	3.083706	0.02916	0.05131	0.425451	-0.416992	0.207031	-0.71167
792.0	7.828518	-0.927269	2.877267	0.070721	-0.052138	0.483658	-0.414795	0.209229	-0.707031
793.0	8.296229	-0.991078	2.915115	0.105119	-0.18541	0.538242	-0.414795	0.209229	-0.709229
794.0	9.015302	-1.147169	2.949725	0.086704	-0.343805	0.585684	-0.412842	0.218262	-0.705078
795.0	9.956509	-1.535622	2.95022	0.030696	-0.516971	0.603435	-0.419434	0.21582	-0.704834
796.0	11.03195	-1.93471	3.106924	0.009887	-0.603409	0.584813	-0.41748	0.220459	-0.700439
797.0	11.600029	-2.276111	2.987102	0.000364	-0.510944	0.530457	-0.423828	0.213623	-0.697754
798.0	11.469764	-2.484879	2.539613	-0.030989	-0.241918	0.420859	-0.421875	0.218018	-0.697998
799.0	10.988925	-2.795323	2.258003	-0.024766	0.001327	0.312034	-0.421875	0.222412	-0.702881
800.0	10.417091	-2.933037	1.986844	0.089458	0.139183	0.192252	-0.419678	0.222412	-0.698242
801.0	9.973938	-2.626664	2.024309	0.248118	0.095433	0.092212	-0.41748	0.224854	-0.700684
802.0	9.916549	-2.089608	2.241794	0.316429	0.043108	0.021388	-0.421875	0.222412	-0.698242
803.0	9.991268	-1.685736	2.367302	0.318838	0.020421	-0.022669	-0.417236	0.213623	-0.704834
804.0	10.129837	-1.424813	2.374453	0.279314	0.022254	-0.054212	-0.417236	0.213623	-0.697754
805.0	10.069392	-1.189808	2.414446	0.254316	0.089823	-0.085473	-0.417236	0.213623	-0.702393
806.0	9.947807	-1.153595	2.3932	0.202411	0.153801	-0.113352	-0.414795	0.211426	-0.700195
807.0	9.686598	-1.084868	2.440626	0.185901	0.185566	-0.131888	-0.414795	0.209473	-0.71167
808.0	9.401485	-1.040328	2.485801	0.14185	0.172949	-0.159444	-0.4104	0.21167	-0.700195
809.0	9.205616	-1.118727	2.415209	0.065796	0.118847	-0.173187	-0.414551	0.207031	-0.70459
810.0	9.180646	-1.280456	2.279521	0.000107	0.056505	-0.197501	-0.410156	0.207031	-0.70459
811.0	9.165726	-1.308516	2.151922	0.002254	0.07295	-0.205892	-0.416992	0.209229	-0.688477
812.0	9.254062	-1.46245	2.1251	-0.042035	0.107186	-0.215582	-0.412354	0.209229	-0.70459
813.0	9.237232	-1.540449	2.078186	-0.028678	0.137023	-0.219379	-0.416748	0.204834	-0.702148
814.0	9.121453	-1.433062	2.028814	-0.030412	0.14476	-0.219746	-0.407715	0.205078	-0.709229
815.0	9.051913	-1.275925	1.982516	-0.044373	0.128835	-0.207822	-0.409912	0.200439	-0.704346
816.0	9.085971	-1.203755	1.785049	-0.07604	0.069534	-0.190272	-0.409912	0.200439	-0.701904
817.0	8.974786	-1.00893	1.695353	-0.085377	0.058272	-0.186378	-0.409668	0.196045	-0.699463
818.0	9.061623	-1.025666	1.695906	-0.149612	0.048098	-0.171277	-0.407715	0.202637	-0.706787
819.0	9.132821	-1.141158	1.635947	-0.177411	0.018931	-0.164358	-0.407715	0.202637	-0.702148
820.0	9.270054	-1.272014	1.611562	-0.214083	0.004315	-0.170442	-0.407471	0.200439	-0.697266
821.0	9.316707	-1.476537	1.509008	-0.226752	-0.004046	-0.174623	-0.412109	0.198242	-0.704346
822.0	9.280572	-1.58055	1.385446	-0.228103	0.014031	-0.18248	-0.407715	0.202637	-0.695068
823.0	9.276391	-1.751954	1.446866	-0.235767	0.037545	-0.176733	-0.405518	0.204834	-0.69751
824.0	9.156375	-1.791218	1.433645	-0.231196	0.077012	-0.175069	-0.407715	0.204834	-0.692871
825.0	9.026145	-1.794596	1.376021	-0.209501	0.085127	-0.17094	-0.409912	0.204834	-0.699951
826.0	8.942514	-1.735307	1.435652	-0.180638	0.092355	-0.167506	-0.407959	0.207031	-0.69751
827.0	8.889673	-1.721	1.44038	-0.147517	0.069207	-0.166013	-0.410156	0.207031	-0.695313
828.0	8.861285	-1.640344	1.490267	-0.104781	0.039901	-0.164511	-0.40332	0.205078	-0.695313
829.0	9.028984	-1.597653	1.59338	-0.051245	-0.0051	-0.16558	-0.407715	0.202637	-0.69751
830.0	9.165572	-1.509373	1.750556	-0.001814	0.002663	-0.162141	-0.40332	0.207275	-0.692871
831.0	9.161866	-1.314962	1.830474	0.010395	0.015135	-0.146918	-0.403076	0.200439	-0.692627
832.0	9.130568	-1.285005	1.723335	0.004822	0.010216	-0.140555	-0.398438	0.200684	-0.692627
833.0	9.252496	-1.245811	1.574393	0.025807	-0.035887	-0.140099	-0.407471	0.198242	-0.695068
834.0	9.431659	-1.13284	1.571295	0.076433	-0.037508	-0.139224	-0.405029	0.196045	-0.692627
835.0	9.546005	-0.963988	1.575145	0.104302	-0.01715	-0.145637	-0.403076	0.198242	-0.692627
836.0	9.549007	-0.879021	1.550266	0.104274	-0.043916	-0.14313	-0.402832	0.196045	-0.690186
837.0	9.737423	-0.810731	1.478834	0.102891	-0.092847	-0.151356	-0.404785	0.189453	-0.687744
838.0	10.134597	-0.691897	1.405456	0.120892	-0.149184	-0.143841	-0.400391	0.19165	-0.687744
839.0	10.651758	-0.633352	1.378239	0.089826	-0.200172	-0.143603	-0.405029	0.193848	-0.692383
840.0	11.167489	-0.609109	1.241106	0.095822	-0.228119	-0.12732	-0.400391	0.189453	-0.683105
841.0	11.685229	-0.458305	1.172367	0.096016	-0.230794	-0.110222	-0.406738	0.182861	-0.685059
842.0	12.326245	-0.224214	1.27771	0.052746	-0.222215	-0.092236	-0.400391	0.189453	-0.678467
843.0	12.802207	-0.244745	1.473136	-0.04152	-0.160589	-0.075769	-0.406982	0.185059	-0.673584
844.0	13.149479	-0.639445	2.027861	-0.073074	-0.006249	-0.069492	-0.402344	0.185059	-0.676025
845.0	13.717305	-1.456686	3.565328	-0.043379	0.096816	-0.084572	-0.399902	0.180664	-0.677979
846.0	13.559316	-2.580523	5.020361	-0.053562	0.074186	-0.150217	-0.393555	0.189453	-0.673828
847.0	12.247029	-3.455614	4.947752	0.065501	-0.040395	-0.237871	-0.406738	0.178467	-0.675781
848.0	11.020599	-3.687993	4.067766	0.270638	-0.145499	-0.299535	-0.397705	0.180664	-0.671143
849.0	10.015467	-2.835005	3.347808	0.570798	0.001612	-0.315201	-0.399658	0.169678	-0.677734
850.0	8.838634	-1.85737	3.552787	0.727517	0.326066	-0.251079	-0.392334	0.160889	-0.675049
851.0	7.956276	-1.421816	3.699608	0.712231	0.357171	-0.180657	-0.392334	0.160889	-0.679688
852.0	8.322519	-1.277675	4.003481	0.687036	0.185633	-0.182835	-0.394775	0.163086	-0.679688
853.0	9.542704	-1.017523	5.190829	0.710561	0.055888	-0.183988	-0.390137	0.158691	-0.681885
854.0	10.42518	-0.834875	6.258295	0.670797	0.04452	-0.217524	-0.39209	0.1521	-0.681641
855.0	10.416977	-0.494659	6.767757	0.603869	-0.016072	-0.294322	-0.38501	0.143311	-0.681396
856.0	9.948676	0.076421	6.265542	0.46423	-0.055287	-0.348133	-0.389404	0.143311	-0.672119
857.0	9.679683	0.287085	5.467652	0.202198	-0.129238	-0.403052	-0.38916	0.136719	-0.676514
858.0	9.770745	0.021601	4.866286	-0.00593	-0.049135	-0.466391	-0.38501	0.143311	-0.683594
859.0	9.836319	-0.396484	4.820262	-0.044075	0.123709	-0.511271	-0.388916	0.132324	-0.678711
860.0	9.984521	-0.730377	4.983663	0.054459	0.305722	-0.51009	-0.384766	0.138916	-0.678955
861.0	9.686221	-0.943552	5.049767	0.07449	0.372334	-0.409672	-0.384766	0.136719	-0.685791
862.0	9.028768	-1.280658	4.817504	0.075575	0.415028	-0.266382	-0.37793	0.134521	-0.680908
863.0	8.362304	-1.367261	4.589578	0.097621	0.337327	-0.117395	-0.379639	0.125732	-0.692383
864.0	8.102899	-1.398999	4.280495	0.036059	0.166256	0.017783	-0.37085	0.130127	-0.683105
865.0	8.327375	-1.365568	3.84144	-0.037273	0.022741	0.148578	-0.37085	0.130127	-0.687744
866.0	8.67055	-1.284475	3.469339	-0.109793	0.049567	0.244874	-0.371094	0.132324	-0.687988
867.0	8.878424	-1.231336	3.334346	-0.176589	0.233434	0.288884	-0.375488	0.134521	-0.692627
868.0	8.788394	-1.315445	3.370379	-0.206298	0.470636	0.287196	-0.366699	0.138916	-0.692871
869.0	8.362366	-1.411257	3.47937	-0.183878	0.675482	0.250971	-0.366699	0.134521	-0.69043
870.0	7.861497	-1.382674	3.56903	-0.184889	0.76258	0.220616	-0.353516	0.143311	-0.688232
871.0	7.410161	-1.492815	3.558029	-0.251708	0.721848	0.202473	-0.351318	0.145752	-0.699951
872.0	7.051754	-1.600493	3.467424	-0.277753	0.609138	0.201137	-0.349121	0.145752	-0.702393
873.0	7.052405	-1.68856	3.267638	-0.30817	0.445257	0.212635	-0.353271	0.141113	-0.695313
874.0	7.34793	-1.727218	3.181742	-0.253961	0.280076	0.247715	-0.340088	0.150146	-0.697754
875.0	7.605082	-1.614772	3.216793	-0.160215	0.206492	0.290904	-0.342285	0.147949	-0.697754
876.0	7.885188	-1.385677	3.219458	-0.078688	0.190802	0.324593	-0.340088	0.150146	-0.704834
877.0	7.98539	-1.138267	3.344733	-0.034865	0.165834	0.369495	-0.335938	0.154541	-0.697998
878.0	7.858315	-1.13788	3.301626	-0.100462	0.134617	0.391071	-0.329102	0.152344	-0.702637
879.0	7.615979	-1.308991	3.007428	-0.149524	0.076129	0.404955	-0.335938	0.154541	-0.702637
880.0	7.398642	-1.538302	2.683405	-0.145453	-0.031272	0.369414	-0.335938	0.156738	-0.698242
881.0	7.293356	-1.693071	2.332637	-0.080614	-0.117472	0.327658	-0.338135	0.156738	-0.698242
882.0	7.353487	-1.773237	2.172845	0.05913	-0.138256	0.281858	-0.336182	0.161133	-0.700684
883.0	7.363513	-1.774196	2.139773	0.183453	-0.047365	0.226162	-0.33374	0.158936	-0.698242
884.0	7.338974	-1.67571	2.358829	0.306639	0.033989	0.174496	-0.329346	0.158936	-0.700439
885.0	7.434854	-1.602876	2.57578	0.30658	0.02959	0.129435	-0.331299	0.156738	-0.698242
886.0	7.570745	-1.504456	2.709421	0.319067	-0.128815	0.099215	-0.331299	0.152344	-0.695557
887.0	7.736384	-1.311065	2.594317	0.330131	-0.334934	0.066145	-0.333252	0.147949	-0.693115
888.0	8.166689	-1.310811	2.456153	0.28115	-0.482609	0.029135	-0.331055	0.150146	-0.697998
889.0	8.460801	-1.386882	2.168493	0.258049	-0.490988	-4.4e-05	-0.335449	0.143555	-0.695313
890.0	8.564911	-1.442191	1.917833	0.323922	-0.360504	-0.046583	-0.333496	0.150146	-0.693115
891.0	8.58155	-1.39556	1.921292	0.350509	-0.176321	-0.080403	-0.337646	0.141357	-0.702148
892.0	8.643959	-1.375345	2.126752	0.356594	-0.082891	-0.101258	-0.337646	0.143555	-0.690674
893.0	8.757772	-1.423063	2.422368	0.275669	-0.139168	-0.113289	-0.337402	0.13916	-0.695068
894.0	8.912344	-1.337514	2.584841	0.161028	-0.240481	-0.128983	-0.341797	0.134766	-0.697266
895.0	9.423223	-1.336252	2.611011	0.099124	-0.399843	-0.129776	-0.341797	0.134766	-0.69043
896.0	10.31753	-1.364178	2.754404	0.035242	-0.561965	-0.110055	-0.3396	0.136963	-0.69043
897.0	11.095826	-1.206623	2.940689	0.004584	-0.590576	-0.099991	-0.341797	0.132324	-0.685547
898.0	11.929424	-0.986668	3.153738	-0.110392	-0.490968	-0.062454	-0.344238	0.136963	-0.687988
899.0	11.998616	-1.005526	2.931905	-0.313359	-0.348331	-0.027422	-0.346191	0.134521	-0.687988
900.0	11.626886	-1.34733	2.14034	-0.610777	-0.26051	-0.006478	-0.340088	0.145752	-0.686035
901.0	11.074364	-1.951505	0.949187	-0.738015	-0.266747	0.009603	-0.348877	0.145752	-0.688477
902.0	10.854242	-2.577013	-0.14134	-0.613803	-0.291482	-0.013244	-0.34668	0.145752	-0.683838
903.0	11.441664	-3.137275	-0.351112	-0.266592	-0.208749	-0.052831	-0.351318	0.147705	-0.681641
904.0	13.274232	-3.301693	1.234456	0.272619	0.142128	-0.072512	-0.347168	0.154541	-0.684082
905.0	15.939962	-2.457814	4.632049	0.699973	0.650163	-0.038381	-0.337402	0.13916	-0.685791
906.0	18.342341	-0.281675	8.439139	0.413069	0.829494	0.20325	-0.342285	0.147949	-0.697754
907.0	15.443563	1.098591	9.806495	-0.774116	1.076773	0.438734	-0.328857	0.147949	-0.697754
908.0	11.944956	-0.698031	7.601747	-1.897478	0.82442	0.556093	-0.32959	0.169922	-0.69873
909.0	9.467094	-2.905763	4.935027	-1.742955	0.231704	0.602364	-0.316406	0.174561	-0.696533
910.0	7.259269	-2.76738	3.270683	-1.024151	0.211677	0.484485	-0.323486	0.18335	-0.696777
911.0	5.471595	-1.554282	3.628207	-0.510009	0.832979	0.364496	-0.307617	0.18335	-0.701416
912.0	4.67793	-1.215071	5.567055	-0.494908	1.44656	0.272571	-0.308105	0.192139	-0.70874
913.0	4.340896	-1.500901	7.974961	-0.307209	1.387663	0.256374	-0.294678	0.196777	-0.711182
914.0	4.180295	-1.727029	10.095962	-0.104494	0.489846	0.341581	-0.297119	0.19873	-0.706787
915.0	5.666417	-2.099566	10.288213	-0.211233	-0.9187	0.554219	-0.301514	0.196533	-0.704346
916.0	7.992607	-2.903894	8.512982	-0.382962	-1.984928	0.806644	-0.313477	0.211914	-0.704834
917.0	10.678746	-3.622035	6.582028	-0.200702	-2.376895	0.913758	-0.322266	0.20752	-0.690674
918.0	12.83843	-3.993773	5.14307	0.060537	-1.932465	0.871411	-0.331543	0.218506	-0.688721
919.0	13.328649	-4.284397	3.751432	0.112346	-0.757214	0.702722	-0.32666	0.209717	-0.676758
920.0	12.154977	-4.51591	2.877347	0.28508	0.351968	0.505296	-0.324951	0.218506	-0.691162
921.0	10.238319	-3.828859	3.580848	0.691507	0.922555	0.272492	-0.312988	0.205322	-0.69751
922.0	8.833225	-2.45388	4.857645	0.832949	0.890688	0.056259	-0.31543	0.209717	-0.700195
923.0	8.182042	-1.516024	5.27627	0.639413	0.39806	-0.073189	-0.312988	0.203125	-0.702148
924.0	8.181711	-1.178585	4.739559	0.467608	-0.151082	-0.150018	-0.319824	0.205322	-0.706787
925.0	8.365406	-0.808233	3.653748	0.498081	-0.387632	-0.192116	-0.315186	0.200928	-0.706787
926.0	8.297262	-0.167373	2.904067	0.595699	-0.257229	-0.21206	-0.319824	0.203125	-0.699951
927.0	7.93778	0.517194	2.733386	0.570523	0.063211	-0.239448	-0.314941	0.196533	-0.704346
928.0	7.572824	0.761055	2.879623	0.421911	0.289684	-0.25417	-0.317139	0.196533	-0.701904
929.0	7.158444	0.742159	3.232449	0.340245	0.224498	-0.266681	-0.312744	0.194336	-0.70874
930.0	7.192415	0.494559	3.552294	0.255231	-0.026315	-0.262102	-0.317139	0.192139	-0.704102
931.0	7.125466	0.26236	3.464987	0.193106	-0.264225	-0.276048	-0.3125	0.187744	-0.699219
932.0	7.246622	0.100243	3.31342	0.155553	-0.402113	-0.28304	-0.317139	0.196533	-0.699707
933.0	7.497427	-0.151143	3.082738	0.087799	-0.443516	-0.308135	-0.321289	0.185547	-0.701416
934.0	7.81031	-0.240165	3.136704	0.082385	-0.455976	-0.335255	-0.319336	0.189941	-0.70166
935.0	7.974075	-0.27978	3.149566	0.015123	-0.435	-0.369843	-0.325684	0.18335	-0.710693
936.0	8.011438	-0.439124	2.767454	-0.071155	-0.39885	-0.398687	-0.328125	0.187744	-0.70166
937.0	8.017853	-0.271387	2.415232	-0.064565	-0.339821	-0.405978	-0.330322	0.187744	-0.703857
938.0	7.827987	-0.210676	2.046171	-0.169759	-0.20351	-0.401581	-0.328369	0.194336	-0.699463
939.0	7.68462	-0.273191	1.789694	-0.278975	-0.115206	-0.369879	-0.330566	0.194336	-0.694824
940.0	7.467838	-0.207428	1.537634	-0.322342	-0.031383	-0.326955	-0.335205	0.196533	-0.699707
941.0	7.326446	-0.208588	1.616919	-0.3946	0.038807	-0.2712	-0.328369	0.194336	-0.701904
942.0	7.262626	-0.574775	1.935047	-0.492205	0.060724	-0.196358	-0.330811	0.196533	-0.704346
943.0	7.157392	-0.85672	2.075604	-0.52045	0.0218	-0.128836	-0.330811	0.19873	-0.699707
944.0	7.219164	-1.05374	2.114664	-0.531011	-0.060955	-0.061854	-0.32666	0.20752	-0.695313
945.0	7.557486	-1.14294	2.042971	-0.523977	-0.137145	-0.011689	-0.329102	0.209717	-0.690918
946.0	7.852766	-1.245776	2.004638	-0.5166	-0.177416	0.029892	-0.326904	0.211914	-0.697754
947.0	8.411323	-1.298775	1.902529	-0.471304	-0.235258	0.046492	-0.327148	0.218506	-0.695801
948.0	8.627412	-1.229669	1.978557	-0.413988	-0.319807	0.06635	-0.332031	0.225098	-0.686768
949.0	8.913932	-1.25892	1.928768	-0.415418	-0.113464	0.073552	-0.332031	0.225098	-0.691406
950.0	9.04735	-1.268722	2.103489	-0.320525	0.127689	0.081926	-0.327637	0.231689	-0.69165
951.0	9.066908	-1.440861	2.581261	-0.267629	0.259698	0.098876	-0.322998	0.229492	-0.693848
952.0	9.395736	-1.857097	3.209208	-0.209052	0.120381	0.103752	-0.321045	0.236084	-0.682617
953.0	9.745196	-2.225799	3.173284	-0.206563	-0.308474	0.142955	-0.327881	0.236084	-0.687256
954.0	10.853537	-2.633859	2.879698	-0.069946	-0.66443	0.145812	-0.33252	0.240479	-0.685059
955.0	11.955854	-2.711664	2.608541	0.301545	-0.812122	0.144156	-0.332275	0.236084	-0.684814
956.0	12.575614	-1.946505	2.412561	0.726319	-0.726901	0.127767	-0.332275	0.236084	-0.677734
957.0	12.613725	-1.131252	1.933479	0.708859	-0.573479	0.132375	-0.341064	0.231689	-0.675293
958.0	12.166144	-0.852737	0.784369	0.49114	-0.367891	0.098783	-0.336914	0.238281	-0.680176
959.0	11.751846	-0.749628	0.000238	0.390537	-0.038083	0.027681	-0.336914	0.236084	-0.682373
960.0	11.97416	-0.73855	1.021759	0.368012	0.31405	-0.050878	-0.334717	0.240479	-0.68042
961.0	12.576664	-1.410559	4.666299	0.24654	0.508937	-0.129859	-0.334717	0.238281	-0.687256
962.0	12.421639	-2.717561	7.722615	-0.253401	-0.067056	-0.296379	-0.339111	0.233887	-0.684814
963.0	13.372153	-4.209515	9.342039	-0.23996	-0.735374	-0.528243	-0.33667	0.229492	-0.682129
964.0	14.209118	-3.901068	7.362089	0.209094	-1.022797	-0.811115	-0.343506	0.233887	-0.684814
965.0	13.768373	-2.104759	4.940797	0.438832	-0.711374	-1.059628	-0.345459	0.225098	-0.67749
966.0	10.295269	-1.403693	3.175344	0.515162	0.59802	-1.05748	-0.343018	0.220703	-0.679688
967.0	6.157421	-0.903079	3.413419	0.847154	1.581015	-1.004346	-0.331787	0.220703	-0.693604
968.0	4.1997	-0.449741	5.506414	0.856688	1.580037	-0.884478	-0.326904	0.214111	-0.695557
969.0	4.295645	-1.0934	7.751925	0.582359	0.663542	-0.726799	-0.32666	0.205322	-0.695313
970.0	6.40693	-1.328666	8.191053	0.446548	-0.902807	-0.606387	-0.331055	0.205322	-0.690674
971.0	10.09229	-0.665727	6.836965	0.683132	-1.674258	-0.581916	-0.344238	0.196289	-0.690186
972.0	13.581232	0.781587	5.956392	1.041814	-1.450877	-0.589743	-0.353271	0.194092	-0.685547
973.0	15.019551	1.991272	5.461992	0.505148	-0.760768	-0.436243	-0.359863	0.189697	-0.678467
974.0	13.923473	1.07817	4.001786	-0.501125	0.132407	-0.214776	-0.355469	0.194092	-0.68335
975.0	11.687722	-0.208739	2.753014	-0.688679	0.795708	-0.112323	-0.348877	0.198486	-0.687988
976.0	9.87456	-0.476279	3.171623	-0.373234	1.051178	-0.072157	-0.340332	0.20752	-0.686035
977.0	8.592959	-0.63356	3.823639	-0.269414	1.024749	-0.023134	-0.337891	0.20752	-0.695313
978.0	7.789546	-0.868771	4.043753	-0.161821	0.639695	0.052415	-0.336182	0.216309	-0.686279
979.0	7.738889	-0.94205	3.994646	-0.099417	0.214762	0.13621	-0.333496	0.205322	-0.699951
980.0	7.870878	-1.300614	3.797861	-0.240199	0.124229	0.23306	-0.336182	0.216309	-0.691162
981.0	7.718359	-2.041834	3.500051	-0.424778	0.229711	0.33638	-0.331543	0.216309	-0.695801
982.0	7.406488	-2.652663	3.104014	-0.464536	0.366315	0.408798	-0.32959	0.2229	-0.691406
983.0	7.136977	-3.001782	2.902997	-0.394639	0.479273	0.438173	-0.324951	0.2229	-0.696045
984.0	7.077865	-3.188573	2.825047	-0.258442	0.636681	0.425966	-0.321045	0.236328	-0.69873
985.0	7.06904	-3.289039	2.966033	-0.028504	0.778292	0.390175	-0.316406	0.234131	-0.696289
986.0	7.0669	-3.415768	3.169402	0.168429	0.845876	0.387931	-0.314209	0.234131	-0.703369
987.0	7.042387	-3.172198	3.441629	0.427261	0.791913	0.387675	-0.30957	0.231934	-0.710205
988.0	7.137519	-2.675716	3.595835	0.604132	0.643745	0.411738	-0.300537	0.229736	-0.717041
989.0	7.350526	-1.971462	3.65542	0.641265	0.381543	0.443711	-0.302734	0.227539	-0.712402
990.0	7.420521	-1.333456	3.471662	0.518923	0.091757	0.49322	-0.300537	0.229736	-0.714844
991.0	7.567773	-0.851656	2.966498	0.355354	-0.166238	0.504346	-0.300537	0.229736	-0.714844
992.0	7.693088	-0.572394	2.353892	0.311375	-0.332748	0.505229	-0.300293	0.225342	-0.7146
993.0	7.738215	-0.441251	1.95703	0.300263	-0.31141	0.468998	-0.29834	0.227539	-0.712402
994.0	7.719732	-0.647438	1.708161	0.307486	-0.111715	0.439825	-0.29834	0.231934	-0.705566
995.0	7.441941	-0.976031	1.483333	0.398406	0.180885	0.38085	-0.298096	0.225342	-0.717041
996.0	7.143984	-1.227482	1.627207	0.568572	0.313914	0.322803	-0.291504	0.227539	-0.7146
997.0	7.02088	-1.10456	2.072849	0.753729	0.247127	0.249361	-0.293701	0.225342	-0.72168
998.0	7.122318	-0.727028	2.584752	0.796099	0.095208	0.15631	-0.29126	0.220947	-0.718994
999.0	7.228868	-0.539001	2.870361	0.670207	-0.09972	0.073669	-0.293213	0.216553	-0.718994
1000.0	7.419225	-0.569809	2.834277	0.525826	-0.281732	0.001177	-0.295654	0.21875	-0.718994
1001.0	7.544016	-0.561311	2.512966	0.474182	-0.449283	-0.064062	-0.299805	0.212158	-0.716553
1002.0	8.161083	-0.56416	2.242865	0.410894	-0.633189	-0.095199	-0.295166	0.207764	-0.716309
1003.0	8.106219	-0.428723	1.69582	0.335326	-0.767227	-0.116283	-0.304199	0.207764	-0.71167
1004.0	8.741456	-0.383653	1.4478	0.215133	-0.651469	-0.14431	-0.304443	0.212158	-0.709473
1005.0	9.542737	-0.674591	1.578285	0.038224	-0.540005	-0.139868	-0.310791	0.205322	-0.713867
1006.0	9.298853	-0.710467	1.709658	-0.017127	-0.144735	-0.21308	-0.308594	0.20752	-0.713867
1007.0	11.545119	-1.240483	2.695881	-0.133439	-0.211939	-0.111843	-0.313232	0.209717	-0.707031
1008.0	11.897151	-0.922634	3.48297	-0.120081	-0.225093	-0.131276	-0.311035	0.209717	-0.71167
1009.0	12.210453	-0.486719	3.742321	-0.395449	-0.134216	-0.103813	-0.313477	0.211914	-0.707031
1010.0	12.050091	-0.715527	3.203465	-0.727852	-0.110348	-0.056132	-0.309326	0.220947	-0.70752
1011.0	11.131885	-1.165154	2.132578	-0.933374	-0.065774	-0.024279	-0.315918	0.220947	-0.712158
1012.0	10.377176	-1.947326	0.824775	-1.043443	-0.045315	-0.016462	-0.316406	0.234131	-0.705566
1013.0	10.3538	-2.909668	-0.350843	-0.822708	-0.027398	-0.04844	-0.316406	0.229736	-0.710205
1014.0	11.307423	-3.581708	0.101646	-0.204119	0.150249	-0.098358	-0.316406	0.229736	-0.705566
1015.0	13.429293	-3.513893	2.876991	0.507714	0.58197	-0.085804	-0.30957	0.231934	-0.719482
1016.0	16.115148	-2.097343	6.856578	0.801844	0.721405	0.067315	-0.300293	0.225342	-0.7146
1017.0	17.520898	0.407928	10.819441	0.241157	0.517977	0.428953	-0.304932	0.225342	-0.709961
1018.0	15.184174	0.765058	10.58007	-1.319168	0.507837	0.678939	-0.301025	0.240723	-0.719727
1019.0	12.589058	-2.31894	7.254327	-2.234422	0.008323	0.909896	-0.297119	0.253906	-0.713379
1020.0	8.962606	-3.886821	3.227547	-1.763384	-0.06734	0.861189	-0.290771	0.267334	-0.706787
1021.0	5.657585	-2.68145	1.455318	-0.676534	0.672013	0.581468	-0.291016	0.271729	-0.716309
1022.0	4.150367	-1.168643	3.183148	-0.234982	1.843603	0.344585	-0.277588	0.273926	-0.716553
1023.0	3.947879	-1.341603	6.469365	-0.22124	2.313098	0.23679	-0.266357	0.273926	-0.723389
1024.0	3.846156	-1.803644	10.042836	0.139315	1.258331	0.322713	-0.259277	0.269531	-0.727783
1025.0	5.468153	-1.324065	11.754638	0.212193	-0.897839	0.537908	-0.266357	0.276123	-0.728027
1026.0	8.837288	-1.723857	10.493186	-0.417252	-2.489089	0.802039	-0.280273	0.287109	-0.7146
1027.0	12.569328	-3.131135	8.284956	-0.550342	-3.094906	0.913156	-0.291748	0.291504	-0.700928
1028.0	15.06805	-4.530697	5.353678	-0.32146	-2.449992	0.857543	-0.305176	0.291504	-0.700928
1029.0	14.433176	-5.002904	2.094522	-0.151573	-0.74508	0.648346	-0.310059	0.295898	-0.700928
1030.0	12.667783	-5.357993	0.299286	0.198678	0.76279	0.393492	-0.296387	0.293701	-0.705566
1031.0	10.468947	-4.35809	1.731478	0.845724	1.611875	0.128246	-0.291748	0.289307	-0.707764
1032.0	8.460516	-2.244572	4.126323	0.983793	1.778968	-0.079765	-0.277832	0.282715	-0.718994
1033.0	7.196707	-0.969962	5.551983	0.6838	1.123584	-0.171102	-0.280029	0.280518	-0.735352
1034.0	6.995352	-0.753198	5.525093	0.429831	0.11575	-0.218196	-0.284668	0.280518	-0.723633
1035.0	7.704244	-0.428214	4.412342	0.493251	-0.569766	-0.272128	-0.288818	0.271729	-0.723389
1036.0	8.171866	0.209147	3.260901	0.596576	-0.5774	-0.302659	-0.283936	0.267334	-0.723145
1037.0	8.105664	0.668594	2.552521	0.471998	-0.154069	-0.333847	-0.286133	0.265137	-0.725342
1038.0	7.584673	0.639434	2.286139	0.293608	0.263186	-0.359582	-0.283936	0.262939	-0.725342
1039.0	6.98116	0.419803	2.534268	0.258015	0.438864	-0.382944	-0.292969	0.262939	-0.72998
1040.0	6.409861	0.397681	2.946779	0.277628	0.360971	-0.395933	-0.28833	0.258545	-0.727539
1041.0	6.097023	0.253034	3.298667	0.231684	0.080308	-0.383645	-0.283447	0.249756	-0.731689
1042.0	6.09674	0.074317	3.240324	0.189419	-0.236139	-0.38161	-0.290527	0.258545	-0.727539
1043.0	6.425652	0.028269	2.972857	0.127873	-0.519728	-0.37631	-0.294678	0.249512	-0.724854
1044.0	6.940976	0.098097	2.614293	0.099954	-0.618327	-0.386338	-0.294678	0.251953	-0.729492
1045.0	7.421722	0.239666	2.586379	0.05897	-0.600594	-0.386635	-0.299072	0.247314	-0.729492
1046.0	7.809961	0.326223	2.356728	-0.099813	-0.517241	-0.371125	-0.303467	0.247314	-0.719971
1047.0	7.945186	0.289359	1.703028	-0.281852	-0.38114	-0.336369	-0.312744	0.249512	-0.722412
1048.0	7.823216	0.240382	1.32265	-0.377189	-0.174612	-0.299736	-0.310547	0.256104	-0.727295
1049.0	7.56627	0.190951	0.888653	-0.495719	0.000949	-0.244248	-0.30835	0.256104	-0.722656
1050.0	7.472969	0.051824	1.029948	-0.516609	0.107913	-0.205323	-0.306152	0.258301	-0.7229
1051.0	7.488049	0.124657	1.52008	-0.547041	0.138439	-0.163945	-0.306152	0.256104	-0.718018
1052.0	7.494787	-0.336844	2.017664	-0.771488	0.015813	-0.089698	-0.308838	0.26709	-0.723145
1053.0	7.601598	-1.063297	2.007201	-0.845833	-0.120972	-0.001645	-0.315918	0.273682	-0.720947
1054.0	7.711593	-1.697033	1.824623	-0.835705	-0.124051	0.030636	-0.315918	0.273682	-0.716309
1055.0	7.841488	-2.10817	1.876611	-0.72893	-0.106202	0.053659	-0.309082	0.275879	-0.714111
1056.0	8.100891	-2.300141	2.109431	-0.618899	-0.106321	0.061131	-0.314209	0.287109	-0.7146
1057.0	8.216137	-2.521861	2.251358	-0.600083	-0.075929	0.047379	-0.311768	0.284912	-0.7146
1058.0	8.475934	-2.598418	2.153911	-0.463469	-0.079001	0.019885	-0.309814	0.291504	-0.717041
1059.0	8.677415	-2.419399	1.88087	-0.347901	-0.068594	-0.000312	-0.312012	0.291504	-0.712402
1060.0	9.406849	-2.567712	1.968925	-0.193078	-0.035589	-0.022023	-0.314697	0.300293	-0.712646
1061.0	10.251563	-2.500367	2.522791	0.076145	-0.18346	-0.036744	-0.316406	0.289307	-0.719238
1062.0	11.327652	-2.325276	3.06736	0.16909	-0.526708	-0.026768	-0.320801	0.286865	-0.712158
1063.0	12.845835	-2.204987	3.284151	0.294072	-0.782678	-0.020601	-0.327637	0.284668	-0.7146
1064.0	13.888151	-1.717582	2.987112	0.519075	-0.818443	0.00113	-0.325439	0.289063	-0.709961
1065.0	13.852906	-0.906976	2.151608	0.633396	-0.576082	0.021342	-0.327393	0.280273	-0.711914
1066.0	12.757184	-0.154003	0.736605	0.493524	-0.259654	0.034069	-0.329834	0.282471	-0.712158
1067.0	11.9694	-0.056675	-0.107084	0.235287	0.028385	0.027581	-0.333984	0.275879	-0.714111
1068.0	12.006558	-0.431527	0.588865	0.13339	0.331761	-0.0196	-0.327393	0.280273	-0.714355
1069.0	12.507072	-1.509871	4.247455	0.043648	0.622908	-0.100729	-0.324951	0.278076	-0.718994
1070.0	12.39113	-3.269559	8.38443	-0.332338	0.065057	-0.2983	-0.329834	0.282471	-0.714355
1071.0	13.896387	-4.98095	11.848227	-0.258852	-0.779832	-0.595806	-0.336426	0.280273	-0.709717
1072.0	15.019258	-3.741573	8.940135	0.282188	-1.337741	-0.898149	-0.343262	0.280273	-0.711914
1073.0	14.914239	-2.180822	5.017826	0.327242	-0.961086	-1.123424	-0.342773	0.269287	-0.709229
1074.0	10.580133	-1.691208	2.737327	0.512166	0.743923	-1.125539	-0.340576	0.271484	-0.71167
1075.0	5.8472	-1.01946	3.377821	1.060404	1.884222	-1.068517	-0.335449	0.253906	-0.720215
1076.0	3.407365	-0.033363	5.240174	1.070623	1.743434	-0.895233	-0.330566	0.247314	-0.731689
1077.0	3.741231	-0.324109	7.009989	0.564903	0.808956	-0.650718	-0.327881	0.238525	-0.729004
1078.0	5.890256	-1.174484	7.267707	0.307784	-0.401624	-0.42494	-0.339355	0.238525	-0.731445
1079.0	9.43555	-1.230957	7.095605	0.485757	-1.394591	-0.349797	-0.341309	0.233887	-0.731201
1080.0	13.398611	0.06561	6.635307	0.91153	-1.531474	-0.366269	-0.352051	0.220703	-0.718994
1081.0	15.322997	2.116493	5.606349	0.755015	-0.897812	-0.260777	-0.352295	0.227295	-0.726318
1082.0	13.713021	2.095419	3.842423	-0.428846	0.172291	-0.075734	-0.350342	0.233887	-0.726563
1083.0	10.955181	0.36234	2.300664	-0.971061	1.000292	0.062809	-0.345459	0.225098	-0.730957
1084.0	8.907171	-0.671002	2.519502	-0.623851	1.303968	0.037803	-0.337158	0.24292	-0.729248
1085.0	7.959599	-0.864885	3.327857	-0.31243	1.245385	-0.005688	-0.330322	0.238525	-0.738281
1086.0	7.168875	-0.982826	3.870723	-0.152825	0.953679	-0.012871	-0.328125	0.240723	-0.733643
1087.0	6.748784	-1.299845	3.977765	-0.058923	0.546454	0.024434	-0.328125	0.240723	-0.745361
1088.0	6.557144	-1.846254	3.999643	-0.101446	0.267821	0.124781	-0.323486	0.240723	-0.740723
1089.0	6.587534	-2.38315	3.645789	-0.224842	0.151447	0.23733	-0.321289	0.24292	-0.743164
1090.0	6.616534	-2.929615	3.282918	-0.315906	0.137604	0.339145	-0.319336	0.247314	-0.743408
1091.0	6.675294	-3.253889	3.08588	-0.344947	0.239156	0.38993	-0.326172	0.247314	-0.738525
1092.0	6.820656	-3.39127	2.96301	-0.278736	0.365522	0.398132	-0.319824	0.258301	-0.743652
1093.0	6.954343	-3.262955	2.984155	-0.083474	0.494239	0.385226	-0.310547	0.253906	-0.743652
1094.0	7.018588	-3.100318	3.09354	0.187403	0.627068	0.354114	-0.308594	0.260742	-0.746094
1095.0	7.100574	-2.812587	3.241387	0.464264	0.639138	0.346176	-0.30835	0.256348	-0.757568
1096.0	7.112275	-2.358958	3.193471	0.712659	0.48825	0.341228	-0.305908	0.249756	-0.754883
1097.0	7.179759	-1.772652	3.373074	0.809511	0.233735	0.355203	-0.303467	0.245361	-0.759521
1098.0	7.302656	-1.386948	3.244118	0.658154	-0.03122	0.369634	-0.296875	0.251953	-0.759766
1099.0	7.445113	-1.074155	2.819234	0.491995	-0.286403	0.374432	-0.30542	0.238525	-0.763916
1100.0	7.671217	-0.966482	2.35279	0.385877	-0.492542	0.367641	-0.305908	0.249512	-0.752686
1101.0	7.798687	-0.91832	1.870859	0.383714	-0.542413	0.363402	-0.305664	0.245117	-0.75708
1102.0	7.831197	-0.957279	1.501213	0.440634	-0.356497	0.346765	-0.308105	0.245117	-0.759521
1103.0	7.678496	-1.162655	1.368027	0.553936	-0.092425	0.319252	-0.31665	0.238525	-0.759277
1104.0	7.530888	-1.190512	1.513166	0.783417	0.083216	0.278258	-0.30542	0.236328	-0.763672
1105.0	7.502078	-0.944678	1.94221	0.977881	0.07561	0.206768	-0.313965	0.227539	-0.763428
1106.0	7.717756	-0.501528	2.468552	1.020722	-0.086577	0.155587	-0.311768	0.229736	-0.763428
1107.0	8.257525	-0.229753	2.838998	0.829199	-0.403902	0.15611	-0.313965	0.223145	-0.763184
1108.0	7.818874	0.033371	2.419971	0.620085	-0.442174	0.088712	-0.313477	0.214355	-0.762939
1109.0	8.255727	-0.098255	1.864044	0.461178	-0.479007	0.036148	-0.313477	0.212158	-0.753662
1110.0	8.695537	-0.377754	1.663437	0.438557	-0.443697	0.004436	-0.315674	0.212158	-0.762939
1111.0	9.550789	-0.571139	1.96061	0.353904	-0.311987	-0.023415	-0.326904	0.209961	-0.758057
1112.0	9.978381	-0.821719	2.406447	0.155106	-0.096447	-0.039254	-0.327148	0.216553	-0.762939
1113.0	10.246332	-1.15391	2.454626	-0.037384	0.036359	-0.021032	-0.320068	0.212158	-0.760498
1114.0	10.155957	-1.294666	2.549821	-0.022187	0.069743	-0.062065	-0.320068	0.209961	-0.762695
1115.0	10.6724	-1.12715	2.660668	-0.072254	0.030326	-0.127827	-0.324707	0.209961	-0.758057
1116.0	13.048856	-1.38394	3.978112	-0.240088	-0.825898	0.15595	-0.327148	0.216553	-0.758301
1117.0	11.259951	-0.887996	2.546824	-0.653342	-0.464555	0.129773	-0.329346	0.216553	-0.758301
1118.0	10.514116	-2.053941	0.810467	-0.932902	-0.176281	0.104298	-0.334229	0.223145	-0.753906
1119.0	10.65349	-3.305203	0.274014	-0.516777	-0.117134	0.009353	-0.338623	0.2229	-0.749268
1120.0	11.826548	-3.486043	1.665581	0.156663	0.06981	-0.086731	-0.336426	0.225098	-0.744873
1121.0	13.836849	-2.742844	4.700541	0.642792	0.422576	-0.094499	-0.327148	0.21875	-0.753906
1122.0	16.548848	-0.795522	8.021183	0.66107	0.214619	0.088815	-0.335938	0.211914	-0.751221
1123.0	18.41379	1.955829	11.114876	-0.076433	-0.073644	0.475953	-0.335938	0.214111	-0.753662
1124.0	15.020493	1.337849	9.43882	-1.750068	-0.028098	0.826218	-0.33252	0.236328	-0.756836
1125.0	10.868244	-2.225136	5.065878	-2.446162	-0.012632	0.946235	-0.328613	0.251709	-0.743408
1126.0	7.257915	-3.890615	1.498003	-1.498981	0.238909	0.749011	-0.328857	0.260498	-0.739014
1127.0	5.098453	-2.347399	1.512428	-0.246844	1.007761	0.437695	-0.319824	0.258301	-0.748291
1128.0	5.145277	-0.874295	4.479575	0.005377	1.882591	0.269664	-0.313232	0.262939	-0.764648
1129.0	5.545527	-1.198364	7.462428	-0.092844	1.718873	0.319963	-0.301758	0.260742	-0.757813
1130.0	6.185105	-1.584014	10.386678	0.216576	0.39001	0.485607	-0.304199	0.265137	-0.757813
1131.0	8.766538	-1.18582	11.475517	0.053006	-1.249534	0.749712	-0.308838	0.265137	-0.746338
1132.0	11.813362	-1.361987	10.33048	-0.443185	-2.341212	0.950288	-0.32959	0.275879	-0.746582
1133.0	14.084115	-3.329912	7.844183	-0.797794	-2.390254	0.918508	-0.338623	0.280273	-0.730469
1134.0	14.268532	-5.292674	3.731695	-0.631744	-1.220425	0.714733	-0.338867	0.284668	-0.728516
1135.0	12.347937	-5.84453	0.450314	-0.071232	0.121299	0.432851	-0.336426	0.280273	-0.730469
1136.0	10.732286	-4.668057	0.290849	0.702273	1.060598	0.091196	-0.331787	0.275879	-0.739746
1137.0	9.105776	-2.288158	2.411115	1.012434	1.504301	-0.148032	-0.327148	0.273682	-0.746582
1138.0	7.687865	-0.667793	4.101896	0.691721	1.420137	-0.267049	-0.315674	0.267334	-0.750977
1139.0	7.001111	-0.401539	4.948763	0.389121	0.737935	-0.296449	-0.317627	0.258301	-0.750732
1140.0	7.130293	-0.092736	4.945559	0.367934	-0.003214	-0.330411	-0.32666	0.258301	-0.746094
1141.0	7.496632	0.540691	4.242907	0.372757	-0.329765	-0.346425	-0.328613	0.253906	-0.750488
1142.0	7.472094	1.064233	3.104543	0.265821	-0.267167	-0.361063	-0.328613	0.256104	-0.743652
1143.0	7.121742	1.13815	2.191847	0.068959	-0.01788	-0.372841	-0.330566	0.247314	-0.745605
1144.0	6.905568	0.9571	1.770482	-0.002622	0.176674	-0.407831	-0.328613	0.251709	-0.752686
1145.0	6.657768	0.882667	1.983797	0.044212	0.248691	-0.433009	-0.334961	0.245117	-0.747803
1146.0	6.447397	0.655019	2.6295	0.004866	0.226404	-0.425471	-0.330322	0.24292	-0.75
1147.0	6.218007	0.228303	3.024572	-0.108781	0.124064	-0.421094	-0.334717	0.238525	-0.75
1148.0	6.170286	0.083859	3.294844	-0.145566	-0.161698	-0.435625	-0.332764	0.24292	-0.743164
1149.0	6.759425	0.112788	3.371095	-0.258985	-0.479946	-0.459637	-0.339355	0.238525	-0.747559
1150.0	7.444919	0.342084	3.167273	-0.362905	-0.591364	-0.468607	-0.348389	0.240479	-0.738281
1151.0	7.948577	0.060131	2.751865	-0.589563	-0.485933	-0.482632	-0.35498	0.236084	-0.740479
1152.0	8.181929	-0.003512	2.013209	-0.604285	-0.282906	-0.476829	-0.353027	0.244873	-0.736328
1153.0	8.064539	-0.216857	1.630372	-0.70737	-0.037921	-0.452302	-0.357422	0.242676	-0.731445
1154.0	7.750154	-0.075103	1.265881	-0.700183	0.101226	-0.410207	-0.348633	0.24707	-0.733887
1155.0	7.705356	-0.062542	1.313138	-0.761854	0.101248	-0.370744	-0.355469	0.24707	-0.731689
1156.0	7.810037	-0.209224	1.442318	-0.788158	0.029305	-0.30667	-0.35791	0.251465	-0.73877
1157.0	7.615323	-0.681763	1.80034	-0.875065	-0.084651	-0.231539	-0.35791	0.255859	-0.731934
1158.0	7.473482	-1.315093	1.909581	-0.92616	-0.067782	-0.148069	-0.355713	0.255859	-0.729736
1159.0	7.344847	-1.847165	1.885104	-0.864598	-0.051709	-0.080948	-0.360352	0.258057	-0.722656
1160.0	7.638183	-2.14672	2.154412	-0.810225	-0.076797	-0.033522	-0.358398	0.266846	-0.720703
1161.0	8.132057	-2.199091	2.193514	-0.800614	-0.11642	-0.019736	-0.362793	0.264648	-0.725342
1162.0	8.413104	-2.422129	2.038067	-0.83166	-0.098753	0.006937	-0.36084	0.273682	-0.720947
1163.0	8.654758	-2.740656	1.522111	-0.765485	-0.080629	-0.005026	-0.363281	0.273438	-0.71875
1164.0	9.525827	-2.771898	2.152817	-0.405364	0.002319	-0.057748	-0.367676	0.27124	-0.716309
1165.0	10.447677	-2.297751	3.596936	-0.09769	0.041863	-0.06424	-0.363281	0.273438	-0.716309
1166.0	10.708479	-2.219292	3.827254	-0.152286	-0.274422	-0.019792	-0.367432	0.269043	-0.718506
1167.0	11.501971	-2.597298	3.609418	-0.032528	-0.60361	0.0036	-0.378662	0.264648	-0.713623
1168.0	12.112708	-2.765841	3.119083	0.28784	-0.67606	-0.00386	-0.376465	0.269043	-0.71167
1169.0	11.908538	-2.178083	2.156744	0.676586	-0.532235	-0.025986	-0.378174	0.253662	-0.706299
1170.0	11.093218	-1.193571	1.10146	0.627096	-0.262869	-0.014877	-0.38501	0.253662	-0.718018
1171.0	10.464292	-0.983919	0.124384	0.436182	0.09059	-0.001899	-0.384766	0.251465	-0.720215
1172.0	10.284772	-0.81327	0.263021	0.422071	0.409364	-7.4e-05	-0.380127	0.24707	-0.715332
1173.0	10.280949	-0.683686	1.816628	0.288186	0.599339	0.007715	-0.380127	0.244873	-0.719971
1174.0	10.822098	-1.623254	5.570773	0.01225	0.433725	-0.020207	-0.37793	0.249268	-0.724854
1175.0	11.58543	-2.882844	9.034299	-0.387627	-0.693229	-0.246115	-0.379883	0.240479	-0.724365
1176.0	14.475862	-3.274279	11.072933	-0.175334	-1.574803	-0.565516	-0.395508	0.238037	-0.712646
1177.0	15.638733	-2.163858	7.3904	0.124216	-1.685623	-0.918427	-0.413574	0.23584	-0.712646
1178.0	14.496532	-1.536204	3.72452	0.10419	-0.949227	-1.142365	-0.410889	0.227051	-0.707764
1179.0	11.041368	-1.438566	2.577651	0.421988	0.837643	-1.21804	-0.408447	0.220459	-0.714355
1180.0	6.365972	-1.086358	3.582364	0.876243	1.924089	-1.165377	-0.405762	0.209473	-0.727783
1181.0	3.993077	-1.15433	6.091388	0.912373	1.587015	-1.067844	-0.391602	0.194092	-0.727295
1182.0	5.584216	-1.498295	8.609794	0.631334	-0.103384	-0.868814	-0.398438	0.196289	-0.722656
1183.0	9.341981	-1.244539	8.021161	0.506256	-1.417732	-0.629082	-0.411377	0.180664	-0.726807
1184.0	13.074417	-0.384356	6.562826	0.884383	-1.395054	-0.504492	-0.415527	0.174072	-0.715088
1185.0	15.007918	1.218973	5.402301	0.838341	-0.831289	-0.314724	-0.428955	0.171875	-0.717285
1186.0	14.568908	1.774446	4.10468	-0.1402	-0.173209	-0.050503	-0.424561	0.174072	-0.712646
1187.0	12.75029	0.7179	2.49242	-0.827923	0.538482	0.09743	-0.420166	0.17627	-0.719727
1188.0	10.629479	-0.127916	2.284097	-0.636098	1.097203	0.103604	-0.411133	0.178467	-0.724365
1189.0	9.060957	-0.602077	3.110418	-0.415046	1.294026	0.091389	-0.406738	0.178467	-0.731445
1190.0	7.683069	-0.666322	3.685319	-0.214026	1.049796	0.097399	-0.404297	0.17627	-0.731201
1191.0	7.143865	-0.645234	4.129417	-0.172204	0.573807	0.119408	-0.4021	0.17627	-0.733643
1192.0	7.027807	-0.969875	3.807672	-0.354293	0.298248	0.198797	-0.391113	0.183105	-0.733887
1193.0	6.800103	-1.785067	3.198804	-0.516446	0.26062	0.304581	-0.395752	0.183105	-0.738525
1194.0	6.435943	-2.551375	2.665116	-0.525495	0.331191	0.381638	-0.393799	0.191895	-0.736572
1195.0	6.115069	-2.937778	2.489851	-0.404345	0.426103	0.419692	-0.393799	0.194092	-0.739014
1196.0	5.981948	-2.968235	2.740015	-0.230002	0.528875	0.405182	-0.391602	0.194092	-0.74585
1197.0	6.127938	-2.993135	3.039307	-0.114612	0.621384	0.386259	-0.386963	0.191895	-0.748047
1198.0	6.304934	-3.113102	3.43136	0.036162	0.630229	0.385132	-0.38501	0.198486	-0.746094
1199.0	6.515887	-3.307225	3.616279	0.22219	0.602217	0.384801	-0.382813	0.198486	-0.75293
1200.0	6.549788	-3.023548	3.682817	0.517029	0.480215	0.406522	-0.37793	0.191895	-0.750488
1201.0	6.799951	-2.367713	3.728492	0.719478	0.278592	0.418554	-0.375488	0.185303	-0.757324
1202.0	7.262944	-1.682339	3.620798	0.719375	0.036414	0.440348	-0.380127	0.1875	-0.754883
1203.0	7.455664	-1.208848	3.250005	0.545349	-0.217283	0.449174	-0.377686	0.183105	-0.75708
1204.0	7.483192	-0.896802	2.486226	0.417704	-0.414874	0.441386	-0.375244	0.178711	-0.75708
1205.0	7.47937	-0.837163	1.818819	0.378296	-0.522079	0.417015	-0.386475	0.176514	-0.752197
1206.0	7.687057	-0.986299	1.415206	0.448807	-0.474653	0.376653	-0.381836	0.176514	-0.75
1207.0	7.928026	-0.957805	1.504014	0.694381	-0.296226	0.326158	-0.38623	0.172119	-0.754395
1208.0	7.892549	-0.836855	1.867134	0.835947	-0.072876	0.271951	-0.388428	0.172119	-0.754395
1209.0	7.70308	-0.645333	2.309886	0.90682	0.001725	0.21433	-0.390381	0.165527	-0.763428
1210.0	7.375388	-0.459344	2.467885	0.854335	-0.117074	0.163867	-0.392334	0.158936	-0.760742
1211.0	7.75266	-0.465478	2.541212	0.711078	-0.459046	0.138761	-0.398926	0.149902	-0.755859
1212.0	7.645876	-0.367723	2.0599	0.558561	-0.682305	0.094707	-0.398926	0.154297	-0.758301
1213.0	8.364731	-0.534647	1.532269	0.438393	-0.824811	0.03947	-0.402832	0.136719	-0.748535
1214.0	9.444227	-1.054899	1.497476	0.298056	-0.867823	0.009527	-0.414307	0.145508	-0.750977
1215.0	10.509667	-1.480052	1.761364	0.178405	-0.668046	-0.031115	-0.418701	0.141113	-0.748535
1216.0	11.369438	-1.797057	2.094339	0.157816	-0.32084	-0.032787	-0.41626	0.136719	-0.748291
1217.0	12.249559	-1.640625	2.420343	0.256151	-0.079637	-0.019787	-0.425293	0.134521	-0.75293
1218.0	12.963761	-1.022093	3.316088	0.231642	-0.08609	0.017152	-0.418701	0.136719	-0.755371
1219.0	12.627176	-0.287975	3.095649	-0.123001	-0.17186	0.095255	-0.42334	0.143311	-0.755615
1220.0	11.169155	-0.029765	1.837857	-0.523436	-0.224635	0.125424	-0.432129	0.138672	-0.753174
1221.0	10.132147	-0.618106	0.491683	-0.892831	-0.216188	0.140286	-0.425537	0.143311	-0.753174
1222.0	9.964463	-1.864559	-0.371481	-0.872282	-0.125073	0.101892	-0.428223	0.149902	-0.755859
1223.0	11.314445	-2.840054	0.582552	-0.241033	0.159214	0.045033	-0.427979	0.143311	-0.755615
1224.0	13.616014	-2.092299	3.550619	0.63865	0.501418	0.02303	-0.427979	0.143311	-0.753174
1225.0	16.41009	0.393991	7.34676	0.956901	0.330631	0.189493	-0.42334	0.141113	-0.760254
1226.0	17.433938	2.822169	11.174951	-0.067153	0.216307	0.581101	-0.423584	0.147705	-0.760498
1227.0	14.442398	1.377057	9.993447	-2.182092	0.114894	0.866184	-0.431152	0.16748	-0.76123
1228.0	10.595505	-2.865994	4.960445	-2.923148	-0.24035	1.02017	-0.42749	0.189453	-0.759766
1229.0	7.657131	-5.005077	0.645975	-1.895336	-0.282918	0.843574	-0.429932	0.196045	-0.75293
1230.0	6.519879	-3.663657	-0.012011	-0.482031	0.5051	0.505019	-0.421143	0.200684	-0.757813
1231.0	6.604237	-1.953752	3.379983	0.074971	1.635087	0.37218	-0.414551	0.205078	-0.76709
1232.0	7.182769	-1.70294	7.392596	0.046798	1.931314	0.430968	-0.398926	0.207275	-0.769531
1233.0	7.142883	-1.973312	10.66914	0.165759	0.93064	0.706784	-0.398926	0.205078	-0.776611
1234.0	7.945747	-1.897555	11.762517	-0.011947	-0.741815	0.961329	-0.39917	0.213867	-0.779053
1235.0	10.118193	-2.510198	10.370392	-0.479466	-1.91339	1.095577	-0.421875	0.220459	-0.767822
1236.0	13.195656	-4.208775	8.137426	-0.606726	-2.208257	1.041531	-0.433594	0.229248	-0.751953
1237.0	13.993922	-5.564018	4.279487	-0.234594	-1.484996	0.851527	-0.43335	0.224854	-0.74707
1238.0	12.46894	-5.447246	0.885236	0.229484	-0.192805	0.555229	-0.438477	0.23584	-0.756836
1239.0	10.826216	-4.468658	0.163394	0.773299	0.931282	0.258067	-0.43335	0.224854	-0.756348
1240.0	9.475798	-2.563075	2.035045	1.119616	1.558193	0.008277	-0.422119	0.222656	-0.767822
1241.0	8.046661	-0.972549	4.051291	0.906668	1.623812	-0.151366	-0.412598	0.213867	-0.772217
1242.0	7.14433	-0.379981	4.93882	0.570526	1.05536	-0.212913	-0.403809	0.218262	-0.781738
1243.0	6.851989	-0.314007	4.787476	0.456417	0.27816	-0.243949	-0.412598	0.209473	-0.783691
1244.0	7.035187	0.180259	3.835638	0.567014	-0.165918	-0.281125	-0.414795	0.209473	-0.779053
1245.0	7.22107	0.966401	2.865356	0.638708	-0.190775	-0.303619	-0.412109	0.198486	-0.781006
1246.0	6.962519	1.465592	2.079084	0.458742	0.041835	-0.300541	-0.416504	0.198486	-0.781006
1247.0	6.669825	1.585925	1.743395	0.29446	0.255062	-0.297845	-0.414063	0.191895	-0.782959
1248.0	6.349116	1.478117	2.053031	0.211192	0.273729	-0.309569	-0.41626	0.1875	-0.791992
1249.0	6.113126	1.257286	2.729577	0.12658	0.154997	-0.298604	-0.41626	0.189697	-0.785156
1250.0	5.838688	0.907082	3.228904	-0.033756	-0.014292	-0.311341	-0.411621	0.1875	-0.787354
1251.0	6.067388	0.488181	3.251654	-0.146429	-0.342943	-0.342911	-0.418457	0.189697	-0.785156
1252.0	6.856142	0.456112	3.19519	-0.166651	-0.685373	-0.382532	-0.425293	0.191895	-0.780518
1253.0	7.864101	0.490772	2.983359	-0.288529	-0.804479	-0.420641	-0.434326	0.19165	-0.780518
1254.0	8.437024	0.514511	2.463348	-0.37388	-0.663032	-0.466315	-0.429932	0.191895	-0.782959
1255.0	8.633323	-0.010938	2.035218	-0.591968	-0.348033	-0.478205	-0.438965	0.19165	-0.77832
1256.0	8.587235	-0.288555	1.482287	-0.639782	-0.115388	-0.446289	-0.436523	0.19165	-0.780518
1257.0	8.090122	-0.409279	1.003074	-0.74987	0.024368	-0.407986	-0.445557	0.19165	-0.775879
1258.0	7.949105	-0.137467	0.886012	-0.689179	0.10256	-0.354896	-0.441406	0.200439	-0.778564
1259.0	7.760621	-0.233511	1.112919	-0.813898	0.145648	-0.285236	-0.437012	0.202881	-0.77417
1260.0	7.637263	-0.820661	1.393378	-0.904215	0.103938	-0.204099	-0.441895	0.21167	-0.771973
1261.0	7.318467	-1.426578	1.619621	-0.899728	-0.004882	-0.115204	-0.4375	0.213867	-0.779053
1262.0	7.233998	-1.892995	1.625815	-0.907054	-0.048912	-0.051043	-0.440186	0.222656	-0.770264
1263.0	7.700454	-2.277065	1.629033	-0.810157	-0.101633	-0.011339	-0.449219	0.222656	-0.774902
1264.0	8.21804	-2.379053	1.919022	-0.704747	-0.076348	0.007612	-0.442627	0.229248	-0.770508
1265.0	8.632909	-2.556972	2.219424	-0.633843	0.019357	0.021895	-0.444824	0.227051	-0.777344
1266.0	8.888667	-2.510043	2.339517	-0.471736	0.041238	0.015078	-0.445313	0.238037	-0.770752
1267.0	9.07311	-2.263727	2.273436	-0.363739	0.009044	0.005361	-0.44751	0.240234	-0.770752
1268.0	9.786781	-2.443257	2.212657	-0.308739	-0.089743	-0.009608	-0.445313	0.240234	-0.768555
1269.0	11.117498	-2.609003	2.626054	-0.191149	-0.315302	-0.024569	-0.449951	0.244629	-0.770996
1270.0	12.422371	-2.784135	2.968478	-0.062982	-0.532962	-0.01898	-0.452148	0.244629	-0.768555
1271.0	13.554107	-2.731494	3.157024	0.253336	-0.559333	-0.039993	-0.461182	0.240234	-0.775391
1272.0	13.376259	-1.935663	2.859169	0.653882	-0.376762	-0.081255	-0.463135	0.23584	-0.772949
1273.0	12.423254	-0.992342	2.086825	0.81148	-0.29398	-0.099902	-0.465088	0.229004	-0.768066
1274.0	11.744515	-0.55164	0.967805	0.609733	-0.307818	-0.092842	-0.471924	0.226807	-0.770264
1275.0	11.408369	-0.805477	0.23621	0.411351	-0.141402	-0.084301	-0.467285	0.224609	-0.767822
1276.0	11.423602	-1.252384	0.988472	0.360826	0.221233	-0.11145	-0.465088	0.224609	-0.770264
1277.0	11.813113	-2.108072	4.440233	0.240775	0.425356	-0.16678	-0.471191	0.213623	-0.769775
1278.0	12.221769	-3.533903	8.125522	-0.205469	-0.144638	-0.328018	-0.469482	0.222412	-0.77002
1279.0	13.30711	-4.335156	10.282228	0.068998	-0.758458	-0.560863	-0.473633	0.21582	-0.767578
1280.0	13.959805	-2.804191	7.778139	0.350625	-1.262377	-0.84539	-0.484619	0.209229	-0.760254
1281.0	13.490645	-1.665268	4.465655	0.355741	-0.755296	-1.013673	-0.489014	0.206787	-0.755615
1282.0	9.82852	-1.035723	2.69679	0.67695	0.739711	-1.010356	-0.484131	0.195801	-0.764404
1283.0	6.103399	-0.397827	3.565642	1.079915	1.679275	-0.967537	-0.472412	0.185059	-0.773438
1284.0	4.301177	-0.32229	5.457034	0.915147	1.501212	-0.842545	-0.469971	0.178467	-0.777832
1285.0	4.733982	-1.598774	7.465386	0.513759	0.398762	-0.710152	-0.474121	0.169678	-0.791504
1286.0	7.616145	-2.478255	7.660813	0.411597	-1.00932	-0.625037	-0.487549	0.167236	-0.777344
1287.0	11.625224	-1.702417	6.718791	0.900157	-1.452876	-0.636617	-0.491455	0.15625	-0.776855
1288.0	14.724374	0.198991	5.978797	1.328268	-0.952754	-0.623649	-0.491455	0.151855	-0.776855
1289.0	14.593948	1.474926	5.189855	0.640575	0.031614	-0.394432	-0.495605	0.145264	-0.771973
1290.0	12.247752	1.08932	3.552229	-0.283032	0.802982	-0.140033	-0.486572	0.147461	-0.779053
1291.0	10.029246	0.552524	2.783597	-0.39065	1.066146	-0.038057	-0.482178	0.145264	-0.785889
1292.0	8.971165	0.216776	3.075246	-0.252735	1.02301	-0.003929	-0.471191	0.15625	-0.788574
1293.0	8.047443	-0.005278	3.335124	-0.09069	0.935712	0.027555	-0.468994	0.154053	-0.79541
1294.0	7.23008	-0.15244	3.535339	0.093849	0.73748	0.069468	-0.466797	0.15625	-0.793213
1295.0	6.802491	-0.261351	3.931262	0.101766	0.440622	0.138453	-0.471191	0.154053	-0.804688
1296.0	6.785657	-0.726143	3.900412	-0.160391	0.207065	0.25175	-0.4646	0.160889	-0.804932
1297.0	6.855554	-1.463642	3.443986	-0.402036	0.129578	0.347925	-0.462646	0.165283	-0.800537
1298.0	6.872681	-2.064679	3.01128	-0.492006	0.177265	0.419698	-0.460693	0.171875	-0.802979
1299.0	6.784128	-2.615104	2.829571	-0.449839	0.311391	0.427745	-0.456299	0.17627	-0.803223
1300.0	6.69629	-3.061627	2.826825	-0.334339	0.479856	0.405769	-0.452148	0.182861	-0.787354
1301.0	6.707463	-3.342934	2.890126	-0.070464	0.58418	0.367925	-0.456299	0.178467	-0.810303
1302.0	6.753391	-3.384071	3.07242	0.254162	0.586554	0.353909	-0.447998	0.191895	-0.813232
1303.0	6.819246	-3.389836	3.263936	0.468259	0.536013	0.376315	-0.443115	0.182861	-0.808105
1304.0	7.060175	-3.104635	3.315502	0.665051	0.406029	0.401389	-0.443115	0.185303	-0.815186
1305.0	7.294939	-2.654464	3.369305	0.706158	0.232772	0.431918	-0.440674	0.180908	-0.824219
1306.0	7.414029	-2.124008	3.171431	0.658761	0.026894	0.460532	-0.440674	0.178467	-0.817383
1307.0	7.602857	-1.602143	2.829243	0.594414	-0.253187	0.485524	-0.442627	0.171875	-0.814697
1308.0	7.653281	-1.054311	2.295264	0.556097	-0.510671	0.490417	-0.442871	0.180664	-0.81958
1309.0	7.941954	-1.13656	1.743942	0.424274	-0.629583	0.480565	-0.45166	0.174072	-0.814697
1310.0	7.9331	-1.024699	1.141428	0.624193	-0.553437	0.440362	-0.453857	0.171875	-0.8125
1311.0	7.946543	-0.97084	1.05258	0.862298	-0.316028	0.383724	-0.456055	0.171875	-0.814697
1312.0	7.935184	-0.879753	1.32269	0.989217	-0.035677	0.312979	-0.456055	0.169678	-0.810059
1313.0	7.532951	-0.618279	1.680106	1.121863	0.132911	0.212113	-0.451172	0.158691	-0.823486
1314.0	7.370389	-0.30769	2.216439	1.130216	0.120801	0.116527	-0.455566	0.160889	-0.821289
1315.0	7.615426	0.000525	2.571149	1.01468	-0.087768	0.057976	-0.455322	0.149902	-0.816162
1316.0	7.939105	0.078639	2.728817	0.743786	-0.398062	0.028089	-0.459717	0.149902	-0.811523
1317.0	8.27755	-0.019564	2.247143	0.491372	-0.615271	-0.01687	-0.466309	0.145264	-0.806641
1318.0	8.891439	-0.355617	1.852332	0.29114	-0.621939	-0.050391	-0.466309	0.147461	-0.809082
1319.0	9.644286	-0.718445	1.771924	0.156318	-0.410572	-0.064574	-0.46167	0.140869	-0.806641
1320.0	10.474567	-1.014011	1.929509	0.102901	-0.188087	-0.050269	-0.473145	0.149658	-0.806885
1321.0	11.60338	-0.969874	2.559414	0.191359	-0.169465	0.000758	-0.470703	0.143066	-0.813721
1322.0	12.6541	-0.389173	3.286106	0.08904	-0.318806	0.059858	-0.471191	0.151855	-0.802246
1323.0	12.664199	0.229501	3.368515	-0.315431	-0.415749	0.143067	-0.47998	0.147461	-0.804443
1324.0	11.767112	-0.026678	2.167038	-0.954247	-0.311345	0.18289	-0.480469	0.162842	-0.798096
1325.0	10.950885	-1.299964	0.674223	-1.287796	-0.255202	0.173605	-0.483154	0.169434	-0.79834
1326.0	10.888074	-2.564792	-0.465798	-1.12256	-0.275848	0.089454	-0.488281	0.185059	-0.798828
