Acquisition frequency: 100 Hz
PacketCounter	Acc_X	Acc_Y	Acc_Z	Gyr_X	Gyr_Y	Gyr_Z	Mag_X	Mag_Y	Mag_Z
0.0	9.261516	-1.46996	3.334025	0.004457	0.015859	0.006486	-0.433105	0.218018	-0.688721
1.0	9.238387	-1.458014	3.312372	0.002658	0.013608	0.003143	-0.435791	0.226807	-0.688965
2.0	9.260319	-1.470534	3.337096	0.005075	0.020876	0.004973	-0.435547	0.222412	-0.686523
3.0	9.237039	-1.458565	3.315889	0.007762	0.017524	0.006205	-0.4375	0.218018	-0.686279
4.0	9.259863	-1.454443	3.322789	0.010319	0.017134	0.003902	-0.43335	0.226807	-0.686768
5.0	9.258185	-1.471119	3.342755	0.011605	0.02366	0.00653	-0.435303	0.220215	-0.684082
6.0	9.251754	-1.437387	3.342427	0.007224	0.013048	0.005595	-0.433105	0.218018	-0.691162
7.0	9.264519	-1.472456	3.312355	0.00349	0.016205	0.00304	-0.433105	0.220215	-0.684082
8.0	9.263871	-1.472598	3.314102	0.002979	0.020483	0.002325	-0.433105	0.218018	-0.691162
9.0	9.262117	-1.489281	3.334242	0.002171	0.026624	0.002312	-0.430908	0.222412	-0.686523
10.0	9.238728	-1.476973	3.31355	0.001505	0.025112	-0.001831	-0.43335	0.222412	-0.686523
11.0	9.238037	-1.476698	3.315597	0.001266	0.018776	-0.003139	-0.428711	0.222412	-0.684326
12.0	9.253349	-1.471281	3.356049	-0.000698	0.015434	-0.002244	-0.430908	0.222412	-0.691162
13.0	9.231251	-1.442302	3.316561	0.001181	0.018226	-0.001021	-0.428711	0.222412	-0.686523
14.0	9.259816	-1.471581	3.325865	0.006834	0.021913	-0.005016	-0.43335	0.222412	-0.686523
15.0	9.229974	-1.441355	3.320524	0.005617	0.020627	-0.002099	-0.433105	0.218018	-0.688721
16.0	9.235015	-1.475046	3.324738	0.004188	0.021752	-0.000601	-0.437744	0.220215	-0.688721
17.0	9.228582	-1.440774	3.324644	0.004273	0.022296	-0.002721	-0.435303	0.220215	-0.684082
18.0	9.257987	-1.453506	3.316401	0.001585	0.02564	-0.003962	-0.430908	0.220215	-0.693359
19.0	9.249452	-1.452337	3.352574	-0.000144	0.028628	-0.001764	-0.433105	0.220215	-0.684082
20.0	9.225138	-1.456458	3.349773	-0.004198	0.024904	-0.003512	-0.428467	0.218018	-0.684082
21.0	9.223311	-1.473012	3.370013	-0.007058	0.027154	-0.000516	-0.430908	0.218018	-0.693359
22.0	9.229293	-1.490609	3.356217	-0.01382	0.018039	-0.003391	-0.428467	0.21582	-0.693359
23.0	9.206266	-1.478473	3.334539	-0.004607	0.017478	-0.000579	-0.42627	0.21582	-0.681641
24.0	9.235913	-1.491711	3.325477	0.001599	0.013389	0.001808	-0.42627	0.21582	-0.686279
25.0	9.212873	-1.479464	3.303913	0.00305	0.020997	0.000193	-0.430908	0.220215	-0.686523
26.0	9.227872	-1.474305	3.34484	0.005138	0.021377	0.002835	-0.428711	0.222412	-0.686523
27.0	9.25625	-1.503808	3.354587	0.007276	0.025803	-0.002301	-0.439941	0.220215	-0.686523
28.0	9.279696	-1.482533	3.344931	0.010515	0.035649	-0.000575	-0.428711	0.220215	-0.688721
29.0	9.233805	-1.450748	3.408199	0.001001	0.038065	-0.002698	-0.435303	0.220215	-0.688721
30.0	9.245124	-1.502075	3.397848	-0.004059	0.030654	-0.000112	-0.43335	0.226807	-0.691406
31.0	9.198355	-1.494239	3.371747	-0.005423	0.023593	-0.000617	-0.428467	0.218018	-0.686523
32.0	9.235598	-1.508224	3.329743	0.002002	0.020788	-0.001138	-0.428711	0.220215	-0.686523
33.0	9.229004	-1.474089	3.330018	0.007412	0.031557	0.001112	-0.428467	0.218018	-0.686523
34.0	9.227868	-1.473703	3.333335	0.012771	0.037093	-0.002178	-0.430664	0.213623	-0.690918
35.0	9.235467	-1.450378	3.391747	0.021767	0.038932	-0.000777	-0.433105	0.220215	-0.688721
36.0	9.235375	-1.433362	3.377145	0.01361	0.02746	0.003502	-0.428711	0.222412	-0.691162
37.0	9.233606	-1.44984	3.397039	0.004065	0.012434	0.001622	-0.433105	0.220215	-0.691162
38.0	9.246507	-1.485134	3.367274	-0.011692	0.023619	0.00474	-0.428467	0.21582	-0.693359
39.0	9.262114	-1.46432	3.390767	-0.009592	0.032717	0.007257	-0.430908	0.220215	-0.684082
40.0	9.23053	-1.452113	3.40442	-0.008443	0.042164	0.006329	-0.42627	0.218018	-0.691162
41.0	9.182175	-1.461639	3.397339	-0.015269	0.041238	0.005439	-0.433105	0.218018	-0.679443
42.0	9.179759	-1.479106	3.418435	-0.01168	0.032317	0.004599	-0.430908	0.220215	-0.693359
43.0	9.203465	-1.458911	3.407817	-0.005329	0.011895	0.003025	-0.430908	0.222412	-0.686523
44.0	9.19511	-1.45812	3.442602	0.001772	0.014446	-0.002447	-0.428467	0.218018	-0.688721
45.0	9.226844	-1.437987	3.39843	0.002225	0.027065	0.000141	-0.428955	0.224609	-0.693604
46.0	9.209878	-1.436184	3.468692	0.004112	0.038557	0.001233	-0.430908	0.218018	-0.691162
47.0	9.229737	-1.465101	3.513414	-0.003846	0.036898	0.001135	-0.424316	0.222412	-0.693604
48.0	9.175993	-1.440092	3.503347	-0.011292	0.030981	0.001763	-0.428711	0.220215	-0.691162
49.0	9.182945	-1.441575	3.472132	-0.015127	0.024868	0.001429	-0.431152	0.224609	-0.691406
50.0	9.219144	-1.472845	3.448231	-0.012747	0.023388	0.003381	-0.428711	0.222412	-0.695801
51.0	9.189211	-1.443804	3.442486	-0.01131	0.022263	0.001889	-0.424072	0.220215	-0.688721
52.0	9.20944	-1.472992	3.485994	-0.002733	0.028905	0.000466	-0.430908	0.220215	-0.691162
53.0	9.147802	-1.446913	3.509349	-0.006025	0.035946	0.000595	-0.424316	0.222412	-0.688965
54.0	9.139714	-1.429665	3.528184	-0.004589	0.03482	-0.000897	-0.426514	0.224609	-0.684326
55.0	9.153596	-1.44801	3.481448	-0.005131	0.021667	-0.001363	-0.424316	0.226807	-0.691406
56.0	9.151813	-1.46467	3.50094	-0.00545	0.014819	-0.000536	-0.426514	0.220215	-0.693359
57.0	9.181562	-1.477949	3.492026	-0.005451	0.014818	-0.000537	-0.430908	0.222412	-0.686523
58.0	9.21287	-1.451257	3.553781	0.000762	0.019446	0.001755	-0.428955	0.226807	-0.688965
59.0	9.203857	-1.473997	3.500285	-0.009284	0.008712	-0.000873	-0.424072	0.218018	-0.686523
60.0	9.173245	-1.461194	3.511238	-0.012065	0.011497	-1.7e-05	-0.426514	0.224609	-0.693604
61.0	9.157308	-1.4665	3.47361	-0.003999	0.022393	-0.00216	-0.426514	0.224609	-0.686768
62.0	9.179782	-1.462086	3.481605	-0.000679	0.032747	-0.002556	-0.431152	0.226807	-0.686768
63.0	9.170737	-1.461066	3.517838	0.002516	0.02516	-0.000564	-0.426514	0.222412	-0.686523
64.0	9.139858	-1.447744	3.529646	0.002283	0.010165	-0.001721	-0.424316	0.222412	-0.688965
65.0	9.170003	-1.460721	3.519893	0.000305	-0.001854	-0.000695	-0.424072	0.220215	-0.688721
66.0	9.153673	-1.482392	3.498236	-0.003527	-0.007956	-0.001031	-0.424316	0.222412	-0.691162
67.0	9.208542	-1.474633	3.475688	0.00249	0.007766	-0.000296	-0.426514	0.220215	-0.686523
68.0	9.200095	-1.473786	3.51025	0.001574	0.013328	0.001788	-0.428955	0.224609	-0.691406
69.0	9.176265	-1.478151	3.505837	-0.000293	0.010549	0.000559	-0.424316	0.222412	-0.686523
70.0	9.146789	-1.448554	3.499069	0.000744	0.010739	0.001886	-0.428955	0.226807	-0.686768
71.0	9.152176	-1.482613	3.502057	0.002696	0.005366	0.001129	-0.426514	0.220215	-0.691162
72.0	9.176604	-1.461795	3.490096	0.001867	0.002778	0.001228	-0.428955	0.224609	-0.691406
73.0	9.182121	-1.495692	3.492817	0.004966	0.006834	-0.000457	-0.428711	0.222412	-0.686523
74.0	9.176196	-1.461431	3.491321	0.009615	0.006828	-8.3e-05	-0.426514	0.224609	-0.693604
75.0	9.181655	-1.49497	3.49435	0.009713	0.007372	-0.002204	-0.424316	0.222412	-0.688965
76.0	9.174516	-1.477159	3.510828	0.007138	0.007757	7.6e-05	-0.43335	0.222412	-0.688965
77.0	9.196537	-1.489346	3.53474	0.003208	0.001113	0.001861	-0.424072	0.220215	-0.686523
78.0	9.157784	-1.498664	3.490334	0.007955	0.001651	0.000115	-0.422119	0.224609	-0.693604
79.0	9.152026	-1.464451	3.488366	0.012505	0.001099	0.002608	-0.428955	0.224609	-0.693604
80.0	9.157624	-1.498276	3.490918	0.013541	0.001288	0.003935	-0.428955	0.224609	-0.691406
81.0	9.145037	-1.446786	3.504374	0.015395	-0.004628	0.005301	-0.43335	0.222412	-0.688965
82.0	9.150859	-1.480632	3.506336	0.014663	-0.006673	0.00328	-0.428955	0.224609	-0.688965
83.0	9.200147	-1.438714	3.481414	0.019836	-0.002241	0.004245	-0.424316	0.224609	-0.688965
84.0	9.174424	-1.476006	3.511553	0.02015	-0.007582	0.009218	-0.428711	0.222412	-0.691162
85.0	9.206081	-1.472755	3.482996	0.011257	-0.008877	0.00566	-0.428955	0.226807	-0.686768
86.0	9.206255	-1.472809	3.482512	0.013222	-0.005557	0.004764	-0.426514	0.222412	-0.686523
87.0	9.166457	-1.498741	3.455576	0.010843	-0.004083	0.002804	-0.422119	0.226807	-0.688965
88.0	9.181864	-1.493467	3.494445	0.015393	-0.004637	0.005295	-0.428711	0.220215	-0.688721
89.0	9.189986	-1.49437	3.460776	0.015088	-0.002783	0.005987	-0.422119	0.226807	-0.686768
90.0	9.185597	-1.443816	3.440351	0.015696	-0.006494	0.004602	-0.424072	0.220215	-0.691162
91.0	9.19827	-1.495219	3.426693	0.017769	-0.006117	0.007253	-0.428711	0.220215	-0.686523
92.0	9.229047	-1.484701	3.504527	0.020343	-0.006509	0.00497	-0.428711	0.222412	-0.688965
93.0	9.208145	-1.455875	3.46293	0.017464	-0.004265	0.007943	-0.426514	0.222412	-0.681885
94.0	9.184663	-1.460241	3.457612	0.014272	0.003319	0.005938	-0.431152	0.226807	-0.686768
95.0	9.191325	-1.477697	3.442545	0.018919	0.003304	0.006307	-0.426758	0.226807	-0.693604
96.0	9.184265	-1.460111	3.458722	0.017882	0.003113	0.004981	-0.426514	0.224609	-0.691406
97.0	9.184048	-1.459987	3.459352	0.017577	0.004967	0.005671	-0.42627	0.218018	-0.681885
98.0	9.167261	-1.481807	3.438888	0.016343	0.003693	0.008586	-0.428711	0.220215	-0.693359
99.0	9.160322	-1.464466	3.45463	0.017764	-0.006128	0.00725	-0.428711	0.220215	-0.684082
100.0	9.18379	-1.46028	3.459914	0.01746	-0.004274	0.00794	-0.426514	0.224609	-0.691406
101.0	9.214115	-1.47352	3.449632	0.02241	-0.006148	0.007617	-0.426758	0.226807	-0.691406
102.0	9.185112	-1.443765	3.441666	0.024277	-0.003376	0.008835	-0.428711	0.220215	-0.688721
103.0	9.206039	-1.472318	3.48329	0.025206	-0.000251	0.006608	-0.426514	0.224609	-0.691406
104.0	9.222178	-1.474185	3.416235	0.022407	-0.006156	0.007613	-0.431152	0.224609	-0.691406
105.0	9.19203	-1.460944	3.426042	0.021272	-0.006888	0.008408	-0.426758	0.226807	-0.691406
106.0	9.238944	-1.452456	3.436709	0.01776	-0.006142	0.007244	-0.42627	0.21582	-0.690918
107.0	9.208713	-1.439235	3.446736	0.019423	-0.000971	0.00703	-0.430908	0.218018	-0.684082
108.0	9.19209	-1.461057	3.425834	0.014777	-0.000953	0.006663	-0.428711	0.222412	-0.693604
109.0	9.190787	-1.47755	3.444042	0.021593	-5.7e-05	0.007556	-0.428955	0.229004	-0.691406
110.0	9.230731	-1.451484	3.470641	0.019929	-0.00523	0.007769	-0.430908	0.222412	-0.693604
111.0	9.194488	-1.42826	3.389892	0.018793	-0.005961	0.008565	-0.424072	0.220215	-0.686523
112.0	9.193307	-1.444842	3.407736	0.019625	-0.003378	0.008456	-0.428711	0.222412	-0.691162
113.0	9.246885	-1.453922	3.403297	0.022628	0.000123	0.008873	-0.426514	0.220215	-0.684082
114.0	9.208433	-1.4396	3.447332	0.021288	0.001789	0.008237	-0.428711	0.222412	-0.691162
115.0	9.201342	-1.422322	3.463459	0.015939	0.004987	0.011369	-0.428467	0.218018	-0.691162
116.0	9.21479	-1.457754	3.432799	0.0123	-2.3e-05	0.006819	-0.424316	0.222412	-0.688965
117.0	9.207852	-1.440429	3.448538	0.00528	0.001482	0.004496	-0.428955	0.224609	-0.691406
118.0	9.239258	-1.43742	3.420556	0.011566	-0.00207	0.004807	-0.428467	0.218018	-0.691162
119.0	9.222572	-1.45923	3.399831	0.011892	0.004768	0.003952	-0.424316	0.226807	-0.688965
120.0	9.245789	-1.454839	3.405881	0.013329	0.003637	0.002466	-0.430908	0.222412	-0.688965
121.0	9.207302	-1.440131	3.450129	0.013126	0.006032	0.001033	-0.424072	0.220215	-0.688721
122.0	9.21521	-1.440992	3.417096	0.008987	0.001804	0.001415	-0.426514	0.222412	-0.691162
123.0	9.213856	-1.457282	3.435507	0.005175	0.004415	0.000941	-0.430908	0.222412	-0.686523
124.0	9.190513	-1.461441	3.4299	0.00462	-0.008723	0.000533	-0.424072	0.220215	-0.691162
125.0	9.198824	-1.462441	3.395728	0.008962	-0.006892	0.001583	-0.431152	0.224609	-0.693604
126.0	9.230405	-1.459162	3.367404	0.015173	-0.002289	0.003845	-0.424072	0.220215	-0.691162
127.0	9.215382	-1.440333	3.41691	0.016233	0.006594	0.004998	-0.428711	0.222412	-0.691162
128.0	9.190458	-1.460713	3.430358	0.016431	0.007669	0.000755	-0.428955	0.224609	-0.688965
129.0	9.216078	-1.423306	3.400587	0.013026	0.005489	0.003149	-0.42627	0.218018	-0.688721
130.0	9.238107	-1.435403	3.42451	0.006716	0.000348	0.003008	-0.428711	0.222412	-0.688965
131.0	9.213368	-1.456161	3.43729	0.002905	0.002961	0.002534	-0.421875	0.220215	-0.684082
132.0	9.236777	-1.451676	3.442859	0.006483	-0.002481	-0.00393	-0.424072	0.218018	-0.688721
133.0	9.203655	-1.494927	3.400959	0.000932	0.003121	-0.002233	-0.428711	0.222412	-0.681885
134.0	9.236684	-1.451042	3.443376	0.00631	0.005139	0.000139	-0.426514	0.220215	-0.693359
135.0	9.204571	-1.477933	3.384046	0.009715	0.007316	-0.002256	-0.430908	0.220215	-0.688721
136.0	9.227687	-1.473145	3.390544	0.013754	0.011002	-0.000521	-0.42627	0.218018	-0.691162
137.0	9.221688	-1.438474	3.389406	0.019329	0.014092	-0.002392	-0.424561	0.229004	-0.689209
138.0	9.206423	-1.418993	3.439708	0.011885	0.008227	-0.001733	-0.426514	0.222412	-0.693604
139.0	9.197847	-1.441635	3.385578	0.008455	-0.002643	0.000839	-0.424316	0.224609	-0.691406
140.0	9.220167	-1.453691	3.408715	0.00669	-0.008346	0.003186	-0.428711	0.222412	-0.686523
141.0	9.243801	-1.449503	3.413544	-0.000327	-0.006836	0.000863	-0.431152	0.224609	-0.688965
142.0	9.205175	-1.45927	3.368714	0.0	0.0	0.0	-0.430908	0.220215	-0.691162
143.0	9.22718	-1.471369	3.392696	0.005704	0.008853	0.001508	-0.430908	0.222412	-0.688965
144.0	9.211999	-1.452359	3.442565	0.00507	0.007342	-0.002622	-0.43335	0.224609	-0.688965
145.0	9.211848	-1.452131	3.443065	0.000833	0.002583	-0.000113	-0.424072	0.220215	-0.684082
146.0	9.218628	-1.469739	3.427712	0.001035	0.000189	0.001323	-0.426758	0.229004	-0.689209
147.0	9.225557	-1.4872	3.412025	0.002042	-0.004849	-0.002855	-0.428711	0.222412	-0.691162
148.0	9.195426	-1.473462	3.421919	0.001334	0.001798	-0.005041	-0.430908	0.218018	-0.686523
149.0	9.202121	-1.49072	3.406951	0.004668	0.008663	0.000184	-0.426514	0.224609	-0.688965
150.0	9.193825	-1.489357	3.441146	0.007646	0.003466	0.000774	-0.42627	0.218018	-0.688721
151.0	9.218424	-1.468555	3.42877	0.002473	-0.000944	-0.000161	-0.426758	0.226807	-0.686768
152.0	9.209934	-1.491647	3.374254	0.002071	0.000378	0.002645	-0.424072	0.220215	-0.693359
153.0	9.2265	-1.469724	3.395255	0.006081	-0.001164	-0.001121	-0.430908	0.222412	-0.686523
154.0	9.194971	-1.472639	3.423496	0.007546	0.00293	0.002895	-0.424316	0.224609	-0.691406
155.0	9.196101	-1.456264	3.405743	0.012392	0.000504	0.004693	-0.428711	0.220215	-0.688721
156.0	9.194689	-1.472516	3.424305	0.014157	0.006205	0.002344	-0.428955	0.224609	-0.691406
157.0	9.193295	-1.488776	3.442813	0.010221	-0.00041	0.004169	-0.426514	0.224609	-0.698242
158.0	9.216672	-1.484482	3.448379	0.016202	-0.002112	0.005169	-0.430908	0.220215	-0.693359
159.0	9.223488	-1.50205	3.432973	0.013729	-0.001168	0.005329	-0.428711	0.224609	-0.684326
160.0	9.193182	-1.488821	3.443095	0.015799	-0.000792	0.007974	-0.421875	0.222412	-0.695801
161.0	9.217795	-1.468296	3.430569	0.015066	-0.00284	0.005966	-0.426514	0.222412	-0.686523
162.0	9.216587	-1.484664	3.448528	0.01186	-0.003942	0.004121	-0.426514	0.220215	-0.688721
163.0	9.225832	-1.469336	3.397238	0.018799	0.006163	0.002698	-0.428711	0.222412	-0.688965
164.0	9.246459	-1.497547	3.439723	0.016226	0.006573	0.00498	-0.428711	0.222412	-0.695801
165.0	9.208962	-1.466416	3.466378	0.022232	0.013559	0.005792	-0.426514	0.224609	-0.688965
166.0	9.178338	-1.452846	3.477465	0.020034	0.003953	0.005456	-0.428711	0.220215	-0.688721
167.0	9.194375	-1.455291	3.410814	0.015896	-0.000265	0.005849	-0.426758	0.226807	-0.686768
168.0	9.187505	-1.437624	3.426387	0.016197	-0.002125	0.005165	-0.430908	0.220215	-0.693359
169.0	9.217719	-1.450895	3.416517	0.018367	-0.001215	0.005686	-0.428711	0.220215	-0.686523
170.0	9.194193	-1.455073	3.411399	0.018898	0.003224	0.006251	-0.426514	0.222412	-0.691162
171.0	9.216132	-1.467011	3.435584	0.023539	0.003184	0.00661	-0.426514	0.220215	-0.688721
172.0	9.233906	-1.428693	3.438617	0.019903	-0.005283	0.007763	-0.433105	0.218018	-0.695801
173.0	9.209362	-1.449291	3.450902	0.018035	-0.008055	0.006558	-0.428467	0.218018	-0.688721
174.0	9.218794	-1.434345	3.399015	0.012588	-0.001906	0.006123	-0.431152	0.226807	-0.688965
175.0	9.217525	-1.450817	3.417074	0.010418	-0.002817	0.005601	-0.428955	0.226807	-0.691406
176.0	9.194095	-1.455274	3.411575	0.010116	-0.000958	0.006283	-0.428711	0.222412	-0.691162
177.0	9.231078	-1.486558	3.386267	0.00661	-0.000197	0.005123	-0.426514	0.222412	-0.684326
178.0	9.200836	-1.473326	3.396189	0.009383	-0.003007	0.00428	-0.43335	0.222412	-0.688965
179.0	9.218539	-1.435087	3.399394	0.011382	0.008987	0.003164	-0.426514	0.220215	-0.691162
180.0	9.223734	-1.4689	3.403119	0.016023	0.008945	0.003522	-0.426514	0.222412	-0.688965
181.0	9.209826	-1.433397	3.43476	0.014355	0.003783	0.00376	-0.431152	0.226807	-0.693604
182.0	9.184994	-1.453942	3.447823	0.009914	0.001432	0.004842	-0.430908	0.222412	-0.686523
183.0	9.209599	-1.433345	3.43539	0.010316	0.000104	0.002038	-0.428955	0.226807	-0.686768
184.0	9.217659	-1.434697	3.401943	0.00908	-0.001149	0.004961	-0.428955	0.226807	-0.693604
185.0	9.192913	-1.455342	3.414731	0.008879	0.001242	0.00352	-0.43335	0.222412	-0.688965
186.0	9.216142	-1.451222	3.420632	0.009311	0.005149	0.006202	-0.428711	0.220215	-0.691162
187.0	9.191323	-1.47177	3.433648	0.012787	-0.00085	0.001876	-0.426514	0.224609	-0.688965
188.0	9.215823	-1.450985	3.421592	0.009011	0.010464	0.001196	-0.428955	0.226807	-0.696045
189.0	9.207428	-1.449482	3.455979	0.011882	0.004728	0.003918	-0.430908	0.222412	-0.686523
190.0	9.19063	-1.471322	3.435695	0.010848	0.00454	0.002597	-0.430664	0.21582	-0.679443
191.0	9.208433	-1.432966	3.438673	0.009481	-0.00248	0.002158	-0.424316	0.224609	-0.686768
192.0	9.191902	-1.454832	3.417669	0.008345	-0.0032	0.00296	-0.428955	0.226807	-0.688965
193.0	9.215513	-1.450523	3.422622	0.005944	-0.010408	0.001201	-0.430908	0.220215	-0.688721
194.0	9.215765	-1.450391	3.421999	0.007612	-0.005249	0.000958	-0.43335	0.222412	-0.695801
195.0	9.191168	-1.470677	3.434532	0.008246	-0.000278	-0.000606	-0.428711	0.220215	-0.688721
196.0	9.215856	-1.450096	3.421877	0.007943	-0.001872	0.005761	-0.428955	0.226807	-0.691406
197.0	9.223958	-1.451512	3.388309	0.010616	-0.001763	0.001355	-0.428711	0.224609	-0.684326
198.0	9.192351	-1.45427	3.4167	0.009412	0.005678	0.004074	-0.428467	0.218018	-0.688721
199.0	9.212992	-1.482544	3.45903	0.008678	0.003629	0.002074	-0.431152	0.224609	-0.686768
200.0	9.190777	-1.47044	3.435679	0.009179	-0.000623	0.002836	-0.428711	0.222412	-0.688965
201.0	9.214341	-1.466054	3.440794	0.007077	-0.009691	0.000401	-0.431152	0.224609	-0.691406
202.0	9.192556	-1.45378	3.416358	0.009548	-0.010645	0.00024	-0.430908	0.218018	-0.695801
203.0	9.216226	-1.449316	3.421212	0.015654	-0.006595	0.004595	-0.430908	0.222412	-0.688965
204.0	9.221905	-1.482959	3.423722	0.018025	-0.004628	0.000867	-0.421875	0.222412	-0.679688
205.0	9.215172	-1.464792	3.439103	0.017424	-0.000908	0.002225	-0.428955	0.226807	-0.686768
206.0	9.207046	-1.462998	3.472904	0.013618	0.001718	0.001746	-0.431152	0.226807	-0.691406
207.0	9.191651	-1.468653	3.434107	0.013616	-0.001735	0.007433	-0.424316	0.222412	-0.691162
208.0	9.192969	-1.452559	3.415764	0.008543	-0.005597	0.0044	-0.430908	0.222412	-0.688965
209.0	9.198624	-1.486695	3.418137	0.007408	-0.006316	0.005202	-0.428711	0.220215	-0.684082
210.0	9.214022	-1.481216	3.456856	0.011446	-0.002643	0.006914	-0.430908	0.220215	-0.691162
211.0	9.198655	-1.487006	3.417916	0.014852	-0.00049	0.004505	-0.426514	0.220215	-0.684082
212.0	9.198686	-1.486741	3.41795	0.015553	-0.003684	0.001025	-0.431152	0.224609	-0.691406
213.0	9.214017	-1.480783	3.457055	0.014551	0.001369	0.005183	-0.431152	0.224609	-0.691406
214.0	9.215164	-1.464465	3.439267	0.012182	0.002854	0.003222	-0.431152	0.224609	-0.686768
215.0	9.190345	-1.484844	3.452372	0.013516	0.00118	0.003862	-0.428955	0.224609	-0.691406
216.0	9.198374	-1.486298	3.41898	0.011546	-0.002117	0.00479	-0.431152	0.224609	-0.691406
217.0	9.198399	-1.48635	3.41889	0.01288	-0.003792	0.005431	-0.428711	0.224609	-0.686768
218.0	9.191656	-1.468614	3.43411	0.017518	-0.003845	0.005784	-0.424316	0.222412	-0.695801
219.0	9.186254	-1.434556	3.431024	0.015649	-0.006613	0.00459	-0.430908	0.222412	-0.684326
220.0	9.22339	-1.465777	3.405397	0.00854	-0.005604	0.004399	-0.428467	0.21582	-0.688721
221.0	9.214213	-1.480306	3.456737	0.01368	-0.006461	-0.000172	-0.431152	0.224609	-0.686768
222.0	9.20032	-1.469599	3.399201	0.013179	-0.005658	0.004751	-0.435547	0.224609	-0.686768
223.0	9.22128	-1.497673	3.440807	0.011945	-0.003456	0.001986	-0.428711	0.220215	-0.686523
224.0	9.222681	-1.481289	3.422356	0.012144	-0.005847	0.003431	-0.430908	0.220215	-0.686523
225.0	9.20074	-1.469239	3.398222	0.014812	-0.009197	0.004713	-0.430908	0.222412	-0.681885
226.0	9.183045	-1.507435	3.395064	0.012342	-0.00824	0.004875	-0.43335	0.226807	-0.688965
227.0	9.224452	-1.464824	3.402929	0.017119	0.000927	0.002885	-0.430908	0.222412	-0.684326
228.0	9.200939	-1.469057	3.39776	0.016817	-0.000659	0.009252	-0.433105	0.220215	-0.688721
229.0	9.216284	-1.463537	3.436657	0.010608	-0.005233	0.007033	-0.430908	0.220215	-0.688721
230.0	9.246474	-1.477193	3.426712	0.012379	0.000451	0.004655	-0.435303	0.220215	-0.688721
231.0	9.216247	-1.463761	3.436662	0.010408	-0.002844	0.005587	-0.428711	0.220215	-0.688721
232.0	9.223009	-1.481677	3.421302	0.009075	-0.001169	0.004945	-0.430908	0.222412	-0.688965
233.0	9.200984	-1.469882	3.397281	0.009035	-0.009865	0.005166	-0.435547	0.222412	-0.684326
234.0	9.231414	-1.483404	3.386737	0.01244	-0.00772	0.002751	-0.43335	0.224609	-0.686768
235.0	9.256217	-1.462636	3.373804	0.015048	0.000542	0.000242	-0.431152	0.224609	-0.688965
236.0	9.2271	-1.432342	3.366293	0.020561	0.011757	0.000239	-0.433105	0.218018	-0.688721
237.0	9.225463	-1.447872	3.385768	0.023227	0.008403	0.001521	-0.431152	0.224609	-0.688965
238.0	9.209054	-1.444306	3.453813	0.016219	0.006503	0.004904	-0.437744	0.224609	-0.696045
239.0	9.194911	-1.433991	3.39678	0.006367	-0.006515	0.003886	-0.428711	0.224609	-0.686768
240.0	9.232118	-1.465552	3.370816	5.7e-05	-0.011612	0.003796	-0.431152	0.226807	-0.686768
241.0	9.202122	-1.452354	3.380027	9.8e-05	-0.002917	0.00357	-0.428955	0.224609	-0.688965
242.0	9.208864	-1.470373	3.364684	0.004238	0.001277	0.003147	-0.433105	0.218018	-0.693359
243.0	9.206225	-1.502883	3.401275	0.005571	-0.000399	0.003789	-0.431152	0.224609	-0.686768
244.0	9.199617	-1.485189	3.416118	0.004794	-0.011146	0.002022	-0.428711	0.222412	-0.693604
245.0	9.194558	-1.451213	3.41206	0.009928	-0.015461	0.003141	-0.431152	0.224609	-0.691406
246.0	9.208479	-1.486656	3.380423	0.010566	-0.010493	0.001563	-0.430908	0.222412	-0.686523
247.0	9.232175	-1.482164	3.385204	0.013571	-0.007014	0.001943	-0.430908	0.222412	-0.691162
248.0	9.262528	-1.495311	3.375021	0.014508	-0.00391	-0.00031	-0.430908	0.222412	-0.686523
249.0	9.225653	-1.463685	3.400163	0.009174	-0.000648	0.002816	-0.430908	0.218018	-0.688721
250.0	9.225707	-1.46356	3.40007	0.00977	-0.004377	0.001465	-0.428711	0.222412	-0.684326
251.0	9.17769	-1.488126	3.407242	0.006168	-0.004129	0.002436	-0.431152	0.224609	-0.688965
252.0	9.232745	-1.48131	3.384024	0.006664	-0.008384	0.003208	-0.43335	0.222412	-0.688965
253.0	9.23295	-1.481629	3.383324	0.003996	-0.008474	0.007618	-0.428955	0.224609	-0.688965
254.0	9.194338	-1.491874	3.338332	0.010366	-0.008109	0.000113	-0.430908	0.218018	-0.686523
255.0	9.204441	-1.451728	3.373975	0.017611	-0.003354	0.003635	-0.428711	0.222412	-0.686523
256.0	9.196557	-1.449807	3.407266	0.013569	-0.007022	0.00194	-0.430908	0.220215	-0.688721
257.0	9.25048	-1.458887	3.401999	0.013228	-0.013857	0.002844	-0.430908	0.220215	-0.684082
258.0	9.234242	-1.480826	3.380147	0.009923	-0.015473	0.00314	-0.428711	0.222412	-0.693604
259.0	9.241345	-1.498701	3.363839	0.00903	-0.009879	0.005164	-0.430908	0.222412	-0.686523
260.0	9.211403	-1.485179	3.373099	0.013469	-0.007552	0.004059	-0.43335	0.224609	-0.684326
261.0	9.236183	-1.464919	3.359937	0.012477	-0.002483	0.008205	-0.435547	0.224609	-0.691406
262.0	9.234873	-1.481093	3.378305	0.011442	0.000771	0.001195	-0.428955	0.224609	-0.691406
263.0	9.236154	-1.46481	3.360064	0.008336	-0.003234	0.002941	-0.428955	0.224609	-0.688965
264.0	9.251636	-1.458862	3.398865	0.010506	-0.002334	0.00345	-0.435547	0.222412	-0.684326
265.0	9.236199	-1.464691	3.359992	0.010308	5.7e-05	0.002001	-0.430908	0.220215	-0.684082
266.0	9.258337	-1.476414	3.383791	0.013809	-0.000722	0.00315	-0.435547	0.224609	-0.686768
267.0	9.236202	-1.464333	3.360142	0.008435	-0.00271	0.000818	-0.43335	0.222412	-0.679688
268.0	9.218228	-1.502338	3.357863	0.012477	0.000955	0.002508	-0.433105	0.218018	-0.688721
269.0	9.229381	-1.446053	3.375853	0.012279	0.003345	0.001058	-0.43335	0.222412	-0.691162
270.0	9.219236	-1.485838	3.340471	0.010748	0.003973	0.004663	-0.430908	0.222412	-0.688965
271.0	9.212421	-1.46796	3.35599	0.01514	-0.002404	0.003791	-0.428711	0.222412	-0.688965
272.0	9.212511	-1.467829	3.355798	0.015635	-0.006662	0.004566	-0.430908	0.220215	-0.684082
273.0	9.211455	-1.483813	3.373557	0.017263	-0.010208	0.004533	-0.43335	0.222412	-0.684326
274.0	9.241878	-1.497354	3.362975	0.013662	-0.009954	0.005507	-0.430908	0.220215	-0.686523
275.0	9.236681	-1.463384	3.359237	0.018297	-0.010024	0.005846	-0.430908	0.222412	-0.686523
276.0	9.267042	-1.476651	3.348932	0.013465	-0.004127	-0.001641	-0.43335	0.226807	-0.688965
277.0	9.242543	-1.496725	3.361427	0.013661	-0.009958	0.005505	-0.431152	0.224609	-0.686768
278.0	9.25195	-1.48233	3.309161	0.012969	-0.003311	0.003277	-0.430908	0.222412	-0.688965
279.0	9.21389	-1.466887	3.352424	0.015336	-0.004804	0.005233	-0.43335	0.224609	-0.684326
280.0	9.244183	-1.480443	3.342172	0.016964	-0.008352	0.005201	-0.430908	0.222412	-0.686523
281.0	9.253609	-1.466017	3.289847	0.019133	-0.007455	0.005706	-0.431152	0.224609	-0.686768
282.0	9.222356	-1.468538	3.317572	0.017899	-0.008691	0.008637	-0.433105	0.220215	-0.684082
283.0	9.237979	-1.462607	3.356006	0.020167	-0.007272	0.007018	-0.433105	0.220215	-0.681885
284.0	9.247366	-1.448458	3.303646	0.013263	-0.008623	0.008298	-0.435791	0.226807	-0.686768
285.0	9.245013	-1.48075	3.339742	0.01346	-0.007578	0.00405	-0.43335	0.224609	-0.686768
286.0	9.275319	-1.494618	3.329292	0.009663	-0.008365	0.009274	-0.431152	0.226807	-0.686768
287.0	9.241113	-1.431249	3.317338	0.012868	-0.003845	0.005394	-0.435547	0.222412	-0.686523
288.0	9.223193	-1.469432	3.314849	0.012128	-0.0059	0.003407	-0.430908	0.218018	-0.686523
289.0	9.246706	-1.465125	3.320023	0.012671	-0.001455	0.003941	-0.430908	0.222412	-0.684326
290.0	9.298982	-1.490426	3.333999	0.017109	0.00086	0.002825	-0.435547	0.222412	-0.679688
291.0	9.245426	-1.480856	3.33855	0.013163	-0.005716	0.00472	-0.43335	0.224609	-0.681885
292.0	9.240066	-1.446709	3.335331	0.017404	-0.001011	0.002151	-0.437744	0.220215	-0.686523
293.0	9.252208	-1.498361	3.323254	0.008331	-0.003251	0.002932	-0.435303	0.220215	-0.686523
294.0	9.245591	-1.480456	3.338271	0.011831	-0.004037	0.004077	-0.43335	0.222412	-0.688965
295.0	9.246938	-1.464281	3.319751	0.01193	-0.003515	0.001953	-0.433105	0.220215	-0.688721
296.0	9.245748	-1.480164	3.337966	0.012965	-0.003329	0.003266	-0.435547	0.222412	-0.681885
297.0	9.240413	-1.445937	3.334705	0.012028	-0.002995	-0.000171	-0.433105	0.220215	-0.686523
298.0	9.240471	-1.445594	3.334691	0.016268	-0.001726	0.002958	-0.426514	0.220215	-0.684082
299.0	9.245898	-1.479283	3.337941	0.012768	-0.000941	0.001813	-0.435303	0.220215	-0.686523
300.0	9.209068	-1.447596	3.363107	0.010205	-0.00049	0.004104	-0.435547	0.222412	-0.686523
301.0	9.240554	-1.445127	3.334665	0.004385	-0.006393	-0.000868	-0.43335	0.224609	-0.679688
302.0	9.276237	-1.492578	3.327651	0.009464	-0.002546	0.00212	-0.435303	0.220215	-0.686523
303.0	9.23949	-1.460932	3.352574	0.00833	-0.003255	0.002931	-0.430908	0.222412	-0.679688
304.0	9.224055	-1.466933	3.313557	0.008428	-0.002734	0.000807	-0.435547	0.222412	-0.688965
305.0	9.246367	-1.478544	3.33697	0.011089	-0.006099	0.002091	-0.43335	0.226807	-0.688965
306.0	9.221876	-1.49856	3.349525	0.010348	-0.008156	0.000107	-0.43335	0.222412	-0.684326
307.0	9.223267	-1.482266	3.330916	0.017302	-0.001545	0.004265	-0.43335	0.222412	-0.686523
308.0	9.223274	-1.482096	3.330973	0.015133	-0.002442	0.003763	-0.435547	0.224609	-0.698242
309.0	9.246733	-1.477751	3.336305	0.012668	-0.001468	0.003931	-0.43335	0.226807	-0.682129
310.0	9.217911	-1.447993	3.327713	0.015328	-0.004834	0.005215	-0.433105	0.220215	-0.681885
311.0	9.245569	-1.493692	3.354446	0.013998	-0.003152	0.004572	-0.43335	0.224609	-0.686768
312.0	9.241487	-1.443684	3.332704	0.015328	-0.004836	0.005214	-0.437744	0.222412	-0.681885
313.0	9.223555	-1.481747	3.330351	0.016756	-0.006	0.003732	-0.435303	0.218018	-0.681641
314.0	9.25631	-1.4633	3.283452	0.015327	-0.004839	0.005213	-0.428955	0.224609	-0.688965
315.0	9.247129	-1.47722	3.335442	0.017104	0.000834	0.002803	-0.428711	0.220215	-0.684082
316.0	9.248299	-1.46105	3.317383	0.014542	0.00129	0.005096	-0.435303	0.220215	-0.679443
317.0	9.2704	-1.472873	3.341295	0.014738	-0.001101	0.00655	-0.435547	0.224609	-0.684326
318.0	9.240269	-1.45914	3.351208	0.01513	-0.002453	0.003757	-0.433105	0.220215	-0.686523
319.0	9.23265	-1.467094	3.278936	0.015969	0.000123	0.003613	-0.43335	0.222412	-0.686523
320.0	9.248105	-1.460762	3.31805	0.013505	0.001099	0.003782	-0.430908	0.220215	-0.684082
321.0	9.232454	-1.466733	3.279647	0.017942	0.003403	0.002655	-0.437744	0.222412	-0.679688
322.0	9.249099	-1.44426	3.300629	0.013309	0.003487	0.002325	-0.437744	0.224609	-0.684326
323.0	9.239768	-1.458071	3.353052	0.007641	0.003384	0.000684	-0.435547	0.224609	-0.681885
324.0	9.240895	-1.441878	3.335125	0.00981	0.004276	0.001183	-0.435547	0.222412	-0.684326
325.0	9.239574	-1.457913	3.353657	0.003596	-0.003699	0.004722	-0.43335	0.222412	-0.684326
326.0	9.2476	-1.459914	3.319828	0.00522	-0.003827	-0.001007	-0.43335	0.224609	-0.686768
327.0	9.239832	-1.457776	3.353004	0.006451	-0.00603	0.00176	-0.433105	0.220215	-0.684082
328.0	9.202308	-1.452142	3.289974	0.008914	-0.007008	0.00159	-0.435547	0.222412	-0.681885
329.0	9.256045	-1.461466	3.285016	0.013252	-0.005224	0.002587	-0.442383	0.222412	-0.684326
330.0	9.256091	-1.461173	3.285018	0.016065	0.000633	0.001483	-0.435303	0.220215	-0.684082
331.0	9.255947	-1.460946	3.285523	0.01405	0.00554	0.004299	-0.435303	0.21582	-0.688721
332.0	9.263328	-1.452658	3.358563	0.011881	0.004647	0.003801	-0.431152	0.224609	-0.679688
333.0	9.24627	-1.474805	3.338892	0.009222	0.008014	0.002513	-0.43335	0.226807	-0.686768
334.0	9.286251	-1.448317	3.365367	0.001386	0.007023	0.000376	-0.435303	0.218018	-0.679443
335.0	9.247065	-1.459058	3.321696	-0.000785	0.002706	0.005583	-0.428711	0.224609	-0.679688
336.0	9.230131	-1.481618	3.301504	0.000741	0.002058	0.001978	-0.428711	0.222412	-0.693604
337.0	9.284838	-1.475293	3.278861	0.005079	0.003841	0.002974	-0.428711	0.222412	-0.686523
338.0	9.253158	-1.477406	3.307984	0.008832	0.01279	-0.000401	-0.430908	0.220215	-0.686523
339.0	9.247326	-1.443169	3.306071	0.008538	0.014659	0.000265	-0.43335	0.222412	-0.686523
340.0	9.240092	-1.424828	3.322941	0.014849	0.01972	0.000301	-0.439941	0.222412	-0.688965
341.0	9.238405	-1.440409	3.34265	0.005277	0.004875	-0.001275	-0.433105	0.220215	-0.684082
342.0	9.246405	-1.442441	3.308964	0.000878	-0.009035	0.003707	-0.433105	0.220215	-0.686523
343.0	9.24783	-1.426806	3.290001	-0.003402	-0.002113	0.00244	-0.433105	0.220215	-0.688721
344.0	9.285766	-1.442888	3.24687	-0.001176	0.007483	0.002667	-0.43335	0.222412	-0.681885
345.0	9.234642	-1.499382	3.292502	0.000603	0.01315	0.000249	-0.437744	0.220215	-0.681885
346.0	9.266417	-1.470987	3.353154	1.5e-05	0.01689	0.001582	-0.433105	0.220215	-0.684082
347.0	9.243871	-1.459144	3.330536	-0.004081	0.007956	-0.005517	-0.430908	0.220215	-0.684082
348.0	9.22446	-1.513017	3.34721	-0.00074	-0.002057	-0.001978	-0.433105	0.220215	-0.684082
349.0	9.251873	-1.460627	3.297118	0.001528	-0.000649	-0.003604	-0.435303	0.218018	-0.681641
350.0	9.257185	-1.494263	3.300759	0.00848	0.005952	0.000536	-0.437744	0.222412	-0.681885
351.0	9.250205	-1.476	3.31686	0.00883	0.012783	-0.000403	-0.439941	0.220215	-0.684082
352.0	9.251154	-1.45964	3.299572	0.009419	0.009042	-0.001736	-0.435547	0.224609	-0.688965
353.0	9.242934	-1.457209	3.333981	0.006116	0.007447	-0.001422	-0.43335	0.224609	-0.681885
354.0	9.24947	-1.474896	3.319399	0.007934	0.001505	1.6e-05	-0.442383	0.222412	-0.686523
355.0	9.244061	-1.440705	3.31626	0.005765	0.000615	-0.000482	-0.43335	0.222412	-0.681885
356.0	9.250676	-1.458381	3.30147	0.007739	0.003892	-0.001443	-0.435547	0.222412	-0.686523
357.0	9.219045	-1.4602	3.330432	0.006955	0.010019	-0.00157	-0.435547	0.222412	-0.686523
358.0	9.242173	-1.455622	3.336784	0.011486	0.009413	0.000885	-0.435791	0.229004	-0.689209
359.0	9.233913	-1.453196	3.371249	0.010747	0.007354	-0.001093	-0.43335	0.222412	-0.679688
360.0	9.216981	-1.474996	3.351481	0.011235	0.003097	-0.000299	-0.43335	0.222412	-0.686523
361.0	9.241679	-1.454484	3.338647	0.009262	-0.00018	0.000662	-0.435791	0.226807	-0.682129
362.0	9.263789	-1.465872	3.362642	0.009067	0.002206	-0.000798	-0.433594	0.229004	-0.686768
363.0	9.246778	-1.488007	3.34296	0.01099	0.010248	0.005796	-0.435547	0.222412	-0.684326
364.0	9.270016	-1.483934	3.348784	0.010389	-0.002896	0.005558	-0.439941	0.218018	-0.686279
365.0	9.224379	-1.476528	3.319811	0.003008	0.003463	0.000349	-0.435547	0.222412	-0.688965
366.0	9.248951	-1.456406	3.307168	0.004781	0.005707	0.003637	-0.435547	0.222412	-0.684326
367.0	9.247305	-1.472365	3.326548	0.008728	0.012257	0.001712	-0.431152	0.226807	-0.686768
368.0	9.270299	-1.467823	3.333262	0.012131	0.014364	-0.000729	-0.433105	0.218018	-0.691162
369.0	9.231706	-1.451564	3.377989	0.010996	0.01366	8.3e-05	-0.437744	0.224609	-0.686523
370.0	9.246117	-1.471392	3.330276	0.001974	0.003275	-0.000963	-0.43335	0.222412	-0.686523
371.0	9.215781	-1.457609	3.340585	0.009115	0.007484	0.004631	-0.435303	0.220215	-0.677246
372.0	9.251052	-1.505381	3.334848	0.007537	0.002854	0.002805	-0.430908	0.222412	-0.684326
373.0	9.238765	-1.453284	3.347224	0.011484	0.009402	0.000878	-0.435303	0.220215	-0.688721
374.0	9.220239	-1.491309	3.346589	0.011633	0.015197	0.00418	-0.431152	0.226807	-0.688965
375.0	9.214424	-1.457312	3.344454	0.014878	0.00809	0.004148	-0.43335	0.222412	-0.684326
376.0	9.236248	-1.468895	3.369099	0.014038	0.005517	0.004298	-0.430908	0.222412	-0.684326
377.0	9.213911	-1.457152	3.345937	0.015366	0.003833	0.004945	-0.4375	0.218018	-0.688721
378.0	9.243822	-1.470775	3.336914	0.010644	0.006825	0.001026	-0.430908	0.222412	-0.691162
379.0	9.266862	-1.466398	3.343431	0.015127	0.014396	0.00532	-0.435547	0.222412	-0.686523
380.0	9.248306	-1.504352	3.342919	0.01129	0.011777	-0.000589	-0.433105	0.21582	-0.690918
381.0	9.265953	-1.465917	3.346159	0.015421	0.012523	0.004656	-0.435547	0.222412	-0.684326
382.0	9.233978	-1.467735	3.375819	0.014297	0.015232	-0.000245	-0.435303	0.220215	-0.681885
383.0	9.241564	-1.469437	3.34375	0.015817	0.011164	0.001867	-0.437744	0.220215	-0.681885
384.0	9.242474	-1.453376	3.326553	0.014284	0.011818	0.005467	-0.439941	0.220215	-0.688721
385.0	9.250706	-1.428992	3.381686	0.012117	0.01093	0.004969	-0.435303	0.220215	-0.688721
386.0	9.218182	-1.45768	3.323536	0.012412	0.009059	0.004307	-0.43335	0.222412	-0.684326
387.0	9.226436	-1.433253	3.37859	0.010789	0.012611	0.004318	-0.43335	0.224609	-0.688965
388.0	9.240792	-1.45332	3.331246	0.011482	0.009383	0.000869	-0.43335	0.222412	-0.688965
389.0	9.202256	-1.437211	3.375373	0.00675	0.008967	0.002661	-0.430908	0.222412	-0.684326
390.0	9.262275	-1.464831	3.356803	0.006205	0.004528	0.002153	-0.433105	0.218018	-0.686523
391.0	9.239991	-1.452957	3.333626	0.007251	0.008122	-0.002252	-0.433105	0.220215	-0.681885
392.0	9.268427	-1.4823	3.34358	0.009859	0.012933	0.000878	-0.433105	0.220215	-0.684082
393.0	9.215869	-1.456445	3.330486	0.008386	0.008819	-0.003066	-0.435303	0.218018	-0.684082
394.0	9.23769	-1.467732	3.355186	0.006012	0.006909	0.000687	-0.433105	0.220215	-0.686523
395.0	9.262234	-1.447365	3.342887	0.004789	0.009103	-0.00209	-0.430908	0.220215	-0.681885
396.0	9.238509	-1.451242	3.338477	0.006955	0.009988	-0.001593	-0.430908	0.222412	-0.677246
397.0	9.238193	-1.451025	3.339447	0.002223	0.009574	0.000198	-0.428711	0.222412	-0.681885
398.0	9.221209	-1.473246	3.319841	0.000352	0.006819	-0.000959	-0.428711	0.224609	-0.684326
399.0	9.206163	-1.452903	3.369034	-0.000975	0.008501	-0.001611	-0.430908	0.220215	-0.691162
400.0	9.234726	-1.482546	3.378512	0.000544	0.004437	0.000506	-0.430908	0.220215	-0.684082
401.0	9.21254	-1.470795	3.355043	0.00311	0.003965	-0.001782	-0.428711	0.224609	-0.684326
402.0	9.219106	-1.488722	3.340529	-0.000783	0.006119	-0.000146	-0.435303	0.220215	-0.691162
403.0	9.265757	-1.480126	3.351933	0.00498	0.00672	-0.000625	-0.428711	0.224609	-0.684326
404.0	9.227316	-1.464035	3.395585	0.000543	0.004437	0.000506	-0.431152	0.224609	-0.688965
405.0	9.235192	-1.466003	3.362809	0.00243	0.010595	-0.004054	-0.43335	0.226807	-0.682129
406.0	9.234994	-1.465854	3.363416	0.000735	0.002056	0.001972	-0.430908	0.220215	-0.684082
407.0	9.212857	-1.454284	3.339748	0.000839	0.002567	-0.000154	-0.428711	0.224609	-0.684326
408.0	9.241545	-1.483926	3.348899	0.000839	0.002567	-0.000154	-0.431152	0.224609	-0.684326
409.0	9.241376	-1.483998	3.349333	0.001278	0.006492	0.002477	-0.435303	0.220215	-0.686523
410.0	9.219104	-1.472408	3.326053	0.003845	0.00602	0.000189	-0.433105	0.220215	-0.684082
411.0	9.23422	-1.465922	3.365512	0.002709	0.005321	0.001003	-0.435547	0.224609	-0.686768
412.0	9.242179	-1.468075	3.332471	0.003005	0.003452	0.000343	-0.437744	0.224609	-0.684326
413.0	9.245975	-1.517905	3.354898	-0.001919	0.005419	0.000667	-0.431152	0.224609	-0.679688
414.0	9.240376	-1.484167	3.352017	0.000982	0.00836	0.003136	-0.43335	0.226807	-0.684326
415.0	9.24005	-1.484267	3.352869	0.002222	0.009569	0.000196	-0.430908	0.220215	-0.681885
416.0	9.24787	-1.48635	3.320274	0.004684	0.008585	3.4e-05	-0.428711	0.222412	-0.684326
417.0	9.226019	-1.447952	3.384483	0.004875	0.006205	0.001501	-0.424316	0.224609	-0.684326
418.0	9.232533	-1.465881	3.370156	0.008472	0.005919	0.000526	-0.437744	0.220215	-0.681885
419.0	9.240482	-1.467909	3.337246	0.005171	0.004336	0.000841	-0.431152	0.224609	-0.681885
420.0	9.232071	-1.46561	3.371539	0.006553	0.011337	0.00119	-0.43335	0.224609	-0.686768
421.0	9.228806	-1.497414	3.409775	0.003689	0.013677	0.004135	-0.428711	0.222412	-0.688965
422.0	9.224371	-1.447576	3.389134	0.004005	0.015209	-0.002243	-0.428711	0.222412	-0.681885
423.0	9.207259	-1.469617	3.370023	0.005522	0.011148	-0.000123	-0.433105	0.220215	-0.688721
424.0	9.208389	-1.45365	3.352325	0.0062	0.004521	0.002153	-0.431152	0.226807	-0.686768
425.0	9.18341	-1.473712	3.365831	0.006497	0.002653	0.001495	-0.428711	0.220215	-0.684082
426.0	9.223485	-1.44705	3.391768	0.009446	-0.002579	0.002144	-0.430908	0.218018	-0.679443
427.0	9.230324	-1.46502	3.376573	0.008607	-0.005145	0.002299	-0.431152	0.224609	-0.686768
428.0	9.252515	-1.476516	3.400071	0.008903	-0.007014	0.001641	-0.428711	0.224609	-0.684326
429.0	9.232133	-1.449015	3.357031	0.006632	-0.008409	0.003269	-0.431152	0.226807	-0.682129
430.0	9.2625	-1.462702	3.346973	0.007682	-0.004822	-0.00114	-0.435303	0.220215	-0.686523
431.0	9.240622	-1.450864	3.322759	0.010772	-0.004263	0.002796	-0.433105	0.220215	-0.679443
432.0	9.255888	-1.444345	3.361719	0.007527	0.002838	0.002804	-0.431152	0.226807	-0.686768
433.0	9.232227	-1.448447	3.357017	0.007985	0.010161	-0.000288	-0.435547	0.222412	-0.684326
434.0	9.231896	-1.448209	3.358031	0.006849	0.009463	0.000525	-0.43335	0.224609	-0.688965
435.0	9.226249	-1.413939	3.355494	0.011582	0.009871	-0.001264	-0.428711	0.224609	-0.684326
436.0	9.224522	-1.429653	3.374932	0.004472	0.007559	0.004279	-0.43335	0.226807	-0.686768
437.0	9.246432	-1.441281	3.399131	0.00625	-0.003652	0.000334	-0.435303	0.220215	-0.684082
438.0	9.224428	-1.429616	3.375205	0.001869	0.002752	0.001155	-0.431152	0.224609	-0.684326
439.0	9.259808	-1.477329	3.36956	-0.001517	0.00406	-0.002123	-0.430908	0.222412	-0.684326
440.0	9.244399	-1.483646	3.33113	0.002814	0.005827	-0.001128	-0.43335	0.224609	-0.686768
441.0	9.230634	-1.447317	3.361883	0.010043	0.010531	0.002333	-0.431152	0.226807	-0.684326
442.0	9.235549	-1.480737	3.366804	0.015827	0.014521	-0.003866	-0.433105	0.218018	-0.688721
443.0	9.246415	-1.423819	3.385204	0.015318	0.015369	0.001043	-0.433105	0.220215	-0.686523
444.0	9.222593	-1.427768	3.380998	0.011665	0.006978	0.002329	-0.435547	0.222412	-0.684326
445.0	9.219522	-1.459392	3.418676	0.005063	0.00382	0.002963	-0.428955	0.226807	-0.688965
446.0	9.259248	-1.45989	3.357183	0.00141	-0.004568	0.004251	-0.433105	0.218018	-0.686523
447.0	9.244027	-1.466718	3.318073	0.000923	-0.000322	0.003438	-0.428711	0.224609	-0.684326
448.0	9.240936	-1.498611	3.355691	0.007474	0.011003	0.004615	-0.43335	0.224609	-0.684326
449.0	9.257061	-1.47633	3.377537	0.012453	0.017708	0.003981	-0.430908	0.220215	-0.686523
450.0	9.226369	-1.462391	3.388503	0.010042	0.010524	0.002329	-0.43335	0.222412	-0.691162
451.0	9.204006	-1.450895	3.365528	0.011154	0.007824	0.007237	-0.43335	0.222412	-0.688965
452.0	9.219112	-1.444425	3.40475	0.006249	-0.003654	0.000339	-0.431152	0.224609	-0.691406
453.0	9.234021	-1.464645	3.356508	0.014315	0.003609	0.003639	-0.435303	0.21582	-0.684082
454.0	9.233805	-1.464479	3.357175	0.015154	0.006171	0.003479	-0.428711	0.224609	-0.686768
455.0	9.225356	-1.461998	3.391429	0.015154	0.00617	0.003479	-0.43335	0.222412	-0.684326
456.0	9.225101	-1.461862	3.392179	0.014018	0.005474	0.004293	-0.43335	0.226807	-0.686768
457.0	9.22492	-1.461875	3.392668	0.009877	0.001334	0.00477	-0.435303	0.218018	-0.681641
458.0	9.231534	-1.480018	3.37811	0.016668	0.002108	0.005605	-0.435547	0.222412	-0.691162
459.0	9.231472	-1.479978	3.378297	0.01047	-0.002403	0.003459	-0.431152	0.226807	-0.682129
460.0	9.234329	-1.448309	3.341315	0.009984	0.001841	0.002642	-0.439941	0.220215	-0.684082
461.0	9.216222	-1.48637	3.339542	0.017746	-0.005876	0.00511	-0.431152	0.226807	-0.686768
462.0	9.226218	-1.445839	3.374616	0.014988	-0.003021	0.005923	-0.435547	0.222412	-0.686523
463.0	9.211041	-1.452421	3.335574	0.015284	-0.004891	0.005267	-0.431152	0.224609	-0.691406
464.0	9.266126	-1.446122	3.312891	0.01972	-0.002625	0.004132	-0.430908	0.220215	-0.688721
465.0	9.226359	-1.445465	3.374391	0.015094	-0.002517	0.003794	-0.428711	0.222412	-0.684326
466.0	9.217924	-1.470162	3.320457	0.010657	-0.004785	0.004929	-0.43335	0.224609	-0.686768
467.0	9.256621	-1.459407	3.36463	0.008008	-0.00142	0.003615	-0.430908	0.222412	-0.684326
468.0	9.264736	-1.461799	3.331349	0.007523	0.002825	0.002796	-0.437988	0.226807	-0.688965
469.0	9.239666	-1.481738	3.345084	0.011663	0.006959	0.002314	-0.43335	0.224609	-0.686768
470.0	9.234083	-1.447421	3.342381	0.012718	0.010534	-0.002102	-0.43335	0.222412	-0.688965
471.0	9.225627	-1.444563	3.376778	0.013095	0.005782	0.000844	-0.43335	0.224609	-0.679688
472.0	9.208879	-1.46661	3.356799	0.009546	-0.002091	2e-05	-0.43335	0.222412	-0.686523
473.0	9.239112	-1.480344	3.347228	0.011792	-0.004094	0.004114	-0.435547	0.224609	-0.684326
474.0	9.233879	-1.446404	3.343385	0.010467	-0.002412	0.003457	-0.435303	0.220215	-0.684082
475.0	9.257247	-1.442086	3.348994	0.012147	0.002711	0.00313	-0.43335	0.222412	-0.686523
476.0	9.215601	-1.484452	3.342107	0.010171	-0.000544	0.004109	-0.437744	0.220215	-0.686523
477.0	9.23226	-1.462045	3.36248	0.012631	-0.001535	0.00395	-0.435791	0.226807	-0.684326
478.0	9.245828	-1.498136	3.332578	0.014654	-0.006452	0.001175	-0.437744	0.220215	-0.686523
479.0	9.217286	-1.468119	3.32313	0.014358	-0.004583	0.001827	-0.43335	0.224609	-0.688965
480.0	9.239324	-1.479191	3.347155	0.013981	0.000166	-0.001122	-0.43335	0.226807	-0.686768
481.0	9.209076	-1.464863	3.357022	0.011958	0.005082	0.001652	-0.43335	0.224609	-0.686768
482.0	9.239061	-1.478542	3.348167	0.013282	0.003398	0.00231	-0.430908	0.222412	-0.684326
483.0	9.240356	-1.462668	3.330065	0.009686	0.003698	0.003285	-0.437744	0.220215	-0.684082
484.0	9.233594	-1.444402	3.345036	0.006244	-0.003667	0.000341	-0.43335	0.222412	-0.684326
485.0	9.245653	-1.496378	3.333854	0.005653	7.2e-05	0.001645	-0.435791	0.226807	-0.688965
486.0	9.232116	-1.459917	3.3638	0.011117	0.002519	0.001815	-0.435303	0.220215	-0.688721
487.0	9.238726	-1.477926	3.349363	0.012145	0.002704	0.003125	-0.440186	0.224609	-0.688965
488.0	9.231916	-1.459669	3.364457	0.009141	-0.000735	0.002796	-0.435303	0.220215	-0.691162
489.0	9.223685	-1.45711	3.398071	0.012441	0.000833	0.002472	-0.435547	0.224609	-0.686768
490.0	9.25524	-1.455013	3.370326	0.012548	0.001337	0.000345	-0.43335	0.222412	-0.684326
491.0	9.230358	-1.474742	3.383627	0.005948	-0.001799	0.000993	-0.435547	0.224609	-0.684326
492.0	9.240106	-1.461266	3.331372	0.008703	-0.004662	0.000182	-0.430908	0.220215	-0.686523
493.0	9.265042	-1.441174	3.318077	0.010169	-0.00055	0.004105	-0.430908	0.220215	-0.681885
494.0	9.208594	-1.462868	3.359212	0.009731	-0.004477	0.001492	-0.431152	0.226807	-0.688965
495.0	9.263654	-1.456649	3.336608	0.008952	0.001637	0.001319	-0.43335	0.224609	-0.684326
496.0	9.240217	-1.460693	3.331317	0.010571	-0.001917	0.001326	-0.435303	0.220215	-0.684082
497.0	9.233569	-1.442302	3.346013	0.006243	-0.003671	0.000341	-0.431152	0.226807	-0.682129
498.0	9.233668	-1.442111	3.34582	0.008407	-0.002795	0.000833	-0.433105	0.220215	-0.688721
499.0	9.217065	-1.464458	3.325357	0.006135	-0.004175	0.002468	-0.430908	0.220215	-0.684082
500.0	9.247261	-1.478234	3.315895	0.010383	0.000455	-0.000152	-0.43335	0.224609	-0.684326
501.0	9.239058	-1.475561	3.349489	0.005652	6.9e-05	0.001643	-0.4375	0.218018	-0.688721
502.0	9.262563	-1.471108	3.35477	0.011161	-0.005661	2.3e-05	-0.43335	0.224609	-0.684326
503.0	9.262686	-1.470863	3.354538	0.009435	-0.00261	0.002142	-0.43335	0.222412	-0.679688
504.0	9.265665	-1.439278	3.31716	0.008406	-0.002797	0.000832	-0.43335	0.224609	-0.681885
505.0	9.222658	-1.497214	3.328781	0.010275	-5e-05	0.001974	-0.435303	0.220215	-0.684082
506.0	9.240737	-1.458975	3.330627	0.011008	0.002007	0.003934	-0.435791	0.226807	-0.691406
507.0	9.232495	-1.456197	3.364371	0.01049	0.000955	-0.002281	-0.435303	0.220215	-0.686523
508.0	9.270722	-1.472345	3.321937	0.011848	0.004566	0.003765	-0.43335	0.224609	-0.681885
509.0	9.232302	-1.455785	3.365078	0.015086	-0.002545	0.003783	-0.430908	0.222412	-0.681885
510.0	9.217107	-1.462338	3.326175	0.017544	-0.003542	0.003623	-0.430908	0.222412	-0.688965
511.0	9.263944	-1.453603	3.337131	0.01809	0.000888	0.004104	-0.43335	0.222412	-0.684326
512.0	9.240435	-1.457685	3.332028	0.016954	0.000198	0.004921	-0.43335	0.224609	-0.686768
513.0	9.240334	-1.457567	3.332362	0.01563	0.001881	0.004261	-0.430908	0.218018	-0.681641
514.0	9.263647	-1.453147	3.338155	0.014602	0.001694	0.002952	-0.433105	0.220215	-0.684082
515.0	9.238545	-1.47307	3.351999	0.013609	0.006805	0.007027	-0.437988	0.226807	-0.688965
516.0	9.276604	-1.489662	3.309884	0.011847	0.00456	0.003759	-0.43335	0.224609	-0.686768
517.0	9.241069	-1.441666	3.315824	0.012437	0.000816	0.002461	-0.431152	0.224609	-0.684326
518.0	9.271182	-1.455369	3.306657	0.013867	-0.000368	0.000993	-0.433105	0.220215	-0.684082
519.0	9.246169	-1.475073	3.320347	0.014011	0.005432	0.004247	-0.433105	0.218018	-0.684082
520.0	9.245961	-1.474965	3.320972	0.014305	0.003559	0.003598	-0.435303	0.218018	-0.684082
521.0	9.255747	-1.434196	3.35652	0.012874	0.004742	0.005065	-0.435547	0.222412	-0.681885
522.0	9.215407	-1.461035	3.331453	0.009575	0.00318	0.005394	-0.435303	0.218018	-0.686279
523.0	9.263641	-1.436838	3.323864	0.012731	-0.00106	0.001811	-0.431152	0.224609	-0.684326
524.0	9.263543	-1.436687	3.324202	0.011846	0.004554	0.003755	-0.437744	0.220215	-0.688721
525.0	9.276674	-1.473132	3.295536	0.01107	0.010668	0.003571	-0.426514	0.222412	-0.688965
526.0	9.244806	-1.474821	3.32425	0.016841	-0.000317	0.007045	-0.439941	0.222412	-0.684326
527.0	9.252919	-1.477465	3.291013	0.015813	-0.000505	0.005736	-0.43335	0.222412	-0.686523
528.0	9.247532	-1.443591	3.287501	0.012873	0.004736	0.005061	-0.435547	0.222412	-0.686523
529.0	9.245764	-1.459249	3.306987	0.015878	0.008166	0.005377	-0.435547	0.224609	-0.686768
530.0	9.268741	-1.454919	3.313691	0.019723	0.014153	0.00552	-0.43335	0.224609	-0.686768
531.0	9.265221	-1.486272	3.35256	0.017342	0.012278	0.009286	-0.435547	0.224609	-0.688965
532.0	9.261042	-1.436909	3.331066	0.018225	0.006661	0.007345	-0.435547	0.224609	-0.684326
533.0	9.242649	-1.474995	3.330166	0.012433	0.000801	0.002458	-0.43335	0.226807	-0.684326
534.0	9.244035	-1.459311	3.31179	0.012029	0.002173	0.005232	-0.43335	0.222412	-0.688965
535.0	9.272465	-1.488966	3.321776	0.012685	0.0071	0.003576	-0.43335	0.222412	-0.686523
536.0	9.250101	-1.477355	3.298976	0.018509	0.016326	0.002722	-0.435547	0.222412	-0.686523
537.0	9.231326	-1.514975	3.299363	0.023238	0.016692	0.000923	-0.430908	0.218018	-0.688721
538.0	9.234071	-1.45513	3.350735	0.02599	0.013816	0.000118	-0.430908	0.222412	-0.686523
539.0	9.226791	-1.436137	3.367293	0.030937	0.017112	0.005174	-0.43335	0.222412	-0.688965
540.0	9.229368	-1.404375	3.331306	0.023354	0.005642	0.002769	-0.435303	0.220215	-0.686523
541.0	9.22411	-1.370122	3.327569	0.013204	-0.00532	0.002652	-0.43335	0.222412	-0.686523
542.0	9.266396	-1.436191	3.307096	0.013684	-0.009563	0.00349	-0.437744	0.220215	-0.693359
543.0	9.276309	-1.423276	3.254461	0.010637	-0.004818	0.004936	-0.437744	0.222412	-0.684326
544.0	9.243036	-1.440324	3.301546	0.011471	0.009274	0.000776	-0.43335	0.222412	-0.688965
545.0	9.26453	-1.45137	3.326995	0.010696	0.015386	0.00058	-0.435547	0.222412	-0.679688
546.0	9.262543	-1.466739	3.347136	0.008718	0.012146	0.001576	-0.435547	0.224609	-0.688965
547.0	9.238888	-1.470528	3.342555	0.005791	0.003913	-0.006232	-0.435547	0.222412	-0.684326
548.0	9.252198	-1.506617	3.313795	0.007144	0.007532	-0.0002	-0.431152	0.224609	-0.686768
549.0	9.261958	-1.465249	3.349408	0.016789	0.00589	-0.002311	-0.437988	0.226807	-0.682129
550.0	9.24808	-1.455824	3.292798	0.019792	0.009312	-0.002002	-0.435303	0.218018	-0.684082
551.0	9.246271	-1.470672	3.31267	0.016198	0.00963	-0.001026	-0.435303	0.220215	-0.686523
552.0	9.239234	-1.45173	3.328476	0.016198	0.009629	-0.001027	-0.435547	0.222412	-0.684326
553.0	9.26754	-1.480717	3.33916	0.01836	0.010496	-0.000541	-0.428711	0.220215	-0.684082
554.0	9.238603	-1.450605	3.330717	0.012788	0.007579	0.001435	-0.435303	0.218018	-0.681641
555.0	9.236799	-1.465887	3.350358	0.009305	0.008395	0.000282	-0.43335	0.222412	-0.686523
556.0	9.24485	-1.468221	3.317719	0.014514	0.004516	-0.000672	-0.435303	0.218018	-0.688721
557.0	9.214566	-1.453603	3.327545	0.02148	0.00288	0.001632	-0.437744	0.224609	-0.684326
558.0	9.212931	-1.468556	3.346857	0.020454	0.002692	0.000323	-0.428467	0.218018	-0.686523
559.0	9.236309	-1.463774	3.352631	0.020822	-0.002044	0.003296	-0.435547	0.224609	-0.684326
560.0	9.212986	-1.46757	3.347138	0.021412	-0.00579	0.002012	-0.437744	0.224609	-0.686523
561.0	9.259868	-1.458661	3.358051	0.025034	-0.000808	0.006394	-0.435547	0.222412	-0.684326
562.0	9.214556	-1.451423	3.328524	0.02203	-0.004231	0.006088	-0.4375	0.218018	-0.686279
563.0	9.261462	-1.442747	3.339267	0.019868	-0.0051	0.005601	-0.43335	0.222412	-0.684326
564.0	9.238122	-1.446809	3.333701	0.017522	-0.003602	0.003627	-0.432861	0.21582	-0.686279
565.0	9.275043	-1.479083	3.30982	0.019572	-0.003231	0.00624	-0.435547	0.222412	-0.691162
566.0	9.235019	-1.477417	3.371571	0.021181	0.004733	0.002259	-0.437744	0.220215	-0.688721
567.0	9.229633	-1.443026	3.368153	0.024663	0.003911	0.003408	-0.435547	0.224609	-0.686768
568.0	9.206112	-1.446758	3.363232	0.024115	-0.000517	0.002949	-0.43335	0.224609	-0.688965
569.0	9.237746	-1.44501	3.335524	0.020412	-0.000685	0.006056	-0.435547	0.224609	-0.684326
570.0	9.261113	-1.440524	3.341194	0.024003	-0.001015	0.005076	-0.435303	0.220215	-0.686523
571.0	9.267796	-1.458408	3.326914	0.021768	0.000976	0.000972	-0.437744	0.224609	-0.686523
572.0	9.229268	-1.441114	3.36997	0.023303	0.002235	0.008482	-0.435303	0.21582	-0.690918
573.0	9.25398	-1.421336	3.357273	0.020662	0.005606	0.007146	-0.435547	0.222412	-0.686523
574.0	9.235627	-1.459523	3.356361	0.020776	-0.005425	0.009032	-0.430664	0.21582	-0.681641
575.0	9.213803	-1.448328	3.331956	0.020886	-0.004936	0.006902	-0.435303	0.218018	-0.686279
576.0	9.229	-1.441137	3.370694	0.024072	-0.003887	0.008689	-0.433105	0.220215	-0.688721
577.0	9.23721	-1.443964	3.33746	0.022569	0.000163	0.006529	-0.428955	0.226807	-0.679688
578.0	9.230351	-1.425553	3.352441	0.022164	0.001543	0.009296	-0.43335	0.222412	-0.686523
579.0	9.227066	-1.456505	3.390635	0.020955	0.003719	0.006497	-0.433105	0.218018	-0.688721
580.0	9.236684	-1.443824	3.338978	0.021248	0.001843	0.005858	-0.437744	0.220215	-0.691162
581.0	9.235075	-1.459166	3.358035	0.019563	-0.003261	0.00623	-0.439697	0.21582	-0.688721
582.0	9.244796	-1.446574	3.30607	0.018792	0.002851	0.006012	-0.430908	0.222412	-0.686523
583.0	9.229656	-1.425193	3.354507	0.021136	0.001347	0.007985	-0.43335	0.224609	-0.686768
584.0	9.258047	-1.454713	3.364777	0.022089	0.004386	0.005666	-0.4375	0.218018	-0.681641
585.0	9.229251	-1.425051	3.355681	0.01868	0.002355	0.008139	-0.437744	0.222412	-0.684326
586.0	9.244243	-1.418017	3.394877	0.015382	0.000815	0.008481	-0.435303	0.218018	-0.686279
587.0	9.234224	-1.459249	3.36034	0.013076	-0.005857	0.004785	-0.435303	0.220215	-0.686523
588.0	9.252503	-1.421121	3.361431	0.014468	0.001117	0.005045	-0.4375	0.218018	-0.691162
589.0	9.212257	-1.447995	3.336371	0.009963	0.001757	0.00259	-0.430908	0.222412	-0.688965
590.0	9.198753	-1.410977	3.365781	0.014579	0.001605	0.002914	-0.433105	0.220215	-0.691162
591.0	9.252228	-1.420699	3.362368	0.012417	0.000743	0.002433	-0.430908	0.220215	-0.688721
592.0	9.23033	-1.409236	3.3383	0.013847	-0.000457	0.000972	-0.433105	0.218018	-0.679443
593.0	9.222107	-1.40604	3.37167	0.008277	-0.003344	0.002967	-0.430664	0.21582	-0.686279
594.0	9.259048	-1.438683	3.347702	0.007434	-0.005895	0.003156	-0.435303	0.218018	-0.688721
595.0	9.252411	-1.420309	3.362029	0.001025	0.000186	0.001305	-0.435303	0.218018	-0.681641
596.0	9.260659	-1.423423	3.328616	-0.001136	-0.000675	0.000825	-0.435303	0.218018	-0.681641
597.0	9.260688	-1.423489	3.328508	0.001318	-0.001689	0.000669	-0.437744	0.220215	-0.688721
598.0	9.250853	-1.435988	3.380788	0.000732	0.002061	0.001941	-0.437744	0.220215	-0.688721
599.0	9.220443	-1.450523	3.303388	0.003297	0.001536	-0.000345	-0.435547	0.222412	-0.688965
600.0	9.235547	-1.443164	3.342404	0.000843	0.00255	-0.000189	-0.433105	0.220215	-0.681885
601.0	9.258901	-1.43892	3.348009	0.003186	0.001047	0.001784	-0.4375	0.218018	-0.688721
602.0	9.233891	-1.458467	3.361594	0.001248	0.001164	-0.002955	-0.435303	0.220215	-0.684082
603.0	9.242041	-1.461524	3.328485	0.002488	0.004308	0.005186	-0.432861	0.21582	-0.681641
604.0	9.236765	-1.427848	3.324438	-0.001318	0.001689	-0.000669	-0.437744	0.222412	-0.691162
605.0	9.240224	-1.477226	3.347941	0.0026	0.004796	0.003056	-0.43335	0.222412	-0.681885
606.0	9.241758	-1.461889	3.329112	-0.00055	-0.004425	-0.000446	-0.433105	0.218018	-0.688721
607.0	9.243363	-1.446484	3.310114	0.003186	0.001047	0.001784	-0.43335	0.224609	-0.681885
608.0	9.236578	-1.42803	3.324878	0.006483	0.002582	0.001439	-0.435547	0.222412	-0.684326
609.0	9.241577	-1.461846	3.329632	0.00619	0.004457	0.002074	-0.430908	0.218018	-0.677002
610.0	9.264731	-1.457795	3.335708	0.006517	0.007903	0.00678	-0.437744	0.220215	-0.681885
611.0	9.241031	-1.462246	3.330972	0.002711	0.005285	0.000925	-0.430908	0.218018	-0.686523
612.0	9.257639	-1.439693	3.351165	0.000913	-0.000303	0.003435	-0.437744	0.220215	-0.691162
613.0	9.240904	-1.46274	3.331107	0.001094	-0.002666	0.00493	-0.433105	0.218018	-0.686523
614.0	9.249148	-1.465948	3.297704	0.007801	0.000891	0.002108	-0.43335	0.222412	-0.684326
615.0	9.242334	-1.447457	3.312559	0.009669	0.003626	0.003223	-0.4375	0.218018	-0.684082
616.0	9.262457	-1.474016	3.356185	0.009669	0.003625	0.003222	-0.435303	0.218018	-0.686279
617.0	9.265313	-1.443212	3.319218	0.009926	0.009924	0.004301	-0.437744	0.222412	-0.684326
618.0	9.265	-1.443174	3.320108	0.006009	0.006817	0.000577	-0.430908	0.220215	-0.681885
619.0	9.271436	-1.461574	3.306361	0.004579	0.008018	0.002037	-0.432861	0.21582	-0.686279
620.0	9.239534	-1.462907	3.334832	0.005234	0.001416	0.004394	-0.437744	0.222412	-0.686523
621.0	9.240987	-1.447617	3.316246	0.007507	0.002764	0.002743	-0.437744	0.222412	-0.686523
622.0	9.27258	-1.44644	3.28858	0.008824	0.001074	0.003413	-0.437744	0.222412	-0.686523
623.0	9.24592	-1.48136	3.321202	0.010073	0.002235	0.000457	-0.435303	0.220215	-0.688721
624.0	9.242307	-1.432069	3.298151	0.010029	-0.001104	0.006213	-0.435547	0.222412	-0.688965
625.0	9.264125	-1.443383	3.322459	0.00798	-0.001475	0.003603	-0.44458	0.226807	-0.684326
626.0	9.222434	-1.485822	3.315857	0.007137	-0.004024	0.003795	-0.43335	0.222412	-0.681885
627.0	9.240808	-1.448027	3.316567	0.01039	-0.005831	0.009204	-0.435303	0.218018	-0.686279
628.0	9.247622	-1.46688	3.301564	0.008634	-0.008078	0.005961	-0.437744	0.220215	-0.679443
629.0	9.247784	-1.467071	3.301026	0.015409	-0.007379	0.006762	-0.437744	0.222412	-0.688965
630.0	9.249511	-1.451856	3.281643	0.014272	-0.008053	0.007587	-0.435303	0.220215	-0.686523
631.0	9.247915	-1.46727	3.30057	0.019921	0.003485	0.005165	-0.435303	0.220215	-0.684082
632.0	9.292923	-1.47407	3.331077	0.015858	0.008066	0.005283	-0.437744	0.222412	-0.688965
633.0	9.257369	-1.425885	3.336706	0.014834	0.007879	0.003978	-0.437744	0.222412	-0.681885
634.0	9.268869	-1.478292	3.327422	0.005785	0.005837	0.00483	-0.435303	0.220215	-0.688721
635.0	9.262111	-1.460064	3.341986	0.003837	-0.005558	0.004143	-0.43335	0.222412	-0.686523
636.0	9.275436	-1.497298	3.313042	0.007102	0.004146	0.0055	-0.435303	0.218018	-0.681641
637.0	9.248335	-1.452115	3.284839	0.01696	0.003409	-0.000879	-0.435547	0.222412	-0.686523
638.0	9.271489	-1.447565	3.29116	0.017726	0.010793	0.00639	-0.4375	0.21582	-0.688721
639.0	9.224191	-1.455826	3.281678	0.023588	0.011787	0.003754	-0.433105	0.220215	-0.681885
640.0	9.233893	-1.414172	3.317187	0.020875	0.006505	0.002837	-0.437744	0.220215	-0.693359
641.0	9.20874	-1.433404	3.331209	0.018341	-0.001137	0.00342	-0.430908	0.220215	-0.684082
642.0	9.262355	-1.443303	3.327425	0.010902	-0.00674	0.004313	-0.433105	0.220215	-0.688721
643.0	9.263996	-1.428251	3.308248	0.005299	-0.001436	0.008016	-0.4375	0.218018	-0.684082
644.0	9.275617	-1.480919	3.298547	0.009374	0.005485	0.003843	-0.437988	0.229004	-0.689209
645.0	9.263508	-1.428605	3.30946	0.008611	0.011597	0.003607	-0.4375	0.218018	-0.686279
646.0	9.221318	-1.470995	3.304251	0.002973	0.011576	0.001981	-0.442139	0.218018	-0.686279
647.0	9.244455	-1.466854	3.310436	0.005053	0.003772	0.002889	-0.435303	0.220215	-0.684082
648.0	9.236078	-1.463934	3.343942	0.006726	-0.002642	0.006559	-0.435303	0.220215	-0.688721
649.0	9.272827	-1.496924	3.320506	0.008821	0.001061	0.003406	-0.433105	0.218018	-0.686523
650.0	9.244135	-1.467262	3.311146	0.012671	0.007008	0.003491	-0.433105	0.218018	-0.688721
651.0	9.260553	-1.444334	3.33199	0.018129	0.009387	0.003617	-0.435303	0.218018	-0.684082
652.0	9.235131	-1.463934	3.346558	0.017788	0.007929	0.010007	-0.442139	0.220215	-0.693359
653.0	9.218082	-1.486822	3.327491	0.011825	0.004458	0.003686	-0.437744	0.222412	-0.684326
654.0	9.274681	-1.466191	3.286504	0.01098	0.001912	0.003882	-0.4375	0.218018	-0.686279
655.0	9.236088	-1.448825	3.329342	0.009259	0.004993	0.005969	-0.437744	0.222412	-0.686523
656.0	9.217503	-1.487002	3.329015	0.011825	0.004456	0.003685	-0.437744	0.220215	-0.688721
657.0	9.250603	-1.470513	3.282879	0.017282	0.006833	0.003809	-0.43335	0.222412	-0.681885
658.0	9.213623	-1.437467	3.30692	0.014569	0.001557	0.0029	-0.4375	0.21582	-0.688721
659.0	9.228556	-1.429963	3.346255	0.016031	0.005677	0.006765	-0.433105	0.220215	-0.684082
660.0	9.241813	-1.467078	3.317704	0.008265	-0.003366	0.002972	-0.439941	0.218018	-0.691162
661.0	9.233571	-1.463894	3.350875	0.012764	-0.00402	0.005425	-0.43335	0.222412	-0.686523
662.0	9.241884	-1.467329	3.317394	0.012358	-0.002629	0.008184	-0.4375	0.218018	-0.688721
663.0	9.241872	-1.467532	3.31734	0.011448	-0.00233	0.00475	-0.430908	0.220215	-0.686523
664.0	9.272002	-1.481862	3.308274	0.0139	-0.003354	0.004596	-0.43335	0.224609	-0.688965
665.0	9.265259	-1.463169	3.32293	0.015413	0.004094	0.002697	-0.435303	0.220215	-0.691162
666.0	9.263367	-1.478109	3.34279	0.014766	0.010689	0.000322	-0.435303	0.220215	-0.686523
667.0	9.259549	-1.428526	3.320554	0.017949	0.011725	0.002099	-0.43335	0.224609	-0.686768
668.0	9.250773	-1.42491	3.355362	0.010708	0.015277	0.000429	-0.435303	0.218018	-0.684082
669.0	9.240344	-1.465753	3.322378	0.007377	0.008426	-0.004538	-0.437744	0.220215	-0.679443
670.0	9.265241	-1.445858	3.309453	0.00648	0.002557	0.001425	-0.435303	0.220215	-0.688721
671.0	9.246661	-1.483638	3.309308	0.008108	0.010486	-0.002608	-0.435303	0.220215	-0.684082
672.0	9.262988	-1.460438	3.330455	0.010706	0.015274	0.000426	-0.437744	0.222412	-0.684326
673.0	9.239139	-1.464298	3.326368	0.00913	0.010669	-0.001306	-0.435303	0.21582	-0.688721
674.0	9.238778	-1.46396	3.327519	0.011175	0.011037	0.0013	-0.435303	0.220215	-0.691162
675.0	9.208515	-1.449402	3.336981	0.008378	-0.002888	0.000845	-0.435303	0.218018	-0.684082
676.0	9.238568	-1.463606	3.328258	0.011821	0.004443	0.003678	-0.4375	0.218018	-0.686279
677.0	9.265152	-1.428655	3.296166	0.007908	0.001346	-3.1e-05	-0.430908	0.222412	-0.686523
678.0	9.263318	-1.443748	3.315753	0.007877	0.009516	0.00165	-0.43335	0.224609	-0.681885
679.0	9.267965	-1.477509	3.321504	0.006271	0.013083	0.001602	-0.435303	0.21582	-0.686279
680.0	9.269222	-1.462109	3.30368	0.003381	0.01017	-0.000804	-0.435303	0.220215	-0.684082
681.0	9.24549	-1.466112	3.299212	0.002359	0.009985	-0.002107	-0.440186	0.224609	-0.693604
682.0	9.245209	-1.465792	3.30014	0.00481	0.00896	-0.002259	-0.435303	0.21582	-0.693359
683.0	9.259917	-1.45805	3.340027	0.00627	0.01308	0.0016	-0.4375	0.218018	-0.686279
684.0	9.231102	-1.428277	3.331013	0.007146	0.007453	-0.00028	-0.437744	0.220215	-0.686523
685.0	9.230871	-1.42828	3.331649	0.007092	0.004132	0.005486	-0.430908	0.222412	-0.684326
686.0	9.26089	-1.442592	3.32303	0.004727	0.000308	-0.001807	-0.435547	0.222412	-0.688965
687.0	9.260862	-1.442402	3.323189	0.004319	0.001702	0.00095	-0.435303	0.220215	-0.688721
688.0	9.260687	-1.442352	3.3237	8.4e-05	0.00865	-0.000453	-0.435303	0.220215	-0.684082
689.0	9.251983	-1.439027	3.357991	-0.001523	0.012216	-0.000504	-0.430908	0.218018	-0.681641
690.0	9.266706	-1.460889	3.311268	-0.00339	0.009489	-0.001606	-0.437744	0.220215	-0.686523
691.0	9.241213	-1.480287	3.325984	-0.000854	0.017112	-0.002211	-0.437744	0.220215	-0.684082
692.0	9.227388	-1.472363	3.269559	0.002066	0.011855	-0.001483	-0.4375	0.218018	-0.688721
693.0	9.263846	-1.475674	3.333788	0.004694	0.008474	-0.000129	-0.435059	0.213623	-0.683838
694.0	9.248525	-1.482932	3.295922	0.006969	0.009806	-0.001785	-0.437744	0.224609	-0.688965
695.0	9.239893	-1.479367	3.330059	0.003849	0.005932	7.2e-05	-0.433105	0.218018	-0.684082
696.0	9.264749	-1.459834	3.317203	0.002418	0.007141	0.001526	-0.4375	0.213623	-0.683838
697.0	9.234347	-1.445445	3.326867	0.001221	0.009312	-0.001283	-0.433105	0.218018	-0.684082
698.0	9.270835	-1.478326	3.304654	-0.000503	0.012396	0.000796	-0.437744	0.224609	-0.691406
699.0	9.255322	-1.456445	3.353437	-0.002545	0.012026	-0.001812	-0.433105	0.220215	-0.681885
700.0	9.238084	-1.47918	3.335155	0.000717	0.021705	-0.000489	-0.435303	0.21582	-0.686279
701.0	9.239099	-1.463987	3.318005	-0.005877	0.018671	0.000213	-0.435303	0.220215	-0.688721
702.0	9.228403	-1.475915	3.371957	-0.00319	0.018607	-0.0042	-0.435303	0.218018	-0.688721
703.0	9.206103	-1.464747	3.349148	-0.002288	0.01831	-0.000765	-0.433105	0.220215	-0.688721
704.0	9.212311	-1.483315	3.336249	-0.002839	0.013895	-0.001189	-0.433105	0.220215	-0.684082
705.0	9.205212	-1.464713	3.35161	8.2e-05	0.008642	-0.000457	-0.430908	0.222412	-0.688965
706.0	9.20835	-1.4342	3.314366	-0.003215	0.007126	-0.000107	-0.435059	0.213623	-0.688477
707.0	9.292112	-1.488257	3.215983	-0.008201	0.000531	0.000646	-0.435303	0.220215	-0.686523
708.0	9.402009	-1.448325	3.259062	0.018981	0.023357	-0.000681	-0.433105	0.218018	-0.681641
709.0	9.491147	-1.386801	3.479846	0.028423	0.113133	-0.00337	-0.435303	0.220215	-0.686523
710.0	9.365826	-1.378051	3.674817	0.034907	0.127086	-0.00607	-0.433105	0.220215	-0.691162
711.0	9.29526	-1.32945	3.71587	0.017386	0.063276	-0.001984	-0.433105	0.218018	-0.688721
712.0	9.318481	-1.463942	3.612292	-0.021293	-0.016499	0.003997	-0.435547	0.222412	-0.691162
713.0	9.322453	-1.617696	3.392313	-0.001311	-0.049001	0.008303	-0.430908	0.220215	-0.691162
714.0	9.23049	-1.66378	3.280548	0.084824	-0.031511	0.01366	-0.428711	0.220215	-0.686523
715.0	9.140656	-1.619185	3.30575	0.143005	-0.031599	0.034746	-0.430908	0.220215	-0.688721
716.0	9.049992	-1.590251	3.347299	0.171159	-0.104858	0.057983	-0.4375	0.218018	-0.684082
717.0	9.087414	-1.575525	3.289417	0.173057	-0.198816	0.094951	-0.4375	0.21582	-0.688721
718.0	9.131873	-1.519019	3.166573	0.181132	-0.271789	0.135057	-0.437744	0.222412	-0.681885
719.0	9.111753	-1.433169	2.964966	0.194898	-0.310582	0.164295	-0.4375	0.218018	-0.684082
720.0	9.093057	-1.304385	2.829441	0.197626	-0.289925	0.180676	-0.439941	0.218018	-0.681641
721.0	8.993794	-1.216421	2.627262	0.204839	-0.267075	0.195833	-0.440186	0.224609	-0.679688
722.0	8.830817	-1.146142	2.377441	0.204028	-0.270587	0.208284	-0.44458	0.222412	-0.686523
723.0	8.82397	-1.044545	2.19592	0.233209	-0.29306	0.218934	-0.44873	0.218018	-0.677002
724.0	9.03703	-0.989796	2.086145	0.278359	-0.32834	0.219555	-0.450928	0.213623	-0.681641
725.0	9.497083	-0.851768	2.177999	0.328579	-0.364712	0.213255	-0.446533	0.218018	-0.684082
726.0	9.990389	-0.792156	2.298374	0.29862	-0.377404	0.197506	-0.444336	0.218018	-0.679443
727.0	10.436118	-0.835219	2.365503	0.24371	-0.333237	0.16801	-0.446777	0.220215	-0.677246
728.0	10.592109	-0.971177	2.316049	0.163791	-0.228248	0.138654	-0.453369	0.218018	-0.674805
729.0	10.49964	-1.076884	2.221181	0.118971	-0.105435	0.106186	-0.446289	0.213623	-0.669922
730.0	10.316391	-1.134169	2.165495	0.119369	-0.023693	0.083868	-0.451172	0.218018	-0.677002
731.0	10.156942	-1.170916	2.101479	0.117907	0.019522	0.068191	-0.446533	0.21582	-0.670166
732.0	10.025823	-1.232838	2.17536	0.150657	0.03578	0.064292	-0.457764	0.213379	-0.677002
733.0	9.860274	-1.243988	2.255925	0.210945	0.068594	0.065379	-0.446533	0.21582	-0.679443
734.0	9.799361	-1.210602	2.409812	0.266891	0.093428	0.074971	-0.450684	0.209229	-0.679199
735.0	9.705005	-1.189381	2.615373	0.309144	0.127281	0.085364	-0.444092	0.211426	-0.676758
736.0	9.572314	-1.151256	2.741466	0.319727	0.145435	0.09873	-0.446289	0.211426	-0.676758
737.0	9.48865	-1.158628	2.779032	0.322275	0.154163	0.11076	-0.446289	0.213623	-0.674561
738.0	9.425676	-1.120412	2.671363	0.329645	0.1606	0.12238	-0.443848	0.207031	-0.683594
739.0	9.373333	-1.054894	2.615559	0.328672	0.173056	0.129589	-0.446045	0.204834	-0.681152
740.0	9.30311	-1.013548	2.542155	0.336076	0.182681	0.135345	-0.437012	0.202637	-0.685791
741.0	9.282848	-0.869031	2.516383	0.337334	0.188478	0.137158	-0.443604	0.202637	-0.678955
742.0	9.203058	-0.830215	2.619584	0.301475	0.17994	0.138586	-0.44165	0.204834	-0.681152
743.0	9.231297	-0.740933	2.64663	0.267252	0.160557	0.13451	-0.43457	0.200439	-0.685791
744.0	9.171422	-0.686623	2.638816	0.236739	0.138447	0.131031	-0.439209	0.200439	-0.685791
745.0	9.272392	-0.840619	2.740863	0.154984	0.14979	0.127029	-0.43457	0.198242	-0.680908
746.0	9.198198	-1.037378	2.740783	0.107787	0.196843	0.127421	-0.434814	0.204834	-0.683594
747.0	9.177202	-1.211011	2.827208	0.106115	0.273906	0.11542	-0.427979	0.202637	-0.69043
748.0	9.062635	-1.325393	3.070203	0.13524	0.373418	0.100111	-0.43042	0.207031	-0.688232
749.0	8.889863	-1.376238	3.29534	0.154306	0.426847	0.072264	-0.425781	0.202637	-0.685791
750.0	8.689509	-1.379344	3.490837	0.156485	0.464848	0.034907	-0.425537	0.200439	-0.695068
751.0	8.363055	-1.412811	3.587826	0.130041	0.447171	-0.009171	-0.421387	0.204834	-0.695313
752.0	8.129863	-1.45331	3.505626	0.134634	0.400593	-0.071658	-0.416748	0.202637	-0.699707
753.0	7.976178	-1.496886	3.423487	0.161274	0.393812	-0.159997	-0.414063	0.196045	-0.692627
754.0	7.686195	-1.551437	3.401218	0.187934	0.467243	-0.269932	-0.418701	0.193848	-0.699463
755.0	7.37121	-1.805931	3.415892	0.224496	0.507026	-0.39811	-0.41626	0.193848	-0.697021
756.0	6.922248	-2.168621	3.45095	0.331785	0.453946	-0.512877	-0.409424	0.189453	-0.706299
757.0	6.582581	-2.537096	3.602298	0.477177	0.281981	-0.615471	-0.406982	0.182861	-0.706055
758.0	6.8166	-2.745062	3.65	0.605108	-0.100552	-0.689808	-0.415527	0.174072	-0.705566
759.0	7.588219	-2.652526	3.632769	0.676318	-0.551584	-0.726251	-0.415283	0.169678	-0.703125
760.0	8.94586	-2.342247	3.36404	0.670859	-0.894653	-0.728046	-0.426514	0.16748	-0.696045
761.0	10.564814	-1.868461	2.991821	0.689208	-1.074856	-0.657355	-0.426025	0.15625	-0.691162
762.0	12.313106	-1.124659	2.59833	0.707826	-1.153425	-0.509351	-0.437256	0.151855	-0.686279
763.0	13.631177	-0.257414	2.036593	0.558056	-1.117049	-0.291695	-0.437012	0.145264	-0.681396
764.0	13.598958	-0.204331	1.478104	0.036458	-0.949013	-0.085825	-0.44165	0.149658	-0.679199
765.0	12.59943	-0.582902	0.405546	-0.361707	-0.643709	0.014486	-0.443848	0.147461	-0.669922
766.0	11.731692	-1.08813	-0.430279	-0.402456	-0.329673	0.028966	-0.446289	0.15625	-0.677246
767.0	11.525805	-1.28089	-0.493045	-0.175287	-0.012454	0.028562	-0.448486	0.154053	-0.674805
768.0	11.501881	-1.134065	0.050645	-0.04952	0.406322	0.047947	-0.444092	0.154053	-0.684082
769.0	11.10789	-1.083844	0.945386	-0.155118	0.903644	0.080467	-0.434814	0.151855	-0.677002
770.0	10.507314	-1.38446	1.656788	-0.327013	1.298749	0.131192	-0.428223	0.154053	-0.686279
771.0	9.716043	-1.900178	2.17813	-0.374698	1.423959	0.192428	-0.417236	0.160889	-0.691162
772.0	8.937623	-2.193585	2.562899	-0.234391	1.334619	0.255991	-0.412842	0.163086	-0.698242
773.0	8.472127	-2.213417	2.947665	-0.053629	1.094406	0.301966	-0.403809	0.163086	-0.696045
774.0	8.387473	-2.213617	3.302561	-0.004344	0.84053	0.347365	-0.40625	0.165283	-0.703125
775.0	8.425769	-2.224243	3.472298	0.017654	0.605949	0.391749	-0.395264	0.171875	-0.708008
776.0	8.43744	-2.345691	3.435404	0.022014	0.398532	0.427687	-0.392822	0.169678	-0.707764
777.0	8.401383	-2.358661	3.211968	0.041632	0.211173	0.441524	-0.390625	0.169678	-0.705566
778.0	8.368819	-2.174496	3.038484	0.05342	0.019562	0.424044	-0.390625	0.171875	-0.703369
779.0	8.27618	-1.999945	2.630247	0.018186	-0.10038	0.374231	-0.392822	0.171875	-0.705566
780.0	8.224848	-1.8579	2.195403	-0.03606	-0.183016	0.318188	-0.393066	0.174072	-0.708008
781.0	8.231633	-1.710247	1.735601	-0.015383	-0.215855	0.265708	-0.392822	0.171875	-0.69873
782.0	8.386294	-1.495035	1.451794	0.07027	-0.240395	0.221087	-0.393066	0.174072	-0.705811
783.0	8.688908	-1.31336	1.514658	0.138251	-0.231278	0.197612	-0.4021	0.178467	-0.698975
784.0	9.067174	-1.244206	1.66343	0.090526	-0.183426	0.185688	-0.395264	0.174072	-0.696289
785.0	9.343487	-1.375976	1.848915	-0.010155	-0.137716	0.186031	-0.392822	0.171875	-0.696289
786.0	9.596009	-1.559582	1.856923	-0.094204	-0.098762	0.176014	-0.397461	0.17627	-0.694092
787.0	9.811002	-1.85125	1.881296	-0.14073	-0.058597	0.15198	-0.4021	0.178467	-0.694336
788.0	9.985361	-2.115797	1.744403	-0.133346	-0.008674	0.11001	-0.390625	0.174072	-0.69165
789.0	10.09149	-2.327688	1.546936	-0.092463	0.075763	0.056149	-0.393066	0.178467	-0.689697
790.0	10.102398	-2.50888	1.419171	-0.00492	0.176246	-0.006627	-0.395264	0.17627	-0.691895
791.0	10.118947	-2.519299	1.378858	0.122794	0.277915	-0.064978	-0.388672	0.17627	-0.696533
792.0	10.068613	-2.424312	1.548611	0.223896	0.374107	-0.112821	-0.38623	0.17627	-0.701172
793.0	10.017874	-2.219221	1.850685	0.271048	0.429086	-0.141488	-0.379395	0.174316	-0.69873
794.0	9.96429	-2.056749	2.183687	0.259372	0.424662	-0.147502	-0.381348	0.165283	-0.693848
795.0	9.9318	-1.850636	2.39653	0.175055	0.356169	-0.142671	-0.381348	0.163086	-0.700684
796.0	9.900281	-1.760213	2.383608	0.051463	0.246313	-0.113803	-0.376953	0.165283	-0.698486
797.0	9.911946	-1.75195	2.256944	-0.094033	0.106266	-0.097908	-0.374756	0.16748	-0.69165
798.0	9.947176	-1.770176	1.960961	-0.204764	0.008078	-0.073619	-0.372314	0.165527	-0.698486
799.0	9.973322	-1.737059	1.659532	-0.250478	-0.028735	-0.060503	-0.370117	0.165527	-0.696045
800.0	10.055476	-1.69698	1.42792	-0.303071	-0.017484	-0.05984	-0.374512	0.165283	-0.691406
801.0	10.176881	-1.673761	1.251825	-0.34625	0.01973	-0.061118	-0.374756	0.171875	-0.684814
802.0	10.104158	-1.604421	1.193782	-0.36717	0.073801	-0.06765	-0.374756	0.171875	-0.689453
803.0	10.12916	-1.700969	1.076943	-0.423278	0.082258	-0.075015	-0.372559	0.172119	-0.69165
804.0	10.398082	-1.952877	1.014635	-0.460073	0.078145	-0.089522	-0.370361	0.172119	-0.69165
805.0	11.134011	-2.243422	1.239449	-0.370434	0.106832	-0.091787	-0.370361	0.169922	-0.687012
806.0	12.587755	-2.310757	2.153846	-0.251551	0.159709	-0.056287	-0.361572	0.176514	-0.694092
807.0	13.962541	-1.921851	3.416358	-0.22974	0.355561	-0.016339	-0.361572	0.178711	-0.689697
808.0	14.438646	-1.146321	4.576758	-0.54741	0.68719	0.056847	-0.350586	0.183105	-0.694336
809.0	12.937816	-1.05692	4.479738	-1.169306	0.963281	0.119418	-0.348389	0.1875	-0.69458
810.0	11.310437	-2.417252	3.875163	-1.543929	0.859607	0.117046	-0.35083	0.191895	-0.699463
811.0	10.165927	-3.56574	3.730823	-1.259816	0.650052	0.073451	-0.339844	0.19873	-0.695068
812.0	8.940786	-3.247919	4.293132	-0.713656	0.659629	0.019062	-0.337891	0.205322	-0.69751
813.0	8.166971	-2.179819	5.464384	-0.413104	0.852582	-0.029814	-0.335693	0.20752	-0.699951
814.0	7.492288	-1.584406	6.723651	-0.480548	0.866773	0.006964	-0.331055	0.205322	-0.699951
815.0	6.900003	-1.74081	7.584261	-0.636393	0.595101	0.081188	-0.324463	0.20752	-0.699951
816.0	6.650618	-2.351899	7.77413	-0.714273	0.146042	0.159428	-0.317871	0.211914	-0.707031
817.0	7.175664	-2.823499	7.562906	-0.559875	-0.303514	0.266376	-0.322754	0.218506	-0.695801
818.0	7.892078	-2.877679	7.05832	-0.287917	-0.577857	0.390562	-0.324707	0.216309	-0.695801
819.0	8.323425	-2.843202	6.43791	-0.121354	-0.655635	0.485682	-0.327148	0.218506	-0.691162
820.0	8.942869	-2.799617	5.997141	0.005015	-0.616121	0.529021	-0.32959	0.220703	-0.693604
821.0	9.709089	-2.646955	5.971724	0.113066	-0.49186	0.521422	-0.327393	0.2229	-0.693604
822.0	10.077487	-2.24416	6.027136	0.206042	-0.260848	0.443104	-0.32959	0.2229	-0.693604
823.0	9.819146	-1.927797	5.971792	0.171343	-0.01329	0.338866	-0.332031	0.227295	-0.693848
824.0	9.253024	-1.812229	5.593973	0.144566	0.050806	0.211931	-0.329346	0.216309	-0.697998
825.0	8.827246	-1.681012	4.963901	0.18878	-0.097699	0.097993	-0.331543	0.218506	-0.693359
826.0	8.657482	-1.610003	4.454992	0.185352	-0.252677	0.006273	-0.331543	0.218506	-0.693359
827.0	8.497216	-1.329256	4.005371	0.217034	-0.249448	-0.065327	-0.331543	0.218506	-0.686523
828.0	8.337594	-1.325037	3.879288	0.148933	-0.134796	-0.127487	-0.327148	0.216309	-0.688721
829.0	8.052517	-1.216918	3.781343	0.175124	0.012282	-0.181827	-0.327148	0.216309	-0.688721
830.0	7.76445	-1.03284	3.900761	0.25404	0.019515	-0.233969	-0.333496	0.209717	-0.690918
831.0	7.594256	-0.877495	3.988506	0.268275	-0.063988	-0.246387	-0.335938	0.211914	-0.688477
832.0	7.484294	-0.8163	4.010094	0.277774	-0.178488	-0.232582	-0.329102	0.209717	-0.693115
833.0	7.415047	-0.687615	3.803887	0.252729	-0.288149	-0.229961	-0.333496	0.20752	-0.690674
834.0	7.509414	-0.635447	3.600631	0.244198	-0.393751	-0.216774	-0.333252	0.200928	-0.692871
835.0	7.462777	-0.735983	3.495822	0.172658	-0.426426	-0.215096	-0.333496	0.20752	-0.686035
836.0	7.574318	-0.855972	3.223087	0.147607	-0.467768	-0.236287	-0.335205	0.196533	-0.685547
837.0	7.650073	-0.960704	3.22585	0.176005	-0.530833	-0.262053	-0.340088	0.203125	-0.69043
838.0	7.890667	-0.908119	3.12438	0.179351	-0.557538	-0.296716	-0.344238	0.194092	-0.685547
839.0	7.912451	-0.73362	3.003784	0.17972	-0.574121	-0.327401	-0.346436	0.194092	-0.680908
840.0	8.082018	-0.445166	2.928356	0.180622	-0.581621	-0.363178	-0.346436	0.194092	-0.680908
841.0	8.196514	-0.527991	2.601745	-0.033125	-0.553875	-0.361999	-0.348633	0.191895	-0.680908
842.0	8.130033	-0.34389	1.929455	0.025524	-0.427788	-0.37079	-0.348389	0.185303	-0.685303
843.0	8.072454	-0.263951	2.017584	-0.032864	-0.312036	-0.355521	-0.357422	0.189697	-0.676025
844.0	7.942994	-0.328008	1.698524	-0.1493	-0.181459	-0.317437	-0.359619	0.1875	-0.680664
845.0	7.752707	-0.382277	1.787291	-0.206669	-0.087955	-0.275454	-0.353027	0.1875	-0.678467
846.0	7.580347	-0.721755	1.89148	-0.312374	-0.049032	-0.222549	-0.357422	0.189697	-0.673828
847.0	7.51781	-0.915702	1.875067	-0.295847	-0.11962	-0.188572	-0.35791	0.196289	-0.67627
848.0	7.622674	-1.022638	1.941991	-0.290699	-0.198955	-0.155268	-0.351074	0.196289	-0.666992
849.0	7.668101	-1.243127	1.820889	-0.342843	-0.203429	-0.113944	-0.353271	0.194092	-0.669189
850.0	7.813497	-1.468895	1.707413	-0.312063	-0.23912	-0.081259	-0.357666	0.191895	-0.673828
851.0	7.937336	-1.462651	1.520974	-0.231112	-0.186572	-0.06281	-0.355469	0.191895	-0.669189
852.0	8.311401	-1.348905	1.57832	-0.187587	-0.109456	-0.044522	-0.357666	0.196289	-0.669434
853.0	8.557087	-1.333316	1.800927	-0.186784	0.006579	-0.015171	-0.353271	0.194092	-0.678711
854.0	8.56998	-1.031541	2.040915	-0.112138	0.111564	0.014501	-0.355469	0.194092	-0.67627
855.0	8.611668	-0.749081	2.376887	-0.111058	0.26654	0.025973	-0.346436	0.196289	-0.674072
856.0	8.451223	-0.805751	2.431084	-0.204342	0.226364	0.052539	-0.348633	0.194092	-0.67627
857.0	8.549416	-0.980136	2.546258	-0.25175	0.09165	0.050863	-0.34668	0.202881	-0.674316
858.0	8.894977	-1.05689	2.631359	-0.247674	-0.129521	0.057514	-0.34668	0.202881	-0.671875
859.0	9.740095	-1.240825	2.735217	-0.178049	-0.455968	0.056938	-0.351318	0.202881	-0.674316
860.0	10.915208	-0.999307	2.772989	-0.026001	-0.70913	0.043925	-0.353516	0.205078	-0.672119
861.0	11.969967	-0.653936	2.709087	0.16224	-0.889873	0.007488	-0.355957	0.205078	-0.665039
862.0	12.729082	-0.382432	2.323025	0.27281	-1.044159	-0.020124	-0.362549	0.200684	-0.664795
863.0	13.062116	-0.31954	1.571459	0.162181	-1.183457	-0.048852	-0.366943	0.202881	-0.662598
864.0	13.30512	-0.644302	0.278649	-0.050452	-1.172032	-0.094136	-0.366943	0.198486	-0.660156
865.0	13.267701	-1.023135	-0.815244	-0.137979	-0.830039	-0.140781	-0.373779	0.200684	-0.657959
866.0	12.879387	-1.314115	-0.975003	-0.032102	-0.304738	-0.168916	-0.371338	0.198486	-0.655518
867.0	12.893874	-1.459121	0.870954	0.063374	0.178593	-0.170464	-0.371582	0.200684	-0.660156
868.0	13.692878	-2.28518	4.922454	-0.228402	0.454928	-0.212007	-0.369141	0.200684	-0.657959
869.0	13.988526	-3.956939	7.617257	-0.65174	0.009316	-0.376062	-0.369385	0.202881	-0.651123
870.0	13.615352	-4.714315	8.370562	-0.083277	-0.140063	-0.597712	-0.369385	0.202881	-0.655762
871.0	12.661472	-3.881264	6.772097	0.165566	-0.412765	-0.772716	-0.371582	0.200684	-0.655518
872.0	11.632371	-3.091935	4.767664	0.121643	-0.097761	-0.872471	-0.371094	0.194092	-0.662354
873.0	9.096801	-2.819175	4.306323	0.511117	0.927873	-0.905828	-0.366699	0.191895	-0.664551
874.0	6.434392	-1.449569	4.752857	1.0186	1.404062	-0.880177	-0.357178	0.180908	-0.675781
875.0	4.879108	-0.705513	5.749992	0.764403	1.124884	-0.764238	-0.359375	0.180908	-0.675781
876.0	5.108708	-1.298214	6.288722	0.535486	0.501883	-0.614134	-0.352295	0.169922	-0.682373
877.0	6.739273	-1.550302	6.489192	0.628935	-0.239744	-0.535999	-0.361328	0.174316	-0.675537
878.0	8.99736	-1.178226	6.714742	0.74562	-0.84147	-0.519492	-0.363281	0.163086	-0.67749
879.0	11.114974	-0.203882	6.36839	0.867937	-1.046592	-0.515512	-0.37207	0.160889	-0.679688
880.0	12.415991	0.651011	5.772566	0.569741	-0.867187	-0.466615	-0.37207	0.158691	-0.677246
881.0	12.550101	0.652759	4.359483	-0.131701	-0.459042	-0.371759	-0.37207	0.160889	-0.675049
882.0	12.089659	0.067265	2.703565	-0.48785	0.077192	-0.229853	-0.374512	0.165283	-0.679932
883.0	11.528513	-0.631441	2.086011	-0.384973	0.638597	-0.097582	-0.367676	0.160889	-0.675049
884.0	10.022349	-0.773608	2.569486	-0.046839	1.072592	-0.00807	-0.361084	0.167725	-0.68457
885.0	8.598122	-0.717179	3.411226	0.090861	1.209659	0.038951	-0.354492	0.169922	-0.687012
886.0	7.445316	-0.828661	3.958488	0.055928	0.996302	0.102857	-0.349854	0.165527	-0.691406
887.0	6.949725	-1.183814	4.168547	-0.128354	0.555892	0.181571	-0.350342	0.176514	-0.689453
888.0	6.983632	-1.783574	3.868897	-0.327786	0.198616	0.263533	-0.343506	0.178711	-0.696533
889.0	7.390017	-2.358028	3.501123	-0.41667	0.071142	0.329347	-0.339355	0.183105	-0.689697
890.0	7.738466	-2.656605	3.056755	-0.360515	0.128441	0.365914	-0.339355	0.183105	-0.692139
891.0	7.931959	-2.735962	2.894914	-0.193843	0.269244	0.37661	-0.341797	0.191895	-0.694824
892.0	7.922786	-2.744456	2.849894	-0.03066	0.491564	0.381665	-0.334961	0.187744	-0.699219
893.0	7.869266	-2.715719	2.846175	0.156784	0.672807	0.368849	-0.332764	0.192139	-0.699463
894.0	7.607559	-2.410299	2.794521	0.388232	0.730939	0.379233	-0.325928	0.189941	-0.706299
895.0	7.376111	-2.001228	2.93575	0.551091	0.6422	0.387385	-0.323975	0.194336	-0.704102
896.0	7.260602	-1.514631	2.884177	0.577719	0.446063	0.41121	-0.31665	0.18335	-0.710693
897.0	7.210554	-1.175636	2.923277	0.538493	0.196862	0.442565	-0.321289	0.185547	-0.706055
898.0	7.207375	-0.893788	2.667338	0.403522	-0.035214	0.473775	-0.319092	0.185547	-0.710693
899.0	7.364464	-0.838414	2.585479	0.290843	-0.275846	0.521159	-0.314941	0.194336	-0.699463
900.0	7.583378	-0.914688	2.287752	0.22693	-0.434738	0.54606	-0.317139	0.194336	-0.704102
901.0	7.657232	-0.992462	1.938666	0.286446	-0.417039	0.534041	-0.315186	0.19873	-0.708984
902.0	7.662422	-1.117711	1.585533	0.368399	-0.273551	0.492416	-0.324219	0.19873	-0.704346
903.0	7.657089	-1.337737	1.447289	0.498173	-0.069919	0.426364	-0.317383	0.200928	-0.704346
904.0	7.627491	-1.367257	1.358054	0.639638	0.079054	0.332179	-0.319336	0.192139	-0.710938
905.0	7.609139	-1.218685	1.59626	0.795878	0.116427	0.219963	-0.319336	0.194336	-0.704102
906.0	7.624341	-0.950227	2.021984	0.833263	0.059426	0.115652	-0.310303	0.189941	-0.715576
907.0	7.625905	-0.75713	2.172898	0.761737	-0.099618	0.025675	-0.317139	0.196533	-0.711182
908.0	7.709457	-0.674512	2.302463	0.651046	-0.259308	-0.043542	-0.323486	0.181152	-0.710693
909.0	8.305136	-0.789133	2.407376	0.49413	-0.510907	-0.064611	-0.318848	0.181152	-0.706055
910.0	8.526842	-0.729768	2.209415	0.381997	-0.664339	-0.091127	-0.327881	0.181152	-0.708252
911.0	9.055692	-0.634426	1.965277	0.296396	-0.744798	-0.109572	-0.328125	0.185547	-0.701416
912.0	9.60982	-0.586856	1.856369	0.100964	-0.731463	-0.089683	-0.328125	0.185547	-0.701416
913.0	10.159539	-0.668092	1.761611	-0.103254	-0.500424	-0.069342	-0.330322	0.18335	-0.696777
914.0	10.845101	-0.976416	1.850049	-0.260226	-0.21149	-0.038956	-0.332764	0.187744	-0.69458
915.0	11.547773	-1.256608	2.065529	-0.307248	-0.037361	-0.014127	-0.335205	0.192139	-0.694824
916.0	11.907118	-1.243954	2.389388	-0.287708	0.0271	0.029926	-0.330566	0.192139	-0.694824
917.0	11.66091	-1.201514	2.403981	-0.365602	0.049701	0.05965	-0.328613	0.196533	-0.697266
918.0	11.116374	-1.320592	2.066383	-0.486038	0.076248	0.044153	-0.331055	0.200928	-0.692871
919.0	10.589109	-1.829603	1.446894	-0.566149	-0.020945	0.027443	-0.333496	0.209717	-0.695557
920.0	10.553662	-2.46096	0.912517	-0.493055	-0.153677	-0.003713	-0.328857	0.205322	-0.69751
921.0	11.366662	-2.885222	1.204131	-0.224249	-0.182919	-0.042594	-0.329102	0.211914	-0.686279
922.0	12.918377	-3.202667	2.831382	0.039387	0.087235	-0.059242	-0.324707	0.211914	-0.690918
923.0	15.048228	-2.888537	4.92823	0.165936	0.370657	0.043443	-0.326904	0.211914	-0.690918
924.0	17.111752	-1.276858	7.390852	0.119806	0.185934	0.309036	-0.329102	0.211914	-0.695557
925.0	16.124215	0.317247	8.478875	-0.633779	0.299642	0.483282	-0.318115	0.220703	-0.688965
926.0	13.348808	-1.098956	6.797927	-1.598879	0.314631	0.590952	-0.321045	0.233887	-0.689453
927.0	10.292448	-3.069201	4.422061	-1.731763	0.361588	0.607345	-0.319092	0.24292	-0.685059
928.0	7.173406	-3.085635	2.967814	-1.008451	0.612329	0.529718	-0.310791	0.260498	-0.692627
929.0	5.143695	-1.6892	3.929001	-0.272504	1.000751	0.431413	-0.303955	0.260498	-0.692627
930.0	4.819011	-1.120386	6.251886	-0.12246	1.454132	0.416476	-0.299316	0.256104	-0.699463
931.0	5.069237	-1.514372	8.25498	0.07023	1.17008	0.494105	-0.292725	0.258301	-0.699707
932.0	6.089617	-1.320503	9.799345	0.395731	-0.034092	0.678972	-0.294922	0.258301	-0.699707
933.0	8.259183	-0.911953	9.760094	0.187175	-1.364188	0.921292	-0.297363	0.264893	-0.690674
934.0	11.481449	-2.230105	8.875034	-0.337195	-2.209637	1.123502	-0.311279	0.271484	-0.683838
935.0	14.586308	-4.259077	6.696081	-0.298589	-2.227488	1.103851	-0.318604	0.284668	-0.677246
936.0	14.644617	-5.204798	4.012811	0.124809	-1.334076	0.924507	-0.318359	0.280273	-0.679443
937.0	12.425303	-4.683187	1.671819	0.395044	-0.05486	0.587672	-0.320801	0.282471	-0.675049
938.0	10.62087	-3.811143	1.510327	0.614139	0.986951	0.25782	-0.315918	0.273682	-0.688477
939.0	9.031046	-2.460385	2.734559	0.841503	1.419143	0.007892	-0.304443	0.271484	-0.695557
940.0	7.802565	-1.125792	4.113392	0.876356	1.200648	-0.145656	-0.299805	0.264893	-0.69751
941.0	7.181345	-0.236231	4.438808	0.822006	0.613189	-0.231159	-0.297607	0.26709	-0.695313
942.0	7.236956	0.300442	4.464952	0.735212	0.003561	-0.252305	-0.306152	0.256104	-0.697266
943.0	7.378267	0.683866	4.044458	0.576902	-0.328852	-0.256258	-0.303955	0.256104	-0.697266
944.0	7.423865	0.798999	3.105551	0.374695	-0.427025	-0.240393	-0.303955	0.256104	-0.694824
945.0	7.372612	0.807897	2.382709	0.259673	-0.385055	-0.24253	-0.30835	0.253906	-0.697021
946.0	7.196881	0.992406	1.851132	0.245484	-0.215504	-0.244164	-0.303711	0.253906	-0.694824
947.0	7.175843	0.916514	2.09582	0.141423	-0.036123	-0.225797	-0.310547	0.256104	-0.692627
948.0	7.05	0.568318	2.517515	0.020075	0.070584	-0.201012	-0.303711	0.253906	-0.699463
949.0	6.76167	0.332615	2.814051	0.009172	-0.031382	-0.194203	-0.312988	0.256104	-0.697266
950.0	6.885954	-0.015333	3.378524	-0.093264	-0.293852	-0.195437	-0.317139	0.247314	-0.69458
951.0	7.009629	-0.131062	3.169298	-0.140997	-0.564052	-0.231104	-0.317139	0.251709	-0.69458
952.0	7.693375	-0.207009	3.037239	-0.211641	-0.757217	-0.279253	-0.32373	0.247314	-0.69458
953.0	7.976606	0.100352	2.264934	-0.276991	-0.765724	-0.322661	-0.32666	0.260498	-0.685791
954.0	8.291094	0.044351	1.788212	-0.487048	-0.652445	-0.354567	-0.331055	0.258301	-0.687988
955.0	8.234804	-0.37781	0.899079	-0.684382	-0.450118	-0.366896	-0.32666	0.264893	-0.683594
956.0	8.214939	-0.451296	0.306922	-0.655153	-0.185446	-0.381114	-0.333252	0.258057	-0.678711
957.0	8.348479	-0.215575	0.361979	-0.610083	0.105871	-0.374031	-0.331299	0.26709	-0.681396
958.0	8.257036	-0.24284	0.748709	-0.692545	0.375244	-0.322066	-0.324463	0.264893	-0.685791
959.0	7.970329	-0.735506	1.207056	-0.84306	0.509818	-0.272087	-0.332031	0.282471	-0.677246
960.0	7.512475	-1.317882	1.559097	-0.874918	0.506113	-0.21605	-0.322754	0.275879	-0.684082
961.0	7.336617	-1.660179	1.920028	-0.80735	0.371829	-0.164887	-0.322998	0.284668	-0.679688
962.0	7.339505	-1.837471	2.13626	-0.766856	0.185027	-0.108769	-0.322998	0.284668	-0.677246
963.0	7.536898	-2.04707	2.0687	-0.744664	0.088003	-0.062694	-0.323242	0.289063	-0.682129
964.0	7.975037	-2.062498	2.139686	-0.6313	0.146738	-0.031831	-0.321045	0.293457	-0.675293
965.0	8.229377	-1.856124	2.303893	-0.567113	0.222049	-0.033886	-0.319092	0.297852	-0.682373
966.0	8.131867	-1.867136	2.27432	-0.568795	0.328271	-0.018771	-0.319092	0.300049	-0.680176
967.0	8.288699	-2.09103	2.487201	-0.511253	0.342546	-0.033085	-0.310547	0.309082	-0.685303
968.0	8.696282	-2.446354	2.900572	-0.421692	0.146039	-0.037841	-0.319336	0.306641	-0.675781
969.0	9.368136	-2.962005	3.070792	-0.282243	-0.23203	-0.025775	-0.314941	0.304443	-0.677979
970.0	10.587552	-3.081449	3.266174	0.108819	-0.597924	-0.027003	-0.321777	0.306641	-0.678223
971.0	11.810297	-2.38509	3.369079	0.589256	-0.807055	-0.060406	-0.319336	0.304443	-0.675781
972.0	12.31873	-1.205788	3.047554	0.883527	-0.806302	-0.060761	-0.330322	0.300049	-0.680176
973.0	12.352154	-0.640719	1.924823	0.673027	-0.752446	-0.026344	-0.337158	0.300049	-0.670898
974.0	12.23074	-0.796709	0.421364	0.419126	-0.667909	-0.008345	-0.336914	0.293457	-0.675293
975.0	11.918916	-0.644236	-0.593518	0.368585	-0.465933	-0.01283	-0.336914	0.295654	-0.680176
976.0	12.194516	-0.42701	-0.296494	0.277605	-0.163975	-0.015239	-0.341309	0.289063	-0.67749
977.0	13.304267	-0.980201	2.356122	0.069338	0.222613	-0.022728	-0.336914	0.295654	-0.673096
978.0	13.648319	-2.126159	5.905814	-0.325235	0.279875	-0.175117	-0.334717	0.295654	-0.673096
979.0	14.060392	-3.744318	9.775611	-0.254879	-0.114368	-0.459159	-0.341309	0.293457	-0.670654
980.0	14.344613	-3.462904	9.965759	0.176005	-0.745974	-0.783469	-0.348145	0.29126	-0.672852
981.0	14.17381	-2.019301	6.361801	-0.130927	-1.371092	-1.03134	-0.357178	0.291016	-0.670654
982.0	12.165426	-2.380346	3.153288	-0.297967	-0.208544	-1.16857	-0.349854	0.280029	-0.667969
983.0	7.822696	-2.466232	2.768922	0.356017	1.507405	-1.227346	-0.347656	0.282471	-0.674805
984.0	3.769065	-2.237976	4.329997	0.803412	2.102192	-1.183387	-0.335938	0.269287	-0.686035
985.0	2.685771	-2.403377	6.687598	0.923229	1.398888	-1.049171	-0.335693	0.264893	-0.692871
986.0	4.760893	-2.004137	8.305558	0.89984	-0.232165	-0.91573	-0.342041	0.253662	-0.690186
987.0	8.648734	-1.651706	7.898215	0.767258	-1.358279	-0.80497	-0.355469	0.249268	-0.685303
988.0	12.475526	-1.084059	6.689148	1.096805	-1.454076	-0.716711	-0.35498	0.238281	-0.682617
989.0	13.659025	0.804974	5.52914	1.208534	-0.990088	-0.56726	-0.365967	0.233887	-0.682373
990.0	13.604835	2.11795	4.412744	0.19262	-0.470077	-0.267199	-0.365967	0.231445	-0.682373
991.0	13.446471	1.224796	2.322234	-0.817165	-0.215424	0.070047	-0.37085	0.240479	-0.685059
992.0	12.04389	0.313001	0.564482	-0.627666	0.302621	0.232565	-0.364258	0.242676	-0.68042
993.0	10.165548	0.075723	0.812286	-0.09305	1.02613	0.238585	-0.357666	0.249268	-0.6875
994.0	8.800531	-0.299816	2.721723	0.0956	1.412591	0.222251	-0.357422	0.242676	-0.694336
995.0	7.558704	-0.60906	4.439415	0.053919	1.17694	0.234611	-0.348633	0.24707	-0.696777
996.0	6.824982	-0.94295	5.005042	-0.190151	0.459036	0.283999	-0.344238	0.249268	-0.699219
997.0	6.919246	-1.551198	4.39093	-0.557049	-0.193391	0.369747	-0.348877	0.251465	-0.69458
998.0	7.199816	-2.366237	3.161828	-0.783883	-0.419156	0.437018	-0.348877	0.255859	-0.692627
999.0	7.22057	-3.099025	2.256427	-0.719557	-0.261922	0.455159	-0.351807	0.269043	-0.688232
1000.0	7.261421	-3.597366	1.790649	-0.407369	0.058199	0.413347	-0.340332	0.26709	-0.688232
1001.0	7.26343	-3.582105	1.654107	0.046465	0.375302	0.369691	-0.342773	0.271484	-0.697754
1002.0	7.455378	-3.307278	2.160246	0.490074	0.628769	0.332286	-0.338135	0.26709	-0.69751
1003.0	7.45574	-3.041791	2.846062	0.726924	0.77768	0.335736	-0.338135	0.264893	-0.699707
1004.0	7.262041	-2.868136	3.217326	0.834872	0.79255	0.363509	-0.328857	0.258301	-0.711182
1005.0	7.214321	-2.474294	3.290382	0.941607	0.563444	0.401937	-0.319824	0.260498	-0.71582
1006.0	7.222158	-2.011086	3.297658	0.912108	0.188299	0.45913	-0.328613	0.253906	-0.715576
1007.0	7.446362	-1.427063	2.840701	0.783089	-0.234805	0.47999	-0.326172	0.249512	-0.715576
1008.0	7.666762	-1.211107	2.320011	0.549208	-0.568768	0.506149	-0.330566	0.245117	-0.712891
1009.0	7.804134	-1.067943	1.526077	0.483243	-0.73156	0.507211	-0.335205	0.249512	-0.706299
1010.0	8.043499	-0.919693	0.912655	0.589208	-0.72546	0.484491	-0.332764	0.247314	-0.710693
1011.0	8.063773	-0.714174	0.529664	0.767446	-0.471992	0.44299	-0.337158	0.240479	-0.710449
1012.0	8.066334	-0.746111	0.368598	0.863352	-0.090385	0.375564	-0.337158	0.240479	-0.717529
1013.0	8.092986	-0.644368	0.483833	1.053779	0.181128	0.294506	-0.330078	0.231689	-0.719482
1014.0	8.08367	-0.366101	1.130542	1.182901	0.310526	0.232079	-0.336426	0.227295	-0.72168
1015.0	7.982165	0.023527	1.874833	1.107502	0.295023	0.154286	-0.332031	0.225098	-0.723877
1016.0	8.072593	0.082463	2.513222	0.824794	0.149555	0.074204	-0.331543	0.214111	-0.728027
1017.0	8.2674	-0.017342	2.804263	0.606848	-0.072185	0.006647	-0.331543	0.216309	-0.723633
1018.0	8.466521	-0.074125	2.654912	0.395829	-0.329641	-0.025499	-0.33374	0.214111	-0.71875
1019.0	9.004165	-0.223366	2.298606	0.162609	-0.546543	-0.037245	-0.335938	0.214111	-0.728027
1020.0	9.320271	-0.39338	1.765317	-0.075738	-0.552167	-0.021004	-0.338135	0.211914	-0.71875
1021.0	9.715728	-0.750096	1.255161	-0.296443	-0.387872	-0.017776	-0.342773	0.216309	-0.721191
1022.0	10.32313	-1.304809	1.052902	-0.282737	-0.193501	-0.021101	-0.340576	0.214111	-0.721191
1023.0	10.892707	-1.352545	1.463492	-0.089921	-0.063917	-0.012248	-0.347412	0.218506	-0.716553
1024.0	11.294626	-1.047277	2.260949	-0.145996	0.05423	0.002242	-0.343018	0.218506	-0.718994
1025.0	11.180505	-1.192782	2.632276	-0.440191	0.142019	0.027188	-0.341064	0.225098	-0.723877
1026.0	10.622151	-1.725288	2.098706	-0.639902	0.087777	0.05714	-0.343262	0.225098	-0.716797
1027.0	10.534795	-2.264688	1.34337	-0.63857	-0.149818	0.071011	-0.34375	0.236084	-0.715088
1028.0	11.01936	-2.567214	0.780001	-0.573349	-0.343879	0.052084	-0.343506	0.233887	-0.717285
1029.0	12.266523	-3.164716	1.236337	-0.372705	-0.243189	0.01842	-0.34375	0.236084	-0.712646
1030.0	13.814069	-3.542704	2.909199	0.032018	0.165343	0.008066	-0.341309	0.233887	-0.719482
1031.0	15.501918	-2.554816	4.910286	0.353043	0.260205	0.120062	-0.343506	0.229492	-0.724121
1032.0	18.042914	-0.063151	7.733248	0.120944	-0.035129	0.379664	-0.345947	0.233887	-0.726563
1033.0	16.932157	1.522918	7.959746	-0.947482	0.099653	0.631124	-0.344238	0.249268	-0.715576
1034.0	13.122331	-0.271507	5.186533	-1.94728	0.310356	0.754947	-0.337646	0.256104	-0.720459
1035.0	9.169251	-2.740971	2.818079	-1.766202	0.690049	0.702884	-0.324951	0.273682	-0.714111
1036.0	6.051278	-2.572885	2.747653	-0.857763	1.044935	0.543262	-0.320313	0.273682	-0.720947
1037.0	4.361809	-1.210205	4.305038	-0.297706	1.473159	0.38606	-0.318359	0.278076	-0.721191
1038.0	4.709817	-1.229136	7.325249	-0.348001	1.522538	0.417001	-0.307129	0.27832	-0.73291
1039.0	5.057728	-1.739052	8.57083	-0.080193	0.741141	0.503251	-0.302734	0.284912	-0.733154
1040.0	6.712593	-1.140706	9.443984	0.230249	-0.488337	0.668905	-0.30957	0.282715	-0.730713
1041.0	9.281221	-1.146517	9.108686	-0.139266	-1.380108	0.930031	-0.316406	0.289307	-0.726318
1042.0	12.434723	-2.824781	8.373477	-0.58538	-1.829566	1.074053	-0.325684	0.29126	-0.717041
1043.0	14.798043	-4.896224	6.406367	-0.463526	-1.612911	0.979217	-0.333008	0.306641	-0.712891
1044.0	13.56417	-5.705445	3.54109	-0.004293	-0.848089	0.745706	-0.339355	0.300049	-0.712646
1045.0	11.334287	-5.295199	1.580381	0.393859	0.039883	0.42987	-0.332764	0.302246	-0.719727
1046.0	10.237498	-3.855658	1.839242	0.813894	0.689984	0.113232	-0.325684	0.29126	-0.712402
1047.0	9.266932	-1.869714	3.011446	0.860642	1.030272	-0.109231	-0.314453	0.295898	-0.733398
1048.0	8.104052	-0.758578	3.70769	0.680543	1.010251	-0.213327	-0.316406	0.287109	-0.730713
1049.0	7.595506	-0.479619	4.023368	0.548787	0.614312	-0.277661	-0.316406	0.289307	-0.733154
1050.0	7.487451	0.069666	3.884818	0.562926	0.133928	-0.312145	-0.311523	0.27832	-0.73291
1051.0	7.543422	0.747978	3.639897	0.424533	-0.198025	-0.305747	-0.318359	0.278076	-0.730469
1052.0	7.462494	1.029132	2.837706	0.197977	-0.264832	-0.328754	-0.324707	0.269287	-0.739502
1053.0	7.484649	0.864351	2.250703	-0.000629	-0.196009	-0.316947	-0.327393	0.280273	-0.735107
1054.0	7.400957	0.550358	1.887175	-0.065381	-0.047452	-0.308791	-0.327148	0.271484	-0.739502
1055.0	6.935642	0.618205	1.910272	0.037639	0.096309	-0.311872	-0.32959	0.278076	-0.73291
1056.0	6.661926	0.687187	2.680815	-0.013239	0.087721	-0.301798	-0.32251	0.269287	-0.727783
1057.0	6.535615	0.441562	3.19398	-0.154586	-0.103474	-0.296921	-0.331543	0.273682	-0.730225
1058.0	6.563593	0.429151	3.33524	-0.201489	-0.443779	-0.320785	-0.336182	0.273682	-0.728027
1059.0	7.273421	0.600953	3.130593	-0.277773	-0.773469	-0.358278	-0.338623	0.275879	-0.728027
1060.0	7.93698	0.790893	2.759025	-0.384731	-0.897868	-0.408034	-0.336182	0.271484	-0.723389
1061.0	8.358197	0.700847	2.11854	-0.570739	-0.863449	-0.428908	-0.352051	0.278076	-0.721191
1062.0	8.46704	-0.147314	1.554856	-0.845733	-0.680953	-0.408177	-0.352295	0.284668	-0.714355
1063.0	8.454676	-0.505555	0.538456	-0.772297	-0.443513	-0.397284	-0.359131	0.286865	-0.7146
1064.0	8.512314	-0.606222	0.31337	-0.707275	-0.168271	-0.362581	-0.361328	0.284668	-0.714355
1065.0	8.446347	-0.697363	0.372035	-0.68847	0.145615	-0.321821	-0.357178	0.29126	-0.7146
1066.0	8.215921	-0.935543	0.787797	-0.727547	0.411196	-0.264023	-0.359375	0.29126	-0.7146
1067.0	7.718737	-1.520969	1.29191	-0.781828	0.552167	-0.203026	-0.355225	0.297852	-0.710205
1068.0	7.227842	-1.885703	1.798752	-0.768863	0.49049	-0.15095	-0.353027	0.300049	-0.710449
1069.0	7.139594	-2.130402	2.172663	-0.73068	0.206597	-0.079211	-0.353271	0.304443	-0.712891
1070.0	7.484789	-2.270229	1.92233	-0.716044	-0.027504	-0.035438	-0.353271	0.306641	-0.710693
1071.0	8.050963	-2.393658	1.689487	-0.654936	-0.082827	-0.019033	-0.353516	0.31543	-0.706299
1072.0	8.505416	-2.451871	1.584888	-0.56924	0.017374	-0.005899	-0.355957	0.31543	-0.706299
1073.0	8.782149	-2.395658	1.651894	-0.473278	0.178139	-0.016598	-0.358398	0.322021	-0.701904
1074.0	8.734033	-2.150537	1.815154	-0.356478	0.319684	-0.046368	-0.349365	0.319824	-0.704102
1075.0	8.910965	-2.002071	2.182206	-0.268204	0.371583	-0.067266	-0.349365	0.324219	-0.706543
1076.0	9.349192	-2.128826	2.704737	-0.141779	0.278551	-0.090235	-0.347168	0.322021	-0.708984
1077.0	9.965199	-2.346982	2.940869	-0.103046	-0.080059	-0.074872	-0.349609	0.326416	-0.704346
1078.0	11.172489	-2.513067	3.110655	0.113848	-0.451845	-0.076162	-0.346924	0.319824	-0.701904
1079.0	12.27372	-2.271451	3.384889	0.457408	-0.576809	-0.094318	-0.358398	0.319824	-0.706543
1080.0	12.513092	-1.503302	2.912646	0.812035	-0.619257	-0.122312	-0.364746	0.311035	-0.703857
1081.0	12.16331	-0.667956	1.733229	0.79644	-0.677616	-0.109772	-0.369141	0.308838	-0.699219
1082.0	11.74322	-0.366441	0.201781	0.531831	-0.657877	-0.098763	-0.375732	0.304443	-0.696533
1083.0	11.630954	-0.197847	-0.927762	0.384086	-0.468377	-0.08926	-0.375488	0.302246	-0.69873
1084.0	11.875756	-0.046746	-0.93486	0.305318	-0.114548	-0.075935	-0.377686	0.299805	-0.701172
1085.0	12.536213	-0.371289	0.946161	0.155471	0.36167	-0.049291	-0.373291	0.302246	-0.703613
1086.0	12.847299	-1.401118	4.29493	-0.196994	0.53714	-0.103648	-0.368652	0.300049	-0.703369
1087.0	12.840519	-2.824096	7.466252	-0.414896	-0.064773	-0.335001	-0.380127	0.304199	-0.698975
1088.0	13.764041	-3.310033	9.854886	-0.006825	-0.478709	-0.628636	-0.384277	0.29541	-0.700928
1089.0	13.760342	-2.231365	7.281791	-0.099321	-1.191638	-0.882507	-0.384277	0.293213	-0.693848
1090.0	12.731457	-2.454422	4.056608	-0.311918	-0.613859	-1.066781	-0.393066	0.291016	-0.691406
1091.0	9.446956	-2.719166	2.882094	0.200526	0.910612	-1.155055	-0.390625	0.282227	-0.691162
1092.0	5.487848	-1.92853	3.583668	0.813996	1.832858	-1.140283	-0.385742	0.275635	-0.702393
1093.0	3.288387	-1.649484	5.242396	0.845098	1.599984	-1.05062	-0.376465	0.264648	-0.711426
1094.0	4.200258	-2.200277	7.028128	0.667688	0.450844	-0.95362	-0.380371	0.249268	-0.713135
1095.0	7.50375	-2.194803	7.722026	0.621497	-0.827951	-0.875364	-0.391602	0.253662	-0.70874
1096.0	11.464953	-1.704837	7.094551	0.804657	-1.349136	-0.844825	-0.397949	0.242432	-0.698975
1097.0	14.332949	-0.160841	6.134405	1.206179	-1.094364	-0.763792	-0.406494	0.231445	-0.700928
1098.0	14.369804	1.938317	4.74954	0.682267	-0.472632	-0.49835	-0.408447	0.222656	-0.705078
1099.0	13.488668	2.410498	2.918271	-0.508385	0.034982	-0.171579	-0.411133	0.231445	-0.700928
1100.0	12.768973	1.155506	1.333348	-0.885051	0.430247	0.103616	-0.408936	0.233643	-0.703369
1101.0	10.777299	0.336671	0.960773	-0.45012	0.92632	0.168653	-0.402344	0.238037	-0.708008
1102.0	9.043554	0.061822	1.998802	-0.131046	1.332913	0.148178	-0.395508	0.233643	-0.708008
1103.0	7.730817	-0.103912	3.462714	-0.008708	1.23685	0.160903	-0.388916	0.240234	-0.715088
1104.0	6.957541	-0.42379	4.375443	-0.239818	0.712453	0.224341	-0.386475	0.238037	-0.715088
1105.0	6.736758	-1.022519	4.13641	-0.614568	0.079715	0.337905	-0.384521	0.242676	-0.710449
1106.0	6.771787	-1.910056	3.203673	-0.89768	-0.226603	0.437436	-0.384766	0.24707	-0.710693
1107.0	6.874879	-2.835816	2.305666	-0.968619	-0.198013	0.496799	-0.385254	0.260254	-0.708984
1108.0	6.748182	-3.472126	1.828999	-0.776396	0.055779	0.489701	-0.389893	0.262451	-0.708984
1109.0	6.621244	-3.806446	1.819616	-0.418342	0.388063	0.44688	-0.385498	0.266846	-0.709229
1110.0	6.781072	-3.737426	2.168858	0.048666	0.634523	0.397524	-0.378418	0.262451	-0.708984
1111.0	6.967157	-3.574468	2.760857	0.377944	0.764483	0.390578	-0.373779	0.258057	-0.70874
1112.0	6.903192	-3.447909	3.021226	0.530233	0.845672	0.389546	-0.374023	0.260254	-0.720459
1113.0	6.782338	-3.14097	3.131634	0.736544	0.719508	0.405334	-0.369385	0.260254	-0.725098
1114.0	6.889399	-2.481578	3.156928	0.885692	0.353446	0.454796	-0.364502	0.251465	-0.722412
1115.0	6.938197	-1.872229	3.078602	0.817837	-0.041582	0.4945	-0.364502	0.249268	-0.727051
1116.0	7.212975	-1.499869	2.534023	0.614221	-0.44929	0.523665	-0.368896	0.24707	-0.722412
1117.0	7.561397	-1.217595	1.965906	0.583553	-0.851412	0.532001	-0.375488	0.244873	-0.724609
1118.0	8.08544	-0.962094	1.399106	0.57998	-1.039498	0.497584	-0.38208	0.236084	-0.717285
1119.0	8.633003	-0.892378	0.734223	0.681506	-0.934497	0.451616	-0.377441	0.238281	-0.719727
1120.0	8.703176	-0.60144	0.133719	0.889882	-0.525205	0.362233	-0.381592	0.227051	-0.7146
1121.0	8.372349	-0.139138	0.105349	1.11364	0.009623	0.245872	-0.385986	0.224854	-0.719238
1122.0	8.274757	0.135658	0.687496	1.076172	0.393193	0.122549	-0.378906	0.216064	-0.723633
1123.0	8.228475	0.224697	1.475109	1.004725	0.415111	0.031192	-0.380859	0.205078	-0.72998
1124.0	7.965656	0.458181	2.164971	0.906957	0.197814	-0.051422	-0.378174	0.198486	-0.727539
1125.0	8.129245	0.52168	2.566139	0.651801	-0.095685	-0.080327	-0.382813	0.198486	-0.7229
1126.0	8.939349	0.271	2.508963	0.308771	-0.469167	-0.075864	-0.386963	0.194092	-0.720459
1127.0	9.539187	-0.057869	2.309551	0.022187	-0.729007	-0.04543	-0.389404	0.196289	-0.720459
1128.0	10.398418	-0.559933	1.844493	-0.305597	-0.801893	-0.003316	-0.395996	0.191895	-0.720215
1129.0	10.952375	-1.112093	1.386121	-0.477472	-0.574519	0.032521	-0.396484	0.207275	-0.720947
1130.0	11.611711	-1.583295	0.914523	-0.471131	-0.245291	0.055559	-0.400879	0.202881	-0.713623
1131.0	11.976041	-1.662915	1.076571	-0.302429	0.116834	0.047924	-0.40332	0.205078	-0.718506
1132.0	12.051695	-1.517898	1.757625	-0.315852	0.402174	0.033906	-0.394043	0.198486	-0.713623
1133.0	11.325742	-1.489062	2.214029	-0.481928	0.562446	0.047769	-0.398926	0.207275	-0.720947
1134.0	10.53177	-1.692881	2.043101	-0.666202	0.388483	0.042474	-0.394287	0.205078	-0.718506
1135.0	10.381475	-2.26876	1.306769	-0.769159	-0.08854	0.026675	-0.398926	0.21167	-0.720947
1136.0	10.94065	-2.905942	0.634053	-0.625547	-0.441823	-0.018809	-0.40332	0.205078	-0.711426
1137.0	11.767752	-3.360842	0.749014	-0.240427	-0.37281	-0.055371	-0.405762	0.21167	-0.71875
1138.0	12.824751	-3.559349	2.245714	0.195356	0.127409	-0.058593	-0.405518	0.202881	-0.718262
1139.0	14.092216	-2.729537	4.041801	0.641469	0.401572	0.098417	-0.398682	0.202881	-0.725342
1140.0	15.183706	-0.446214	6.561794	0.571786	0.140206	0.390267	-0.403076	0.198486	-0.7229
1141.0	14.80787	1.196007	7.983116	-0.424736	0.231591	0.604126	-0.401123	0.209473	-0.720947
1142.0	13.561688	-0.476491	7.162158	-1.452879	0.118551	0.844458	-0.39917	0.216064	-0.714111
1143.0	10.633398	-2.537485	5.035241	-1.786689	0.305575	0.976063	-0.399658	0.224854	-0.721436
1144.0	6.813661	-2.458588	3.511121	-1.179295	0.890351	0.899034	-0.395508	0.23584	-0.729004
1145.0	4.360383	-1.274396	4.637768	-0.437226	1.697616	0.723766	-0.379639	0.236084	-0.73584
1146.0	4.357819	-1.032673	6.86922	-0.293165	2.043686	0.602759	-0.368652	0.242676	-0.736084
1147.0	4.943031	-1.269784	8.985202	0.009903	0.955108	0.676912	-0.362061	0.24707	-0.740967
1148.0	6.649484	-0.656301	9.969063	0.104714	-0.926472	0.837547	-0.371094	0.24707	-0.731689
1149.0	10.019318	-1.278331	9.384083	-0.419188	-2.141927	1.012354	-0.389648	0.255859	-0.727295
1150.0	14.146362	-3.876099	7.9978	-0.638174	-2.448136	1.07923	-0.400879	0.260254	-0.71582
1151.0	15.97245	-6.075417	5.314944	-0.256784	-1.818517	0.945134	-0.409912	0.26001	-0.711182
1152.0	13.456908	-6.350717	2.676956	0.117714	-0.612635	0.629033	-0.414795	0.264404	-0.711426
1153.0	11.217772	-5.850245	1.015916	0.358675	0.518048	0.234456	-0.409912	0.26001	-0.718262
1154.0	10.102954	-4.247046	1.297158	0.917328	1.097999	-0.061119	-0.395996	0.249268	-0.724854
1155.0	9.12193	-1.968391	2.722068	1.114343	1.302251	-0.278761	-0.391357	0.24707	-0.727051
1156.0	7.962181	-0.63498	3.433368	0.894019	1.08581	-0.370336	-0.388672	0.236084	-0.738281
1157.0	7.232386	0.034294	3.659387	0.851341	0.561425	-0.396143	-0.379639	0.233887	-0.742676
1158.0	7.4073	0.71135	3.884995	0.821473	0.017214	-0.392198	-0.390381	0.222656	-0.733154
1159.0	7.739605	1.492638	3.694809	0.621124	-0.299951	-0.373922	-0.39502	0.224854	-0.737793
1160.0	7.701707	1.666298	3.101722	0.220285	-0.426095	-0.319974	-0.403809	0.216064	-0.742188
1161.0	7.549254	1.335091	2.260283	-0.071255	-0.400711	-0.312254	-0.399414	0.222656	-0.735352
1162.0	7.345811	1.014348	1.634726	-0.093495	-0.207911	-0.274686	-0.405762	0.21167	-0.737305
1163.0	6.959155	0.940257	1.725993	-0.060603	0.090607	-0.272309	-0.401367	0.216064	-0.737549
1164.0	6.696489	0.748266	2.495099	-0.155829	0.195828	-0.276796	-0.401367	0.213867	-0.737305
1165.0	6.494135	0.478299	2.907769	-0.270473	-0.039574	-0.283099	-0.406006	0.216064	-0.737549
1166.0	6.541958	0.480119	3.179234	-0.295907	-0.471209	-0.332359	-0.412842	0.216064	-0.732666
1167.0	7.274887	0.657378	2.9763	-0.396728	-0.850733	-0.381277	-0.421631	0.213867	-0.730469
1168.0	7.907845	0.424584	2.422371	-0.602412	-0.915652	-0.402541	-0.42627	0.216064	-0.730469
1169.0	8.16999	0.023386	1.656182	-0.741582	-0.755153	-0.408901	-0.426514	0.222656	-0.726074
1170.0	8.332335	-0.200441	1.108495	-0.72917	-0.608109	-0.38348	-0.433105	0.21582	-0.721191
1171.0	8.282372	-0.384202	0.430408	-0.805373	-0.391474	-0.352131	-0.437744	0.220215	-0.716553
1172.0	8.280655	-0.450808	0.081184	-0.833525	-0.139077	-0.297987	-0.435303	0.218018	-0.718994
1173.0	8.252522	-0.408412	-0.057089	-0.778554	0.158758	-0.234973	-0.43335	0.224609	-0.716797
1174.0	8.054398	-0.715252	0.233529	-0.847171	0.488485	-0.163383	-0.433838	0.23584	-0.731201
1175.0	7.80833	-1.156886	0.744962	-0.906225	0.657544	-0.100988	-0.431641	0.240234	-0.729004
1176.0	7.461466	-1.68962	1.279591	-0.937077	0.68613	-0.043665	-0.425049	0.240234	-0.724365
1177.0	7.338311	-1.99227	1.722247	-0.860461	0.541575	-0.000101	-0.42749	0.249023	-0.724609
1178.0	7.447507	-2.282445	2.215696	-0.863069	0.329988	0.015432	-0.42749	0.246826	-0.727051
1179.0	7.833366	-2.539428	2.319626	-0.857172	0.127944	0.014539	-0.427734	0.251221	-0.724854
1180.0	8.339912	-2.763347	2.195971	-0.817256	-0.072617	0.003534	-0.429932	0.249023	-0.724609
1181.0	8.793822	-2.903115	1.684521	-0.713657	-0.03538	-0.033092	-0.425537	0.255615	-0.718018
1182.0	9.496239	-2.976019	1.97625	-0.422271	0.247742	-0.113807	-0.427979	0.26001	-0.725098
1183.0	9.745115	-2.970561	2.679312	-0.303621	0.359973	-0.143668	-0.43042	0.262207	-0.727539
1184.0	10.046846	-3.542313	2.957354	-0.24206	0.169092	-0.135218	-0.427979	0.255615	-0.724854
1185.0	10.930681	-3.696385	3.542239	0.172804	-0.204706	-0.149214	-0.429932	0.253418	-0.729492
1186.0	12.001856	-2.876292	3.592449	0.693347	-0.555719	-0.169865	-0.436523	0.246826	-0.729248
1187.0	11.99584	-1.442892	2.694147	1.059468	-0.689204	-0.143693	-0.440918	0.242432	-0.719727
1188.0	11.803176	-0.690618	1.269095	0.894682	-0.766609	-0.07083	-0.443115	0.240234	-0.729004
1189.0	11.668669	-0.712777	-0.22836	0.679976	-0.696708	-0.024954	-0.449463	0.231201	-0.726318
1190.0	11.82828	-0.633906	-0.680206	0.675064	-0.501072	-0.003859	-0.449219	0.229004	-0.719238
1191.0	12.743903	-0.645348	0.581084	0.627969	-0.179644	0.006846	-0.451416	0.226807	-0.723877
1192.0	14.137715	-1.445687	3.561783	0.215149	0.134774	-0.025022	-0.455566	0.218018	-0.723633
1193.0	15.174821	-3.255379	6.534029	-0.354481	-0.105597	-0.234923	-0.458496	0.231201	-0.724121
1194.0	15.317127	-4.503384	9.633663	0.215593	0.005166	-0.560127	-0.458008	0.218018	-0.730469
1195.0	14.003006	-2.533806	8.339247	0.518641	-0.699851	-0.878811	-0.468994	0.213623	-0.725586
1196.0	12.863165	-0.765766	5.265854	0.114694	-0.685787	-1.069903	-0.46875	0.204834	-0.725342
1197.0	9.885211	-1.077113	3.194232	-0.012673	0.605651	-1.062286	-0.464111	0.202637	-0.725342
1198.0	6.21634	-1.286984	2.807307	0.484348	1.758165	-1.057229	-0.463623	0.193848	-0.734131
1199.0	3.622052	-1.043925	3.912363	0.850545	1.869163	-0.928656	-0.452148	0.187256	-0.745605
1200.0	3.606565	-1.380285	5.781577	0.800636	1.157426	-0.780321	-0.447021	0.171875	-0.751953
1201.0	5.671408	-1.264712	7.256366	0.836453	-0.067502	-0.662229	-0.453613	0.169434	-0.747314
1202.0	9.363132	-1.158689	8.010345	0.697534	-1.312948	-0.612872	-0.460205	0.160645	-0.749268
1203.0	12.976755	-0.634483	7.350543	0.861735	-1.656236	-0.646521	-0.466553	0.154053	-0.737305
1204.0	14.265958	0.997756	5.914012	0.971369	-0.973151	-0.584036	-0.477783	0.149658	-0.737305
1205.0	13.472457	2.099036	4.094512	3.6e-05	-0.199934	-0.339556	-0.477539	0.147461	-0.734863
1206.0	12.644845	1.202579	2.135165	-0.967476	0.296318	-0.042942	-0.473389	0.151855	-0.739746
1207.0	11.627145	-0.284355	0.890101	-0.793124	0.680666	0.108389	-0.468994	0.158447	-0.742188
1208.0	9.776979	-0.399055	1.350434	-0.033519	1.223689	0.08593	-0.459717	0.151855	-0.753662
1209.0	8.355634	0.044172	2.944936	0.286972	1.479131	0.063074	-0.453369	0.162842	-0.756348
1210.0	7.074662	0.060811	4.334286	0.140715	1.169846	0.111804	-0.450928	0.158691	-0.763184
1211.0	6.377042	-0.497266	4.760746	-0.282328	0.431822	0.230236	-0.448975	0.163086	-0.763184
1212.0	6.560199	-1.413318	4.043941	-0.728043	-0.249541	0.401141	-0.45166	0.171875	-0.759033
1213.0	7.03485	-2.344508	2.939048	-0.956344	-0.506226	0.532521	-0.449463	0.17627	-0.759033
1214.0	7.241344	-2.949604	2.107066	-0.872376	-0.357073	0.56954	-0.456543	0.180664	-0.75708
1215.0	7.256611	-3.335097	1.84197	-0.670716	0.030765	0.546064	-0.447754	0.19165	-0.752686
1216.0	7.212662	-3.590075	1.812338	-0.372899	0.426135	0.516594	-0.450195	0.193848	-0.757568
1217.0	7.055353	-3.581488	2.022808	0.055463	0.718739	0.476446	-0.450439	0.198242	-0.757568
1218.0	7.082661	-3.50421	2.376594	0.388532	0.862713	0.455298	-0.445801	0.193848	-0.764404
1219.0	6.914161	-3.411261	2.674719	0.654766	0.917707	0.464551	-0.438965	0.193848	-0.769043
1220.0	6.989632	-3.0958	2.937596	0.907947	0.761762	0.470346	-0.429688	0.189453	-0.775879
1221.0	7.122803	-2.610988	3.151399	0.984529	0.423814	0.468086	-0.429688	0.185059	-0.780273
1222.0	7.233782	-2.270259	3.198037	0.869072	-0.041266	0.481546	-0.431641	0.180664	-0.780273
1223.0	7.386444	-1.983292	2.848315	0.673958	-0.576395	0.473784	-0.436035	0.180664	-0.770996
1224.0	7.746463	-1.671452	2.260327	0.570472	-1.115795	0.445743	-0.438232	0.17627	-0.770752
1225.0	8.055834	-1.37682	1.413942	0.542194	-1.418259	0.406832	-0.45166	0.17627	-0.775391
1226.0	8.411855	-1.245936	0.399475	0.616833	-1.309335	0.360465	-0.460693	0.17627	-0.759033
1227.0	8.900424	-1.123954	-0.616855	0.795137	-0.870403	0.284681	-0.462891	0.171875	-0.765869
1228.0	8.930619	-0.862621	-1.131089	1.044063	-0.125693	0.192231	-0.458008	0.165039	-0.758789
1229.0	8.78341	-0.470902	-0.892451	1.248456	0.652636	0.126484	-0.460205	0.165283	-0.772705
1230.0	8.335856	-0.036475	0.117659	1.38552	1.214968	0.054773	-0.452881	0.149658	-0.774414
1231.0	7.851884	0.479658	1.637306	1.380632	1.388957	-0.005892	-0.447998	0.141113	-0.785645
1232.0	7.573274	1.019727	3.088324	1.172058	1.09472	-0.053772	-0.443115	0.129883	-0.790039
1233.0	7.391828	1.335984	3.788235	0.786948	0.370571	-0.056474	-0.440918	0.129883	-0.787598
1234.0	7.963729	1.211747	3.767614	0.322794	-0.451341	-0.058982	-0.445313	0.127686	-0.794434
1235.0	9.19045	0.934214	3.284135	-0.124524	-0.909633	-0.036618	-0.447754	0.13208	-0.782959
1236.0	10.603701	0.419023	2.470103	-0.468446	-0.966841	-0.002268	-0.45459	0.134277	-0.778564
1237.0	11.781371	-0.264339	1.888429	-0.595452	-0.757749	0.032725	-0.459473	0.145264	-0.778809
1238.0	12.249057	-0.622459	1.538678	-0.637483	-0.393395	0.056742	-0.466309	0.143066	-0.781006
1239.0	11.668707	-0.859796	1.09547	-0.690926	0.074338	0.051803	-0.461914	0.149658	-0.781494
1240.0	11.183354	-1.282497	0.902107	-0.686086	0.348682	0.028041	-0.462158	0.151855	-0.776855
1241.0	10.664953	-1.945006	0.99111	-0.691881	0.245508	0.013577	-0.4646	0.158447	-0.781738
1242.0	10.799263	-2.550808	1.168572	-0.614579	-0.043613	-0.030058	-0.462402	0.163086	-0.779541
1243.0	11.877225	-3.175109	1.9548	-0.378357	-0.243616	-0.057265	-0.469238	0.165039	-0.774902
1244.0	13.640274	-3.926835	3.628064	-0.140929	-0.103193	-0.065784	-0.4646	0.160645	-0.781738
1245.0	15.304047	-3.83572	5.211329	0.110949	0.081242	0.021734	-0.467285	0.16748	-0.784424
1246.0	16.698446	-2.497131	6.845481	0.102696	-0.222108	0.306654	-0.47168	0.167236	-0.779785
1247.0	16.256445	-0.802789	7.637128	-0.560574	-0.030186	0.54128	-0.472168	0.178467	-0.782471
1248.0	15.005208	-1.437437	6.335356	-1.316014	0.104403	0.743051	-0.468018	0.189453	-0.780518
1249.0	11.675462	-3.061987	3.977245	-1.535939	0.502682	0.848875	-0.464355	0.211426	-0.783691
1250.0	7.532809	-2.595705	2.692179	-0.849782	1.281982	0.766626	-0.450928	0.209229	-0.783691
1251.0	4.311573	-1.036117	4.197717	-0.137501	1.962876	0.621423	-0.437744	0.218262	-0.795654
1252.0	3.497128	-0.861176	6.515514	-0.086299	2.253427	0.515367	-0.42627	0.216064	-0.807129
1253.0	3.911825	-1.18344	9.026658	0.312338	1.280914	0.585378	-0.422119	0.220459	-0.80957
1254.0	6.01121	0.043506	10.721902	0.610675	-0.489797	0.789829	-0.428955	0.222656	-0.804932
1255.0	9.324882	0.713649	10.223554	0.010156	-1.899132	1.033794	-0.436035	0.233643	-0.796143
1256.0	12.614235	-1.351402	9.035034	-0.816271	-2.504461	1.135198	-0.452148	0.240234	-0.784668
1257.0	15.26355	-4.280068	6.243138	-0.927668	-2.100966	0.957621	-0.461426	0.251221	-0.778076
1258.0	14.169364	-5.771687	2.996753	-0.445008	-0.808184	0.651568	-0.463867	0.255615	-0.776123
1259.0	11.891719	-5.942422	0.717013	-0.011489	0.360046	0.294799	-0.459473	0.257813	-0.77832
1260.0	10.158436	-5.168728	0.905887	0.589002	1.111144	-0.035394	-0.454834	0.253418	-0.785156
1261.0	8.551514	-3.053178	2.490833	1.019417	1.401639	-0.269929	-0.441162	0.246826	-0.796631
1262.0	7.279609	-1.185498	3.810257	0.987947	1.177928	-0.376645	-0.436035	0.23584	-0.800781
1263.0	6.982011	-0.237816	4.481662	0.794384	0.520949	-0.370762	-0.436279	0.238037	-0.807861
1264.0	7.208145	0.417266	4.606331	0.675703	-0.123528	-0.34851	-0.44043	0.229248	-0.800537
1265.0	7.389919	1.037066	4.030186	0.475963	-0.457283	-0.326282	-0.440186	0.227051	-0.798096
1266.0	7.309604	1.209184	3.166699	0.218423	-0.543304	-0.312737	-0.453857	0.227051	-0.793457
1267.0	7.200851	0.944984	2.398725	-0.019345	-0.477512	-0.3276	-0.453857	0.227051	-0.788818
1268.0	6.877025	0.624612	1.693445	-0.183505	-0.31323	-0.348192	-0.460205	0.218018	-0.788574
1269.0	6.590318	0.314731	1.47348	-0.187517	-0.059297	-0.345113	-0.456055	0.224854	-0.809814
1270.0	6.303211	0.318647	1.738733	-0.087033	0.17949	-0.352625	-0.453613	0.222656	-0.791016
1271.0	6.111154	0.20558	2.529376	-0.112209	0.193104	-0.352653	-0.456055	0.227051	-0.795898
1272.0	6.034689	0.009654	3.197264	-0.203795	-0.058085	-0.350351	-0.465088	0.227051	-0.788818
1273.0	6.314547	-0.241934	3.3773	-0.293885	-0.493566	-0.356685	-0.462646	0.222412	-0.788818
1274.0	7.03898	-0.118098	3.066156	-0.304487	-0.86017	-0.361606	-0.467529	0.229004	-0.781982
1275.0	7.681111	0.110851	2.462262	-0.382533	-0.956985	-0.35238	-0.480713	0.222412	-0.78418
1276.0	8.212472	-0.307399	2.071877	-0.6559	-0.905867	-0.29424	-0.478516	0.226807	-0.770264
1277.0	8.109348	-0.380098	0.899597	-0.677929	-0.788647	-0.246114	-0.483398	0.235596	-0.770508
1278.0	7.939419	-0.180792	0.302442	-0.580864	-0.664131	-0.193068	-0.490479	0.242188	-0.763916
1279.0	8.089331	-0.014092	-0.122857	-0.656065	-0.421827	-0.134436	-0.499756	0.246582	-0.75708
1280.0	8.306038	-0.26835	-0.147949	-0.729875	-0.071936	-0.05488	-0.490723	0.248779	-0.761719
1281.0	8.180415	-0.839915	0.05848	-0.805824	0.33213	0.022466	-0.489014	0.259766	-0.764648
1282.0	7.806241	-1.481432	0.69238	-0.76205	0.667541	0.083788	-0.489014	0.26416	-0.764648
1283.0	7.21193	-1.977747	1.502479	-0.655134	0.721545	0.122371	-0.48291	0.275391	-0.767334
1284.0	7.03421	-2.359954	2.335653	-0.56899	0.468364	0.124772	-0.484863	0.270996	-0.764893
1285.0	7.16882	-2.523888	2.70639	-0.622863	0.071123	0.107544	-0.480713	0.277588	-0.769775
1286.0	7.729733	-2.872035	2.277804	-0.690828	-0.270355	0.07781	-0.487549	0.281982	-0.762939
1287.0	8.343514	-3.120692	1.534252	-0.590016	-0.388197	0.027335	-0.488037	0.290771	-0.763428
1288.0	9.324233	-3.006073	1.806829	-0.244553	-0.274104	-0.062403	-0.490234	0.290771	-0.758789
1289.0	10.373324	-2.654225	2.716226	-0.003765	-0.2029	-0.11169	-0.488037	0.295166	-0.758789
1290.0	11.269262	-2.630037	3.025866	-0.018811	-0.38856	-0.134433	-0.494873	0.292969	-0.763428
1291.0	12.460377	-2.677826	3.189054	0.178243	-0.574828	-0.159395	-0.494873	0.292969	-0.74707
1292.0	13.222509	-2.205168	2.870563	0.514816	-0.635262	-0.199674	-0.505615	0.281738	-0.746826
1293.0	13.173611	-1.23505	2.040495	0.866807	-0.650647	-0.182662	-0.507813	0.281738	-0.753662
1294.0	12.532164	-0.482483	0.956988	0.845047	-0.629783	-0.11904	-0.514404	0.275146	-0.748779
1295.0	11.991962	-0.349627	-0.13858	0.596142	-0.5955	-0.04832	-0.514404	0.277344	-0.739746
1296.0	11.671264	-0.636411	-0.886446	0.394836	-0.467133	-0.002083	-0.516602	0.272949	-0.741699
1297.0	12.053249	-0.98501	-0.334277	0.303859	-0.137639	0.019651	-0.519043	0.277344	-0.746582
1298.0	13.786187	-1.817525	2.783443	0.101814	0.390739	-0.001686	-0.518799	0.272949	-0.748779
1299.0	14.770574	-3.352411	6.009914	-0.465642	0.427585	-0.237376	-0.51001	0.281738	-0.739746
1300.0	15.099165	-5.602475	10.029907	-0.043183	0.540529	-0.607272	-0.511719	0.268555	-0.750977
1301.0	13.383686	-4.093833	9.869431	0.808993	-0.304123	-0.981595	-0.513916	0.266357	-0.739258
1302.0	12.328559	-1.08738	6.773212	0.350425	-0.985485	-1.226255	-0.522705	0.261963	-0.739014
1303.0	10.327388	-1.519555	3.982109	-0.20439	0.129914	-1.277221	-0.529297	0.257324	-0.74585
1304.0	6.826282	-2.555465	2.927472	0.115183	1.699982	-1.239415	-0.515381	0.244385	-0.752441
1305.0	3.652031	-2.578124	3.319085	0.676833	2.071346	-1.152804	-0.508545	0.23999	-0.773193
1306.0	3.268668	-2.144293	5.219585	1.155164	1.360357	-0.99927	-0.500977	0.224609	-0.770264
1307.0	5.924357	-0.934673	7.497625	1.395531	0.040911	-0.862309	-0.507568	0.217773	-0.772217
1308.0	9.619602	-0.388674	8.52861	1.083045	-1.387844	-0.727838	-0.511475	0.202393	-0.757813
1309.0	12.88069	0.028422	7.439375	1.111158	-1.727554	-0.648582	-0.522461	0.200195	-0.750732
1310.0	14.000207	1.71235	5.70933	1.216856	-1.225829	-0.467443	-0.540283	0.193359	-0.743408
1311.0	13.484333	3.361257	4.062546	0.284464	-0.775168	-0.144299	-0.540283	0.193359	-0.748047
1312.0	13.254898	2.726811	2.337797	-1.138593	-0.602346	0.181183	-0.542969	0.204346	-0.739258
1313.0	12.484215	0.530084	0.44255	-1.485961	-0.212523	0.321334	-0.548096	0.215332	-0.730469
1314.0	10.442835	-0.871617	-0.355247	-0.790627	0.614599	0.283788	-0.541504	0.219971	-0.746826
1315.0	9.045782	-1.324506	0.886436	-0.128762	1.350216	0.191995	-0.532715	0.226563	-0.751709
1316.0	7.978959	-1.256775	2.804601	0.187761	1.586465	0.158058	-0.523193	0.217773	-0.756104
1317.0	6.863762	-1.091685	4.544469	0.016593	1.292821	0.196434	-0.514648	0.22876	-0.758789
1318.0	6.158752	-1.618924	4.818241	-0.561023	0.597067	0.325847	-0.514648	0.22876	-0.758789
1319.0	6.102273	-2.777758	3.982569	-0.960895	-0.204329	0.46511	-0.513184	0.244385	-0.75
1320.0	6.184197	-3.43299	2.599634	-0.950088	-0.622362	0.499272	-0.515625	0.250977	-0.752686
1321.0	6.425698	-3.735894	1.737445	-0.63547	-0.626313	0.46688	-0.520508	0.261963	-0.743652
1322.0	6.918696	-3.506687	1.417865	-0.231819	-0.282117	0.393757	-0.522705	0.261963	-0.741455
1323.0	7.345807	-3.34829	1.554245	0.075602	0.23685	0.362719	-0.516357	0.268555	-0.743896
1324.0	7.517421	-3.21392	1.738432	0.372704	0.708908	0.370602	-0.518066	0.257568	-0.743652
1325.0	7.419233	-3.08589	1.881586	0.67908	1.007889	0.379981	-0.509277	0.259766	-0.757568
