Acquisition frequency: 100 Hz
PacketCounter	Acc_X	Acc_Y	Acc_Z	Gyr_X	Gyr_Y	Gyr_Z	Mag_X	Mag_Y	Mag_Z
0.0	6.834524	-2.544919	6.642486	-0.011653	-0.000313	-0.003449	-0.702881	0.071289	-0.303223
1.0	6.84841	-2.606564	6.613189	-0.011205	0.001096	-0.00307	-0.709473	0.073242	-0.294678
2.0	6.833931	-2.598571	6.670451	-0.010629	0.002878	-0.004244	-0.713623	0.073242	-0.29248
3.0	6.857809	-2.601356	6.645528	-0.012587	0.001922	-0.004509	-0.704834	0.069092	-0.296875
4.0	6.831939	-2.583731	6.594544	-0.016054	0.001418	-0.004661	-0.707275	0.073242	-0.30127
5.0	6.841473	-2.578446	6.626781	-0.018139	8.7e-05	-0.003374	-0.711426	0.071045	-0.294678
6.0	6.854121	-2.614773	6.665966	-0.014224	0.002	-0.002842	-0.702637	0.069092	-0.296875
7.0	6.824342	-2.608188	6.636576	-0.011691	0.004739	-0.00375	-0.704834	0.069092	-0.301025
8.0	6.841128	-2.580457	6.626354	-0.011692	0.004739	-0.00375	-0.709229	0.069092	-0.301025
9.0	6.870566	-2.588148	6.655663	-0.010183	0.004287	-0.003863	-0.702881	0.073242	-0.296875
10.0	6.857119	-2.605859	6.644475	-0.011819	0.004365	-0.002197	-0.707275	0.075439	-0.296875
11.0	6.836625	-2.593085	6.64794	-0.010796	0.007556	-0.00299	-0.704834	0.069092	-0.296875
12.0	6.860131	-2.595648	6.623487	-0.007074	0.008811	-0.005942	-0.707275	0.073242	-0.30127
13.0	6.842778	-2.62398	6.634045	-0.003377	0.004922	-0.002005	-0.709229	0.071045	-0.294678
14.0	6.839251	-2.582508	6.627492	-0.007202	0.008436	-0.00439	-0.709229	0.066895	-0.299072
15.0	6.855272	-2.607053	6.645913	-0.006141	0.006576	-0.004882	-0.702881	0.073242	-0.296875
16.0	6.834741	-2.593782	6.649605	-0.005693	0.007984	-0.004503	-0.707031	0.069092	-0.301025
17.0	6.838059	-2.582939	6.628555	-0.00884	0.008512	-0.002724	-0.709229	0.069092	-0.303223
18.0	6.840821	-2.624778	6.635748	-0.007523	0.007403	-0.00632	-0.713623	0.069092	-0.301025
19.0	6.840447	-2.625067	6.636019	-0.010798	0.007555	-0.00299	-0.702637	0.068848	-0.294678
20.0	6.857001	-2.597079	6.626166	-0.009839	0.010465	-0.008817	-0.702881	0.071045	-0.294678
21.0	6.812412	-2.581665	6.654688	-0.007332	0.00806	-0.002836	-0.704834	0.071045	-0.299072
22.0	6.818949	-2.612476	6.640432	-0.009161	0.007479	-0.004654	-0.709473	0.073242	-0.290283
23.0	6.848761	-2.567361	6.641754	-0.012053	0.008757	-0.005979	-0.707275	0.073242	-0.294678
24.0	6.864729	-2.592178	6.660116	-0.012053	0.008757	-0.005979	-0.709229	0.066895	-0.296875
25.0	6.801421	-2.589126	6.623099	-0.011438	0.005489	-0.006853	-0.711426	0.071289	-0.30542
26.0	6.821348	-2.602858	6.619856	-0.011248	0.006146	-0.003368	-0.709229	0.066895	-0.301025
27.0	6.843609	-2.579993	6.663985	-0.013308	0.009961	-0.008967	-0.709473	0.073486	-0.30542
28.0	6.807618	-2.620715	6.608883	-0.012781	0.001265	-0.007994	-0.707031	0.071289	-0.301025
29.0	6.830255	-2.597534	6.652749	-0.009545	0.006167	-0.011619	-0.707031	0.066895	-0.299072
30.0	6.827024	-2.555715	6.646053	-0.007101	0.00348	-0.010675	-0.707031	0.069092	-0.301025
31.0	6.834082	-2.586233	6.631371	-0.014163	0.002091	-0.009432	-0.711426	0.071289	-0.30542
32.0	6.810295	-2.584385	6.655799	-0.01795	0.000552	-0.011518	-0.707031	0.066895	-0.296875
33.0	6.837781	-2.628494	6.63741	-0.013548	-0.001176	-0.010306	-0.704834	0.069092	-0.30542
34.0	6.848117	-2.570001	6.641396	-0.018398	-0.000856	-0.011898	-0.708984	0.064697	-0.298828
35.0	6.835332	-2.587646	6.629531	-0.018973	-0.002641	-0.010727	-0.711426	0.069092	-0.301025
36.0	6.855954	-2.601586	6.625482	-0.020612	-0.002568	-0.009061	-0.709473	0.073242	-0.299072
37.0	6.869577	-2.585266	6.635968	-0.022698	-0.003902	-0.007777	-0.707031	0.069092	-0.296875
38.0	6.823348	-2.607059	6.61614	-0.019465	0.001004	-0.011398	-0.709229	0.071045	-0.296875
39.0	6.850033	-2.573395	6.638105	-0.020742	-0.002945	-0.007508	-0.711426	0.066895	-0.301025
40.0	6.881359	-2.606805	6.598026	-0.020168	-0.001159	-0.008676	-0.704834	0.068848	-0.29248
41.0	6.870842	-2.588178	6.633523	-0.018212	-0.000201	-0.008408	-0.704834	0.069092	-0.296875
42.0	6.837654	-2.592635	6.625186	-0.016255	0.000757	-0.008139	-0.711182	0.0625	-0.296875
43.0	6.878213	-2.61995	6.617976	-0.021362	0.000321	-0.006627	-0.704834	0.071045	-0.294678
44.0	6.861884	-2.59623	6.599577	-0.01581	0.002166	-0.007756	-0.709229	0.068848	-0.296875
45.0	6.871372	-2.590754	6.631968	-0.013043	0.000509	-0.004883	-0.713623	0.071045	-0.299072
46.0	6.861831	-2.597321	6.599203	-0.01277	0.006592	-0.003238	-0.704834	0.066895	-0.298828
47.0	6.870924	-2.592011	6.631941	-0.014727	0.005633	-0.003506	-0.71167	0.073242	-0.299072
48.0	6.844268	-2.626744	6.609491	-0.007536	0.007408	-0.006299	-0.707031	0.069092	-0.301025
49.0	6.857085	-2.609814	6.621074	-0.009302	0.0071	-0.003083	-0.707031	0.071045	-0.296875
50.0	6.866104	-2.604183	6.654012	-0.009175	0.007479	-0.004634	-0.707031	0.071045	-0.288086
51.0	6.86012	-2.599371	6.600174	-0.012643	0.00697	-0.004787	-0.707275	0.073242	-0.299072
52.0	6.869101	-2.593791	6.633134	-0.010113	0.009716	-0.005686	-0.711426	0.068848	-0.29248
53.0	6.825956	-2.603941	6.592791	-0.008238	0.005242	-0.00358	-0.704834	0.069092	-0.296875
54.0	6.868389	-2.594207	6.633708	-0.006963	0.009196	-0.007464	-0.711426	0.066895	-0.301025
55.0	6.854802	-2.611376	6.622821	-0.007091	0.008817	-0.005914	-0.711182	0.064697	-0.303223
56.0	6.847373	-2.581011	6.637893	-0.007537	0.007409	-0.006297	-0.707031	0.068848	-0.294678
57.0	6.874312	-2.624777	6.620116	-0.007537	0.007409	-0.006297	-0.709473	0.073242	-0.294678
58.0	6.846618	-2.581089	6.638641	-0.006518	0.010604	-0.007079	-0.709229	0.066895	-0.301025
59.0	6.843853	-2.61737	6.591747	-0.005452	0.008747	-0.007577	-0.707031	0.071289	-0.303223
60.0	6.83274	-2.597998	6.628155	-0.00496	0.005102	-0.006909	-0.709473	0.073242	-0.299072
61.0	6.872791	-2.624705	6.621724	-0.008543	0.009535	-0.000764	-0.709229	0.068848	-0.294678
62.0	6.855935	-2.600303	6.604154	-0.004259	0.00727	-0.009625	-0.702637	0.066895	-0.296875
63.0	6.831557	-2.598039	6.629358	-0.00652	0.010604	-0.007078	-0.702881	0.071289	-0.301025
64.0	6.868258	-2.582815	6.616477	-0.005453	0.008747	-0.007576	-0.702881	0.071045	-0.294678
65.0	6.837804	-2.628199	6.615601	-0.005454	0.008747	-0.007576	-0.709229	0.071045	-0.29248
66.0	6.870888	-2.623847	6.624039	-0.003874	0.008409	-0.014273	-0.704834	0.071045	-0.299072
67.0	6.809883	-2.583658	6.634663	-0.003626	0.009326	-0.005755	-0.704834	0.071045	-0.299072
68.0	6.863155	-2.59272	6.639704	-0.007471	0.007519	-0.012879	-0.711182	0.06665	-0.29248
69.0	6.849861	-2.609621	6.628623	-0.004961	0.005102	-0.006908	-0.705078	0.073242	-0.299072
70.0	6.842577	-2.579116	6.643573	-0.007856	0.006379	-0.008229	-0.713623	0.071045	-0.296875
71.0	6.86251	-2.592259	6.64055	-0.005456	0.008747	-0.007574	-0.709229	0.071045	-0.299072
72.0	6.852785	-2.598104	6.608289	-0.005584	0.008367	-0.006024	-0.707031	0.068848	-0.294678
73.0	6.872599	-2.61141	6.605331	-0.007225	0.008435	-0.00436	-0.709229	0.068848	-0.296875
74.0	6.861304	-2.592189	6.641823	-0.002561	0.00747	-0.006252	-0.709229	0.066895	-0.301025
75.0	6.862521	-2.616872	6.573596	-0.003115	0.010847	-0.011951	-0.704834	0.066895	-0.294678
76.0	6.860601	-2.591255	6.642915	-0.005644	0.008099	-0.011057	-0.707031	0.066895	-0.299072
77.0	6.847253	-2.608049	6.631935	-0.002877	0.006442	-0.008185	-0.702637	0.069092	-0.301025
78.0	6.84369	-2.5661	6.625686	-0.004389	0.00689	-0.008071	-0.709229	0.071045	-0.296875
79.0	6.846808	-2.607303	6.632688	-0.00262	0.007203	-0.011283	-0.707031	0.069092	-0.296875
80.0	6.833546	-2.623991	6.621667	-0.004705	0.005862	-0.010005	-0.704834	0.071045	-0.290283
81.0	6.863433	-2.577977	6.623367	-0.004577	0.006243	-0.011554	-0.711426	0.071045	-0.299072
82.0	6.833326	-2.623018	6.62228	-0.004448	0.006623	-0.013103	-0.709229	0.068848	-0.29248
83.0	6.874182	-2.595985	6.587949	-0.003065	0.005795	-0.011667	-0.707031	0.066895	-0.30542
84.0	6.850018	-2.593293	6.613045	-0.002365	0.007965	-0.01438	-0.704834	0.066895	-0.296875
85.0	6.863119	-2.575293	6.624737	-0.002311	0.002912	-0.0141	-0.709229	0.071289	-0.301025
86.0	6.850123	-2.591708	6.613557	-0.004765	0.005595	-0.015036	-0.704834	0.071045	-0.299072
87.0	6.846658	-2.549477	6.607286	-0.002752	0.006823	-0.009732	-0.713623	0.071045	-0.29248
88.0	6.892473	-2.580648	6.655045	-0.002623	0.007203	-0.01128	-0.707031	0.066895	-0.301025
89.0	6.866496	-2.561703	6.604749	-0.005777	0.007717	-0.009504	-0.709473	0.073242	-0.30127
90.0	6.829194	-2.576667	6.618321	-0.006663	0.0049	-0.010275	-0.709229	0.071045	-0.299072
91.0	6.862242	-2.57236	6.626785	-0.001553	0.010668	-0.007025	-0.706787	0.064697	-0.301025
92.0	6.88587	-2.574148	6.602616	-0.008932	0.00823	-0.007728	-0.709473	0.073242	-0.294678
93.0	6.84842	-2.589342	6.616248	-0.005907	0.007336	-0.007954	-0.709229	0.071045	-0.296875
94.0	6.857414	-2.583479	6.649231	-0.009632	0.006059	-0.005015	-0.702881	0.071289	-0.303223
95.0	6.847874	-2.589705	6.616671	-0.009632	0.006059	-0.005015	-0.711426	0.071045	-0.296875
96.0	6.84761	-2.589942	6.616851	-0.009504	0.00644	-0.006564	-0.711426	0.066895	-0.296875
97.0	6.84731	-2.590063	6.617115	-0.008933	0.00823	-0.007726	-0.709229	0.071045	-0.294678
98.0	6.856381	-2.584267	6.64999	-0.009005	0.002795	-0.0059	-0.711426	0.068848	-0.29248
99.0	6.874502	-2.633765	6.599254	-0.00635	0.005929	-0.008338	-0.702881	0.071045	-0.294678
100.0	6.859951	-2.572876	6.628956	-0.006792	0.00452	-0.008724	-0.705078	0.073242	-0.294678
101.0	6.830035	-2.618257	6.627557	-0.005593	0.003047	-0.010772	-0.709229	0.069092	-0.299072
102.0	6.839346	-2.611804	6.66044	-0.003381	0.004772	-0.013596	-0.709229	0.068848	-0.296875
103.0	6.84715	-2.588506	6.617889	-0.004578	0.000928	-0.016303	-0.709229	0.071289	-0.301025
104.0	6.890098	-2.577759	6.658623	-0.003194	0.000101	-0.014867	-0.707031	0.071045	-0.29248
105.0	6.860875	-2.56975	6.629212	-0.004266	0.001955	-0.014367	-0.704834	0.068848	-0.294678
106.0	6.857432	-2.580388	6.650413	-0.002508	-0.002898	-0.010722	-0.709473	0.073242	-0.296875
107.0	6.868826	-2.598774	6.614233	-0.005523	0.003164	-0.01735	-0.707031	0.068848	-0.294678
108.0	6.872926	-2.586899	6.592832	-0.008305	-0.000353	-0.013364	-0.713379	0.0625	-0.294678
109.0	6.86221	-2.567236	6.628805	-0.001369	0.000683	-0.013045	-0.713379	0.066895	-0.296875
110.0	6.899613	-2.551328	6.615485	-0.006479	0.000228	-0.011542	-0.711426	0.071045	-0.294678
111.0	6.879212	-2.590777	6.646599	-0.007551	0.002082	-0.011042	-0.70459	0.0625	-0.290283
112.0	6.883135	-2.579349	6.625201	-0.007808	0.001318	-0.007946	-0.707031	0.071045	-0.296875
113.0	6.886989	-2.568032	6.60383	-0.007367	0.002727	-0.007559	-0.711182	0.064697	-0.294678
114.0	6.849881	-2.583337	6.617082	-0.008753	0.003554	-0.008993	-0.71167	0.073242	-0.296875
115.0	6.887007	-2.567899	6.603864	-0.007239	0.003109	-0.009106	-0.709229	0.071289	-0.303223
116.0	6.886927	-2.567866	6.60396	-0.005229	0.004335	-0.003802	-0.707031	0.071045	-0.299072
117.0	6.886866	-2.567943	6.603994	-0.010708	0.00259	-0.009266	-0.709229	0.066895	-0.294678
118.0	6.866103	-2.607747	6.635348	-0.005605	0.008362	-0.00601	-0.713623	0.071045	-0.290283
119.0	6.86229	-2.566186	6.629129	-0.008129	0.005607	-0.005123	-0.704834	0.066895	-0.296875
120.0	6.84904	-2.583516	6.617883	-0.008	0.005989	-0.00667	-0.711426	0.071045	-0.296875
121.0	6.856146	-2.613757	6.603318	-0.004845	0.005482	-0.008445	-0.711426	0.066895	-0.299072
122.0	6.885746	-2.567905	6.605176	-0.006047	0.006953	-0.006396	-0.706787	0.064697	-0.296875
123.0	6.865085	-2.554789	6.608892	-0.005735	0.007979	-0.004461	-0.709229	0.066895	-0.294678
124.0	6.872037	-2.585078	6.594473	-0.005918	0.007336	-0.007943	-0.711182	0.06665	-0.29248
125.0	6.871758	-2.584922	6.594824	-0.005919	0.007336	-0.007943	-0.70459	0.064697	-0.294678
126.0	6.856642	-2.577284	6.652431	-0.010084	0.004642	-0.005396	-0.713379	0.064697	-0.299072
127.0	6.871381	-2.585009	6.595183	-0.004845	0.005483	-0.008443	-0.713379	0.066895	-0.299072
128.0	6.871142	-2.584688	6.595558	-0.003837	0.008683	-0.009215	-0.708984	0.064697	-0.298828
129.0	6.867039	-2.595734	6.617281	-0.005919	0.007336	-0.007942	-0.713623	0.073242	-0.294678
130.0	6.883536	-2.567117	6.607785	-0.007434	0.00778	-0.007828	-0.704834	0.071045	-0.296875
131.0	6.907377	-2.568704	6.583508	-0.004277	0.007275	-0.009602	-0.709229	0.066895	-0.299072
132.0	6.849755	-2.57073	6.600347	-0.004974	0.0051	-0.006895	-0.707031	0.069092	-0.301025
133.0	6.86603	-2.594902	6.618655	-0.003838	0.008684	-0.009214	-0.709229	0.069092	-0.30542
134.0	6.862096	-2.553164	6.612623	-0.008638	0.009249	-0.005779	-0.709473	0.073242	-0.294678
135.0	6.882096	-2.566285	6.609608	-0.00636	0.005927	-0.008329	-0.707031	0.066895	-0.296875
136.0	6.872684	-2.572011	6.577147	-0.005921	0.007336	-0.00794	-0.708984	0.064697	-0.303223
137.0	6.861305	-2.552929	6.613534	-0.006489	0.005544	-0.006781	-0.708984	0.064697	-0.296875
138.0	6.881346	-2.566162	6.610437	-0.009207	0.007456	-0.004619	-0.70459	0.0625	-0.294678
139.0	6.851494	-2.559112	6.581312	-0.007565	0.007396	-0.006279	-0.71167	0.073242	-0.30127
140.0	6.867818	-2.583504	6.599482	-0.0068	0.004519	-0.008716	-0.715576	0.064697	-0.299072
141.0	6.893514	-2.549053	6.622716	-0.007126	0.008805	-0.00589	-0.704834	0.066895	-0.296875
142.0	6.883732	-2.607909	6.618075	-0.006051	0.006953	-0.006392	-0.713379	0.066895	-0.299072
143.0	6.904077	-2.567934	6.587269	-0.006361	0.005928	-0.008327	-0.704834	0.069092	-0.296875
144.0	6.86297	-2.594457	6.622002	-0.002893	0.00645	-0.008164	-0.713623	0.068848	-0.294678
145.0	6.879489	-2.565427	6.612655	-0.002197	0.008626	-0.010869	-0.709229	0.066895	-0.301025
146.0	6.862596	-2.593542	6.622748	-0.00711	0.003494	-0.010651	-0.709229	0.071045	-0.296875
147.0	6.872012	-2.534388	6.627874	-0.002385	0.002806	-0.007508	-0.70459	0.064697	-0.303223
148.0	6.899693	-2.577516	6.609843	-0.006801	0.004518	-0.008715	-0.709229	0.066895	-0.301025
149.0	6.883202	-2.552822	6.591959	-0.007421	0.002469	-0.012586	-0.709229	0.066895	-0.296875
150.0	6.879344	-2.563906	6.613395	-0.004539	0.006509	-0.006503	-0.708984	0.0625	-0.296875
151.0	6.879175	-2.563758	6.613629	-0.006802	0.004518	-0.008714	-0.709229	0.06665	-0.29248
152.0	6.870006	-2.569469	6.580937	-0.00724	0.003109	-0.009103	-0.713623	0.066895	-0.30542
153.0	6.890277	-2.582394	6.577735	-0.006364	0.005927	-0.008325	-0.704834	0.069092	-0.299072
154.0	6.891908	-2.545983	6.625567	-0.006545	0.005287	-0.011807	-0.708984	0.064697	-0.29248
155.0	6.882566	-2.551798	6.593019	-0.007828	0.006625	-0.003183	-0.709229	0.06665	-0.29248
156.0	6.882383	-2.551764	6.593224	-0.003772	0.003634	-0.008939	-0.711182	0.06665	-0.29248
157.0	6.887503	-2.557003	6.647593	-0.006875	0.009572	-0.008979	-0.70459	0.064697	-0.301025
158.0	6.894861	-2.534243	6.60533	-0.00706	0.003749	-0.005621	-0.710938	0.060303	-0.29248
159.0	6.8779	-2.56289	6.615291	-0.007571	0.007394	-0.006275	-0.709229	0.066895	-0.294678
160.0	6.88138	-2.551596	6.594335	-0.007571	0.007394	-0.006275	-0.711182	0.066895	-0.294678
161.0	6.893796	-2.587399	6.633868	-0.007443	0.007779	-0.007821	-0.702637	0.066895	-0.294678
162.0	6.85659	-2.549868	6.619602	-0.006056	0.006952	-0.006387	-0.707031	0.068848	-0.294678
163.0	6.900744	-2.56441	6.592133	-0.003408	0.010097	-0.008812	-0.707031	0.068848	-0.29248
164.0	6.876242	-2.562565	6.617139	-0.00801	0.005985	-0.006664	-0.711426	0.071045	-0.290283
165.0	6.913186	-2.546998	6.604235	-0.006803	0.004519	-0.008712	-0.702637	0.068848	-0.294678
166.0	6.85932	-2.53789	6.599692	-0.005362	0.00913	-0.009088	-0.707031	0.069092	-0.299072
167.0	6.907203	-2.594106	6.578526	-0.006495	0.005543	-0.006776	-0.711426	0.066895	-0.299072
168.0	6.879123	-2.550858	6.596975	-0.009089	0.007835	-0.00616	-0.709229	0.066895	-0.296875
169.0	6.87498	-2.562305	6.618551	-0.006058	0.006952	-0.006385	-0.705078	0.073242	-0.296875
170.0	6.898848	-2.563988	6.59428	-0.007574	0.007393	-0.006273	-0.707031	0.068848	-0.29248
171.0	6.898521	-2.564054	6.594596	-0.007574	0.007393	-0.006272	-0.70459	0.064697	-0.296875
172.0	6.898072	-2.564011	6.595083	-0.003232	0.010737	-0.005326	-0.718018	0.068848	-0.290283
173.0	6.882577	-2.556482	6.652894	-0.008011	0.005984	-0.006663	-0.711182	0.06665	-0.29248
174.0	6.889813	-2.53367	6.610815	-0.003233	0.010737	-0.005325	-0.715576	0.064697	-0.296875
175.0	6.893014	-2.575212	6.617705	-0.007445	0.007778	-0.007818	-0.709229	0.066895	-0.296875
176.0	6.872277	-2.562127	6.621427	-0.007009	0.009187	-0.007427	-0.713379	0.066895	-0.299072
177.0	6.908939	-2.546626	6.608821	-0.007268	0.008416	-0.004335	-0.711182	0.066895	-0.294678
178.0	6.871267	-2.562265	6.622422	-0.004313	0.012587	-0.00482	-0.715576	0.066895	-0.296875
179.0	6.894845	-2.563915	6.598494	-0.006702	0.010211	-0.005489	-0.708984	0.064697	-0.298828
180.0	6.874016	-2.551059	6.602218	-0.009221	0.007448	-0.004613	-0.713379	0.066895	-0.296875
181.0	6.893976	-2.564385	6.599219	-0.007398	0.008031	-0.002789	-0.709229	0.06665	-0.29248
182.0	6.889678	-2.576078	6.62084	-0.008785	0.008857	-0.004222	-0.711182	0.0625	-0.301025
183.0	6.889172	-2.576256	6.621298	-0.006703	0.010211	-0.005488	-0.711182	0.064697	-0.298828
184.0	6.884954	-2.534789	6.615446	-0.008349	0.010266	-0.00383	-0.711426	0.068848	-0.294678
185.0	6.904768	-2.548051	6.61263	-0.006833	0.009825	-0.003942	-0.711426	0.069092	-0.307617
186.0	6.870979	-2.552305	6.604898	-0.005187	0.00977	-0.005599	-0.709229	0.069092	-0.301025
187.0	6.881801	-2.571145	6.569307	-0.006704	0.010211	-0.005487	-0.706787	0.064697	-0.298828
188.0	6.894126	-2.554107	6.581393	-0.00835	0.010266	-0.003829	-0.709229	0.071045	-0.299072
189.0	6.869383	-2.552787	6.606371	-0.0074	0.00803	-0.002788	-0.709229	0.068848	-0.290283
190.0	6.889235	-2.565935	6.603566	-0.004752	0.01118	-0.005206	-0.704834	0.069092	-0.301025
191.0	6.897732	-2.560265	6.63689	-0.0074	0.00803	-0.002787	-0.706787	0.064697	-0.296875
192.0	6.888184	-2.566353	6.6045	-0.008351	0.010266	-0.003828	-0.707031	0.066895	-0.294678
193.0	6.867211	-2.55368	6.608284	-0.008482	0.009879	-0.002283	-0.708984	0.0625	-0.301025
194.0	6.899878	-2.549835	6.617045	-0.008352	0.010266	-0.003828	-0.708984	0.064697	-0.296875
195.0	6.84932	-2.583064	6.618851	-0.007226	0.008666	0.000696	-0.711426	0.068848	-0.29248
196.0	6.885872	-2.56775	6.606368	-0.005319	0.009385	-0.004051	-0.713379	0.066895	-0.301025
197.0	6.868761	-2.543377	6.589016	-0.00627	0.011621	-0.005091	-0.707031	0.068848	-0.294678
198.0	6.880882	-2.579421	6.628681	-0.008788	0.008857	-0.00422	-0.711182	0.064697	-0.298828
199.0	6.859954	-2.566757	6.632404	-0.008483	0.009879	-0.002282	-0.707031	0.069092	-0.296875
200.0	6.896429	-2.551423	6.620028	-0.007787	0.012062	-0.004978	-0.711426	0.068848	-0.294678
201.0	6.916211	-2.564611	6.617298	-0.006837	0.009826	-0.003938	-0.713379	0.064697	-0.307617
202.0	6.858134	-2.567521	6.633989	-0.008484	0.009879	-0.002281	-0.709229	0.068848	-0.288086
203.0	6.86155	-2.55621	6.613184	-0.007315	0.008169	-0.009357	-0.709229	0.06665	-0.29248
204.0	6.905735	-2.570961	6.585798	-0.011388	0.011146	-0.003602	-0.709229	0.06665	-0.29248
205.0	6.856731	-2.568116	6.635209	-0.006191	0.006568	-0.004834	-0.708984	0.064697	-0.29248
206.0	6.876921	-2.581203	6.632098	-0.00706	0.00375	-0.005621	-0.713379	0.066895	-0.299072
207.0	6.889595	-2.563851	6.643953	-0.004281	0.00729	-0.009579	-0.709229	0.066895	-0.294678
208.0	6.871365	-2.57522	6.578629	-0.007577	0.007395	-0.006267	-0.707031	0.071045	-0.296875
209.0	6.872464	-2.53927	6.626705	-0.006061	0.006955	-0.006378	-0.706787	0.064697	-0.296875
210.0	6.879763	-2.569431	6.612076	-0.009267	0.007201	-0.009637	-0.711426	0.069092	-0.299072
211.0	6.912696	-2.565119	6.620774	-0.005496	0.008751	-0.007528	-0.707031	0.06665	-0.29248
212.0	6.854814	-2.567741	6.637335	-0.008964	0.008222	-0.007699	-0.707031	0.066895	-0.296875
213.0	6.874829	-2.580803	6.634422	-0.007144	0.008804	-0.005872	-0.713379	0.066895	-0.296875
214.0	6.891167	-2.552159	6.625222	-0.006062	0.006955	-0.006377	-0.704834	0.069092	-0.296875
215.0	6.889521	-2.587954	6.577791	-0.004413	0.006903	-0.008032	-0.707031	0.069092	-0.299072
216.0	6.877763	-2.568954	6.614342	-0.00398	0.008312	-0.007638	-0.715576	0.06665	-0.29248
217.0	6.869864	-2.538496	6.629697	-0.0058	0.007731	-0.009465	-0.711182	0.0625	-0.296875
218.0	6.881097	-2.557015	6.593887	-0.007751	0.006761	-0.009747	-0.709229	0.068848	-0.29248
219.0	6.889717	-2.551001	6.627176	-0.003415	0.010109	-0.008787	-0.709229	0.068848	-0.296875
220.0	6.880387	-2.556367	6.594879	-0.003849	0.0087	-0.009181	-0.715576	0.066895	-0.301025
221.0	6.876123	-2.567678	6.616543	-0.007147	0.008803	-0.00587	-0.700439	0.064697	-0.296875
222.0	6.892404	-2.538959	6.607436	-0.005498	0.008751	-0.007525	-0.713379	0.06665	-0.294678
223.0	6.875373	-2.56754	6.617376	-0.006064	0.006954	-0.006375	-0.708984	0.064697	-0.296875
224.0	6.869967	-2.561825	6.563693	-0.007148	0.008802	-0.00587	-0.711426	0.068848	-0.288086
225.0	6.874593	-2.567572	6.618174	-0.00563	0.008363	-0.00598	-0.704834	0.068848	-0.29248
226.0	6.898478	-2.568861	6.594218	-0.003417	0.01011	-0.008784	-0.709229	0.068848	-0.294678
227.0	6.877745	-2.555625	6.597922	-0.006366	0.005934	-0.008313	-0.707031	0.069092	-0.299072
228.0	6.886457	-2.54963	6.63109	-0.002898	0.006465	-0.00814	-0.711182	0.064697	-0.294678
229.0	6.865749	-2.536293	6.634801	-0.003851	0.008701	-0.009178	-0.711182	0.064697	-0.296875
230.0	6.889674	-2.537626	6.610795	-0.00715	0.008802	-0.005869	-0.711426	0.068848	-0.296875
231.0	6.859795	-2.583487	6.609091	-0.005501	0.008752	-0.007523	-0.711426	0.066895	-0.299072
232.0	6.896548	-2.567431	6.596793	-0.00372	0.00909	-0.010721	-0.708984	0.064697	-0.301025
233.0	6.879706	-2.542448	6.579396	-0.000816	0.007824	-0.009398	-0.706787	0.0625	-0.298828
234.0	6.904872	-2.560503	6.630717	-0.000685	0.008213	-0.010941	-0.713379	0.0625	-0.294678
235.0	6.887878	-2.588549	6.64082	-0.000384	0.009233	-0.009003	-0.70459	0.064697	-0.29248
236.0	6.896424	-2.529193	6.646922	-0.002988	0.011519	-0.008386	-0.711426	0.069092	-0.299072
237.0	6.891076	-2.523179	6.593336	-0.004981	0.005106	-0.00688	-0.708984	0.064697	-0.298828
238.0	6.874106	-2.551621	6.603262	-0.003421	0.01011	-0.008781	-0.711426	0.066895	-0.296875
239.0	6.919664	-2.529922	6.623886	-0.005635	0.008362	-0.005979	-0.708984	0.0625	-0.294678
240.0	6.865559	-2.52121	6.619212	-0.005203	0.009771	-0.005583	-0.706787	0.064697	-0.294678
241.0	6.90481	-2.583115	6.565281	-0.009235	0.00744	-0.00461	-0.70459	0.060547	-0.301025
242.0	6.864648	-2.521634	6.619995	-0.006985	0.009431	-0.002385	-0.711426	0.066895	-0.296875
243.0	6.880757	-2.54614	6.638344	-0.007321	0.008169	-0.009349	-0.711182	0.064697	-0.298828
244.0	6.900772	-2.559033	6.635551	-0.008108	0.011036	-0.006904	-0.713379	0.0625	-0.290283
245.0	6.879818	-2.546276	6.639266	-0.007418	0.008022	-0.00278	-0.700439	0.066895	-0.296875
246.0	6.883215	-2.535019	6.618519	-0.006854	0.00982	-0.003927	-0.711426	0.066895	-0.303223
247.0	6.8827	-2.535257	6.618963	-0.008805	0.008849	-0.004213	-0.707031	0.06665	-0.29248
248.0	6.893766	-2.554255	6.583252	-0.008505	0.009868	-0.002274	-0.711182	0.06665	-0.29248
249.0	6.881587	-2.536122	6.619789	-0.011974	0.009335	-0.002449	-0.713379	0.0625	-0.298828
250.0	6.872233	-2.542348	6.58724	-0.007551	0.007632	-0.001236	-0.709229	0.066895	-0.301025
251.0	6.901017	-2.549816	6.617306	-0.006723	0.01021	-0.005468	-0.709229	0.066895	-0.301025
252.0	6.887759	-2.567328	6.606009	-0.007684	0.007243	0.000307	-0.711182	0.0625	-0.301025
253.0	6.866846	-2.554916	6.609539	-0.012274	0.008316	-0.004388	-0.709229	0.069092	-0.301025
254.0	6.89949	-2.551038	6.618427	-0.006557	0.01084	-0.001985	-0.711426	0.071045	-0.296875
255.0	6.865738	-2.555561	6.61044	-0.007287	0.008412	-0.004321	-0.707031	0.066895	-0.296875
256.0	6.878011	-2.538646	6.622538	-0.008939	0.008459	-0.002668	-0.709229	0.066895	-0.299072
257.0	6.864743	-2.55621	6.611222	-0.006989	0.009431	-0.002381	-0.704834	0.069092	-0.301025
258.0	6.897416	-2.552223	6.620133	-0.008806	0.008849	-0.00421	-0.711426	0.068848	-0.294678
259.0	6.876394	-2.539816	6.623768	-0.010293	0.009526	0.000925	-0.70459	0.064697	-0.296875
260.0	6.883436	-2.570464	6.609294	-0.00933	0.012495	-0.004848	-0.709229	0.068848	-0.294678
261.0	6.895589	-2.553548	6.621525	-0.007421	0.008022	-0.002777	-0.702637	0.069092	-0.303223
262.0	6.861872	-2.558185	6.613439	-0.008509	0.009868	-0.002269	-0.709229	0.066895	-0.299072
263.0	6.885726	-2.559925	6.589461	-0.008807	0.00885	-0.004209	-0.708984	0.064697	-0.296875
264.0	6.877364	-2.583176	6.632218	-0.005339	0.009384	-0.004031	-0.707031	0.069092	-0.299072
265.0	6.897484	-2.542973	6.602123	-0.007156	0.008803	-0.005861	-0.706787	0.064697	-0.29248
266.0	6.863844	-2.547159	6.594124	-0.00494	0.010555	-0.008658	-0.711426	0.069092	-0.299072
267.0	6.85936	-2.5586	6.615884	-0.004909	0.010792	-0.003632	-0.711182	0.064697	-0.296875
268.0	6.895941	-2.542959	6.60374	-0.007423	0.008021	-0.002776	-0.713379	0.06665	-0.29248
269.0	6.871062	-2.541657	6.628593	-0.005073	0.010165	-0.007114	-0.707031	0.066895	-0.296875
270.0	6.891005	-2.554587	6.625894	-0.006859	0.009821	-0.00392	-0.711426	0.066895	-0.296875
271.0	6.873938	-2.530257	6.608496	-0.006726	0.010212	-0.005462	-0.704834	0.066895	-0.298828
272.0	6.881159	-2.560504	6.594005	-0.005474	0.008993	-0.002487	-0.713379	0.06665	-0.294678
273.0	6.893273	-2.543542	6.606301	-0.006563	0.010839	-0.001979	-0.713623	0.071045	-0.296875
274.0	6.859524	-2.548131	6.598243	-0.00881	0.008849	-0.004208	-0.707031	0.071045	-0.29248
275.0	6.900834	-2.538477	6.640236	-0.006134	0.012247	-0.00158	-0.704834	0.068848	-0.294678
276.0	6.879476	-2.57875	6.671536	0.000641	0.01269	-0.004702	-0.715576	0.06665	-0.294678
277.0	7.027318	-2.514866	6.62206	-0.000907	0.012892	-0.009617	-0.709229	0.066895	-0.294678
278.0	7.057157	-2.582229	6.536213	-0.017451	0.034505	-0.003704	-0.711182	0.064697	-0.296875
279.0	6.935317	-2.547673	6.564179	-0.020458	0.051794	0.002774	-0.711182	0.066895	-0.294678
280.0	7.062881	-2.620199	6.581832	-0.006071	0.071446	-0.006448	-0.707031	0.069092	-0.296875
281.0	7.157095	-2.60821	6.612978	-0.032771	0.092234	-0.00416	-0.711182	0.066895	-0.294678
282.0	7.033689	-2.396432	6.685731	-0.026586	0.101848	0.001925	-0.711426	0.071045	-0.299072
283.0	6.93545	-2.389196	6.623592	-0.043068	0.097243	0.018659	-0.707031	0.071045	-0.299072
284.0	6.809198	-2.465797	6.707665	-0.074896	0.080433	0.036741	-0.709229	0.071289	-0.30542
285.0	6.975065	-2.552535	6.644178	-0.04973	0.076256	0.035861	-0.707031	0.069092	-0.301025
286.0	6.97963	-2.720447	6.617692	-0.085796	0.072211	0.042588	-0.702881	0.071289	-0.301025
287.0	7.097186	-2.771519	6.64955	-0.11046	0.077747	0.032313	-0.700439	0.069092	-0.299072
288.0	6.910068	-3.032159	6.505671	-0.113362	0.08402	0.0192	-0.708984	0.064697	-0.307617
289.0	6.672854	-3.084971	6.522037	-0.05681	0.088908	-0.018395	-0.704834	0.069092	-0.299072
290.0	6.525243	-3.012283	6.623381	-0.014633	0.079157	-0.058684	-0.702881	0.071289	-0.30542
291.0	6.599874	-2.70836	6.668025	0.046256	0.066457	-0.079702	-0.700439	0.066895	-0.30542
292.0	6.584499	-2.805575	6.640337	0.04524	0.062585	-0.094033	-0.704834	0.069092	-0.299072
293.0	7.008684	-2.803958	6.611751	0.070345	0.046638	-0.111445	-0.705078	0.071289	-0.30542
294.0	6.804345	-2.538314	6.716503	0.078068	0.044858	-0.113469	-0.704834	0.066895	-0.301025
295.0	6.788164	-2.412259	6.724573	0.077221	0.047942	-0.105961	-0.702637	0.066895	-0.296875
296.0	6.783232	-2.412457	6.750479	0.06152	0.045876	-0.093521	-0.704834	0.064697	-0.30542
297.0	6.678728	-2.516016	6.728235	0.064401	0.044846	-0.087141	-0.700195	0.0625	-0.298828
298.0	6.96357	-2.305089	6.843199	0.063494	0.031362	-0.079392	-0.70459	0.0625	-0.303223
299.0	6.719235	-2.455404	6.626609	-0.020796	0.027621	-0.040381	-0.704834	0.066895	-0.303223
300.0	6.916683	-2.121181	6.793922	0.074408	0.036679	-0.039716	-0.70459	0.0625	-0.303223
301.0	6.923136	-2.1823	6.734304	0.017128	0.02919	-0.0047	-0.704834	0.064697	-0.30542
302.0	6.990989	-2.304706	6.739681	-0.025443	0.026247	0.0219	-0.70459	0.0625	-0.301025
303.0	6.947269	-2.194575	6.767557	-0.031568	0.029137	0.0474	-0.700195	0.062744	-0.303223
304.0	6.8651	-2.334596	6.792838	-0.064158	0.031649	0.06744	-0.704834	0.066895	-0.296875
305.0	6.811658	-2.395752	6.670333	-0.071394	0.035912	0.08342	-0.702393	0.062744	-0.30542
306.0	6.728749	-2.326104	6.78481	-0.081412	0.036148	0.093266	-0.700439	0.069092	-0.307617
307.0	6.752972	-2.416927	6.718971	-0.096576	0.029979	0.096255	-0.702637	0.064697	-0.301025
308.0	6.694585	-2.510325	6.691335	-0.092469	0.027494	0.100602	-0.706787	0.064697	-0.298828
309.0	6.620539	-2.454913	6.714576	-0.096677	0.024758	0.103089	-0.698242	0.066895	-0.303223
310.0	6.595693	-2.543823	6.695118	-0.0926	0.010702	0.095852	-0.702637	0.069092	-0.296875
311.0	6.596371	-2.668685	6.602606	-0.092394	0.000375	0.091265	-0.696045	0.069092	-0.301025
312.0	6.532938	-2.605726	6.657329	-0.073006	-0.007142	0.079513	-0.707031	0.071289	-0.30542
313.0	6.557523	-2.528227	6.652025	-0.079741	-0.01853	0.074488	-0.702637	0.069092	-0.296875
314.0	6.65638	-2.526136	6.675824	-0.089381	-0.028639	0.068125	-0.702881	0.073242	-0.299072
315.0	6.62422	-2.487668	6.635711	-0.093332	-0.030154	0.077584	-0.700684	0.071289	-0.299072
316.0	6.529249	-2.553601	6.608851	-0.108922	-0.048192	0.082087	-0.705078	0.075439	-0.296875
317.0	6.490479	-2.522243	6.533288	-0.114311	-0.070504	0.090487	-0.700928	0.077637	-0.294678
318.0	6.61611	-2.325315	6.64133	-0.130603	-0.095393	0.107927	-0.700928	0.077637	-0.294678
319.0	6.484072	-2.588856	6.577355	-0.148049	-0.107922	0.123991	-0.700684	0.075439	-0.294678
320.0	6.57928	-2.619559	6.634429	-0.153892	-0.13631	0.142258	-0.703125	0.077637	-0.294678
321.0	6.594031	-2.580688	6.628097	-0.156813	-0.139882	0.146253	-0.703125	0.077637	-0.299072
322.0	6.673953	-2.787924	6.551457	-0.145018	-0.144241	0.148548	-0.703125	0.077637	-0.294678
323.0	6.755	-2.925459	6.571654	-0.147499	-0.136075	0.146031	-0.703125	0.079834	-0.299072
324.0	6.79803	-2.874928	6.520587	-0.133578	-0.128751	0.140125	-0.711914	0.083984	-0.29248
325.0	6.93942	-2.721663	6.664182	-0.142038	-0.113149	0.141394	-0.701172	0.083984	-0.294678
326.0	7.11553	-2.643413	6.773504	-0.16363	-0.102051	0.149535	-0.709961	0.086182	-0.290283
327.0	7.123718	-2.730672	6.697295	-0.186889	-0.090736	0.164417	-0.701172	0.086182	-0.29248
328.0	7.071419	-2.856215	6.587496	-0.201623	-0.084255	0.169657	-0.703613	0.090332	-0.290283
329.0	7.217357	-2.962366	6.530119	-0.196901	-0.079246	0.181309	-0.709961	0.090332	-0.290283
330.0	7.088011	-3.138859	6.518962	-0.191003	-0.070937	0.180632	-0.712402	0.094727	-0.294678
331.0	6.989821	-3.214281	6.487073	-0.168392	-0.062868	0.168328	-0.703857	0.096924	-0.290527
332.0	6.904572	-3.064905	6.532527	-0.150133	-0.05794	0.160025	-0.706055	0.101074	-0.286133
333.0	6.871143	-2.958501	6.534939	-0.154221	-0.04998	0.149126	-0.708008	0.09668	-0.286133
334.0	6.862264	-2.797958	6.632581	-0.160659	-0.054045	0.152944	-0.708496	0.105469	-0.290527
335.0	6.843421	-2.827755	6.558116	-0.177178	-0.048027	0.156426	-0.703857	0.099121	-0.294678
336.0	6.793589	-2.923547	6.553607	-0.181685	-0.046225	0.155371	-0.708496	0.105225	-0.279541
337.0	6.787424	-3.013276	6.446075	-0.189843	-0.045312	0.155702	-0.708496	0.105225	-0.281738
338.0	6.750317	-3.09249	6.453622	-0.178996	-0.042754	0.146602	-0.712891	0.107422	-0.281738
339.0	6.701654	-3.207483	6.378692	-0.178651	-0.036647	0.131825	-0.706299	0.107422	-0.279541
340.0	6.686217	-3.31719	6.313027	-0.147546	-0.028938	0.105951	-0.710693	0.105225	-0.281738
341.0	6.647145	-3.34693	6.318619	-0.122963	-0.025818	0.080265	-0.706299	0.109619	-0.281738
342.0	6.579625	-3.362984	6.296393	-0.091347	-0.016819	0.049699	-0.70874	0.111816	-0.279785
343.0	6.457252	-3.515127	6.323451	-0.067818	-0.017096	0.014516	-0.708496	0.107422	-0.279541
344.0	6.462641	-3.504999	6.300573	-0.019587	-0.008769	-0.026289	-0.704346	0.111816	-0.286133
345.0	6.571353	-3.427971	6.280758	0.004859	-0.006353	-0.065682	-0.706543	0.111816	-0.281738
346.0	6.588744	-3.180176	6.431697	0.036502	0.002777	-0.091211	-0.706543	0.109863	-0.290527
347.0	6.638754	-2.981654	6.471491	0.017244	0.000206	-0.105482	-0.704102	0.107666	-0.286133
348.0	6.622105	-2.960168	6.4758	0.013716	-0.005317	-0.105515	-0.706299	0.107422	-0.283936
349.0	6.601609	-2.951901	6.499811	-0.001539	-0.015873	-0.103801	-0.708252	0.103271	-0.279541
350.0	6.683466	-2.956961	6.478518	-0.006437	-0.020508	-0.105237	-0.704102	0.107422	-0.283936
351.0	6.738936	-2.920095	6.477063	-0.021628	-0.030779	-0.088351	-0.710449	0.098877	-0.281738
352.0	6.834616	-2.83729	6.512027	-0.040436	-0.046918	-0.064919	-0.714844	0.105225	-0.283936
353.0	6.807008	-2.861555	6.572244	-0.065302	-0.066191	-0.03577	-0.708252	0.101074	-0.279541
354.0	6.74029	-3.013255	6.546038	-0.109548	-0.093493	-0.014158	-0.706299	0.105469	-0.283936
355.0	6.588618	-3.930881	6.261742	-0.103915	-0.127213	-0.046379	-0.708496	0.105225	-0.277588
356.0	6.386448	-4.809027	6.043508	0.008396	-0.132098	-0.155033	-0.715088	0.109619	-0.275391
357.0	6.547786	-5.503071	5.861241	0.214454	-0.136345	-0.327142	-0.708008	0.092285	-0.279541
358.0	6.67047	-4.633536	6.27508	0.437343	-0.138507	-0.474893	-0.716797	0.094482	-0.275146
359.0	7.22458	-3.477878	6.352475	0.461067	-0.18138	-0.50738	-0.709961	0.088135	-0.275146
360.0	7.212252	-3.420142	6.45642	0.424274	-0.220796	-0.503424	-0.716309	0.081543	-0.281738
361.0	7.209342	-3.098567	6.629971	0.424461	-0.233451	-0.511447	-0.716064	0.079346	-0.279541
362.0	7.268358	-3.29564	6.561489	0.36237	-0.248282	-0.529732	-0.720459	0.077148	-0.275146
363.0	6.861447	-2.803043	7.218206	0.243842	-0.278543	-0.576985	-0.715576	0.068604	-0.275146
364.0	6.913043	-3.172052	7.382542	0.015115	-0.401579	-0.633475	-0.722168	0.068604	-0.266357
365.0	6.994481	-3.38569	7.544252	-0.003357	-0.525456	-0.706534	-0.724365	0.068604	-0.268555
366.0	6.976875	-1.866364	7.861161	0.247486	-0.705187	-0.767798	-0.728271	0.059814	-0.26001
367.0	6.952571	-2.679256	7.734861	0.069522	-0.965765	-0.756354	-0.72583	0.051025	-0.253418
368.0	7.011077	-1.828402	8.061326	-0.043684	-1.238927	-0.723189	-0.734375	0.048828	-0.244629
369.0	6.912993	-2.200257	8.17966	0.047038	-1.495341	-0.71284	-0.725342	0.042236	-0.236084
370.0	6.994049	-2.563072	8.045317	-0.017683	-1.798639	-0.718079	-0.736328	0.041992	-0.216553
371.0	6.809797	-2.442725	8.43856	-0.036471	-2.122162	-0.747893	-0.738281	0.0354	-0.205566
372.0	6.698225	-2.591296	8.440724	-0.096094	-2.432842	-0.801268	-0.753174	0.030762	-0.188232
373.0	6.442124	-2.630171	8.753259	-0.159801	-2.733394	-0.891859	-0.749023	0.032715	-0.175293
374.0	6.222731	-2.457836	9.164981	-0.300868	-3.075906	-0.988351	-0.75708	0.021484	-0.14502
375.0	5.719524	-3.071826	9.143974	-0.455754	-3.451843	-1.14098	-0.756836	0.016846	-0.125488
376.0	5.192107	-3.250058	9.53441	-0.613193	-3.875303	-1.35948	-0.762939	0.005859	-0.094971
377.0	4.419384	-3.588105	9.928566	-0.877225	-4.373805	-1.649625	-0.764893	-0.000977	-0.071045
378.0	3.591766	-4.328833	9.5992	-0.936457	-4.976476	-2.024307	-0.768555	-0.014648	-0.027832
379.0	3.016259	-4.318152	7.56607	-0.788204	-5.595132	-2.463792	-0.767822	-0.028076	0.013428
380.0	3.152944	-3.287114	6.808993	-0.756366	-6.32448	-2.81496	-0.767334	-0.041504	0.054688
381.0	5.200335	-0.416178	6.4685	-1.091332	-7.513947	-2.883209	-0.757813	-0.061523	0.104736
382.0	15.068241	-3.026408	5.074287	-1.840759	-8.549017	-2.846453	-0.748291	-0.07959	0.165527
383.0	28.044029	-6.487234	1.954881	-1.174121	-8.310902	-3.172966	-0.723389	-0.099365	0.206787
384.0	21.030331	-5.935948	4.981733	-0.220784	-7.240932	-3.652119	-0.709473	-0.117188	0.252441
385.0	16.558778	-6.331226	6.198318	-0.35722	-7.169725	-3.92671	-0.683105	-0.125977	0.285156
386.0	16.530016	-3.482205	6.987832	-0.595489	-7.13625	-3.957643	-0.656006	-0.143555	0.319824
387.0	18.32393	-5.346803	7.729802	-1.598208	-6.842694	-3.720693	-0.625	-0.161133	0.343994
388.0	22.905296	-5.683298	10.914323	-2.474208	-6.243661	-3.139898	-0.596191	-0.174072	0.354736
389.0	19.273274	-10.730417	10.032621	-3.447495	-4.538504	-2.604064	-0.569824	-0.176025	0.357178
390.0	23.317912	-4.366279	13.63808	-2.913557	-1.815485	-2.261486	-0.556641	-0.182129	0.333252
391.0	24.943757	-20.389649	13.428215	-3.321712	1.834874	-0.846883	-0.552979	-0.166504	0.300781
392.0	13.201827	-18.084253	10.105202	-0.085218	3.982253	-0.253775	-0.547119	-0.148926	0.268066
393.0	2.304814	-12.009798	7.599492	0.985203	4.293298	-0.009826	-0.53125	-0.111816	0.231201
394.0	-1.023986	-4.860924	7.501482	1.515564	4.069968	0.11152	-0.510254	-0.092041	0.209473
395.0	-0.167047	-2.30072	7.280095	0.630126	3.567701	0.390759	-0.489746	-0.063721	0.185303
396.0	2.805479	-2.033056	7.278421	-0.018029	3.462843	0.782687	-0.462646	-0.0354	0.167969
397.0	4.905853	-4.02797	6.753014	-0.442273	3.799359	1.209063	-0.426514	-0.009277	0.155029
398.0	4.928021	-4.894221	6.145663	-0.386654	4.314431	1.469677	-0.396973	0.012451	0.152588
399.0	4.156399	-5.242658	5.725753	-0.191221	4.664456	1.556818	-0.354004	0.027588	0.150635
400.0	4.568345	-4.877099	5.433145	0.047692	4.870429	1.547818	-0.324219	0.044678	0.180908
401.0	5.981141	-3.580939	5.402979	0.128583	5.165368	1.641382	-0.297852	0.044434	0.200439
402.0	5.396083	-3.313633	5.276054	0.121808	5.365554	1.750663	-0.280273	0.039551	0.237305
403.0	6.192178	-2.631784	5.254976	-0.081664	5.426092	1.881446	-0.270996	0.028564	0.271973
404.0	6.408664	-2.842291	4.731773	-0.232352	5.448058	2.004194	-0.289795	0.008545	0.311035
405.0	7.051845	-2.719515	4.741837	-0.404812	5.339375	2.134168	-0.310303	-0.019775	0.337158
406.0	8.442618	-2.293179	5.068252	-0.561867	5.166909	2.298598	-0.357422	-0.041992	0.358887
407.0	10.347395	-1.544703	5.448451	-0.80364	5.03414	2.507056	-0.410889	-0.063721	0.361084
408.0	12.212224	-1.825345	5.197894	-1.071785	4.976191	2.71385	-0.4646	-0.085205	0.356689
409.0	12.980424	-3.559532	4.684243	-1.10114	4.916391	2.864257	-0.518555	-0.098145	0.330811
410.0	13.351313	-4.546749	4.538303	-0.779454	4.793868	2.973995	-0.583984	-0.095703	0.293701
411.0	13.425366	-4.430821	4.94024	-0.395784	4.606995	3.11834	-0.625977	-0.082275	0.252441
412.0	13.309701	-3.810617	5.812105	-0.170694	4.371968	3.341454	-0.672852	-0.053955	0.20459
413.0	13.113531	-3.461749	6.622498	-0.090941	4.124518	3.569628	-0.697998	-0.025391	0.147949
414.0	13.099176	-3.435528	7.461283	-0.120112	3.85543	3.712922	-0.717041	0.009766	0.0979
415.0	13.931491	-3.469425	8.082095	-0.178266	3.628497	3.773243	-0.716309	0.042969	0.037109
416.0	15.366903	-4.036543	8.701725	-0.18318	3.519065	3.793302	-0.713379	0.078125	-0.019531
417.0	17.051052	-4.007417	9.486708	-0.087025	3.563115	3.782712	-0.692627	0.100342	-0.064941
418.0	18.707181	-1.964334	10.364222	-0.133159	3.683196	3.85853	-0.678223	0.120605	-0.123535
419.0	19.926112	-0.638268	9.624614	-0.377875	3.856278	4.028469	-0.648193	0.131836	-0.162598
420.0	18.831056	1.576486	8.417565	-0.414941	3.984718	4.18395	-0.62915	0.141113	-0.20166
421.0	18.043157	1.55492	6.495604	-0.694184	3.809233	4.222168	-0.607666	0.150146	-0.234131
422.0	18.433839	-0.036408	3.91657	-0.401431	3.587455	3.897309	-0.586182	0.157227	-0.266602
423.0	19.091334	-0.474855	1.02966	0.143425	3.34376	3.378946	-0.577881	0.164063	-0.297119
424.0	19.285708	1.85258	-1.264259	0.56779	3.018514	2.875442	-0.562744	0.166748	-0.325195
425.0	19.851277	4.999382	-3.616133	0.479444	2.560636	2.471293	-0.543457	0.169189	-0.349121
426.0	20.320834	7.647834	-6.130626	-0.121719	2.023815	2.160362	-0.537109	0.173828	-0.364258
427.0	20.670579	8.126989	-9.270575	-0.846131	1.403749	1.822542	-0.535156	0.178223	-0.368652
428.0	20.746472	6.896914	-11.827071	-1.152392	0.703859	1.429659	-0.53125	0.188965	-0.375
429.0	20.776597	3.521497	-13.102419	-0.666455	-0.069601	0.909385	-0.529053	0.191162	-0.375244
430.0	20.995386	2.666669	-12.244928	0.344555	-0.754628	0.267371	-0.537842	0.191162	-0.368652
431.0	21.883534	3.868919	-9.493069	0.850315	-1.319083	-0.297564	-0.539551	0.178223	-0.368652
432.0	21.777141	2.584213	-6.717746	0.688208	-1.633075	-0.74301	-0.55249	0.176025	-0.364258
433.0	7.175975	-2.883391	1.32634	0.833955	-1.819689	-1.605759	-0.560791	0.166992	-0.346924
434.0	-13.400599	-18.498871	22.885579	0.008178	-2.610935	-2.178634	-0.575195	0.147461	-0.338135
435.0	-13.168505	1.223402	13.824022	3.054448	-5.637301	-3.43209	-0.602295	0.118896	-0.294678
436.0	37.920514	7.167769	-1.622164	-0.743002	-5.970473	-2.353872	-0.621582	0.109863	-0.268555
437.0	24.501717	3.533322	14.583525	0.549718	-4.568796	-0.835585	-0.629883	0.10083	-0.249023
438.0	13.771035	-3.323775	10.77617	-0.070403	-3.531188	-0.648309	-0.63623	0.096191	-0.229736
439.0	7.408925	1.613273	9.090542	0.191604	-3.035087	-0.867132	-0.648926	0.091797	-0.223145
440.0	7.487258	-2.990992	5.005328	-0.484628	-3.312981	-0.812041	-0.653076	0.087158	-0.192871
441.0	19.098707	-8.035962	12.193135	-0.567103	-3.261869	-0.882365	-0.661621	0.084717	-0.184082
442.0	23.580478	-9.346088	1.442499	1.658368	-0.863072	-1.100895	-0.663574	0.078369	-0.179688
443.0	9.454688	-4.206165	6.909585	1.325661	-0.691995	-0.788687	-0.663086	0.067383	-0.175293
444.0	8.534792	0.718062	9.022963	0.901721	-0.620919	-0.68164	-0.665283	0.067383	-0.170898
445.0	9.768867	-6.294267	4.813321	1.070142	-0.39754	-0.644613	-0.669189	0.056641	-0.17749
446.0	8.168181	-1.843562	7.340048	0.772028	-0.317909	-0.60669	-0.669189	0.056641	-0.170898
447.0	8.325951	-2.481651	6.737571	0.811807	-0.197627	-0.517182	-0.666748	0.050293	-0.170898
448.0	7.847503	-2.497367	6.769328	0.643427	-0.130439	-0.438889	-0.673096	0.041504	-0.164307
449.0	7.739865	-1.957089	6.921586	0.562933	-0.075372	-0.360546	-0.664551	0.045898	-0.168701
450.0	7.529617	-1.482466	7.105818	0.459411	-0.052367	-0.256958	-0.670898	0.039307	-0.166504
451.0	7.224695	-1.189872	7.269084	0.276859	-0.064979	-0.123825	-0.666504	0.039307	-0.168701
452.0	6.981878	-1.566285	7.104866	0.162397	-0.075897	-0.021833	-0.677246	0.039307	-0.170898
453.0	6.772832	-1.726467	7.084204	0.072262	-0.095942	0.051853	-0.668701	0.041504	-0.162109
454.0	6.829084	-2.034336	6.834012	-0.007269	-0.10597	0.105211	-0.67749	0.041504	-0.164307
455.0	6.648134	-2.529314	6.720634	-0.039381	-0.105826	0.127665	-0.670654	0.037109	-0.159912
456.0	6.517831	-3.143168	6.507196	-0.027259	-0.101049	0.106022	-0.675293	0.041504	-0.160156
457.0	6.518986	-3.227993	6.462943	0.025495	-0.085988	0.061498	-0.668701	0.039307	-0.166504
458.0	6.553822	-3.156605	6.52721	0.054323	-0.072523	0.022556	-0.675293	0.045654	-0.160156
459.0	6.411677	-3.219944	6.489038	0.094633	-0.055354	-0.026773	-0.675293	0.041504	-0.162109
460.0	6.341651	-3.128214	6.621576	0.121387	-0.048238	-0.07072	-0.670654	0.039307	-0.157959
461.0	6.383304	-3.030856	6.669283	0.155499	-0.039603	-0.124021	-0.668701	0.041504	-0.164307
462.0	6.505209	-2.851495	6.661018	0.17919	-0.04019	-0.153353	-0.672852	0.037109	-0.159912
463.0	6.449499	-2.525616	6.819035	0.195775	-0.041251	-0.171339	-0.675049	0.037109	-0.162109
464.0	6.476078	-2.366069	6.914991	0.197055	-0.052195	-0.17561	-0.67749	0.043701	-0.162354
465.0	6.509577	-2.506809	6.871611	0.213022	-0.064377	-0.188085	-0.672852	0.037109	-0.157959
466.0	6.653512	-2.346763	6.933206	0.218466	-0.092248	-0.189813	-0.675049	0.037109	-0.162109
467.0	6.686614	-2.376227	6.936888	0.175039	-0.122291	-0.183301	-0.677002	0.030518	-0.155762
468.0	6.772661	-2.579228	6.86929	0.148563	-0.171427	-0.182728	-0.668457	0.034912	-0.157959
469.0	6.993237	-2.717065	6.746143	0.120937	-0.195348	-0.195713	-0.678955	0.028564	-0.157715
470.0	6.988529	-3.456329	6.548415	0.128656	-0.204238	-0.237195	-0.674805	0.032715	-0.153564
471.0	6.960877	-3.808002	6.385892	0.213727	-0.17652	-0.324168	-0.667969	0.026367	-0.157715
472.0	7.023446	-3.442324	6.535453	0.264008	-0.174078	-0.422817	-0.676514	0.019775	-0.159912
473.0	7.061582	-2.891673	6.705009	0.270298	-0.156773	-0.4757	-0.678467	0.015625	-0.159912
474.0	7.037338	-2.531486	6.991602	0.239133	-0.162317	-0.513236	-0.674072	0.01123	-0.14917
475.0	6.525724	-2.971064	7.643272	-0.128102	-0.267444	-0.561774	-0.673828	0.009033	-0.15332
476.0	7.0284	-3.200903	7.310184	-0.023999	-0.327712	-0.731453	-0.678223	0.006836	-0.148926
477.0	7.106054	-2.436347	7.872135	-0.0798	-0.530098	-0.806717	-0.675781	0.002441	-0.148926
478.0	6.810779	-0.090184	9.176471	-0.060206	-0.839597	-0.75015	-0.679932	-0.00415	-0.140381
479.0	6.90636	-1.521148	8.41818	-0.114687	-1.147002	-0.672885	-0.67749	-0.012695	-0.129395
480.0	6.884222	-0.712407	8.901572	-0.180104	-1.48616	-0.591524	-0.683838	-0.012939	-0.116455
481.0	6.698744	-0.02197	9.592771	-0.168086	-1.84649	-0.471136	-0.683838	-0.015381	-0.101318
482.0	6.350656	-0.218237	10.230874	-0.340456	-2.346206	-0.31694	-0.683594	-0.019775	-0.088135
483.0	5.976513	-1.326324	10.817821	-0.504677	-2.930366	-0.220841	-0.683594	-0.02002	-0.068848
484.0	5.666041	-3.143051	10.822269	-0.696536	-3.531048	-0.266367	-0.681152	-0.020508	-0.03833
485.0	5.306019	-4.108977	11.134095	-0.823718	-3.994696	-0.507034	-0.682861	-0.031494	-0.023193
486.0	4.596647	-4.470828	12.321357	-1.148941	-4.479425	-0.853192	-0.687012	-0.036377	0.011475
487.0	2.757749	-5.277631	12.438149	-1.456185	-5.180173	-1.30424	-0.682373	-0.04541	0.046387
488.0	1.719757	-6.120048	11.757287	-1.537695	-6.034404	-1.972357	-0.673096	-0.056641	0.081055
489.0	1.097428	-5.460583	9.992017	-1.447912	-7.029683	-2.778879	-0.665527	-0.082764	0.122314
490.0	2.542376	-4.996699	6.18746	-1.438552	-8.270833	-3.489139	-0.642578	-0.107178	0.181152
491.0	14.709635	-1.970755	11.126983	-2.478956	-9.831305	-3.454338	-0.617432	-0.135742	0.224609
492.0	32.321021	-12.937451	6.510529	-3.912116	-9.657409	-3.664734	-0.592041	-0.168701	0.276855
493.0	22.380317	-14.681437	8.580339	-0.32313	-8.153347	-4.973149	-0.554199	-0.19043	0.313721
494.0	19.505002	-8.850165	10.187502	-0.011196	-7.941952	-5.387116	-0.511475	-0.220947	0.357422
495.0	19.763805	-10.351536	14.032764	-1.397267	-7.773264	-5.299894	-0.473389	-0.249023	0.375
496.0	24.553113	-11.924206	17.984951	-1.991235	-6.831855	-4.67275	-0.439453	-0.279297	0.394775
497.0	18.101445	-1.650741	21.887824	-2.663218	-4.531284	-3.450886	-0.420898	-0.311279	0.384033
498.0	31.392197	-7.488518	22.572501	-5.021318	-0.431993	-2.144664	-0.417969	-0.330322	0.358154
499.0	18.009261	-28.991344	15.533351	-3.289641	3.160996	-0.587246	-0.433105	-0.338623	0.323486
500.0	-2.512959	-18.789319	13.30059	-0.049393	4.182916	-0.50832	-0.443848	-0.342529	0.299561
501.0	-5.032635	-11.454534	10.352532	0.636959	3.519047	-0.422047	-0.457031	-0.337891	0.271484
502.0	-2.654079	-3.345823	10.404774	0.646965	3.042079	0.077436	-0.45752	-0.329102	0.249756
503.0	0.850896	-2.279427	10.00437	-0.409262	2.841536	1.030218	-0.468506	-0.328857	0.22583
504.0	3.389628	-4.154119	9.119986	-0.822016	3.162882	1.895053	-0.46875	-0.326172	0.195557
505.0	4.330202	-5.105817	8.179332	-0.731482	3.710651	2.436502	-0.477783	-0.319336	0.160645
506.0	4.404468	-4.48606	7.51327	-0.459454	4.283851	2.672173	-0.482666	-0.306152	0.141113
507.0	4.270983	-3.484808	7.262659	-0.205292	4.739289	2.660952	-0.485107	-0.299316	0.104248
508.0	4.968299	-1.757002	7.309748	-0.141395	5.099896	2.55076	-0.487305	-0.298828	0.084717
509.0	5.42118	0.14731	7.391254	-0.363856	5.382205	2.466051	-0.487549	-0.296387	0.052246
510.0	5.934011	0.418305	7.26497	-0.838897	5.568354	2.391646	-0.491699	-0.30249	0.02832
511.0	6.175121	-0.294749	6.820251	-1.185001	5.733189	2.345267	-0.491455	-0.306641	0.008789
512.0	6.709522	-0.941885	6.861798	-1.363397	5.787418	2.301777	-0.498047	-0.310547	-0.014893
513.0	8.559231	-0.548469	7.187339	-1.50825	5.772673	2.326277	-0.500244	-0.312256	-0.045166
514.0	11.098852	-0.427659	7.069354	-1.727972	5.811044	2.469191	-0.513672	-0.30127	-0.069092
515.0	12.124916	-1.530196	6.585638	-1.815575	5.857613	2.673043	-0.524902	-0.294434	-0.095215
516.0	12.508708	-2.363702	6.472334	-1.651518	5.764111	2.871372	-0.544922	-0.287842	-0.119141
517.0	13.592155	-1.731107	7.399834	-1.407188	5.540301	3.110814	-0.556885	-0.257324	-0.154053
518.0	15.705645	-0.597002	8.349352	-1.446799	5.331723	3.452045	-0.565186	-0.213867	-0.176025
519.0	16.595648	-2.174272	8.538387	-1.453033	5.193677	3.771945	-0.54541	-0.166016	-0.206543
520.0	17.132502	-3.397144	8.904384	-1.208863	4.995811	4.013412	-0.519287	-0.105713	-0.206787
521.0	18.409343	-4.182354	9.247479	-0.824512	4.797671	4.198261	-0.47998	-0.054443	-0.174316
522.0	20.038453	-4.242513	9.320063	-0.468957	4.656445	4.376581	-0.46582	-0.022705	-0.122559
523.0	21.360285	-4.389779	8.797045	-0.16909	4.538874	4.566155	-0.462646	0.006836	-0.08374
524.0	22.441965	-4.416661	7.319667	0.160743	4.39304	4.713732	-0.476318	0.029785	-0.046875
525.0	21.552534	2.614486	7.108133	0.756819	4.120815	4.911381	-0.503906	0.065918	-0.02124
526.0	22.88293	3.994484	4.211979	-0.317961	3.486587	5.144386	-0.529297	0.102295	-0.01709
527.0	24.233109	-0.82299	-0.77304	-0.010161	3.072328	4.742913	-0.554443	0.136719	-0.008545
528.0	25.933129	-1.241652	-5.332545	1.033006	2.543455	4.095674	-0.571045	0.17334	-0.017578
529.0	26.870326	5.502473	-8.138719	1.901864	1.963019	3.523656	-0.581055	0.201416	-0.034912
530.0	28.105088	12.517744	-11.772509	1.366595	1.250902	3.003696	-0.595215	0.231445	-0.032959
531.0	27.512014	12.261716	-17.377476	-0.007524	0.727559	2.2309	-0.600586	0.255127	-0.033203
532.0	25.623475	10.626224	-18.26354	-0.390169	-0.010173	1.204044	-0.614258	0.272217	-0.024658
533.0	25.303797	6.874061	-16.852954	-0.134236	-0.880671	0.263009	-0.614258	0.27832	-0.00293
534.0	24.82638	5.12281	-13.462749	0.840529	-1.530035	-0.540867	-0.625488	0.288574	0.029541
535.0	11.611654	10.425823	-4.572739	0.656571	-1.692282	-1.845705	-0.625	0.275146	0.066406
536.0	-24.928001	-24.234482	25.157278	-3.014584	-3.822013	-2.955033	-0.64624	0.261475	0.114258
537.0	3.747218	4.288332	14.985116	4.056546	-7.452664	-4.765247	-0.643311	0.251953	0.190186
538.0	44.421579	1.744512	-6.481006	-3.087556	-5.065131	-2.952603	-0.643066	0.244873	0.235596
539.0	25.379368	0.923152	17.236617	1.095975	-5.021316	-0.931592	-0.638672	0.248535	0.2854
540.0	14.847784	-12.467742	6.340314	-0.681571	-3.753798	-0.310973	-0.627686	0.248047	0.320068
541.0	7.023287	2.727173	9.332386	1.083735	-3.488244	-0.04378	-0.617188	0.256104	0.356934
542.0	7.783629	-4.64742	3.787462	-0.300753	-3.999309	0.356101	-0.595703	0.270752	0.395996
543.0	18.305726	-5.938408	12.042113	-0.429686	-4.081831	0.191537	-0.582764	0.274658	0.42627
544.0	29.80733	-1.792404	5.00839	1.920938	-0.71359	-0.946294	-0.583008	0.279053	0.421875
545.0	7.037641	-9.812529	3.589935	-0.007531	-1.041175	-0.260652	-0.580566	0.274658	0.424072
546.0	7.848053	0.715551	9.791382	1.422187	-0.619182	-0.460383	-0.572266	0.283203	0.437012
547.0	9.947157	-6.565791	4.429999	0.316511	-0.588456	-0.29934	-0.570068	0.281006	0.435059
548.0	7.178016	-2.696411	7.224135	0.702983	-0.40006	-0.346969	-0.570068	0.285156	0.443604
549.0	7.640609	-4.174516	6.252731	0.616247	-0.310921	-0.357114	-0.574463	0.281006	0.437012
550.0	7.330508	-3.683128	6.501022	0.560718	-0.230136	-0.3781	-0.570068	0.281006	0.441406
551.0	7.384009	-2.743815	6.721341	0.536311	-0.192136	-0.36282	-0.56543	0.278809	0.450195
552.0	7.511282	-1.881262	7.171035	0.420438	-0.156476	-0.269443	-0.572266	0.285156	0.447998
553.0	7.203221	-2.500356	6.77909	0.255212	-0.137404	-0.173939	-0.56543	0.274414	0.447998
554.0	7.034006	-2.557645	6.80032	0.192698	-0.125465	-0.115884	-0.567871	0.281006	0.445801
555.0	6.872658	-2.558091	6.774046	0.134563	-0.120852	-0.06671	-0.563477	0.281006	0.447998
556.0	6.821326	-2.646343	6.671677	0.071913	-0.12444	-0.018369	-0.563477	0.281006	0.445801
557.0	6.874178	-2.767116	6.578229	0.037947	-0.119282	0.01117	-0.567871	0.285156	0.443604
558.0	6.728223	-3.341432	6.419376	0.020806	-0.105644	0.019937	-0.561523	0.287354	0.454346
559.0	6.415152	-3.545988	6.369779	0.06333	-0.086656	-0.010807	-0.561523	0.287354	0.450195
560.0	6.291631	-3.966399	6.245402	0.1356	-0.079678	-0.071472	-0.567871	0.280762	0.450195
561.0	6.160985	-4.296924	6.08287	0.263206	-0.069339	-0.165521	-0.559082	0.282959	0.45459
562.0	6.204549	-4.394858	6.282301	0.348467	-0.078872	-0.272459	-0.565918	0.287354	0.450195
563.0	6.55628	-3.838513	6.359994	0.443222	-0.097466	-0.348011	-0.561523	0.285156	0.452393
564.0	6.839454	-3.205571	6.622874	0.389144	-0.122319	-0.370359	-0.559082	0.282959	0.450195
565.0	6.818595	-3.018394	6.689385	0.35827	-0.133147	-0.376664	-0.561279	0.278809	0.45459
566.0	7.095021	-2.469898	6.753312	0.309175	-0.157144	-0.355149	-0.565674	0.282959	0.456543
567.0	7.140922	-2.194123	6.792451	0.187698	-0.167531	-0.292474	-0.561279	0.282959	0.450195
568.0	7.094066	-2.389197	6.821126	0.1173	-0.185706	-0.241391	-0.556885	0.280762	0.460938
569.0	7.161766	-2.440072	6.698055	0.068681	-0.194675	-0.202545	-0.556885	0.280762	0.456787
570.0	7.038527	-3.083993	6.509977	0.019334	-0.201998	-0.193221	-0.559082	0.280762	0.460938
571.0	7.005134	-3.336476	6.430621	0.055293	-0.204367	-0.223393	-0.550293	0.276611	0.456787
572.0	6.96193	-3.66764	6.279521	0.085565	-0.199298	-0.279865	-0.558838	0.274414	0.460938
573.0	6.812346	-3.640013	6.487169	0.118097	-0.18786	-0.381096	-0.554688	0.278809	0.456787
574.0	6.553061	-5.234561	6.330639	-0.18169	-0.239834	-0.522363	-0.554199	0.27002	0.465332
575.0	6.79216	-3.219433	7.094769	0.050042	-0.226816	-0.703556	-0.553955	0.263428	0.467529
576.0	7.185388	-2.917456	6.904359	-0.046297	-0.34511	-0.731152	-0.553467	0.252686	0.474121
577.0	7.01945	-3.085329	7.168168	0.170861	-0.483041	-0.790676	-0.560059	0.252686	0.463379
578.0	7.161891	-1.431157	7.74727	-0.015476	-0.697567	-0.759239	-0.55127	0.250488	0.476318
579.0	7.140046	-1.719847	7.748061	0.034015	-0.894877	-0.735794	-0.548828	0.241699	0.48291
580.0	7.094067	-2.088075	7.744649	-0.072657	-1.132558	-0.701825	-0.546631	0.239502	0.491455
581.0	7.023661	-1.937651	7.993236	-0.021226	-1.381808	-0.669264	-0.543945	0.230957	0.489502
582.0	6.953514	-1.980427	8.124965	-0.024451	-1.662262	-0.640327	-0.541992	0.235107	0.49585
583.0	6.750112	-1.566452	8.773449	-0.048938	-1.985776	-0.584797	-0.535156	0.228516	0.506836
584.0	6.75032	-2.013178	8.970856	-0.108464	-2.374354	-0.542302	-0.535156	0.226074	0.526367
585.0	6.506112	-2.788642	9.109058	-0.171518	-2.759536	-0.57118	-0.528076	0.217529	0.530762
586.0	6.232874	-2.806122	9.697345	-0.325072	-3.156942	-0.656028	-0.519287	0.215088	0.55249
587.0	5.782869	-3.260449	9.824664	-0.791393	-3.613251	-0.799048	-0.512451	0.210693	0.569824
588.0	4.974842	-4.637551	10.011593	-1.200393	-4.109787	-1.102825	-0.501221	0.19751	0.59375
589.0	3.643062	-4.608769	11.326492	-1.513171	-4.769906	-1.568642	-0.487549	0.182129	0.613281
590.0	2.980072	-4.557061	10.450809	-1.764471	-5.61338	-2.167061	-0.471436	0.166748	0.648193
591.0	2.837906	-6.064242	7.484909	-2.004033	-6.424905	-2.969866	-0.450684	0.134033	0.683105
592.0	4.330869	-2.58677	7.486377	-2.044286	-7.53756	-3.625022	-0.412598	0.109863	0.722168
593.0	16.483416	-5.942131	9.412425	-3.887335	-9.129069	-3.667802	-0.369141	0.062256	0.765869
594.0	32.676412	-20.146086	5.225602	-3.840417	-8.485089	-4.349243	-0.339355	0.023193	0.794189
595.0	21.284877	-8.448515	9.576702	0.590345	-6.847557	-5.577619	-0.312256	-0.000488	0.803223
596.0	20.526563	-9.319208	9.217827	-2.003553	-7.236104	-5.48051	-0.289063	-0.04126	0.809814
597.0	21.912412	-10.319321	12.229974	-1.322502	-6.512286	-5.451083	-0.271973	-0.084229	0.812256
598.0	23.262097	-11.093194	14.895122	-2.251343	-5.640844	-4.772902	-0.261963	-0.123047	0.808105
599.0	14.052704	-2.553156	18.350678	-2.223799	-3.869436	-3.889805	-0.281738	-0.172363	0.79541
600.0	26.813142	-11.676443	16.35611	-3.558733	-0.79593	-2.718459	-0.325439	-0.223633	0.762939
601.0	17.520506	-23.595849	14.376239	-1.710679	1.903931	-1.469982	-0.385986	-0.236328	0.721924
602.0	0.045475	-16.213492	11.410893	0.382432	2.679097	-0.957758	-0.440674	-0.23584	0.682617
603.0	-2.376036	-11.571015	8.35045	1.100499	2.20881	-0.554261	-0.486816	-0.224609	0.63501
604.0	-1.527017	-5.419165	8.460449	1.268173	1.821736	0.047392	-0.51416	-0.198242	0.586914
605.0	0.861402	-4.371258	8.167446	0.714836	1.604125	0.892949	-0.52832	-0.174072	0.539307
606.0	3.703503	-4.983682	7.976702	0.453065	1.869606	1.705272	-0.540771	-0.132568	0.491211
607.0	4.185781	-5.9242	7.74039	0.534939	2.466302	2.299527	-0.5271	-0.095459	0.452148
608.0	3.404034	-5.10029	7.714134	0.77564	3.027288	2.588714	-0.510986	-0.0625	0.415039
609.0	4.696481	-3.181254	7.556097	0.831451	3.568609	2.674309	-0.474609	-0.046875	0.380371
610.0	5.634325	-2.252602	7.12985	0.659944	4.16589	2.66095	-0.452881	-0.048828	0.369629
611.0	5.846505	-1.722803	6.912904	0.434556	4.706948	2.539213	-0.439453	-0.061523	0.361084
612.0	6.315033	-0.628894	6.814394	0.129602	5.127041	2.388376	-0.438232	-0.0896	0.359131
613.0	6.50375	-0.140187	6.369912	-0.332506	5.427144	2.271832	-0.45874	-0.121582	0.335205
614.0	6.687484	-0.737679	5.836994	-0.711617	5.62133	2.162323	-0.48999	-0.162109	0.305176
615.0	7.288297	-1.095247	5.463343	-0.946216	5.738386	2.05614	-0.516846	-0.200439	0.268311
616.0	8.150289	-0.75447	5.630651	-1.157402	5.766041	2.013449	-0.546143	-0.236328	0.216553
617.0	9.765153	-0.007675	5.890401	-1.451149	5.729371	2.070009	-0.571045	-0.268066	0.1604
618.0	12.108603	-0.010731	5.662717	-1.804229	5.718796	2.248082	-0.5896	-0.297363	0.106201
619.0	12.899321	-2.173693	4.739123	-2.056064	5.736451	2.483728	-0.608643	-0.318115	0.04126
620.0	13.345184	-4.207843	4.576896	-1.692008	5.616499	2.663552	-0.623535	-0.328125	-0.021484
621.0	13.960024	-3.123277	5.915648	-1.185295	5.37544	2.936374	-0.647461	-0.331787	-0.075684
622.0	15.243427	-1.849731	7.073096	-1.159573	5.139125	3.344982	-0.647949	-0.32251	-0.13208
623.0	16.011781	-2.804737	7.928361	-1.162718	4.952599	3.708163	-0.659424	-0.308838	-0.182129
624.0	16.665319	-3.654659	8.712336	-1.023158	4.795902	3.966665	-0.666992	-0.286865	-0.223389
625.0	17.299866	-4.211884	9.575497	-0.772088	4.681716	4.114508	-0.67041	-0.25415	-0.262695
626.0	18.250668	-4.291815	9.974612	-0.535006	4.591032	4.174826	-0.674072	-0.217041	-0.293213
627.0	19.632904	-4.533617	9.601177	-0.364009	4.508359	4.207091	-0.673584	-0.177734	-0.330078
628.0	21.069886	-5.235612	8.18415	-0.101583	4.435328	4.225462	-0.666748	-0.128174	-0.339111
629.0	21.250481	-2.758772	6.575148	0.498553	4.325515	4.25655	-0.666504	-0.084717	-0.371826
630.0	20.80694	1.945243	6.041423	0.255653	3.86564	4.448981	-0.650635	-0.043701	-0.38501
631.0	22.032339	-1.261345	1.240169	0.237909	3.492606	4.221351	-0.641113	-0.008789	-0.404541
632.0	21.930188	-1.463033	-3.090382	0.803048	3.033666	3.679821	-0.625244	0.030029	-0.411377
633.0	21.921406	4.214657	-5.774825	1.414745	2.348078	3.13157	-0.612549	0.040771	-0.417969
634.0	24.215179	10.502818	-8.150244	0.76903	1.555572	2.691768	-0.609131	0.064697	-0.430908
635.0	25.785084	12.252688	-12.638758	-0.479175	0.980412	2.207996	-0.599121	0.084229	-0.435303
636.0	24.277397	9.681974	-15.804923	-1.01806	0.346323	1.539223	-0.602051	0.105713	-0.428955
637.0	23.105563	6.293294	-16.010118	-0.532359	-0.535281	0.752578	-0.600098	0.111816	-0.418213
638.0	23.298483	4.366362	-13.559743	0.593503	-1.348575	-0.031559	-0.602539	0.116211	-0.409668
639.0	23.452114	5.081518	-9.186806	1.234908	-1.785491	-0.607744	-0.606445	0.105225	-0.396484
640.0	22.34496	3.700171	-5.074302	1.190237	-1.995021	-0.984399	-0.616943	0.096436	-0.385742
641.0	7.316165	-3.200363	14.76323	0.578462	-1.523832	-1.403825	-0.618652	0.085449	-0.37915
642.0	-30.296264	-24.986785	31.040978	0.229757	-2.005048	-2.066883	-0.630859	0.068115	-0.361572
643.0	-15.656004	10.258649	5.700026	3.927961	-6.717109	-3.795059	-0.656006	0.045654	-0.307373
644.0	50.761986	8.898474	-2.037838	-2.59073	-6.241931	-1.916582	-0.668945	0.040771	-0.2771
645.0	20.394766	1.093412	16.508732	0.808123	-4.60466	-0.102161	-0.677734	0.046875	-0.251221
646.0	13.710693	-4.530578	8.318749	-0.789902	-3.958535	0.068959	-0.686523	0.048828	-0.225098
647.0	7.983305	2.133732	9.768438	0.208534	-3.530711	-0.073921	-0.690674	0.046143	-0.199219
648.0	9.388267	-3.895497	4.661615	-0.776136	-3.751134	0.030671	-0.699707	0.052246	-0.170898
649.0	12.833882	-4.036467	8.266602	-0.736612	-3.585953	0.138922	-0.703857	0.053955	-0.149414
650.0	30.857459	-9.748879	6.125325	0.363984	-1.905873	-0.589424	-0.70166	0.049561	-0.140625
651.0	9.161281	-8.393386	4.586714	0.330543	-0.62486	-0.429453	-0.703613	0.047607	-0.142822
652.0	7.680479	-2.387102	7.929716	1.522512	-0.611471	-0.552672	-0.705566	0.041016	-0.138428
653.0	9.692544	-6.162996	4.75617	0.20694	-0.684197	-0.461881	-0.707764	0.041016	-0.13623
654.0	7.864779	-3.528121	6.781198	1.06212	-0.342331	-0.563116	-0.70752	0.034424	-0.129639
655.0	7.9368	-4.119562	6.060476	0.715895	-0.305904	-0.539926	-0.703125	0.032227	-0.129639
656.0	7.771319	-3.746401	6.291785	0.719404	-0.206633	-0.542364	-0.711426	0.023682	-0.129639
657.0	7.51902	-3.111833	6.534809	0.785261	-0.129646	-0.542114	-0.711426	0.021484	-0.129639
658.0	7.390075	-2.779198	6.559832	0.718424	-0.085726	-0.498797	-0.706787	0.017334	-0.134033
659.0	7.382906	-1.947467	6.851604	0.651475	-0.064124	-0.418723	-0.70874	0.010742	-0.125244
660.0	7.217774	-2.059347	6.808959	0.505047	-0.058438	-0.323455	-0.706543	0.010742	-0.125244
661.0	6.998419	-2.189655	6.836728	0.439721	-0.048552	-0.251045	-0.713135	0.008545	-0.131836
662.0	6.89532	-2.493813	6.639516	0.364275	-0.054602	-0.198578	-0.70874	0.008545	-0.125244
663.0	6.704585	-2.660471	6.553575	0.333701	-0.053656	-0.16854	-0.706299	0.002197	-0.127441
664.0	6.527956	-2.830771	6.555499	0.317905	-0.050123	-0.160966	-0.708252	0.0	-0.123047
665.0	6.469211	-3.157846	6.478432	0.295423	-0.05727	-0.173142	-0.704102	0.0	-0.129639
666.0	6.529653	-3.326579	6.395987	0.315374	-0.053734	-0.199932	-0.706299	0.001953	-0.12085
667.0	6.457257	-3.47342	6.35139	0.3418	-0.046991	-0.247346	-0.706055	-0.006348	-0.129639
668.0	6.393427	-3.687465	6.303335	0.400708	-0.0431	-0.308067	-0.710449	0.0	-0.125244
669.0	6.414581	-3.494597	6.470456	0.474793	-0.028972	-0.377226	-0.710449	-0.002197	-0.125244
670.0	6.471864	-3.197219	6.608781	0.502712	-0.031194	-0.424747	-0.705566	-0.017334	-0.118652
671.0	6.855185	-2.63255	6.633099	0.521799	-0.038181	-0.448613	-0.710205	-0.010742	-0.129395
672.0	6.929776	-2.100315	6.819411	0.469422	-0.057687	-0.425705	-0.705566	-0.015137	-0.12085
673.0	7.22351	-1.476587	7.003538	0.390331	-0.115374	-0.360092	-0.709961	-0.015137	-0.118652
674.0	7.312527	-1.163238	7.027017	0.241516	-0.163117	-0.260461	-0.703369	-0.015137	-0.12085
675.0	7.278959	-1.558734	6.867025	0.095326	-0.204293	-0.164193	-0.701172	-0.019531	-0.118652
676.0	7.322575	-1.94085	6.675881	0.032343	-0.23158	-0.109169	-0.709717	-0.019531	-0.116455
677.0	7.073159	-2.652758	6.660704	-0.021715	-0.254081	-0.092368	-0.707275	-0.025879	-0.118652
678.0	7.038869	-3.388083	6.347586	0.001281	-0.246437	-0.141185	-0.70752	-0.019531	-0.116455
679.0	7.190418	-3.920748	6.159946	0.080583	-0.210167	-0.241618	-0.702881	-0.026123	-0.114258
680.0	7.066878	-3.555348	6.413576	0.172987	-0.189012	-0.358742	-0.700928	-0.023926	-0.107666
681.0	7.081987	-2.839331	6.603114	0.169339	-0.192004	-0.436599	-0.707031	-0.030273	-0.112061
682.0	6.899331	-3.619978	6.91419	-0.251091	-0.25991	-0.488105	-0.705078	-0.030518	-0.107666
683.0	7.116944	-2.924492	7.252678	-0.093839	-0.244504	-0.66014	-0.711182	-0.04126	-0.107666
684.0	7.148229	-3.29026	7.361248	-0.198986	-0.423323	-0.760469	-0.710938	-0.04126	-0.099121
685.0	7.03031	-0.993656	8.548864	-0.050019	-0.691363	-0.81841	-0.706543	-0.047852	-0.098877
686.0	7.076192	-2.117715	7.885116	-0.254255	-0.9872	-0.816402	-0.706299	-0.052246	-0.090332
687.0	7.008372	-1.602183	8.246517	-0.225529	-1.267669	-0.81202	-0.710205	-0.060791	-0.081543
688.0	6.846135	-0.921343	8.930766	-0.18345	-1.587342	-0.749005	-0.710205	-0.063232	-0.068604
689.0	6.684646	-1.214397	9.303119	-0.233464	-1.99236	-0.641721	-0.705566	-0.067871	-0.05127
690.0	6.450201	-2.220998	9.555993	-0.174693	-2.439695	-0.600181	-0.703369	-0.068115	-0.027344
691.0	6.328718	-2.555497	9.628348	-0.131294	-2.877905	-0.658259	-0.709717	-0.070557	-0.005615
692.0	6.038554	-2.90727	10.140238	-0.267247	-3.297842	-0.787149	-0.702637	-0.08374	0.018311
693.0	5.534969	-2.846749	11.414781	-0.585915	-3.748061	-1.00666	-0.706543	-0.094727	0.037842
694.0	4.558909	-3.912275	11.630249	-1.128796	-4.343903	-1.337513	-0.691162	-0.095215	0.068115
695.0	3.459392	-3.854516	11.151589	-1.532865	-4.998944	-1.844573	-0.69043	-0.113037	0.111572
696.0	2.355305	-4.80147	10.937173	-2.192255	-5.914649	-2.533943	-0.672363	-0.128418	0.146484
697.0	2.124347	-7.038086	7.269634	-1.926617	-6.867621	-3.415345	-0.656006	-0.154785	0.189941
698.0	7.345886	-3.077464	6.329119	-2.608451	-8.001807	-3.910214	-0.622314	-0.181152	0.237793
699.0	24.07089	-7.326604	10.854639	-4.51578	-9.119155	-3.788341	-0.587891	-0.220215	0.2771
700.0	28.405817	-17.383461	4.864188	-2.522967	-7.710183	-4.877973	-0.552246	-0.242188	0.322754
701.0	20.072093	-8.491357	12.841637	-0.780491	-7.29312	-5.601202	-0.504883	-0.279053	0.355469
702.0	19.748496	-9.011124	11.217639	-1.006648	-7.115973	-5.680369	-0.458008	-0.311523	0.38623
703.0	22.437526	-11.340406	14.114401	-2.120799	-6.74381	-5.361585	-0.40918	-0.335205	0.401611
704.0	19.037768	-6.870937	17.844441	-1.903248	-5.571221	-4.655569	-0.368896	-0.359131	0.421143
705.0	19.23773	0.336023	17.363001	-2.782485	-3.22656	-3.738951	-0.343994	-0.382568	0.414795
706.0	27.506033	-18.55843	18.93269	-4.10448	0.172061	-1.954317	-0.345459	-0.401855	0.40625
707.0	11.308738	-22.953414	12.333807	-0.57768	2.543559	-1.025756	-0.349854	-0.399658	0.404053
708.0	-2.111725	-13.842469	10.693818	0.631087	2.549259	-0.56066	-0.36084	-0.399658	0.40625
709.0	-3.149395	-8.607537	8.797744	1.186223	2.021803	-0.066612	-0.37207	-0.391113	0.40625
710.0	-1.735611	-3.602311	8.682201	0.919428	1.560911	0.681539	-0.376709	-0.382568	0.414795
711.0	1.053457	-3.55847	8.386501	0.257787	1.39631	1.557655	-0.394531	-0.374023	0.416992
712.0	3.643442	-5.050557	7.979539	0.049559	1.718531	2.28054	-0.416504	-0.36792	0.421143
713.0	4.25498	-6.363091	7.618799	0.281492	2.31765	2.720773	-0.438965	-0.348389	0.418945
714.0	4.202889	-4.863351	7.90923	0.697248	2.966509	2.9136	-0.463379	-0.337891	0.420898
715.0	4.356413	-2.566479	8.116833	0.809277	3.554131	2.979374	-0.501221	-0.316406	0.412109
716.0	5.304318	-0.636531	8.118756	0.593536	4.163377	2.943091	-0.527832	-0.30127	0.40332
717.0	5.50628	0.604627	7.942157	0.179821	4.75246	2.829011	-0.563477	-0.281738	0.383545
718.0	5.368617	1.524865	7.765499	-0.401437	5.200263	2.631329	-0.599121	-0.262207	0.361816
719.0	5.725658	1.356928	7.217622	-1.032651	5.536857	2.414361	-0.627686	-0.259766	0.331299
720.0	6.255141	0.47275	6.765579	-1.468168	5.792207	2.201659	-0.66333	-0.242188	0.294434
721.0	7.606314	-0.395368	6.558837	-1.727164	5.969698	2.038295	-0.700684	-0.231201	0.261719
722.0	9.315855	-0.488534	6.768161	-1.873034	6.076728	1.99561	-0.736328	-0.21582	0.222656
723.0	11.481984	-0.464682	6.508689	-2.03174	6.145206	2.099237	-0.764893	-0.20874	0.177002
724.0	12.605629	-1.933026	5.702886	-2.088457	6.183967	2.338969	-0.791992	-0.186523	0.120605
725.0	12.942688	-3.213508	5.40996	-1.772828	6.046776	2.618606	-0.814697	-0.166748	0.072754
726.0	13.903635	-3.822278	6.031586	-1.3759	5.780936	2.96125	-0.840088	-0.131592	0.013916
727.0	15.415927	-4.082903	7.061075	-0.981525	5.524295	3.382503	-0.854492	-0.100586	-0.044678
728.0	16.429989	-4.324101	8.363437	-0.669873	5.320843	3.847314	-0.861084	-0.04834	-0.103516
729.0	17.056776	-4.572989	9.659128	-0.443948	5.103924	4.279245	-0.858154	-0.010986	-0.164551
730.0	18.140374	-4.862145	10.71073	-0.283969	4.915594	4.582833	-0.851563	0.039307	-0.216797
731.0	19.966427	-5.688109	11.135359	-0.159912	4.792262	4.723009	-0.829346	0.081055	-0.270996
732.0	22.263848	-6.578707	10.626667	0.046297	4.753424	4.758705	-0.807129	0.120605	-0.31665
733.0	23.700307	-6.464985	8.924141	0.419627	4.738729	4.763671	-0.775635	0.151367	-0.366699
734.0	23.757595	-4.631144	5.685305	0.824638	4.581211	4.767551	-0.750977	0.186523	-0.403564
735.0	21.43998	6.635574	6.275675	1.074371	3.973249	5.027967	-0.721924	0.219238	-0.436279
736.0	24.228664	-0.525133	-1.361495	-0.284437	3.169071	5.041559	-0.69043	0.249756	-0.458008
737.0	26.472972	0.497402	-5.571512	1.002821	2.521265	4.477174	-0.667236	0.269531	-0.486328
738.0	29.484928	8.812721	-9.932964	1.68629	1.763197	3.851821	-0.652832	0.287109	-0.497314
739.0	29.972846	16.717752	-16.498563	0.724688	1.343796	3.180793	-0.633545	0.295898	-0.505859
740.0	27.061085	16.799515	-20.543772	-0.856328	0.527234	2.234347	-0.627686	0.311035	-0.510254
741.0	25.657446	9.495218	-21.695634	-1.206553	-0.508886	0.930324	-0.62793	0.319336	-0.499512
742.0	24.840438	5.046329	-17.262096	0.043181	-1.335251	-0.52755	-0.634277	0.312988	-0.499512
743.0	25.576494	7.696067	-9.287578	0.898335	-1.975843	-1.946311	-0.657227	0.289063	-0.47998
744.0	-6.128262	-1.317952	11.314283	-0.812126	-2.466604	-2.578372	-0.678467	0.279785	-0.449463
745.0	-25.572098	-20.462821	26.870908	0.849214	-4.507654	-4.36441	-0.711426	0.234131	-0.42334
746.0	36.957268	14.644272	-2.4886	0.468031	-7.385201	-4.222045	-0.743652	0.220459	-0.375732
747.0	27.329672	-2.416199	9.57148	-0.584224	-4.250713	-2.184324	-0.764893	0.209229	-0.343018
748.0	23.737018	-3.706046	11.697048	-0.7339	-3.964501	-0.665702	-0.775391	0.200195	-0.319336
749.0	14.685781	-4.37865	6.664338	1.061306	-3.280064	-0.704217	-0.788086	0.193359	-0.299805
750.0	5.692404	-0.550434	8.566121	-0.315578	-3.138574	-0.533811	-0.796631	0.190918	-0.275879
751.0	4.048456	0.31365	6.650112	-0.070078	-3.168642	-0.687289	-0.805176	0.186279	-0.256348
752.0	21.500311	-8.339312	11.469891	-1.021306	-3.285636	-0.924385	-0.817871	0.179443	-0.230469
753.0	23.810789	-12.075969	-1.077511	1.317702	-0.752803	-0.998564	-0.819336	0.162354	-0.236816
754.0	7.324752	-0.845613	8.676354	2.055721	-0.519702	-0.780354	-0.821289	0.155762	-0.22583
755.0	9.780541	-2.32216	6.994738	0.110476	-0.784558	-0.552942	-0.821289	0.153564	-0.230225
756.0	9.431739	-4.243343	5.958891	1.48356	-0.267815	-0.607136	-0.827637	0.14917	-0.223633
757.0	8.317606	-1.673649	7.062302	0.396562	-0.358701	-0.424881	-0.820801	0.140625	-0.223633
758.0	7.978473	-1.960303	7.208787	0.599951	-0.213779	-0.319688	-0.82959	0.142822	-0.223633
759.0	7.606639	-2.519904	6.79932	0.396965	-0.175012	-0.223857	-0.829346	0.138428	-0.223633
760.0	7.436319	-1.630075	7.248598	0.272912	-0.147032	-0.127977	-0.831299	0.13623	-0.219238
761.0	7.336934	-1.538803	7.168743	0.129405	-0.142441	-0.016517	-0.831299	0.136475	-0.22583
762.0	7.154644	-1.788933	7.023578	0.015385	-0.140916	0.084707	-0.824707	0.134277	-0.223633
763.0	6.920873	-1.905081	7.066458	-0.089523	-0.143602	0.168263	-0.827148	0.138428	-0.210693
764.0	6.773868	-2.316388	6.819189	-0.140296	-0.146398	0.221476	-0.827393	0.144775	-0.212891
765.0	6.741859	-2.586425	6.683791	-0.191507	-0.147274	0.246944	-0.831787	0.14917	-0.22583
766.0	6.754355	-2.91787	6.523869	-0.230889	-0.152848	0.269678	-0.831787	0.144775	-0.215088
767.0	6.633216	-3.287464	6.453138	-0.215008	-0.140305	0.260695	-0.825439	0.151123	-0.208496
768.0	6.530934	-3.798186	6.215905	-0.18542	-0.119113	0.219409	-0.82959	0.146973	-0.212891
769.0	6.450944	-3.839568	6.171872	-0.104935	-0.098162	0.150491	-0.821289	0.155518	-0.210693
770.0	6.409331	-4.007884	6.031585	-0.0168	-0.075256	0.072137	-0.827637	0.151367	-0.212891
771.0	6.149254	-4.376199	5.83412	0.110683	-0.04717	-0.039133	-0.825439	0.151123	-0.208496
772.0	5.886695	-5.420546	5.643743	0.392391	-0.00305	-0.219417	-0.827637	0.151123	-0.208496
773.0	6.260332	-4.839502	6.124541	0.64183	-0.006991	-0.382531	-0.82959	0.146973	-0.210693
774.0	6.637105	-3.862115	6.502193	0.689259	-0.017922	-0.470806	-0.829346	0.142578	-0.212891
775.0	6.695796	-3.521187	6.569873	0.677737	-0.032531	-0.520974	-0.829102	0.13623	-0.215088
776.0	6.782713	-2.994471	6.598089	0.677264	-0.038091	-0.558061	-0.828857	0.129883	-0.214844
777.0	6.883395	-3.381145	6.488209	0.653882	-0.047354	-0.591595	-0.833008	0.123291	-0.214844
778.0	6.906833	-3.164837	6.521947	0.681633	-0.037582	-0.633402	-0.832764	0.118896	-0.210449
779.0	7.037028	-2.615536	6.612445	0.635182	-0.05511	-0.636329	-0.839111	0.110352	-0.217041
780.0	7.049883	-2.683862	6.653584	0.579737	-0.064798	-0.633997	-0.834717	0.108154	-0.210449
781.0	7.124789	-2.26483	6.767525	0.537597	-0.058272	-0.622064	-0.832031	0.097656	-0.219238
782.0	7.308276	-2.080937	6.639914	0.467809	-0.049919	-0.592224	-0.838379	0.091064	-0.210449
783.0	7.08829	-2.010613	6.848707	0.390822	-0.061396	-0.572985	-0.835938	0.08667	-0.212646
784.0	6.586933	-2.412172	7.486719	0.015202	-0.128298	-0.572753	-0.837891	0.080322	-0.212646
785.0	7.164096	-3.241228	6.467618	-0.044907	-0.121387	-0.710952	-0.837891	0.080078	-0.203857
786.0	7.205991	-2.896169	6.914966	-0.233093	-0.167094	-0.807264	-0.833008	0.069336	-0.20166
787.0	7.058739	-2.359646	7.616536	-0.309196	-0.273181	-0.917278	-0.846191	0.067139	-0.206055
788.0	7.054753	-2.103274	7.991711	-0.233147	-0.432138	-1.058775	-0.8479	0.058594	-0.199463
789.0	7.049918	-1.699284	8.036271	-0.352145	-0.717112	-1.08618	-0.849365	0.04126	-0.192871
790.0	6.922702	-1.68893	8.199304	-0.279344	-0.954551	-1.048975	-0.849121	0.034668	-0.186279
791.0	6.859231	-0.900948	8.633479	-0.122988	-1.230482	-0.968767	-0.844482	0.025879	-0.175537
792.0	6.813485	-0.334525	9.045508	-0.059292	-1.554206	-0.815679	-0.85083	0.02124	-0.153809
793.0	6.586573	-0.387783	9.505089	0.025252	-1.940042	-0.637741	-0.852783	0.016846	-0.140625
794.0	6.460421	-1.106281	9.874284	0.047081	-2.39461	-0.537265	-0.854736	0.012207	-0.119141
795.0	6.310611	-2.042351	9.912817	0.014451	-2.865071	-0.541741	-0.858887	0.007568	-0.09082
796.0	6.021196	-2.776816	10.159393	-0.013258	-3.286128	-0.648585	-0.860596	0.002686	-0.060547
797.0	5.442015	-2.521511	11.347581	-0.214152	-3.732781	-0.83156	-0.858154	-0.00415	-0.032227
798.0	4.757965	-3.397581	11.958068	-0.692186	-4.254499	-1.103763	-0.862061	-0.017578	0.006836
799.0	3.655985	-5.075663	11.893695	-1.112129	-4.816412	-1.622077	-0.854736	-0.035156	0.045898
800.0	2.407602	-5.593077	11.971669	-1.555348	-5.645043	-2.303398	-0.849365	-0.057373	0.09375
801.0	1.470242	-7.592807	7.372549	-1.35024	-6.575215	-3.27537	-0.836914	-0.09668	0.145996
802.0	6.047214	-3.65945	4.126247	-1.75389	-7.576858	-3.966348	-0.813721	-0.125488	0.211182
803.0	20.043188	-4.12324	9.276101	-3.989837	-8.669354	-3.9291	-0.785645	-0.173584	0.267822
804.0	30.712136	-14.16228	7.076693	-3.391229	-8.051404	-4.527405	-0.751221	-0.219238	0.320068
805.0	22.64242	-15.160435	9.828221	-0.77805	-7.099454	-5.664912	-0.706055	-0.25415	0.368164
806.0	20.764521	-7.839444	12.846262	-0.351392	-6.791381	-5.97861	-0.663086	-0.297607	0.409424
807.0	24.03329	-12.392865	13.739755	-1.90594	-6.526409	-5.534182	-0.61792	-0.338623	0.435791
808.0	21.117475	-8.089258	18.867141	-1.60326	-5.331083	-4.866489	-0.579346	-0.375488	0.462158
809.0	18.666036	-0.757051	17.409821	-2.411638	-2.599756	-4.127179	-0.551758	-0.413818	0.447266
810.0	22.977458	-17.760009	19.642202	-3.720786	0.25488	-2.294138	-0.550781	-0.44165	0.427734
811.0	10.453265	-22.170154	13.187719	-0.694207	2.155883	-1.297179	-0.552979	-0.443604	0.412598
812.0	-2.336678	-15.209809	11.058935	0.311155	2.086655	-0.709841	-0.555176	-0.443359	0.404053
813.0	-2.379496	-10.706759	8.94989	1.130016	1.561533	-0.079047	-0.561768	-0.441162	0.399658
814.0	-0.967645	-5.424855	9.00871	1.139428	1.224614	0.762782	-0.579102	-0.439209	0.399658
815.0	0.963171	-4.899794	8.675644	0.630434	1.096594	1.685156	-0.583984	-0.426025	0.386475
816.0	2.82552	-5.605558	8.285372	0.485515	1.339287	2.431708	-0.606689	-0.406738	0.379883
817.0	3.686709	-6.273077	7.938952	0.618767	1.792506	2.923082	-0.620117	-0.397949	0.366699
818.0	4.206927	-5.521012	7.986315	0.905841	2.372717	3.204807	-0.647217	-0.374268	0.353516
819.0	4.582148	-3.695079	8.184265	1.0928	2.988985	3.357992	-0.667969	-0.346191	0.333984
820.0	4.902804	-1.698189	8.325726	1.014275	3.618843	3.417352	-0.692627	-0.326416	0.307861
821.0	4.888792	-0.182112	8.129915	0.688754	4.202134	3.381464	-0.717285	-0.311035	0.272949
822.0	5.080843	0.812426	7.950099	0.204057	4.675879	3.21621	-0.739746	-0.293457	0.236084
823.0	5.646308	1.452855	7.728464	-0.383246	5.063158	3.001601	-0.762207	-0.277832	0.192627
824.0	6.545142	1.04958	7.478814	-0.963468	5.415962	2.784287	-0.773682	-0.268555	0.146973
825.0	8.033658	0.12217	7.262215	-1.340188	5.715438	2.565198	-0.785156	-0.252686	0.086182
826.0	9.597964	-0.00562	7.357439	-1.567221	5.970897	2.395488	-0.792236	-0.241455	0.03833
827.0	11.656046	-0.307673	6.99871	-1.773377	6.171425	2.313024	-0.80127	-0.234131	-0.020264
828.0	13.176041	-0.423702	6.58214	-1.885497	6.311292	2.36959	-0.800049	-0.216309	-0.072266
829.0	13.667078	-2.060751	5.603143	-1.972235	6.318411	2.547717	-0.796387	-0.202637	-0.128662
830.0	13.356066	-4.022673	6.060726	-1.492051	6.122219	2.706614	-0.794922	-0.18457	-0.178711
831.0	14.784109	-4.156057	7.083878	-1.085643	5.797539	3.019895	-0.782715	-0.164551	-0.226318
832.0	16.906346	-4.024025	8.609239	-0.803378	5.544989	3.473911	-0.775146	-0.138184	-0.271973
833.0	18.232166	-4.189895	9.941573	-0.659052	5.386583	3.979275	-0.77002	-0.103027	-0.31543
834.0	18.882375	-5.379132	10.55856	-0.529156	5.206807	4.377395	-0.758301	-0.070313	-0.354736
835.0	20.656292	-6.684212	10.499054	-0.290719	5.038353	4.587343	-0.742188	-0.037354	-0.391602
836.0	22.548042	-7.014402	9.873615	0.061846	4.932223	4.638621	-0.723633	-0.013184	-0.428711
837.0	24.081078	-6.569825	8.299801	0.371468	4.820794	4.623041	-0.699219	0.026123	-0.459229
838.0	24.278037	-1.761837	6.067715	0.925475	4.631247	4.574447	-0.682617	0.048096	-0.489502
839.0	22.895592	7.901948	6.563678	0.165422	3.959234	4.974308	-0.666748	0.082764	-0.513428
840.0	25.683788	-0.895983	-1.731782	-0.463324	3.338596	4.784904	-0.64624	0.113525	-0.541748
841.0	26.845374	-0.452887	-6.384284	0.797411	2.732452	4.126426	-0.62915	0.126465	-0.552734
842.0	29.100333	9.223881	-9.363787	2.105304	1.995986	3.465548	-0.614502	0.137451	-0.565674
843.0	30.646989	18.029694	-15.399819	1.057116	1.36255	2.968354	-0.608398	0.150635	-0.574463
844.0	27.238137	17.142851	-20.396417	-0.503613	0.768405	2.050356	-0.600342	0.167969	-0.581055
845.0	24.373114	11.981762	-21.025983	-1.03682	-0.307042	0.703138	-0.607178	0.172119	-0.57666
846.0	23.90074	6.761676	-17.182627	-0.274599	-1.331356	-0.6986	-0.620117	0.167725	-0.565918
847.0	25.198692	5.299302	-11.393145	0.67243	-1.948248	-1.679837	-0.634521	0.150391	-0.559326
848.0	20.221252	6.063465	-1.877818	0.980855	-1.856669	-2.249655	-0.648926	0.130615	-0.544189
849.0	-2.607379	-9.331378	30.727695	-1.503929	-1.489402	-2.21087	-0.661865	0.126221	-0.533203
850.0	-35.643914	-30.485031	22.071514	1.10331	-2.872143	-4.100116	-0.684082	0.082764	-0.504883
851.0	19.38148	18.894924	-5.187091	2.43445	-7.394025	-4.808478	-0.715332	0.052002	-0.46582
852.0	35.483179	-2.535904	10.700737	-2.41955	-4.306734	-1.916763	-0.734863	0.049316	-0.43335
853.0	20.300984	-1.978513	9.305188	1.002318	-4.186717	-0.329758	-0.754395	0.046631	-0.407227
854.0	12.217787	-5.217672	7.005852	0.153029	-3.797877	-0.018508	-0.76709	0.041992	-0.383545
855.0	5.566952	2.312279	9.052915	0.27172	-3.619924	0.196368	-0.782227	0.04126	-0.344482
856.0	8.347773	-0.658856	5.747971	-0.389131	-3.821949	0.269555	-0.793457	0.049805	-0.329346
857.0	16.649503	-3.452806	12.112106	-0.996897	-3.689364	0.113628	-0.808838	0.055908	-0.305664
858.0	29.643376	-6.910459	3.611757	1.023246	-0.985983	-0.77909	-0.806396	0.047119	-0.296875
859.0	9.673192	-10.004121	3.507902	0.383837	-0.829715	-0.289123	-0.810059	0.03418	-0.294678
860.0	7.29352	2.619931	10.396923	1.162085	-0.511478	-0.407596	-0.8125	0.036133	-0.290283
861.0	10.151513	-8.030584	3.696549	0.088379	-0.473438	-0.25246	-0.818848	0.031738	-0.288086
862.0	7.490068	-1.992452	7.581596	0.609789	-0.304837	-0.32635	-0.814453	0.029541	-0.283691
863.0	7.993261	-3.691987	6.268114	0.431918	-0.221276	-0.27953	-0.816406	0.029541	-0.281738
864.0	7.579451	-3.383935	6.52074	0.349749	-0.16671	-0.253468	-0.816162	0.020996	-0.281494
865.0	7.466592	-2.784741	6.657204	0.317917	-0.116981	-0.212731	-0.818359	0.020996	-0.279297
866.0	7.47242	-2.474831	6.738432	0.280019	-0.084354	-0.154277	-0.818115	0.014648	-0.283691
867.0	7.321792	-2.306696	6.814576	0.20595	-0.06418	-0.087427	-0.813721	0.016602	-0.275146
868.0	7.117234	-2.287893	6.791062	0.124267	-0.066823	-0.014681	-0.816162	0.020996	-0.277344
869.0	7.01646	-2.548742	6.716528	0.058371	-0.063916	0.040025	-0.813721	0.014404	-0.2771
870.0	6.761024	-2.844722	6.555531	0.019329	-0.062449	0.076473	-0.820557	0.020996	-0.279297
871.0	6.668898	-3.240687	6.34818	0.016355	-0.060968	0.080242	-0.816162	0.020996	-0.275146
872.0	6.404804	-3.507146	6.204834	0.058781	-0.051797	0.048923	-0.818359	0.023193	-0.279541
873.0	6.300747	-3.907291	6.166704	0.127196	-0.041975	-0.006746	-0.813721	0.014404	-0.2771
874.0	6.272597	-4.047406	6.070159	0.201811	-0.034958	-0.081574	-0.820557	0.020996	-0.275146
875.0	6.092421	-4.117636	6.062485	0.311697	-0.019082	-0.179497	-0.820068	0.010254	-0.274902
876.0	6.158817	-4.147517	5.964012	0.424968	-0.008109	-0.287001	-0.820313	0.014404	-0.2771
877.0	6.263775	-4.155171	6.05945	0.579296	0.00181	-0.391725	-0.824463	0.007813	-0.270752
878.0	6.268186	-3.533987	6.46414	0.687768	0.013001	-0.473256	-0.815186	-0.002686	-0.274902
879.0	6.522033	-3.053008	6.663747	0.713431	0.009746	-0.517458	-0.817383	-0.004883	-0.274902
880.0	6.481163	-2.608382	6.87822	0.689294	0.005622	-0.516421	-0.82373	-0.011475	-0.274902
881.0	6.432698	-2.273041	7.138058	0.610277	-0.028078	-0.485723	-0.816895	-0.013428	-0.272705
882.0	6.543926	-1.966307	7.158066	0.518028	-0.077409	-0.438502	-0.818848	-0.022217	-0.268311
883.0	6.612343	-1.915397	7.167479	0.412731	-0.121561	-0.383644	-0.818604	-0.026611	-0.268311
884.0	6.573361	-2.63457	6.931898	0.305002	-0.182324	-0.355178	-0.818604	-0.028564	-0.268311
885.0	6.719565	-3.790076	6.586555	0.327373	-0.23065	-0.407523	-0.818359	-0.032959	-0.272705
886.0	7.028849	-3.467172	6.504318	0.392935	-0.263494	-0.485647	-0.820313	-0.039307	-0.270508
887.0	7.614937	-3.441292	6.227641	0.410272	-0.273931	-0.550105	-0.820313	-0.037354	-0.263916
888.0	7.446265	-2.906934	6.455306	0.442439	-0.216707	-0.595505	-0.820068	-0.043945	-0.257324
889.0	7.42987	-2.58344	6.685009	0.400659	-0.212236	-0.620523	-0.822021	-0.054688	-0.261719
890.0	7.179349	-1.903825	7.221067	0.25026	-0.208126	-0.636039	-0.821533	-0.063232	-0.259521
891.0	7.126838	-3.351574	7.022984	-0.222939	-0.295987	-0.700725	-0.823486	-0.067627	-0.257324
892.0	7.236993	-3.197517	7.368702	-0.311288	-0.36827	-0.880741	-0.819092	-0.072021	-0.250732
893.0	7.055604	-2.747086	8.195528	-0.271431	-0.562857	-1.052035	-0.823242	-0.078369	-0.248535
894.0	6.987589	-0.39856	8.944597	-0.171214	-0.911439	-1.06423	-0.824951	-0.089355	-0.239746
895.0	7.11599	-1.866688	8.082646	-0.163935	-1.219701	-1.013018	-0.824707	-0.09375	-0.233398
896.0	6.6911	-0.268567	9.442781	-0.148146	-1.542049	-0.928755	-0.826416	-0.102539	-0.213867
897.0	6.680001	-0.449587	9.628636	0.00195	-1.928676	-0.785895	-0.823975	-0.109131	-0.198486
898.0	6.333517	-0.633904	10.319042	-0.058211	-2.42623	-0.638766	-0.839111	-0.11377	-0.178955
899.0	6.235285	-1.000435	10.495794	0.043141	-2.931154	-0.573141	-0.834229	-0.120605	-0.150879
900.0	5.796324	-2.772882	10.591921	-0.208379	-3.450186	-0.605316	-0.836426	-0.123291	-0.122559
901.0	5.363068	-3.209622	11.149992	-0.239646	-3.877942	-0.843169	-0.840576	-0.12793	-0.087891
902.0	4.477014	-3.159197	12.97619	-0.907318	-4.403758	-1.17421	-0.842041	-0.141357	-0.053223
903.0	2.70621	-4.71665	12.753317	-1.433785	-5.147917	-1.687587	-0.841309	-0.15918	-0.007568
904.0	1.606802	-5.196018	11.092028	-1.735378	-6.036327	-2.361751	-0.825195	-0.179199	0.04248
905.0	1.266795	-6.92442	7.224913	-1.736714	-7.099079	-3.30634	-0.81958	-0.208008	0.098877
906.0	6.194352	-1.738648	6.502888	-2.212967	-8.325496	-3.762014	-0.798584	-0.24292	0.155518
907.0	24.142144	-7.294735	12.19422	-4.59618	-9.712123	-3.624506	-0.766602	-0.278076	0.216309
908.0	30.688552	-18.384599	5.177598	-2.552209	-8.295969	-4.837621	-0.731934	-0.323975	0.272949
909.0	19.913846	-9.975307	12.657855	-0.113635	-7.767039	-5.731918	-0.686768	-0.361084	0.322998
910.0	19.359318	-10.351978	10.589691	-0.481917	-7.490679	-5.911756	-0.639648	-0.400146	0.366699
911.0	23.065509	-11.542796	14.343541	-1.393234	-7.048261	-5.533097	-0.592529	-0.434814	0.393066
912.0	21.506314	-6.07083	19.537852	-1.525807	-5.747811	-4.646598	-0.554199	-0.467285	0.414795
913.0	23.55372	2.341761	19.435877	-2.963504	-2.788934	-3.600286	-0.5354	-0.499268	0.397705
914.0	27.932071	-21.266899	19.83323	-4.916753	1.022764	-1.596316	-0.534912	-0.518066	0.363281
915.0	8.330605	-24.258517	12.343645	-0.650514	3.363178	-0.906026	-0.543457	-0.52002	0.341553
916.0	-4.721509	-14.695004	10.415182	0.265303	2.985266	-0.545704	-0.550049	-0.521973	0.324219
917.0	-4.893859	-9.22805	7.863452	1.029536	2.224844	-0.078709	-0.563477	-0.51123	0.332764
918.0	-1.870402	-3.976379	8.189366	0.6947	1.641128	0.720814	-0.572266	-0.51123	0.319824
919.0	2.544791	-4.907509	8.104213	0.1281	1.553888	1.631585	-0.585938	-0.496094	0.308838
920.0	5.321067	-6.309902	8.068455	0.040298	2.111394	2.396889	-0.612549	-0.48291	0.287109
921.0	4.321102	-6.430694	8.353866	0.406887	2.808358	2.874951	-0.639404	-0.463379	0.271729
922.0	3.83305	-3.660591	8.448403	0.638322	3.371486	3.122863	-0.668457	-0.446045	0.251953
923.0	4.196105	-1.917685	8.080231	0.495387	3.839674	3.206637	-0.693359	-0.422119	0.223633
924.0	5.077831	-1.196657	7.703425	0.23599	4.349809	3.107891	-0.71167	-0.400146	0.193115
925.0	5.251098	-0.283725	7.629103	-0.070008	4.836092	2.90726	-0.734131	-0.386963	0.151855
926.0	5.591229	0.574695	7.499521	-0.524316	5.192325	2.667159	-0.756592	-0.369385	0.123535
927.0	5.938094	0.30892	7.236782	-1.019658	5.488397	2.47922	-0.772705	-0.351318	0.062744
928.0	7.067798	0.100938	7.361254	-1.379398	5.697321	2.336917	-0.784424	-0.335693	0.015137
929.0	8.897946	-0.057369	7.461669	-1.717785	5.907168	2.290647	-0.798096	-0.317871	-0.039307
930.0	10.58393	-0.10245	7.531535	-2.005521	6.087435	2.32408	-0.803223	-0.304199	-0.091309
931.0	12.108893	-0.646526	6.776923	-2.225829	6.223898	2.43367	-0.803955	-0.286133	-0.156494
932.0	12.455085	-1.895206	5.964676	-2.247694	6.193061	2.621733	-0.802979	-0.261719	-0.208496
933.0	13.065885	-2.855997	6.047834	-1.99297	5.962489	2.876096	-0.801758	-0.235352	-0.258545
934.0	14.759844	-2.846813	7.118144	-1.655778	5.67181	3.238719	-0.794434	-0.206543	-0.308594
935.0	16.411437	-2.763884	8.232448	-1.431623	5.447377	3.73726	-0.784668	-0.180176	-0.347656
936.0	17.25496	-3.265494	9.383427	-1.210292	5.25364	4.218674	-0.775391	-0.140869	-0.384766
937.0	18.312413	-3.087796	10.499336	-0.986999	5.041323	4.595863	-0.770264	-0.10376	-0.426025
938.0	19.799683	-3.243416	10.855126	-0.875735	4.896731	4.842548	-0.758789	-0.064453	-0.456543
939.0	21.125162	-4.939819	10.28408	-0.633819	4.794859	4.894674	-0.740479	-0.031738	-0.489258
940.0	22.314847	-6.225228	9.010227	-0.11248	4.693915	4.811247	-0.724365	0.000977	-0.526123
941.0	23.382605	-5.469519	7.107148	0.47547	4.511773	4.709938	-0.70166	0.029541	-0.552246
942.0	22.759687	2.530859	6.147748	1.214832	4.174033	4.773174	-0.685547	0.060059	-0.580566
943.0	23.706215	4.121685	3.34779	-0.210692	3.404085	5.059533	-0.671631	0.090576	-0.606689
944.0	25.843487	-2.771454	-3.643784	0.499258	2.914773	4.56953	-0.653076	0.118896	-0.62207
945.0	26.804553	1.960374	-7.463554	1.726264	2.326094	3.839422	-0.640381	0.125488	-0.637207
946.0	29.923056	13.1423	-11.861819	1.838256	1.524232	3.241025	-0.634277	0.140625	-0.637207
947.0	28.286797	16.711278	-18.468387	-0.026686	1.133899	2.578365	-0.628418	0.155762	-0.645996
948.0	25.422545	13.250075	-21.001895	-1.054505	0.103336	1.599727	-0.633545	0.177246	-0.644043
949.0	24.489129	7.531162	-19.604109	-0.730664	-0.928174	0.446332	-0.642334	0.177002	-0.633057
950.0	25.341244	5.248877	-14.515346	0.600517	-1.792311	-0.589844	-0.655029	0.17041	-0.61792
951.0	25.67713	5.522974	-8.702705	1.299452	-2.097717	-1.237	-0.66748	0.157227	-0.60498
952.0	12.499363	5.116163	10.311667	0.671186	-1.613304	-1.920046	-0.68457	0.144287	-0.598389
953.0	-30.24176	-26.08661	35.581624	-1.615659	-2.203973	-2.276056	-0.703125	0.120117	-0.578857
954.0	-21.720452	1.228618	6.30405	4.741414	-6.93277	-5.042307	-0.761963	0.067383	-0.511475
955.0	57.192073	16.581192	-7.085545	-2.817944	-6.50599	-3.240358	-0.774902	0.066895	-0.483398
956.0	21.985715	-3.20414	18.846603	0.36488	-4.765497	-0.717371	-0.802979	0.064209	-0.444336
957.0	16.910142	-5.730386	8.718006	-0.898952	-3.794003	-0.299402	-0.820313	0.063721	-0.41626
958.0	9.188669	0.708146	9.046403	0.581062	-3.563534	-0.200258	-0.830811	0.058838	-0.377197
959.0	7.652673	-3.309731	4.239418	-0.67451	-3.933032	0.14564	-0.848389	0.060547	-0.349121
960.0	18.163185	-8.095404	12.572291	-0.889674	-4.0327	0.062252	-0.861572	0.068848	-0.325195
961.0	30.446144	-5.646838	1.709334	1.830992	-0.825376	-0.868993	-0.861084	0.053711	-0.322998
962.0	7.706517	-7.722619	5.197511	0.469442	-0.889415	-0.288399	-0.865234	0.049316	-0.312256
963.0	7.686337	0.622956	9.426566	0.999571	-0.655225	-0.381024	-0.869385	0.046875	-0.307861
964.0	9.664229	-7.937195	3.822737	0.509189	-0.477944	-0.330011	-0.866943	0.03833	-0.312012
965.0	7.500949	-2.211079	7.47474	0.699889	-0.361657	-0.386045	-0.875732	0.03833	-0.303467
966.0	7.722933	-4.123626	6.23122	0.602404	-0.253364	-0.364354	-0.875488	0.033936	-0.30127
967.0	7.174323	-3.856531	6.418312	0.530545	-0.178706	-0.379215	-0.875488	0.031738	-0.299072
968.0	7.307333	-2.354582	6.944748	0.530578	-0.129315	-0.365331	-0.879395	0.023193	-0.299072
969.0	7.409581	-1.560322	7.147887	0.368006	-0.125724	-0.250216	-0.872803	0.023193	-0.294678
970.0	7.088352	-1.80927	7.169486	0.164629	-0.134351	-0.123768	-0.875	0.020996	-0.296875
971.0	7.110344	-2.006467	7.000628	0.055575	-0.140787	-0.026126	-0.875	0.020996	-0.299072
972.0	6.947226	-2.290657	6.911913	-0.049774	-0.157445	0.06326	-0.875	0.020996	-0.296875
973.0	6.979985	-2.43252	6.674325	-0.110188	-0.157001	0.127541	-0.877441	0.027344	-0.296875
974.0	6.950959	-2.788729	6.554526	-0.19617	-0.157927	0.185823	-0.881836	0.027344	-0.29248
975.0	6.834143	-3.215589	6.368404	-0.216683	-0.146566	0.20776	-0.879395	0.025146	-0.288086
976.0	6.672971	-3.43449	6.3342	-0.203074	-0.131066	0.198191	-0.877441	0.029541	-0.286133
977.0	6.614917	-3.737908	6.212493	-0.196152	-0.121648	0.17295	-0.877441	0.031738	-0.290283
978.0	6.458323	-4.010622	6.112206	-0.155802	-0.109866	0.12218	-0.879883	0.033691	-0.283936
979.0	6.310973	-4.3456	6.000924	-0.055942	-0.093631	0.04367	-0.877686	0.033691	-0.290527
980.0	6.412828	-4.54275	5.951943	0.056717	-0.090471	-0.049137	-0.881836	0.031738	-0.290527
981.0	6.587486	-4.12773	6.16614	0.173163	-0.084936	-0.127581	-0.877686	0.033936	-0.29248
982.0	6.641575	-3.750387	6.378853	0.203208	-0.0933	-0.173492	-0.877441	0.031494	-0.286133
983.0	6.694901	-3.751101	6.373145	0.227507	-0.102946	-0.209752	-0.877197	0.022949	-0.281738
984.0	6.717143	-3.504387	6.426036	0.249846	-0.113025	-0.242752	-0.881592	0.025146	-0.283936
985.0	6.810826	-3.516273	6.358187	0.230327	-0.131534	-0.259018	-0.877197	0.022949	-0.281738
986.0	6.799083	-3.773534	6.283588	0.224855	-0.138767	-0.288127	-0.877197	0.020752	-0.281738
987.0	6.71506	-3.961264	6.204739	0.26302	-0.141679	-0.333499	-0.887695	0.012207	-0.283936
988.0	6.799276	-3.723245	6.314541	0.282703	-0.144777	-0.390877	-0.876709	0.007813	-0.283691
989.0	6.839757	-3.477132	6.326181	0.27787	-0.1551	-0.432366	-0.878662	0.005615	-0.275146
990.0	6.424684	-3.561695	6.961079	0.07493	-0.167859	-0.497422	-0.878418	-0.00293	-0.279297
991.0	6.675066	-4.880218	6.006984	0.044807	-0.167331	-0.664348	-0.882568	-0.005127	-0.272949
992.0	7.022731	-2.835895	6.811726	-0.075679	-0.178218	-0.736763	-0.882568	-0.009521	-0.275146
993.0	7.111876	-2.756248	6.97362	-0.132583	-0.239911	-0.744061	-0.880127	-0.015869	-0.268555
994.0	7.242942	-2.186501	7.242508	-0.269273	-0.343979	-0.734928	-0.884277	-0.016113	-0.26416
995.0	6.878429	-4.104576	7.289222	-0.305984	-0.503949	-0.820874	-0.883789	-0.03125	-0.259766
996.0	7.037336	-2.3914	7.735577	-0.123316	-0.725385	-0.874473	-0.885986	-0.03125	-0.257568
997.0	7.012215	-2.425464	7.802846	-0.039466	-0.977905	-0.844355	-0.889893	-0.042236	-0.242432
998.0	6.844668	-1.946043	8.363323	-0.067636	-1.302518	-0.763473	-0.893799	-0.051025	-0.229248
999.0	6.802067	-1.974688	8.539764	-0.032002	-1.623412	-0.705929	-0.895752	-0.055664	-0.20752
1000.0	6.688399	-1.769151	9.101747	-0.093146	-1.996769	-0.628289	-0.9021	-0.058105	-0.188232
1001.0	6.63882	-1.847273	9.470677	-0.191413	-2.435357	-0.551965	-0.904053	-0.062744	-0.164307
1002.0	6.498752	-2.658792	9.546826	-0.384188	-2.902081	-0.518021	-0.90625	-0.064941	-0.14917
1003.0	6.212321	-3.108534	9.728042	-0.647256	-3.34274	-0.583926	-0.905762	-0.074219	-0.114258
1004.0	5.588969	-3.551916	9.841826	-1.05616	-3.77511	-0.736377	-0.91626	-0.083252	-0.075439
1005.0	4.551011	-4.431466	10.323988	-1.531396	-4.29666	-1.030219	-0.915771	-0.092529	-0.036377
1006.0	3.405374	-4.795699	11.167074	-1.721659	-4.997123	-1.48745	-0.910645	-0.106201	0.022217
1007.0	2.571986	-6.057707	10.3938	-1.866297	-5.877748	-2.106979	-0.90332	-0.124023	0.065674
1008.0	3.083097	-5.650994	7.219738	-1.821611	-6.719055	-2.95142	-0.897705	-0.156982	0.128906
1009.0	4.635426	-1.835909	7.029099	-2.31794	-7.864487	-3.5691	-0.86792	-0.190186	0.200684
1010.0	18.959374	-6.712607	9.847986	-4.090918	-9.401068	-3.551812	-0.833496	-0.229736	0.268066
1011.0	31.487038	-22.565722	3.77473	-3.494605	-8.157461	-4.358281	-0.803223	-0.277588	0.320313
1012.0	19.831787	-7.455772	10.845927	0.720624	-6.983728	-5.530443	-0.755859	-0.321289	0.376953
1013.0	21.48877	-9.813861	9.657783	-1.856248	-7.321723	-5.377977	-0.703857	-0.364746	0.429199
1014.0	23.386862	-12.581377	12.48483	-1.675734	-6.58491	-5.446068	-0.654297	-0.406006	0.470703
1015.0	21.554491	-14.171302	16.065064	-1.942544	-5.494383	-5.054106	-0.604736	-0.449219	0.494873
1016.0	16.947044	-2.833537	19.046369	-1.543967	-3.495789	-4.386265	-0.575439	-0.475098	0.514648
1017.0	26.746828	-8.269585	19.786753	-3.003087	-0.019685	-3.168439	-0.561035	-0.511475	0.501709
1018.0	15.643779	-18.679283	16.054665	-2.215476	2.472286	-1.871305	-0.568848	-0.532715	0.486816
1019.0	-0.330103	-15.036531	11.815352	-0.884508	2.949476	-1.380435	-0.572754	-0.545654	0.478027
1020.0	-2.005727	-13.613112	7.890897	0.093108	2.617356	-1.025677	-0.581299	-0.552246	0.482422
1021.0	-1.592866	-9.124817	7.072859	0.787539	2.32058	-0.555981	-0.596191	-0.556641	0.495361
1022.0	0.101763	-7.026338	7.093475	0.98811	2.13827	0.158954	-0.61377	-0.550537	0.506348
1023.0	2.495273	-5.776686	7.121041	1.001921	2.242408	1.03725	-0.646729	-0.544434	0.523438
1024.0	3.408345	-5.866138	7.011352	0.979711	2.619973	1.865014	-0.686279	-0.533936	0.53418
1025.0	3.301413	-5.717374	7.025256	1.144532	3.104189	2.412514	-0.745605	-0.519287	0.547119
1026.0	3.416737	-3.913101	7.108295	1.250689	3.588105	2.731337	-0.811768	-0.493652	0.551025
1027.0	3.684503	-2.221212	6.95787	1.075462	4.083842	2.874318	-0.882568	-0.46582	0.542236
1028.0	4.121536	-1.630539	6.641888	0.78926	4.562499	2.795659	-0.970703	-0.438232	0.531006
1029.0	5.044603	-0.60218	6.793651	0.39459	4.989686	2.593125	-1.056885	-0.407959	0.496094
1030.0	5.984441	-0.230215	6.618158	-0.114414	5.413781	2.380444	-1.15625	-0.375244	0.447998
1031.0	6.870314	-0.351932	6.426132	-0.583649	5.793441	2.201911	-1.259766	-0.349121	0.380615
1032.0	8.02082	-1.265245	6.146522	-0.973149	6.110319	2.045462	-1.376709	-0.311768	0.289063
1033.0	9.446254	-1.655133	6.338609	-1.197307	6.33678	1.935903	-1.481689	-0.254395	0.163086
1034.0	11.414161	-1.016519	6.281882	-1.468761	6.471576	1.963617	-1.563232	-0.179443	0.00415
1035.0	13.010028	-0.868819	5.58247	-1.808649	6.514431	2.150481	-1.617676	-0.073975	-0.17627
1036.0	13.815839	-2.553768	4.559297	-2.006067	6.381559	2.408209	-1.607666	0.047119	-0.363281
1037.0	14.746043	-4.507114	4.66628	-1.751873	6.066183	2.690332	-1.549561	0.172119	-0.52417
1038.0	17.018907	-5.074989	5.403576	-1.266475	5.672348	3.133541	-1.446289	0.307617	-0.654785
1039.0	18.498104	-5.108472	6.333143	-0.783365	5.374572	3.670165	-1.303223	0.427734	-0.750488
1040.0	18.949087	-4.828856	7.437339	-0.39025	5.063756	4.192783	-1.117432	0.517334	-0.796143
1041.0	19.457415	-5.644687	7.759852	-0.118208	4.758234	4.575301	-0.92749	0.565186	-0.782959
1042.0	20.151206	-5.84086	7.821501	0.248539	4.514449	4.749988	-0.776855	0.554199	-0.711182
1043.0	21.275189	-5.686956	7.42601	0.521942	4.306448	4.772459	-0.696289	0.505859	-0.630615
1044.0	22.404581	-5.70168	6.24927	0.725946	4.146308	4.693727	-0.683594	0.462158	-0.56958
1045.0	23.247266	-5.4892	4.524685	0.947663	3.999305	4.536967	-0.695313	0.425293	-0.554199
1046.0	23.301363	-4.056125	2.116804	1.185655	3.797512	4.352055	-0.716797	0.416748	-0.562988
1047.0	20.975044	8.852838	4.158484	1.483476	3.302539	4.616613	-0.719727	0.434326	-0.591309
1048.0	23.302435	1.119449	-2.189802	-0.571602	2.41736	4.898758	-0.718506	0.460449	-0.604492
1049.0	24.991985	-0.598412	-6.01163	1.077468	1.979139	4.338738	-0.703857	0.471436	-0.628174
1050.0	27.472483	6.68106	-9.651046	1.9456	1.509274	3.574678	-0.690918	0.478271	-0.654297
1051.0	25.995927	14.611686	-14.548234	1.360829	1.216763	2.724622	-0.675781	0.478516	-0.660645
1052.0	23.427659	14.948513	-17.116577	0.006187	0.464897	1.497622	-0.674316	0.497803	-0.660889
1053.0	22.824728	11.339487	-16.834896	-0.244325	-0.325223	-0.013634	-0.687256	0.495605	-0.665283
1054.0	23.481837	8.324487	-12.575567	0.454607	-0.977975	-1.269138	-0.710693	0.478516	-0.667236
1055.0	25.12485	11.707722	-5.02618	1.12805	-1.358364	-2.193671	-0.731689	0.458984	-0.669434
1056.0	-6.439917	5.677078	8.156096	-1.183535	-1.814902	-2.548058	-0.768555	0.456299	-0.641357
1057.0	-28.975259	-18.058978	28.506788	-1.772311	-4.15642	-4.195509	-0.82373	0.42334	-0.602295
1058.0	36.156937	5.269662	-3.144266	-0.681352	-7.590249	-4.394551	-0.879639	0.405273	-0.55249
1059.0	26.40671	-5.011568	6.919329	-0.776805	-3.444575	-2.234461	-0.913574	0.387451	-0.517578
1060.0	23.06363	-9.953191	8.089461	-1.175263	-4.405774	-0.293298	-0.931152	0.395508	-0.485107
1061.0	12.113594	-9.886217	5.566316	1.472593	-3.428571	-0.062744	-0.954834	0.388672	-0.469971
1062.0	6.312061	-2.441584	6.674133	0.259186	-3.713173	0.570185	-0.972656	0.398926	-0.439697
1063.0	4.905711	0.150212	6.028645	0.644204	-3.895264	0.827166	-0.988037	0.404785	-0.396484
1064.0	21.785604	-6.089149	12.242244	-0.089743	-4.071372	0.351917	-1.007568	0.402344	-0.372803
1065.0	25.607613	5.623139	8.163148	2.280088	-0.335897	-0.908779	-1.011475	0.393555	-0.370361
1066.0	8.64998	-14.50327	0.756846	-0.710065	-1.140824	-0.186841	-1.028564	0.382813	-0.361816
1067.0	8.047276	4.011295	10.911853	2.087684	-0.498871	-0.472229	-1.026123	0.380615	-0.364014
1068.0	9.58671	-7.118462	4.034047	-0.230928	-0.518486	-0.221638	-1.02832	0.380615	-0.366211
1069.0	7.373566	-1.742759	7.650509	0.695998	-0.364624	-0.296785	-1.023682	0.374023	-0.359619
1070.0	7.653655	-3.564851	6.332209	0.446749	-0.289088	-0.275962	-1.036621	0.371826	-0.361816
1071.0	7.378518	-2.484911	6.87746	0.317045	-0.227339	-0.245133	-1.032227	0.365479	-0.357422
1072.0	7.287324	-1.848559	7.113572	0.266705	-0.195467	-0.181983	-1.034424	0.367432	-0.353027
1073.0	7.186131	-1.703203	7.167797	0.162304	-0.177893	-0.093347	-1.036621	0.367432	-0.355225
1074.0	7.151297	-2.215649	6.886734	0.034175	-0.167793	-0.014479	-1.036621	0.367432	-0.355225
1075.0	6.973863	-2.384596	6.819413	-0.007905	-0.173366	0.036022	-1.034424	0.371826	-0.353027
1076.0	6.9653	-2.418463	6.81545	-0.056322	-0.164051	0.077331	-1.038818	0.369629	-0.353027
1077.0	6.994683	-2.463388	6.675435	-0.132435	-0.171466	0.127988	-1.034424	0.367432	-0.35083
1078.0	6.906483	-2.775498	6.618123	-0.154246	-0.158915	0.156186	-1.04126	0.375977	-0.342285
1079.0	6.963055	-2.727416	6.597673	-0.206863	-0.148962	0.177732	-1.041016	0.371582	-0.340088
1080.0	6.898345	-3.073318	6.44557	-0.241576	-0.131259	0.192138	-1.037109	0.382324	-0.337891
1081.0	6.851291	-3.314786	6.327487	-0.234906	-0.11258	0.177918	-1.034424	0.371582	-0.340088
1082.0	6.807651	-3.484263	6.307051	-0.220641	-0.101599	0.158258	-1.04126	0.378174	-0.344482
1083.0	6.68678	-3.895284	6.159006	-0.20688	-0.098806	0.115975	-1.037109	0.380127	-0.333496
1084.0	6.663529	-4.125618	6.019577	-0.108979	-0.078284	0.045908	-1.036865	0.37793	-0.337891
1085.0	6.676791	-3.966241	6.077905	-0.034564	-0.071798	-0.017329	-1.04126	0.380127	-0.337891
1086.0	6.744255	-3.768862	6.140706	0.047612	-0.066591	-0.074073	-1.039063	0.380127	-0.333496
1087.0	6.727813	-3.594787	6.196037	0.112904	-0.06941	-0.106786	-1.043213	0.373779	-0.335693
1088.0	6.830408	-3.283895	6.384188	0.13876	-0.082783	-0.120125	-1.038818	0.371582	-0.333496
1089.0	6.848565	-3.262023	6.416016	0.149763	-0.094535	-0.121588	-1.043213	0.371338	-0.327148
1090.0	6.830717	-3.393818	6.352151	0.16316	-0.100501	-0.139703	-1.043213	0.371338	-0.329346
1091.0	6.86168	-3.386872	6.348056	0.18538	-0.100083	-0.155697	-1.043213	0.369385	-0.331299
1092.0	6.917595	-3.219272	6.352325	0.210409	-0.101032	-0.170328	-1.045166	0.369385	-0.333496
1093.0	6.925896	-3.187049	6.298072	0.20649	-0.098189	-0.181161	-1.044922	0.362793	-0.331299
1094.0	6.940251	-3.244527	6.309506	0.216607	-0.098331	-0.192528	-1.049561	0.367188	-0.333496
1095.0	6.922124	-3.183992	6.348987	0.21584	-0.096091	-0.205108	-1.049316	0.36084	-0.335693
1096.0	6.898188	-3.330009	6.331088	0.212738	-0.09156	-0.228757	-1.053467	0.358398	-0.331299
1097.0	6.975517	-3.211271	6.337824	0.212695	-0.083188	-0.257887	-1.049072	0.354248	-0.329102
1098.0	6.907448	-2.921957	6.571927	0.149269	-0.083847	-0.274233	-1.05542	0.352051	-0.324951
1099.0	6.975414	-3.026198	6.538998	0.05425	-0.089617	-0.294315	-1.053223	0.347656	-0.329102
1100.0	6.940292	-2.957269	6.574674	-0.030099	-0.108575	-0.316167	-1.05957	0.345459	-0.324707
1101.0	6.916238	-2.750229	6.7981	-0.11077	-0.141124	-0.33001	-1.057373	0.343262	-0.318359
1102.0	6.898462	-2.940811	6.861345	-0.170806	-0.196929	-0.344935	-1.054932	0.339111	-0.32251
1103.0	6.945091	-2.651334	7.079735	-0.202456	-0.27786	-0.363061	-1.061279	0.334473	-0.313965
1104.0	6.921469	-3.065044	7.005894	-0.248325	-0.37094	-0.363062	-1.061279	0.33667	-0.30957
1105.0	6.946939	-2.860607	7.183045	0.030776	-0.519545	-0.41186	-1.06543	0.332275	-0.301025
1106.0	6.951529	-2.577202	7.384872	-0.121599	-0.704461	-0.388141	-1.069824	0.327881	-0.296631
1107.0	6.954833	-2.214581	7.674266	-0.064526	-0.863504	-0.390229	-1.071777	0.323242	-0.28125
1108.0	6.895853	-2.785314	7.648389	-0.15483	-1.092125	-0.394598	-1.077881	0.31665	-0.263916
1109.0	6.80324	-3.207497	7.709084	-0.177433	-1.323678	-0.448464	-1.082031	0.310059	-0.250977
1110.0	6.732212	-3.726856	7.755114	-0.161046	-1.572285	-0.545895	-1.092773	0.30542	-0.229248
1111.0	6.760901	-3.687444	7.822171	-0.170333	-1.827535	-0.644416	-1.090088	0.294434	-0.214111
1112.0	6.830396	-3.703822	8.063828	-0.176015	-2.110802	-0.743324	-1.10498	0.289551	-0.187988
1113.0	6.69444	-3.521869	8.855002	-0.239116	-2.423748	-0.851126	-1.106445	0.27417	-0.155518
1114.0	6.452494	-3.656625	9.000561	-0.341125	-2.850421	-0.968926	-1.117188	0.269287	-0.12085
1115.0	6.345927	-3.335012	9.457667	-0.631674	-3.277424	-1.124505	-1.12085	0.253662	-0.083984
1116.0	5.325746	-4.50921	10.10491	-1.123308	-3.794945	-1.409218	-1.130859	0.231689	-0.040527
1117.0	4.749567	-5.659375	9.710382	-1.360537	-4.400722	-1.885643	-1.129395	0.202881	0.020508
1118.0	4.169493	-5.819277	9.349389	-1.704947	-5.041672	-2.546125	-1.136719	0.169678	0.074707
1119.0	4.858186	-5.290356	7.729831	-1.957537	-5.700854	-3.253725	-1.141602	0.125732	0.144287
1120.0	7.497156	-5.10659	6.81731	-2.386511	-6.344715	-3.720412	-1.137451	0.07959	0.218262
1121.0	17.234825	-5.771194	8.286568	-2.826682	-6.737264	-3.844647	-1.119629	0.018555	0.283691
1122.0	25.543954	-15.313068	4.77124	-2.567727	-6.204485	-4.434423	-1.106689	-0.031738	0.344482
1123.0	21.483738	-8.965571	7.433483	0.14208	-5.120096	-5.254321	-1.076172	-0.086182	0.396973
1124.0	20.665262	-7.716266	8.428034	-1.343536	-5.000673	-5.075216	-1.047852	-0.142334	0.434082
1125.0	18.31452	-8.324225	10.239709	-1.393059	-4.385152	-4.683168	-1.013428	-0.187744	0.460449
1126.0	14.173664	-8.271951	14.677011	-1.851357	-3.36658	-4.203919	-0.996582	-0.226563	0.462891
1127.0	10.030018	-5.563096	12.424999	-1.00764	-1.453544	-3.75842	-0.964844	-0.260498	0.449951
1128.0	14.244757	-7.633931	14.209375	-1.467314	0.576608	-2.811646	-0.953125	-0.281738	0.417725
1129.0	4.659684	-8.874696	10.448101	-1.084406	1.356766	-1.920173	-0.944092	-0.294189	0.385254
1130.0	-2.064101	-9.713261	6.307752	-0.908153	1.159923	-1.434856	-0.924316	-0.300049	0.35498
1131.0	-0.853426	-10.147394	5.291847	-0.097676	0.893373	-1.069016	-0.907227	-0.29541	0.328857
1132.0	0.387437	-8.113509	5.575341	0.636054	0.794674	-0.534962	-0.898926	-0.284424	0.313721
1133.0	2.098653	-4.777417	7.145895	0.956089	0.910598	0.261319	-0.875488	-0.270996	0.289795
1134.0	2.867291	-1.814004	8.292326	0.744364	1.210886	1.184266	-0.863281	-0.24707	0.270264
1135.0	2.999037	-1.441414	8.184275	0.195382	1.649262	1.888957	-0.849121	-0.2229	0.244141
1136.0	3.215311	-1.794635	7.464367	-0.07921	2.213086	2.206829	-0.839355	-0.19458	0.213623
1137.0	3.028191	-1.669197	7.114516	-0.183675	2.745487	2.161784	-0.816162	-0.176758	0.185303
1138.0	3.464731	-0.28237	6.778546	-0.302312	3.232605	1.934843	-0.803711	-0.165527	0.157227
1139.0	4.011573	1.317771	6.622488	-0.599095	3.694664	1.654453	-0.784668	-0.149902	0.120361
1140.0	4.658623	2.512081	6.494705	-1.132315	4.094749	1.386515	-0.77002	-0.138916	0.094238
1141.0	5.667569	2.442713	5.855555	-1.749422	4.403296	1.17671	-0.742188	-0.129639	0.061768
1142.0	6.981869	1.075735	4.91939	-2.177299	4.639755	1.066535	-0.731201	-0.129395	0.035889
1143.0	8.003862	-0.162171	4.237623	-2.237832	4.787534	1.084318	-0.707764	-0.118164	0.016357
1144.0	8.959977	0.333998	4.131798	-2.10921	4.771031	1.280104	-0.697266	-0.109131	-0.011963
1145.0	10.508284	1.242554	3.840364	-2.141061	4.588556	1.66202	-0.68457	-0.104492	-0.024902
1146.0	11.203761	-0.013184	3.228589	-2.072794	4.326731	2.094294	-0.671875	-0.09375	-0.035889
1147.0	11.805611	-0.278052	3.366144	-1.705562	3.979483	2.468868	-0.665771	-0.080566	-0.046631
1148.0	12.098891	0.158049	3.804048	-1.353771	3.678917	2.74058	-0.673096	-0.063232	-0.053223
1149.0	12.178238	1.209735	4.629394	-1.170671	3.407593	2.898178	-0.664795	-0.05249	-0.059814
1150.0	11.900722	1.534187	5.406587	-1.202263	3.163009	2.909818	-0.678223	-0.043701	-0.072998
1151.0	12.319274	2.437102	6.177817	-1.301923	2.92183	2.786854	-0.678955	-0.022217	-0.068604
1152.0	13.674592	3.054721	6.479524	-1.597739	2.72897	2.61122	-0.684326	-0.000488	-0.086182
1153.0	15.558397	2.515267	6.34037	-1.779191	2.63866	2.450379	-0.693848	0.023193	-0.094971
1154.0	16.063437	2.102486	5.956963	-1.69068	2.647011	2.343444	-0.698975	0.042725	-0.105957
1155.0	15.352082	3.138866	5.45877	-1.451353	2.600382	2.214464	-0.706543	0.0625	-0.129883
1156.0	14.768991	3.633682	4.879281	-1.363674	2.397296	2.044291	-0.711914	0.088379	-0.143066
1157.0	15.303736	3.305631	4.591888	-1.220626	2.191307	1.772377	-0.719238	0.10791	-0.164795
1158.0	15.617192	3.784544	4.284813	-1.070344	2.047724	1.451947	-0.713379	0.125488	-0.179932
1159.0	15.385443	5.96223	3.867396	-1.058471	1.87608	1.134746	-0.713867	0.13623	-0.190918
1160.0	14.667675	11.248653	4.088792	-1.499932	1.5864	0.957381	-0.7146	0.153809	-0.208252
1161.0	14.939481	11.867611	2.223226	-2.967707	1.149903	0.775756	-0.715088	0.170898	-0.208496
1162.0	16.263042	9.007385	-0.365081	-3.793279	0.753048	0.466962	-0.718018	0.188232	-0.215088
1163.0	17.964429	7.158176	-2.702575	-4.05904	0.455715	0.290025	-0.71875	0.20752	-0.20874
1164.0	19.230581	5.088405	-4.82993	-3.880931	0.208372	0.257521	-0.717041	0.218262	-0.202148
1165.0	19.198493	2.271104	-6.798958	-3.06916	0.164018	0.067187	-0.717285	0.22876	-0.191406
1166.0	16.160621	3.712311	-7.936966	-1.725312	-0.113476	-0.519189	-0.72168	0.226563	-0.189209
1167.0	17.337419	2.606922	-7.56535	-1.311565	-0.71119	-1.256349	-0.727783	0.219971	-0.182617
1168.0	30.861119	-12.027606	-13.437706	0.93771	-0.570026	-2.955314	-0.729004	0.194336	-0.197754
1169.0	11.886893	-4.031383	4.653084	3.131432	1.508993	-2.472276	-0.732666	0.173096	-0.201904
1170.0	0.238907	-19.160079	11.999021	3.030257	1.031443	-2.699886	-0.731445	0.143311	-0.227783
1171.0	-2.24852	-2.610081	15.406726	4.354132	-0.725425	-3.614947	-0.736816	0.11084	-0.223389
1172.0	20.20894	2.972819	3.799444	3.809551	-0.125387	-3.168255	-0.737793	0.078613	-0.229736
1173.0	10.403	16.86811	14.441073	2.304855	-0.038591	-1.848005	-0.737305	0.070068	-0.229736
1174.0	8.817004	2.969528	8.092803	0.208474	-0.425906	-0.840181	-0.739258	0.059326	-0.231689
1175.0	8.467574	3.081005	8.649519	0.625525	-0.400082	-0.442715	-0.739258	0.061523	-0.225342
1176.0	8.290466	1.408419	7.670117	-0.20404	-0.477663	-0.057587	-0.745605	0.059082	-0.216553
1177.0	7.81551	-2.981924	6.2644	-0.203604	-0.408873	0.022933	-0.741211	0.059082	-0.21875
1178.0	7.609093	-1.623566	6.809054	-0.121996	-0.339241	0.037733	-0.743652	0.061279	-0.216553
1179.0	7.633172	-1.574421	6.705006	-0.2006	-0.318468	0.104565	-0.743652	0.06543	-0.210205
1180.0	7.315314	-3.16465	6.29455	-0.312159	-0.295823	0.141806	-0.743652	0.063232	-0.210205
1181.0	7.286419	-3.899578	5.892649	-0.163867	-0.213406	0.067183	-0.743896	0.067627	-0.212402
1182.0	7.213053	-2.92889	6.276796	-0.088174	-0.150462	0.016036	-0.74585	0.067627	-0.203613
1183.0	7.235588	-1.854077	6.695497	-0.086831	-0.140665	0.036733	-0.739502	0.067627	-0.205811
1184.0	7.212359	-2.298093	6.620793	-0.207789	-0.16018	0.10101	-0.743652	0.06543	-0.205811
1185.0	7.247276	-2.734743	6.399034	-0.191552	-0.155072	0.117349	-0.741699	0.071777	-0.199219
1186.0	7.158386	-2.953782	6.30023	-0.179773	-0.141678	0.115578	-0.74585	0.06543	-0.203613
1187.0	7.144062	-2.857236	6.36255	-0.157281	-0.140152	0.110853	-0.746094	0.06958	-0.197266
1188.0	7.09694	-2.879788	6.334655	-0.149569	-0.132625	0.111258	-0.748291	0.071777	-0.197266
1189.0	7.101763	-2.799033	6.375897	-0.131066	-0.136343	0.110743	-0.752686	0.06958	-0.201416
1190.0	7.081344	-2.636624	6.488991	-0.13243	-0.148209	0.123622	-0.746338	0.078125	-0.199463
1191.0	7.086078	-2.674873	6.48824	-0.14247	-0.160033	0.138422	-0.748535	0.078125	-0.190674
1192.0	7.026097	-3.006858	6.39751	-0.14626	-0.175604	0.142435	-0.746338	0.078125	-0.188477
1193.0	7.056948	-3.127272	6.321774	-0.13779	-0.188594	0.135408	-0.746338	0.078125	-0.192871
1194.0	7.059203	-3.254855	6.228715	-0.125077	-0.194206	0.12003	-0.746338	0.078125	-0.188477
1195.0	7.072426	-3.306551	6.114238	-0.115657	-0.196439	0.092572	-0.748535	0.080322	-0.190674
1196.0	7.104268	-3.199101	6.102353	-0.095188	-0.182061	0.073726	-0.750488	0.075928	-0.186279
1197.0	7.139215	-2.973272	6.133455	-0.104163	-0.181694	0.065443	-0.748535	0.075928	-0.186279
1198.0	7.03207	-2.74162	6.376147	-0.186202	-0.181541	0.065713	-0.753174	0.088867	-0.184326
1199.0	7.190356	-3.405659	5.8111	-0.238823	-0.192653	0.050605	-0.748779	0.084473	-0.186523
1200.0	7.158576	-3.027181	6.022735	-0.231403	-0.172459	0.040404	-0.748779	0.08667	-0.184326
1201.0	7.192485	-3.179575	5.847114	-0.204469	-0.150729	0.032271	-0.753174	0.086426	-0.175537
1202.0	7.134669	-3.290753	5.851945	-0.192194	-0.132815	0.015462	-0.755371	0.088623	-0.177734
1203.0	7.129193	-3.470904	5.800916	-0.155209	-0.11058	-0.01543	-0.755371	0.086426	-0.177734
1204.0	7.119689	-3.439348	5.79917	-0.129127	-0.091357	-0.047681	-0.755371	0.084473	-0.177734
1205.0	7.14186	-3.424088	5.862509	-0.120882	-0.074513	-0.080732	-0.755371	0.088623	-0.171387
1206.0	7.126968	-3.39871	5.844536	-0.10021	-0.055233	-0.118079	-0.750977	0.086426	-0.175537
1207.0	7.142077	-3.485553	5.834088	-0.090236	-0.037773	-0.152605	-0.750977	0.086426	-0.164795
1208.0	7.167124	-3.220008	5.957732	-0.071082	-0.017074	-0.185649	-0.755371	0.08667	-0.179932
1209.0	7.227346	-3.356846	5.825134	-0.074367	-0.007477	-0.215291	-0.748779	0.088623	-0.17334
1210.0	7.230643	-3.336789	5.789688	-0.075362	0.020559	-0.247185	-0.750732	0.077881	-0.171143
1211.0	7.225985	-3.272428	5.820319	-0.085094	0.04935	-0.278359	-0.750732	0.077881	-0.177734
1212.0	7.231191	-3.181701	5.892688	-0.119431	0.078998	-0.311714	-0.748535	0.077881	-0.179932
1213.0	7.144894	-3.254545	5.885189	-0.182754	0.101325	-0.341035	-0.752686	0.07373	-0.184082
1214.0	7.12253	-3.299253	5.92947	-0.274345	0.131056	-0.396762	-0.752686	0.071533	-0.186279
1215.0	7.028457	-3.539692	6.024292	-0.367657	0.158399	-0.479889	-0.750244	0.064941	-0.177734
1216.0	7.061984	-3.325351	6.299167	-0.563762	0.200884	-0.619154	-0.752197	0.062988	-0.181885
1217.0	6.834587	-3.857808	6.382494	-0.949309	0.253895	-0.820548	-0.75	0.062988	-0.186279
1218.0	6.769184	-4.477925	6.33373	-1.41279	0.321075	-1.083776	-0.749756	0.054443	-0.184082
1219.0	6.81692	-4.314148	6.405643	-1.82399	0.379124	-1.361673	-0.749512	0.047852	-0.188477
1220.0	6.903837	-4.499751	6.111897	-2.228479	0.439386	-1.628299	-0.744873	0.039551	-0.192627
1221.0	6.997916	-4.097663	6.113188	-2.528019	0.505309	-1.859583	-0.744629	0.032959	-0.197021
1222.0	7.125841	-4.246957	5.78542	-2.81579	0.561746	-2.046155	-0.746338	0.022217	-0.194824
1223.0	7.156277	-3.946911	5.80744	-2.991918	0.623325	-2.211798	-0.748047	0.011719	-0.205566
1224.0	7.237097	-3.972613	5.573598	-3.131982	0.664611	-2.332901	-0.745605	0.003174	-0.211914
1225.0	7.258162	-3.704468	5.659829	-3.150327	0.684343	-2.418628	-0.74292	-0.009521	-0.222656
1226.0	7.231423	-3.5819	5.81628	-3.169305	0.67249	-2.455318	-0.740479	-0.020264	-0.229248
1227.0	7.338714	-2.995577	6.043942	-3.109368	0.640272	-2.475255	-0.737793	-0.033203	-0.233398
1228.0	7.396236	-2.865643	6.106669	-3.137502	0.583817	-2.44495	-0.73291	-0.048096	-0.235596
1229.0	7.505904	-2.638167	6.143769	-3.106916	0.528613	-2.409254	-0.732666	-0.054443	-0.246338
1230.0	7.430196	-2.543837	6.205082	-3.112536	0.472155	-2.362829	-0.730225	-0.060791	-0.248535
1231.0	7.447317	-2.746275	6.144715	-3.151123	0.404178	-2.321506	-0.729736	-0.071533	-0.254883
1232.0	7.454408	-2.437418	6.302961	-3.234792	0.343548	-2.308165	-0.725342	-0.071533	-0.25708
1233.0	7.632385	-2.441642	6.214285	-3.397	0.302723	-2.30395	-0.718506	-0.082031	-0.267822
1234.0	7.559686	-2.426351	6.267968	-3.648686	0.264525	-2.309401	-0.718262	-0.090576	-0.278564
1235.0	7.56626	-2.432081	6.411208	-3.842105	0.206072	-2.305547	-0.716064	-0.090576	-0.278564
1236.0	7.526043	-2.147165	6.758178	-4.139474	0.123374	-2.296247	-0.717773	-0.101318	-0.282959
1237.0	7.150062	-3.497736	6.664625	-4.528353	-0.010418	-2.32384	-0.713379	-0.101074	-0.287354
1238.0	7.209662	-4.053436	7.224633	-4.516586	-0.21572	-2.493116	-0.713379	-0.105469	-0.291504
1239.0	6.971714	-3.171273	7.964387	-4.919639	-0.514269	-2.610518	-0.708984	-0.107422	-0.291504
1240.0	7.038825	-3.340186	7.784132	-5.269336	-0.822757	-2.759009	-0.710693	-0.114014	-0.282959
1241.0	6.846481	-2.988402	7.865405	-5.754998	-1.20137	-2.919822	-0.712891	-0.118408	-0.287109
1242.0	6.451248	-3.729408	7.504284	-6.154451	-1.666521	-3.051775	-0.710449	-0.120605	-0.280762
1243.0	6.279934	-5.669174	6.216475	-6.294189	-2.258419	-3.194041	-0.716797	-0.127197	-0.271973
1244.0	6.867787	-4.415406	6.149542	-6.209423	-2.879052	-3.210047	-0.727539	-0.131592	-0.259033
1245.0	8.381577	-3.479209	7.369505	-6.651193	-3.484565	-3.0612	-0.727295	-0.13623	-0.239502
1246.0	13.54687	-5.778137	6.865337	-6.827386	-3.756162	-2.917445	-0.735596	-0.14502	-0.224365
1247.0	16.535155	-6.710358	5.500956	-6.089639	-3.298272	-3.097432	-0.737061	-0.1604	-0.211182
1248.0	14.544798	-4.661854	5.694934	-5.460857	-2.916806	-3.325928	-0.740967	-0.171387	-0.196045
1249.0	13.365048	-3.171116	5.755634	-5.423887	-2.821892	-3.345392	-0.738037	-0.192871	-0.185059
1250.0	13.332346	-4.004822	5.542315	-5.570071	-2.633589	-3.354964	-0.737549	-0.205811	-0.182861
1251.0	13.56621	-3.707939	5.764881	-5.397773	-2.349217	-3.380238	-0.734619	-0.220947	-0.178467
1252.0	13.839171	-2.912177	5.765023	-5.367949	-2.027931	-3.287576	-0.738281	-0.240479	-0.169678
1253.0	13.26956	-2.543945	6.641272	-5.493633	-1.602371	-3.059589	-0.733398	-0.255371	-0.18042
1254.0	8.3648	-6.845803	10.417425	-5.246421	-0.579695	-2.582117	-0.72876	-0.265869	-0.195557
1255.0	8.971922	-8.160286	11.051202	-3.960657	0.532504	-1.802968	-0.730469	-0.274414	-0.199707
1256.0	7.066695	-4.846351	12.801835	-3.060355	1.793833	-1.013063	-0.728271	-0.278564	-0.223633
1257.0	1.611147	-3.089707	11.327206	-3.057913	1.858509	-0.13164	-0.728516	-0.276123	-0.245361
1258.0	0.647114	-1.995282	10.711514	-2.76492	1.693193	0.411005	-0.730713	-0.271484	-0.266846
1259.0	1.923791	-0.576325	11.110848	-2.49422	1.614763	0.808813	-0.735596	-0.260498	-0.280029
1260.0	3.161927	1.644212	12.062223	-2.282831	1.754394	1.137009	-0.740479	-0.247314	-0.303955
1261.0	3.599827	3.602046	12.753157	-2.23296	2.015832	1.361977	-0.740967	-0.238281	-0.330078
1262.0	3.513635	5.428789	13.199282	-2.32383	2.334797	1.422655	-0.748047	-0.225098	-0.358154
1263.0	4.178115	6.873142	13.315831	-2.597356	2.681078	1.31551	-0.750977	-0.20752	-0.390869
1264.0	4.952149	7.159175	13.329649	-2.858752	3.064757	1.136166	-0.739014	-0.183105	-0.427734
1265.0	5.291525	6.984614	13.130673	-2.957764	3.431035	0.92395	-0.73291	-0.174072	-0.4646
1266.0	5.810948	6.675836	13.018368	-2.933771	3.71074	0.7243	-0.722656	-0.15625	-0.514648
1267.0	6.89684	6.452269	13.004846	-2.81785	3.92852	0.571453	-0.708496	-0.131836	-0.549316
1268.0	7.749225	6.602733	12.70832	-2.700227	4.149588	0.494501	-0.694092	-0.114014	-0.594971
1269.0	8.300849	6.259334	11.966307	-2.630743	4.317603	0.410901	-0.666748	-0.087646	-0.63623
1270.0	8.631061	5.738757	11.103354	-2.540469	4.410564	0.297477	-0.635498	-0.058838	-0.67749
1271.0	9.069912	5.06144	10.28489	-2.457222	4.432143	0.162503	-0.599365	-0.036865	-0.712158
1272.0	9.545883	4.267378	9.800974	-2.346213	4.39326	0.060232	-0.559082	-0.008057	-0.753418
1273.0	10.191103	3.599902	9.489919	-2.204726	4.346232	0.011928	-0.516602	0.018066	-0.764404
1274.0	10.635046	2.790465	9.01102	-2.101842	4.317945	0.010807	-0.469971	0.046387	-0.78833
1275.0	10.449301	1.614128	8.571312	-1.956439	4.277204	0.039863	-0.429443	0.070557	-0.799072
1276.0	10.201765	0.947055	8.316923	-1.751307	4.166783	0.107227	-0.393311	0.090088	-0.803467
1277.0	10.015639	0.743891	8.224967	-1.595468	4.03444	0.226085	-0.348145	0.105225	-0.803467
1278.0	10.025779	1.137288	8.391729	-1.535881	3.875527	0.370338	-0.325439	0.135254	-0.792725
1279.0	10.682857	1.623104	8.40062	-1.678075	3.738262	0.487727	-0.291016	0.150391	-0.781982
1280.0	11.389214	1.138009	7.775043	-1.906876	3.643787	0.53547	-0.27417	0.165283	-0.77124
1281.0	12.065381	-0.203597	6.878925	-1.961657	3.573441	0.499412	-0.259521	0.182373	-0.762695
1282.0	12.427853	-0.739696	6.069276	-1.797089	3.518846	0.428258	-0.242676	0.193115	-0.756104
1283.0	12.437872	-0.717717	5.381068	-1.663504	3.442359	0.387161	-0.234375	0.203857	-0.749756
1284.0	12.35979	0.135848	4.930885	-1.569628	3.311088	0.399572	-0.223877	0.216797	-0.749756
1285.0	12.46205	0.536585	4.271791	-1.656271	3.142126	0.463501	-0.224365	0.227539	-0.749756
1286.0	12.955978	-0.375292	3.422404	-1.68541	2.945986	0.464179	-0.211914	0.245117	-0.758545
1287.0	13.66842	-0.700833	2.64028	-1.585008	2.789878	0.353734	-0.210205	0.255859	-0.756348
1288.0	14.311705	-0.07577	1.930478	-1.576892	2.601907	0.247072	-0.202148	0.269043	-0.782471
1289.0	14.503005	0.92708	0.96983	-1.677316	2.357789	0.175315	-0.189941	0.290527	-0.782471
1290.0	14.758867	1.905873	-0.201558	-1.906522	2.008211	0.138196	-0.181641	0.305908	-0.795654
1291.0	15.11079	2.522193	-1.763482	-2.160687	1.597759	0.120351	-0.184814	0.325439	-0.804443
1292.0	15.610945	2.183408	-3.54133	-2.275076	1.132593	0.123704	-0.183594	0.353271	-0.795898
1293.0	16.751174	0.485569	-5.328584	-2.019441	0.639045	0.104398	-0.177734	0.372803	-0.808838
1294.0	18.296875	-0.723424	-6.460861	-1.284759	0.23967	0.033291	-0.182617	0.385498	-0.804688
1295.0	18.812771	-1.34876	-6.655275	-0.379322	-0.166709	-0.180002	-0.189453	0.39209	-0.81543
1296.0	17.524309	2.840136	-8.664541	0.830287	-0.777027	-0.509568	-0.202148	0.37915	-0.819824
1297.0	16.485975	3.609017	-8.033324	0.909033	-1.155517	-0.776311	-0.221191	0.368408	-0.826416
1298.0	5.984055	-0.077624	15.207319	-0.067985	-1.331104	-0.38142	-0.232422	0.37915	-0.826416
1299.0	-12.367264	-11.747113	19.525407	0.846354	-1.688262	-0.885772	-0.264404	0.359863	-0.830566
1300.0	6.918547	8.252564	4.947275	0.343531	-3.613977	-2.040282	-0.299561	0.368164	-0.830811
1301.0	22.831584	-1.686156	11.806689	-0.947583	-2.428796	-1.562976	-0.327881	0.365723	-0.817871
1302.0	10.283422	-2.893454	8.22335	-0.058364	-1.583343	-1.166308	-0.345215	0.363525	-0.817871
1303.0	5.482874	-6.088363	5.944025	-0.328894	-1.733748	-1.025961	-0.360352	0.363525	-0.822266
1304.0	4.579815	-2.448323	6.686465	-0.164996	-1.918581	-0.846796	-0.386475	0.361328	-0.813477
1305.0	13.179075	-5.323368	9.086969	-0.517402	-2.084635	-0.897607	-0.4104	0.365479	-0.809326
1306.0	17.187669	-6.447208	3.550104	0.76568	-0.635871	-0.941883	-0.414307	0.352539	-0.811279
1307.0	8.430429	-4.589938	6.221573	0.616469	-0.654739	-0.608572	-0.420898	0.350342	-0.813477
1308.0	8.792534	-1.442013	7.850134	0.648286	-0.478086	-0.607693	-0.429199	0.341797	-0.822266
1309.0	9.214527	-5.024964	5.43902	0.512413	-0.358422	-0.486274	-0.43335	0.335449	-0.826416
