Acquisition frequency: 100 Hz
PacketCounter	Acc_X	Acc_Y	Acc_Z	Gyr_X	Gyr_Y	Gyr_Z	Mag_X	Mag_Y	Mag_Z
0.0	5.957724	2.615707	8.223058	-0.003817	0.017999	-0.017327	-0.375244	-0.026123	-0.342529
1.0	5.93528	2.60414	8.229076	-0.010205	0.014185	-0.020616	-0.381836	-0.023926	-0.335693
2.0	5.954321	2.616556	8.225252	-0.009783	0.012364	-0.016914	-0.381836	-0.023926	-0.337891
3.0	5.950884	2.606617	8.193369	-0.013005	0.014422	-0.018292	-0.377441	-0.023926	-0.340332
4.0	5.969915	2.618535	8.189727	-0.020002	0.012193	-0.019943	-0.384033	-0.023926	-0.337891
5.0	5.957983	2.596732	8.216088	-0.02324	0.010225	-0.020253	-0.377441	-0.023926	-0.335693
6.0	5.975495	2.598093	8.179389	-0.025864	0.006665	-0.022204	-0.379883	-0.021729	-0.335693
7.0	6.017365	2.631763	8.203769	-0.02157	0.009243	-0.020896	-0.38208	-0.021729	-0.340332
8.0	5.958199	2.645171	8.24009	-0.023128	0.010324	-0.022919	-0.38623	-0.021729	-0.340332
9.0	5.994042	2.618645	8.210906	-0.020947	0.007645	-0.022535	-0.379883	-0.021729	-0.342529
10.0	5.933183	2.621999	8.214112	-0.021657	0.009115	-0.018223	-0.377686	-0.021729	-0.340332
11.0	5.93225	2.621347	8.214993	-0.019496	0.002417	-0.016776	-0.379883	-0.021729	-0.344971
12.0	5.991109	2.616873	8.213611	-0.022614	0.004581	-0.020821	-0.377686	-0.021729	-0.338135
13.0	5.969454	2.604145	8.219379	-0.018941	0.008753	-0.017871	-0.379639	-0.023926	-0.337891
14.0	5.998931	2.606963	8.235805	-0.011948	0.010987	-0.016215	-0.377686	-0.019531	-0.338135
15.0	5.987414	2.616291	8.21649	-0.006001	0.012604	-0.015553	-0.379639	-0.026123	-0.337891
16.0	5.945028	2.622617	8.181812	-0.007231	0.015777	-0.012269	-0.379639	-0.026123	-0.335693
17.0	5.955359	2.623598	8.236199	-0.008274	0.015156	-0.013263	-0.377686	-0.021729	-0.335693
18.0	5.96211	2.604724	8.224525	-0.005566	0.014805	-0.012915	-0.379639	-0.026123	-0.340332
19.0	5.979333	2.607296	8.187752	-0.003475	0.016041	-0.010925	-0.377686	-0.017334	-0.333496
20.0	5.960781	2.615442	8.259552	-0.004946	0.013214	-0.014556	-0.379883	-0.019531	-0.335693
21.0	5.988178	2.60914	8.242938	-0.002751	0.014564	-0.015234	-0.375244	-0.023926	-0.340332
22.0	5.966311	2.627962	8.203405	-0.004411	0.01553	-0.014587	-0.379639	-0.026123	-0.342529
23.0	5.972972	2.609308	8.191752	-0.00607	0.016495	-0.01394	-0.379639	-0.023926	-0.337891
24.0	5.960929	2.58824	8.217863	-0.010775	0.011696	-0.017888	-0.384033	-0.023926	-0.340332
25.0	5.971867	2.619604	8.226742	-0.011408	0.009261	-0.015187	-0.379883	-0.019531	-0.340332
26.0	5.958365	2.588089	8.21977	-0.017329	0.011652	-0.016911	-0.379883	-0.021729	-0.340332
27.0	5.970865	2.629022	8.261921	-0.015133	0.013002	-0.017589	-0.384033	-0.021729	-0.333496
28.0	5.975989	2.599793	8.217313	-0.017216	0.011758	-0.019579	-0.379883	-0.021729	-0.338135
29.0	5.96274	2.598733	8.165126	-0.015658	0.010676	-0.017555	-0.381836	-0.023926	-0.337891
30.0	5.971525	2.589097	8.186522	-0.02117	0.01125	-0.015585	-0.379883	-0.021729	-0.335693
31.0	5.951306	2.586056	8.225522	-0.021059	0.011359	-0.018252	-0.377686	-0.021729	-0.342529
32.0	5.977185	2.568548	8.176226	-0.027926	0.009217	-0.022584	-0.381836	-0.026123	-0.340332
33.0	5.95939	2.60557	8.202827	-0.033677	-0.00023	-0.026476	-0.375244	-0.023926	-0.335693
34.0	5.935951	2.551524	8.220806	-0.037503	0.003387	-0.026205	-0.379639	-0.023926	-0.342529
35.0	5.95738	2.572047	8.250226	-0.04582	-0.001593	-0.03417	-0.377441	-0.023926	-0.340332
36.0	5.956876	2.600602	8.206229	-0.051829	0.000657	-0.033221	-0.384033	-0.023926	-0.331055
37.0	5.964152	2.579453	8.194937	-0.050647	0.005394	-0.03594	-0.377686	-0.021729	-0.333496
38.0	5.974843	2.608853	8.204675	-0.048442	0.006736	-0.036611	-0.377686	-0.021729	-0.342529
39.0	5.991747	2.57916	8.21379	-0.041972	0.010685	-0.035965	-0.379639	-0.026123	-0.340332
40.0	5.981213	2.597026	8.228488	-0.03664	0.017917	-0.034696	-0.379639	-0.026123	-0.337891
41.0	5.988958	2.618113	8.205637	-0.027767	0.023465	-0.040057	-0.379883	-0.021729	-0.342529
42.0	6.002545	2.549536	8.227335	-0.022264	0.028659	-0.029762	-0.383789	-0.030518	-0.337891
43.0	5.972198	2.597115	8.235005	-0.010296	0.032067	-0.031082	-0.377441	-0.023926	-0.333496
44.0	5.95663	2.567051	8.228997	-0.003328	0.034334	-0.02941	-0.375244	-0.026123	-0.340332
45.0	5.966698	2.640415	8.227426	0.000334	0.042529	-0.027487	-0.375244	-0.023926	-0.335693
46.0	5.989558	2.594766	8.224651	-0.002057	0.04494	-0.022525	-0.379883	-0.019531	-0.338135
47.0	5.954199	2.562366	8.256905	0.005029	0.047321	-0.023514	-0.381836	-0.026123	-0.333496
48.0	5.978925	2.557859	8.241938	0.010535	0.042747	-0.024429	-0.379395	-0.02832	-0.337891
49.0	5.998617	2.623072	8.260627	0.01596	0.046083	-0.024768	-0.38208	-0.021729	-0.333496
50.0	5.945119	2.650538	8.239784	0.014173	0.042903	-0.020407	-0.379639	-0.023926	-0.335693
51.0	5.971785	2.65588	8.257606	0.011754	0.041307	-0.014402	-0.377441	-0.026123	-0.335693
52.0	5.95593	2.626443	8.251619	0.009306	0.041852	-0.020086	-0.379883	-0.021729	-0.340332
53.0	5.943544	2.64705	8.266628	0.004813	0.03901	-0.016081	-0.375244	-0.023926	-0.335693
54.0	5.927948	2.617063	8.260622	0.004821	0.039002	-0.016079	-0.379639	-0.026123	-0.340332
55.0	5.96558	2.643091	8.253526	0.004683	0.034877	-0.012365	-0.377441	-0.023926	-0.337891
56.0	5.960607	2.603805	8.267464	0.005824	0.031602	-0.012984	-0.375244	-0.026123	-0.340332
57.0	5.937502	2.623215	8.228694	0.001592	0.032992	-0.015361	-0.377441	-0.026123	-0.335693
58.0	5.94456	2.615011	8.250844	-9e-05	0.029936	-0.013671	-0.377441	-0.023926	-0.335693
59.0	5.941667	2.615926	8.252637	0.002108	0.031291	-0.014335	-0.377441	-0.023926	-0.340332
60.0	5.928834	2.625843	8.234104	-0.003307	0.027942	-0.014004	-0.377441	-0.026123	-0.337891
61.0	5.946215	2.608414	8.27637	0.000151	0.02614	-0.017953	-0.377441	-0.023926	-0.331055
62.0	5.925073	2.637447	8.270303	-0.000501	0.023713	-0.015265	-0.377197	-0.030518	-0.340088
63.0	5.932737	2.629004	8.29208	-0.003321	0.023928	-0.012957	-0.373047	-0.023926	-0.337891
64.0	5.920952	2.669254	8.228095	-0.005384	0.022674	-0.014957	-0.377441	-0.023926	-0.337891
65.0	5.9269	2.620088	8.261931	-0.004878	0.020984	-0.013934	-0.37085	-0.023926	-0.340332
66.0	5.954067	2.613713	8.24606	-0.009893	0.019839	-0.010964	-0.375488	-0.021729	-0.331299
67.0	5.883704	2.635833	8.261717	-0.009633	0.020055	-0.016293	-0.375244	-0.023926	-0.340332
68.0	5.912208	2.639143	8.278964	-0.009888	0.019833	-0.010962	-0.377441	-0.023926	-0.340332
69.0	5.948237	2.613539	8.250321	-0.010415	0.017518	-0.010941	-0.375244	-0.02832	-0.335693
70.0	5.896822	2.607459	8.273337	-0.008749	0.016564	-0.011582	-0.377441	-0.026123	-0.340332
71.0	5.943577	2.603576	8.219711	-0.009779	0.015937	-0.012583	-0.379639	-0.026123	-0.340332
72.0	5.914212	2.619752	8.271124	-0.009804	0.011937	-0.01154	-0.377686	-0.017334	-0.338135
73.0	5.931444	2.591703	8.279723	-0.008111	0.014982	-0.013223	-0.377441	-0.023926	-0.333496
74.0	5.929778	2.591825	8.280879	-0.00861	0.016665	-0.014244	-0.381836	-0.026123	-0.340332
75.0	5.936893	2.573027	8.269218	-0.007605	0.013292	-0.0122	-0.375488	-0.019531	-0.338135
76.0	5.937299	2.61396	8.258063	-0.004012	0.011608	-0.018811	-0.379639	-0.023926	-0.340332
77.0	5.915337	2.602282	8.263327	-0.004009	0.011606	-0.018811	-0.37085	-0.026123	-0.337891
78.0	5.90579	2.652585	8.231741	-0.00517	0.010868	-0.017148	-0.379639	-0.026123	-0.340332
79.0	5.912584	2.603566	8.264894	-0.004138	0.011493	-0.016145	-0.377686	-0.021729	-0.342529
80.0	5.921677	2.625772	8.240939	-0.005667	0.012549	-0.018168	-0.375244	-0.026123	-0.337891
81.0	5.93019	2.617162	8.262156	-0.006829	0.011812	-0.016505	-0.377441	-0.026123	-0.335693
82.0	5.917467	2.616674	8.209766	-0.010791	0.015283	-0.01358	-0.379639	-0.023926	-0.340332
83.0	5.917356	2.626434	8.243831	-0.006593	0.009908	-0.010155	-0.373291	-0.021729	-0.338135
84.0	5.926061	2.617446	8.265028	-0.009517	0.012128	-0.016865	-0.379639	-0.023926	-0.333496
85.0	5.943921	2.620313	8.228461	-0.00862	0.012645	-0.013198	-0.375244	-0.023926	-0.342529
86.0	5.892727	2.614111	8.251179	-0.011948	0.014539	-0.011917	-0.381836	-0.023926	-0.349365
87.0	5.93046	2.598403	8.255436	-0.010281	0.013589	-0.012557	-0.375244	-0.023926	-0.340332
88.0	5.920339	2.617171	8.269215	-0.009779	0.011904	-0.011535	-0.375488	-0.019531	-0.342529
89.0	5.90897	2.626266	8.249898	-0.010141	0.013694	-0.015219	-0.377686	-0.019531	-0.338135
90.0	5.929026	2.648334	8.279805	-0.014104	0.01716	-0.012294	-0.373047	-0.023926	-0.337891
91.0	5.915868	2.616818	8.272526	-0.008501	0.00875	-0.014821	-0.379639	-0.023926	-0.340332
92.0	5.952676	2.591524	8.243478	-0.011437	0.012843	-0.010893	-0.375244	-0.023926	-0.340332
93.0	5.922111	2.597658	8.261662	-0.010798	0.011267	-0.012536	-0.377441	-0.026123	-0.333496
94.0	5.922642	2.638112	8.250583	-0.009132	0.010319	-0.013176	-0.373291	-0.021729	-0.344971
95.0	5.93901	2.600411	8.225897	-0.00913	0.010318	-0.013176	-0.379883	-0.021729	-0.340332
96.0	5.9085	2.606704	8.243974	-0.009766	0.01189	-0.011531	-0.379639	-0.023926	-0.337891
97.0	5.908282	2.616375	8.278086	-0.012179	0.012422	-0.017221	-0.377686	-0.021729	-0.338135
98.0	5.906925	2.61629	8.279081	-0.011817	0.01063	-0.013537	-0.377686	-0.019531	-0.335693
99.0	5.913377	2.587739	8.234045	-0.006432	0.009994	-0.01281	-0.375244	-0.023926	-0.335693
100.0	5.933759	2.60996	8.263675	-0.011425	0.012828	-0.010889	-0.377197	-0.02832	-0.340088
101.0	5.910785	2.58758	8.235957	-0.009618	0.011989	-0.014192	-0.377441	-0.023926	-0.337891
102.0	5.931032	2.609894	8.265654	-0.00859	0.012616	-0.013188	-0.375488	-0.021729	-0.342529
103.0	5.948959	2.612891	8.229137	-0.008448	0.012722	-0.01585	-0.375488	-0.019531	-0.338135
104.0	5.897693	2.606903	8.251645	-0.006394	0.013978	-0.013842	-0.375244	-0.023926	-0.340332
105.0	5.947111	2.622966	8.264277	-0.01025	0.013554	-0.012547	-0.377441	-0.023926	-0.337891
106.0	5.925254	2.610357	8.269651	-0.01166	0.010722	-0.016198	-0.377686	-0.019531	-0.340332
107.0	5.953288	2.60428	8.253362	-0.006277	0.010091	-0.015469	-0.373291	-0.019531	-0.338135
108.0	5.912594	2.620033	8.251089	-0.00791	0.015022	-0.015862	-0.377441	-0.026123	-0.335693
109.0	5.941539	2.623704	8.268049	-0.008963	0.010401	-0.015833	-0.375488	-0.021729	-0.340332
110.0	5.899131	2.598804	8.277727	-0.007906	0.015017	-0.01586	-0.375488	-0.021729	-0.335693
111.0	5.928123	2.60238	8.294685	-0.010127	0.00966	-0.014174	-0.373291	-0.021729	-0.338135
112.0	5.925809	2.592807	8.262409	-0.007932	0.011025	-0.014827	-0.372803	-0.032471	-0.340088
113.0	5.943756	2.595939	8.225911	-0.009949	0.013752	-0.017867	-0.373047	-0.023926	-0.335693
114.0	5.922815	2.593574	8.264315	-0.001878	0.012814	-0.016772	-0.377441	-0.026123	-0.340332
115.0	5.923119	2.634451	8.253289	-0.011784	0.010593	-0.013533	-0.379639	-0.026123	-0.335693
116.0	5.939509	2.597034	8.228632	-0.006611	0.011862	-0.019145	-0.375488	-0.021729	-0.338135
117.0	5.927544	2.575806	8.254179	-0.006754	0.011752	-0.016482	-0.377686	-0.019531	-0.342529
118.0	5.958171	2.620248	8.259191	-0.005729	0.012381	-0.015477	-0.377441	-0.023926	-0.340332
119.0	5.926393	2.617033	8.244089	-0.009585	0.011952	-0.014185	-0.373047	-0.023926	-0.337891
120.0	5.935075	2.608022	8.26529	-0.007421	0.009331	-0.013806	-0.375244	-0.023926	-0.337891
121.0	5.893547	2.613633	8.229804	-0.012417	0.012151	-0.011887	-0.377441	-0.023926	-0.337891
122.0	5.951942	2.61107	8.229658	-0.004056	0.011435	-0.016113	-0.377686	-0.021729	-0.338135
123.0	5.940947	2.599244	8.288431	-0.010717	0.015192	-0.013556	-0.377686	-0.019531	-0.340332
124.0	5.938636	2.589815	8.256156	-0.005105	0.006815	-0.016088	-0.379395	-0.02832	-0.335693
125.0	5.91868	2.618115	8.249285	-0.008931	0.01037	-0.015827	-0.377441	-0.023926	-0.335693
126.0	5.926288	2.599562	8.237362	-0.005863	0.012261	-0.01281	-0.375732	-0.017334	-0.338135
127.0	5.936497	2.631232	8.246723	-0.007905	0.010997	-0.01482	-0.373291	-0.021729	-0.335693
128.0	5.914724	2.618738	8.251924	-0.009569	0.011934	-0.014181	-0.375488	-0.021729	-0.340332
129.0	5.901809	2.587292	8.244433	-0.010212	0.013503	-0.012536	-0.373047	-0.026123	-0.335693
130.0	5.911313	2.587762	8.29893	-0.009565	0.011931	-0.01418	-0.377441	-0.023926	-0.340332
131.0	5.948864	2.593561	8.225142	-0.013045	0.013698	-0.01024	-0.373047	-0.02832	-0.337891
132.0	5.92818	2.590497	8.263453	-0.006755	0.007744	-0.015446	-0.375244	-0.023926	-0.335693
133.0	5.917059	2.599857	8.243901	-0.008539	0.012557	-0.013172	-0.375244	-0.026123	-0.337891
134.0	5.927132	2.63144	8.25339	-0.008387	0.012662	-0.015833	-0.375244	-0.023926	-0.340332
135.0	5.934676	2.612821	8.241563	-0.009556	0.011922	-0.014177	-0.375244	-0.02832	-0.342529
136.0	5.912939	2.600118	8.246774	-0.010726	0.011181	-0.012522	-0.379639	-0.026123	-0.335693
137.0	5.932912	2.622386	8.276677	-0.008007	0.014858	-0.01318	-0.377441	-0.023926	-0.337891
138.0	5.909907	2.600209	8.248919	-0.010539	0.015266	-0.016208	-0.375488	-0.021729	-0.340332
139.0	5.929895	2.622565	8.278782	-0.00652	0.009829	-0.010131	-0.373291	-0.021729	-0.335693
140.0	5.936691	2.594166	8.233742	-0.011213	0.012848	-0.013537	-0.375	-0.030518	-0.333252
141.0	5.936206	2.603652	8.267946	-0.011211	0.012846	-0.013536	-0.375244	-0.026123	-0.335693
142.0	5.92496	2.61268	8.248595	-0.009695	0.011802	-0.011513	-0.375244	-0.026123	-0.344727
143.0	5.903288	2.59997	8.253732	-0.008028	0.010865	-0.012151	-0.373047	-0.023926	-0.340332
144.0	5.941307	2.584821	8.257965	-0.00852	0.012538	-0.013166	-0.377441	-0.023926	-0.340332
145.0	5.910443	2.590954	8.276006	-0.01003	0.013578	-0.015188	-0.373291	-0.019531	-0.335693
146.0	5.939897	2.625654	8.248221	-0.007343	0.013274	-0.014819	-0.379883	-0.019531	-0.342529
147.0	5.947645	2.607059	8.236278	-0.008546	0.008552	-0.012142	-0.375488	-0.021729	-0.328857
148.0	5.915998	2.603671	8.22105	-0.007833	0.014944	-0.015833	-0.38208	-0.019531	-0.340332
149.0	5.934287	2.585542	8.262786	-0.009529	0.011896	-0.014171	-0.38208	-0.021729	-0.342529
150.0	5.943458	2.607574	8.239138	-0.004807	0.01286	-0.011787	-0.377686	-0.021729	-0.338135
151.0	5.912515	2.613899	8.257134	-0.007827	0.014938	-0.015831	-0.377441	-0.026123	-0.335693
152.0	5.910027	2.604428	8.225104	-0.010665	0.01513	-0.01354	-0.379639	-0.026123	-0.340332
153.0	5.93983	2.617739	8.275346	-0.00366	0.009616	-0.012416	-0.375488	-0.021729	-0.338135
154.0	5.937675	2.608521	8.243007	-0.007328	0.013259	-0.014815	-0.377441	-0.023926	-0.335693
155.0	5.897609	2.633431	8.273879	-0.010503	0.015229	-0.016199	-0.377441	-0.023926	-0.335693
156.0	5.933868	2.577864	8.290075	-0.007324	0.013255	-0.014814	-0.377686	-0.021729	-0.338135
157.0	5.933051	2.609155	8.246135	-0.008339	0.012619	-0.015821	-0.377686	-0.019531	-0.335693
158.0	5.921705	2.618571	8.226743	-0.00732	0.013251	-0.014812	-0.379639	-0.023926	-0.335693
159.0	5.919541	2.587607	8.272711	-0.012685	0.013845	-0.015552	-0.375244	-0.023926	-0.331055
160.0	5.909651	2.63752	8.241625	-0.005649	0.012316	-0.015449	-0.373291	-0.021729	-0.340332
161.0	5.916722	2.587806	8.274665	-0.01438	0.010794	-0.013894	-0.375244	-0.023926	-0.337891
162.0	5.935083	2.590733	8.238297	-0.011695	0.010495	-0.013523	-0.379639	-0.023926	-0.342529
163.0	5.92487	2.609387	8.251942	-0.006488	0.009795	-0.010121	-0.377441	-0.023926	-0.337891
164.0	5.912333	2.577999	8.244143	-0.009501	0.011867	-0.014165	-0.377441	-0.023926	-0.333496
165.0	5.932116	2.600454	8.27412	-0.007308	0.01324	-0.014807	-0.377686	-0.021729	-0.340332
166.0	5.911043	2.618923	8.234295	-0.009006	0.010192	-0.013151	-0.38208	-0.019531	-0.342529
167.0	5.93859	2.581973	8.263119	-0.00848	0.012496	-0.013155	-0.375244	-0.023926	-0.335693
168.0	5.957675	2.59499	8.259837	-0.005144	0.010634	-0.01443	-0.377441	-0.026123	-0.340332
169.0	5.906493	2.588557	8.281734	-0.008678	0.010398	-0.018468	-0.377441	-0.023926	-0.340332
170.0	5.905805	2.620137	8.237667	-0.003965	0.011372	-0.016079	-0.375244	-0.023926	-0.335693
171.0	5.923417	2.59292	8.246002	-0.003963	0.01137	-0.016079	-0.373291	-0.021729	-0.333496
172.0	5.931125	2.574677	8.234062	-0.00831	0.012591	-0.015813	-0.379639	-0.026123	-0.337891
173.0	5.920641	2.593773	8.247728	-0.005987	0.010095	-0.018095	-0.375732	-0.017334	-0.333496
174.0	5.939699	2.607157	8.244366	-0.003958	0.011365	-0.016077	-0.379883	-0.021729	-0.342529
175.0	5.948188	2.598532	8.265559	-0.006637	0.011656	-0.016448	-0.38208	-0.021729	-0.344971
176.0	5.916457	2.595347	8.250234	-0.006112	0.013959	-0.016452	-0.379639	-0.023926	-0.340332
177.0	5.926197	2.627282	8.259861	-0.004606	0.012924	-0.014429	-0.375488	-0.021729	-0.338135
178.0	5.952991	2.581234	8.255436	-0.006141	0.009981	-0.015434	-0.375244	-0.026123	-0.344727
179.0	5.932671	2.609375	8.248724	-0.00931	0.01194	-0.016819	-0.380127	-0.015137	-0.340332
180.0	5.91086	2.596923	8.253749	-0.004602	0.012919	-0.014427	-0.377441	-0.023926	-0.333496
181.0	5.929821	2.61018	8.250518	-0.006625	0.011644	-0.016446	-0.379883	-0.019531	-0.335693
182.0	5.929037	2.620136	8.284627	-0.0061	0.013947	-0.016448	-0.377441	-0.023926	-0.337891
183.0	5.926886	2.610883	8.252404	-0.01048	0.01119	-0.015169	-0.377686	-0.019531	-0.335693
184.0	5.934696	2.592461	8.240493	-0.006619	0.011639	-0.016444	-0.377441	-0.023926	-0.340332
185.0	5.943201	2.583652	8.261731	-0.006784	0.011533	-0.013785	-0.377441	-0.023926	-0.335693
186.0	5.921906	2.602332	8.222005	-0.008083	0.016637	-0.019479	-0.377686	-0.017334	-0.340332
187.0	5.970961	2.619549	8.235093	-0.002619	0.008217	-0.019361	-0.375244	-0.023926	-0.340332
188.0	5.919685	2.613336	8.256795	-0.003409	0.013646	-0.016071	-0.375488	-0.021729	-0.342529
189.0	5.93857	2.626895	8.253549	-0.004772	0.010806	-0.019736	-0.379639	-0.023926	-0.337891
190.0	5.926634	2.605695	8.278776	-0.003759	0.011441	-0.018725	-0.379883	-0.019531	-0.338135
191.0	5.925932	2.637636	8.234668	-0.002257	0.010411	-0.016703	-0.377686	-0.021729	-0.340332
192.0	5.933139	2.588463	8.267455	-0.007614	0.010984	-0.017451	-0.379639	-0.023926	-0.340332
193.0	5.942296	2.611141	8.243764	-0.003094	0.009873	-0.02037	-0.375488	-0.019531	-0.338135
194.0	5.930418	2.589671	8.269029	-0.007429	0.013078	-0.012136	-0.373291	-0.021729	-0.344971
195.0	5.920491	2.639818	8.237882	-0.003919	0.011329	-0.016065	-0.379883	-0.019531	-0.338135
196.0	5.947267	2.594055	8.233529	-0.005904	0.01402	-0.019098	-0.377441	-0.026123	-0.337891
197.0	5.917445	2.641002	8.239691	-0.005584	0.01225	-0.015428	-0.375244	-0.023926	-0.337891
198.0	5.944901	2.604631	8.268527	-0.005411	0.01235	-0.018085	-0.38208	-0.019531	-0.344971
199.0	5.924438	2.632826	8.261811	-0.007771	0.010866	-0.014791	-0.375244	-0.023926	-0.333496
200.0	5.902111	2.61073	8.233568	-0.007248	0.013168	-0.014791	-0.379883	-0.019531	-0.342529
201.0	5.940604	2.605587	8.271314	-0.009752	0.013553	-0.017823	-0.375244	-0.026123	-0.331055
202.0	5.918145	2.583499	8.243167	-0.007245	0.013164	-0.01479	-0.377686	-0.021729	-0.340332
203.0	5.92785	2.615427	8.252801	-0.005921	0.010038	-0.018081	-0.375488	-0.021729	-0.338135
204.0	5.936514	2.606597	8.273931	-0.007448	0.009091	-0.01112	-0.379639	-0.023926	-0.333496
205.0	5.904509	2.593435	8.225258	-0.010926	0.012803	-0.016175	-0.375244	-0.023926	-0.337891
206.0	5.924605	2.625396	8.288578	-0.007759	0.010854	-0.014787	-0.377686	-0.021729	-0.342529
207.0	5.922672	2.616183	8.256278	-0.008244	0.012516	-0.015798	-0.379883	-0.021729	-0.335693
208.0	5.911404	2.625409	8.236893	-0.010087	0.013334	-0.012505	-0.379883	-0.019531	-0.342529
209.0	5.938357	2.579265	8.232625	-0.004555	0.01287	-0.014409	-0.379639	-0.026123	-0.333496
210.0	5.918535	2.61679	8.259052	-0.008272	0.008544	-0.014787	-0.379639	-0.026123	-0.337891
211.0	5.92644	2.598345	8.247182	-0.010393	0.015092	-0.016171	-0.377441	-0.023926	-0.337891
212.0	5.915729	2.617005	8.260994	-0.00893	0.010102	-0.01314	-0.38208	-0.021729	-0.338135
213.0	5.933465	2.589255	8.269569	-0.010565	0.014986	-0.013513	-0.373047	-0.023926	-0.337891
214.0	5.942569	2.611323	8.246185	-0.00792	0.010739	-0.012127	-0.377441	-0.026123	-0.340332
215.0	5.930769	2.589226	8.271512	-0.011082	0.01268	-0.013514	-0.379639	-0.023926	-0.340332
216.0	5.930143	2.620317	8.227716	-0.0116	0.010375	-0.013515	-0.379639	-0.026123	-0.344727
217.0	5.918733	2.607735	8.286303	-0.007704	0.0148	-0.01579	-0.375488	-0.021729	-0.333496
218.0	5.937156	2.611515	8.250022	-0.006244	0.009813	-0.01276	-0.379639	-0.023926	-0.342529
219.0	5.915532	2.598837	8.254855	-0.007214	0.013135	-0.014779	-0.377441	-0.026123	-0.335693
220.0	5.914168	2.598921	8.255806	-0.009581	0.011649	-0.01149	-0.379639	-0.023926	-0.344727
221.0	5.942888	2.602613	8.273276	-0.011556	0.014329	-0.014521	-0.373535	-0.017334	-0.338135
222.0	5.950755	2.584045	8.261509	-0.008393	0.012388	-0.013133	-0.373047	-0.023926	-0.337891
223.0	5.909961	2.598982	8.258799	-0.006721	0.011467	-0.013767	-0.377686	-0.019531	-0.335693
224.0	5.938762	2.602945	8.276133	-0.009395	0.011743	-0.014145	-0.375488	-0.021729	-0.340332
225.0	5.927465	2.612279	8.256746	-0.007688	0.014786	-0.015785	-0.375244	-0.026123	-0.337891
226.0	5.925952	2.612483	8.257767	-0.007381	0.013022	-0.012119	-0.377441	-0.023926	-0.335693
227.0	5.904116	2.599624	8.262776	-0.010359	0.015058	-0.016162	-0.379639	-0.026123	-0.335693
228.0	5.932317	2.594035	8.24706	-0.009568	0.011634	-0.011488	-0.379639	-0.026123	-0.342529
229.0	5.931434	2.603319	8.281269	-0.011055	0.012651	-0.013509	-0.379883	-0.021729	-0.335693
230.0	5.940565	2.625422	8.257925	-0.009383	0.011732	-0.014142	-0.377441	-0.023926	-0.337891
231.0	5.928263	2.59388	8.250023	-0.011051	0.012647	-0.013508	-0.375488	-0.021729	-0.340332
232.0	5.926856	2.59378	8.251066	-0.010046	0.013287	-0.012494	-0.375488	-0.021729	-0.335693
233.0	5.92652	2.634456	8.240617	-0.009861	0.013386	-0.015149	-0.37085	-0.028076	-0.337891
234.0	5.924144	2.593832	8.252997	-0.008407	0.008406	-0.012124	-0.377197	-0.02832	-0.337891
235.0	5.943297	2.606844	8.249896	-0.01138	0.010439	-0.016166	-0.377441	-0.023926	-0.331055
236.0	5.921665	2.593917	8.254749	-0.007366	0.013006	-0.012113	-0.379639	-0.026123	-0.342529
237.0	5.920223	2.594014	8.255753	-0.009854	0.013379	-0.015147	-0.375488	-0.021729	-0.335693
238.0	5.958416	2.579469	8.260303	-0.008216	0.008501	-0.014778	-0.377441	-0.023926	-0.337891
239.0	5.919208	2.64433	8.279218	-0.009367	0.011716	-0.014138	-0.379639	-0.026123	-0.340332
240.0	5.926924	2.616427	8.234097	-0.009549	0.011613	-0.011482	-0.373047	-0.026123	-0.340332
241.0	5.926176	2.625296	8.268297	-0.014779	0.010295	-0.005924	-0.371094	-0.019531	-0.340332
242.0	5.923877	2.584289	8.280727	-0.009176	0.011813	-0.016791	-0.379883	-0.021729	-0.342529
243.0	5.93282	2.597227	8.224016	-0.010396	0.007108	-0.014148	-0.379883	-0.021729	-0.338135
244.0	5.91177	2.593405	8.261999	-0.011214	0.012521	-0.010847	-0.373291	-0.021729	-0.344971
245.0	5.940183	2.587896	8.246218	-0.007685	0.010793	-0.014768	-0.375488	-0.021729	-0.335693
246.0	5.939282	2.597466	8.280289	-0.008685	0.010149	-0.015782	-0.379639	-0.023926	-0.333496
247.0	5.948243	2.610544	8.223552	-0.007199	0.009132	-0.01376	-0.371094	-0.019531	-0.335693
248.0	5.926045	2.566287	8.27293	-0.010352	0.011058	-0.015147	-0.375488	-0.021729	-0.338135
249.0	5.925701	2.607047	8.262479	-0.009832	0.013357	-0.01514	-0.377441	-0.023926	-0.344727
250.0	5.954402	2.611168	8.279914	-0.006006	0.009872	-0.015399	-0.375244	-0.023926	-0.337891
251.0	5.942983	2.611277	8.227122	-0.007345	0.012983	-0.012104	-0.373291	-0.021729	-0.340332
252.0	5.951353	2.6023	8.248484	-0.008156	0.012438	-0.015772	-0.377441	-0.026123	-0.340332
253.0	5.940554	2.621031	8.262214	-0.008672	0.010136	-0.015779	-0.377686	-0.021729	-0.340332
254.0	5.948709	2.602702	8.250265	-0.008341	0.012334	-0.013116	-0.373047	-0.02832	-0.333252
255.0	5.927094	2.589729	8.255056	-0.009339	0.011688	-0.01413	-0.375244	-0.023926	-0.335693
256.0	5.915759	2.599094	8.235708	-0.008112	0.016387	-0.016768	-0.377686	-0.021729	-0.342529
257.0	5.924454	2.599507	8.290265	-0.0057	0.008105	-0.011736	-0.373047	-0.023926	-0.335693
258.0	5.943202	2.603516	8.253976	-0.007145	0.013072	-0.014754	-0.379639	-0.023926	-0.340332
259.0	5.931993	2.61295	8.234518	-0.009141	0.011781	-0.016783	-0.377686	-0.019531	-0.338135
260.0	5.929503	2.572603	8.246871	-0.005952	0.013813	-0.016392	-0.377686	-0.017334	-0.333496
261.0	5.918531	2.591542	8.260629	-0.005468	0.012155	-0.015386	-0.373047	-0.026123	-0.344727
262.0	5.937319	2.605077	8.257716	-0.006946	0.013164	-0.017406	-0.377441	-0.023926	-0.342529
263.0	5.915965	2.60172	8.295632	-0.00698	0.009207	-0.016409	-0.377441	-0.023926	-0.337891
264.0	5.924947	2.624339	8.272364	-0.007099	0.017014	-0.015748	-0.379639	-0.023926	-0.342529
265.0	5.922303	2.574684	8.251394	-0.007492	0.006904	-0.016417	-0.373047	-0.023926	-0.340332
266.0	5.931403	2.597283	8.228063	-0.008093	0.016365	-0.016761	-0.375244	-0.023926	-0.340332
267.0	5.939605	2.588599	8.249448	-0.003785	0.011236	-0.016015	-0.377197	-0.030518	-0.335693
268.0	5.928442	2.598229	8.229898	-0.007127	0.013052	-0.014749	-0.377686	-0.017334	-0.340332
269.0	5.936954	2.598707	8.284519	-0.007929	0.012505	-0.018417	-0.377686	-0.017334	-0.342773
270.0	5.925763	2.60841	8.264962	-0.00378	0.011231	-0.016013	-0.379883	-0.019531	-0.340332
271.0	5.943618	2.581348	8.273398	-0.006927	0.013146	-0.017401	-0.377686	-0.021729	-0.344971
272.0	5.911986	2.577882	8.257792	-0.006409	0.015442	-0.01739	-0.379883	-0.021729	-0.344971
273.0	5.930938	2.591536	8.254761	-0.002333	0.006266	-0.012996	-0.37085	-0.023926	-0.331055
274.0	5.940294	2.62361	8.264612	-0.009875	0.015154	-0.021441	-0.373047	-0.02832	-0.337891
275.0	5.928291	2.602046	8.289674	-0.000426	0.009408	-0.017274	-0.375488	-0.021729	-0.335693
276.0	5.9373	2.615868	8.232879	-0.004765	0.010574	-0.017026	-0.375488	-0.021729	-0.344971
277.0	5.906048	2.61242	8.216981	-0.005956	0.009827	-0.015388	-0.375244	-0.023926	-0.335693
278.0	5.944512	2.60765	8.254833	-0.00743	0.010832	-0.017409	-0.377686	-0.019531	-0.338135
279.0	5.933367	2.617156	8.235305	-0.008105	0.012383	-0.01576	-0.375244	-0.023926	-0.340332
280.0	5.931993	2.617599	8.236155	-0.004758	0.010568	-0.017023	-0.375488	-0.021729	-0.342529
281.0	5.920219	2.605015	8.294509	-0.007586	0.014678	-0.015748	-0.377441	-0.026123	-0.340332
282.0	5.918608	2.59614	8.262161	-0.003957	0.011113	-0.013354	-0.375488	-0.021729	-0.340332
283.0	5.91743	2.605748	8.296268	-0.009092	0.011728	-0.016775	-0.381836	-0.023926	-0.335693
284.0	5.926181	2.610081	8.206413	-0.003556	0.011307	-0.018657	-0.377441	-0.023926	-0.333496
285.0	5.92503	2.629311	8.273752	-0.005227	0.012211	-0.018025	-0.373047	-0.023926	-0.340332
286.0	5.932983	2.6022	8.228557	-0.006898	0.013114	-0.017393	-0.375244	-0.026123	-0.342529
287.0	5.922137	2.630298	8.27551	-0.005937	0.00981	-0.015384	-0.379639	-0.026123	-0.335693
288.0	5.930425	2.612236	8.26351	-0.008088	0.012364	-0.015757	-0.377686	-0.019531	-0.338135
289.0	5.928175	2.571856	8.275727	-0.006413	0.011458	-0.016387	-0.373291	-0.019531	-0.335693
290.0	5.927388	2.603625	8.232138	-0.010236	0.014915	-0.016128	-0.377441	-0.026123	-0.342529
291.0	5.916304	2.622312	8.245934	-0.003943	0.0111	-0.013349	-0.375488	-0.019531	-0.338135
292.0	5.914215	2.591077	8.291408	-0.010747	0.012612	-0.01614	-0.379639	-0.026123	-0.337891
293.0	5.923057	2.595209	8.201654	-0.006405	0.011451	-0.016385	-0.377441	-0.026123	-0.340332
294.0	5.9018	2.600717	8.272737	-0.009785	0.009309	-0.014132	-0.375244	-0.023926	-0.331055
295.0	5.920655	2.604915	8.236574	-0.006401	0.011447	-0.016384	-0.377441	-0.026123	-0.340332
296.0	5.929023	2.596199	8.257847	-0.006399	0.011446	-0.016384	-0.375244	-0.026123	-0.335693
297.0	5.917873	2.614957	8.271644	-0.007557	0.014644	-0.015739	-0.377686	-0.021729	-0.333496
298.0	5.936616	2.619217	8.235565	-0.00612	0.009695	-0.012728	-0.379639	-0.023926	-0.337891
299.0	5.904702	2.583828	8.264246	-0.007279	0.012894	-0.012083	-0.375488	-0.019531	-0.340332
300.0	5.913789	2.615688	8.274334	-0.007861	0.012439	-0.018402	-0.379883	-0.021729	-0.335693
301.0	5.921968	2.588367	8.229156	-0.008267	0.012242	-0.013099	-0.377686	-0.019531	-0.338135
302.0	5.940816	2.610988	8.259686	-0.00707	0.012987	-0.014733	-0.379395	-0.02832	-0.340088
303.0	5.899814	2.625651	8.25668	-0.007377	0.010785	-0.017398	-0.373047	-0.02832	-0.337891
304.0	5.918613	2.639216	8.25388	-0.008057	0.012334	-0.015749	-0.377441	-0.023926	-0.337891
305.0	5.93673	2.611854	8.262349	-0.008775	0.009937	-0.013112	-0.379639	-0.026123	-0.342529
306.0	5.945114	2.593666	8.250392	-0.007063	0.01298	-0.01473	-0.377686	-0.019531	-0.342529
307.0	5.904185	2.617244	8.280698	-0.009455	0.011484	-0.011463	-0.375244	-0.026123	-0.342529
308.0	5.943076	2.634524	8.241112	-0.010201	0.014875	-0.016119	-0.377686	-0.021729	-0.342529
309.0	5.921393	2.621392	8.245827	-0.008254	0.012228	-0.013096	-0.38623	-0.021729	-0.340332
310.0	5.929752	2.603136	8.233921	-0.008253	0.012226	-0.013095	-0.375244	-0.026123	-0.340332
311.0	5.917878	2.580824	8.259004	-0.009718	0.013222	-0.015115	-0.373291	-0.021729	-0.333496
312.0	5.956832	2.607405	8.252671	-0.009239	0.011573	-0.014112	-0.38208	-0.019531	-0.338135
313.0	5.955524	2.607582	8.253559	-0.006573	0.011321	-0.013724	-0.377686	-0.019531	-0.342529
314.0	5.934015	2.594524	8.258109	-0.007257	0.012869	-0.012075	-0.377441	-0.026123	-0.340332
315.0	5.933231	2.6354	8.247923	-0.010186	0.01486	-0.016116	-0.379639	-0.023926	-0.335693
316.0	5.941479	2.61716	8.236114	-0.009231	0.011566	-0.014111	-0.379639	-0.026123	-0.347168
317.0	5.919892	2.603994	8.240742	-0.008717	0.01386	-0.014094	-0.38208	-0.019531	-0.344971
318.0	5.938695	2.626513	8.271327	-0.008752	0.009916	-0.013108	-0.379639	-0.026123	-0.333496
319.0	5.927038	2.585728	8.229741	-0.0109	0.012459	-0.01348	-0.379639	-0.023926	-0.340332
320.0	5.945913	2.608239	8.260279	-0.006086	0.009665	-0.012718	-0.379639	-0.026123	-0.340332
321.0	5.91477	2.604216	8.244348	-0.009909	0.013106	-0.01246	-0.375244	-0.023926	-0.337891
322.0	5.95285	2.599158	8.282684	-0.012148	0.013545	-0.018149	-0.38208	-0.021729	-0.340332
323.0	5.911915	2.604373	8.246347	-0.006081	0.009662	-0.012717	-0.375244	-0.02832	-0.337891
324.0	5.910677	2.604546	8.247179	-0.008229	0.012203	-0.013088	-0.379395	-0.02832	-0.335693
325.0	5.93914	2.60886	8.264953	-0.007029	0.012949	-0.014719	-0.377441	-0.023926	-0.337891
326.0	5.927319	2.577539	8.256652	-0.008014	0.012296	-0.015738	-0.377441	-0.023926	-0.340332
327.0	5.936244	2.609327	8.266887	-0.009687	0.013191	-0.015108	-0.373291	-0.021729	-0.342529
328.0	5.935049	2.600344	8.234462	-0.008047	0.008352	-0.014754	-0.377441	-0.023926	-0.337891
329.0	5.923919	2.618911	8.248198	-0.007496	0.014586	-0.015718	-0.375244	-0.026123	-0.340332
330.0	5.922528	2.61893	8.249191	-0.009633	0.011347	-0.008806	-0.375244	-0.023926	-0.335693
331.0	5.920422	2.587378	8.294602	-0.006804	0.013036	-0.017365	-0.373291	-0.021729	-0.338135
332.0	5.919644	2.619221	8.251168	-0.011352	0.014076	-0.014476	-0.375488	-0.021729	-0.342529
333.0	5.93759	2.591688	8.259894	-0.010363	0.014726	-0.013456	-0.375244	-0.023926	-0.342529
334.0	5.946683	2.614179	8.236852	-0.008724	0.00989	-0.013103	-0.377686	-0.021729	-0.338135
335.0	5.934978	2.591765	8.261747	-0.008211	0.012184	-0.013083	-0.379883	-0.021729	-0.342529
336.0	5.913346	2.587662	8.29956	-0.007224	0.012834	-0.012063	-0.377441	-0.026123	-0.342529
337.0	5.922531	2.601134	8.24322	-0.011638	0.011868	-0.017143	-0.375244	-0.023926	-0.335693
338.0	5.931017	2.583117	8.231243	-0.003871	0.011042	-0.01332	-0.377441	-0.023926	-0.337891
339.0	5.919798	2.610688	8.278242	-0.009406	0.011428	-0.011453	-0.375488	-0.021729	-0.342529
340.0	5.948353	2.605844	8.262813	-0.00846	0.013915	-0.01673	-0.377197	-0.02832	-0.346924
341.0	5.907189	2.620236	8.259768	-0.007984	0.01227	-0.01573	-0.373047	-0.023926	-0.340332
342.0	5.925234	2.592994	8.268352	-0.007688	0.014467	-0.01306	-0.375244	-0.02832	-0.340088
343.0	5.923778	2.593013	8.269389	-0.010857	0.012411	-0.013472	-0.375244	-0.026123	-0.342529
344.0	5.9127	2.602275	8.249915	-0.007978	0.012265	-0.015728	-0.377197	-0.02832	-0.337891
345.0	5.93138	2.615812	8.24736	-0.009651	0.013156	-0.015099	-0.379883	-0.019531	-0.335693
346.0	5.930164	2.606818	8.215028	-0.009176	0.011512	-0.014099	-0.377441	-0.023926	-0.340332
347.0	5.928785	2.616048	8.249151	-0.00801	0.008323	-0.014749	-0.379639	-0.026123	-0.340332
348.0	5.917127	2.593665	8.273946	-0.00819	0.012162	-0.013078	-0.375244	-0.026123	-0.340332
349.0	5.925696	2.575585	8.261961	-0.007496	0.010615	-0.014726	-0.377686	-0.021729	-0.340332
350.0	5.91444	2.594022	8.275754	-0.008659	0.0138	-0.014076	-0.375244	-0.026123	-0.340332
351.0	5.933068	2.6075	8.273274	-0.00964	0.013144	-0.015096	-0.379639	-0.026123	-0.335693
352.0	5.93183	2.598619	8.240942	-0.007963	0.012251	-0.015724	-0.375488	-0.019531	-0.335693
353.0	5.930383	2.598807	8.241924	-0.009636	0.01314	-0.015095	-0.375244	-0.023926	-0.331055
354.0	5.929027	2.598811	8.242899	-0.009383	0.011402	-0.011448	-0.377441	-0.023926	-0.333496
355.0	5.927494	2.607882	8.277148	-0.007196	0.012804	-0.012053	-0.377197	-0.02832	-0.337891
356.0	5.926042	2.608176	8.278094	-0.006751	0.012994	-0.017349	-0.375244	-0.02832	-0.335693
357.0	5.914954	2.617629	8.258573	-0.009157	0.011492	-0.014095	-0.373047	-0.026123	-0.342529
358.0	5.923561	2.599574	8.246587	-0.006498	0.011255	-0.013701	-0.379639	-0.026123	-0.342529
359.0	5.941707	2.572452	8.255116	-0.008421	0.013879	-0.016719	-0.379883	-0.019531	-0.338135
360.0	5.930373	2.590955	8.268912	-0.007476	0.010597	-0.014722	-0.373047	-0.026123	-0.337891
361.0	5.919402	2.600488	8.249284	-0.00627	0.011346	-0.016348	-0.38208	-0.021729	-0.335693
362.0	5.938046	2.614094	8.246794	-0.010314	0.014666	-0.013442	-0.375244	-0.026123	-0.335693
363.0	5.926456	2.582742	8.238335	-0.00557	0.009799	-0.017996	-0.379639	-0.023926	-0.337891
364.0	5.924536	2.600991	8.305904	-0.011516	0.013911	-0.011815	-0.384033	-0.023926	-0.337891
365.0	5.933873	2.614469	8.249678	-0.009142	0.011478	-0.014092	-0.377441	-0.023926	-0.335693
366.0	5.922419	2.583017	8.241152	-0.006484	0.011242	-0.013697	-0.379639	-0.023926	-0.344727
367.0	5.931581	2.6059	8.218068	-0.006483	0.011241	-0.013697	-0.382324	-0.015137	-0.338135
368.0	5.910287	2.642514	8.24474	-0.008628	0.013766	-0.014067	-0.377441	-0.026123	-0.335693
369.0	5.92859	2.615197	8.253245	-0.010625	0.008522	-0.015138	-0.379883	-0.019531	-0.338135
370.0	5.927036	2.574431	8.265039	-0.006233	0.009503	-0.01005	-0.373047	-0.026123	-0.344727
371.0	5.925859	2.574511	8.265858	-0.009133	0.011468	-0.01409	-0.379883	-0.021729	-0.335693
372.0	5.944666	2.588118	8.263283	-0.007455	0.010579	-0.014717	-0.375488	-0.021729	-0.340332
373.0	5.923486	2.565946	8.234324	-0.008393	0.013853	-0.016711	-0.373047	-0.023926	-0.335693
374.0	5.941862	2.588765	8.265097	-0.005775	0.009689	-0.015343	-0.377441	-0.026123	-0.337891
375.0	5.920928	2.616493	8.258333	-0.00792	0.012211	-0.015713	-0.377441	-0.026123	-0.337891
376.0	5.939181	2.589478	8.2668	-0.00722	0.010667	-0.017362	-0.379883	-0.019531	-0.340332
377.0	5.928107	2.59895	8.247275	-0.007635	0.014405	-0.013039	-0.375244	-0.026123	-0.333496
378.0	5.917129	2.608402	8.227687	-0.007724	0.008371	-0.017387	-0.377441	-0.026123	-0.344727
379.0	5.955594	2.594761	8.232681	-0.007163	0.012764	-0.012041	-0.379639	-0.026123	-0.340332
380.0	5.893902	2.604397	8.266292	-0.009827	0.014819	-0.018727	-0.377197	-0.02832	-0.340088
381.0	5.962045	2.586108	8.255283	-0.0074	0.014492	-0.015684	-0.377441	-0.026123	-0.340332
382.0	5.940939	2.613669	8.248675	-0.009113	0.011447	-0.014086	-0.379639	-0.023926	-0.340332
383.0	5.92952	2.582208	8.240133	-0.007904	0.012196	-0.015709	-0.377441	-0.023926	-0.337891
384.0	5.938092	2.614241	8.250544	-0.005717	0.013602	-0.016309	-0.379883	-0.021729	-0.338135
385.0	5.926473	2.583004	8.242075	-0.007392	0.014485	-0.015681	-0.375244	-0.023926	-0.340332
386.0	5.924944	2.583382	8.243056	-0.008644	0.011628	-0.019378	-0.377441	-0.023926	-0.337891
387.0	5.94355	2.597523	8.24051	-0.00138	0.012485	-0.016536	-0.379639	-0.023926	-0.337891
388.0	5.922071	2.584868	8.244654	-0.004308	0.010513	-0.019607	-0.377686	-0.019531	-0.340332
389.0	5.930244	2.576336	8.265966	-0.005708	0.013592	-0.016306	-0.373047	-0.026123	-0.335693
390.0	5.92954	2.608774	8.222545	-0.005005	0.012049	-0.017955	-0.377686	-0.021729	-0.344971
391.0	5.917136	2.595729	8.280637	-0.004495	0.014339	-0.017927	-0.375244	-0.026123	-0.337891
392.0	5.925895	2.619116	8.257764	-0.003517	0.014995	-0.016903	-0.379639	-0.023926	-0.337891
393.0	5.924402	2.61968	8.258657	-0.008158	0.009977	-0.01838	-0.375244	-0.026123	-0.335693
394.0	5.932935	2.601916	8.246771	-0.007843	0.016098	-0.016673	-0.379639	-0.023926	-0.342529
395.0	5.941043	2.593215	8.268184	-0.0055	0.009748	-0.017981	-0.379883	-0.019531	-0.338135
396.0	5.939757	2.593946	8.268879	-0.000896	0.010837	-0.015534	-0.381836	-0.023926	-0.344727
397.0	5.938363	2.594707	8.269641	-0.004015	0.012694	-0.016928	-0.377441	-0.026123	-0.335693
398.0	5.917591	2.61382	8.229547	-0.003777	0.012785	-0.019573	-0.379639	-0.026123	-0.337891
399.0	5.915609	2.623524	8.263738	-0.004985	0.012031	-0.017951	-0.377686	-0.021729	-0.340332
400.0	5.934338	2.587921	8.23885	-0.004983	0.012029	-0.017951	-0.377686	-0.021729	-0.342529
401.0	5.942321	2.629203	8.282561	-0.004007	0.012686	-0.016926	-0.381836	-0.023926	-0.340332
402.0	5.91175	2.616261	8.232969	-0.009078	0.011403	-0.014082	-0.379639	-0.023926	-0.335693
403.0	5.909418	2.584577	8.2783	-0.007827	0.016077	-0.016669	-0.381836	-0.023926	-0.335693
404.0	5.938197	2.621174	8.252242	-0.008331	0.013783	-0.016698	-0.377441	-0.023926	-0.333496
405.0	5.926236	2.598835	8.277042	-0.00665	0.012901	-0.017322	-0.375244	-0.026123	-0.337891
406.0	5.915365	2.558614	8.235096	-0.006886	0.012806	-0.014677	-0.377441	-0.023926	-0.340332
407.0	5.982989	2.599466	8.279941	-0.007113	0.014529	-0.018316	-0.375244	-0.023926	-0.333496
408.0	5.912241	2.609239	8.259309	-0.006216	0.00734	-0.01536	-0.377441	-0.023926	-0.344727
409.0	5.931015	2.623342	8.256716	-0.003991	0.012673	-0.01692	-0.377686	-0.021729	-0.338135
410.0	5.919794	2.592223	8.247955	-0.005707	0.009628	-0.01533	-0.375244	-0.023926	-0.337891
411.0	5.908229	2.610887	8.261659	-0.004454	0.014301	-0.017914	-0.375244	-0.023926	-0.340332
412.0	5.936843	2.607041	8.246387	-0.004957	0.012008	-0.017944	-0.377441	-0.023926	-0.335693
413.0	5.924907	2.584777	8.271123	-0.007341	0.014423	-0.015669	-0.375244	-0.023926	-0.344727
414.0	5.933707	2.608033	8.248331	-0.005419	0.013635	-0.018937	-0.373047	-0.023926	-0.344727
415.0	5.932154	2.608709	8.249234	-0.003979	0.012662	-0.016917	-0.375244	-0.023926	-0.337891
416.0	5.910646	2.595691	8.253424	-0.006628	0.012878	-0.017317	-0.377441	-0.023926	-0.342529
417.0	5.95946	2.605447	8.234762	-0.002801	0.00949	-0.017571	-0.375488	-0.021729	-0.340332
418.0	5.908059	2.637651	8.24417	-0.009982	0.01463	-0.016067	-0.377686	-0.021729	-0.338135
419.0	5.93642	2.592715	8.239967	-0.006379	0.012964	-0.01996	-0.375244	-0.026123	-0.335693
420.0	5.934413	2.602194	8.274159	-0.003746	0.010932	-0.013275	-0.379639	-0.023926	-0.340332
421.0	5.923986	2.602853	8.221212	-0.007326	0.014406	-0.015665	-0.373047	-0.026123	-0.340332
422.0	5.932047	2.594188	8.242652	-0.003965	0.01265	-0.016913	-0.377441	-0.026123	-0.342529
423.0	5.890727	2.608294	8.239233	-0.008293	0.013741	-0.01669	-0.375244	-0.023926	-0.340332
424.0	5.948994	2.608687	8.241301	-0.007581	0.012201	-0.018339	-0.377441	-0.023926	-0.340332
425.0	5.896588	2.609164	8.294947	-0.00153	0.01415	-0.020147	-0.377686	-0.021729	-0.342529
426.0	5.945682	2.610167	8.243222	-0.007782	0.016023	-0.016657	-0.377441	-0.023926	-0.335693
427.0	5.914097	2.574674	8.270804	0.009214	0.003731	-0.012974	-0.379883	-0.019531	-0.340332
428.0	5.872532	2.585722	8.409249	0.039965	-0.032874	-0.009435	-0.379883	-0.021729	-0.342529
429.0	5.888933	2.595255	8.313997	0.062403	-0.084629	-0.000596	-0.375488	-0.021729	-0.335693
430.0	5.99769	2.601108	8.201543	0.064808	-0.091013	-0.001892	-0.377441	-0.023926	-0.337891
431.0	5.964886	2.660559	8.179623	0.054107	-0.078519	-0.003737	-0.377441	-0.026123	-0.335693
432.0	5.950403	2.651153	8.177595	0.042234	-0.058912	-0.005902	-0.375244	-0.026123	-0.335693
433.0	5.984233	2.658997	8.190585	0.029308	-0.047795	-0.007158	-0.381836	-0.023926	-0.333496
434.0	5.957083	2.665837	8.203849	0.015928	-0.031114	-0.010382	-0.379395	-0.02832	-0.340088
435.0	5.999127	2.644828	8.173015	0.006134	-0.017903	-0.011216	-0.377441	-0.023926	-0.335693
436.0	5.969764	2.650443	8.188307	0.005481	-0.008513	-0.011508	-0.379639	-0.026123	-0.340332
437.0	5.998456	2.683059	8.304676	0.006685	-0.009567	-0.006844	-0.375244	-0.023926	-0.335693
438.0	5.989744	2.620702	8.338023	0.016666	-0.032349	-0.000427	-0.379883	-0.021729	-0.333496
439.0	6.063668	2.55511	8.300432	0.040201	-0.052219	0.004366	-0.379883	-0.021729	-0.335693
440.0	6.039234	2.627476	8.223199	0.074747	-0.055072	0.009531	-0.379639	-0.023926	-0.331055
441.0	6.05412	2.575534	8.215707	0.103024	-0.058511	0.001281	-0.38208	-0.019531	-0.333496
442.0	6.148242	2.539973	8.205083	0.130716	-0.046534	-0.002936	-0.379639	-0.026123	-0.335693
443.0	6.231608	2.516547	8.173759	0.166384	-0.039532	-0.016588	-0.375244	-0.02832	-0.333252
444.0	6.19424	2.325563	8.152531	0.221025	-0.026601	-0.043666	-0.384033	-0.026123	-0.333496
445.0	6.074643	2.397888	8.166324	0.246233	-0.015362	-0.071463	-0.381592	-0.030518	-0.328857
446.0	6.052888	2.590949	8.183741	0.25066	-0.007595	-0.088843	-0.381592	-0.02832	-0.337891
447.0	6.090111	2.735446	8.179604	0.257067	-0.000302	-0.097894	-0.381592	-0.030518	-0.337891
448.0	6.346807	2.647602	8.173088	0.289285	0.005741	-0.110262	-0.37915	-0.036865	-0.335449
449.0	6.333049	2.567224	8.180667	0.335587	0.026729	-0.11832	-0.37915	-0.036865	-0.337646
450.0	6.038108	2.734625	8.077191	0.341076	0.038635	-0.133016	-0.383545	-0.034912	-0.340088
451.0	5.820293	2.944176	8.069326	0.312844	0.039059	-0.138946	-0.381348	-0.036865	-0.340088
452.0	5.722461	3.17158	7.984311	0.262685	0.036302	-0.126605	-0.378906	-0.039063	-0.335449
453.0	5.695306	3.162913	8.061141	0.205706	0.035696	-0.108231	-0.383301	-0.039063	-0.337646
454.0	5.760295	3.085056	8.070454	0.163741	0.030944	-0.093745	-0.383301	-0.039063	-0.337646
455.0	5.985923	3.023171	8.041553	0.144486	0.026801	-0.083948	-0.378906	-0.039063	-0.333008
456.0	6.002964	2.891971	8.084733	0.146065	0.02185	-0.080839	-0.380859	-0.045654	-0.337646
457.0	5.937656	3.028645	8.043405	0.141771	0.022877	-0.080618	-0.378906	-0.043457	-0.330811
458.0	5.821534	3.205278	8.042239	0.119723	0.015146	-0.070209	-0.383057	-0.045654	-0.342041
459.0	5.787473	3.261948	8.043406	0.079911	0.018187	-0.054847	-0.380615	-0.050049	-0.337402
460.0	6.044339	3.207717	8.06689	0.062175	0.019453	-0.041477	-0.380859	-0.047852	-0.337402
461.0	6.193575	3.041125	8.069934	0.063681	0.030191	-0.042576	-0.378906	-0.043457	-0.335205
462.0	6.031251	3.009155	8.043143	0.074042	0.03474	-0.042992	-0.378662	-0.047852	-0.337402
463.0	5.963507	3.16834	8.102817	0.066424	0.039955	-0.038989	-0.380859	-0.045654	-0.339844
464.0	5.890197	3.17157	8.048738	0.050149	0.041958	-0.029908	-0.378662	-0.047852	-0.339844
465.0	5.776588	3.235576	8.010089	0.024427	0.02679	-0.009934	-0.380615	-0.052246	-0.3396
466.0	5.855523	3.101465	8.092131	0.00691	0.021966	-0.003443	-0.378418	-0.050049	-0.344238
467.0	5.917197	2.960974	8.066598	0.003344	0.012773	0.012475	-0.376709	-0.043457	-0.342285
468.0	5.924694	3.073157	8.04971	-0.002555	0.010946	0.011661	-0.378662	-0.047852	-0.34668
469.0	5.78315	3.216021	8.001356	-0.022387	0.005406	0.030331	-0.37207	-0.050049	-0.342041
470.0	5.672747	3.361188	7.970345	-0.059732	-0.008858	0.056542	-0.383301	-0.04126	-0.342285
471.0	5.593693	3.517263	7.989996	-0.112847	-0.026643	0.093917	-0.380615	-0.054443	-0.342041
472.0	5.480828	3.567491	7.932874	-0.177912	-0.045954	0.137597	-0.387451	-0.043457	-0.339844
473.0	5.311306	3.629205	7.942049	-0.264176	-0.090303	0.194289	-0.378906	-0.04126	-0.335449
474.0	5.346667	3.667524	7.996675	-0.350196	-0.137372	0.24846	-0.381348	-0.037109	-0.335449
475.0	5.237799	3.647803	8.190706	-0.445626	-0.18907	0.312144	-0.381592	-0.030518	-0.337891
476.0	5.206279	3.809705	8.346232	-0.541597	-0.255362	0.40131	-0.381592	-0.032715	-0.333252
477.0	5.175257	4.114627	8.691657	-0.645171	-0.332124	0.508508	-0.384033	-0.023926	-0.337891
478.0	5.312879	4.504203	9.101709	-0.764016	-0.445222	0.636112	-0.38623	-0.023926	-0.328857
479.0	5.396805	4.752389	9.619521	-0.871992	-0.599559	0.766466	-0.395508	-0.008789	-0.326904
480.0	5.307794	5.008215	10.256013	-0.980802	-0.804286	0.909525	-0.395996	0.0	-0.320313
481.0	6.558368	1.696437	11.463308	-0.583988	-1.059439	1.076429	-0.402832	0.004395	-0.32251
482.0	5.180331	3.604748	10.991651	-0.165645	-1.340221	1.340403	-0.411865	0.015137	-0.313721
483.0	6.623646	3.202045	10.832043	0.092853	-1.666025	1.539191	-0.418701	0.021729	-0.304688
484.0	6.248499	5.393454	10.605426	0.23389	-1.96343	1.715597	-0.423828	0.039063	-0.29126
485.0	6.221567	7.122224	10.736402	-0.000995	-2.210399	1.882238	-0.435059	0.04541	-0.284668
486.0	6.967988	6.403608	11.414525	-0.306038	-2.325462	2.007749	-0.440186	0.062744	-0.266602
487.0	5.712652	6.418145	13.150883	-0.340731	-2.147501	1.933024	-0.438721	0.078125	-0.257813
488.0	3.072115	8.735777	13.447399	-0.342783	-1.873961	1.431565	-0.449951	0.082275	-0.248779
489.0	1.017026	9.951379	13.004265	-0.482221	-1.694131	0.635541	-0.445801	0.088867	-0.244385
490.0	1.051421	8.259312	13.684584	-0.470296	-1.375884	-0.173	-0.447754	0.084473	-0.244385
491.0	-1.785453	7.889788	13.480351	-0.349636	-1.080955	-0.829624	-0.447266	0.07373	-0.241943
492.0	-2.990613	6.170862	13.314807	-0.285758	-0.923419	-1.231949	-0.446777	0.062744	-0.246094
493.0	-2.959038	3.072476	13.620639	-0.074288	-0.692592	-1.470501	-0.446289	0.053955	-0.248291
494.0	-2.925513	1.316271	14.179409	0.287776	-0.352579	-1.522125	-0.439209	0.038818	-0.259277
495.0	-2.214347	1.090554	14.789213	0.512206	0.06962	-1.324927	-0.440674	0.021484	-0.281738
496.0	-1.415791	0.523123	15.250307	0.549528	0.576889	-0.997715	-0.425293	0.019287	-0.297852
497.0	-0.820986	-0.1796	15.354582	0.566231	1.10797	-0.668997	-0.411621	0.008545	-0.318115
498.0	-0.346633	-0.41338	15.204178	0.58704	1.597693	-0.399756	-0.389404	0.0	-0.354492
499.0	0.153965	0.234062	14.965542	0.600922	1.99928	-0.25969	-0.354492	0.000488	-0.384033
500.0	0.957546	1.061431	14.705253	0.536218	2.32325	-0.216342	-0.317139	-0.005859	-0.411377
501.0	1.78953	1.498223	14.345418	0.41906	2.601426	-0.275337	-0.271484	-0.007568	-0.440918
502.0	2.253617	1.825084	13.857959	0.301492	2.817954	-0.385428	-0.221436	-0.005127	-0.463867
503.0	2.763905	2.029945	13.331063	0.225041	2.94461	-0.516837	-0.158691	0.008545	-0.475586
504.0	3.623408	2.341641	12.816148	0.173369	3.010799	-0.636333	-0.100342	0.019775	-0.482666
505.0	4.412304	2.652749	12.318567	0.124212	3.029202	-0.732395	-0.044189	0.0354	-0.476318
506.0	5.205607	2.710859	11.832439	0.065208	3.017903	-0.798557	0.011719	0.051025	-0.467529
507.0	5.995821	2.495501	11.524149	0.039195	2.974851	-0.872289	0.071533	0.07959	-0.449951
508.0	7.298036	2.359378	11.252434	0.059639	2.938236	-0.938163	0.122559	0.106201	-0.420898
509.0	8.044878	2.141369	10.91724	0.095193	2.952464	-1.020745	0.169189	0.13916	-0.382813
510.0	8.14752	2.051327	10.263507	0.118127	2.932371	-1.098467	0.200195	0.178467	-0.324463
511.0	8.252864	1.912575	9.613692	0.101309	2.849889	-1.155456	0.222656	0.211182	-0.268066
512.0	8.177487	1.694075	8.949432	0.054569	2.714016	-1.181054	0.21875	0.250244	-0.214111
513.0	8.216945	1.483755	8.269068	0.018861	2.543772	-1.168256	0.208496	0.284912	-0.162354
514.0	8.435562	1.392576	7.709637	-0.001522	2.366112	-1.121553	0.176758	0.308594	-0.105957
515.0	8.653817	1.446137	7.189875	0.009105	2.208702	-1.021879	0.143555	0.32373	-0.06958
516.0	8.794005	1.44303	6.726574	0.040944	2.085317	-0.904073	0.096924	0.34082	-0.035889
517.0	8.848876	1.510695	6.257086	0.101468	1.974046	-0.789638	0.054932	0.351318	-0.015381
518.0	8.664229	1.583547	5.642512	0.164738	1.837868	-0.699239	0.004883	0.348877	-0.003906
519.0	8.977572	1.65379	5.051011	0.206901	1.651838	-0.641159	-0.038574	0.348389	0.00293
520.0	9.139737	1.511086	4.11328	0.222413	1.43013	-0.610534	-0.07959	0.339355	0.005371
521.0	9.381034	1.456687	2.873633	0.225282	1.107938	-0.562383	-0.112305	0.337158	0.003174
522.0	10.105349	1.041147	1.513239	0.19535	0.700271	-0.527136	-0.148926	0.325928	0.001221
523.0	11.38767	0.566155	0.330692	0.182179	0.223884	-0.50212	-0.177002	0.323486	0.003662
524.0	13.725998	0.058159	-0.737421	0.209416	-0.244138	-0.51357	-0.196045	0.308105	-0.00293
525.0	15.967994	0.684188	-1.635507	0.159683	-0.599745	-0.506463	-0.217773	0.305908	-0.00293
526.0	16.836846	0.819248	-2.463691	-0.085843	-0.89894	-0.385447	-0.239258	0.299072	0.00415
527.0	17.436218	-0.036618	-2.856578	-0.271226	-1.27827	-0.130944	-0.252441	0.299072	0.008789
528.0	18.717584	-0.102903	-2.675701	-0.260453	-1.629886	0.255946	-0.263428	0.303223	0.02002
529.0	16.392311	-2.341757	-1.519641	0.084658	-1.871205	0.790518	-0.265869	0.312012	0.03125
530.0	4.365835	7.966423	11.903737	0.891473	-2.393321	1.377476	-0.269043	0.329346	0.04248
531.0	-5.768244	6.918675	22.812026	0.091969	-2.607529	1.618316	-0.282227	0.33374	0.051514
532.0	0.534438	6.360635	9.2384	0.297384	-3.34398	1.221807	-0.295654	0.340088	0.067139
533.0	14.658748	7.224313	3.647344	0.084308	-3.695675	0.436955	-0.304199	0.340088	0.090088
534.0	10.96725	6.541037	9.221468	-0.043756	-3.544163	-0.375503	-0.308594	0.339844	0.112793
535.0	11.189558	0.25518	10.765969	-0.226739	-3.429451	-0.381178	-0.312988	0.337646	0.131104
536.0	13.540955	-8.538296	9.998711	0.150819	-2.939607	0.150206	-0.308838	0.346436	0.151367
537.0	11.868937	-2.924019	9.790341	0.918524	-2.440715	0.545198	-0.309082	0.350586	0.165039
538.0	9.128594	7.859888	8.505246	0.951374	-2.104939	0.468943	-0.307129	0.35498	0.178711
539.0	7.384689	8.994575	7.380887	0.546317	-2.021949	0.044855	-0.302979	0.357178	0.19458
540.0	15.796323	8.844961	12.594624	-0.11294	-1.726049	-0.029443	-0.304932	0.35498	0.203613
541.0	14.995781	-0.155469	8.490522	-0.156029	-0.343799	0.22365	-0.302734	0.352783	0.208252
542.0	6.01452	6.564284	7.820803	-0.175526	-0.31253	0.068803	-0.305176	0.359375	0.210449
543.0	8.288282	2.941779	8.258521	-0.20581	-0.197415	0.125918	-0.300537	0.35498	0.215088
544.0	7.220603	3.978804	7.745251	-0.170259	-0.088069	0.094997	-0.302979	0.357178	0.215088
545.0	6.620199	3.612852	8.037854	-0.174821	-0.044403	0.102547	-0.303223	0.36377	0.217285
546.0	6.584668	3.132934	8.092566	-0.166968	-0.026391	0.089691	-0.298584	0.359375	0.221924
547.0	6.390461	2.589895	8.198685	-0.125447	-0.018137	0.049132	-0.302734	0.35498	0.219727
548.0	6.19037	2.788684	8.149227	-0.073389	-0.012743	0.007535	-0.302979	0.359375	0.219482
549.0	6.253401	2.747445	8.162824	-0.040613	-0.012368	-0.011754	-0.302979	0.357178	0.219727
550.0	6.215812	2.544596	8.133871	0.004192	-0.001019	-0.045702	-0.300537	0.352783	0.224365
551.0	6.226076	2.349518	8.195287	0.053683	0.002262	-0.092952	-0.302979	0.359375	0.221924
552.0	6.286058	2.153879	8.169538	0.127022	0.011059	-0.144924	-0.302979	0.357178	0.219727
553.0	6.232539	2.156643	8.154317	0.206085	0.02089	-0.202326	-0.300781	0.357178	0.221924
554.0	6.212127	2.41096	8.008777	0.276236	0.022521	-0.233099	-0.304688	0.350586	0.221924
555.0	5.860945	2.930688	8.005115	0.314018	0.033701	-0.246667	-0.304932	0.352783	0.215088
556.0	5.608687	3.442412	7.85815	0.318742	0.0252	-0.230475	-0.304688	0.350586	0.219727
557.0	5.410716	4.317045	7.554877	0.257911	0.012108	-0.143505	-0.302734	0.35498	0.224121
558.0	5.237045	4.743562	7.373722	0.135383	0.00486	-0.034649	-0.304932	0.352783	0.221924
559.0	4.655614	4.647183	7.512086	-0.015711	-0.030064	0.06668	-0.300293	0.348389	0.226563
560.0	4.630632	4.698637	7.582748	-0.196681	-0.105535	0.149264	-0.300537	0.35498	0.233398
561.0	5.079799	4.526627	7.610404	-0.372624	-0.167775	0.240122	-0.298096	0.350586	0.233398
562.0	5.366246	4.488181	7.696526	-0.552171	-0.215205	0.342436	-0.289063	0.341797	0.23584
563.0	5.78931	4.889654	8.009538	-0.724243	-0.227278	0.43131	-0.278564	0.348633	0.238037
564.0	6.405699	3.993484	8.124729	-0.819974	-0.192184	0.47007	-0.270508	0.36377	0.233154
565.0	6.756057	2.999714	8.178685	-0.80142	-0.132335	0.426579	-0.282227	0.385498	0.232666
566.0	6.534749	2.765209	8.142114	-0.736154	-0.090593	0.36895	-0.299561	0.383301	0.235107
567.0	6.522094	2.453629	8.219494	-0.652675	-0.070811	0.313549	-0.303711	0.376709	0.248779
568.0	6.448884	2.716254	8.122551	-0.573274	-0.04723	0.277093	-0.303223	0.363525	0.246826
569.0	6.232206	3.074372	8.111709	-0.54733	-0.033788	0.280573	-0.296631	0.361572	0.249268
570.0	6.077632	3.185292	8.25893	-0.531177	-0.025945	0.308621	-0.294189	0.359375	0.251465
571.0	6.096168	3.512028	8.211386	-0.540571	-0.02895	0.368895	-0.296631	0.361572	0.249268
572.0	6.023903	3.728685	8.22914	-0.569122	-0.027137	0.459447	-0.294189	0.357178	0.249268
573.0	6.125772	3.264852	8.323196	-0.595934	-0.045968	0.535288	-0.300781	0.361328	0.258301
574.0	6.080667	2.683189	8.311879	-0.528615	-0.089935	0.609929	-0.292236	0.365967	0.251465
575.0	5.858347	3.408767	8.201427	-0.135846	-0.173143	0.760301	-0.292236	0.365967	0.251465
576.0	6.343848	3.15932	8.197201	0.114091	-0.226828	0.975533	-0.290771	0.376709	0.244385
577.0	6.5182	2.036126	8.597772	0.280684	-0.333548	1.080727	-0.286377	0.381104	0.244141
578.0	5.743767	2.371259	10.350737	0.20817	-0.562759	1.092356	-0.282471	0.387695	0.244141
579.0	5.636611	0.311755	10.02236	0.167687	-0.916056	1.01538	-0.27832	0.394287	0.241699
580.0	5.323226	0.761464	10.731744	0.212968	-1.279465	0.939737	-0.269531	0.394287	0.250732
581.0	5.119817	0.436143	11.33005	0.243409	-1.718256	0.832967	-0.265625	0.400879	0.261963
582.0	5.095999	1.061768	11.483618	0.260638	-2.211513	0.749363	-0.256592	0.394531	0.259766
583.0	4.984683	1.481297	11.593373	0.330142	-2.758466	0.735649	-0.250244	0.400879	0.268799
584.0	4.772112	2.113042	11.462084	0.44134	-3.370952	0.793467	-0.243896	0.40332	0.275635
585.0	4.467045	2.922276	11.362182	0.551824	-4.00273	0.918396	-0.230469	0.394531	0.289551
586.0	4.005609	3.276713	11.605849	0.649923	-4.629373	1.140629	-0.215576	0.40332	0.302979
587.0	2.848563	3.555638	12.956884	0.701231	-5.447995	1.37709	-0.200684	0.412109	0.323242
588.0	2.246672	4.830088	12.393522	0.621081	-6.476148	1.63543	-0.17627	0.403564	0.341553
589.0	0.880273	4.1141	11.989501	0.7083	-7.635392	2.009855	-0.154541	0.407959	0.359863
590.0	0.190772	3.025041	13.064127	0.878581	-9.100437	2.250934	-0.11792	0.416748	0.391357
591.0	3.120425	4.394815	9.621929	0.945861	-10.504386	2.32802	-0.079102	0.427979	0.420898
592.0	18.419762	5.313828	5.84952	2.259848	-11.225614	1.912989	-0.040039	0.432373	0.438965
593.0	38.942415	7.486588	7.436424	2.888955	-10.021514	2.45793	-0.005859	0.445801	0.45459
594.0	31.368855	10.863203	9.264223	2.437028	-8.476878	3.239704	0.024414	0.45459	0.461182
595.0	21.784129	9.836172	11.67085	1.921151	-7.66675	3.748629	0.059082	0.459229	0.470215
596.0	18.595399	9.600992	12.86572	2.055725	-7.109436	3.872293	0.084961	0.461426	0.474609
597.0	19.419447	9.964107	16.403623	2.375336	-6.612459	3.827075	0.104248	0.472656	0.469727
598.0	18.57613	9.264599	19.549331	2.620733	-5.437964	3.672634	0.110352	0.483643	0.476563
599.0	14.500651	4.187211	17.665443	2.680295	-3.309947	3.472557	0.114014	0.494385	0.467041
600.0	19.526699	12.760958	23.780604	2.295015	-0.354516	2.741245	0.092529	0.487793	0.460449
601.0	13.782002	13.692319	21.631854	1.348805	2.409367	1.552459	0.063965	0.491943	0.448975
602.0	2.926047	11.566017	18.475366	0.375226	3.544474	0.868218	0.027344	0.483154	0.442383
603.0	-1.227107	9.093198	14.907556	-0.360077	3.73777	0.228778	-0.011475	0.474121	0.442627
604.0	-1.964945	6.536865	12.316355	-0.707908	3.707359	-0.26367	-0.047607	0.454346	0.429443
605.0	-0.476572	4.395545	10.785234	-0.694155	3.807297	-0.808145	-0.07959	0.438721	0.418213
606.0	1.249995	3.101375	9.824637	-0.483474	4.16179	-1.355918	-0.116211	0.425537	0.409424
607.0	2.324067	2.652709	9.215332	-0.2213	4.66154	-1.823915	-0.154541	0.407959	0.391602
608.0	2.666683	2.503314	8.761534	-0.025521	5.146949	-2.125238	-0.19043	0.381592	0.367188
609.0	2.902557	1.953536	8.468336	0.080493	5.545158	-2.266954	-0.233643	0.368164	0.342285
610.0	3.371755	0.86266	8.196156	0.19889	5.848636	-2.278817	-0.265381	0.350586	0.313232
611.0	3.976813	-0.360546	8.014478	0.44437	6.079048	-2.21281	-0.290771	0.328613	0.270264
612.0	5.35547	-1.24295	8.063004	0.861678	6.294261	-2.060518	-0.326904	0.311035	0.234131
613.0	6.992607	-1.805018	8.332272	1.404349	6.544753	-1.854855	-0.345703	0.291504	0.188965
614.0	8.656757	-2.142005	8.57002	2.016556	6.846085	-1.636467	-0.367188	0.282715	0.13916
615.0	9.790095	-1.742524	8.708745	2.621222	7.108697	-1.432264	-0.383545	0.258789	0.091797
616.0	10.966693	0.347271	8.890186	3.035277	7.231829	-1.269967	-0.389648	0.248047	0.032715
617.0	11.959857	2.079398	9.439132	2.976126	7.181604	-1.244997	-0.393311	0.234863	-0.012695
618.0	13.30104	1.231036	9.317122	2.702644	6.962534	-1.442012	-0.398926	0.210938	-0.069092
619.0	15.10257	1.493649	9.053846	2.581895	6.69533	-1.797148	-0.386963	0.187256	-0.118896
620.0	15.713303	4.179114	9.675599	2.186134	6.378103	-2.232563	-0.37915	0.161133	-0.16626
621.0	15.71163	5.284677	10.79635	1.448728	6.004096	-2.731433	-0.371338	0.128662	-0.201904
622.0	16.538577	3.46533	12.118472	0.908363	5.669583	-3.300204	-0.3479	0.093994	-0.22876
623.0	17.545248	1.609742	13.337304	0.890265	5.459448	-3.861775	-0.315918	0.061523	-0.255371
624.0	18.095849	1.855386	14.267681	1.126282	5.321327	-4.249837	-0.292969	0.0354	-0.275391
625.0	19.308656	3.940367	14.654163	1.231517	5.17821	-4.393216	-0.27002	0.011719	-0.286377
626.0	21.366795	7.197262	13.947528	0.862398	5.090203	-4.272363	-0.245117	-0.01001	-0.299561
627.0	21.197513	2.918672	11.455698	0.164764	4.938432	-4.184615	-0.227051	-0.025146	-0.312988
628.0	19.785244	-2.291938	6.537742	0.464233	4.355443	-4.435799	-0.215088	-0.044678	-0.314941
629.0	20.609144	4.336374	2.495831	0.371067	3.211451	-4.438174	-0.203613	-0.057617	-0.314697
630.0	24.123717	0.039821	-1.597915	-0.635766	1.774105	-4.434797	-0.19873	-0.070801	-0.328125
631.0	37.438074	-7.16971	-9.203228	-0.208713	1.226995	-4.575374	-0.187256	-0.081543	-0.323486
632.0	36.575199	-9.212297	-17.458655	0.486389	1.196324	-4.131759	-0.179688	-0.105469	-0.329834
633.0	33.220936	-11.414507	-22.177462	1.031636	0.247929	-3.206083	-0.181641	-0.109863	-0.322754
634.0	33.612321	-5.926013	-21.008438	0.422637	-1.128074	-2.097845	-0.18335	-0.123047	-0.315674
635.0	34.001312	-4.201046	-16.249742	-1.302741	-2.112638	-0.981724	-0.196533	-0.118896	-0.311279
636.0	32.222531	-6.903199	-11.415695	-2.15692	-2.56188	-0.146831	-0.209961	-0.112305	-0.304443
637.0	18.60039	-11.231284	2.160241	-1.018064	-2.687616	0.890703	-0.218994	-0.105957	-0.297852
638.0	-18.443816	20.262539	42.502641	-0.195483	-3.105881	1.256187	-0.240723	-0.108154	-0.293213
639.0	-15.500879	3.43693	22.961272	-1.415077	-4.185591	1.537401	-0.269775	-0.091064	-0.284424
640.0	21.475363	2.648112	-12.714342	-1.832276	-5.114354	0.961554	-0.29834	-0.089111	-0.259277
641.0	17.76903	-9.085115	9.213858	-0.068885	-6.260584	-0.375493	-0.309082	-0.091309	-0.234131
642.0	26.103715	-3.784044	15.311271	-0.323283	-5.063631	0.016303	-0.324463	-0.089355	-0.20459
643.0	17.447963	-10.141369	8.267606	0.547819	-4.048715	0.960942	-0.335938	-0.076416	-0.182129
644.0	10.437503	2.649503	9.348983	1.171857	-3.507776	0.974656	-0.342285	-0.080811	-0.15918
645.0	8.205374	9.063557	7.238691	0.863272	-3.441969	0.564958	-0.351318	-0.074463	-0.138672
646.0	33.994551	17.577899	15.110049	-0.832733	-1.805704	0.476756	-0.351318	-0.074463	-0.127441
647.0	12.520023	4.78578	6.325997	-0.919287	-0.208597	0.810485	-0.358154	-0.063477	-0.123047
648.0	6.393288	1.548284	8.477026	-0.954957	-0.223587	0.663626	-0.356201	-0.061279	-0.123047
649.0	8.592127	3.859336	7.852922	-0.882639	-0.039351	0.632706	-0.352051	-0.056885	-0.125488
650.0	7.597895	2.75943	8.1136	-0.801749	0.063986	0.552419	-0.358643	-0.054932	-0.116455
651.0	7.080649	3.457014	8.041407	-0.774651	0.107183	0.503599	-0.354492	-0.050537	-0.118652
652.0	6.760074	2.415888	8.268144	-0.744046	0.123321	0.473319	-0.354492	-0.052734	-0.12085
653.0	6.609132	1.264556	8.51866	-0.653306	0.086426	0.379053	-0.359131	-0.046143	-0.118896
654.0	6.189	1.026175	8.561188	-0.516579	0.051262	0.260621	-0.354492	-0.050537	-0.121094
655.0	6.157447	1.060444	8.561166	-0.386604	0.024267	0.156876	-0.361572	-0.039551	-0.118896
656.0	6.120738	1.266034	8.427159	-0.262583	0.002902	0.060016	-0.359131	-0.041748	-0.116699
657.0	6.019091	1.654335	8.423186	-0.157343	-0.013518	-0.016749	-0.359131	-0.041748	-0.118896
658.0	6.030926	1.629905	8.410876	-0.065796	-0.036105	-0.082199	-0.359131	-0.041748	-0.118896
659.0	6.08468	2.002733	8.258377	0.013739	-0.048754	-0.141721	-0.359131	-0.046143	-0.116455
660.0	6.053725	2.84433	8.084353	0.055807	-0.054698	-0.146545	-0.356689	-0.050537	-0.121094
661.0	6.021543	3.114606	8.063087	0.052473	-0.038136	-0.110732	-0.361328	-0.043945	-0.114258
662.0	6.038995	3.309259	8.04666	0.021825	-0.015857	-0.07221	-0.356934	-0.046143	-0.121094
663.0	5.952944	3.690643	8.049042	-0.061006	0.005428	-0.033886	-0.356689	-0.04834	-0.111816
664.0	5.920049	3.735671	8.091851	-0.173026	0.009783	0.013549	-0.359131	-0.046143	-0.114258
665.0	6.011087	3.752708	8.076173	-0.275571	0.004566	0.066245	-0.349854	-0.056885	-0.111816
666.0	6.127761	3.387928	8.090368	-0.331189	0.006831	0.134299	-0.341309	-0.050293	-0.114258
667.0	6.155628	2.569825	8.233396	-0.339687	0.001917	0.180438	-0.337158	-0.045898	-0.123291
668.0	6.212507	1.919889	8.345256	-0.280709	-0.034007	0.177767	-0.344971	-0.019775	-0.128418
669.0	6.08773	1.71831	8.473803	-0.202086	-0.084284	0.159527	-0.35376	-0.015625	-0.128418
670.0	6.025958	1.82845	8.593693	-0.131311	-0.155221	0.13394	-0.368896	-0.022217	-0.121582
671.0	5.933187	2.155452	8.619068	-0.073525	-0.234418	0.120618	-0.366455	-0.026611	-0.119141
672.0	5.871773	2.942557	8.490985	-0.042297	-0.312861	0.155813	-0.370605	-0.028809	-0.116943
673.0	5.75417	2.82926	8.172165	0.078642	-0.360296	0.262489	-0.372803	-0.033203	-0.116699
674.0	5.870746	4.202632	8.137565	0.310983	-0.398533	0.459958	-0.365967	-0.035156	-0.114502
675.0	6.160606	3.544802	8.126379	0.322849	-0.438837	0.644672	-0.368652	-0.026611	-0.112305
676.0	6.215549	3.336776	8.527102	0.338091	-0.509593	0.758177	-0.368408	-0.028809	-0.105469
677.0	6.125837	3.195897	8.834438	0.076396	-0.619083	0.841321	-0.375488	-0.02002	-0.105713
678.0	6.079505	1.815387	8.837219	0.170385	-0.751317	0.864859	-0.373779	-0.01123	-0.105713
679.0	5.910411	1.67197	9.387523	0.190228	-0.925593	0.846904	-0.375977	-0.009277	-0.092041
680.0	5.782996	1.518809	9.647904	0.169964	-1.17516	0.789162	-0.378174	-0.00708	-0.089844
681.0	5.571122	1.255156	9.988161	0.15856	-1.45127	0.724291	-0.378418	-0.002686	-0.080811
682.0	5.645148	1.371493	10.222081	0.183188	-1.781286	0.643979	-0.383057	0.003906	-0.076416
683.0	5.552517	1.282909	10.475864	0.211102	-2.140589	0.600808	-0.380859	0.005859	-0.060547
684.0	5.584472	1.333628	10.617791	0.23963	-2.57385	0.549972	-0.383301	0.010254	-0.051514
685.0	5.211473	1.27148	10.891812	0.338965	-3.07184	0.515091	-0.381348	0.016846	-0.028809
686.0	4.97013	1.707717	11.096855	0.478126	-3.651157	0.510516	-0.387939	0.014404	-0.006104
687.0	4.40131	2.228232	11.296743	0.656111	-4.292002	0.572864	-0.379639	0.025391	0.016602
688.0	3.947674	3.223851	11.294102	0.842256	-5.01795	0.739627	-0.384277	0.031738	0.046143
689.0	2.703305	3.681077	12.494916	1.01199	-5.878537	1.015428	-0.371582	0.03833	0.077881
690.0	0.767676	5.086629	13.336653	1.023128	-7.125774	1.344296	-0.36792	0.053711	0.12085
691.0	0.355238	5.340858	11.671719	1.013428	-8.527312	1.829449	-0.355469	0.068848	0.163818
692.0	1.657098	4.254336	11.863495	1.183985	-10.08147	2.192487	-0.332031	0.082031	0.220459
693.0	13.223501	6.025735	6.723914	1.899525	-11.251591	1.993654	-0.308838	0.101563	0.274902
694.0	38.560824	12.937662	7.082271	2.563913	-10.254082	2.263165	-0.283691	0.121338	0.313232
695.0	33.565273	7.962832	8.271289	2.44462	-8.550872	3.197007	-0.247559	0.147705	0.351318
696.0	23.362246	13.729215	11.649363	2.297914	-7.709122	3.835178	-0.21167	0.169678	0.366699
697.0	19.627773	12.58441	13.022072	2.009474	-6.999194	4.277208	-0.169189	0.198242	0.379883
698.0	18.977881	12.276076	15.788987	2.034047	-6.397143	4.408791	-0.130859	0.220215	0.38623
699.0	18.047529	13.318109	20.002466	2.293907	-5.392355	4.318779	-0.090576	0.242432	0.383545
700.0	11.492887	8.266218	20.614012	2.594435	-4.021793	4.024423	-0.047852	0.264648	0.371582
701.0	20.903933	4.596878	17.315373	2.945494	-1.988431	3.547072	-0.007324	0.282227	0.348389
702.0	18.689334	14.389254	23.286154	2.475021	1.436366	1.947076	0.0271	0.295654	0.322998
703.0	6.631706	15.19985	18.921724	1.307757	3.315288	0.844207	0.054932	0.304688	0.306885
704.0	-1.100777	13.494781	16.271597	-0.091853	3.606093	0.148085	0.080566	0.320068	0.306396
705.0	-3.419675	9.945867	12.883947	-1.219541	3.298567	-0.344328	0.110596	0.326904	0.308594
706.0	-1.65668	5.456752	10.878534	-1.62956	3.055225	-0.715401	0.13623	0.340088	0.317383
707.0	0.936839	2.847667	9.907215	-1.480717	3.207388	-1.251062	0.144287	0.355469	0.330811
708.0	2.892679	1.413557	9.170275	-1.071551	3.705643	-1.797665	0.145996	0.368408	0.348877
709.0	3.85501	1.314914	9.022626	-0.591234	4.338558	-2.222024	0.131836	0.392334	0.355225
710.0	5.074995	1.442057	9.065667	-0.239431	4.956571	-2.420701	0.113525	0.409668	0.359375
711.0	6.109533	1.420624	8.639901	-0.023909	5.650728	-2.368691	0.091064	0.424805	0.36377
712.0	5.812972	0.420382	8.184545	0.188662	6.245705	-2.151959	0.063721	0.448486	0.365479
713.0	5.843624	-0.63562	7.847135	0.532979	6.622894	-1.848865	0.030029	0.474609	0.355957
714.0	6.72086	-1.293355	7.37045	1.028111	6.907061	-1.545539	-0.010742	0.504883	0.341797
715.0	7.666119	-1.524401	7.249595	1.600234	7.179516	-1.302773	-0.064209	0.532959	0.325195
716.0	9.088365	-0.952209	7.538963	2.175298	7.402906	-1.158487	-0.128418	0.554443	0.290771
717.0	10.425313	0.575285	7.720592	2.590391	7.579113	-1.115047	-0.203613	0.57373	0.229004
718.0	11.490001	2.438065	8.244371	2.659374	7.616955	-1.189597	-0.280029	0.575684	0.137695
719.0	12.07963	1.954928	8.224248	2.470875	7.490654	-1.466787	-0.322021	0.542969	0.013184
720.0	12.783457	1.658354	7.989932	2.395317	7.18077	-1.874821	-0.310303	0.47583	-0.117676
721.0	13.616299	3.839618	8.938342	2.158064	6.744596	-2.388915	-0.229004	0.408936	-0.209961
722.0	14.674428	5.494977	10.549791	1.520122	6.309778	-2.977882	-0.109375	0.370361	-0.213867
723.0	15.905792	4.202063	12.115744	0.883087	5.998863	-3.647874	-0.017822	0.37085	-0.150146
724.0	16.308804	1.828931	13.199124	0.733665	5.760645	-4.31387	-0.012939	0.409912	-0.050781
725.0	16.323504	1.66176	13.798283	0.961032	5.436933	-4.76126	-0.101807	0.444092	0.014893
726.0	18.163541	4.454362	14.405992	1.071678	4.963659	-4.857011	-0.227539	0.430176	0.026611
727.0	21.910625	7.895677	13.961004	0.629235	4.574868	-4.656534	-0.345215	0.375	-0.015381
728.0	24.007685	-1.587265	10.848362	0.116698	4.203317	-4.662559	-0.422119	0.293701	-0.072998
729.0	24.850777	-2.462955	6.291725	0.736946	3.66528	-4.958805	-0.464111	0.206299	-0.137207
730.0	27.503329	5.259408	1.108635	0.081283	2.813891	-4.933052	-0.484375	0.121338	-0.178955
731.0	27.985297	3.86825	-4.976979	-1.809168	1.802248	-4.792788	-0.481201	0.049316	-0.220703
732.0	33.510284	-9.405936	-11.113582	-2.097526	0.961335	-4.732119	-0.478271	-0.013916	-0.246826
733.0	36.495092	-9.523403	-16.339404	-0.863112	0.743256	-4.225574	-0.465088	-0.066162	-0.268799
734.0	35.161253	-8.4082	-20.693341	-0.263282	0.284687	-3.097324	-0.463379	-0.10083	-0.283936
735.0	34.075757	-8.468386	-21.962858	-0.391459	-0.663418	-1.844106	-0.460205	-0.125	-0.278809
736.0	33.865384	-7.317186	-18.675367	-1.149567	-1.653771	-0.804316	-0.461914	-0.137939	-0.276367
737.0	31.126803	-13.106419	-14.76253	-1.378807	-2.236304	0.199507	-0.476807	-0.144775	-0.271729
738.0	7.443294	-2.504225	7.637075	1.26102	-3.479064	1.631949	-0.498779	-0.142822	-0.251221
739.0	-10.865792	16.33432	41.013647	-0.467144	-4.068403	2.704715	-0.518799	-0.13208	-0.235352
740.0	15.901067	9.878278	2.916833	-0.551579	-3.909673	2.363083	-0.538818	-0.121338	-0.208252
741.0	12.405367	-5.179679	-3.666911	-0.555818	-5.458485	1.318737	-0.560791	-0.119385	-0.167236
742.0	27.392131	10.216899	16.284066	-0.370942	-5.160438	0.063498	-0.564697	-0.128174	-0.139648
743.0	16.481555	-4.64983	8.54192	-0.531349	-3.978349	0.437231	-0.569092	-0.128174	-0.110107
744.0	12.447875	-4.713084	8.781127	0.192285	-3.420029	0.836178	-0.575928	-0.121826	-0.082764
745.0	5.806055	2.202693	7.696791	0.553413	-3.278355	0.682667	-0.578125	-0.121826	-0.048584
746.0	30.808938	16.546293	16.178508	-0.610324	-2.329061	0.407616	-0.582275	-0.124268	-0.037109
747.0	17.57965	1.513886	5.688869	-0.88474	-0.418233	0.662912	-0.584717	-0.119873	-0.034912
748.0	6.623654	-1.83945	9.326784	-0.719259	-0.204488	0.304576	-0.586914	-0.117676	-0.030518
749.0	9.01398	1.704907	7.75044	-0.357217	-0.10524	0.098787	-0.58252	-0.12207	-0.034912
750.0	7.510298	2.181282	8.356006	-0.188395	-0.012485	-0.026207	-0.584717	-0.119873	-0.028076
751.0	7.124521	3.248133	7.971006	-0.116113	-0.003247	-0.081254	-0.586914	-0.119873	-0.023682
752.0	6.734368	2.909733	8.195745	-0.083426	0.004358	-0.089741	-0.586914	-0.119873	-0.025879
753.0	6.465214	2.431619	8.301785	-0.017932	-0.013231	-0.12564	-0.578125	-0.119873	-0.025879
754.0	6.335662	2.292872	8.156892	0.038084	-0.031141	-0.158541	-0.584717	-0.119873	-0.032715
755.0	6.190853	2.378451	8.163599	0.091875	-0.04894	-0.194466	-0.577881	-0.126465	-0.025879
756.0	6.1234	2.712449	8.08583	0.113349	-0.047033	-0.200997	-0.580078	-0.124268	-0.025879
757.0	6.118424	2.806775	8.023551	0.134184	-0.041303	-0.203251	-0.575928	-0.12207	-0.012207
758.0	6.002094	2.895562	8.011997	0.13989	-0.039531	-0.199725	-0.580078	-0.128662	-0.02124
759.0	5.956729	2.970104	7.989073	0.142327	-0.041509	-0.190375	-0.582031	-0.130859	-0.023438
760.0	5.906637	3.278764	7.916977	0.132086	-0.035907	-0.177796	-0.577393	-0.137207	-0.020996
761.0	5.89002	3.817393	7.833847	0.096404	-0.024631	-0.129121	-0.584229	-0.133057	-0.018799
762.0	5.916532	3.856769	7.769782	0.032605	-0.001881	-0.073445	-0.57959	-0.13501	-0.020996
763.0	5.812361	4.161606	7.822878	-0.033965	0.014755	0.001571	-0.581787	-0.13501	-0.023438
764.0	5.81206	4.460863	7.775527	-0.13422	0.030581	0.082142	-0.582031	-0.133057	-0.016602
765.0	5.772779	4.612649	7.78912	-0.245461	0.056531	0.188447	-0.58374	-0.139404	-0.011719
766.0	5.77474	4.131126	7.948979	-0.364504	0.063081	0.282412	-0.571045	-0.13501	-0.016602
767.0	6.064715	3.39939	7.989783	-0.442043	0.049743	0.333232	-0.560303	-0.130615	-0.032471
768.0	5.996373	3.228056	8.142964	-0.485267	0.033225	0.355484	-0.567871	-0.106689	-0.0354
769.0	6.229162	2.552959	8.17168	-0.490355	0.010676	0.346219	-0.577148	-0.091309	-0.033203
770.0	6.288121	2.301549	8.164249	-0.452845	-0.017747	0.308758	-0.594238	-0.102295	-0.0354
771.0	6.214069	2.492748	8.230752	-0.408452	-0.046328	0.277637	-0.591797	-0.106689	-0.030762
772.0	6.135412	2.713134	8.165054	-0.366206	-0.074502	0.271089	-0.5896	-0.106689	-0.02832
773.0	6.003557	3.007688	8.274558	-0.347642	-0.111608	0.290369	-0.596191	-0.108887	-0.030762
774.0	5.795494	3.413928	8.387959	-0.368497	-0.187667	0.363643	-0.5896	-0.108887	-0.030762
775.0	5.856465	3.756843	8.2919	-0.364932	-0.257528	0.489577	-0.594238	-0.104492	-0.030762
776.0	5.576206	3.372842	8.140528	-0.059414	-0.341005	0.671509	-0.590088	-0.098145	-0.023926
777.0	6.270324	3.709217	8.306148	0.156314	-0.418246	0.883369	-0.594727	-0.091553	-0.021973
778.0	6.216249	2.109455	9.071472	0.324373	-0.536284	0.976821	-0.592773	-0.084961	-0.017578
779.0	5.983942	2.701523	9.952729	0.124103	-0.796977	1.001676	-0.602051	-0.074219	-0.010742
780.0	5.842426	0.985679	9.75535	0.218015	-1.104283	0.985659	-0.591309	-0.067627	0.002686
781.0	5.467211	0.617279	10.521169	0.257079	-1.436925	0.923838	-0.595947	-0.063232	0.004883
782.0	5.357562	0.380542	10.923157	0.299665	-1.855207	0.772094	-0.591553	-0.063232	0.018555
783.0	5.001782	0.417804	11.210196	0.336874	-2.317898	0.64517	-0.598633	-0.054688	0.04126
784.0	5.117645	1.080284	11.316845	0.452259	-2.854536	0.548842	-0.592285	-0.048096	0.066162
785.0	4.865352	1.427487	11.370869	0.564297	-3.458573	0.493165	-0.590088	-0.050293	0.088867
786.0	4.437202	2.638607	11.610314	0.671847	-4.11774	0.516928	-0.577393	-0.041504	0.125244
787.0	3.793054	3.486242	11.83039	0.814529	-4.876329	0.670359	-0.568604	-0.039551	0.161621
788.0	3.101809	4.041117	11.694622	0.991955	-5.702655	0.952326	-0.55835	-0.026367	0.20459
789.0	1.400975	4.374287	12.97479	1.169959	-6.737745	1.370501	-0.537109	-0.013428	0.256836
790.0	-0.639527	5.08114	14.237669	1.25491	-8.218618	1.856036	-0.518066	-0.000244	0.315918
791.0	-0.145628	6.134684	12.349303	1.229069	-9.866336	2.374794	-0.481689	0.017334	0.385986
792.0	6.105805	2.842896	8.107193	1.681868	-11.348414	2.406998	-0.43457	0.037109	0.463135
793.0	31.221812	13.965991	8.36169	2.952131	-11.400669	2.137259	-0.381348	0.063477	0.521729
794.0	39.448018	11.937467	7.992406	2.438139	-9.464317	3.355927	-0.330322	0.094238	0.571289
795.0	26.381447	9.588582	11.181346	2.380512	-8.354757	3.962081	-0.279541	0.131592	0.606934
796.0	22.173232	12.556609	13.876214	2.099045	-7.690763	4.434921	-0.228516	0.157959	0.638184
797.0	19.055584	11.443764	15.481878	1.984531	-7.037698	4.500434	-0.179688	0.190918	0.6604
798.0	19.384774	10.573301	19.876042	2.418893	-6.132364	4.271904	-0.131104	0.223877	0.668701
799.0	16.087499	7.737921	21.001807	3.023556	-4.737574	4.215225	-0.095703	0.26123	0.665771
800.0	19.882424	4.944861	17.386185	3.25166	-2.721506	4.372395	-0.07959	0.291992	0.64917
801.0	22.003018	14.091894	24.317446	2.454792	0.761851	3.223868	-0.078613	0.318115	0.63501
802.0	10.843207	13.964209	19.562925	1.241294	3.242369	2.001015	-0.092285	0.329102	0.614258
803.0	1.575588	12.534847	16.513933	-0.012327	3.932149	1.227783	-0.109863	0.335693	0.582275
804.0	-2.564257	9.868915	12.826971	-1.023873	3.878756	0.52089	-0.123047	0.335693	0.563965
805.0	-2.581459	6.390695	10.295882	-1.477524	3.601516	0.03316	-0.138184	0.331055	0.548096
806.0	-0.20355	3.639528	8.880581	-1.417358	3.618557	-0.582396	-0.161377	0.317871	0.530273
807.0	1.813508	2.404643	8.105671	-1.074476	3.984327	-1.239606	-0.181152	0.317871	0.511963
808.0	2.822665	2.421084	7.736614	-0.684625	4.536366	-1.808403	-0.205078	0.317871	0.486816
809.0	3.168756	2.616941	7.468398	-0.420566	5.067326	-2.206328	-0.233154	0.313232	0.448242
810.0	3.081547	2.69105	7.290591	-0.294967	5.457958	-2.400482	-0.250488	0.308838	0.427979
811.0	3.690939	2.134294	7.447181	-0.231519	5.735522	-2.416858	-0.282959	0.302246	0.386963
812.0	4.764198	0.82388	7.416958	-0.088415	6.032682	-2.345339	-0.307129	0.304443	0.357422
813.0	5.926588	-0.301276	7.322408	0.228967	6.382674	-2.227556	-0.320068	0.302246	0.30957
814.0	6.965446	-1.064138	7.344495	0.727437	6.741537	-2.071244	-0.333008	0.297852	0.273193
815.0	8.312922	-1.411583	7.415674	1.343117	7.060668	-1.880915	-0.352539	0.300049	0.232178
816.0	9.353432	-0.793271	7.706181	1.947875	7.310201	-1.701148	-0.365967	0.302246	0.191162
817.0	10.345041	0.557384	8.077311	2.377579	7.433722	-1.573295	-0.385986	0.313232	0.143066
818.0	11.725378	1.143883	8.322264	2.536515	7.420625	-1.563133	-0.399414	0.319824	0.097412
819.0	13.132946	1.033805	8.309592	2.586224	7.322106	-1.733863	-0.421387	0.322021	0.044922
820.0	14.182074	2.054644	8.4866	2.600582	7.157713	-2.028219	-0.43457	0.324219	-0.007568
821.0	15.133814	4.622889	9.513565	2.242616	6.90063	-2.453748	-0.447266	0.31543	-0.057373
822.0	15.499339	5.258478	10.983851	1.553336	6.601546	-2.981936	-0.45752	0.30249	-0.116455
823.0	16.549961	2.608716	12.47637	1.14497	6.296695	-3.59306	-0.456543	0.282959	-0.168457
824.0	17.779252	0.319174	13.445574	1.362176	6.05416	-4.175547	-0.464355	0.259033	-0.213623
825.0	18.775117	1.338	14.163009	1.829542	5.763459	-4.503951	-0.464844	0.224121	-0.258545
826.0	21.127331	5.817367	14.441926	1.859683	5.393473	-4.443682	-0.46582	0.196045	-0.3125
827.0	23.179396	7.517734	12.589375	1.206023	4.945663	-4.11785	-0.458008	0.167725	-0.355225
828.0	24.120869	-4.922698	8.310907	0.971819	4.190577	-4.135762	-0.452148	0.132813	-0.388916
829.0	28.604905	-0.11873	4.3445	1.531694	3.357521	-4.288764	-0.448486	0.098145	-0.427002
830.0	30.319602	6.549749	-1.16	0.254012	2.537472	-4.418719	-0.438232	0.067627	-0.451416
831.0	33.301208	-3.146285	-9.313259	-1.326291	1.527589	-4.661961	-0.437012	0.039307	-0.47583
832.0	37.004247	-10.262314	-18.282725	-0.849311	1.046899	-4.4803	-0.427002	0.01123	-0.491211
833.0	35.782161	-12.120077	-24.39266	0.135929	0.241235	-3.609272	-0.421387	-0.01709	-0.5
834.0	36.955537	-10.614968	-25.098889	0.450063	-0.855809	-2.547325	-0.427246	-0.032471	-0.495117
835.0	35.134936	-6.166287	-20.318936	-0.672834	-1.941933	-1.624547	-0.440186	-0.037109	-0.48584
836.0	33.894118	-8.652739	-14.962907	-1.980528	-2.679121	-0.836783	-0.457764	-0.032715	-0.48584
837.0	9.69518	-13.206106	10.35029	0.625182	-3.375375	0.711961	-0.473145	-0.030762	-0.453857
838.0	-24.82178	26.388933	47.430863	-0.481978	-4.242199	1.577797	-0.506348	-0.02002	-0.433594
839.0	13.285236	6.405147	3.837687	-1.228508	-4.519964	2.196648	-0.538086	0.005859	-0.406738
840.0	14.428816	-11.632877	-8.524997	-1.403202	-5.901948	1.746538	-0.564697	0.014404	-0.363525
841.0	30.844719	6.335469	17.208486	-0.268135	-5.875959	0.224999	-0.579834	0.016357	-0.32251
842.0	19.144757	-4.300025	8.870262	-0.379119	-4.548941	0.386967	-0.593262	0.022705	-0.279297
843.0	15.951509	-3.147448	9.373411	0.266447	-3.827329	0.695056	-0.5979	0.026855	-0.252197
844.0	13.04037	13.050903	13.924935	0.283198	-3.383285	0.719724	-0.608643	0.026855	-0.224854
845.0	28.344389	7.604578	7.314362	-1.466571	-0.957662	0.967775	-0.611572	0.041992	-0.213623
846.0	11.601358	3.458389	8.42299	-1.16675	-0.275888	0.921075	-0.609863	0.050781	-0.213867
847.0	7.883285	2.282835	8.310897	-0.996918	-0.066678	0.797682	-0.608398	0.065918	-0.207275
848.0	8.695193	1.811308	8.076663	-0.947554	0.134958	0.690697	-0.610596	0.070313	-0.211914
849.0	7.723721	2.463401	8.083997	-0.787305	0.191938	0.541183	-0.606445	0.07251	-0.205078
850.0	7.143513	2.613741	8.091925	-0.724489	0.185874	0.448832	-0.604492	0.079102	-0.209961
851.0	6.894316	2.258682	8.206397	-0.656683	0.16159	0.384115	-0.609131	0.085693	-0.2146
852.0	6.542943	2.050592	8.363006	-0.597677	0.115746	0.332174	-0.605225	0.094482	-0.212402
853.0	6.47142	1.474479	8.384419	-0.531086	0.072193	0.272426	-0.605225	0.092285	-0.207764
854.0	6.24909	1.102782	8.380109	-0.421628	0.037092	0.180333	-0.60083	0.094482	-0.205566
855.0	6.108484	1.408431	8.408201	-0.316329	0.006945	0.10091	-0.603271	0.098877	-0.212402
856.0	5.946726	1.66509	8.358897	-0.239694	-0.008351	0.044559	-0.605225	0.094482	-0.210205
857.0	5.984179	2.117517	8.334621	-0.187333	-0.023773	0.010997	-0.603271	0.098877	-0.208008
858.0	5.859818	2.66001	8.282428	-0.199124	-0.041355	0.029418	-0.601074	0.098877	-0.208008
859.0	5.966623	2.964128	8.100823	-0.273603	-0.05898	0.049183	-0.603027	0.094482	-0.205566
860.0	5.955103	3.151293	8.043678	-0.369482	-0.067076	0.068279	-0.601074	0.098877	-0.205566
861.0	5.956851	3.44198	8.03933	-0.440324	-0.071187	0.095133	-0.605469	0.098633	-0.196533
862.0	6.097385	3.147988	8.072492	-0.496262	-0.054717	0.140006	-0.603516	0.103027	-0.192139
863.0	6.065841	2.793304	8.159709	-0.519233	0.004818	0.192065	-0.596924	0.105225	-0.198975
864.0	6.063856	2.38482	8.205677	-0.519806	0.060048	0.226369	-0.59668	0.10083	-0.194336
865.0	6.123321	2.218092	8.31581	-0.509114	0.091698	0.250434	-0.592529	0.101074	-0.198975
866.0	6.186438	1.82961	8.305682	-0.47334	0.08287	0.262351	-0.57373	0.12085	-0.208496
867.0	6.229007	1.395449	8.332597	-0.384965	0.056053	0.255468	-0.579102	0.144775	-0.211182
868.0	6.154812	0.936025	8.510019	-0.285594	0.0259	0.2225	-0.596924	0.15332	-0.211426
869.0	6.159078	1.030109	8.579128	-0.167717	-0.029079	0.172012	-0.609863	0.148926	-0.199707
870.0	6.109371	1.862016	8.557581	-0.086069	-0.074763	0.152523	-0.611328	0.135742	-0.204102
871.0	6.074651	2.650629	8.594944	-0.063471	-0.112401	0.20236	-0.607178	0.137939	-0.201904
872.0	6.04776	2.815672	8.590865	-0.055349	-0.158697	0.294273	-0.602539	0.133545	-0.195068
873.0	5.824654	2.074962	8.297959	0.106457	-0.212095	0.424215	-0.607178	0.137939	-0.197266
874.0	6.339538	4.790293	8.412191	0.349378	-0.292408	0.650348	-0.609619	0.144531	-0.19751
875.0	6.105582	3.056949	9.020467	0.206189	-0.358152	0.866364	-0.603271	0.146729	-0.195313
876.0	6.180743	2.161047	9.081681	0.150243	-0.519825	0.947184	-0.60791	0.15332	-0.193115
877.0	5.784853	1.271003	9.574793	0.19653	-0.70362	0.979431	-0.610596	0.16626	-0.186523
878.0	5.868112	0.902827	9.582373	0.252448	-0.934765	0.957795	-0.604248	0.170654	-0.186523
879.0	5.577167	0.642568	9.853874	0.252083	-1.160235	0.889151	-0.608887	0.177246	-0.173096
880.0	5.421045	0.335259	10.21795	0.216697	-1.438894	0.774187	-0.609375	0.185791	-0.159424
881.0	5.310915	0.308816	10.4183	0.192587	-1.756024	0.651547	-0.614014	0.192383	-0.152832
882.0	5.310938	-0.029778	10.663289	0.228012	-2.125373	0.542516	-0.607422	0.19458	-0.13916
883.0	5.326075	0.040757	10.768465	0.31623	-2.55198	0.434993	-0.611816	0.19458	-0.116455
884.0	5.097865	0.720703	11.034939	0.40665	-3.025516	0.382171	-0.618408	0.194336	-0.091309
885.0	4.871924	1.784239	11.175946	0.479537	-3.592511	0.418337	-0.618408	0.196533	-0.05249
886.0	4.555709	2.91358	11.199629	0.554417	-4.221462	0.583043	-0.62085	0.202881	-0.025391
887.0	3.789096	3.67916	11.639174	0.606925	-4.902198	0.87593	-0.619141	0.21167	0.010986
888.0	2.615481	4.281154	12.668156	0.638055	-5.782519	1.237154	-0.61084	0.218018	0.054199
889.0	1.779317	5.402632	12.231541	0.576332	-6.901309	1.672505	-0.600586	0.233398	0.113037
890.0	0.80434	4.826101	11.800356	0.72577	-8.133718	2.258582	-0.581543	0.246338	0.181152
891.0	1.064684	1.871227	11.801881	1.02628	-9.74785	2.51351	-0.556396	0.270264	0.249023
892.0	9.874132	0.416948	6.092788	1.660402	-11.11354	2.02938	-0.52002	0.287842	0.328369
893.0	33.496224	11.661876	8.53408	2.960894	-10.80702	1.642741	-0.481934	0.312012	0.394043
894.0	34.571451	6.75066	9.042008	2.683226	-9.03427	2.823857	-0.439453	0.340332	0.443359
895.0	24.435788	13.211547	10.79855	2.160382	-8.163063	3.480314	-0.39502	0.371094	0.49292
896.0	21.776988	10.54143	12.94541	2.048024	-7.645445	3.921008	-0.344238	0.404053	0.52417
897.0	21.072129	11.197793	14.894622	2.255136	-7.159484	4.026865	-0.297607	0.434814	0.548584
898.0	24.193091	12.383018	20.509316	2.496435	-6.091287	3.999749	-0.253174	0.467773	0.575195
899.0	19.674057	11.003307	21.925919	2.32978	-3.922228	3.751073	-0.226074	0.491943	0.58374
900.0	16.242744	6.350323	18.28889	2.282613	-1.246109	3.159357	-0.218262	0.513916	0.572021
901.0	18.197644	13.941054	24.998026	1.868181	1.739147	1.775908	-0.2229	0.522705	0.546631
902.0	5.062848	13.443347	19.846221	1.025762	3.370152	0.78362	-0.24707	0.522461	0.5354
903.0	-2.47187	11.55548	16.772073	0.113182	3.434759	0.15601	-0.266602	0.520264	0.514893
904.0	-2.423071	8.211385	13.534803	-0.549399	3.182779	-0.395575	-0.287842	0.511475	0.506104
905.0	-0.420417	4.438691	11.915635	-0.71285	3.182389	-0.923484	-0.309326	0.500488	0.483398
906.0	1.607021	2.498336	11.014684	-0.518769	3.523589	-1.523262	-0.327881	0.480713	0.468018
907.0	2.419554	1.588761	10.265738	-0.249714	4.073023	-2.05557	-0.364502	0.467529	0.45459
908.0	2.420525	1.343839	9.88817	-0.08461	4.592107	-2.420823	-0.391846	0.447754	0.420898
909.0	2.762709	1.140453	9.502236	-0.035187	5.013417	-2.56611	-0.428223	0.430176	0.391602
910.0	3.542969	0.458172	9.264474	-0.012079	5.384142	-2.560722	-0.457764	0.406006	0.355713
911.0	4.46451	-0.723489	9.077383	0.074962	5.747192	-2.493074	-0.489258	0.379639	0.315186
912.0	5.596544	-1.679053	8.797644	0.31242	6.13403	-2.374686	-0.51709	0.366455	0.262939
913.0	6.511202	-2.325287	8.553827	0.694184	6.536868	-2.181675	-0.535645	0.344727	0.20874
914.0	7.476113	-2.682288	8.443584	1.211509	6.902288	-1.932888	-0.553955	0.316406	0.15918
915.0	8.539252	-2.508198	8.538604	1.788357	7.170864	-1.671539	-0.568604	0.30127	0.0979
916.0	9.59549	-1.378477	8.908538	2.297774	7.328251	-1.453561	-0.57666	0.285889	0.036865
917.0	11.014036	0.028698	9.515179	2.546125	7.352343	-1.379425	-0.586914	0.268555	-0.017578
918.0	12.317633	0.17083	9.865614	2.523144	7.26473	-1.532556	-0.588135	0.249023	-0.078857
919.0	14.198517	0.257951	9.95942	2.519848	7.125336	-1.829229	-0.582764	0.227539	-0.135254
920.0	15.381737	2.651132	10.684697	2.320586	6.954689	-2.249173	-0.579346	0.197021	-0.189453
921.0	16.224737	4.405558	11.708348	1.693137	6.746325	-2.759541	-0.5625	0.162354	-0.243408
922.0	16.450164	3.559608	12.705683	1.020162	6.485427	-3.303667	-0.543457	0.127686	-0.290527
923.0	17.30914	1.392978	13.665655	0.80944	6.189762	-3.839509	-0.530762	0.086426	-0.328613
924.0	18.519067	0.673726	14.285922	1.046598	5.924259	-4.237	-0.509521	0.049561	-0.366699
925.0	20.403916	3.624224	14.575293	1.274025	5.650429	-4.371208	-0.48999	0.006104	-0.399902
926.0	23.444277	8.08153	13.741574	0.904419	5.449672	-4.192307	-0.462402	-0.026367	-0.428955
927.0	23.734581	6.986153	9.82472	0.179934	5.15328	-3.966301	-0.437256	-0.054443	-0.462646
928.0	22.194484	-4.550661	4.182529	0.331939	4.215271	-4.138763	-0.407227	-0.093506	-0.475586
929.0	26.129812	1.815284	1.324889	0.867677	2.970247	-4.37897	-0.384033	-0.121826	-0.490967
930.0	29.513842	4.606053	-1.805559	-0.507085	2.069142	-4.622189	-0.367676	-0.145508	-0.508789
931.0	35.723118	-7.646222	-9.95191	-1.135272	1.488463	-4.850166	-0.346924	-0.171631	-0.519775
932.0	35.090102	-10.713844	-18.317963	-0.42377	1.020934	-4.302505	-0.33252	-0.199951	-0.516846
933.0	35.921697	-12.175415	-23.58645	0.194461	0.008908	-3.091237	-0.323242	-0.212891	-0.512207
934.0	35.714163	-8.682362	-22.318901	-0.066158	-1.072412	-1.880727	-0.327148	-0.22168	-0.502686
935.0	34.061413	-6.520626	-16.797485	-1.402054	-2.032247	-0.819558	-0.338379	-0.217529	-0.500488
936.0	32.015158	-7.642461	-11.307474	-2.161921	-2.559677	-0.06416	-0.356445	-0.20459	-0.487061
937.0	17.638541	-16.24834	2.136225	-0.510715	-2.662418	0.965143	-0.365234	-0.202393	-0.473633
938.0	-21.576751	24.052214	47.146134	1.283358	-2.992974	1.631685	-0.393799	-0.193848	-0.4646
939.0	-13.153311	10.452863	21.376404	-0.785566	-3.850941	2.28802	-0.422852	-0.178955	-0.439697
940.0	20.034661	5.867019	-15.24585	-1.602641	-4.740872	1.540471	-0.456299	-0.163818	-0.407959
941.0	17.099827	-0.673371	9.242852	0.056196	-6.29834	-0.405949	-0.468994	-0.172852	-0.364502
942.0	23.206846	2.039184	14.291746	-0.715261	-5.131508	-0.4732	-0.482178	-0.173096	-0.328125
943.0	17.622487	-10.941015	6.94026	0.013292	-4.39023	0.298834	-0.490723	-0.173096	-0.293945
944.0	11.892022	0.269136	9.869137	0.822534	-3.695764	0.643886	-0.508301	-0.168945	-0.259766
945.0	9.957816	5.8119	7.412763	0.741066	-3.407025	0.443554	-0.51709	-0.166992	-0.232422
946.0	31.89254	14.833826	16.003144	-0.263042	-2.533265	0.104988	-0.512939	-0.166992	-0.214111
947.0	14.986737	6.01904	5.567811	-0.623662	-0.182547	0.71567	-0.521973	-0.1604	-0.216553
948.0	5.898534	1.903412	8.773774	-1.007333	-0.249284	0.61112	-0.517822	-0.151611	-0.203125
949.0	8.823445	3.865702	7.399707	-0.807813	-0.089816	0.615914	-0.518066	-0.147217	-0.216797
950.0	7.554313	2.729002	8.326569	-0.784561	0.054747	0.56646	-0.518311	-0.143066	-0.210205
951.0	7.466256	3.248378	8.081671	-0.733692	0.11579	0.521965	-0.518555	-0.134277	-0.212646
952.0	6.912852	2.346304	8.28558	-0.699484	0.131191	0.482224	-0.518799	-0.129883	-0.212646
953.0	6.896306	0.999894	8.429946	-0.56805	0.093707	0.373353	-0.52124	-0.125488	-0.215088
954.0	6.656001	1.110478	8.363141	-0.40154	0.04776	0.229234	-0.520996	-0.129883	-0.208008
955.0	6.375001	1.262636	8.32114	-0.263116	0.023851	0.124092	-0.521484	-0.121094	-0.215088
956.0	6.187125	1.414606	8.429879	-0.154824	-0.005896	0.029829	-0.519287	-0.121094	-0.215088
957.0	6.182468	1.441219	8.332916	-0.058296	-0.034281	-0.043223	-0.51709	-0.123291	-0.219727
958.0	6.170536	1.381582	8.308193	0.033801	-0.054569	-0.124171	-0.523438	-0.125488	-0.212646
959.0	6.307597	1.658839	8.272187	0.130878	-0.062666	-0.189021	-0.523438	-0.125488	-0.217285
960.0	6.223176	1.602953	8.295741	0.232363	-0.063694	-0.24684	-0.51709	-0.123291	-0.217285
961.0	6.202499	1.890512	8.175046	0.314988	-0.060859	-0.30071	-0.512207	-0.13208	-0.210449
962.0	6.10495	2.595316	8.092198	0.334881	-0.047736	-0.321412	-0.516357	-0.136475	-0.205811
963.0	6.017967	3.053303	8.065633	0.315697	-0.034501	-0.311215	-0.518311	-0.140869	-0.210205
964.0	5.91252	3.36141	7.983432	0.265364	-0.012936	-0.292019	-0.518066	-0.147217	-0.205566
965.0	5.814979	3.831813	7.826794	0.174552	0.000744	-0.241263	-0.51123	-0.153809	-0.198486
966.0	5.628209	4.446686	7.753211	0.023724	0.01691	-0.153328	-0.504883	-0.149414	-0.205566
967.0	5.755426	4.319817	7.72731	-0.131896	0.023105	-0.053687	-0.491943	-0.147217	-0.207764
968.0	5.932244	3.645785	7.892906	-0.218426	0.040964	0.02457	-0.490723	-0.123047	-0.224121
969.0	5.765341	3.230307	8.073795	-0.27775	0.036938	0.085124	-0.504395	-0.112305	-0.215332
970.0	5.771593	3.173679	8.215748	-0.322839	0.005953	0.130192	-0.521729	-0.116699	-0.210693
971.0	5.958625	2.76177	8.23857	-0.345176	-0.028324	0.156731	-0.52124	-0.125488	-0.212646
972.0	5.932569	2.766877	8.250695	-0.338271	-0.06014	0.150649	-0.527588	-0.13208	-0.208008
973.0	5.769706	3.340217	8.31729	-0.343592	-0.092015	0.180884	-0.520996	-0.129883	-0.212646
974.0	5.686479	4.010011	8.370764	-0.406568	-0.116967	0.261279	-0.523438	-0.127686	-0.203613
975.0	5.898529	3.783599	8.273293	-0.484153	-0.126334	0.367071	-0.52124	-0.125488	-0.203613
976.0	6.0852	3.128059	8.314707	-0.508585	-0.140092	0.439766	-0.521484	-0.118896	-0.210693
977.0	6.078668	2.619321	8.567807	-0.471307	-0.188518	0.476723	-0.525879	-0.116699	-0.212891
978.0	5.939023	2.469199	8.694465	-0.395837	-0.262448	0.512356	-0.530518	-0.114746	-0.206055
979.0	5.805759	1.74048	8.524026	-0.121852	-0.381165	0.583255	-0.526367	-0.105957	-0.199463
980.0	6.086062	3.912157	8.52238	0.323592	-0.502711	0.781563	-0.533203	-0.101563	-0.201904
981.0	6.243013	2.022061	9.233387	0.453871	-0.625257	0.943915	-0.535645	-0.094971	-0.195068
982.0	5.820952	1.672836	10.567636	0.236908	-0.94069	0.878254	-0.540527	-0.086426	-0.179199
983.0	5.708999	0.337832	10.172298	0.291055	-1.272217	0.777064	-0.538574	-0.079834	-0.174805
984.0	5.160319	-0.008813	11.107905	0.343637	-1.633337	0.677156	-0.549561	-0.077881	-0.17041
985.0	5.261834	-0.093786	11.226567	0.444357	-2.116504	0.497224	-0.551758	-0.075684	-0.147705
986.0	4.893997	0.519853	11.344226	0.553333	-2.630439	0.373191	-0.553955	-0.077881	-0.126953
987.0	4.806564	1.803848	11.537673	0.712634	-3.212675	0.338711	-0.55835	-0.07373	-0.102051
988.0	4.397293	2.938147	11.619449	0.859578	-3.863326	0.388846	-0.562744	-0.07373	-0.07251
989.0	3.959008	4.055653	12.154313	0.978059	-4.579304	0.588587	-0.56543	-0.065186	-0.029297
990.0	3.066498	4.849163	12.856818	0.995938	-5.46292	0.877054	-0.565918	-0.052246	0.011475
991.0	2.34984	6.279712	11.791139	0.911994	-6.43535	1.310669	-0.561768	-0.047852	0.056885
992.0	0.813566	4.799489	12.588346	1.068167	-7.519257	1.920603	-0.553955	-0.02832	0.129639
993.0	0.108936	4.717126	13.608562	1.221071	-9.023686	2.387363	-0.541992	0.0	0.199707
994.0	4.126602	4.43573	10.662742	1.099583	-10.44856	2.503342	-0.511963	0.010742	0.283691
995.0	20.968755	8.198054	7.347958	2.241167	-10.966323	1.993827	-0.480713	0.04126	0.358154
996.0	36.860654	7.91998	7.541644	2.662417	-9.534572	2.565695	-0.438477	0.072021	0.423584
997.0	28.580544	13.930206	10.690083	2.340198	-8.302855	3.43725	-0.411377	0.104736	0.477783
998.0	20.941588	10.754234	12.756956	1.809418	-7.699508	4.038518	-0.369629	0.14209	0.533936
999.0	17.803518	11.143415	14.453573	2.044071	-7.23023	4.229367	-0.332031	0.181396	0.56958
1000.0	21.804134	11.399387	19.544303	2.43466	-6.580178	3.985341	-0.292236	0.21875	0.600586
1001.0	23.356768	9.434444	21.922933	2.617521	-4.63002	3.480421	-0.265381	0.251709	0.618164
1002.0	10.729123	4.916973	19.872084	2.722305	-2.268949	3.079527	-0.249268	0.284424	0.624512
1003.0	20.059087	13.819879	24.699523	2.339427	0.675453	2.027802	-0.263184	0.301758	0.612549
1004.0	9.394908	16.566954	23.269494	1.002893	3.280178	0.832221	-0.285645	0.314941	0.594238
1005.0	-2.906334	12.759665	17.585478	-0.386871	3.789388	0.378649	-0.300781	0.310303	0.580566
1006.0	-5.123329	9.041485	14.732017	-1.202332	3.47762	0.006856	-0.324219	0.301514	0.567139
1007.0	-2.866029	5.520784	12.019898	-1.554366	3.289448	-0.311774	-0.347656	0.28833	0.544678
1008.0	-0.484274	1.9634	10.597972	-1.380821	3.479305	-0.724295	-0.366943	0.279541	0.53125
1009.0	1.512934	0.647737	9.913412	-0.831421	3.951996	-1.180527	-0.401123	0.261963	0.50415
1010.0	2.318237	1.463578	9.611249	-0.369341	4.577771	-1.523904	-0.426758	0.248779	0.477051
1011.0	2.616948	2.279842	9.33361	-0.214615	5.173356	-1.692814	-0.45459	0.23999	0.436279
1012.0	3.138696	2.070191	8.890787	-0.222868	5.671492	-1.694621	-0.48877	0.224609	0.395752
1013.0	3.464815	1.003369	8.433664	-0.174897	6.088148	-1.609683	-0.512451	0.213623	0.348145
1014.0	4.159332	-0.457312	7.953175	0.062046	6.444464	-1.489829	-0.540039	0.200439	0.293701
1015.0	5.15576	-1.677578	7.444308	0.565206	6.76579	-1.356587	-0.565918	0.19165	0.236816
1016.0	6.175965	-1.704362	7.365799	1.233742	7.003708	-1.172139	-0.582764	0.176514	0.171143
1017.0	7.964756	-1.068606	7.808107	1.881134	7.161005	-0.97817	-0.591064	0.167969	0.118896
1018.0	10.361504	0.458704	8.170042	2.398468	7.285625	-0.839274	-0.597168	0.161377	0.055176
1019.0	12.183688	2.255663	8.578538	2.572602	7.398783	-0.841447	-0.594971	0.157227	-0.001709
1020.0	12.686708	2.343013	9.109015	2.396751	7.326416	-1.080109	-0.60498	0.135498	-0.05835
1021.0	14.720532	1.120774	8.772915	2.360517	7.11644	-1.508046	-0.600098	0.124756	-0.117188
1022.0	16.274393	4.021289	8.941795	2.252677	6.880429	-2.010951	-0.586182	0.105225	-0.178467
1023.0	16.474554	7.015114	9.976589	1.579196	6.554744	-2.512173	-0.580566	0.079346	-0.230469
1024.0	16.614802	5.943161	10.893061	0.821871	6.149722	-3.073568	-0.560059	0.059814	-0.280273
1025.0	17.223846	3.25099	11.825378	0.630261	5.753299	-3.649262	-0.54541	0.022949	-0.331787
1026.0	17.395975	2.238985	12.555416	0.986696	5.387238	-4.11123	-0.526367	-0.013916	-0.369873
1027.0	18.737478	3.692689	12.998833	1.44862	4.90406	-4.339191	-0.504883	-0.055176	-0.401123
1028.0	22.891244	8.289113	12.641777	1.450483	4.592915	-4.208274	-0.479248	-0.092041	-0.43457
1029.0	24.533021	9.316619	10.635236	0.832001	4.511032	-3.932206	-0.449707	-0.115723	-0.466064
1030.0	22.949911	3.070349	6.536374	0.356092	4.186127	-3.867144	-0.428467	-0.150391	-0.488037
1031.0	20.493433	-6.951619	1.769641	1.043193	3.241452	-4.467404	-0.401123	-0.180664	-0.503418
1032.0	22.63977	4.714911	1.384854	0.696842	2.043668	-4.904209	-0.38208	-0.215576	-0.516602
1033.0	32.564593	-1.434934	-4.516183	-0.768696	1.350541	-4.925729	-0.363525	-0.237305	-0.527588
1034.0	33.645393	-9.402923	-12.319132	-0.727782	1.221054	-4.254214	-0.347412	-0.256592	-0.533936
1035.0	33.794758	-13.903703	-19.292938	0.321115	0.522632	-3.092885	-0.33374	-0.269775	-0.536133
1036.0	35.364438	-10.615729	-20.719974	0.727051	-0.376341	-1.759871	-0.335205	-0.284912	-0.53125
1037.0	33.129291	-6.120082	-17.289142	-0.467736	-1.370934	-0.557134	-0.346191	-0.282959	-0.519775
1038.0	31.897642	-7.45103	-12.720739	-1.619677	-2.130189	0.222857	-0.361816	-0.278564	-0.517578
1039.0	22.498234	-9.910474	-3.40473	-1.19248	-2.422552	0.966712	-0.375732	-0.26123	-0.506592
1040.0	-9.265841	13.13082	33.131327	0.235239	-3.061697	1.504806	-0.4021	-0.254883	-0.49292
1041.0	-16.422433	10.103641	31.467219	-1.508854	-3.798098	1.683057	-0.440186	-0.231201	-0.475098
1042.0	17.987132	5.91726	-9.804812	-1.870917	-4.581983	0.89384	-0.470947	-0.227051	-0.452393
1043.0	15.431243	-9.448281	4.28231	-0.419598	-6.247783	-0.493355	-0.492676	-0.227295	-0.411377
1044.0	26.215405	-1.607589	17.245235	-0.585714	-5.226309	-0.525568	-0.51001	-0.229736	-0.36792
1045.0	17.534314	-11.445107	7.582268	0.227588	-4.263688	0.529731	-0.525635	-0.223389	-0.338379
1046.0	12.214365	-0.419791	9.77583	1.052356	-3.568778	0.804456	-0.53418	-0.228027	-0.301758
1047.0	7.940323	7.678097	7.308428	0.989473	-3.428295	0.462451	-0.543213	-0.221436	-0.272461
1048.0	24.14903	17.727264	14.777258	0.079625	-3.004467	0.165672	-0.547363	-0.223877	-0.249512
1049.0	21.467859	3.179189	5.982635	-0.742052	-0.439939	0.743297	-0.55249	-0.206299	-0.24292
1050.0	6.563564	4.416915	8.447844	-0.851247	-0.349158	0.583452	-0.552734	-0.204102	-0.243164
1051.0	7.918823	3.952001	7.805504	-0.754748	-0.184512	0.665998	-0.555176	-0.193359	-0.236328
1052.0	8.083663	3.261381	7.965195	-0.77608	-0.039958	0.620499	-0.557373	-0.195557	-0.240967
1053.0	7.089215	4.215567	7.978313	-0.77765	0.041187	0.620151	-0.560059	-0.18457	-0.23877
1054.0	6.932863	3.044973	8.141723	-0.808467	0.099533	0.628408	-0.560547	-0.175781	-0.239014
1055.0	6.847737	1.775852	8.319812	-0.750573	0.099109	0.560735	-0.560791	-0.169434	-0.243652
1056.0	6.622404	1.127437	8.456852	-0.642718	0.071688	0.440705	-0.565186	-0.167236	-0.246094
1057.0	6.396394	0.866863	8.4864	-0.522299	0.040326	0.31916	-0.559082	-0.158447	-0.246338
1058.0	6.249587	0.908829	8.458591	-0.401776	0.017569	0.203924	-0.563232	-0.162842	-0.248535
1059.0	6.129248	0.947056	8.523838	-0.285421	-0.007761	0.100386	-0.561523	-0.154053	-0.244141
1060.0	6.09909	1.33256	8.350805	-0.18222	-0.025272	0.008943	-0.56543	-0.160645	-0.241699
1061.0	5.95532	1.917899	8.288421	-0.123865	-0.038614	-0.035698	-0.558838	-0.160645	-0.243896
1062.0	5.946685	2.64339	8.140453	-0.11355	-0.046522	-0.032256	-0.558838	-0.162842	-0.241699
1063.0	5.997303	3.256715	8.003908	-0.163108	-0.044399	0.017327	-0.559326	-0.154053	-0.241699
1064.0	6.018346	3.478715	7.90949	-0.232803	-0.023561	0.075434	-0.561035	-0.162842	-0.241699
1065.0	5.933467	3.605061	8.004642	-0.333207	0.009356	0.13477	-0.567871	-0.15625	-0.241699
1066.0	5.924894	3.579149	8.034227	-0.462942	0.051906	0.209884	-0.563232	-0.160645	-0.237061
1067.0	6.089968	3.514916	8.0375	-0.585538	0.095596	0.274732	-0.554688	-0.15625	-0.239502
1068.0	6.10774	3.431068	8.140282	-0.682738	0.115427	0.338092	-0.539551	-0.156006	-0.239502
1069.0	6.368699	2.63926	8.193443	-0.727644	0.13037	0.374686	-0.529785	-0.13208	-0.253662
1070.0	6.314805	1.450471	8.292273	-0.686921	0.134598	0.365079	-0.54834	-0.105957	-0.265625
1071.0	6.276024	0.681904	8.521123	-0.553084	0.104216	0.295345	-0.566162	-0.097168	-0.265625
1072.0	6.257113	0.80233	8.570834	-0.39894	0.054265	0.225661	-0.573975	-0.114746	-0.256104
1073.0	6.06483	1.442629	8.612709	-0.285563	-0.013878	0.187356	-0.574219	-0.110352	-0.253906
1074.0	6.099036	2.086007	8.551211	-0.22047	-0.06794	0.190304	-0.573975	-0.116943	-0.258545
1075.0	6.037013	2.27169	8.582044	-0.185517	-0.11072	0.225999	-0.571777	-0.119141	-0.256104
1076.0	6.062215	2.112354	8.561859	-0.128816	-0.161855	0.287512	-0.571777	-0.116943	-0.256104
1077.0	5.810303	1.638347	8.365926	0.039153	-0.220857	0.360922	-0.572021	-0.110352	-0.253906
1078.0	6.088596	3.723183	8.375015	0.37174	-0.292276	0.532234	-0.576416	-0.110596	-0.249512
1079.0	6.275546	2.699962	8.768267	0.352394	-0.349724	0.715733	-0.574463	-0.104004	-0.247314
1080.0	6.138765	2.593715	9.136089	0.225497	-0.488861	0.804381	-0.579102	-0.099609	-0.240479
1081.0	5.830123	1.294291	9.585196	0.211445	-0.666974	0.848564	-0.58374	-0.09082	-0.238525
1082.0	5.655806	0.900633	9.842797	0.224646	-0.922173	0.807313	-0.586182	-0.088867	-0.229248
1083.0	5.465851	0.321575	10.12099	0.225329	-1.194648	0.696115	-0.59082	-0.080078	-0.222656
1084.0	5.393476	0.190217	10.444384	0.218025	-1.507827	0.5672	-0.593262	-0.077881	-0.208984
1085.0	5.297014	0.336329	10.726532	0.23633	-1.855449	0.460138	-0.604248	-0.075928	-0.197754
1086.0	5.359987	0.452761	10.667587	0.301425	-2.255645	0.383545	-0.606445	-0.07373	-0.172607
1087.0	5.231545	0.779041	10.894262	0.383591	-2.687309	0.336344	-0.608643	-0.071533	-0.154541
1088.0	4.998496	1.546393	11.07695	0.493919	-3.203425	0.34015	-0.613037	-0.06958	-0.124756
1089.0	4.804909	2.66174	11.119469	0.573487	-3.798034	0.446391	-0.620117	-0.061035	-0.093018
1090.0	4.375328	3.427254	11.38579	0.646252	-4.426007	0.66504	-0.624512	-0.058838	-0.052002
1091.0	3.392863	3.530717	12.471534	0.735834	-5.183351	0.968713	-0.62085	-0.043701	-0.011475
1092.0	2.455353	4.54449	12.724277	0.737499	-6.164339	1.301299	-0.623535	-0.032959	0.047607
1093.0	1.150804	5.043753	12.068993	0.814603	-7.290441	1.828442	-0.621826	-0.02002	0.11792
1094.0	0.201688	3.859719	12.812064	0.974781	-8.748368	2.326106	-0.607422	-0.000488	0.190674
1095.0	3.216378	2.35788	10.757761	1.021811	-10.303916	2.381361	-0.58252	0.027832	0.274414
1096.0	16.491448	5.955119	6.288976	2.135148	-11.120839	1.844558	-0.546387	0.049561	0.362793
1097.0	36.775889	6.196475	8.127246	2.853769	-10.020523	2.070608	-0.502197	0.08252	0.437256
1098.0	31.264467	13.750652	9.915774	2.533604	-8.554918	3.010155	-0.46875	0.115234	0.498047
1099.0	22.105381	10.814789	11.4153	1.751338	-7.827217	3.735729	-0.428955	0.156982	0.554199
1100.0	18.401057	9.922104	12.841548	1.82035	-7.298976	4.110086	-0.385254	0.200684	0.603516
1101.0	21.640029	12.071267	17.596176	2.064344	-6.868104	4.166749	-0.341553	0.246582	0.636719
1102.0	24.999563	11.479085	21.158019	2.116179	-5.271424	3.918226	-0.310059	0.277344	0.665527
1103.0	13.056013	5.236778	20.028765	2.100672	-2.729923	3.453539	-0.288086	0.319092	0.671631
1104.0	18.190836	8.342086	21.479757	2.37983	0.177428	2.569259	-0.291504	0.349609	0.664063
1105.0	13.518892	14.215931	23.348232	1.746109	2.95362	1.260653	-0.307861	0.371338	0.643311
1106.0	-0.110179	12.360812	17.633656	0.721419	3.814562	0.705557	-0.325684	0.379883	0.627197
1107.0	-3.077088	10.257133	14.563158	-0.131173	3.634003	0.234417	-0.3479	0.388672	0.61792
1108.0	-1.574466	7.470568	11.620046	-0.744309	3.49984	-0.175636	-0.369873	0.392822	0.599609
1109.0	0.35151	3.844338	10.17523	-0.860561	3.671723	-0.681431	-0.391602	0.392822	0.581299
1110.0	1.767392	2.107738	9.130797	-0.618487	4.048181	-1.265242	-0.42627	0.388184	0.563232
1111.0	2.250841	1.884046	8.518379	-0.306336	4.535951	-1.761013	-0.459229	0.390137	0.53833
1112.0	2.750276	2.208634	8.365604	-0.110134	4.977284	-2.075382	-0.489502	0.383545	0.510986
1113.0	3.461178	2.157579	8.254512	-0.034268	5.389173	-2.214211	-0.526611	0.387695	0.474609
1114.0	3.948733	1.434664	8.194872	-0.012066	5.769755	-2.2472	-0.566162	0.39209	0.447266
1115.0	4.141833	-0.190151	7.95996	0.137491	6.089359	-2.215351	-0.614502	0.398438	0.396973
1116.0	4.526445	-1.484158	7.571628	0.542496	6.33874	-2.085417	-0.658203	0.404785	0.353516
1117.0	5.551586	-2.141122	7.543691	1.160329	6.514558	-1.890514	-0.709229	0.421875	0.296387
1118.0	7.362129	-1.762857	8.068395	1.795783	6.692408	-1.668149	-0.766602	0.437012	0.225342
1119.0	9.409178	-1.188081	8.670425	2.342105	6.916715	-1.478604	-0.822021	0.45874	0.147705
1120.0	10.887666	0.050389	9.108583	2.715507	7.120465	-1.389818	-0.884277	0.484863	0.037842
1121.0	11.441773	0.582834	9.419552	2.780317	7.188378	-1.45824	-0.937256	0.497803	-0.083252
1122.0	12.216687	0.152989	9.35283	2.76742	7.038903	-1.66871	-0.98999	0.504395	-0.226807
1123.0	13.783134	1.192018	9.632354	2.764255	6.769917	-1.967496	-1.033447	0.498047	-0.388428
1124.0	15.001743	3.63365	10.952375	2.383415	6.488753	-2.346862	-1.062988	0.476563	-0.556641
1125.0	15.628384	3.833964	12.307681	1.730192	6.22343	-2.819648	-1.067139	0.422363	-0.751709
1126.0	16.378051	1.752078	13.393498	1.366248	5.976075	-3.354271	-1.024414	0.344482	-0.932373
1127.0	17.039572	0.453654	14.35032	1.4553	5.763718	-3.861892	-0.930176	0.236572	-1.108154
1128.0	18.709272	2.007775	15.460259	1.648855	5.541303	-4.182486	-0.788086	0.132813	-1.213379
1129.0	21.729836	5.935551	15.755548	1.458055	5.41265	-4.217951	-0.623291	0.057617	-1.285156
1130.0	24.066381	8.435316	14.380451	0.745015	5.357281	-4.039076	-0.453125	0.004395	-1.309326
1131.0	23.636599	1.174469	10.538812	0.11301	5.077475	-3.997657	-0.296631	-0.029785	-1.281494
1132.0	23.141878	-0.253925	5.854203	0.593713	4.404513	-4.239478	-0.167725	-0.037842	-1.217773
1133.0	24.224218	6.076825	1.513532	0.099242	3.356893	-4.410269	-0.10083	-0.022217	-1.138428
1134.0	29.619205	-3.096362	-5.68043	-0.843199	2.099818	-4.683257	-0.0625	0.001709	-1.065918
1135.0	37.471402	-9.832764	-16.101198	-0.132062	1.614769	-4.672547	-0.064941	0.008301	-1.006836
1136.0	33.3806	-14.533511	-23.885108	1.074406	0.672222	-4.254077	-0.068604	-0.009277	-0.963135
1137.0	33.818201	-7.617841	-23.585013	1.087181	-1.09778	-3.571094	-0.105713	-0.009766	-0.935791
1138.0	33.701866	-1.444277	-17.996716	-1.006826	-2.523718	-2.58518	-0.136719	0.003174	-0.899414
1139.0	32.507969	-7.1531	-11.945359	-2.65639	-3.274228	-1.675362	-0.181396	0.029053	-0.88623
1140.0	29.075333	-8.479284	-6.502062	-2.513664	-3.430156	-0.922328	-0.210449	0.043945	-0.868164
1141.0	0.777133	-10.508943	22.351814	0.539287	-3.600565	0.41814	-0.243408	0.045898	-0.845459
1142.0	-27.89809	26.071748	51.645669	-0.346038	-3.546964	0.633114	-0.304443	0.049805	-0.818115
1143.0	4.014789	2.88573	2.571421	-0.918357	-4.327759	1.323043	-0.379639	0.073242	-0.788818
1144.0	19.201196	-10.992303	-14.529827	-1.51002	-5.499239	0.922505	-0.44751	0.074951	-0.73877
1145.0	23.062774	2.651572	19.499653	0.524037	-6.104198	-0.630941	-0.506104	0.070068	-0.69751
1146.0	21.382266	-3.175422	10.977642	-0.110637	-4.655572	-0.079436	-0.547607	0.073975	-0.651855
1147.0	17.379412	-5.125406	8.060702	0.742708	-4.0532	0.496594	-0.58252	0.07373	-0.615479
1148.0	9.298852	4.532744	9.129853	1.02326	-3.453572	0.621337	-0.617432	0.071289	-0.57666
1149.0	7.321077	7.266842	6.809012	0.778335	-3.372962	0.295478	-0.649902	0.068848	-0.549072
1150.0	22.473378	14.483993	13.896486	-0.029696	-3.009013	0.032995	-0.671875	0.072998	-0.521973
1151.0	23.307647	2.111479	6.895128	-0.492986	-0.480089	0.573499	-0.674316	0.079346	-0.517334
1152.0	5.90375	6.713206	7.801574	-0.695563	-0.432775	0.487917	-0.678955	0.081543	-0.506104
1153.0	7.802476	3.107054	7.889887	-0.610753	-0.274157	0.584497	-0.679199	0.088135	-0.506104
1154.0	7.66792	4.250092	7.586339	-0.623865	-0.152057	0.531856	-0.683594	0.092529	-0.499512
1155.0	6.65114	4.256478	7.721231	-0.625468	-0.068474	0.555023	-0.679932	0.105469	-0.50415
1156.0	6.713238	3.7117	8.039833	-0.700307	0.00941	0.584249	-0.679932	0.105469	-0.497314
1157.0	6.692736	2.351589	8.318816	-0.689118	0.046818	0.563537	-0.67627	0.118652	-0.5
1158.0	6.731298	1.484784	8.279861	-0.592397	0.052769	0.466926	-0.68042	0.118652	-0.495361
1159.0	6.600878	1.343465	8.328217	-0.460764	0.045281	0.343604	-0.683105	0.125244	-0.497803
1160.0	6.401916	1.465499	8.339481	-0.344219	0.031347	0.233731	-0.685303	0.127441	-0.504639
1161.0	6.37232	1.428952	8.359812	-0.219702	-0.000802	0.126428	-0.680908	0.129639	-0.497803
1162.0	6.381692	1.995219	8.237795	-0.128681	-0.028549	0.03873	-0.678467	0.12085	-0.495361
1163.0	6.20992	2.304958	8.147035	-0.086815	-0.060168	-0.002701	-0.678711	0.129639	-0.495605
1164.0	6.093942	2.500587	8.150174	-0.06665	-0.105137	-0.024908	-0.687256	0.125244	-0.48877
1165.0	6.0586	3.238208	7.972526	-0.096335	-0.149568	-0.006147	-0.689941	0.131592	-0.491211
1166.0	6.006729	4.304112	7.754151	-0.222682	-0.153786	0.060684	-0.685303	0.127197	-0.481934
1167.0	6.110064	4.498088	7.727121	-0.381147	-0.108696	0.157064	-0.692383	0.138184	-0.479736
1168.0	6.264586	4.126237	7.7554	-0.504673	-0.048655	0.255292	-0.692139	0.133789	-0.484375
1169.0	6.274665	4.002438	7.839013	-0.603876	-0.001627	0.347303	-0.689941	0.135986	-0.475342
1170.0	6.313197	3.257273	7.885614	-0.673316	0.031522	0.418695	-0.681396	0.138184	-0.4729
1171.0	6.469797	2.694105	7.924733	-0.68629	0.066508	0.435972	-0.675293	0.146973	-0.477783
1172.0	6.535112	1.724634	8.098449	-0.648601	0.089463	0.416347	-0.671143	0.151367	-0.482422
1173.0	6.531404	1.508719	8.134006	-0.565711	0.091933	0.370089	-0.661377	0.177734	-0.501221
1174.0	6.398519	2.315489	8.160723	-0.524513	0.094296	0.366226	-0.679688	0.197266	-0.499268
1175.0	6.400851	2.099937	8.12774	-0.499401	0.084693	0.376104	-0.695313	0.205811	-0.490234
1176.0	6.365476	1.972199	8.217203	-0.436468	0.061758	0.376238	-0.698975	0.19043	-0.485352
1177.0	6.270192	1.803785	8.217701	-0.357123	0.070847	0.380011	-0.685791	0.188477	-0.483154
1178.0	6.158139	1.921171	8.163038	-0.219998	0.041463	0.416134	-0.690186	0.186279	-0.485352
1179.0	6.265477	3.138957	7.993232	-0.044865	0.028674	0.535618	-0.686035	0.190674	-0.478516
1180.0	6.30332	3.117831	8.116139	0.043029	0.012062	0.67719	-0.681641	0.192871	-0.483154
1181.0	6.389148	2.476218	8.294766	0.039054	-0.028744	0.765469	-0.679688	0.199463	-0.483398
1182.0	6.273669	2.108242	8.544439	0.036375	-0.096347	0.815777	-0.682129	0.20166	-0.485596
1183.0	6.211913	1.447957	8.810544	0.055871	-0.202712	0.841673	-0.682129	0.205811	-0.48584
1184.0	6.013709	1.049302	9.255345	0.105314	-0.347763	0.823913	-0.680176	0.208008	-0.481201
1185.0	5.947223	0.689584	9.312192	0.120242	-0.544271	0.758444	-0.689209	0.216797	-0.481445
1186.0	5.876864	0.799118	9.422513	0.126144	-0.728707	0.679038	-0.684814	0.216797	-0.467773
1187.0	5.732539	0.558325	9.546191	0.099024	-0.925832	0.575309	-0.691895	0.227539	-0.465576
1188.0	5.645055	0.433349	9.614151	0.087254	-1.154223	0.458537	-0.698242	0.223145	-0.456543
1189.0	5.79616	0.469283	9.587492	0.110001	-1.393265	0.352222	-0.709473	0.227539	-0.44043
1190.0	5.70754	0.642929	9.733804	0.154922	-1.655484	0.284013	-0.718018	0.225098	-0.431396
1191.0	5.73755	1.104212	10.021848	0.197359	-1.961665	0.24855	-0.729248	0.233887	-0.406494
1192.0	5.668671	1.755879	10.200801	0.279504	-2.322062	0.284624	-0.739746	0.224854	-0.392578
1193.0	5.485257	2.073415	10.382424	0.427244	-2.733237	0.399148	-0.755371	0.231201	-0.365234
1194.0	5.049333	2.618291	11.125241	0.606016	-3.254962	0.556877	-0.768311	0.231201	-0.32666
1195.0	4.834014	3.618898	11.13916	0.621802	-3.876356	0.762521	-0.783936	0.239746	-0.301758
1196.0	4.690354	3.939746	10.719265	0.659454	-4.500276	1.085653	-0.799805	0.248291	-0.24707
1197.0	3.842377	3.642001	11.76787	0.758639	-5.259936	1.472222	-0.817627	0.258789	-0.194824
1198.0	3.170938	4.162901	12.239519	0.78141	-6.233402	1.848187	-0.831543	0.276123	-0.12915
1199.0	3.018677	4.428929	11.563955	0.848195	-7.391451	2.229515	-0.839111	0.302002	-0.047607
1200.0	5.379563	4.544985	10.13262	0.950471	-8.525394	2.421161	-0.842041	0.317139	0.041016
1201.0	15.878944	7.08022	7.72048	1.566411	-9.029529	2.164411	-0.843018	0.338623	0.127197
1202.0	26.446017	1.650329	9.456709	2.26559	-8.31763	2.222951	-0.819824	0.355957	0.208984
1203.0	26.671513	14.018262	10.985221	1.883769	-7.419051	2.951333	-0.790771	0.393066	0.283203
1204.0	19.608789	9.688858	9.77665	1.151891	-6.884891	3.662177	-0.746094	0.419434	0.34668
1205.0	16.664285	7.382795	10.867733	1.104734	-6.604031	4.045406	-0.708496	0.454346	0.405029
1206.0	15.380431	6.510608	12.836279	1.217957	-6.472036	4.104009	-0.651367	0.496094	0.470215
1207.0	18.842667	6.471488	15.673316	1.440062	-5.930187	3.86777	-0.60498	0.529053	0.510498
1208.0	16.807469	5.946494	16.202545	1.351999	-4.312785	3.460684	-0.5625	0.553223	0.544189
1209.0	8.40202	4.967999	15.668981	1.255187	-2.531395	3.145475	-0.537354	0.57959	0.555176
1210.0	16.388156	7.57356	18.263063	0.924794	-0.292649	2.417958	-0.524414	0.583984	0.552734
1211.0	10.166549	8.101768	17.103452	0.483032	1.827011	1.352504	-0.540283	0.592773	0.54126
1212.0	3.003677	7.135822	13.216336	0.13217	2.733103	0.706184	-0.550537	0.57959	0.518555
1213.0	0.122932	7.098781	11.209929	-0.283743	3.025082	0.202298	-0.57251	0.581787	0.502686
1214.0	-0.537105	5.648726	9.26597	-0.555135	3.131499	-0.18914	-0.595703	0.566406	0.46875
1215.0	-0.243784	4.42615	8.117616	-0.643018	3.258324	-0.584431	-0.618896	0.546631	0.441895
1216.0	1.125262	3.390389	7.34897	-0.603473	3.516435	-1.007965	-0.639404	0.520508	0.392334
1217.0	1.584639	2.654735	6.87064	-0.461298	3.907225	-1.400228	-0.662354	0.496338	0.338135
1218.0	1.952838	2.065803	6.805094	-0.257539	4.272239	-1.700761	-0.674072	0.463623	0.279541
1219.0	2.703065	1.553316	6.500399	-0.008825	4.630782	-1.884551	-0.672852	0.437744	0.207031
1220.0	3.391531	1.089796	6.417271	0.257056	5.030107	-1.914515	-0.658691	0.414063	0.152832
1221.0	3.619377	0.483198	6.438732	0.537788	5.405005	-1.833356	-0.642578	0.394531	0.080322
1222.0	4.08208	-0.47389	6.335581	0.917188	5.679766	-1.667318	-0.615234	0.366455	0.023926
1223.0	5.092368	-1.150565	6.214713	1.441072	5.917004	-1.42854	-0.58667	0.360352	-0.042236
1224.0	6.395618	-0.960912	6.254485	2.04774	6.115776	-1.175692	-0.544922	0.356445	-0.094482
1225.0	7.771907	0.334891	6.24558	2.518214	6.247321	-0.992064	-0.507568	0.350098	-0.130859
1226.0	8.651003	2.064674	6.580252	2.631223	6.255117	-0.949523	-0.474609	0.343994	-0.167236
1227.0	9.457733	1.760046	6.493315	2.473453	6.11671	-1.120401	-0.439941	0.348633	-0.197021
1228.0	10.26794	0.692621	5.791387	2.435219	5.819109	-1.491138	-0.42041	0.353027	-0.215332
1229.0	11.524999	2.640609	6.154494	2.347621	5.362419	-1.920938	-0.405762	0.362061	-0.233887
1230.0	12.788376	4.170918	7.03835	1.884551	4.914516	-2.400054	-0.394775	0.362061	-0.254395
1231.0	13.11421	2.990233	7.928633	1.425728	4.465214	-2.885954	-0.401611	0.366455	-0.277344
1232.0	14.344488	1.210265	9.139189	1.439666	3.972165	-3.241734	-0.414795	0.368652	-0.297852
1233.0	18.09197	1.339966	10.826337	1.769179	3.68127	-3.351632	-0.425293	0.362061	-0.331787
1234.0	21.240041	1.542537	11.415698	2.001173	3.817367	-3.29828	-0.437744	0.349121	-0.377197
1235.0	19.899221	0.8178	10.061078	2.146368	3.868156	-3.170161	-0.441162	0.325195	-0.417725
1236.0	19.964603	0.569364	8.200734	2.268346	3.469009	-3.021415	-0.448486	0.294678	-0.469482
1237.0	22.477892	1.115732	7.069222	2.161274	3.019523	-2.98097	-0.440674	0.266357	-0.51001
1238.0	23.839569	0.118476	5.825106	1.726236	2.775498	-3.077922	-0.43457	0.229492	-0.545654
1239.0	21.678968	-10.772098	3.065684	1.792641	2.439608	-3.464983	-0.426514	0.19458	-0.567871
1240.0	21.985577	-2.968164	2.356946	2.042523	1.892678	-3.479285	-0.418213	0.15332	-0.589844
1241.0	22.605659	-1.405031	-0.044121	0.638693	1.51804	-3.040054	-0.399902	0.133789	-0.605469
1242.0	25.558767	-8.619537	-5.989909	-0.058184	1.384481	-2.482938	-0.392334	0.109863	-0.616455
1243.0	22.138981	-9.643342	-10.868544	0.198838	0.924048	-1.839465	-0.38501	0.094727	-0.629639
1244.0	23.444846	-10.489988	-12.274234	0.520301	0.196913	-1.399497	-0.373535	0.083984	-0.640869
1245.0	22.713929	-8.336195	-11.349213	0.506625	-0.406338	-1.203253	-0.379883	0.075195	-0.643066
1246.0	20.438759	-2.165637	-9.21507	-0.778222	-1.230541	-0.591326	-0.393066	0.079346	-0.640869
1247.0	23.091959	-2.804555	-8.26386	-2.480909	-2.257431	0.259379	-0.402832	0.101074	-0.63208
1248.0	6.39045	-5.157342	10.031873	-2.024196	-2.794397	0.81608	-0.418701	0.118408	-0.621094
1249.0	-3.305698	12.55266	31.328021	-2.332825	-2.938802	0.928693	-0.44165	0.142334	-0.60791
1250.0	9.343407	-3.238399	6.210129	-3.30356	-3.383224	1.948384	-0.458496	0.174805	-0.587891
1251.0	22.854886	-10.662718	4.761722	-1.942256	-3.70586	1.762489	-0.472656	0.203125	-0.556641
1252.0	14.424412	-0.016802	10.792108	-1.395712	-3.021632	0.944423	-0.47998	0.216064	-0.531738
1253.0	9.995668	4.790529	13.863524	-1.304148	-2.801044	0.49248	-0.497803	0.229004	-0.513672
1254.0	17.221558	-4.307342	9.178754	-2.051028	-1.390825	1.075812	-0.496582	0.250732	-0.491455
1255.0	14.335233	5.137387	7.270834	-1.66128	-0.710212	0.929312	-0.499512	0.266113	-0.489502
1256.0	9.658656	2.262169	8.194953	-1.62778	-0.026818	0.866864	-0.49585	0.279053	-0.485107
1257.0	11.169587	-0.414655	6.945695	-1.343222	0.302929	0.689199	-0.496338	0.292236	-0.48999
1258.0	8.203253	-0.555845	8.174975	-0.955312	0.455787	0.509007	-0.494385	0.298828	-0.483154
1259.0	7.108105	-0.645617	8.423412	-0.692727	0.437022	0.34927	-0.488281	0.307617	-0.488037
1260.0	6.602587	-0.717092	8.625454	-0.405186	0.345715	0.17392	-0.481689	0.30542	-0.485596
1261.0	6.319577	0.694195	8.671269	-0.206251	0.252343	0.043375	-0.481934	0.309814	-0.48584
1262.0	6.428656	1.079248	8.460086	-0.112479	0.174771	-0.013113	-0.479736	0.309814	-0.479004
1263.0	6.177696	1.114901	8.522437	-0.036406	0.126911	-0.061816	-0.483887	0.307617	-0.485596
1264.0	6.1252	0.347427	8.538036	0.06676	0.064999	-0.127845	-0.481689	0.30542	-0.485596
1265.0	6.155721	0.86236	8.567656	0.167124	0.013517	-0.204106	-0.48584	0.303223	-0.490234
1266.0	6.143642	1.527559	8.504992	0.210263	-0.021503	-0.250039	-0.490479	0.30542	-0.488037
1267.0	6.216999	2.201811	8.46527	0.204924	-0.033401	-0.254846	-0.488037	0.298828	-0.483154
1268.0	6.156832	2.182503	8.284139	0.183918	-0.053509	-0.251176	-0.485352	0.292236	-0.48999
1269.0	6.212405	2.140039	8.334306	0.189612	-0.067307	-0.255602	-0.48999	0.294434	-0.485352
1270.0	6.160197	2.283289	8.312989	0.18191	-0.086179	-0.25554	-0.487549	0.287842	-0.48291
1271.0	6.167341	2.510414	8.278991	0.173456	-0.114454	-0.247633	-0.487305	0.285645	-0.485352
1272.0	6.166114	2.8272	8.204411	0.146322	-0.133436	-0.21811	-0.491211	0.276855	-0.480469
1273.0	6.132105	2.65814	8.175682	0.107102	-0.141999	-0.192626	-0.498047	0.279053	-0.48291
1274.0	6.191895	2.602532	8.080224	0.089425	-0.143961	-0.176319	-0.493652	0.279053	-0.480469
1275.0	6.116772	2.451004	8.166987	0.073043	-0.146315	-0.151669	-0.495605	0.276855	-0.48291
1276.0	6.134138	2.293656	8.158867	0.072814	-0.15955	-0.145544	-0.495361	0.272461	-0.480469
1277.0	6.167023	2.199606	8.173769	0.075467	-0.16363	-0.144161	-0.49292	0.266113	-0.47583
1278.0	6.211078	2.009675	8.139438	0.096314	-0.173037	-0.153695	-0.497559	0.268066	-0.478027
1279.0	6.249952	1.9874	8.067897	0.117224	-0.166201	-0.173856	-0.490967	0.270508	-0.484863
1280.0	6.267679	2.190586	7.963027	0.132191	-0.145957	-0.186972	-0.49292	0.263916	-0.471191
1281.0	6.265144	2.581847	7.921847	0.135249	-0.125231	-0.185314	-0.497314	0.266113	-0.480225
1282.0	6.25047	2.831168	7.964802	0.117282	-0.107778	-0.161653	-0.488525	0.261719	-0.480225
1283.0	6.250785	3.052655	7.962668	0.097147	-0.092325	-0.121374	-0.490723	0.266113	-0.484863
1284.0	6.25116	3.147231	7.935988	0.057998	-0.079631	-0.072139	-0.495117	0.263916	-0.489258
1285.0	6.306366	2.774008	7.968128	0.026087	-0.062802	-0.035865	-0.497803	0.274658	-0.491943
1286.0	6.319372	2.375569	8.037907	0.022145	-0.051658	-0.028461	-0.501953	0.272461	-0.484863
1287.0	6.2706	2.136198	8.118998	0.026859	-0.05081	-0.034748	-0.508545	0.274658	-0.478271
1288.0	6.213981	2.306045	8.213449	0.035214	-0.059055	-0.0431	-0.510742	0.272461	-0.480469
1289.0	6.180417	2.329016	8.288841	0.044388	-0.091021	-0.044265	-0.508545	0.274658	-0.478271
1290.0	6.190879	2.219906	8.342834	0.05644	-0.133921	-0.038677	-0.512695	0.265869	-0.471191
1291.0	6.222425	2.12183	8.304683	0.080409	-0.176331	-0.057766	-0.514648	0.261475	-0.471191
1292.0	6.238786	2.214608	8.325471	0.116291	-0.215697	-0.067467	-0.516602	0.259277	-0.470947
1293.0	6.20458	2.258528	8.313455	0.164275	-0.263955	-0.0741	-0.512207	0.25708	-0.475586
1294.0	6.255284	2.238263	8.231642	0.247946	-0.324678	-0.059953	-0.520752	0.252686	-0.470947
1295.0	6.287349	2.445899	8.107966	0.334204	-0.368525	-0.040868	-0.516602	0.25708	-0.46875
1296.0	6.329956	2.860137	8.09077	0.433414	-0.405127	0.015386	-0.516357	0.250488	-0.46167
1297.0	6.320679	2.952531	8.067824	0.44938	-0.456766	0.08548	-0.520752	0.254883	-0.459473
1298.0	6.287764	3.423619	8.247129	0.377395	-0.518396	0.143919	-0.522705	0.248291	-0.457031
1299.0	6.427329	2.968877	7.933116	0.312206	-0.583768	0.22173	-0.5271	0.250488	-0.457275
1300.0	6.404351	3.048457	7.950654	0.312257	-0.621475	0.283809	-0.529297	0.250488	-0.452637
1301.0	6.458798	2.954161	7.745702	0.288663	-0.692447	0.315547	-0.5271	0.250488	-0.441162
1302.0	6.883804	3.142802	7.341248	0.340925	-0.662224	0.406865	-0.533936	0.252686	-0.441162
1303.0	6.85954	3.369217	7.076575	0.456988	-0.589917	0.603023	-0.531738	0.256836	-0.438965
1304.0	6.999625	3.130471	6.658991	0.657724	-0.410695	0.842209	-0.533936	0.254639	-0.441406
1305.0	6.816272	3.407541	6.843285	0.958846	-0.247032	1.130111	-0.525879	0.267822	-0.437012
1306.0	6.780123	3.856145	6.904809	1.438575	-0.104253	1.540581	-0.527832	0.263428	-0.446045
1307.0	6.729956	5.50989	6.944883	2.056592	0.055728	2.15454	-0.526367	0.278809	-0.453125
1308.0	6.754486	6.459883	7.00486	2.696694	0.201464	2.915997	-0.515625	0.2854	-0.457764
1309.0	6.849053	6.758466	7.096716	3.299453	0.320253	3.69247	-0.507568	0.296387	-0.467285
1310.0	6.822552	6.942269	7.03401	3.896471	0.40327	4.448684	-0.49707	0.30957	-0.483398
1311.0	6.738838	6.858776	7.505675	4.4444	0.44134	5.169513	-0.482666	0.324951	-0.497314
1312.0	6.789049	6.42633	7.475638	4.921901	0.417002	5.800739	-0.46582	0.340576	-0.509033
1313.0	6.735599	5.735204	7.36275	5.426111	0.37624	6.3514	-0.448975	0.351563	-0.525391
1314.0	6.74004	5.444042	7.33088	5.797569	0.36748	6.755105	-0.425293	0.358398	-0.54834
1315.0	6.664218	4.891752	7.410459	6.001856	0.364938	7.009568	-0.406494	0.378174	-0.564697
1316.0	6.763652	3.990122	7.326839	6.132259	0.360688	7.128977	-0.386719	0.378418	-0.589844
1317.0	6.649361	3.359673	7.437325	6.195967	0.361433	7.11716	-0.36084	0.38501	-0.617188
1318.0	6.594688	3.321479	7.622643	6.091051	0.347125	6.997038	-0.336914	0.385254	-0.635498
1319.0	6.752812	2.055073	7.550648	5.922797	0.335704	6.776774	-0.314941	0.378906	-0.656006
