Acquisition frequency: 100 Hz
PacketCounter	Acc_X	Acc_Y	Acc_Z	Gyr_X	Gyr_Y	Gyr_Z	Mag_X	Mag_Y	Mag_Z
0.0	6.025393	-0.011757	7.903503	0.004588	0.0179	-0.009425	-0.621338	-0.126953	-0.410645
1.0	5.995532	0.036292	7.880855	0.007508	0.022029	-0.010087	-0.616699	-0.131348	-0.408447
2.0	6.033408	0.043085	7.896182	0.00603	0.018273	-0.013224	-0.619141	-0.126953	-0.414795
3.0	6.013777	0.0137	7.833377	0.007947	0.021184	-0.01233	-0.612549	-0.131348	-0.40625
4.0	6.010896	0.033824	7.872676	0.01202	0.023726	-0.011692	-0.616943	-0.126953	-0.414795
5.0	6.008994	0.035552	7.87412	0.011306	0.024469	-0.015236	-0.60791	-0.133545	-0.40625
6.0	5.96604	0.068785	7.93678	0.002314	0.006259	-0.019094	-0.619141	-0.126953	-0.414795
7.0	5.964786	0.155944	8.034604	-0.025699	-0.034777	-0.022055	-0.612549	-0.126953	-0.408447
8.0	6.00019	0.168415	8.024454	-0.072222	-0.090866	-0.023411	-0.621094	-0.133545	-0.408447
9.0	6.038898	-0.00101	7.957875	-0.091603	-0.13724	-0.038437	-0.616943	-0.126953	-0.410645
10.0	6.103155	0.013979	7.877427	-0.119911	-0.154963	-0.037273	-0.621094	-0.131348	-0.404053
11.0	6.136415	0.030482	7.840978	-0.134873	-0.151843	-0.025812	-0.612549	-0.131348	-0.40625
12.0	6.117514	0.055541	7.861626	-0.136157	-0.140715	-0.016199	-0.616943	-0.126953	-0.408447
13.0	6.047522	0.003491	7.841115	-0.130688	-0.113914	-0.00529	-0.612549	-0.131348	-0.40625
14.0	6.06564	-0.083553	7.794114	-0.120578	-0.091585	-3.4e-05	-0.621338	-0.127197	-0.404053
15.0	6.092332	-0.0985	7.776811	-0.098996	-0.075197	0.000541	-0.616943	-0.127197	-0.404053
16.0	6.017456	-0.147859	7.759963	-0.082143	-0.057241	0.00392	-0.619141	-0.129395	-0.401855
17.0	6.061138	-0.148615	7.770457	-0.077042	-0.048207	-0.000911	-0.621338	-0.127197	-0.40625
18.0	6.054437	-0.126036	7.7855	-0.056818	-0.037927	0.003423	-0.621338	-0.125	-0.404053
19.0	6.037952	-0.04294	7.804005	-0.037228	-0.033054	0.000104	-0.614746	-0.129395	-0.399658
20.0	6.030274	-0.066712	7.79652	-0.02215	-0.029892	-0.001619	-0.625732	-0.127197	-0.404053
21.0	6.103	-0.065399	7.763802	-0.01082	-0.023939	-0.002113	-0.618896	-0.131348	-0.401855
22.0	6.093729	-0.069494	7.795169	-0.009914	-0.016542	0.000473	-0.623535	-0.127197	-0.401855
23.0	6.084166	-0.073599	7.826776	-0.010282	-0.01616	-0.001296	-0.621338	-0.12915	-0.40625
24.0	6.086378	-0.042809	7.810875	-0.000118	-0.019597	0.000705	-0.623779	-0.120605	-0.40625
25.0	6.097945	-0.021387	7.815333	0.00428	-0.016985	0.007147	-0.619141	-0.127197	-0.401855
26.0	6.1302	-0.024365	7.769478	0.003175	-0.015839	0.001845	-0.621094	-0.129395	-0.401855
27.0	6.120185	-0.076721	7.777987	0.009764	-0.008324	0.004127	-0.612793	-0.122803	-0.408447
28.0	6.151532	-0.029746	7.756309	0.014396	0.002	0.005608	-0.625732	-0.125	-0.408447
29.0	6.150896	-0.077783	7.733353	0.02556	0.010778	0.002279	-0.621338	-0.125	-0.401855
30.0	6.150313	-0.044284	7.719656	0.038796	0.025358	0.002818	-0.621338	-0.125	-0.401855
31.0	6.136295	-0.075168	7.769021	0.054471	0.035845	-0.002117	-0.616943	-0.129395	-0.401855
32.0	6.133625	-0.088584	7.733583	0.065169	0.05117	-0.003106	-0.623535	-0.127197	-0.401855
33.0	6.128327	-0.064518	7.775404	0.07938	0.066975	-0.004158	-0.619141	-0.127197	-0.404053
34.0	6.163195	-0.021048	7.778707	0.084108	0.076386	-0.01077	-0.621094	-0.129395	-0.401855
35.0	6.115712	-0.032511	7.822916	0.076788	0.084411	-0.009444	-0.618896	-0.131348	-0.401855
36.0	6.108952	-0.025889	7.82822	0.075803	0.088439	-0.011852	-0.621338	-0.12915	-0.40625
37.0	6.122987	0.005322	7.806645	0.071664	0.091607	-0.012452	-0.619141	-0.127197	-0.404053
38.0	6.094919	-0.012947	7.839183	0.073034	0.086734	-0.012374	-0.621094	-0.129395	-0.401855
39.0	6.06773	1.3e-05	7.856655	0.069965	0.090662	-0.018547	-0.616699	-0.131348	-0.401855
40.0	6.111391	0.015531	7.843385	0.07141	0.085326	-0.022477	-0.623291	-0.131348	-0.40625
41.0	6.074385	0.056317	7.877985	0.060568	0.081899	-0.017292	-0.614502	-0.131348	-0.408447
42.0	6.07819	0.034063	7.865408	0.057833	0.080198	-0.017758	-0.616943	-0.125	-0.410645
43.0	6.042693	0.055717	7.861489	0.057934	0.07401	-0.021882	-0.619141	-0.126953	-0.408447
44.0	6.025739	0.058419	7.898431	0.052686	0.073046	-0.023858	-0.616699	-0.131348	-0.40625
45.0	6.041291	0.088429	7.875636	0.048959	0.070122	-0.022758	-0.614746	-0.12915	-0.4104
46.0	6.034432	0.111969	7.917906	0.044748	0.073758	-0.019347	-0.619141	-0.126953	-0.408447
47.0	6.040302	0.069741	7.866814	0.03524	0.067805	-0.020873	-0.616699	-0.135742	-0.4104
48.0	6.02362	0.07063	7.903454	0.036058	0.06997	-0.014422	-0.614502	-0.131348	-0.408447
49.0	6.019309	0.05594	7.869718	0.037131	0.070715	-0.020019	-0.612305	-0.133545	-0.408203
50.0	6.002553	0.057056	7.906356	0.03521	0.067798	-0.020938	-0.614502	-0.135742	-0.40625
51.0	6.018679	0.036455	7.860765	0.04135	0.072313	-0.027454	-0.612305	-0.133545	-0.4104
52.0	5.961251	0.001761	7.898567	0.041979	0.073901	-0.030816	-0.616699	-0.133545	-0.412598
53.0	6.015878	0.087205	7.912763	0.047332	0.068675	-0.032957	-0.612305	-0.133545	-0.408203
54.0	5.981118	0.108438	7.90789	0.041455	0.066114	-0.031599	-0.623291	-0.133545	-0.4104
55.0	5.967117	0.122638	7.890918	0.036543	0.059536	-0.027827	-0.618896	-0.135742	-0.40625
56.0	5.980508	0.108265	7.935703	0.033536	0.055876	-0.023157	-0.616699	-0.131348	-0.412598
57.0	5.948416	0.109147	7.891979	0.030433	0.049304	-0.0214	-0.610107	-0.133301	-0.416992
58.0	5.982382	0.137066	7.947093	0.024468	0.047223	-0.016011	-0.614502	-0.135742	-0.4104
59.0	5.959966	0.127472	7.92356	0.023074	0.041136	-0.012253	-0.616699	-0.135498	-0.414795
60.0	5.946392	0.157772	7.942968	0.01531	0.035656	-0.011766	-0.618896	-0.131348	-0.412598
61.0	5.993694	0.13724	7.942128	0.011568	0.027499	-0.006651	-0.612061	-0.14209	-0.414795
62.0	5.921613	0.166769	7.957868	0.00477	0.018005	-0.003738	-0.618652	-0.137695	-0.412598
63.0	5.942062	0.191193	7.931584	-0.003774	0.006189	0.008099	-0.614502	-0.135742	-0.4104
64.0	5.970346	0.143602	7.956024	-0.00947	-0.002569	0.005433	-0.614258	-0.137695	-0.412598
65.0	5.972406	0.123322	7.91783	-0.016174	-0.009148	0.01126	-0.612305	-0.133545	-0.412598
66.0	5.952887	0.127621	7.928878	-0.018722	-0.013652	0.01371	-0.616455	-0.137695	-0.4104
67.0	6.003836	0.103108	7.92536	-0.020075	-0.014504	0.013493	-0.612305	-0.137695	-0.408203
68.0	5.965776	0.094818	7.910006	-0.020624	-0.016571	0.012815	-0.614502	-0.135742	-0.408203
69.0	5.985877	0.104738	7.935269	-0.018373	-0.01402	0.015479	-0.616699	-0.131348	-0.408447
70.0	5.988567	0.083619	7.896553	-0.020079	-0.014505	0.013485	-0.616699	-0.131348	-0.40625
71.0	5.987996	0.099895	7.933733	-0.021494	-0.009642	0.013305	-0.612305	-0.137695	-0.412598
72.0	6.019698	0.062906	7.904245	-0.0232	-0.010126	0.011311	-0.621094	-0.133545	-0.412598
73.0	5.961686	0.092163	7.885768	-0.018691	-0.008418	0.009715	-0.610107	-0.133545	-0.408203
74.0	6.002127	0.046289	7.877105	-0.018143	-0.006352	0.01039	-0.618896	-0.135498	-0.414795
75.0	5.961748	0.057178	7.900249	-0.017143	-0.005133	0.008827	-0.614502	-0.133545	-0.4104
76.0	6.0013	0.061432	7.914507	-0.012788	-0.000623	0.004358	-0.621094	-0.131348	-0.412598
77.0	5.971834	0.076072	7.905635	-0.011592	0.003032	0.001697	-0.614502	-0.135742	-0.4104
78.0	6.012315	0.062383	7.882427	-0.007884	0.005954	0.000567	-0.618652	-0.137695	-0.4104
79.0	5.982475	0.077517	7.873838	-0.007884	0.005954	0.000567	-0.612305	-0.135498	-0.412598
80.0	5.98044	0.095486	7.912148	-0.008689	0.007168	0.001029	-0.618652	-0.137695	-0.412598
81.0	5.991151	0.097763	7.880298	-0.008296	0.012038	-0.001169	-0.60791	-0.137695	-0.408203
82.0	6.008094	0.078573	7.922414	-0.006491	0.012043	-0.003192	-0.614502	-0.133545	-0.408203
83.0	5.998112	0.087622	7.90251	-0.005942	0.014109	-0.002515	-0.60791	-0.133301	-0.414795
84.0	5.978059	0.075149	7.877214	-0.004942	0.015329	-0.004076	-0.612549	-0.12915	-0.4104
85.0	5.995746	0.087204	7.90431	-0.00459	0.01496	-0.0023	-0.614502	-0.135742	-0.4104
86.0	5.976591	0.105896	7.863889	-0.002588	0.017401	-0.005422	-0.614502	-0.131348	-0.4104
87.0	5.973369	0.17387	7.925373	-0.0093	0.010816	0.000386	-0.612305	-0.133545	-0.412598
88.0	5.993712	0.116839	7.891434	-0.013205	0.005459	0.002611	-0.618896	-0.133545	-0.414795
89.0	5.97146	0.140035	7.941304	-0.023333	0.001296	0.011362	-0.612549	-0.131348	-0.412598
90.0	6.002524	0.102842	7.912283	-0.028945	-0.004544	0.01159	-0.616943	-0.12915	-0.408447
91.0	5.983571	0.136603	7.908537	-0.038528	-0.006642	0.021014	-0.614502	-0.135742	-0.40625
92.0	5.982256	0.070251	7.93838	-0.039278	-0.011143	0.021424	-0.618896	-0.133545	-0.408447
93.0	6.003973	0.010153	7.90329	-0.033765	-0.008214	0.018274	-0.610352	-0.131348	-0.40625
94.0	5.975113	0.022387	7.893984	-0.032919	-0.004186	0.013839	-0.618896	-0.131348	-0.412598
95.0	5.995273	0.06241	7.904903	-0.027051	-0.001628	0.012469	-0.614502	-0.133545	-0.408203
96.0	5.966274	0.07515	7.895737	-0.030962	-0.006987	0.014681	-0.619141	-0.126953	-0.410645
97.0	5.995042	0.025254	7.919447	-0.027152	-0.004535	0.009543	-0.612549	-0.12915	-0.4104
98.0	6.00629	0.074933	7.909738	-0.027157	-0.001159	0.016475	-0.618896	-0.131348	-0.408447
99.0	5.997531	0.081555	7.888975	-0.024446	-0.002835	0.009975	-0.612549	-0.131348	-0.4104
100.0	6.006028	-0.011066	7.901727	-0.023545	-0.001143	0.012431	-0.619141	-0.12915	-0.4104
101.0	6.027003	0.060995	7.897823	-0.016569	0.002169	0.005499	-0.616943	-0.126953	-0.414795
102.0	5.986409	0.022706	7.898599	-0.015567	0.003391	0.003942	-0.612549	-0.131348	-0.408447
103.0	6.006553	0.014804	7.887051	-0.013509	0.003495	0.007712	-0.610352	-0.12915	-0.408447
104.0	5.986876	0.051076	7.883988	-0.00889	0.004735	0.002119	-0.621094	-0.131348	-0.414795
105.0	6.004735	-0.018225	7.902697	-0.012104	0.00622	-0.002965	-0.618652	-0.137695	-0.4104
106.0	5.996172	0.021848	7.867515	-0.004326	0.011691	-0.00342	-0.623291	-0.131348	-0.40625
107.0	6.023098	0.024401	7.915095	-0.003873	0.010851	-0.005659	-0.616699	-0.133545	-0.412598
108.0	5.973894	0.028148	7.880681	-0.003776	0.013755	-0.002737	-0.616943	-0.126953	-0.408447
109.0	6.021032	0.024482	7.916666	-0.00016	0.013773	-0.006774	-0.610352	-0.126953	-0.412598
110.0	5.980142	0.068497	7.925938	-0.004128	0.014128	-0.004515	-0.610107	-0.133545	-0.4104
111.0	5.999671	0.062048	7.914871	-0.004073	0.008413	-0.004569	-0.612305	-0.135742	-0.4104
112.0	5.990052	0.071042	7.894757	-0.010304	0.009598	0.001946	-0.612305	-0.133545	-0.412598
113.0	6.008268	0.082152	7.921531	-0.010503	0.007161	0.003038	-0.612305	-0.135498	-0.412598
114.0	5.987444	0.087163	7.933586	-0.019086	0.002903	0.00395	-0.619141	-0.12915	-0.40625
115.0	6.018294	0.050983	7.904533	-0.019485	-0.001972	0.006133	-0.612549	-0.131348	-0.4104
116.0	5.977517	0.061724	7.927973	-0.020745	8.1e-05	0.008832	-0.616699	-0.131348	-0.414795
117.0	6.009517	0.056453	7.883812	-0.018132	-0.001123	0.006351	-0.612549	-0.12915	-0.40625
118.0	5.999697	0.032989	7.878078	-0.020843	-0.002822	0.005906	-0.621094	-0.131348	-0.412598
119.0	5.979314	0.03739	7.889801	-0.018037	0.001779	0.009271	-0.612305	-0.133545	-0.412598
120.0	5.989273	0.057053	7.895461	-0.018134	-0.001123	0.006347	-0.616943	-0.129395	-0.404053
121.0	6.017576	0.008203	7.919327	-0.020646	-0.000384	0.004811	-0.618896	-0.131348	-0.408447
122.0	6.009804	0.047076	7.883654	-0.01462	-0.000638	0.006326	-0.616943	-0.12915	-0.40625
123.0	6.008611	0.014365	7.898739	-0.017385	0.003378	0.005939	-0.618896	-0.133545	-0.404053
124.0	6.019853	0.016188	7.866567	-0.010251	0.003885	0.001888	-0.621338	-0.12915	-0.408447
125.0	5.998003	-0.009619	7.893564	-0.014572	0.004613	0.002368	-0.608154	-0.126953	-0.414795
126.0	6.017496	0.032365	7.905238	-0.010856	0.007536	0.001261	-0.621338	-0.125	-0.408447
127.0	5.977756	0.025508	7.891029	-0.013521	0.003485	0.007692	-0.614746	-0.12915	-0.414795
128.0	5.996351	0.036053	7.917548	-0.015928	0.003765	0.002143	-0.616943	-0.126953	-0.414795
129.0	6.017511	0.059471	7.891108	-0.013217	0.005462	0.002588	-0.612549	-0.12915	-0.404053
130.0	6.006171	0.005459	7.900606	-0.015779	0.000949	0.005005	-0.616943	-0.12915	-0.4104
131.0	6.016005	0.025455	7.906398	-0.015229	0.003012	0.00569	-0.610352	-0.126953	-0.4104
132.0	6.005763	0.002276	7.900918	-0.01739	0.003376	0.005929	-0.614502	-0.131348	-0.4104
133.0	6.006717	0.031732	7.886084	-0.017487	0.000477	0.003003	-0.614746	-0.12915	-0.408447
134.0	5.996602	0.008604	7.880498	-0.01488	0.002634	0.007463	-0.614746	-0.131348	-0.412598
135.0	5.98758	0.016757	7.859976	-0.016027	0.000867	-0.000789	-0.616943	-0.12915	-0.412598
136.0	6.005263	-0.00386	7.901297	-0.017943	0.001313	0.005238	-0.618896	-0.131348	-0.408447
137.0	5.995097	-0.026901	7.895731	-0.013421	0.003023	0.003672	-0.614746	-0.127197	-0.40625
138.0	6.006066	0.024326	7.886605	-0.01749	0.000477	0.002997	-0.616699	-0.131348	-0.408447
139.0	6.00493	-0.008258	7.901547	-0.015329	0.000113	0.002757	-0.619141	-0.12915	-0.4104
140.0	5.994458	0.018311	7.919042	-0.013973	0.000961	0.002981	-0.619141	-0.12915	-0.412598
141.0	6.026434	0.01375	7.874901	-0.016336	-0.001114	0.004306	-0.612305	-0.133545	-0.412598
142.0	5.996147	-0.003044	7.880849	-0.017343	-0.002341	0.005854	-0.618896	-0.131348	-0.408447
143.0	5.973245	-0.011099	7.945466	-0.015532	-0.002327	0.00384	-0.612549	-0.126953	-0.4104
144.0	6.017052	-0.012364	7.868716	-0.015629	-0.005223	0.000912	-0.619141	-0.125	-0.40625
145.0	5.995339	0.010732	7.918389	-0.018149	-0.001128	0.006315	-0.616699	-0.131348	-0.408447
146.0	6.027487	0.00616	7.874105	-0.012917	-0.003526	0.001361	-0.619141	-0.126953	-0.408447
147.0	5.997292	-0.010279	7.879971	-0.015534	-0.002327	0.003837	-0.616699	-0.133545	-0.404053
148.0	6.017815	-0.017827	7.868122	-0.011359	-0.000238	0.000501	-0.619141	-0.12915	-0.408447
149.0	5.997497	-0.012494	7.879812	-0.01578	-0.002403	-0.001952	-0.610596	-0.122803	-0.40625
150.0	6.037021	-0.008058	7.894214	-0.011211	-0.003058	0.003359	-0.616943	-0.125	-0.408447
151.0	6.016648	-0.00271	7.90595	-0.010809	0.001823	0.00119	-0.619141	-0.12915	-0.412598
152.0	6.018122	-0.021717	7.867877	-0.011606	-0.000312	-0.005289	-0.618896	-0.131348	-0.40625
153.0	6.038533	-0.028781	7.856109	-0.010004	0.00061	0.000725	-0.614502	-0.131348	-0.40625
154.0	5.997496	-0.016652	7.879805	-0.006984	0.004293	-0.00392	-0.619141	-0.12915	-0.4104
155.0	6.057913	0.013411	7.868079	-0.006783	0.006734	-0.005004	-0.612549	-0.126953	-0.412598
156.0	6.006499	0.004535	7.886312	-0.003615	0.007598	-0.00679	-0.621338	-0.127197	-0.408447
157.0	6.026278	-0.001733	7.875033	-0.00442	0.00881	-0.006326	-0.608154	-0.126953	-0.4104
158.0	6.015458	-0.022999	7.869911	-0.001051	0.012115	-0.009196	-0.614746	-0.126953	-0.408447
159.0	6.036159	0.002167	7.843941	0.001154	0.009383	-0.002561	-0.619141	-0.125	-0.40625
160.0	6.012177	-0.004108	7.90935	-0.003563	0.012858	-0.010735	-0.618896	-0.131348	-0.408447
161.0	6.032804	0.021029	7.883438	-0.003765	0.010418	-0.009652	-0.619141	-0.125	-0.399658
162.0	6.032008	0.02107	7.884047	-0.002821	0.009731	-0.000314	-0.623291	-0.12915	-0.40625
163.0	5.99977	-0.025432	7.905429	-0.003722	0.00805	-0.00278	-0.610352	-0.12915	-0.408447
164.0	6.011884	0.008666	7.858652	-0.008247	0.006337	-0.001223	-0.616943	-0.125	-0.408447
165.0	6.018705	0.016629	7.91774	-0.009604	0.005488	-0.00145	-0.612549	-0.12915	-0.4104
166.0	6.029856	0.019089	7.885698	-0.011067	0.005092	0.002336	-0.616699	-0.133545	-0.404053
167.0	6.018288	-0.034475	7.89512	-0.01041	0.006701	-0.000988	-0.616943	-0.12915	-0.4104
168.0	5.989651	0.011991	7.871783	-0.007092	0.004745	8.8e-05	-0.619385	-0.122803	-0.414795
169.0	6.047694	-0.020698	7.889909	-0.010317	0.009594	0.001941	-0.619141	-0.12915	-0.408447
170.0	6.008981	0.004164	7.860875	-0.008799	0.004276	-0.001916	-0.616699	-0.131348	-0.412598
171.0	6.056615	-0.000473	7.896499	-0.008048	0.008778	-0.002309	-0.614746	-0.12915	-0.40625
172.0	5.997283	0.031023	7.879356	-0.006691	0.009627	-0.002081	-0.621338	-0.125	-0.40625
173.0	6.015845	-0.006869	7.883002	-0.006692	0.009627	-0.002082	-0.61499	-0.124756	-0.410645
174.0	6.014957	-0.007184	7.88368	-0.005135	0.012916	-0.002938	-0.621338	-0.126953	-0.410645
175.0	6.032853	0.004321	7.910788	-0.007499	0.010839	-0.00162	-0.614746	-0.126953	-0.408447
176.0	6.013148	-0.008032	7.885059	-0.005793	0.011307	0.000383	-0.619141	-0.125	-0.408447
177.0	6.012352	-0.00842	7.885666	-0.004181	0.008882	-0.000544	-0.610352	-0.12915	-0.412598
178.0	6.023177	-0.005349	7.853911	-0.005685	0.010856	-0.003632	-0.619141	-0.126953	-0.408447
179.0	5.999062	-0.012164	7.919293	-0.004678	0.012085	-0.005179	-0.61499	-0.122803	-0.40625
180.0	6.020261	-0.036843	7.870086	-0.005337	0.010475	-0.001857	-0.621338	-0.127197	-0.408447
181.0	5.988446	-0.002951	7.90003	-0.002276	0.011791	0.000375	-0.614746	-0.12915	-0.40625
182.0	6.037272	-0.02554	7.897872	-0.006144	0.011687	-0.001396	-0.621338	-0.126953	-0.410645
183.0	6.007279	-0.009965	7.889529	-0.006088	0.005973	-0.001467	-0.61499	-0.122803	-0.410645
184.0	6.006597	-0.010269	7.890048	-0.003982	0.011323	-0.00163	-0.621338	-0.124756	-0.412598
185.0	5.995898	-0.032002	7.884792	-0.00508	0.007202	-0.003014	-0.61499	-0.124756	-0.410645
186.0	6.04616	-0.023598	7.867626	-0.009865	0.00876	-0.00031	-0.621338	-0.12915	-0.410645
187.0	5.984178	-0.005204	7.903262	-0.006437	0.006354	-0.003244	-0.612793	-0.125	-0.408447
188.0	6.024556	-0.01818	7.880226	-0.007244	0.007566	-0.002782	-0.621338	-0.125	-0.410645
189.0	6.024041	-0.018584	7.880618	-0.007793	0.005505	-0.003474	-0.610352	-0.127197	-0.404053
190.0	6.023545	-0.018995	7.880996	-0.008949	0.007098	-0.004788	-0.616943	-0.125	-0.408447
191.0	6.014041	-0.009598	7.860906	-0.003177	0.010112	-0.002094	-0.610352	-0.126953	-0.408447
192.0	6.002167	-0.062425	7.870453	-0.004881	0.009644	-0.0041	-0.616943	-0.12915	-0.4104
193.0	6.001998	0.017817	7.879627	-0.006697	0.009626	-0.002092	-0.612549	-0.126953	-0.408447
194.0	6.020638	-0.019897	7.883215	-0.005778	0.007965	-0.006569	-0.618896	-0.133545	-0.408447
195.0	5.990734	-0.00403	7.87479	-0.00543	0.007584	-0.004793	-0.612549	-0.127197	-0.40625
196.0	6.019463	-0.020183	7.884112	-0.006786	0.006735	-0.005024	-0.619141	-0.12915	-0.408447
197.0	5.998425	-0.014075	7.896256	-0.00543	0.007584	-0.004794	-0.614502	-0.135498	-0.414795
198.0	6.030071	-0.017077	7.852589	-0.003467	0.004779	-0.003942	-0.619141	-0.12915	-0.412598
199.0	6.007273	0.007216	7.902935	-0.005691	0.010856	-0.00364	-0.61499	-0.124756	-0.412598
200.0	6.027102	0.000872	7.891717	-0.004163	0.005543	-0.007496	-0.621338	-0.12915	-0.410645
201.0	6.004987	-0.024078	7.918577	-0.005083	0.007202	-0.003019	-0.616699	-0.133545	-0.408447
202.0	6.016197	-0.020694	7.886603	-0.003355	0.004331	-0.007958	-0.623291	-0.12915	-0.408447
203.0	6.026901	0.03201	7.877972	-0.005632	0.005141	-0.003712	-0.614746	-0.126953	-0.412598
204.0	6.027074	-0.017486	7.854889	-0.005979	0.005523	-0.005489	-0.619141	-0.125	-0.408447
205.0	6.014904	-0.020927	7.887589	-0.003268	0.007221	-0.005028	-0.621338	-0.126953	-0.412598
206.0	6.014351	-0.021054	7.88801	-0.004737	0.00682	-0.001244	-0.619141	-0.125	-0.40625
207.0	5.99333	-0.014646	7.900123	-0.001339	0.006794	-0.011051	-0.612549	-0.126953	-0.412598
208.0	6.023135	0.000856	7.894745	-0.002374	0.0089	-0.002559	-0.623291	-0.12915	-0.410645
209.0	6.012495	-0.020563	7.889426	-0.000558	0.008919	-0.004567	-0.610352	-0.12915	-0.414795
210.0	6.00142	0.007321	7.90738	-0.005171	0.004312	-0.005954	-0.616943	-0.125	-0.408447
211.0	6.002781	-0.010891	7.869506	-0.00598	0.005523	-0.005492	-0.612793	-0.122803	-0.412598
212.0	6.002281	-0.011071	7.869887	-0.005086	0.007201	-0.003023	-0.619141	-0.12915	-0.408447
213.0	6.001714	-0.01129	7.870319	-0.005086	0.007201	-0.003023	-0.612549	-0.127197	-0.40625
214.0	6.019978	0.00029	7.897153	-0.005285	0.004759	-0.001939	-0.612793	-0.125	-0.408447
215.0	6.019456	0.000248	7.897551	-0.002262	0.008453	-0.006576	-0.616943	-0.125	-0.40625
216.0	5.98835	-0.015176	7.903898	-0.00601	0.008859	0.001454	-0.616943	-0.124756	-0.412598
217.0	6.018204	-0.000276	7.898504	-0.00598	0.005523	-0.005494	-0.612793	-0.122803	-0.410645
218.0	6.008807	0.009266	7.878348	-0.004888	0.009643	-0.004108	-0.619141	-0.126953	-0.410645
219.0	5.998237	-0.012438	7.872967	-0.00679	0.006734	-0.005034	-0.621338	-0.126953	-0.410645
220.0	6.026903	-0.028609	7.88237	-0.004541	0.009261	-0.002332	-0.616943	-0.126953	-0.412598
221.0	5.996946	-0.012974	7.87395	-0.007252	0.007562	-0.002796	-0.618896	-0.131348	-0.4104
222.0	6.014953	-0.001465	7.90098	-0.0074	0.010387	-0.005658	-0.621338	-0.125	-0.408447
223.0	6.024862	-0.029479	7.883928	-0.00679	0.006734	-0.005036	-0.614502	-0.131348	-0.4104
224.0	6.01536	-0.019883	7.863857	-0.002179	0.011342	-0.003646	-0.623535	-0.122803	-0.40625
225.0	5.992326	0.004238	7.914277	-0.006906	0.007179	-0.001021	-0.616943	-0.126953	-0.408447
226.0	6.023867	0.001248	7.870821	-0.00137	0.010132	-0.004108	-0.614746	-0.12915	-0.414795
227.0	5.983881	-0.004198	7.856591	-0.003072	0.009664	-0.006118	-0.610352	-0.12915	-0.412598
228.0	6.010454	-0.00197	7.904404	-0.001634	0.013402	-0.002954	-0.619141	-0.125	-0.40625
229.0	6.011296	-0.020002	7.866964	-0.00218	0.011342	-0.003648	-0.616943	-0.126953	-0.412598
230.0	6.018375	0.019857	7.911809	-0.00051	0.014189	-0.008517	-0.616943	-0.126953	-0.412598
231.0	6.010494	0.011956	7.853717	0.002959	0.00941	-0.004566	-0.612549	-0.126953	-0.4104
232.0	6.017163	-0.028662	7.889808	-0.001091	0.015462	-0.002263	-0.621338	-0.12915	-0.408447
233.0	6.017332	0.002688	7.875818	-0.000561	0.008921	-0.004572	-0.616943	-0.12915	-0.412598
234.0	5.995948	0.009032	7.888139	-0.001291	0.013019	-0.00118	-0.619385	-0.122803	-0.40625
235.0	6.005593	-0.018686	7.871322	-0.002528	0.011724	-0.00543	-0.614746	-0.126953	-0.4104
236.0	6.002827	-0.000389	7.910197	-0.000363	0.011363	-0.005658	-0.616943	-0.125	-0.410645
237.0	6.014372	-0.045834	7.855177	0.000645	0.012596	-0.007204	-0.614746	-0.126953	-0.4104
238.0	6.021924	-0.054777	7.876735	0.004214	0.018353	-0.011147	-0.623535	-0.124756	-0.414795
239.0	6.03098	0.048123	7.892308	0.002463	0.012617	-0.009211	-0.608154	-0.126953	-0.412598
240.0	5.979767	-0.009596	7.887009	0.002344	0.013063	-0.005195	-0.619141	-0.126953	-0.408447
241.0	5.999146	-0.015348	7.876244	3e-05	0.016248	-0.007833	-0.612549	-0.131348	-0.4104
242.0	6.01668	-0.002806	7.903625	0.002927	0.011789	-0.011452	-0.619385	-0.122803	-0.408447
243.0	6.015717	-0.002103	7.904359	0.000642	0.012595	-0.007209	-0.614746	-0.126953	-0.412598
244.0	6.016584	-0.019482	7.866977	0.00347	0.01385	-0.01076	-0.619141	-0.126953	-0.412598
245.0	6.014636	0.03069	7.891311	0.004358	0.015528	-0.00829	-0.616699	-0.131348	-0.412598
246.0	6.02297	-0.027211	7.889424	0.008342	0.01519	-0.010522	-0.616943	-0.125	-0.408447
247.0	6.012872	-0.016344	7.869821	0.005562	0.019202	-0.010925	-0.616943	-0.12915	-0.408447
248.0	5.970405	-0.002795	7.894104	0.006176	0.01555	-0.010299	-0.619141	-0.126953	-0.410645
249.0	6.026999	0.015862	7.936478	0.005288	0.013871	-0.012772	-0.616699	-0.131348	-0.4104
250.0	5.997643	0.063846	7.913608	0.004232	0.015974	-0.004279	-0.616943	-0.12915	-0.40625
251.0	5.997468	0.014905	7.890941	-0.003077	0.00966	-0.006139	-0.614746	-0.126953	-0.412598
252.0	6.015329	0.026725	7.918058	-0.006252	0.008786	-0.004368	-0.61499	-0.122803	-0.412598
253.0	6.017694	0.039524	7.865711	-0.006719	0.009614	-0.002131	-0.614746	-0.12915	-0.40625
254.0	5.995384	0.014046	7.892527	-0.008269	0.006321	-0.001277	-0.618896	-0.131348	-0.4104
255.0	6.024123	-0.002362	7.90199	-0.005218	0.007641	0.00097	-0.614746	-0.12915	-0.412598
256.0	6.002879	0.003416	7.914112	-0.006719	0.009614	-0.002132	-0.621094	-0.131348	-0.40625
257.0	6.002052	0.002973	7.91474	-0.005834	0.011293	0.00034	-0.614746	-0.12915	-0.4104
258.0	5.992616	0.012156	7.894632	-0.008614	0.006703	-0.003059	-0.616943	-0.125	-0.410645
259.0	5.971439	0.017871	7.906694	-0.008073	0.008764	-0.002367	-0.61499	-0.122803	-0.412598
260.0	6.009897	0.022985	7.922192	-0.007729	0.008381	-0.000588	-0.621338	-0.125	-0.410645
261.0	5.990747	0.010549	7.896052	-0.00827	0.006321	-0.001281	-0.610107	-0.133545	-0.412598
262.0	6.010898	0.003765	7.884774	-0.008811	0.004261	-0.001974	-0.616699	-0.131348	-0.40625
263.0	5.98118	0.018985	7.876051	-0.010437	0.00668	-0.001058	-0.614746	-0.12915	-0.408447
264.0	6.019737	0.023959	7.891486	-0.009428	0.007913	-0.002604	-0.621338	-0.127197	-0.408447
265.0	5.997605	-0.001859	7.91811	-0.011643	0.003004	0.001573	-0.612549	-0.12915	-0.4104
266.0	6.009157	0.000704	7.886102	-0.008936	0.004705	0.002043	-0.619141	-0.12915	-0.40625
267.0	6.00671	0.017915	7.924623	-0.010093	0.006297	0.00072	-0.614746	-0.127197	-0.40625
268.0	5.997533	0.026718	7.904333	-0.011447	0.005446	0.000485	-0.614502	-0.131348	-0.408447
269.0	5.988392	0.035479	7.884018	-0.011447	0.005446	0.000484	-0.614746	-0.126953	-0.408447
270.0	5.978037	0.013017	7.878449	-0.010907	0.007506	0.001177	-0.616943	-0.126953	-0.412598
271.0	5.995058	-0.007492	7.920036	-0.015164	0.002511	0.001556	-0.612549	-0.126953	-0.414795
272.0	6.006544	-0.005139	7.888091	-0.010564	0.007123	0.002956	-0.616943	-0.12915	-0.4104
273.0	6.00722	0.024912	7.873773	-0.012583	0.004655	0.006044	-0.610352	-0.126953	-0.4104
274.0	5.993699	-0.011164	7.92106	-0.015241	0.008224	0.001619	-0.616943	-0.129395	-0.404053
275.0	6.025625	-0.015263	7.877637	-0.014751	0.005013	0.006264	-0.61499	-0.124756	-0.412598
276.0	6.004593	-0.010582	7.889571	-0.017949	0.006524	0.001144	-0.619141	-0.126953	-0.416992
277.0	6.013984	0.009561	7.895902	-0.012929	0.005038	0.004261	-0.616943	-0.126953	-0.412598
278.0	5.994948	-0.00331	7.869651	-0.01295	0.007425	-0.002624	-0.614502	-0.131348	-0.4104
279.0	6.011882	-0.023742	7.911272	-0.01246	0.004212	0.002021	-0.614502	-0.131348	-0.40625
280.0	6.002739	-0.015206	7.890974	-0.01239	0.007097	0.004953	-0.619141	-0.126953	-0.414795
281.0	5.991512	0.011396	7.908934	-0.011451	0.005447	0.000477	-0.612793	-0.124756	-0.412598
282.0	6.040769	-0.011509	7.906848	-0.008546	0.009592	-0.000135	-0.619141	-0.12915	-0.408447
283.0	6.000975	-0.017776	7.89231	-0.009087	0.007532	-0.00083	-0.61499	-0.124756	-0.410645
284.0	6.000414	-0.01849	7.892735	-0.010441	0.006682	-0.001068	-0.623291	-0.131348	-0.408447
285.0	6.000963	0.012138	7.878573	-0.008077	0.008767	-0.002374	-0.610596	-0.124756	-0.410645
286.0	6.019683	-0.025885	7.88215	-0.010244	0.009126	-0.002154	-0.623291	-0.131348	-0.4104
287.0	5.996381	-0.002589	7.932461	-0.008872	0.007586	0.004966	-0.612549	-0.127197	-0.40625
288.0	5.987181	0.006318	7.912219	-0.009628	0.005473	-0.001528	-0.619141	-0.126953	-0.412598
289.0	6.007172	-0.000529	7.901092	-0.008548	0.009591	-0.000138	-0.61499	-0.122803	-0.408447
290.0	6.027131	-0.007327	7.889992	-0.008275	0.006323	-0.001291	-0.619141	-0.12915	-0.4104
291.0	6.005997	-0.001905	7.901985	-0.010913	0.007506	0.001165	-0.614746	-0.126953	-0.4104
292.0	5.995576	-0.024259	7.896395	-0.008746	0.007147	0.000946	-0.621338	-0.126953	-0.412598
293.0	6.015668	-0.03114	7.885196	-0.009629	0.005473	-0.001531	-0.612549	-0.126953	-0.4104
294.0	6.004295	-0.004174	7.903277	-0.01106	0.010335	-0.001701	-0.619141	-0.126953	-0.408447
295.0	6.023038	-0.042316	7.906814	-0.00454	0.006867	0.004525	-0.612549	-0.126953	-0.4104
296.0	6.013753	-0.033087	7.886648	-0.010118	0.008689	-0.006177	-0.62793	-0.127197	-0.410645
297.0	6.002373	-0.005862	7.904736	-0.006923	0.007174	-0.001056	-0.61499	-0.124756	-0.414795
298.0	6.022222	-0.01234	7.893733	-0.004361	0.011704	-0.003443	-0.61499	-0.122803	-0.410645
299.0	6.002832	-0.024273	7.867732	-0.005715	0.010854	-0.003682	-0.616943	-0.126953	-0.414795
300.0	6.029135	-0.022549	7.915699	-0.003676	0.010933	0.000117	-0.614746	-0.126953	-0.408447
301.0	5.980519	-0.018634	7.880601	-0.005715	0.010854	-0.003684	-0.612793	-0.124756	-0.410645
302.0	6.028284	-0.072136	7.893392	-0.003008	0.012555	-0.003206	-0.621338	-0.124756	-0.414795
303.0	5.999307	-0.025019	7.870418	-0.003205	0.01011	-0.002122	-0.610352	-0.12915	-0.412598
304.0	6.00702	-0.034518	7.891772	0.001654	0.013846	-0.008744	-0.623535	-0.127197	-0.408447
305.0	6.015855	-0.012654	7.898586	-0.002195	0.011346	-0.003664	-0.614746	-0.12915	-0.412598
306.0	6.006262	-0.00289	7.878667	-0.00301	0.012554	-0.003208	-0.623779	-0.122803	-0.410645
307.0	6.022568	-0.022329	7.920698	-0.001184	0.012582	-0.005207	-0.616943	-0.126953	-0.410645
308.0	5.983718	0.003488	7.891687	-0.002196	0.011346	-0.003666	-0.619141	-0.126953	-0.412598
309.0	6.002373	-0.033945	7.895309	-0.004088	0.008436	-0.004602	-0.614746	-0.126953	-0.4104
310.0	6.000589	0.015183	7.919599	-0.004706	0.01209	-0.005231	-0.617188	-0.122803	-0.40625
311.0	6.010738	-0.012801	7.902481	-0.008818	0.004262	-0.002001	-0.612549	-0.12915	-0.408447
312.0	5.990849	0.023968	7.899795	-0.008753	0.007143	0.000933	-0.616943	-0.12915	-0.412598
313.0	5.999903	-0.035327	7.89718	-0.003273	0.007228	-0.00506	-0.612793	-0.120605	-0.412598
314.0	6.009199	-0.013987	7.903649	-0.006112	0.005963	-0.001522	-0.612793	-0.124756	-0.410645
315.0	6.008616	-0.014299	7.904091	-0.006257	0.008794	-0.004388	-0.614746	-0.125	-0.408447
316.0	6.016573	-0.024473	7.925246	-0.007743	0.00838	-0.00061	-0.617188	-0.120605	-0.40625
317.0	5.968274	-0.020701	7.889874	-0.006795	0.006736	-0.005085	-0.619141	-0.126953	-0.410645
318.0	5.988313	-0.027024	7.87878	-0.003747	0.008051	-0.002823	-0.621094	-0.131348	-0.414795
319.0	6.026663	-0.021553	7.894515	-0.00321	0.010109	-0.002127	-0.614746	-0.12915	-0.40625
320.0	6.015164	0.005929	7.912653	-0.005101	0.0072	-0.003065	-0.616943	-0.126953	-0.410645
321.0	5.984094	-0.00957	7.918579	-0.002395	0.008901	-0.002584	-0.614746	-0.126953	-0.408447
322.0	6.004067	-0.015665	7.907545	-0.003615	0.007615	-0.006843	-0.616943	-0.126953	-0.412598
323.0	6.006743	-0.00212	7.855267	-0.001383	0.010138	-0.004125	-0.614746	-0.126953	-0.412598
324.0	6.001352	-0.046637	7.923262	-3.1e-05	0.010989	-0.003884	-0.616943	-0.127197	-0.40625
325.0	5.984518	0.004425	7.868008	-0.002262	0.008466	-0.006604	-0.610596	-0.125	-0.408447
326.0	5.99231	-0.005132	7.889282	-0.001188	0.012583	-0.005211	-0.623291	-0.12915	-0.410645
327.0	5.970779	0.001311	7.901482	0.000443	0.010167	-0.006123	-0.61499	-0.124756	-0.412598
328.0	5.999247	-0.0142	7.911205	-0.00125	0.009703	-0.008146	-0.619141	-0.12915	-0.412598
329.0	5.998281	-0.013797	7.911939	0.00321	0.014749	-0.002708	-0.617188	-0.122803	-0.408447
330.0	5.978861	-0.025052	7.885962	-0.000239	0.01094	-0.009689	-0.619141	-0.125	-0.408447
331.0	6.029039	-0.015314	7.869724	-0.000715	0.011761	-0.007452	-0.610596	-0.122803	-0.410645
332.0	6.017204	0.012907	7.88808	0.004159	0.013107	-0.007184	-0.621338	-0.127197	-0.40625
333.0	6.005209	-0.039009	7.897319	0.005987	0.013136	-0.009181	-0.614746	-0.126953	-0.408447
334.0	5.983446	-0.031729	7.909672	0.008351	0.015225	-0.010482	-0.623535	-0.125	-0.404053
335.0	6.0041	-0.005191	7.88451	0.008826	0.014403	-0.012721	-0.617188	-0.122803	-0.40625
336.0	6.010184	-0.044558	7.920755	0.012737	0.019788	-0.014868	-0.619141	-0.125	-0.410645
337.0	5.990373	0.025938	7.90426	0.010032	0.018085	-0.015353	-0.612793	-0.125	-0.40625
338.0	5.989122	0.027214	7.905204	0.003814	0.013492	-0.008975	-0.616943	-0.124756	-0.412598
339.0	5.976154	0.024151	7.938032	-0.000913	0.009314	-0.006375	-0.619141	-0.126953	-0.412598
340.0	5.965753	0.00279	7.932411	-0.004969	0.006759	-0.007099	-0.616943	-0.12915	-0.4104
341.0	6.026079	0.033351	7.922052	-0.008287	0.006313	-0.001325	-0.608154	-0.131348	-0.412598
342.0	5.978231	0.036695	7.886281	-0.01138	-0.00028	0.000367	-0.619141	-0.124756	-0.412598
343.0	5.997542	-0.001501	7.889502	-0.011331	0.004996	-0.003592	-0.616943	-0.126953	-0.412598
344.0	6.006986	0.01905	7.895852	-0.013493	0.002956	0.003511	-0.623535	-0.127197	-0.408447
345.0	6.007964	-0.031215	7.872274	-0.012538	0.001314	-0.000964	-0.616699	-0.131348	-0.412598
346.0	5.964186	-0.002022	7.93359	-0.011187	0.002165	-0.000723	-0.619385	-0.122803	-0.40625
347.0	6.005343	-0.015074	7.91076	-0.011187	0.002165	-0.000723	-0.614746	-0.12915	-0.408447
348.0	5.974831	-0.031339	7.916184	-0.011721	0.000106	-0.00142	-0.619141	-0.124756	-0.414795
349.0	5.986861	-0.028332	7.884075	-0.00854	0.000989	-0.003173	-0.616943	-0.125	-0.410645
350.0	5.987854	0.002524	7.869675	-0.008346	0.003434	-0.00426	-0.619141	-0.126953	-0.414795
351.0	5.996209	-0.007832	7.890511	-0.011528	0.002551	-0.002508	-0.612549	-0.12915	-0.4104
352.0	6.005676	0.013164	7.896861	-0.005302	0.004751	-0.001992	-0.614746	-0.126953	-0.408447
353.0	5.995683	-0.009108	7.890909	-0.01437	0.001281	0.001026	-0.612549	-0.12915	-0.4104
354.0	5.993141	0.007841	7.929345	-0.008824	0.004255	-0.002024	-0.619141	-0.125	-0.410645
355.0	6.004997	0.010908	7.89738	-0.010711	0.001344	-0.002964	-0.619141	-0.126953	-0.408447
356.0	6.014527	-0.048633	7.894439	-0.008825	0.004255	-0.002024	-0.618896	-0.131348	-0.416992
357.0	5.994688	-0.011811	7.891662	-0.008825	0.004255	-0.002025	-0.614746	-0.12915	-0.408447
358.0	6.004084	0.009274	7.898077	-0.005303	0.004751	-0.001993	-0.614746	-0.126953	-0.414795
359.0	6.003825	0.008796	7.898274	-0.009019	0.001809	-0.000939	-0.610596	-0.122803	-0.408447
360.0	5.982768	0.014524	7.910047	-0.005789	0.007972	-0.006646	-0.619141	-0.125	-0.408447
361.0	6.015251	0.011878	7.866647	-0.009075	-0.00107	-0.003876	-0.612549	-0.12915	-0.4104
362.0	6.001761	-0.023498	7.913457	-0.00511	0.007197	-0.003079	-0.616943	-0.124756	-0.412598
363.0	6.002437	0.007466	7.89933	-0.007474	0.005106	-0.001783	-0.612549	-0.12915	-0.412598
364.0	6.033633	-0.026563	7.870528	-0.005644	0.005138	-0.003777	-0.623535	-0.127197	-0.40625
365.0	6.001626	0.006895	7.899947	-0.005644	0.005138	-0.003778	-0.610352	-0.12915	-0.412598
366.0	6.001169	0.006894	7.900294	-0.002801	0.006411	-0.007311	-0.617188	-0.122803	-0.410645
367.0	6.002996	-0.010848	7.862408	-0.000909	0.006918	0.000521	-0.612549	-0.12915	-0.4104
368.0	6.01102	-0.020673	7.883484	-0.00328	0.007229	-0.005074	-0.621094	-0.131348	-0.4104
369.0	6.008023	-0.002737	7.922255	-0.000577	0.008933	-0.004587	-0.612549	-0.12915	-0.408447
370.0	5.998793	0.006973	7.902098	-0.007281	0.007551	-0.002871	-0.616943	-0.12915	-0.4104
371.0	6.007914	0.02823	7.908734	-0.003759	0.008048	-0.002838	-0.612549	-0.126953	-0.416992
372.0	5.987921	-0.015119	7.896792	-0.007475	0.005105	-0.001787	-0.614746	-0.126953	-0.412598
373.0	5.997399	0.005793	7.903158	-0.008682	0.001419	0.000838	-0.614746	-0.12915	-0.408447
374.0	6.006982	0.026169	7.909449	-0.017024	0.002449	0.00346	-0.621338	-0.127197	-0.408447
375.0	5.986537	0.03011	7.920746	-0.026676	-0.008364	0.009722	-0.616699	-0.133545	-0.4104
376.0	5.998098	-0.000607	7.902629	-0.03299	-0.007259	0.016151	-0.619385	-0.122803	-0.410645
377.0	6.01834	-0.041451	7.905044	-0.032228	-0.011342	0.012756	-0.614746	-0.125	-0.408447
378.0	6.001051	-0.056438	7.877405	-0.031606	-0.014995	0.01338	-0.617188	-0.122803	-0.408447
379.0	6.00208	-0.059604	7.876598	-0.030401	-0.011308	0.010755	-0.619385	-0.122803	-0.410645
380.0	6.012666	-0.04109	7.882148	-0.027358	-0.009995	0.013025	-0.619141	-0.126953	-0.412598
381.0	6.035184	-0.018525	7.855716	-0.025673	-0.007123	0.008165	-0.621338	-0.124756	-0.412598
382.0	6.024749	-0.073705	7.863512	-0.020798	-0.005776	0.008446	-0.619385	-0.120605	-0.40625
383.0	6.015183	-0.01685	7.86669	-0.018181	0.001637	0.009011	-0.610352	-0.126953	-0.408447
384.0	6.025025	0.002717	7.872849	-0.018433	-0.003684	0.007152	-0.619385	-0.120605	-0.414795
385.0	5.993853	0.034206	7.901778	-0.026357	-0.006341	0.00459	-0.614746	-0.12915	-0.4104
386.0	6.012908	0.042752	7.9281	-0.037941	-0.011484	0.012891	-0.621338	-0.125	-0.40625
387.0	6.014133	0.038322	7.927194	-0.055821	-0.01928	0.01083	-0.610352	-0.126953	-0.419189
388.0	5.968484	0.036797	7.889807	-0.07743	-0.030019	0.009795	-0.623535	-0.125	-0.410645
389.0	5.990825	0.071972	7.900276	-0.10102	-0.040373	0.014749	-0.619385	-0.118408	-0.410645
390.0	6.042849	0.008693	7.909597	-0.122	-0.043318	0.020259	-0.621338	-0.125	-0.408447
391.0	6.02818	-0.014501	7.879883	-0.137687	-0.051027	0.027725	-0.61499	-0.120605	-0.410645
392.0	6.039341	-0.020612	7.935198	-0.159266	-0.069906	0.033349	-0.619141	-0.127197	-0.40625
393.0	6.033327	-0.04061	7.962709	-0.184079	-0.081106	0.043703	-0.615234	-0.116211	-0.410645
394.0	6.01287	-0.140378	7.899624	-0.204782	-0.093033	0.047783	-0.621582	-0.120605	-0.40625
395.0	6.091816	-0.156214	7.865099	-0.211944	-0.094027	0.047501	-0.615234	-0.118408	-0.408447
396.0	6.068833	-0.191281	7.864132	-0.215307	-0.097785	0.046073	-0.619385	-0.118652	-0.401855
397.0	6.07706	-0.259706	7.833131	-0.218548	-0.093374	0.043711	-0.619629	-0.116211	-0.410645
398.0	6.094859	-0.306437	7.808596	-0.218201	-0.091706	0.03442	-0.621582	-0.118408	-0.40625
399.0	6.102239	-0.245119	7.81366	-0.215255	-0.08795	0.02968	-0.617432	-0.116455	-0.40625
400.0	6.128393	-0.30091	7.809585	-0.211568	-0.088233	0.021509	-0.624268	-0.10791	-0.401855
401.0	6.107531	-0.318435	7.756554	-0.195257	-0.08131	0.017504	-0.62207	-0.109863	-0.404053
402.0	6.132173	-0.323085	7.778154	-0.181801	-0.073197	0.010195	-0.626221	-0.112061	-0.40625
403.0	6.120116	-0.316273	7.732777	-0.167488	-0.068787	0.009277	-0.619629	-0.114258	-0.401855
404.0	6.133417	-0.291391	7.773826	-0.153509	-0.063959	0.006612	-0.624023	-0.114258	-0.40625
405.0	6.117802	-0.297449	7.781489	-0.143616	-0.061661	0.003163	-0.624023	-0.109863	-0.404053
406.0	6.154711	-0.309503	7.733188	-0.138282	-0.061113	0.001166	-0.62207	-0.109863	-0.404053
407.0	6.105339	-0.345103	7.79875	-0.131431	-0.051542	-0.001376	-0.626465	-0.105713	-0.40625
408.0	6.142721	-0.32419	7.737609	-0.124885	-0.055148	0.004756	-0.628418	-0.110107	-0.401855
409.0	6.13558	-0.386378	7.740457	-0.109181	-0.047348	-0.002596	-0.624268	-0.10791	-0.404053
410.0	6.159663	-0.399753	7.72514	-0.094538	-0.046173	-0.004621	-0.626465	-0.107666	-0.40625
411.0	6.122675	-0.442642	7.720377	-0.07441	-0.04162	-0.005534	-0.626465	-0.107666	-0.40625
412.0	6.105212	-0.441605	7.729821	-0.057976	-0.034659	-0.00929	-0.626465	-0.105469	-0.408447
413.0	6.138585	-0.477101	7.696621	-0.037523	-0.027979	-0.015216	-0.62207	-0.109863	-0.412842
414.0	6.139753	-0.382515	7.746654	-0.025497	-0.02567	-0.014741	-0.626465	-0.105713	-0.4021
415.0	6.110134	-0.430089	7.763482	-0.009857	-0.020661	-0.025026	-0.624268	-0.105713	-0.401855
416.0	6.121815	-0.407234	7.769137	0.011365	-0.020537	-0.027628	-0.624023	-0.109863	-0.401855
417.0	6.135041	-0.399017	7.735813	0.024665	-0.020193	-0.029889	-0.62207	-0.10791	-0.401855
418.0	6.115244	-0.420771	7.759968	0.037711	-0.019764	-0.037952	-0.626465	-0.10791	-0.401855
419.0	6.115866	-0.446532	7.772162	0.056029	-0.018426	-0.043912	-0.62207	-0.109863	-0.404053
420.0	6.167375	-0.46054	7.767106	0.074598	-0.020327	-0.051127	-0.626221	-0.109863	-0.401855
421.0	6.177318	-0.493228	7.799376	0.092958	-0.024696	-0.057346	-0.62207	-0.109863	-0.404053
422.0	6.139642	-0.438047	7.809335	0.115709	-0.024407	-0.067817	-0.628662	-0.107666	-0.40625
423.0	6.168748	-0.406929	7.893868	0.145371	-0.039838	-0.080635	-0.626221	-0.109863	-0.401855
424.0	6.120559	-0.302802	7.960433	0.167028	-0.049353	-0.092923	-0.626221	-0.110107	-0.399902
425.0	6.084279	0.14442	8.081033	0.168132	-0.073762	-0.098419	-0.626221	-0.114258	-0.401855
426.0	5.59639	0.411884	8.546	0.11839	-0.153453	-0.097465	-0.632568	-0.114258	-0.399658
427.0	5.577401	-0.39086	8.601074	0.009199	-0.308083	-0.110698	-0.621582	-0.116455	-0.393311
428.0	4.07224	-2.26748	9.312314	0.071051	-0.54779	-0.187063	-0.632568	-0.116699	-0.388916
429.0	5.604963	-0.949987	9.12725	0.138123	-0.808848	-0.285197	-0.630127	-0.12085	-0.386719
430.0	5.282035	-0.206387	9.670078	0.235057	-1.052887	-0.37904	-0.636719	-0.123047	-0.384521
431.0	5.413816	-1.420801	9.520064	0.250514	-1.329497	-0.419853	-0.643066	-0.123291	-0.373779
432.0	5.514502	-0.809912	9.69359	0.332342	-1.57453	-0.454481	-0.647217	-0.12793	-0.36084
433.0	5.703961	-0.689576	9.742945	0.339913	-1.813334	-0.454265	-0.651611	-0.130127	-0.352051
434.0	6.075309	-0.236518	10.038228	0.324461	-2.069843	-0.496755	-0.662354	-0.134521	-0.341309
435.0	6.381286	-0.482021	9.416187	0.242293	-2.337383	-0.542127	-0.657715	-0.13916	-0.328125
436.0	7.656874	-0.877302	9.434386	0.264838	-2.442615	-0.634958	-0.677246	-0.139404	-0.308594
437.0	7.502937	-1.587814	8.271523	0.287533	-2.588236	-0.750672	-0.668213	-0.145996	-0.293457
438.0	9.467526	-1.357913	8.53608	0.361414	-2.582242	-0.828276	-0.6875	-0.150635	-0.280518
439.0	10.467871	-1.631933	8.541427	0.32625	-2.429927	-0.858636	-0.680908	-0.155029	-0.260986
440.0	8.702393	-2.89199	8.831628	0.521689	-2.146399	-0.894903	-0.691895	-0.15332	-0.248047
441.0	7.010133	-4.181089	9.563808	0.733272	-1.828456	-0.840447	-0.684814	-0.161865	-0.247803
442.0	5.017307	-5.143505	9.715102	0.913576	-1.503954	-0.690306	-0.691162	-0.16626	-0.234863
443.0	4.002087	-4.926713	9.633556	1.070467	-1.199266	-0.445873	-0.686768	-0.17041	-0.239258
444.0	5.191095	-2.674815	11.032833	0.916638	-0.784579	-0.143069	-0.689209	-0.161865	-0.234863
445.0	2.339869	-2.692152	10.128883	0.618404	-0.346332	0.01298	-0.678223	-0.164063	-0.241455
446.0	1.463266	-2.555764	9.460419	0.462053	-0.126064	-0.002989	-0.680664	-0.157471	-0.24585
447.0	1.667503	-1.977076	9.289261	0.316666	0.084381	-0.087837	-0.672119	-0.155029	-0.258789
448.0	2.332927	-1.322425	9.483005	0.123305	0.368548	-0.142472	-0.672607	-0.14624	-0.271729
449.0	2.661915	-1.171085	9.397406	-0.102356	0.672726	-0.153675	-0.657715	-0.137451	-0.289063
450.0	2.996751	-1.284165	9.253919	-0.314883	0.957852	-0.116883	-0.64917	-0.132813	-0.306396
451.0	3.504839	-1.253556	9.093142	-0.492618	1.211587	-0.015294	-0.638916	-0.117432	-0.326172
452.0	3.794954	-1.330354	8.810121	-0.63186	1.431041	0.136714	-0.62207	-0.106445	-0.3479
453.0	3.926991	-1.526277	8.381382	-0.70231	1.592077	0.292415	-0.601318	-0.082275	-0.378174
454.0	4.178388	-1.539073	8.18268	-0.706299	1.693296	0.443607	-0.577881	-0.066895	-0.395508
455.0	4.6703	-1.273182	8.108348	-0.694371	1.751402	0.595344	-0.550049	-0.053467	-0.417236
456.0	5.285752	-0.928354	8.174724	-0.705306	1.797593	0.732508	-0.531738	-0.022949	-0.441162
457.0	5.865471	-0.705511	8.185285	-0.732205	1.822532	0.841586	-0.489258	0.003174	-0.456543
458.0	6.509936	-0.627265	8.185546	-0.752596	1.851362	0.919707	-0.457764	0.029297	-0.465332
459.0	6.868614	-0.686405	8.090862	-0.748188	1.866423	0.973478	-0.419189	0.048828	-0.47168
460.0	7.020862	-0.713807	8.007363	-0.723289	1.846706	1.01794	-0.385742	0.081299	-0.469727
461.0	7.103869	-0.594969	8.022113	-0.69811	1.788493	1.057089	-0.347412	0.103027	-0.474121
462.0	7.248392	-0.275486	8.118657	-0.684257	1.701659	1.100538	-0.306885	0.124512	-0.461182
463.0	7.314158	0.097594	8.05908	-0.696668	1.590933	1.125934	-0.264404	0.152344	-0.448242
464.0	7.421827	0.348823	7.896889	-0.70172	1.443266	1.141172	-0.232422	0.175781	-0.428711
465.0	7.573372	0.513287	7.797839	-0.692088	1.275756	1.135694	-0.193848	0.190918	-0.40918
466.0	8.118027	0.813572	7.838727	-0.66746	1.11186	1.119242	-0.166504	0.214355	-0.383301
467.0	8.714679	0.948536	7.872798	-0.635568	1.012062	1.096528	-0.119141	0.233398	-0.355225
468.0	9.200357	1.034299	7.884557	-0.586034	0.969802	1.066322	-0.102295	0.24585	-0.313965
469.0	9.685943	1.515437	7.935182	-0.55213	0.974798	1.036696	-0.06543	0.253906	-0.272705
470.0	10.044975	1.792751	7.638614	-0.546729	1.035163	1.013992	-0.050293	0.257813	-0.233643
471.0	9.901763	1.6382	7.082157	-0.503965	1.118011	0.961633	-0.026367	0.259521	-0.19043
472.0	9.544663	1.548393	6.577013	-0.406937	1.160181	0.877463	-0.019775	0.260986	-0.144775
473.0	9.448121	1.649306	6.25932	-0.300926	1.176671	0.745102	-0.002197	0.260742	-0.110107
474.0	9.275512	1.844767	5.955052	-0.217507	1.192199	0.605947	-0.008545	0.26001	-0.064697
475.0	8.840736	1.877661	5.529072	-0.171584	1.183107	0.451929	-0.012451	0.246582	-0.029785
476.0	8.421989	1.811832	5.013254	-0.160664	1.124606	0.292503	-0.016357	0.237305	0.009277
477.0	8.207355	1.76147	4.574254	-0.179965	1.016107	0.157943	-0.022461	0.230713	0.035156
478.0	8.358665	1.571521	4.075524	-0.20932	0.896573	0.05016	-0.0354	0.227783	0.072021
479.0	8.50603	1.008417	3.627216	-0.181428	0.789497	-0.048933	-0.04126	0.2146	0.09375
480.0	8.601694	0.481208	3.260986	-0.064112	0.703592	-0.168078	-0.054199	0.209961	0.111084
481.0	8.778982	0.453623	3.058534	0.088117	0.627913	-0.268957	-0.066895	0.198975	0.130615
482.0	8.982052	0.856416	2.903637	0.194042	0.564945	-0.335506	-0.081787	0.194336	0.156738
483.0	9.254686	1.281302	2.883302	0.215843	0.503976	-0.359286	-0.090576	0.196045	0.174072
484.0	5.617709	-0.835406	4.544084	0.176543	0.48107	-0.409981	-0.094727	0.19165	0.189209
485.0	10.686673	1.69821	-0.877114	0.926707	-0.550146	-1.026366	-0.094482	0.187012	0.204346
486.0	8.146971	2.376132	-4.280218	1.031526	-0.82825	-1.322903	-0.09668	0.186768	0.223877
487.0	7.34368	2.61232	-0.650327	0.988576	-0.987634	-1.674067	-0.098877	0.193115	0.239014
488.0	6.175566	0.137587	12.689788	1.164823	-1.630327	-1.823115	-0.096924	0.197021	0.264893
489.0	10.311446	-1.046631	12.445012	0.741001	-1.042873	-1.359925	-0.094727	0.197021	0.273682
490.0	7.150343	0.131819	7.388692	0.671975	-1.514852	-0.889162	-0.094727	0.201172	0.286621
491.0	15.161276	-0.051902	11.302227	0.647903	-1.87083	-0.48587	-0.083984	0.203125	0.299561
492.0	20.042996	3.170406	12.944905	0.713951	-0.868928	-0.458234	-0.084229	0.207275	0.303955
493.0	4.25306	0.132406	7.445822	0.385142	-0.21586	-0.213415	-0.07959	0.205078	0.310547
494.0	5.989302	-1.75771	8.760832	0.404025	-0.659636	-0.182482	-0.079834	0.211426	0.314697
495.0	6.542369	1.228967	8.508324	0.307448	-0.574863	-0.120747	-0.073242	0.207275	0.314941
496.0	6.425245	2.694141	8.710668	0.086962	-0.597098	-0.031541	-0.073486	0.211426	0.325684
497.0	8.054512	1.965554	8.994428	-0.146794	-0.413772	0.077311	-0.073486	0.211426	0.323486
498.0	6.329241	-0.009492	7.691347	-0.206756	-0.255768	0.105007	-0.075439	0.209229	0.323486
499.0	6.432132	-0.001568	8.066915	-0.208211	-0.227918	0.132395	-0.06665	0.205078	0.317139
500.0	5.903495	1.063658	8.292031	-0.253996	-0.250709	0.15989	-0.073486	0.211426	0.327881
501.0	6.128271	0.81155	8.228386	-0.381783	-0.275821	0.19638	-0.070801	0.202881	0.321289
502.0	6.435277	-0.241916	7.974254	-0.471681	-0.266719	0.222724	-0.071045	0.209229	0.321289
503.0	6.402343	-0.517001	7.770702	-0.475567	-0.239573	0.226057	-0.068604	0.202881	0.325684
504.0	6.320523	-0.283945	7.802263	-0.456425	-0.209299	0.222327	-0.068848	0.204834	0.325684
505.0	6.348944	-0.818333	7.543129	-0.399959	-0.180403	0.188172	-0.066406	0.200684	0.325684
506.0	6.169256	-0.858683	7.552692	-0.324161	-0.153615	0.158938	-0.072998	0.202881	0.325684
507.0	6.31129	-0.854159	7.502368	-0.259629	-0.135876	0.122891	-0.064209	0.198486	0.321289
508.0	6.215989	-1.10455	7.470485	-0.195901	-0.116625	0.091571	-0.072998	0.202881	0.325684
509.0	6.321926	-1.118764	7.479876	-0.13328	-0.090015	0.059431	-0.064209	0.198486	0.323486
510.0	6.208903	-1.093974	7.456335	-0.069351	-0.05963	0.024965	-0.066406	0.198486	0.330078
511.0	6.133915	-0.963186	7.504114	-0.001931	-0.048367	-0.009252	-0.066406	0.198486	0.332275
512.0	6.168033	-0.755223	7.604845	0.049101	-0.049627	-0.030477	-0.068604	0.200684	0.327881
513.0	6.279692	-0.662386	7.693712	0.066559	-0.04416	-0.038521	-0.066406	0.202881	0.325684
514.0	6.243638	-0.611068	7.703822	0.077328	-0.037318	-0.041974	-0.068359	0.196289	0.327881
515.0	6.26583	-0.639819	7.702155	0.081653	-0.035405	-0.049163	-0.062012	0.200684	0.327881
516.0	6.25972	-0.666281	7.654041	0.090785	-0.026172	-0.051657	-0.068604	0.202881	0.323486
517.0	6.293519	-0.608218	7.635731	0.094396	-0.020287	-0.055332	-0.064453	0.202881	0.327881
518.0	6.245601	-0.669534	7.586536	0.113051	-0.007968	-0.058853	-0.064453	0.205078	0.323486
519.0	6.276759	-0.640665	7.582091	0.138506	5.3e-05	-0.064281	-0.064209	0.202637	0.330078
520.0	6.247897	-0.74996	7.495934	0.177689	0.018293	-0.091504	-0.064453	0.207031	0.327881
521.0	6.235379	-0.828643	7.478333	0.235246	0.046375	-0.121396	-0.064453	0.202881	0.325684
522.0	6.294099	-0.73713	7.461101	0.29319	0.067985	-0.154028	-0.071045	0.208984	0.334229
523.0	6.268198	-0.776749	7.467303	0.352213	0.096454	-0.182347	-0.068848	0.209229	0.330078
524.0	6.250105	-0.566846	7.573909	0.395273	0.098335	-0.185581	-0.066895	0.211182	0.334229
525.0	6.234841	0.111664	7.957741	0.355691	0.056415	-0.132705	-0.0625	0.211426	0.330078
526.0	6.211035	-0.138342	7.908333	0.290484	0.029072	-0.082838	-0.066895	0.213379	0.332031
527.0	6.21104	-0.129017	7.871052	0.248536	0.014948	-0.055817	-0.062744	0.215576	0.334229
528.0	6.22948	-0.145256	7.873574	0.211206	0.015865	-0.044579	-0.067139	0.217773	0.334229
529.0	6.222596	-0.149559	7.77694	0.186381	0.018362	-0.035082	-0.060303	0.213379	0.332275
530.0	6.241609	-0.139664	7.766365	0.161684	0.020504	-0.02957	-0.062744	0.215576	0.334229
531.0	6.241549	-0.142259	7.729169	0.156088	0.026007	-0.0235	-0.060547	0.217773	0.334229
532.0	6.21823	-0.155365	7.756571	0.144497	0.026065	-0.019225	-0.062988	0.221924	0.336426
533.0	6.23594	-0.100763	7.771519	0.134904	0.023314	-0.014111	-0.054199	0.219971	0.334229
534.0	6.234409	-0.169901	7.761451	0.129128	0.01782	-0.010153	-0.05835	0.219971	0.332031
535.0	6.265217	-0.160165	7.718492	0.129113	0.014599	-0.017238	-0.049561	0.21582	0.325684
536.0	6.214313	-0.127377	7.723147	0.129708	0.010935	-0.016732	-0.060547	0.215576	0.330078
537.0	6.252744	-0.030561	7.749875	0.13384	0.007775	-0.016184	-0.053711	0.211426	0.330078
538.0	6.211639	-0.088396	7.762901	0.125519	-0.00228	-0.009889	-0.069336	0.217773	0.332031
539.0	6.212268	-0.078021	7.762509	0.125654	-0.013707	-0.010264	-0.064697	0.213379	0.336426
540.0	6.212961	-0.099208	7.775293	0.125789	-0.025134	-0.010633	-0.064697	0.215576	0.334229
541.0	6.196648	-0.1797	7.736136	0.133028	-0.033481	-0.021827	-0.069336	0.217773	0.332031
542.0	6.199447	-0.167168	7.734174	0.144981	-0.03762	-0.03558	-0.062988	0.224365	0.329834
543.0	6.192765	-0.174692	7.725678	0.148227	-0.040374	-0.048462	-0.062988	0.222168	0.332031
544.0	6.232507	-0.168118	7.790954	0.159344	-0.034759	-0.058657	-0.067139	0.217773	0.336426
545.0	6.233596	-0.214656	7.817507	0.160042	-0.028214	-0.070003	-0.067139	0.219727	0.338623
546.0	6.195768	-0.153848	7.825677	0.168604	-0.030442	-0.084912	-0.062744	0.219971	0.332031
547.0	6.10579	-0.084358	7.889578	0.164668	-0.03712	-0.100861	-0.067383	0.224121	0.336426
548.0	6.147649	-0.010366	7.925654	0.159363	-0.055265	-0.109242	-0.067139	0.221924	0.338623
549.0	6.035556	0.149422	8.099719	0.149006	-0.09112	-0.115991	-0.058594	0.222168	0.334229
550.0	5.709443	0.428115	8.484147	0.093686	-0.179804	-0.127867	-0.067383	0.224121	0.34082
551.0	5.285377	-0.373244	8.74654	0.077579	-0.367677	-0.117468	-0.062988	0.224121	0.334229
552.0	5.83573	0.278135	8.588882	0.123498	-0.546429	-0.131047	-0.067139	0.219727	0.338623
553.0	5.822283	0.700705	8.688594	0.095658	-0.701724	-0.121213	-0.064941	0.217529	0.34082
554.0	5.899177	0.845225	8.64242	0.0177	-0.884359	-0.090083	-0.066895	0.215576	0.332031
555.0	5.922074	0.944996	8.631337	-0.054241	-1.0799	-0.034273	-0.064697	0.213379	0.343018
556.0	5.866246	0.77818	8.711835	-0.111692	-1.300121	0.024927	-0.069092	0.213135	0.347412
557.0	5.796135	0.118118	8.712017	-0.099165	-1.52589	0.050463	-0.062256	0.208984	0.345215
558.0	5.700128	-0.383003	8.833408	0.00047	-1.769004	0.042519	-0.06665	0.206787	0.347412
559.0	5.555174	-0.529245	9.03951	0.121759	-2.050128	0.037521	-0.064209	0.202393	0.349609
560.0	5.333359	-0.357304	9.337848	0.222783	-2.374704	0.039279	-0.068604	0.200195	0.354004
561.0	5.128146	-0.58064	9.667218	0.261547	-2.763273	0.017044	-0.05957	0.19165	0.354004
562.0	4.910505	-0.364603	10.363077	0.256738	-3.221698	-0.055453	-0.057373	0.19165	0.362549
563.0	4.82864	-0.572743	10.873263	0.113808	-3.760948	-0.195651	-0.058838	0.178467	0.366943
564.0	5.08468	-2.899389	10.662534	0.060228	-4.32021	-0.424444	-0.056641	0.17627	0.375732
565.0	3.797656	-3.719859	10.129691	0.248157	-4.8963	-0.684042	-0.051758	0.16333	0.386719
566.0	4.950188	-4.097474	9.393584	0.509348	-5.536715	-1.145496	-0.046875	0.150146	0.404053
567.0	5.271178	-2.061212	8.88028	0.899126	-6.131171	-1.5462	-0.035645	0.139404	0.415039
568.0	7.611882	-0.244437	8.825989	1.00491	-6.756309	-1.759899	-0.021973	0.128418	0.425781
569.0	13.485528	-2.275756	9.136097	1.06379	-7.172492	-1.850891	-0.006592	0.126221	0.443115
570.0	24.144036	0.056888	10.144019	1.083204	-7.08554	-1.87558	-0.001709	0.108887	0.454102
571.0	21.274033	0.716383	6.291154	1.106336	-6.478049	-2.14383	0.001221	0.09375	0.460693
572.0	22.14153	-0.759715	11.625146	1.160708	-6.284821	-2.334225	0.001709	0.076416	0.467285
573.0	18.363588	-5.002933	8.773684	0.838811	-5.843039	-2.289335	0.009277	0.054688	0.476074
574.0	16.934239	-3.856267	12.483303	1.073447	-5.387343	-2.403895	0.01001	0.037354	0.484863
575.0	13.668492	-4.152892	15.824302	1.263445	-4.712001	-2.455536	0.006104	0.020264	0.484863
576.0	7.369136	-5.90632	16.142328	1.128448	-2.861955	-1.918814	-0.012451	-0.005859	0.502441
577.0	8.675864	-4.61069	16.279521	0.972946	-1.311143	-1.100427	-0.0354	-0.025391	0.51123
578.0	12.311105	-2.494773	18.867607	0.248229	0.506138	-0.543924	-0.067383	-0.047363	0.521973
579.0	0.040604	-5.306776	12.867751	-0.089425	1.243132	-0.254356	-0.094727	-0.071045	0.52002
580.0	-2.125085	-5.730184	10.003021	-0.04721	1.345893	-0.285554	-0.124268	-0.092773	0.532959
581.0	-1.0751	-4.376184	9.214935	-0.004865	1.447543	-0.364144	-0.154053	-0.114258	0.524414
582.0	0.661749	-3.2204	9.19184	-0.085305	1.667693	-0.323698	-0.184082	-0.123291	0.532959
583.0	2.101741	-2.671039	9.158793	-0.23917	2.024463	-0.184591	-0.220215	-0.148926	0.52002
584.0	3.416968	-2.457782	9.15915	-0.395408	2.482224	0.013594	-0.252197	-0.16626	0.518066
585.0	4.257884	-2.606639	8.804872	-0.48532	3.000325	0.223027	-0.291016	-0.177002	0.496338
586.0	4.66025	-2.509011	8.385949	-0.480348	3.498223	0.373742	-0.32959	-0.189697	0.485352
587.0	4.91794	-1.946615	7.936591	-0.464779	3.945114	0.464884	-0.361816	-0.200439	0.46167
588.0	4.905278	-0.901536	7.628104	-0.521892	4.274147	0.51299	-0.405273	-0.204346	0.426758
589.0	4.959174	0.306777	7.384118	-0.715936	4.460435	0.54715	-0.43335	-0.214844	0.394287
590.0	5.414352	1.261184	7.260789	-1.038264	4.513836	0.591138	-0.46582	-0.220947	0.361816
591.0	6.11661	1.683127	7.127114	-1.413566	4.48021	0.656407	-0.487549	-0.222656	0.318359
592.0	6.899555	1.720891	7.032431	-1.743907	4.425771	0.74187	-0.51123	-0.23291	0.283691
593.0	7.738095	1.40702	6.916977	-1.977537	4.370516	0.792661	-0.524414	-0.234619	0.238281
594.0	8.553513	1.238777	6.83451	-2.094517	4.301302	0.810436	-0.547852	-0.244873	0.203613
595.0	9.549374	1.446297	6.825943	-2.124967	4.212518	0.794286	-0.556641	-0.250732	0.162354
596.0	10.526304	1.733763	6.891276	-2.167879	4.092081	0.791304	-0.567627	-0.248047	0.116943
597.0	11.586461	1.675665	7.042982	-2.215046	3.966471	0.846614	-0.573975	-0.256104	0.082275
598.0	12.343481	1.224147	7.285513	-2.252802	3.840529	0.984828	-0.589355	-0.255615	0.032227
599.0	13.139841	0.693358	7.897922	-2.264994	3.746967	1.228741	-0.589111	-0.259277	-0.006592
600.0	13.658894	0.476371	8.602551	-2.272417	3.679083	1.553664	-0.596191	-0.248047	-0.050049
601.0	14.156147	0.285438	9.066629	-2.253135	3.651263	1.892049	-0.598877	-0.239014	-0.086914
602.0	14.673236	-0.271246	9.203266	-2.175812	3.62583	2.176097	-0.610596	-0.221191	-0.128174
603.0	15.046487	-0.407536	8.986883	-2.006267	3.584287	2.40954	-0.602295	-0.209961	-0.169434
604.0	15.732117	-0.005258	8.787533	-1.768774	3.509022	2.59098	-0.59668	-0.187988	-0.197754
605.0	16.451746	1.05817	8.574856	-1.53579	3.436939	2.770101	-0.595215	-0.170166	-0.230469
606.0	17.142811	3.230984	7.909662	-1.349225	3.339245	2.901001	-0.587646	-0.144043	-0.265137
607.0	17.212688	6.155998	6.97407	-1.271512	3.214309	2.944154	-0.575439	-0.126465	-0.289063
608.0	18.26148	7.340311	5.512136	-1.268491	3.098289	2.74865	-0.565186	-0.106689	-0.312988
609.0	18.966853	6.367511	3.224475	-1.088165	3.07069	2.283875	-0.555176	-0.088867	-0.345703
610.0	18.97779	5.318198	0.862214	-0.649684	3.063284	1.717373	-0.540283	-0.080078	-0.363037
611.0	18.567386	5.145655	-1.351608	-0.190503	2.950572	1.23313	-0.522949	-0.081787	-0.384521
612.0	18.174092	5.458414	-3.522306	0.056104	2.681807	0.933878	-0.503906	-0.066406	-0.399902
613.0	17.928685	6.102429	-5.55924	0.076507	2.258818	0.737539	-0.499756	-0.063965	-0.419189
614.0	17.386025	7.193516	-7.413483	-0.092836	1.730558	0.522183	-0.486816	-0.05957	-0.427979
615.0	14.649225	5.659323	-9.12657	-0.2519	0.800979	0.090317	-0.47583	-0.063965	-0.425781
616.0	14.917356	4.965408	-13.126216	0.177989	-0.245954	-0.526574	-0.477783	-0.070313	-0.427979
617.0	18.91044	6.079511	-14.597133	1.037059	-1.175979	-1.161355	-0.479492	-0.078857	-0.429932
618.0	20.077783	5.539148	-19.000794	2.119646	-1.761924	-1.541709	-0.485352	-0.096436	-0.4104
619.0	-1.245167	10.952938	-2.688202	3.374946	-2.286874	-1.765513	-0.497559	-0.118164	-0.397461
620.0	13.254503	4.714494	24.847809	1.710949	-4.686674	-1.339909	-0.508057	-0.125	-0.37793
621.0	15.247878	4.058558	9.629337	1.916434	-2.741079	-1.372531	-0.513916	-0.144531	-0.366943
622.0	14.84073	10.662711	12.533774	1.451035	-3.433712	-1.087919	-0.526611	-0.151123	-0.349609
623.0	34.864969	3.511308	16.244638	0.914734	-3.243256	-0.907464	-0.537109	-0.162109	-0.338623
624.0	12.256817	-1.134352	8.667643	0.995121	-0.41224	-0.427269	-0.536865	-0.164307	-0.327881
625.0	4.842707	0.833202	8.646711	1.258214	-1.120728	-0.470803	-0.536621	-0.170898	-0.321289
626.0	8.941747	4.416568	11.290279	1.019869	-0.938537	-0.387712	-0.54541	-0.171143	-0.312744
627.0	8.589878	5.265343	10.386745	0.311917	-0.175518	-0.062347	-0.538818	-0.170898	-0.319092
628.0	6.999626	-1.757941	7.694649	0.27952	-0.353482	-0.016973	-0.542969	-0.175293	-0.314697
629.0	7.105581	-0.287013	7.290814	0.261641	-0.095546	-0.064664	-0.542969	-0.175293	-0.319092
630.0	6.91685	-0.926693	7.762079	0.338916	-0.001528	-0.14623	-0.538574	-0.175537	-0.310547
631.0	6.429494	0.872967	8.097242	0.362741	0.069186	-0.157389	-0.536133	-0.181885	-0.30835
632.0	6.712078	0.192198	8.012816	0.276785	0.087956	-0.133025	-0.542725	-0.184082	-0.314697
633.0	6.3516	0.313639	8.060453	0.282218	0.108564	-0.114783	-0.540527	-0.186035	-0.319092
634.0	6.18935	0.39322	8.123701	0.23276	0.085761	-0.098123	-0.53833	-0.183838	-0.316895
635.0	6.244115	0.286047	8.099442	0.196201	0.072741	-0.072573	-0.542725	-0.186279	-0.3125
636.0	6.085466	0.628717	8.172367	0.155603	0.035159	-0.045556	-0.540527	-0.186279	-0.310303
637.0	6.157625	-0.074286	7.953616	0.110235	0.018254	-0.020834	-0.538086	-0.188232	-0.3125
638.0	6.162661	-0.180778	7.869513	0.107826	0.013276	-0.022496	-0.544922	-0.184082	-0.314697
639.0	6.171296	-0.149317	7.87662	0.102779	0.011855	-0.028639	-0.540283	-0.188232	-0.3125
640.0	6.200614	-0.316017	7.86978	0.099575	0.010458	-0.036768	-0.542725	-0.186035	-0.314697
641.0	6.151593	-0.332379	7.848852	0.107761	0.011219	-0.061973	-0.540039	-0.194824	-0.310303
642.0	6.20959	-0.394485	7.734623	0.133053	0.020579	-0.088783	-0.54248	-0.188232	-0.310303
643.0	6.170911	-0.320295	7.691866	0.158134	0.04897	-0.126593	-0.540283	-0.188232	-0.3125
644.0	6.151508	-0.172239	7.759431	0.17492	0.070295	-0.154988	-0.537842	-0.194824	-0.314697
645.0	6.110426	0.015492	7.823749	0.18126	0.084905	-0.173732	-0.542236	-0.194824	-0.3125
646.0	6.125298	0.14271	7.922844	0.181684	0.091649	-0.18721	-0.536133	-0.188232	-0.3125
647.0	6.034725	0.445983	7.94254	0.154838	0.085455	-0.190409	-0.533447	-0.199219	-0.308105
648.0	6.018613	0.588896	7.918476	0.131335	0.079036	-0.162792	-0.537842	-0.197021	-0.308105
649.0	5.965119	0.610245	7.88508	0.110355	0.063191	-0.142208	-0.535645	-0.197021	-0.310303
650.0	5.875973	0.399025	7.849989	0.098581	0.04515	-0.1246	-0.535645	-0.198975	-0.3125
651.0	5.792305	0.417975	7.857461	0.083326	0.021354	-0.102894	-0.537842	-0.199219	-0.308105
652.0	5.729371	0.477721	7.874955	0.063926	-0.012702	-0.076613	-0.540039	-0.194824	-0.3125
653.0	5.809818	0.561149	7.874696	0.046051	-0.03763	-0.045392	-0.533447	-0.197021	-0.305908
654.0	5.773315	0.497698	7.886159	0.035869	-0.060498	-0.027358	-0.533691	-0.192627	-0.310303
655.0	5.859679	0.354221	7.899129	0.034861	-0.080324	-0.01646	-0.535645	-0.194824	-0.310303
656.0	5.877254	0.441755	7.869117	0.03585	-0.095378	-0.015706	-0.53125	-0.198975	-0.314697
657.0	5.937348	0.343101	7.854968	0.026844	-0.103525	0.001331	-0.522217	-0.205322	-0.314697
658.0	5.900671	0.375529	7.908146	0.025661	-0.11533	0.005178	-0.535156	-0.211914	-0.308105
659.0	5.984508	0.158655	7.889834	0.034961	-0.123228	0.002084	-0.535156	-0.207764	-0.3125
660.0	6.044125	0.110955	7.896459	0.062723	-0.127847	-0.012415	-0.541748	-0.207764	-0.305908
661.0	5.992974	0.275361	8.009681	0.079153	-0.14331	-0.018403	-0.541748	-0.209961	-0.305908
662.0	6.055366	0.435876	7.960239	0.09409	-0.15624	-0.017707	-0.541748	-0.207764	-0.308105
663.0	6.067575	0.413831	7.965371	0.104196	-0.167651	-0.014372	-0.541748	-0.205566	-0.303711
664.0	5.964163	0.388648	8.072642	0.117725	-0.195437	-0.018633	-0.537598	-0.205566	-0.299561
665.0	5.886837	0.308481	8.1452	0.114419	-0.226608	-0.019344	-0.5354	-0.205566	-0.299561
666.0	5.830802	0.210903	8.257835	0.11982	-0.278831	-0.025654	-0.539551	-0.209961	-0.303711
667.0	5.964328	0.284102	8.248335	0.126319	-0.336701	-0.047611	-0.544189	-0.203613	-0.295166
668.0	5.795107	0.74318	8.414046	0.123959	-0.397968	-0.060705	-0.546143	-0.205811	-0.299561
669.0	5.756599	1.312537	8.684068	0.075722	-0.529194	-0.042452	-0.548096	-0.210205	-0.288574
670.0	5.504662	0.960145	8.745485	-0.052274	-0.755312	-0.007237	-0.543945	-0.205811	-0.28418
671.0	5.910505	0.557719	8.523959	-0.043377	-0.889977	-0.02679	-0.546143	-0.206055	-0.282227
672.0	5.905444	0.882509	8.50278	-0.06473	-1.053394	-0.036097	-0.550537	-0.206055	-0.273438
673.0	5.950503	0.710842	8.677061	-0.053851	-1.224025	-0.032729	-0.556885	-0.206299	-0.26709
674.0	5.947851	0.499136	8.797113	0.000954	-1.416267	-0.019636	-0.561035	-0.210693	-0.256104
675.0	5.91624	0.279211	8.691643	0.067229	-1.632988	-0.009923	-0.559082	-0.204346	-0.247559
676.0	5.996432	-0.071945	8.643803	0.148688	-1.86209	0.007071	-0.567871	-0.206543	-0.236572
677.0	5.746421	0.357824	8.881004	0.228759	-2.119557	0.031837	-0.567627	-0.206787	-0.219238
678.0	5.581775	0.266683	9.063562	0.293244	-2.433217	0.069614	-0.569824	-0.209229	-0.206299
679.0	5.189658	0.423149	9.486911	0.303964	-2.818736	0.086026	-0.576416	-0.209473	-0.193359
680.0	5.274285	0.169075	9.988462	0.296046	-3.268958	0.043425	-0.587158	-0.207764	-0.169434
681.0	5.061672	-0.459577	10.566823	0.216146	-3.750117	-0.095944	-0.584717	-0.212158	-0.145508
682.0	4.754561	-1.578129	11.270887	0.098606	-4.26096	-0.253037	-0.589111	-0.214844	-0.119629
683.0	4.333498	-3.008819	11.370806	0.048424	-4.783588	-0.572762	-0.588623	-0.22168	-0.095703
684.0	2.839957	-4.457943	10.116895	0.245844	-5.404077	-1.068129	-0.588623	-0.222168	-0.058838
685.0	2.710224	-4.743998	9.270295	0.731911	-6.34904	-1.697004	-0.57251	-0.239746	-0.017578
686.0	5.08685	-3.863514	8.292078	1.304339	-7.294012	-2.272646	-0.574463	-0.246826	0.025879
687.0	10.529326	-0.777453	9.74651	1.840659	-8.276924	-2.719031	-0.558105	-0.269043	0.077881
688.0	25.63803	-0.178922	11.57182	2.271131	-8.393815	-2.893634	-0.536133	-0.273926	0.12793
689.0	27.726858	2.317	5.634586	2.32566	-7.688652	-2.884693	-0.509277	-0.291504	0.171387
690.0	26.719441	-0.024969	11.595062	2.073484	-7.593176	-2.897054	-0.482666	-0.300781	0.221191
691.0	23.247242	-5.163186	11.808756	1.55897	-6.778107	-2.736739	-0.445557	-0.303223	0.256104
692.0	20.605159	-4.241949	14.517578	1.612681	-6.267335	-2.909668	-0.412109	-0.318604	0.290771
693.0	18.204838	-5.117722	17.948305	1.095077	-5.27672	-2.682463	-0.387939	-0.325439	0.3125
694.0	6.740871	-4.758271	16.037908	0.772484	-3.467933	-2.16747	-0.359375	-0.32959	0.323486
695.0	9.662744	-5.551254	15.849302	0.532576	-1.941737	-0.971646	-0.343994	-0.331787	0.332275
696.0	21.910972	-4.076695	21.854924	-0.540461	0.714304	0.053593	-0.339844	-0.32959	0.323486
697.0	-1.451046	-8.895557	12.237107	-0.650826	1.924668	0.478336	-0.339844	-0.32959	0.314941
698.0	-4.863313	-7.248267	9.217322	-0.150591	1.55235	0.29568	-0.339844	-0.331543	0.310547
699.0	-1.523925	-3.569761	8.906576	-0.096765	1.451293	0.085675	-0.335449	-0.32959	0.317139
700.0	2.808882	-1.090984	9.644383	-0.456651	1.760535	0.06515	-0.335449	-0.327148	0.306152
701.0	4.874175	-0.508166	9.956098	-0.982153	2.48159	0.212764	-0.339844	-0.331543	0.299805
702.0	5.122978	-1.003609	9.802904	-1.377752	3.271212	0.388877	-0.35083	-0.326904	0.286621
703.0	4.625502	-1.513934	9.096546	-1.514043	3.982549	0.484326	-0.36377	-0.331055	0.271484
704.0	4.151794	-1.420346	8.185262	-1.455389	4.566834	0.498229	-0.376953	-0.32666	0.258545
705.0	4.091919	-0.088469	7.649275	-1.406696	4.993702	0.436723	-0.387939	-0.328613	0.241211
706.0	4.017591	1.901338	7.355097	-1.550973	5.274354	0.383517	-0.405518	-0.326172	0.219482
707.0	3.877347	3.496078	7.114278	-1.92215	5.391741	0.377802	-0.423096	-0.32373	0.186768
708.0	3.983779	4.143743	6.620181	-2.400256	5.361231	0.4189	-0.442871	-0.319092	0.156494
709.0	4.160801	3.635406	6.171122	-2.807713	5.225815	0.513983	-0.456299	-0.312012	0.113037
710.0	4.708094	3.080965	5.994478	-3.016245	4.971592	0.645299	-0.467773	-0.296387	0.062988
711.0	6.325603	3.147782	6.319541	-3.086344	4.681919	0.824186	-0.462402	-0.27417	0.015381
712.0	8.211002	2.877564	6.70294	-3.071538	4.477411	1.035012	-0.437744	-0.236816	-0.032471
713.0	9.5924	2.258627	7.181533	-2.937992	4.353489	1.246416	-0.384766	-0.199951	-0.054199
714.0	10.373764	1.74447	7.542434	-2.69349	4.251478	1.490345	-0.321289	-0.154297	-0.054443
715.0	11.049005	1.642182	7.979034	-2.399541	4.118617	1.768162	-0.262939	-0.139648	-0.010986
716.0	12.129079	2.054363	8.697095	-2.184976	3.97577	2.069694	-0.224121	-0.129639	0.041016
717.0	13.540045	2.392598	9.562038	-2.11138	3.887499	2.390763	-0.214355	-0.149658	0.099609
718.0	14.78639	1.78989	10.278635	-2.085639	3.882721	2.709968	-0.224609	-0.16748	0.138672
719.0	15.941345	0.764332	10.669974	-1.996656	3.900803	3.009122	-0.251709	-0.195801	0.15625
720.0	17.337752	0.202277	10.477817	-1.801877	3.923815	3.317861	-0.279541	-0.206787	0.1604
721.0	18.337296	0.875782	9.740275	-1.491078	3.904875	3.646613	-0.30127	-0.210938	0.1604
722.0	19.217787	3.095308	8.958091	-1.19694	3.779719	3.875724	-0.32959	-0.211182	0.162598
723.0	20.622765	6.27733	7.776779	-1.025518	3.641716	3.921603	-0.358154	-0.202637	0.153809
724.0	21.274907	10.024728	6.218734	-0.982135	3.496698	3.716855	-0.391357	-0.1875	0.14502
725.0	21.826434	10.359903	3.428573	-0.913711	3.398548	3.080977	-0.42041	-0.170166	0.134033
726.0	22.175126	9.309427	0.37895	-0.603956	3.306027	2.171562	-0.457764	-0.161621	0.118896
727.0	22.111344	8.5368	-2.136225	-0.237075	3.140497	1.426911	-0.484619	-0.144287	0.101318
728.0	21.668663	7.906374	-4.676305	-0.027404	2.864602	1.051861	-0.513184	-0.139648	0.070801
729.0	20.531669	7.552288	-7.285111	0.008319	2.427071	0.868533	-0.5354	-0.126465	0.049072
730.0	18.959699	7.622536	-9.4446	-0.071172	1.880811	0.629197	-0.557617	-0.119873	0.033936
731.0	18.072128	8.855917	-10.342191	-0.296138	1.154999	0.270907	-0.562256	-0.109131	0.022949
732.0	17.876474	9.355811	-10.338393	-0.635092	0.502961	-0.151653	-0.577637	-0.104736	0.016357
733.0	18.100618	8.406442	-9.493821	-0.808814	-0.002027	-0.624414	-0.583984	-0.113281	0.012207
734.0	11.220676	0.048743	-4.283602	-0.663464	-0.251579	-1.039392	-0.588379	-0.111328	0.025146
735.0	20.145137	-2.66373	-15.482105	2.301709	-2.053664	-2.092078	-0.593994	-0.135254	0.040283
736.0	-9.597794	1.640964	6.797513	2.693231	-1.96685	-2.506646	-0.604248	-0.148682	0.066406
737.0	6.384919	-2.629756	17.985685	1.821804	-2.581512	-1.897073	-0.601563	-0.161865	0.088135
738.0	5.321856	-3.087262	2.952059	2.193637	-3.136057	-1.540797	-0.611816	-0.177246	0.122803
739.0	12.951417	11.237854	12.957745	1.929032	-4.121179	-0.781095	-0.609375	-0.182129	0.157715
740.0	24.389484	10.102536	16.486896	1.098725	-3.86606	-0.527095	-0.609375	-0.18042	0.187988
741.0	30.958379	8.843571	15.935655	0.873133	-2.564049	-1.128221	-0.617432	-0.191406	0.203125
742.0	8.200119	-5.598899	6.242423	0.915867	-0.766402	-0.484034	-0.613037	-0.195801	0.211914
743.0	6.822484	-0.474208	9.368626	1.231475	-1.351061	-0.517789	-0.61499	-0.197998	0.222656
744.0	13.048555	7.190022	13.300819	0.929881	-0.805787	-0.287126	-0.606201	-0.197998	0.227051
745.0	3.693205	1.304168	7.19465	0.316345	-0.237223	-0.140341	-0.608398	-0.200195	0.231445
746.0	8.614316	-0.633585	8.27507	0.323952	-0.210628	-0.043217	-0.61084	-0.194092	0.23999
747.0	7.313054	-1.011596	7.536416	0.370668	-0.105149	-0.096036	-0.608643	-0.196045	0.237793
748.0	6.890689	-0.729466	7.688864	0.407704	0.063103	-0.141778	-0.610596	-0.202637	0.23584
749.0	7.057471	0.595205	8.210974	0.415107	0.123342	-0.142379	-0.612793	-0.198242	0.23999
750.0	6.489868	-0.600267	7.976556	0.336992	0.161656	-0.121698	-0.61499	-0.196045	0.231445
751.0	6.356523	-0.445137	7.864809	0.36129	0.186345	-0.15315	-0.606201	-0.200439	0.238037
752.0	6.137183	0.194715	8.16435	0.344201	0.179602	-0.157748	-0.610596	-0.198242	0.23584
753.0	6.116099	0.302691	8.125648	0.29299	0.167032	-0.132186	-0.610596	-0.202637	0.238037
754.0	5.907208	0.310377	8.200953	0.249419	0.132721	-0.11812	-0.615234	-0.194092	0.242188
755.0	5.959078	0.057415	8.137638	0.216293	0.111047	-0.107548	-0.610596	-0.200439	0.237793
756.0	6.03216	0.28178	8.091583	0.18376	0.083273	-0.095069	-0.61084	-0.193848	0.237793
757.0	6.000899	0.24139	7.963372	0.151115	0.04533	-0.070343	-0.61499	-0.200439	0.23999
758.0	6.080182	0.109267	7.978879	0.134403	0.020236	-0.055187	-0.612793	-0.198242	0.242188
759.0	5.958534	0.263757	7.948841	0.13228	0.009529	-0.056929	-0.612793	-0.200439	0.23999
760.0	5.928116	0.491007	8.002157	0.098355	-0.013408	-0.044392	-0.608398	-0.198242	0.244385
761.0	5.935644	0.108426	7.932317	0.081819	-0.025474	-0.038333	-0.606201	-0.202637	0.238037
762.0	5.920024	0.07345	7.917627	0.079471	-0.027603	-0.037072	-0.612793	-0.200439	0.242188
763.0	5.884701	0.106651	7.884757	0.084184	-0.031502	-0.038571	-0.610352	-0.202637	0.23999
764.0	5.900867	0.151099	7.836574	0.087853	-0.033779	-0.035582	-0.61499	-0.200439	0.23999
765.0	5.956062	0.259531	7.88742	0.08686	-0.040309	-0.029999	-0.608398	-0.200684	0.250977
766.0	5.878348	0.271779	7.889878	0.083295	-0.037986	-0.027182	-0.610596	-0.200439	0.246582
767.0	5.877676	0.297313	7.92515	0.078016	-0.052025	-0.020108	-0.608398	-0.200439	0.238037
768.0	5.873174	0.282529	7.915296	0.074852	-0.05823	-0.014338	-0.610596	-0.196289	0.248779
769.0	5.962743	0.00471	7.835269	0.076834	-0.055727	-0.017491	-0.610596	-0.196289	0.255127
770.0	5.959726	0.110886	7.879107	0.085687	-0.049793	-0.033379	-0.615234	-0.192139	0.25293
771.0	5.948106	0.227791	7.902023	0.092534	-0.048747	-0.039152	-0.599854	-0.196289	0.250977
772.0	5.961379	0.290842	7.890358	0.09642	-0.054341	-0.043181	-0.604248	-0.194092	0.246582
773.0	5.970796	0.371945	7.916426	0.091562	-0.055777	-0.04355	-0.599609	-0.202637	0.242188
774.0	6.011791	0.268319	7.876236	0.081687	-0.055833	-0.047176	-0.597168	-0.208984	0.242432
775.0	5.97757	0.27065	7.856432	0.084649	-0.052088	-0.051919	-0.603516	-0.215576	0.246582
776.0	5.973839	0.347729	7.914365	0.086291	-0.051585	-0.049901	-0.605957	-0.209229	0.253174
777.0	5.904099	0.22761	7.996469	0.08934	-0.056523	-0.063454	-0.60791	-0.213379	0.248779
778.0	5.960353	0.277189	8.073997	0.095931	-0.066157	-0.072879	-0.610107	-0.211182	0.242188
779.0	5.949885	0.335233	8.124135	0.102788	-0.08675	-0.078215	-0.608154	-0.202637	0.248779
780.0	5.842944	0.322424	8.181088	0.109211	-0.114666	-0.080167	-0.608154	-0.207031	0.255371
781.0	5.816049	0.294408	8.283074	0.126408	-0.16822	-0.081479	-0.612549	-0.205078	0.255371
782.0	5.809038	0.547296	8.32702	0.123281	-0.228814	-0.082457	-0.612549	-0.205078	0.261719
783.0	5.825793	0.870125	8.475488	0.090199	-0.298799	-0.073664	-0.612549	-0.207031	0.257568
784.0	5.575113	1.107499	8.725857	0.049108	-0.406314	-0.063659	-0.610352	-0.205078	0.261719
785.0	5.48181	0.93954	8.737186	-0.003615	-0.597097	-0.040776	-0.612549	-0.202881	0.255371
786.0	5.75671	0.664124	8.601536	-0.019594	-0.738461	-0.044898	-0.608154	-0.205078	0.266113
787.0	5.838482	0.636578	8.537258	-0.043411	-0.89363	-0.042738	-0.605957	-0.202881	0.270508
788.0	5.888024	0.530542	8.622548	-0.055649	-1.050073	-0.047058	-0.608398	-0.200928	0.270508
789.0	6.01007	0.181362	8.506019	-0.011543	-1.201959	-0.055129	-0.604004	-0.196533	0.274658
790.0	6.132441	0.311272	8.447704	0.061202	-1.347526	-0.051449	-0.604004	-0.196777	0.28125
791.0	6.081408	0.361994	8.256805	0.119113	-1.489378	-0.039991	-0.601807	-0.201172	0.290039
792.0	6.178184	0.426122	8.228873	0.163647	-1.641615	-0.006426	-0.599854	-0.194824	0.298584
793.0	6.094102	0.36006	8.175829	0.202073	-1.804878	0.016682	-0.597656	-0.192627	0.307373
794.0	5.983188	0.4728	8.251226	0.222573	-1.999701	0.045839	-0.602051	-0.192871	0.315918
795.0	5.82756	0.601896	8.520073	0.231218	-2.23666	0.057755	-0.593506	-0.186523	0.328857
796.0	5.740157	0.569213	8.720513	0.213793	-2.521947	0.042476	-0.591553	-0.182373	0.337646
797.0	5.635152	0.408517	9.33009	0.1791	-2.852342	-0.017305	-0.584717	-0.18457	0.352783
798.0	5.372985	0.036432	9.544687	0.138024	-3.226564	-0.101369	-0.578613	-0.174072	0.361328
799.0	5.070821	-0.230182	10.251407	0.008491	-3.65735	-0.235771	-0.574463	-0.172119	0.378662
800.0	5.09804	-1.304086	10.558668	-0.133994	-4.142848	-0.424179	-0.569824	-0.178711	0.394043
801.0	4.127286	-3.19917	9.907096	0.028258	-4.673155	-0.734049	-0.561035	-0.174561	0.415527
802.0	3.992755	-4.611213	9.031658	0.370213	-5.389168	-1.192698	-0.548096	-0.172852	0.439453
803.0	5.339066	-5.45384	8.457969	0.925149	-6.196307	-1.840539	-0.526367	-0.173096	0.461182
804.0	6.993739	-2.979458	8.641498	1.573238	-6.844179	-2.40506	-0.508545	-0.179932	0.491455
805.0	14.873495	-0.119067	9.85155	1.85645	-7.585819	-2.742553	-0.482422	-0.177979	0.513184
806.0	27.235057	0.327644	10.772604	2.276601	-7.37379	-2.853668	-0.456543	-0.171387	0.52417
807.0	20.977074	1.812896	5.632946	2.061303	-6.920849	-2.840877	-0.432373	-0.173828	0.541504
808.0	26.409762	-1.383536	12.182355	1.65241	-6.783222	-2.715417	-0.411133	-0.162842	0.534912
809.0	20.730066	-4.280617	11.0505	1.11134	-6.185436	-2.614517	-0.383057	-0.158447	0.530762
810.0	19.77338	-3.403536	15.138956	0.859844	-5.763275	-2.635683	-0.365479	-0.160156	0.513428
811.0	16.789489	-4.120865	17.006577	0.449039	-4.87662	-2.452517	-0.344238	-0.14917	0.493896
812.0	4.347097	-6.516333	14.913722	0.2127	-2.836287	-1.878842	-0.331543	-0.137939	0.469971
813.0	15.517244	-5.876166	17.683572	-0.00508	-1.356618	-0.683115	-0.310303	-0.126709	0.4375
814.0	14.638543	-6.225253	18.334166	-0.665936	0.96434	0.132907	-0.304443	-0.115479	0.405029
815.0	-1.81295	-8.638285	10.725391	-0.544945	1.496904	0.495097	-0.272217	-0.106445	0.381104
816.0	-2.143107	-6.587197	8.742763	-0.189033	1.320127	0.415332	-0.244141	-0.095459	0.372314
817.0	0.15419	-3.133211	8.538866	-0.206355	1.424946	0.366511	-0.21167	-0.097412	0.36377
818.0	2.510184	-0.93138	8.732807	-0.528276	1.730878	0.396044	-0.174561	-0.097412	0.372559
819.0	3.422182	-0.021991	8.992913	-0.951934	2.186456	0.50199	-0.149902	-0.112549	0.387939
820.0	4.213134	-0.154171	8.939237	-1.279785	2.726872	0.632259	-0.138184	-0.134277	0.418213
821.0	4.455022	-0.53499	8.567077	-1.407497	3.295717	0.687223	-0.138672	-0.173584	0.446777
822.0	4.546244	-0.178611	8.005646	-1.402634	3.814143	0.655327	-0.167725	-0.210449	0.4729
823.0	4.303731	0.95405	7.50594	-1.410406	4.236362	0.58652	-0.196533	-0.256104	0.488281
824.0	3.986532	2.37535	7.094282	-1.555818	4.491063	0.524759	-0.253418	-0.303711	0.492676
825.0	3.939268	3.317534	6.847131	-1.847005	4.598457	0.518117	-0.305908	-0.35083	0.477539
826.0	4.383336	3.454649	6.527032	-2.168915	4.604875	0.555192	-0.36084	-0.397949	0.438721
827.0	4.780489	2.900715	6.151274	-2.40953	4.555947	0.631345	-0.407227	-0.436279	0.4021
828.0	5.457613	2.294716	6.117879	-2.4831	4.444517	0.717894	-0.460693	-0.463867	0.350098
829.0	6.50346	2.662836	6.379996	-2.472994	4.311841	0.838228	-0.49707	-0.489014	0.291504
830.0	7.690978	2.956452	6.557161	-2.486079	4.196523	0.986283	-0.537354	-0.51416	0.233154
831.0	8.595966	2.578841	6.602928	-2.464921	4.098545	1.149839	-0.563232	-0.52417	0.168213
832.0	8.940201	1.906208	6.72065	-2.343178	4.008809	1.322886	-0.591553	-0.531982	0.107422
833.0	9.526653	1.535832	7.141731	-2.148747	3.907231	1.530346	-0.61377	-0.524658	0.035889
834.0	10.359468	1.847175	7.75708	-2.010664	3.805405	1.740831	-0.633545	-0.519531	-0.031494
835.0	11.221129	2.350998	8.411392	-2.000787	3.731427	1.980974	-0.645508	-0.497314	-0.081543
836.0	12.137901	2.463165	9.158509	-2.059516	3.681394	2.206125	-0.653076	-0.474854	-0.157471
837.0	13.072693	1.887375	9.798088	-2.100086	3.685348	2.397478	-0.645508	-0.448486	-0.19873
838.0	13.885788	1.204251	10.245181	-2.040394	3.710166	2.547056	-0.635986	-0.41333	-0.253174
839.0	14.845571	1.007003	10.37504	-1.925547	3.730135	2.698786	-0.620361	-0.371826	-0.287842
840.0	15.435695	1.103667	10.013666	-1.76414	3.692925	2.888817	-0.606445	-0.336914	-0.320557
841.0	15.743907	1.853693	9.44111	-1.576299	3.552566	3.133056	-0.588135	-0.306396	-0.340332
842.0	16.49859	2.887728	8.876824	-1.337485	3.317485	3.305755	-0.580811	-0.271729	-0.353271
843.0	17.307767	5.221057	7.655583	-0.984737	3.074714	3.340091	-0.575439	-0.239258	-0.364258
844.0	18.974766	7.471367	6.303085	-0.648456	2.889718	3.128257	-0.563477	-0.211182	-0.368896
845.0	20.544472	7.681039	3.803789	-0.276406	2.844515	2.552755	-0.55542	-0.196045	-0.375488
846.0	21.470339	7.58232	0.746419	0.199606	2.865948	1.842594	-0.549316	-0.183105	-0.379883
847.0	21.203568	6.962057	-2.28965	0.611701	2.824035	1.28381	-0.538818	-0.176514	-0.379883
848.0	20.551113	6.317531	-5.316913	0.868262	2.583236	0.940125	-0.530518	-0.167725	-0.392822
849.0	19.680139	6.360195	-8.14646	0.927397	2.144043	0.718575	-0.528564	-0.161377	-0.388428
850.0	18.675482	7.573252	-9.781769	0.704091	1.511158	0.498701	-0.513428	-0.156982	-0.401611
851.0	18.103629	8.808678	-10.125011	0.131658	0.756675	0.244369	-0.524414	-0.155029	-0.390625
852.0	18.226709	8.431287	-9.647064	-0.50393	0.084449	-0.041171	-0.520508	-0.14624	-0.392822
853.0	16.00404	4.981679	-7.241823	-0.82425	-0.338622	-0.377868	-0.516113	-0.14209	-0.386475
854.0	18.305096	-4.223152	-13.106674	0.771024	-2.081804	-1.092589	-0.526367	-0.157227	-0.375488
855.0	6.1181	-1.760709	-9.959722	2.217165	-1.517293	-1.643282	-0.528076	-0.172607	-0.360352
856.0	2.699113	5.789059	18.142165	2.29553	-3.0039	-1.344366	-0.53418	-0.179199	-0.345215
857.0	4.449704	-4.814586	11.655382	1.305273	-2.748001	-0.691323	-0.546875	-0.186279	-0.3125
858.0	7.225659	3.19485	5.738831	2.240655	-3.540481	-1.140375	-0.553223	-0.195068	-0.292969
859.0	18.676094	12.32388	15.531853	1.529198	-4.163665	-0.661253	-0.559326	-0.204102	-0.262695
860.0	37.132243	10.267935	17.560897	0.993632	-3.346135	-1.163646	-0.56543	-0.210693	-0.249512
861.0	10.370298	-0.904794	7.699553	0.701975	-0.474314	-0.597527	-0.567627	-0.213135	-0.236572
862.0	6.671577	-1.72575	8.860425	1.1339	-1.435073	-0.536638	-0.56958	-0.215332	-0.234375
863.0	11.392204	5.412914	12.383372	0.879899	-1.014698	-0.316896	-0.567383	-0.215576	-0.219238
864.0	6.460748	4.187885	8.683806	0.22442	-0.223731	-0.026546	-0.569336	-0.224121	-0.22583
865.0	7.707912	0.077006	8.637298	0.181974	-0.520665	0.098641	-0.571533	-0.221924	-0.223633
866.0	6.922346	0.015263	7.498029	0.033726	-0.341828	0.144587	-0.573486	-0.224121	-0.214844
867.0	6.923349	-1.410403	7.638359	0.055218	-0.246625	0.121172	-0.571533	-0.221924	-0.214844
868.0	7.076784	0.05009	8.060306	0.028314	-0.192851	0.120345	-0.575928	-0.219971	-0.217041
869.0	6.58907	-0.331971	7.973668	-0.101024	-0.170936	0.144706	-0.57373	-0.219971	-0.212646
870.0	6.678461	-0.842121	7.750564	-0.125547	-0.16457	0.133642	-0.578369	-0.215576	-0.217041
871.0	6.499017	-0.320963	7.878859	-0.152412	-0.152145	0.123001	-0.573975	-0.213379	-0.214844
872.0	6.586757	-0.540369	7.934783	-0.183268	-0.16417	0.122628	-0.576172	-0.215576	-0.212891
873.0	6.237512	-0.356525	7.956006	-0.196515	-0.165254	0.116291	-0.576172	-0.211426	-0.210693
874.0	6.464012	-0.652089	7.72919	-0.213568	-0.188772	0.10519	-0.578369	-0.211182	-0.219238
875.0	6.486322	-0.766368	7.57029	-0.191453	-0.181889	0.087522	-0.576172	-0.21582	-0.206299
876.0	6.460185	-0.789524	7.541822	-0.170463	-0.173774	0.054707	-0.578613	-0.207031	-0.208496
877.0	6.453206	-0.655345	7.532429	-0.154834	-0.168913	0.030581	-0.573975	-0.21582	-0.206299
878.0	6.406149	-0.858517	7.49877	-0.128438	-0.165161	0.013699	-0.582764	-0.209229	-0.212891
879.0	6.422176	-0.784605	7.412179	-0.088822	-0.144097	-0.008329	-0.576172	-0.211426	-0.201904
880.0	6.487885	-0.774973	7.295257	-0.056802	-0.123312	-0.028307	-0.582764	-0.211426	-0.206299
881.0	6.510066	-0.768471	7.406391	-0.022673	-0.097147	-0.048125	-0.580566	-0.213623	-0.208496
882.0	6.448088	-0.753838	7.37808	0.010333	-0.072	-0.062418	-0.583008	-0.207031	-0.208496
883.0	6.409073	-0.564229	7.469125	0.033792	-0.055453	-0.072082	-0.580811	-0.207031	-0.206299
884.0	6.394263	-0.486905	7.454007	0.045141	-0.052152	-0.074984	-0.584717	-0.21582	-0.19751
885.0	6.359221	-0.594515	7.432568	0.065105	-0.047242	-0.081387	-0.580566	-0.211426	-0.204102
886.0	6.36468	-0.597962	7.390894	0.090641	-0.033773	-0.094371	-0.580566	-0.213623	-0.19751
887.0	6.381353	-0.671554	7.303225	0.130147	-0.015005	-0.105624	-0.582764	-0.213623	-0.199707
888.0	6.395191	-0.48737	7.452422	0.164401	-0.005227	-0.108598	-0.584961	-0.209229	-0.206299
889.0	6.453237	-0.484938	7.507633	0.177667	-0.001671	-0.103729	-0.582764	-0.213623	-0.199707
890.0	6.350331	-0.328044	7.572002	0.196777	-0.000553	-0.092135	-0.582764	-0.209229	-0.201904
891.0	6.402804	-0.487086	7.5389	0.209896	0.008729	-0.087024	-0.578369	-0.213623	-0.204102
892.0	6.39228	-0.518108	7.545878	0.233511	0.019454	-0.091534	-0.573975	-0.21582	-0.206299
893.0	6.389466	-0.44604	7.57536	0.253379	0.024086	-0.102346	-0.565186	-0.217773	-0.201904
894.0	6.406757	-0.376832	7.592821	0.266261	0.030128	-0.114425	-0.566895	-0.228516	-0.208252
895.0	6.403631	-0.269069	7.609483	0.275993	0.024402	-0.117278	-0.575684	-0.22876	-0.201904
896.0	6.388396	-0.229904	7.683099	0.285934	0.026224	-0.129033	-0.573242	-0.235107	-0.19751
897.0	6.346207	-0.15727	7.696221	0.287867	0.011775	-0.138992	-0.577881	-0.226563	-0.19751
898.0	6.379695	-0.236973	7.652584	0.291416	0.000321	-0.15375	-0.582031	-0.22876	-0.195313
899.0	6.417159	-0.182706	7.70714	0.285528	-0.006211	-0.168246	-0.577881	-0.226807	-0.191162
900.0	6.309063	0.050193	7.831414	0.265397	-0.025002	-0.1672	-0.575684	-0.22876	-0.19751
901.0	6.25767	0.068703	7.936683	0.222485	-0.069614	-0.167163	-0.575439	-0.230957	-0.190918
902.0	5.920145	0.011357	8.312295	0.200826	-0.143312	-0.159257	-0.575439	-0.233154	-0.193115
903.0	6.049812	0.098499	8.219347	0.228002	-0.281682	-0.14263	-0.57959	-0.237549	-0.190918
904.0	6.133595	0.20596	8.214038	0.197782	-0.368412	-0.137509	-0.572998	-0.239746	-0.18457
905.0	6.082112	0.455678	8.194532	0.153894	-0.479892	-0.12951	-0.575684	-0.226807	-0.182373
906.0	6.180631	0.603573	8.200293	0.10454	-0.597064	-0.111887	-0.57959	-0.233154	-0.182373
907.0	6.182408	0.573515	8.28194	0.048666	-0.729035	-0.078403	-0.579346	-0.239746	-0.173584
908.0	6.238157	0.279915	8.145037	0.007211	-0.866082	-0.056345	-0.581787	-0.235596	-0.171387
909.0	6.246122	0.183053	8.249989	0.010667	-1.015446	-0.046938	-0.581787	-0.233398	-0.165039
910.0	6.269637	0.085034	8.254354	0.030015	-1.179434	-0.032231	-0.585938	-0.242188	-0.15625
911.0	6.23146	-0.136188	8.225685	0.079159	-1.348401	-0.021905	-0.585938	-0.240234	-0.145508
912.0	6.30796	-0.084272	8.149266	0.151196	-1.517499	-0.006336	-0.594482	-0.240479	-0.136719
913.0	6.209679	0.058592	8.152813	0.220076	-1.700665	0.012336	-0.588135	-0.236328	-0.119385
914.0	6.158779	0.186205	8.27779	0.261296	-1.927637	0.059053	-0.592529	-0.238525	-0.11084
915.0	5.946914	0.236171	8.500786	0.259684	-2.196519	0.083961	-0.594971	-0.228027	-0.091309
916.0	5.800503	0.619914	8.878093	0.216978	-2.507331	0.0999	-0.601318	-0.232666	-0.082764
917.0	5.570492	0.507371	9.403648	0.105466	-2.867641	0.112068	-0.601318	-0.22876	-0.054443
918.0	5.343671	0.121055	9.899523	-0.057168	-3.298217	0.055808	-0.607422	-0.239746	-0.032715
919.0	4.81664	-0.886319	10.114727	-0.1337	-3.835978	-0.096426	-0.603271	-0.231445	-0.004639
920.0	4.21224	-2.218907	9.98396	-0.154995	-4.44754	-0.298689	-0.607422	-0.238281	0.014893
921.0	3.966439	-4.369126	9.413168	0.092984	-5.180203	-0.576042	-0.598633	-0.23877	0.05835
922.0	4.29078	-4.533683	9.257537	0.419758	-5.985788	-1.062471	-0.591797	-0.241455	0.095215
923.0	6.097526	-3.155689	8.589585	0.762632	-6.859944	-1.485082	-0.575928	-0.254883	0.140625
924.0	8.231883	-1.685523	9.024699	1.017635	-7.578635	-1.896995	-0.560303	-0.26416	0.190674
925.0	18.923619	-1.594527	9.492166	1.272115	-8.001904	-2.024516	-0.533936	-0.264648	0.240479
926.0	28.629823	0.646191	8.282797	1.213528	-7.67879	-1.958893	-0.509766	-0.269531	0.286133
927.0	22.971276	-2.415517	8.300278	1.314143	-7.362023	-2.503357	-0.47876	-0.285156	0.333984
928.0	23.270752	-2.83183	10.6857	1.117632	-6.618028	-2.539346	-0.447998	-0.289795	0.37085
929.0	20.759485	-4.023616	11.75149	0.616325	-6.462693	-2.511191	-0.415039	-0.296631	0.401367
930.0	23.058498	-3.024315	15.924438	-0.065755	-5.650089	-2.34399	-0.38208	-0.303223	0.423096
931.0	13.513443	-5.047031	15.583589	-0.406437	-4.35627	-2.18811	-0.353271	-0.313965	0.44043
932.0	1.513254	-13.317865	14.440312	-0.266606	-2.250396	-1.318574	-0.348877	-0.313965	0.444824
933.0	17.816058	-9.313006	18.739338	0.380745	-1.147896	-0.456266	-0.342529	-0.305664	0.455566
934.0	6.363573	-8.115528	16.16442	0.243086	0.938882	0.071513	-0.349121	-0.305664	0.459961
935.0	-3.042909	-6.678777	11.474748	0.416052	0.949015	0.178796	-0.349121	-0.303467	0.459961
936.0	-0.886767	-3.554451	10.847704	0.312634	0.973247	0.105746	-0.355957	-0.297119	0.464355
937.0	2.024268	-1.246221	11.01679	-0.130696	1.25382	0.102961	-0.358398	-0.292725	0.455566
938.0	4.39942	-0.697753	10.925188	-0.670604	1.82152	0.194818	-0.371338	-0.292725	0.457764
939.0	4.891327	-1.162524	10.336723	-1.074481	2.541417	0.320851	-0.384521	-0.292725	0.446777
940.0	5.252545	-1.867538	9.608403	-1.198104	3.261721	0.388307	-0.401611	-0.303467	0.442627
941.0	5.112507	-2.017466	8.952874	-1.10239	3.935354	0.360408	-0.425781	-0.299072	0.420898
942.0	5.288413	-1.30811	8.479243	-0.939136	4.518517	0.267467	-0.447266	-0.301025	0.412109
943.0	5.382957	0.302624	8.061047	-0.908415	4.991719	0.178315	-0.47583	-0.301025	0.392578
944.0	5.323876	1.624889	7.5913	-1.06833	5.364242	0.130292	-0.503906	-0.307129	0.368652
945.0	4.845216	2.214464	6.916281	-1.368516	5.561944	0.095583	-0.529785	-0.313232	0.333984
946.0	4.912272	2.183572	6.348932	-1.695754	5.581713	0.115084	-0.551758	-0.312988	0.303711
947.0	5.288574	1.664322	6.052991	-1.961941	5.483886	0.191814	-0.573486	-0.314697	0.275391
948.0	5.799198	1.214567	5.946771	-2.134779	5.288607	0.356544	-0.605957	-0.320801	0.240723
949.0	6.769176	1.079409	6.094406	-2.218887	5.031745	0.57899	-0.625977	-0.309814	0.210205
950.0	8.252112	0.941697	6.448317	-2.257078	4.781832	0.822876	-0.643555	-0.309326	0.175537
951.0	9.70283	0.442957	6.784282	-2.224746	4.611365	1.100534	-0.667725	-0.300537	0.14502
952.0	10.502207	-0.444428	6.900875	-2.083866	4.490165	1.383854	-0.685303	-0.300049	0.108154
953.0	11.05346	-1.179839	7.223215	-1.853438	4.367815	1.670214	-0.709717	-0.293213	0.075684
954.0	11.740944	-1.145189	7.895239	-1.655872	4.230006	1.989035	-0.732178	-0.277832	0.038574
955.0	12.667569	-1.029607	8.806244	-1.546722	4.12198	2.353978	-0.754639	-0.26001	-0.002686
956.0	13.580468	-0.611619	9.990962	-1.513776	4.039281	2.72462	-0.775146	-0.238037	-0.050537
957.0	14.881272	-0.401159	10.958742	-1.570937	4.004836	3.040532	-0.782959	-0.205078	-0.098389
958.0	16.214432	-0.7924	11.410099	-1.614739	3.987993	3.2658	-0.795166	-0.174316	-0.144043
959.0	17.863371	-1.012937	11.050322	-1.573643	3.97031	3.462426	-0.796631	-0.13916	-0.196289
960.0	19.275512	-0.370922	10.391284	-1.374125	3.906296	3.692089	-0.791504	-0.106201	-0.250488
961.0	19.895583	1.387472	9.000677	-1.151355	3.742227	3.880574	-0.782471	-0.062744	-0.278809
962.0	20.858308	5.286331	7.390835	-0.944908	3.417734	3.918801	-0.770996	-0.025391	-0.331055
963.0	23.120412	7.243771	5.831994	-0.929259	3.182453	3.629157	-0.752441	0.00293	-0.359375
964.0	25.832954	7.961869	-0.180002	-0.213964	2.616643	2.660607	-0.744629	0.024902	-0.389893
965.0	24.998015	7.506622	-2.735155	-0.145148	2.92213	1.988234	-0.719238	0.040527	-0.413818
966.0	24.383978	9.180374	-4.653574	-0.010369	3.208964	1.42091	-0.702148	0.045166	-0.444092
967.0	22.007642	7.4785	-9.041168	0.149244	2.806414	0.971108	-0.687012	0.047607	-0.459229
968.0	19.378326	8.357232	-12.633315	0.257978	2.053264	0.465921	-0.674072	0.052246	-0.474365
969.0	18.94202	9.90808	-14.392293	0.187673	1.101073	-0.185383	-0.669678	0.050049	-0.483154
970.0	19.70436	9.78615	-16.374118	0.180509	0.00117	-0.918251	-0.668945	0.032959	-0.487305
971.0	19.49107	7.557202	-20.430195	0.695094	-0.981651	-1.694985	-0.675049	0.019775	-0.472168
972.0	18.650064	6.715887	-23.346674	1.987653	-2.025031	-2.494103	-0.682617	-0.006104	-0.461182
973.0	-3.855521	5.865801	14.959865	2.234277	-3.449695	-2.641248	-0.703369	-0.034668	-0.428467
974.0	28.504534	-5.201818	20.631079	0.978334	-3.651929	-1.641375	-0.711182	-0.054199	-0.411133
975.0	9.439359	2.900358	6.545972	2.278591	-2.594947	-1.782942	-0.728027	-0.071777	-0.395752
976.0	20.973354	6.676433	15.121819	1.013066	-3.724673	-0.797575	-0.740479	-0.083008	-0.365479
977.0	29.878528	3.264205	14.494488	0.934878	-1.973494	-1.065793	-0.741943	-0.098389	-0.345947
978.0	3.023077	-1.057256	6.292973	1.155067	-1.234786	-0.700644	-0.741943	-0.098389	-0.345947
979.0	9.13747	0.660711	9.3203	1.115086	-1.514429	-0.644469	-0.752441	-0.109375	-0.326416
980.0	8.00944	5.913183	10.874583	0.962864	-1.102602	-0.525037	-0.752197	-0.11792	-0.322021
981.0	12.338294	1.969056	10.111756	0.381389	-0.67789	-0.185762	-0.756592	-0.115967	-0.31543
982.0	5.345594	-1.49793	7.442976	0.32099	-0.337653	-0.093251	-0.751953	-0.122314	-0.31543
983.0	8.059444	1.271003	8.540184	0.244408	-0.305137	-0.002777	-0.751953	-0.120361	-0.313232
984.0	6.370346	-0.011286	7.965749	0.136672	-0.212385	0.046305	-0.756104	-0.124512	-0.311035
985.0	6.920495	-1.259805	7.667989	0.12979	-0.16182	0.039819	-0.760742	-0.120361	-0.308838
986.0	6.324334	-0.881267	7.843524	0.147726	-0.105177	-0.013555	-0.756104	-0.126953	-0.306641
987.0	6.726988	-1.251992	7.645865	0.173753	-0.029396	-0.040117	-0.756348	-0.122559	-0.304688
988.0	6.449711	-0.180263	7.861645	0.153111	-0.011617	-0.04312	-0.756104	-0.126953	-0.306641
989.0	6.416924	-0.068095	8.016957	0.13135	-0.008367	-0.020173	-0.756104	-0.124756	-0.304688
990.0	6.40589	-0.018247	7.923988	0.125689	-0.016865	-0.013568	-0.756104	-0.128906	-0.308838
991.0	6.288798	-0.553893	7.795129	0.143475	-0.009064	-0.026586	-0.758301	-0.124756	-0.30249
992.0	6.441983	-0.74925	7.650146	0.190596	0.014883	-0.063355	-0.764648	-0.126953	-0.300293
993.0	6.411221	-0.924262	7.531855	0.230237	0.051972	-0.097206	-0.751465	-0.131104	-0.30249
994.0	6.346741	-0.89731	7.534094	0.290109	0.107035	-0.140511	-0.760254	-0.131104	-0.304443
995.0	6.330505	-0.576736	7.610768	0.328823	0.156145	-0.166444	-0.757813	-0.135498	-0.306641
996.0	6.228854	-0.280202	7.706697	0.341172	0.179451	-0.168433	-0.751465	-0.133301	-0.308838
997.0	6.177642	-0.084726	7.786587	0.322433	0.175338	-0.156538	-0.755859	-0.133301	-0.311035
998.0	6.118345	-0.190349	7.774157	0.299557	0.163361	-0.147355	-0.755615	-0.141846	-0.313232
999.0	6.130715	-0.046044	7.831106	0.285718	0.141556	-0.141773	-0.755371	-0.144043	-0.306641
1000.0	6.130386	-0.128541	7.750221	0.269378	0.134003	-0.142679	-0.750977	-0.148193	-0.313232
1001.0	6.091731	-0.028913	7.833447	0.262347	0.129711	-0.150373	-0.753174	-0.144043	-0.308838
1002.0	6.097923	0.131952	7.755276	0.239691	0.122728	-0.154789	-0.757324	-0.152588	-0.308838
1003.0	6.003475	0.179539	7.80571	0.218998	0.116128	-0.14531	-0.753174	-0.148438	-0.304443
1004.0	5.979561	0.334052	7.938201	0.190885	0.085069	-0.120715	-0.755127	-0.150391	-0.315186
1005.0	6.013045	0.106976	7.807309	0.161636	0.06093	-0.101374	-0.755127	-0.150635	-0.304443
1006.0	5.954315	0.193751	7.835862	0.152886	0.04624	-0.088841	-0.753174	-0.148193	-0.313232
1007.0	6.031655	0.262192	7.917227	0.14159	0.035119	-0.074964	-0.748779	-0.14624	-0.304443
1008.0	6.0801	0.201137	7.834016	0.126519	0.020994	-0.065944	-0.746582	-0.150391	-0.312988
1009.0	5.990074	0.315302	7.888422	0.12126	0.015043	-0.054247	-0.742188	-0.150391	-0.308838
1010.0	6.056801	0.231807	7.845615	0.105526	-0.006455	-0.053601	-0.739746	-0.156738	-0.310791
1011.0	5.993083	0.226941	7.890949	0.104711	-0.015876	-0.045138	-0.74585	-0.165283	-0.317383
1012.0	6.016786	0.319535	7.94783	0.092621	-0.039253	-0.031445	-0.748291	-0.161133	-0.31958
1013.0	6.053051	0.201354	7.958469	0.079557	-0.06145	-0.023185	-0.750244	-0.16333	-0.310791
1014.0	6.044985	0.116731	7.916412	0.079863	-0.075314	-0.022156	-0.756836	-0.16333	-0.310791
1015.0	6.050744	0.093262	7.925646	0.085497	-0.083241	-0.027053	-0.750244	-0.16333	-0.306641
1016.0	6.065612	0.092306	7.941312	0.086715	-0.085251	-0.035681	-0.752441	-0.16333	-0.306641
1017.0	6.032974	0.000336	7.961769	0.091296	-0.089152	-0.043097	-0.750488	-0.161133	-0.306641
1018.0	6.015583	0.096383	7.976876	0.09995	-0.096158	-0.055636	-0.754883	-0.156982	-0.306641
1019.0	5.977205	0.136079	8.030336	0.10474	-0.116823	-0.070858	-0.752686	-0.15918	-0.302246
1020.0	5.842697	0.098875	8.199822	0.108795	-0.163227	-0.081275	-0.756836	-0.161377	-0.306641
1021.0	5.832449	0.104296	8.252098	0.115567	-0.216039	-0.090147	-0.750244	-0.163574	-0.302246
1022.0	5.75289	0.304727	8.390731	0.131498	-0.297393	-0.093647	-0.754639	-0.163574	-0.293457
1023.0	5.697101	0.930778	8.626218	0.101633	-0.392987	-0.073293	-0.756836	-0.161377	-0.293457
1024.0	5.218408	1.629954	9.271365	0.028017	-0.608117	-0.032516	-0.763184	-0.167969	-0.284912
1025.0	5.92953	0.869928	8.614181	-0.079814	-0.833473	0.010773	-0.765137	-0.170166	-0.280518
1026.0	5.736324	0.894795	8.72389	-0.137868	-0.997952	0.022782	-0.763184	-0.168213	-0.267578
1027.0	5.834905	0.767412	8.666965	-0.18396	-1.177488	0.034938	-0.765381	-0.164063	-0.260986
1028.0	5.847681	0.537147	8.714505	-0.188031	-1.371165	0.039369	-0.771973	-0.164063	-0.256836
1029.0	5.946596	-0.097937	8.64303	-0.126291	-1.566085	0.036431	-0.772217	-0.157959	-0.239502
1030.0	5.88185	-0.174615	8.614286	-0.015854	-1.765995	0.028485	-0.780518	-0.166748	-0.230713
1031.0	5.891663	-0.12938	8.573727	0.056959	-1.984032	0.03131	-0.780762	-0.160645	-0.206787
1032.0	5.698416	0.085758	8.574523	0.123037	-2.232467	0.056776	-0.791504	-0.160889	-0.1875
1033.0	5.474476	0.499865	8.763905	0.130899	-2.511966	0.08268	-0.793701	-0.161133	-0.165771
1034.0	5.492503	0.750697	9.027112	0.080217	-2.845931	0.112866	-0.793457	-0.165771	-0.144043
1035.0	5.375858	0.864596	9.649535	0.019999	-3.205757	0.098705	-0.800293	-0.157471	-0.115967
1036.0	5.203497	0.415338	9.944424	-0.155609	-3.657199	0.031981	-0.804443	-0.160156	-0.087646
1037.0	4.459811	-0.436818	9.852175	-0.24752	-4.163446	-0.043473	-0.804443	-0.158447	-0.048828
1038.0	4.178952	-2.330738	9.329203	-0.23181	-4.758702	-0.186656	-0.806396	-0.158936	-0.011963
1039.0	3.596385	-3.351916	9.350846	0.041167	-5.477409	-0.505633	-0.803711	-0.172607	0.038086
1040.0	3.851732	-3.681337	8.728457	0.394947	-6.332411	-0.919541	-0.79248	-0.17749	0.085693
1041.0	6.123237	-2.166037	8.365425	0.711731	-7.215805	-1.228063	-0.787354	-0.191162	0.14209
1042.0	8.734564	-2.931797	8.200737	1.020979	-7.864896	-1.649613	-0.769531	-0.202881	0.213867
1043.0	21.598675	-1.537406	9.323001	1.497175	-8.145168	-1.801813	-0.74292	-0.212402	0.283203
1044.0	28.131473	-0.349191	6.665392	1.474824	-7.455787	-1.861586	-0.716064	-0.22583	0.328857
1045.0	24.91558	-0.566756	8.570804	1.420494	-7.167043	-2.284064	-0.687256	-0.237061	0.385254
1046.0	23.77121	-1.491783	9.65882	0.892938	-6.330135	-2.129889	-0.654297	-0.243896	0.424561
1047.0	20.289583	-3.853458	11.142168	0.500635	-5.975223	-2.153326	-0.616455	-0.261719	0.468018
1048.0	19.94649	-3.814544	14.244895	0.099094	-5.078675	-2.098385	-0.596436	-0.272705	0.494141
1049.0	9.479148	-5.037905	13.918424	0.204537	-3.964935	-2.093152	-0.56958	-0.285889	0.515869
1050.0	-0.225376	-9.471771	14.11085	0.246802	-2.226572	-1.587249	-0.556152	-0.294434	0.518066
1051.0	18.235955	-4.959214	19.106202	0.581738	-1.054859	-1.080403	-0.554199	-0.292236	0.522461
1052.0	7.333028	-5.833076	15.998663	0.026322	1.054104	-0.602992	-0.558105	-0.300781	0.511719
1053.0	-0.582621	-6.322822	11.576862	-0.015598	1.318023	-0.490243	-0.558105	-0.304932	0.505127
1054.0	-0.183886	-5.177454	9.959531	-0.055133	1.419941	-0.559266	-0.56665	-0.309082	0.494385
1055.0	2.341261	-4.112255	9.73763	-0.203034	1.652192	-0.573226	-0.572754	-0.317627	0.481201
1056.0	4.461091	-3.814164	9.565231	-0.396472	2.159517	-0.445444	-0.576904	-0.325928	0.459717
1057.0	5.415249	-3.840362	9.131828	-0.527879	2.834032	-0.22951	-0.592041	-0.332275	0.440186
1058.0	5.838616	-3.781943	8.654049	-0.563964	3.53601	-0.038427	-0.606934	-0.340576	0.418457
1059.0	5.453323	-3.175746	8.058671	-0.550623	4.173746	0.102637	-0.624268	-0.342285	0.385986
1060.0	4.88996	-2.13957	7.391593	-0.573869	4.655537	0.188255	-0.650146	-0.350342	0.344727
1061.0	4.913408	-0.515103	7.090022	-0.746238	4.993127	0.254365	-0.65918	-0.349854	0.299316
1062.0	5.051679	1.043164	6.81142	-1.09475	5.201167	0.330516	-0.674072	-0.360107	0.260254
1063.0	5.177457	1.955381	6.306191	-1.555021	5.276452	0.416303	-0.691406	-0.359619	0.218994
1064.0	5.159033	1.885388	5.693826	-2.00568	5.221447	0.522209	-0.700195	-0.361084	0.158447
1065.0	5.399994	1.400127	5.326511	-2.317288	5.056133	0.657318	-0.700439	-0.360352	0.117188
1066.0	5.971923	1.292045	5.347435	-2.46778	4.810899	0.83104	-0.711182	-0.366211	0.06958
1067.0	7.138184	1.551572	5.701637	-2.507311	4.563002	1.02818	-0.715576	-0.365723	0.023926
1068.0	8.508265	1.809374	6.107178	-2.514579	4.3684	1.199229	-0.713867	-0.356445	-0.019287
1069.0	9.453512	1.759967	6.516733	-2.482653	4.22367	1.354231	-0.709961	-0.347412	-0.056396
1070.0	10.076313	1.496551	7.002111	-2.387491	4.078618	1.537932	-0.715088	-0.33374	-0.101807
1071.0	11.278861	1.510499	7.691683	-2.27264	3.955703	1.780856	-0.706543	-0.329102	-0.136475
1072.0	12.150229	1.272694	8.251483	-2.153729	3.911663	2.062491	-0.700684	-0.313477	-0.175537
1073.0	12.501018	1.044439	8.793432	-2.00176	3.891306	2.338277	-0.694824	-0.300049	-0.214844
1074.0	12.888896	1.038073	9.552749	-1.807001	3.841399	2.574213	-0.693359	-0.280029	-0.247314
1075.0	14.388596	1.260619	10.335001	-1.654142	3.794494	2.760555	-0.68335	-0.262695	-0.269043
1076.0	16.147036	1.343809	10.711072	-1.553419	3.797018	2.946311	-0.679932	-0.238525	-0.299561
1077.0	17.2798	1.599414	9.998198	-1.398157	3.803201	3.173208	-0.674316	-0.21875	-0.330078
1078.0	17.695986	2.335683	8.686195	-1.130869	3.698613	3.377661	-0.664307	-0.196777	-0.349609
1079.0	18.518202	3.793141	7.008528	-0.803522	3.469921	3.442277	-0.660889	-0.170654	-0.380127
1080.0	19.315782	7.178619	5.425676	-0.483478	3.170617	3.30758	-0.650879	-0.151123	-0.390869
1081.0	22.16719	8.776582	3.315271	-0.300058	2.966213	2.826422	-0.638428	-0.137939	-0.4104
1082.0	23.244375	8.685881	0.189837	-0.04485	2.961777	2.080786	-0.632324	-0.124756	-0.430176
1083.0	22.636945	8.500563	-3.10724	0.235156	2.909425	1.356631	-0.617188	-0.12207	-0.45166
1084.0	21.857766	7.846952	-6.252572	0.397994	2.68791	0.875174	-0.608643	-0.117676	-0.464844
1085.0	20.765498	6.682412	-9.280687	0.489648	2.300933	0.590911	-0.595703	-0.119629	-0.471191
1086.0	19.722447	6.76849	-10.905824	0.523336	1.729196	0.326007	-0.593262	-0.121582	-0.47998
1087.0	19.267809	8.137149	-11.03646	0.337855	1.105577	0.016139	-0.58667	-0.123779	-0.486328
1088.0	19.213439	9.087578	-9.867876	-0.049429	0.564149	-0.3595	-0.584717	-0.123535	-0.49292
1089.0	16.797479	7.610381	-7.517071	-0.407139	0.247748	-0.832564	-0.577881	-0.130127	-0.488525
1090.0	17.032381	1.436093	-11.387766	0.461948	-1.550314	-1.675355	-0.585693	-0.153809	-0.484131
1091.0	3.172388	1.990888	-9.788847	1.0605	-0.991804	-2.302876	-0.587158	-0.169189	-0.466553
1092.0	3.09466	1.990713	18.871266	1.008902	-2.660343	-2.116997	-0.593018	-0.184326	-0.455811
1093.0	8.22435	-8.837218	11.942889	0.22763	-2.442659	-1.421233	-0.612061	-0.199951	-0.431885
1094.0	13.163708	0.003992	6.863034	1.341664	-3.178134	-1.397629	-0.620361	-0.206543	-0.410156
1095.0	26.8484	2.37738	15.144396	0.711651	-3.513317	-0.473114	-0.633057	-0.215576	-0.388428
1096.0	26.387627	4.740852	14.241508	0.840272	-1.308825	-0.813737	-0.632568	-0.226318	-0.384033
1097.0	4.290789	0.058315	8.236132	0.700902	-1.11555	-0.476033	-0.63916	-0.22876	-0.375488
1098.0	8.716081	1.167328	9.622223	0.562592	-1.188834	-0.279895	-0.638916	-0.233154	-0.368896
1099.0	6.344143	5.611985	10.307921	0.297779	-0.982952	-0.128032	-0.643066	-0.237549	-0.355713
1100.0	9.222065	1.846633	9.358654	-0.20788	-0.834552	0.034665	-0.649658	-0.233398	-0.35376
1101.0	7.80134	-1.914558	7.754694	-0.308469	-0.510038	0.149424	-0.647705	-0.226807	-0.355957
1102.0	7.376229	-1.329732	7.763523	-0.280499	-0.352655	0.18625	-0.649902	-0.226807	-0.351563
1103.0	6.377555	-0.938957	7.709735	-0.270426	-0.287053	0.178569	-0.654297	-0.224854	-0.347168
1104.0	5.806958	-1.174783	7.525066	-0.281499	-0.241151	0.162763	-0.652588	-0.218506	-0.347168
1105.0	6.005361	-1.632	7.498406	-0.241296	-0.257684	0.108934	-0.658691	-0.224854	-0.347168
1106.0	6.178606	-1.901506	7.3502	-0.18617	-0.233924	0.050278	-0.652344	-0.222656	-0.347168
1107.0	6.260053	-1.443296	7.51514	-0.108183	-0.22017	-0.002024	-0.652344	-0.222656	-0.349365
1108.0	6.500697	-1.083422	7.550413	-0.082681	-0.200104	-0.021093	-0.654297	-0.227051	-0.344971
1109.0	6.33856	-1.506541	7.494432	-0.032917	-0.169326	-0.05301	-0.656494	-0.224854	-0.344971
1110.0	6.344009	-1.613107	7.416214	0.047564	-0.1287	-0.094124	-0.658691	-0.224854	-0.343018
1111.0	6.336417	-1.248409	7.48889	0.114696	-0.128146	-0.118606	-0.654541	-0.2229	-0.336426
1112.0	6.440079	-1.385273	7.406066	0.164942	-0.112382	-0.137174	-0.656494	-0.227051	-0.338623
1113.0	6.381879	-1.347538	7.378006	0.229248	-0.091327	-0.163397	-0.658447	-0.231445	-0.329834
1114.0	6.513969	-1.083636	7.502483	0.270281	-0.068578	-0.171617	-0.65625	-0.23584	-0.338623
1115.0	6.537442	-0.964778	7.549032	0.279263	-0.039942	-0.167985	-0.658447	-0.229248	-0.334229
1116.0	6.524752	-0.769658	7.658419	0.276188	-0.016612	-0.162735	-0.658203	-0.23584	-0.334229
1117.0	6.542861	-0.415607	7.76128	0.253742	-0.016195	-0.135383	-0.65625	-0.23584	-0.336426
1118.0	6.518053	-0.437298	7.834907	0.206631	-0.008842	-0.105233	-0.656006	-0.237793	-0.336426
1119.0	6.460093	-0.443656	7.691119	0.177683	-0.004526	-0.093906	-0.658203	-0.240234	-0.329834
1120.0	6.427482	-0.567362	7.588576	0.16725	0.004391	-0.090457	-0.651611	-0.242432	-0.327637
1121.0	6.384637	-0.711749	7.478845	0.18318	0.023503	-0.104521	-0.651367	-0.244385	-0.332031
1122.0	6.343036	-0.726303	7.47718	0.219745	0.046885	-0.126764	-0.651367	-0.246582	-0.327637
1123.0	6.271741	-0.800003	7.451795	0.245646	0.068476	-0.143954	-0.655762	-0.246582	-0.327637
1124.0	6.1435	-0.934401	7.505041	0.270379	0.072324	-0.148639	-0.65332	-0.250977	-0.332031
1125.0	6.094547	-0.485304	7.718378	0.258265	0.025697	-0.108361	-0.653564	-0.242432	-0.325439
1126.0	6.156609	-0.507878	7.696249	0.222897	-0.018677	-0.070969	-0.655762	-0.246582	-0.323242
1127.0	6.147991	-0.573248	7.710345	0.212696	-0.037554	-0.056926	-0.64917	-0.246582	-0.323242
1128.0	6.202877	-0.542327	7.693767	0.204399	-0.050826	-0.048522	-0.65332	-0.248779	-0.325439
1129.0	6.280668	-0.596222	7.648576	0.20312	-0.051892	-0.04318	-0.646729	-0.25293	-0.332031
1130.0	6.323036	-0.573496	7.663279	0.193036	-0.038	-0.041738	-0.642334	-0.25293	-0.327637
1131.0	6.281042	-0.597149	7.598156	0.185006	-0.029623	-0.032597	-0.646484	-0.257324	-0.329834
1132.0	6.369677	-0.340529	7.757399	0.197353	-0.022214	-0.033847	-0.646484	-0.261719	-0.32959
1133.0	6.366065	-0.32688	7.697252	0.187097	-0.019006	-0.030673	-0.650635	-0.263916	-0.32959
1134.0	6.324454	-0.365676	7.743608	0.18548	-0.025108	-0.033182	-0.652588	-0.268066	-0.32959
1135.0	6.36172	-0.21788	7.801449	0.179622	-0.038932	-0.028797	-0.657227	-0.266113	-0.327637
1136.0	6.412416	-0.274273	7.709026	0.170064	-0.044814	-0.021253	-0.650635	-0.261719	-0.323242
1137.0	6.371133	-0.235269	7.769167	0.163017	-0.04892	-0.028799	-0.655029	-0.261963	-0.3125
1138.0	6.396606	-0.435673	7.637661	0.15799	-0.058614	-0.038528	-0.655029	-0.263916	-0.31665
1139.0	6.382009	-0.495091	7.631343	0.166529	-0.057112	-0.051966	-0.655029	-0.263916	-0.321045
1140.0	6.335263	-0.522348	7.656057	0.164513	-0.065691	-0.069182	-0.661377	-0.266113	-0.31665
1141.0	6.326398	-0.463731	7.711069	0.162664	-0.077213	-0.083599	-0.650391	-0.270508	-0.318848
1142.0	6.316754	-0.325035	7.77964	0.14912	-0.091651	-0.096983	-0.650635	-0.263916	-0.327637
1143.0	6.220904	-0.040771	7.934347	0.112539	-0.12333	-0.108717	-0.652832	-0.266113	-0.310303
1144.0	5.93215	0.196637	8.207284	0.01382	-0.224523	-0.112604	-0.652588	-0.268311	-0.310059
1145.0	5.888482	-0.559158	8.133142	-0.028404	-0.324885	-0.115404	-0.654785	-0.268311	-0.308105
1146.0	5.845391	-0.67056	8.227269	0.066477	-0.46032	-0.139101	-0.65918	-0.268311	-0.310303
1147.0	6.194247	-0.116924	8.114126	0.072521	-0.562802	-0.148644	-0.652832	-0.26416	-0.299316
1148.0	6.22405	-0.097003	8.087617	0.073649	-0.680445	-0.148842	-0.658936	-0.275146	-0.297119
1149.0	6.231629	-0.11029	8.110257	0.077567	-0.805334	-0.150852	-0.665283	-0.275146	-0.288574
1150.0	6.300358	-0.14318	8.120624	0.091208	-0.924787	-0.144192	-0.663086	-0.279541	-0.28418
1151.0	6.320057	-0.176374	8.121082	0.111346	-1.051086	-0.133855	-0.669678	-0.275391	-0.277588
1152.0	6.312106	-0.311521	8.229077	0.147598	-1.192697	-0.126064	-0.671875	-0.273438	-0.266846
1153.0	6.282899	-0.52578	8.119583	0.220874	-1.349421	-0.128506	-0.671875	-0.275635	-0.260254
1154.0	6.228908	-0.369751	8.222386	0.299491	-1.52025	-0.122088	-0.673828	-0.278076	-0.24292
1155.0	6.178276	-0.068939	8.245959	0.380127	-1.713815	-0.097024	-0.68457	-0.280518	-0.225586
1156.0	5.971707	0.56385	8.541187	0.391424	-1.949425	-0.048601	-0.686768	-0.282715	-0.219238
1157.0	5.893621	0.531168	8.880334	0.354217	-2.256866	0.006574	-0.688721	-0.282959	-0.19751
1158.0	5.756191	0.325695	9.087572	0.286406	-2.601259	0.034777	-0.699707	-0.281006	-0.182373
1159.0	5.631854	0.379783	9.394859	0.189295	-2.980663	0.029315	-0.695068	-0.285889	-0.149658
1160.0	5.512509	0.461048	9.655339	0.050687	-3.430802	-0.006566	-0.706055	-0.283936	-0.130371
1161.0	5.191262	-1.059463	9.595628	0.008226	-3.903668	-0.098778	-0.704102	-0.277832	-0.100098
1162.0	4.179996	-2.494912	9.46098	0.069648	-4.498059	-0.256307	-0.708008	-0.289307	-0.061035
1163.0	3.833795	-3.770616	9.092285	0.210453	-5.216185	-0.587399	-0.707764	-0.291992	-0.021973
1164.0	3.820581	-3.835006	8.792738	0.511968	-6.083796	-1.047521	-0.71167	-0.299072	0.025879
1165.0	5.499365	-2.871671	7.865323	0.825617	-6.99596	-1.44656	-0.695801	-0.314697	0.084473
1166.0	8.524508	-3.027826	7.781082	1.108136	-7.607864	-1.890334	-0.682129	-0.326172	0.140869
1167.0	17.954642	-1.845919	8.264407	1.560139	-7.97545	-2.114951	-0.655518	-0.337646	0.197266
1168.0	27.261712	0.102749	7.345797	1.349458	-7.613709	-2.072227	-0.637207	-0.353516	0.255859
1169.0	23.437901	-0.413037	5.350513	1.253851	-7.197614	-2.422531	-0.613037	-0.356201	0.303711
1170.0	23.896202	-1.582003	9.304459	1.116855	-6.495475	-2.442034	-0.586182	-0.375977	0.344971
1171.0	19.573386	-2.663488	8.028695	0.7124	-6.052552	-2.407913	-0.548584	-0.38501	0.388428
1172.0	23.350608	-2.147797	13.026461	0.252066	-5.495796	-2.285301	-0.521973	-0.398193	0.414551
1173.0	18.251525	-3.787933	13.268254	-0.360787	-4.250502	-2.16415	-0.50415	-0.406982	0.429932
1174.0	2.655129	-7.513185	12.018752	-0.371276	-2.562016	-1.929999	-0.486084	-0.422119	0.438721
1175.0	2.587366	-12.913412	12.139132	0.539148	-1.52273	-1.346481	-0.473145	-0.419922	0.449463
1176.0	22.115956	-4.187397	19.87513	0.634776	0.128917	-0.687318	-0.477539	-0.417969	0.449463
1177.0	2.74223	-5.756214	13.623235	0.237729	1.906102	-0.203617	-0.486084	-0.422119	0.438721
1178.0	-1.223412	-3.960347	10.988608	0.062199	1.925277	-0.075454	-0.49707	-0.419922	0.434326
1179.0	0.029098	-2.634271	9.80266	-0.311511	2.040053	-0.055506	-0.505615	-0.424072	0.421387
1180.0	2.80032	-2.515421	9.283394	-0.689256	2.302304	-0.009259	-0.518555	-0.428223	0.404053
1181.0	4.771887	-3.198388	8.500098	-0.882159	2.852643	0.110516	-0.538086	-0.432373	0.386475
1182.0	5.791004	-4.107471	7.806612	-0.848436	3.568122	0.248822	-0.553467	-0.434082	0.356201
1183.0	5.787643	-4.202603	7.129225	-0.635191	4.277248	0.339899	-0.573242	-0.429688	0.33667
1184.0	5.337259	-3.503845	6.623538	-0.413449	4.834449	0.379513	-0.590332	-0.435547	0.297607
1185.0	5.042011	-2.118001	6.066764	-0.292924	5.255088	0.409129	-0.605713	-0.4375	0.265137
1186.0	5.118268	-0.854949	5.75042	-0.354565	5.543253	0.437441	-0.627686	-0.434814	0.223877
1187.0	5.245505	0.244114	5.461581	-0.599528	5.704539	0.469617	-0.640869	-0.432129	0.187012
1188.0	5.409135	0.765397	5.078153	-0.955054	5.724313	0.528304	-0.65625	-0.431396	0.13501
1189.0	5.5816	0.418068	4.50191	-1.305972	5.607623	0.609759	-0.669434	-0.430908	0.089355
1190.0	5.889412	-0.225082	4.152839	-1.545272	5.352285	0.719553	-0.678467	-0.426025	0.039551
1191.0	7.155437	-0.63534	4.184837	-1.662069	4.995903	0.888263	-0.680908	-0.421143	0.004883
1192.0	9.208487	-0.976393	4.665966	-1.688199	4.679143	1.124902	-0.687988	-0.409912	-0.040771
1193.0	11.016566	-1.429213	5.19973	-1.659722	4.484962	1.414533	-0.692627	-0.400635	-0.079834
1194.0	12.447303	-1.836579	5.83684	-1.553808	4.371956	1.682001	-0.697754	-0.385254	-0.116699
1195.0	13.357642	-1.919203	6.095241	-1.422927	4.333211	1.905489	-0.694092	-0.367432	-0.153809
1196.0	13.772339	-1.854938	6.405901	-1.321327	4.328158	2.069311	-0.694824	-0.354248	-0.184082
1197.0	13.780303	-1.344981	6.815789	-1.289944	4.276527	2.188911	-0.697998	-0.332031	-0.227539
1198.0	13.516302	-0.523683	7.419572	-1.384956	4.131822	2.289618	-0.691895	-0.320801	-0.264404
1199.0	13.282785	0.482224	8.036085	-1.628615	3.887958	2.350968	-0.690674	-0.294434	-0.301514
1200.0	13.759016	1.493994	8.778088	-1.981559	3.557613	2.328996	-0.689453	-0.274658	-0.327637
1201.0	15.550233	2.532195	9.378264	-2.399741	3.31007	2.215046	-0.684082	-0.248535	-0.355957
1202.0	16.397963	2.657243	8.915509	-2.758961	3.198836	2.021521	-0.674072	-0.224365	-0.390625
1203.0	16.040064	2.509297	7.71934	-2.898575	3.036686	1.758652	-0.66626	-0.20459	-0.412354
1204.0	15.977212	3.001486	6.360142	-2.807109	2.73741	1.502163	-0.662598	-0.187012	-0.442871
1205.0	16.636493	4.051577	5.445174	-2.596716	2.418973	1.340886	-0.648438	-0.163086	-0.460205
1206.0	17.389564	4.405587	5.03224	-2.382905	2.153184	1.206534	-0.644775	-0.143311	-0.481934
1207.0	19.530311	5.628056	5.080902	-2.274256	2.010655	1.116083	-0.636719	-0.130127	-0.499512
1208.0	20.32676	6.212863	3.798066	-2.289623	2.144058	1.112161	-0.631104	-0.106201	-0.523438
1209.0	17.507881	5.55446	1.291084	-2.138681	2.195967	1.050219	-0.618652	-0.093018	-0.542969
1210.0	16.256077	5.531673	-0.914412	-1.782718	1.995806	0.883322	-0.605957	-0.079834	-0.555908
1211.0	16.424512	5.817244	-2.554835	-1.341302	1.793661	0.692585	-0.595459	-0.071045	-0.5625
1212.0	16.384434	6.435908	-3.740154	-0.898279	1.595579	0.511962	-0.5896	-0.058105	-0.566895
1213.0	15.721672	7.062955	-4.713243	-0.475109	1.360797	0.331997	-0.585205	-0.057861	-0.575439
1214.0	14.877835	7.649963	-5.198018	-0.074919	1.034585	0.135249	-0.576416	-0.057861	-0.588623
1215.0	14.706067	8.225239	-5.171761	0.278347	0.664746	-0.091667	-0.584961	-0.064209	-0.588623
1216.0	12.658289	6.058784	-2.950444	0.557159	0.373835	-0.38612	-0.580322	-0.068604	-0.588379
1217.0	14.005133	-2.7511	-9.980382	3.003559	-1.079907	-1.349267	-0.583496	-0.10083	-0.57959
1218.0	5.040997	3.807796	-4.929195	4.579214	-0.512143	-2.509131	-0.586182	-0.144043	-0.568604
1219.0	2.927278	5.402163	19.996363	4.079564	-1.177605	-2.416673	-0.593506	-0.178711	-0.55542
1220.0	-3.915925	-5.461471	9.652574	2.752116	-1.122043	-1.691725	-0.594482	-0.206787	-0.542236
1221.0	1.306207	7.473947	4.393154	3.711926	-2.83574	-1.508897	-0.608887	-0.230957	-0.513916
1222.0	11.269813	8.805968	12.363168	2.458256	-3.236068	-0.6438	-0.623535	-0.242188	-0.494385
1223.0	13.907632	12.061971	14.794312	2.112146	-3.050702	-0.773706	-0.640381	-0.255371	-0.464111
1224.0	23.54662	14.064379	16.484481	1.287455	-2.696232	-1.162069	-0.644043	-0.270752	-0.44458
1225.0	22.452364	-0.330182	12.360113	0.249511	-1.074194	-0.596393	-0.644043	-0.275146	-0.446777
1226.0	3.925169	-2.797043	6.888622	0.878202	-0.776148	-0.296733	-0.652588	-0.277588	-0.429443
1227.0	7.848767	2.880166	10.145185	0.720209	-0.900209	-0.253779	-0.656494	-0.290527	-0.425049
1228.0	4.380435	4.41017	8.899985	0.519276	-0.776034	-0.233703	-0.658447	-0.290527	-0.420654
1229.0	9.326354	4.621469	10.606964	0.077611	-0.588066	0.002007	-0.658447	-0.290771	-0.411865
1230.0	6.934087	-3.635901	6.492653	0.023467	-0.365868	-0.043109	-0.658447	-0.290527	-0.420654
1231.0	7.040055	-1.581607	7.851635	0.24505	-0.145637	-0.081109	-0.662842	-0.292969	-0.409668
1232.0	6.507315	1.571618	8.197593	0.230615	-0.092154	-0.10317	-0.658691	-0.288574	-0.41626
1233.0	6.86807	0.22927	8.136079	0.159838	-0.075725	-0.07166	-0.660645	-0.292969	-0.409668
1234.0	6.308525	-0.172708	8.04127	0.146844	-0.037792	-0.039459	-0.664795	-0.299316	-0.411865
1235.0	6.275173	0.028549	7.948368	0.130463	-0.055815	-0.040469	-0.65625	-0.292725	-0.411865
1236.0	6.338249	-0.270192	7.902533	0.119352	-0.046544	-0.029088	-0.664795	-0.297119	-0.411865
1237.0	6.479574	-0.271827	8.014476	0.115193	-0.054329	-0.022115	-0.6604	-0.297119	-0.405518
1238.0	6.249141	-0.138638	7.993724	0.115514	-0.04426	-0.016374	-0.6604	-0.294922	-0.407471
1239.0	6.279581	-0.180546	7.953422	0.09401	-0.042303	-0.011743	-0.662598	-0.295166	-0.401123
1240.0	6.196731	-0.027692	7.944859	0.081149	-0.041198	-0.003393	-0.662842	-0.292969	-0.407715
1241.0	6.154318	-0.202627	7.806675	0.061857	-0.047423	0.006198	-0.6604	-0.299316	-0.407471
1242.0	6.122829	-0.38567	7.748506	0.058412	-0.048173	0.011883	-0.666992	-0.297119	-0.407471
1243.0	6.102559	-0.262302	7.818341	0.049317	-0.052008	0.01441	-0.6604	-0.297363	-0.398926
1244.0	6.141696	-0.192345	7.748823	0.044984	-0.054214	0.011563	-0.664551	-0.301514	-0.401123
1245.0	6.057416	0.071675	7.801083	0.041314	-0.057297	0.012384	-0.660156	-0.301514	-0.40332
1246.0	6.054226	0.051253	7.789156	0.014389	-0.069231	0.021875	-0.664795	-0.299316	-0.40332
1247.0	6.017424	0.090352	7.793519	-0.011251	-0.090802	0.02774	-0.664795	-0.297363	-0.40332
1248.0	6.113015	-0.07803	7.695199	-0.024869	-0.09655	0.047516	-0.666748	-0.303711	-0.401123
1249.0	6.064213	-0.049889	7.729631	-0.038157	-0.100101	0.062118	-0.669189	-0.295166	-0.398926
1250.0	6.123169	-0.2052	7.771201	-0.046605	-0.104804	0.068281	-0.662598	-0.299561	-0.398926
1251.0	6.178941	-0.268719	7.716142	-0.054364	-0.099852	0.066113	-0.673584	-0.292969	-0.401123
1252.0	6.207999	-0.281012	7.698888	-0.052978	-0.101746	0.063333	-0.671143	-0.301758	-0.392334
1253.0	6.133077	-0.203367	7.771259	-0.046129	-0.09764	0.060821	-0.671387	-0.293213	-0.388184
1254.0	6.064245	-0.223466	7.730586	-0.039231	-0.088276	0.060315	-0.669434	-0.291016	-0.394531
1255.0	6.146678	-0.184077	7.747997	-0.024948	-0.080794	0.053102	-0.669434	-0.288818	-0.394531
1256.0	6.233833	-0.222779	7.750469	-0.012423	-0.086911	0.046709	-0.667236	-0.288818	-0.398926
1257.0	6.236158	-0.229113	7.686162	0.017228	-0.065383	0.032845	-0.665039	-0.291016	-0.390381
1258.0	6.253607	-0.318511	7.687877	0.049127	-0.054825	0.020776	-0.658203	-0.295166	-0.396729
1259.0	6.283232	-0.301097	7.622746	0.078174	-0.035199	0.0002	-0.664551	-0.303711	-0.401123
1260.0	6.203609	-0.240507	7.712419	0.101749	-0.024214	-0.0137	-0.664551	-0.305908	-0.401123
1261.0	6.230432	-0.198905	7.747508	0.111547	-0.021428	-0.0227	-0.673096	-0.308105	-0.396729
1262.0	6.248896	-0.177616	7.774575	0.119215	-0.023763	-0.027669	-0.668945	-0.303711	-0.40332
1263.0	6.259202	-0.112633	7.768837	0.121588	-0.024348	-0.03195	-0.664307	-0.306152	-0.390137
1264.0	6.248434	-0.17207	7.823257	0.12125	-0.03458	-0.031898	-0.666748	-0.303955	-0.394531
1265.0	6.242101	-0.098101	7.887006	0.116814	-0.042047	-0.03674	-0.673584	-0.293213	-0.390381
1266.0	6.204241	-0.130042	7.819888	0.120576	-0.05504	-0.031785	-0.668945	-0.303955	-0.392334
1267.0	6.204816	-0.10311	7.855084	0.119506	-0.077727	-0.042395	-0.671143	-0.299805	-0.383789
1268.0	6.172597	-0.04626	7.918842	0.106085	-0.094403	-0.040659	-0.67334	-0.299561	-0.390137
1269.0	6.185802	-0.083295	7.885697	0.089658	-0.120471	-0.046395	-0.675293	-0.303955	-0.392334
1270.0	6.213248	-0.158717	7.943627	0.084431	-0.140238	-0.051884	-0.666504	-0.306152	-0.385986
1271.0	6.147597	0.038471	8.034175	0.067409	-0.171047	-0.067369	-0.671143	-0.301758	-0.390137
1272.0	6.031441	-0.060696	8.080696	0.042751	-0.202115	-0.070918	-0.673096	-0.30835	-0.385986
1273.0	5.638997	0.002007	8.591823	0.013148	-0.293332	-0.083244	-0.675537	-0.302002	-0.377197
1274.0	5.398535	0.578662	8.893015	0.029604	-0.522819	-0.065539	-0.677246	-0.308594	-0.372803
1275.0	5.92528	0.341802	8.470928	-0.02281	-0.668984	-0.051719	-0.67749	-0.302002	-0.366455
1276.0	5.995076	0.458904	8.396089	-0.06405	-0.825551	-0.04112	-0.679688	-0.304199	-0.366455
1277.0	5.930626	0.604522	8.543807	-0.104236	-0.997478	-0.019943	-0.688232	-0.308838	-0.353271
1278.0	5.973281	0.139653	8.501884	-0.120292	-1.176609	-0.00621	-0.688232	-0.304688	-0.344727
1279.0	5.928601	-0.155008	8.557762	-0.080474	-1.360984	-0.011012	-0.692627	-0.304688	-0.333984
1280.0	6.010268	-0.527517	8.475511	0.000206	-1.557406	-0.025616	-0.701172	-0.307129	-0.322998
1281.0	5.995328	-0.646708	8.449558	0.10986	-1.752826	-0.045328	-0.708008	-0.302979	-0.31665
1282.0	5.95826	-0.322183	8.48757	0.208505	-1.964878	-0.046117	-0.70752	-0.311768	-0.299316
1283.0	5.782901	-0.044532	8.73447	0.275159	-2.211717	-0.026959	-0.714111	-0.307861	-0.277588
1284.0	5.631827	0.255061	9.119953	0.280409	-2.518041	0.005059	-0.722656	-0.310303	-0.258057
1285.0	5.462185	0.245164	9.533018	0.214883	-2.888674	0.017596	-0.727051	-0.30835	-0.236328
1286.0	5.353059	0.154338	10.032442	0.114325	-3.323286	-0.030913	-0.73999	-0.308838	-0.208252
1287.0	5.030661	-0.643808	10.37121	0.073625	-3.841725	-0.137791	-0.744385	-0.311523	-0.173584
1288.0	4.082981	-2.485433	10.127758	0.04033	-4.39688	-0.305753	-0.750488	-0.316162	-0.143311
1289.0	3.786919	-4.329127	9.765384	0.155091	-5.083081	-0.670105	-0.756836	-0.323242	-0.095459
1290.0	4.506476	-4.068105	9.15037	0.473763	-5.894591	-1.24607	-0.75415	-0.33252	-0.047852
1291.0	5.370279	-2.599319	8.342844	0.816881	-6.64237	-1.699232	-0.746826	-0.348389	0.004395
1292.0	9.553239	-4.73138	8.168228	1.123592	-7.270436	-2.129238	-0.739258	-0.370605	0.060791
1293.0	18.689516	-1.564751	9.277558	1.887927	-7.453384	-2.42198	-0.721436	-0.380127	0.125977
1294.0	27.615777	-0.657063	8.015272	1.893825	-6.84483	-2.452439	-0.709717	-0.400146	0.177979
1295.0	21.688323	0.138812	6.674184	1.869175	-6.488246	-2.727254	-0.678467	-0.413574	0.234619
1296.0	24.39998	-0.594748	10.359652	1.0913	-5.771014	-2.42027	-0.656006	-0.427002	0.278076
1297.0	18.884395	-4.305391	9.798508	0.617258	-5.488556	-2.312376	-0.631592	-0.44043	0.319336
1298.0	18.275124	-2.679602	13.645178	0.40405	-4.798928	-2.280599	-0.604736	-0.457764	0.343262
1299.0	8.759158	-4.878851	12.866612	0.407965	-3.763367	-2.290984	-0.582764	-0.460205	0.36499
1300.0	2.014768	-9.445731	11.237669	0.576298	-2.266032	-1.674311	-0.562744	-0.473145	0.382324
1301.0	17.305598	-4.293612	16.035698	0.804915	-1.199325	-0.941382	-0.564941	-0.471191	0.393311
1302.0	9.724658	-4.012588	14.518032	0.302606	0.726294	-0.380128	-0.562744	-0.471191	0.391113
1303.0	0.002982	-4.96356	9.613265	0.200648	1.060008	-0.124102	-0.569336	-0.469238	0.393311
1304.0	-1.097542	-4.072275	8.014382	0.199798	1.081828	-0.15137	-0.571533	-0.471191	0.384521
1305.0	-0.013285	-2.724831	7.500084	0.118741	1.100196	-0.225834	-0.575684	-0.475586	0.384521
1306.0	2.140237	-1.734758	7.743706	-0.057265	1.320731	-0.226125	-0.580078	-0.475342	0.373779
1307.0	3.45543	-1.108684	7.900615	-0.318129	1.750812	-0.126874	-0.584473	-0.475342	0.362793
1308.0	4.46111	-0.924464	8.016306	-0.574237	2.293946	0.019487	-0.601563	-0.481445	0.345459
1309.0	4.560824	-1.017702	7.748131	-0.758367	2.864654	0.151403	-0.608154	-0.481201	0.325928
1310.0	4.031063	-1.141218	7.209099	-0.846883	3.347493	0.206928	-0.623535	-0.483154	0.302246
1311.0	4.042159	-0.758345	6.720129	-0.889065	3.713213	0.201239	-0.629639	-0.489502	0.287109
1312.0	4.208885	-0.008791	6.409717	-0.96912	3.994019	0.180209	-0.653809	-0.489014	0.254395
1313.0	4.533109	0.609755	6.147781	-1.131028	4.159737	0.178985	-0.666992	-0.486572	0.221924
1314.0	5.089439	1.053794	6.015949	-1.347681	4.248147	0.241561	-0.677734	-0.494873	0.19165
1315.0	5.856236	1.137974	5.944549	-1.579318	4.277816	0.366229	-0.686768	-0.487793	0.154785
1316.0	6.596497	0.809053	5.92827	-1.739735	4.282195	0.536008	-0.699707	-0.489502	0.120117
