Acquisition frequency: 100 Hz
PacketCounter	Acc_X	Acc_Y	Acc_Z	Gyr_X	Gyr_Y	Gyr_Z	Mag_X	Mag_Y	Mag_Z
1.0	5.98364	-0.085273	7.919635	-0.012427	0.003461	-0.004553	-0.610352	-0.127197	-0.388916
2.0	5.998668	-0.082252	7.938419	-0.020154	0.002276	-0.003705	-0.614746	-0.125244	-0.386719
3.0	6.007093	-0.128857	7.909413	-0.014112	-0.000689	-0.002867	-0.608154	-0.127441	-0.382324
4.0	5.973406	-0.170728	7.881937	-0.009923	0.004217	-0.003687	-0.612793	-0.12085	-0.384521
5.0	6.011915	-0.208333	7.890506	-0.004942	0.008191	-0.006323	-0.612305	-0.131592	-0.390869
6.0	5.983962	-0.191242	7.87773	0.003897	0.013374	-0.010473	-0.61499	-0.12085	-0.384521
7.0	6.009212	-0.190064	7.825071	0.008292	0.018425	-0.016911	-0.616943	-0.127197	-0.391113
8.0	5.999558	-0.150855	7.888793	0.015447	0.019457	-0.019375	-0.617188	-0.123047	-0.391113
9.0	5.974218	-0.107095	7.900419	0.016584	0.020992	-0.018312	-0.614746	-0.127441	-0.388916
10.0	6.018102	-0.084367	7.923975	0.012959	0.017467	-0.018053	-0.612549	-0.127197	-0.391113
11.0	5.974681	-0.078	7.926471	0.013533	0.017619	-0.01643	-0.614746	-0.125244	-0.386719
12.0	6.018223	-0.039608	7.882754	0.005046	0.013676	-0.007226	-0.619141	-0.127441	-0.388916
13.0	6.020839	-0.022505	7.940874	-0.001314	0.011708	-0.00658	-0.608398	-0.123047	-0.388916
14.0	5.977737	-0.009966	7.909336	-0.006869	0.007579	-0.00557	-0.612549	-0.127197	-0.388916
15.0	5.958981	-0.047576	7.900778	-0.009571	0.005449	0.001365	-0.612549	-0.129395	-0.388916
16.0	5.997673	-0.085917	7.909307	-0.013991	0.002857	0.003436	-0.612305	-0.131592	-0.390869
17.0	5.997516	-0.087394	7.909411	-0.015909	0.001023	0.006373	-0.612549	-0.129395	-0.391113
18.0	6.012474	-0.076762	7.894495	-0.017605	-0.001898	0.005873	-0.614746	-0.125244	-0.386719
19.0	5.98266	-0.103497	7.924184	-0.025002	0.00061	0.007411	-0.610352	-0.129395	-0.388916
20.0	5.997681	-0.093584	7.909214	-0.025331	-0.003089	0.006715	-0.61499	-0.123047	-0.388916
21.0	5.998014	-0.09612	7.908931	-0.025309	-0.00555	0.011079	-0.612549	-0.125244	-0.380127
22.0	6.01385	-0.094948	7.927083	-0.028922	-0.010307	0.013516	-0.612793	-0.123047	-0.388916
23.0	5.996074	-0.126857	7.88393	-0.030861	-0.009683	0.012094	-0.612549	-0.125244	-0.388916
24.0	6.027265	-0.121962	7.92062	-0.030286	-0.009532	0.013719	-0.621582	-0.12085	-0.388916
25.0	5.997517	-0.133311	7.882725	-0.031651	-0.008756	0.013919	-0.612793	-0.123047	-0.386719
26.0	6.028334	-0.120147	7.885969	-0.030294	-0.008304	0.011544	-0.619141	-0.125244	-0.388916
27.0	6.0256	-0.148003	7.861547	-0.028572	-0.007852	0.016411	-0.616943	-0.125	-0.393311
28.0	5.999468	-0.142845	7.881073	-0.031426	-0.009842	0.010488	-0.61499	-0.123047	-0.388916
29.0	5.997121	-0.178958	7.890059	-0.027776	-0.008785	0.014598	-0.612793	-0.12085	-0.386719
30.0	6.009089	-0.19412	7.850922	-0.025537	-0.002016	0.010185	-0.623535	-0.125244	-0.382324
31.0	6.024427	-0.192525	7.869439	-0.022254	-0.000956	0.00705	-0.619141	-0.123047	-0.386719
32.0	5.997557	-0.186076	7.889562	-0.015333	0.002396	0.005842	-0.617188	-0.118652	-0.386719
33.0	5.997426	-0.18749	7.889628	-0.013175	0.000689	0.003824	-0.612549	-0.125244	-0.386719
34.0	6.012117	-0.176183	7.874954	-0.00956	0.005448	0.001392	-0.621582	-0.12085	-0.388916
35.0	6.008594	-0.20993	7.884833	-0.008205	0.005904	-0.000987	-0.612549	-0.125244	-0.386719
36.0	6.023032	-0.197799	7.870376	-0.001055	0.006945	-0.003457	-0.612549	-0.127441	-0.386719
37.0	5.995687	-0.189364	7.890905	-0.001055	0.006944	-0.003457	-0.614746	-0.127441	-0.382324
38.0	6.010124	-0.17679	7.876462	-0.000263	0.006016	-0.005277	-0.616943	-0.127197	-0.393066
39.0	6.024561	-0.163905	7.862028	0.00302	0.007079	-0.008412	-0.610596	-0.123047	-0.384521
40.0	6.000583	-0.13033	7.906493	0.001665	0.006622	-0.006034	-0.616943	-0.127441	-0.386719
41.0	6.026879	-0.138272	7.886785	-0.002202	0.006644	-0.006699	-0.61499	-0.118896	-0.382324
42.0	6.011409	-0.150463	7.902019	-0.001055	0.006944	-0.003456	-0.614746	-0.125244	-0.382324
43.0	5.998546	-0.121165	7.874346	0.000632	0.011097	-0.00513	-0.608398	-0.123047	-0.386719
44.0	6.025078	-0.137761	7.88817	-0.004681	0.003418	-0.003205	-0.616943	-0.123047	-0.384521
45.0	6.012891	-0.117514	7.893676	-0.008768	0.004517	-0.00043	-0.608154	-0.127441	-0.384521
46.0	6.012874	-0.12672	7.927379	-0.01377	0.003004	-0.002159	-0.617188	-0.123047	-0.388916
47.0	6.030791	-0.082594	7.903073	-0.017605	-0.000679	0.003712	-0.61499	-0.118652	-0.388916
48.0	6.012692	-0.121242	7.893772	-0.017363	-0.004227	0.00463	-0.61499	-0.12085	-0.388916
49.0	5.989104	-0.073668	7.8705	-0.02643	-0.007112	0.010036	-0.608154	-0.127441	-0.386719
50.0	5.990226	-0.085222	7.903314	-0.034462	-0.014474	0.014539	-0.621338	-0.123047	-0.391113
51.0	6.009507	-0.044027	7.877999	-0.04488	-0.017822	0.02233	-0.612793	-0.12085	-0.391113
52.0	6.008523	-0.091199	7.919546	-0.059252	-0.028397	0.029671	-0.616943	-0.125244	-0.384521
53.0	6.010917	-0.098075	7.917647	-0.065578	-0.032851	0.034696	-0.612793	-0.118652	-0.393311
54.0	6.013679	-0.106119	7.915446	-0.081558	-0.037871	0.039163	-0.61499	-0.118652	-0.391113
55.0	6.025	-0.160096	7.883688	-0.078469	-0.036985	0.041672	-0.617188	-0.12085	-0.391113
56.0	5.997214	-0.176404	7.844095	-0.077907	-0.034372	0.03896	-0.623779	-0.12085	-0.388916
57.0	6.018818	-0.165268	7.918131	-0.081986	-0.032052	0.039595	-0.612793	-0.118896	-0.382324
58.0	6.037245	-0.18026	7.967867	-0.113171	-0.040533	0.04238	-0.613037	-0.116699	-0.380127
59.0	6.045545	-0.262351	7.91118	-0.138916	-0.04965	0.040019	-0.61084	-0.116455	-0.388916
60.0	6.042176	-0.078413	7.905809	-0.159872	-0.054968	0.040676	-0.621582	-0.12085	-0.384521
61.0	6.064124	-0.201839	7.909284	-0.172245	-0.06626	0.049536	-0.613037	-0.114502	-0.384521
62.0	6.084589	-0.215594	7.923523	-0.195364	-0.066158	0.045767	-0.615234	-0.114502	-0.382324
63.0	6.112865	-0.266802	7.874321	-0.209369	-0.068151	0.045285	-0.613037	-0.114502	-0.384521
64.0	6.049208	-0.265052	7.858237	-0.225063	-0.073071	0.044318	-0.617432	-0.112305	-0.378174
65.0	6.116923	-0.355589	7.81521	-0.228929	-0.081647	0.046173	-0.619629	-0.114502	-0.388916
66.0	6.116004	-0.433209	7.793984	-0.221404	-0.075715	0.042361	-0.617432	-0.112305	-0.380371
67.0	6.073565	-0.606382	7.728778	-0.192504	-0.069063	0.035261	-0.621826	-0.112305	-0.384521
68.0	6.004862	-0.785992	7.750827	-0.144029	-0.059523	0.01562	-0.62207	-0.108154	-0.382568
69.0	6.003243	-0.778618	7.876501	-0.097604	-0.06103	-0.01518	-0.617432	-0.112305	-0.380371
70.0	6.013314	-0.596169	7.834267	-0.055403	-0.079764	-0.036401	-0.617676	-0.108154	-0.378174
71.0	6.128281	-0.492671	7.78451	-0.01264	-0.081542	-0.05501	-0.624268	-0.108154	-0.382568
72.0	6.225501	-0.523181	7.678429	0.032809	-0.080377	-0.064251	-0.621826	-0.110352	-0.380371
73.0	6.193174	-0.486675	7.700846	0.069793	-0.063973	-0.067537	-0.621826	-0.112549	-0.375977
74.0	6.247556	-0.433098	7.744554	0.086256	-0.053007	-0.062832	-0.621826	-0.112549	-0.378174
75.0	6.214535	-0.412289	7.835259	0.092814	-0.037778	-0.061636	-0.621826	-0.110352	-0.375977
76.0	6.205193	-0.371618	7.806036	0.089336	-0.035347	-0.059313	-0.624023	-0.112305	-0.388916
77.0	6.176687	-0.368343	7.767466	0.081861	-0.023328	-0.05648	-0.621826	-0.110107	-0.388916
78.0	6.171817	-0.415805	7.750814	0.084153	-0.02029	-0.054331	-0.624268	-0.10376	-0.378174
79.0	6.18393	-0.41718	7.711261	0.089883	-0.002877	-0.053507	-0.621826	-0.114502	-0.380371
80.0	6.194788	-0.417891	7.672769	0.100445	0.012566	-0.05736	-0.617432	-0.112305	-0.378174
81.0	6.185877	-0.45397	7.625873	0.12484	0.032267	-0.059407	-0.623779	-0.116699	-0.380127
82.0	6.171239	-0.419267	7.63483	0.145024	0.049533	-0.064946	-0.624023	-0.114502	-0.378174
83.0	6.185421	-0.366354	7.648587	0.168887	0.067814	-0.066389	-0.623535	-0.123291	-0.380127
84.0	6.141482	-0.320258	7.680192	0.176375	0.083557	-0.074806	-0.62793	-0.121094	-0.380127
85.0	6.15815	-0.189861	7.644045	0.182969	0.097497	-0.071414	-0.621582	-0.116699	-0.382324
86.0	6.152841	-0.053727	7.752991	0.180223	0.104787	-0.063261	-0.619141	-0.123291	-0.37793
87.0	6.115197	0.082489	7.791383	0.162032	0.110892	-0.05549	-0.621582	-0.118652	-0.386719
88.0	6.100804	0.031214	7.816616	0.142969	0.110677	-0.045733	-0.616943	-0.127441	-0.382324
89.0	6.087268	0.113395	7.876847	0.115855	0.105561	-0.035832	-0.619141	-0.125244	-0.386719
90.0	6.061672	0.077644	7.907064	0.088418	0.095525	-0.024507	-0.623291	-0.129639	-0.384521
91.0	6.093778	0.047978	7.920112	0.069123	0.083343	-0.018801	-0.617188	-0.123047	-0.386719
92.0	6.038756	0.008304	7.878488	0.046651	0.074865	-0.005832	-0.621338	-0.125244	-0.380127
93.0	6.039466	-0.075047	7.896144	0.039272	0.065133	0.00467	-0.612549	-0.127441	-0.382324
94.0	6.061967	-0.08955	7.913003	0.020708	0.054531	0.004151	-0.614746	-0.125244	-0.380127
95.0	6.039299	-0.117194	7.873496	0.014414	0.048823	0.011347	-0.619141	-0.125244	-0.388916
96.0	6.05103	-0.113097	7.894839	0.006631	0.040357	0.012422	-0.619141	-0.125244	-0.382324
97.0	6.033088	-0.126025	7.912017	0.001652	0.037591	0.012884	-0.612793	-0.123047	-0.382324
98.0	6.029928	-0.118322	7.880657	-0.000579	0.032041	0.015115	-0.614746	-0.129639	-0.384521
99.0	6.048147	-0.185029	7.847721	-0.003986	0.028667	0.009756	-0.612549	-0.127441	-0.382324
100.0	6.063928	-0.14881	7.858749	0.000218	0.031114	0.013301	-0.621338	-0.125244	-0.384521
101.0	6.034387	-0.132875	7.847255	-0.00069	0.028502	0.008801	-0.619141	-0.123047	-0.388916
102.0	6.050803	-0.104864	7.891539	0.000926	0.024179	0.009512	-0.614746	-0.125244	-0.384521
103.0	6.048221	-0.088329	7.826076	0.000355	0.024029	0.007895	-0.619141	-0.123047	-0.388916
104.0	6.07382	-0.114074	7.874315	-0.002937	0.02419	0.008855	-0.616943	-0.125244	-0.386719
105.0	6.054262	-0.160461	7.899843	-0.003249	0.019255	0.010322	-0.619141	-0.127441	-0.382324
106.0	6.067326	-0.140304	7.852754	-0.004391	0.018956	0.007084	-0.614746	-0.125244	-0.384521
107.0	6.03878	-0.124517	7.840478	-0.005511	0.016183	0.008196	-0.614502	-0.129639	-0.380127
108.0	6.034397	-0.158358	7.850989	-0.004973	0.020043	0.003292	-0.617188	-0.12085	-0.382324
109.0	6.060138	-0.175728	7.865399	-0.003572	0.015556	0.009616	-0.61499	-0.12085	-0.391113
110.0	6.058887	-0.176261	7.866351	-0.002574	0.016035	6e-06	-0.61499	-0.12085	-0.386719
111.0	6.042324	-0.180216	7.84871	0.002412	0.018793	-0.00044	-0.610352	-0.125244	-0.384521
112.0	6.053028	-0.209056	7.878006	0.002402	0.02003	-0.002613	-0.621338	-0.127441	-0.384521
113.0	6.050936	-0.191499	7.812297	0.005125	0.019718	-0.005188	-0.61499	-0.123047	-0.386719
114.0	6.049512	-0.199021	7.847086	0.010101	0.023713	-0.007806	-0.614746	-0.125244	-0.388916
115.0	6.035806	-0.18538	7.887456	0.015079	0.027707	-0.010422	-0.617188	-0.123047	-0.386719
116.0	6.04836	-0.1625	7.840913	0.015877	0.026782	-0.012239	-0.621338	-0.123047	-0.382324
117.0	6.037386	-0.115122	7.872002	0.018358	0.030014	-0.015718	-0.614746	-0.125244	-0.382324
118.0	6.034838	-0.113034	7.873987	0.015732	0.035093	-0.008989	-0.614746	-0.129639	-0.384521
119.0	6.032244	-0.111191	7.876	0.014271	0.031096	-0.012938	-0.612549	-0.127197	-0.388916
120.0	5.999796	-0.125918	7.873849	0.012352	0.029247	-0.010008	-0.616943	-0.123047	-0.384521
121.0	6.000778	-0.099927	7.899548	0.006799	0.026336	-0.011188	-0.614746	-0.129395	-0.388916
122.0	6.025835	-0.107214	7.88096	0.002396	0.021256	-0.00478	-0.619141	-0.125244	-0.384521
123.0	6.012687	-0.103233	7.954357	-0.001222	0.017723	-0.004541	-0.614746	-0.127441	-0.386719
124.0	5.999223	-0.065826	7.893539	-0.005389	0.010334	0.000598	-0.619141	-0.123047	-0.384521
125.0	6.022562	-0.116232	7.917058	-0.013116	0.010357	-0.000743	-0.612793	-0.12085	-0.386719
126.0	6.036683	-0.096381	7.869348	-0.0148	0.006201	0.000917	-0.612793	-0.123047	-0.386719
127.0	6.030014	-0.155294	7.855177	-0.015605	0.008359	0.000563	-0.619141	-0.125244	-0.386719
128.0	6.035475	-0.098851	7.870244	-0.01367	0.007735	0.001986	-0.619141	-0.127441	-0.386719
129.0	6.031899	-0.133129	7.880123	-0.01367	0.007735	0.001986	-0.612793	-0.123047	-0.384521
130.0	6.034138	-0.101323	7.871238	-0.015842	0.010667	0.001832	-0.616943	-0.127441	-0.388916
131.0	6.021465	-0.08189	7.87704	-0.013437	0.006661	-0.001453	-0.612549	-0.127441	-0.386719
132.0	6.029761	-0.136851	7.881695	-0.016073	0.011738	0.005275	-0.617188	-0.123047	-0.388916
133.0	6.017025	-0.117922	7.887535	-0.015823	0.006956	0.008354	-0.617188	-0.12085	-0.391113
134.0	6.025401	-0.173175	7.892098	-0.016969	0.00913	0.000767	-0.616943	-0.125244	-0.388916
135.0	6.015581	-0.112535	7.85502	-0.018324	0.00743	0.005313	-0.610596	-0.12085	-0.386719
136.0	6.054188	-0.1516	7.863511	-0.019447	0.004657	0.006417	-0.617188	-0.12085	-0.386719
137.0	5.984846	-0.141322	7.884957	-0.020008	0.003271	0.00697	-0.608154	-0.127441	-0.384521
138.0	6.041666	-0.134996	7.86916	-0.020569	0.001884	0.007523	-0.619141	-0.123047	-0.386719
139.0	6.026653	-0.149623	7.88384	-0.02226	-0.001036	0.007006	-0.608398	-0.123047	-0.391113
140.0	6.026578	-0.151809	7.883856	-0.021934	0.002656	0.007725	-0.617188	-0.123047	-0.388916
141.0	6.02332	-0.178487	7.859818	-0.021696	0.000348	0.006457	-0.610352	-0.129395	-0.384521
142.0	6.026425	-0.155871	7.883893	-0.018968	4e-05	0.003886	-0.614746	-0.125244	-0.388916
143.0	6.023368	-0.190667	7.893246	-0.018406	0.001425	0.003336	-0.608398	-0.12085	-0.386719
144.0	6.053204	-0.167134	7.863953	-0.015111	0.001265	0.002385	-0.614746	-0.127441	-0.386719
145.0	6.010983	-0.164273	7.865286	-0.014549	0.002651	0.001835	-0.610352	-0.125244	-0.384521
146.0	6.025926	-0.161497	7.884161	-0.014317	0.001583	-0.001607	-0.61499	-0.123047	-0.384521
147.0	6.022537	-0.187064	7.860218	-0.010923	0.004944	0.003777	-0.614746	-0.129639	-0.382324
148.0	6.03411	-0.208279	7.855168	-0.006041	0.005423	-0.005161	-0.619141	-0.125244	-0.384521
149.0	6.009703	-0.167192	7.866203	-0.003546	0.006184	-0.004291	-0.612793	-0.123047	-0.384521
150.0	6.024299	-0.163226	7.885369	-0.001051	0.006944	-0.003421	-0.617188	-0.123047	-0.388916
151.0	6.038602	-0.150535	7.871229	-0.001859	0.010343	-0.005941	-0.619141	-0.123047	-0.388916
152.0	6.052829	-0.137836	7.857152	-0.002421	0.008956	-0.005391	-0.623779	-0.12085	-0.388916
153.0	6.02197	-0.154163	7.85363	-0.003225	0.011115	-0.00574	-0.612549	-0.125244	-0.388916
154.0	6.024201	-0.129622	7.87843	-0.002091	0.011409	-0.002497	-0.617188	-0.123047	-0.388916
155.0	6.035256	-0.141568	7.84028	-0.004353	0.009581	-0.00681	-0.610352	-0.125244	-0.388916
156.0	6.052502	-0.113211	7.883924	-0.00676	0.014818	-0.005687	-0.619141	-0.127441	-0.386719
157.0	6.021545	-0.129883	7.880456	-0.006277	0.007727	-0.003889	-0.608398	-0.125	-0.391113
158.0	6.047851	-0.138207	7.860978	-0.004582	0.009407	-0.001195	-0.614746	-0.125244	-0.388916
159.0	6.032043	-0.15105	7.876247	-0.005386	0.011566	-0.001544	-0.612549	-0.127441	-0.384521
160.0	6.004034	-0.126227	7.829991	-0.007876	0.009565	-0.000244	-0.621338	-0.127441	-0.386719
161.0	6.048504	-0.115155	7.886964	-0.009242	0.010337	-4.4e-05	-0.612549	-0.127197	-0.391113
162.0	6.014503	-0.156878	7.859296	-0.010608	0.011109	0.000158	-0.612793	-0.12085	-0.386719
163.0	6.040821	-0.174313	7.873314	-0.008438	0.008178	0.000306	-0.616943	-0.125244	-0.388916
164.0	6.012818	-0.158446	7.860554	-0.012214	0.015425	-0.000538	-0.608398	-0.123047	-0.391113
165.0	6.01482	-0.134777	7.885508	-0.008113	0.011869	0.001031	-0.610596	-0.123047	-0.388916
166.0	6.037867	-0.168006	7.842043	-0.009241	0.010335	-4.1e-05	-0.612793	-0.118652	-0.388916
167.0	6.037159	-0.177313	7.876056	-0.007874	0.009563	-0.000241	-0.610596	-0.12085	-0.388916
168.0	6.009444	-0.169801	7.896557	-0.007073	0.008645	-0.002063	-0.617432	-0.116455	-0.388916
169.0	6.023857	-0.15764	7.882381	-0.006835	0.00634	-0.003336	-0.61084	-0.118652	-0.395264
170.0	6.00844	-0.170665	7.897303	-0.009326	0.004339	-0.002039	-0.619385	-0.121094	-0.382324
171.0	6.008023	-0.171141	7.89761	-0.006835	0.00634	-0.003336	-0.612793	-0.12085	-0.386719
172.0	6.049436	-0.166894	7.863486	-0.002648	0.008779	0.000232	-0.61499	-0.123047	-0.388916
173.0	6.009731	-0.138341	7.889326	-0.002414	0.008956	-0.005381	-0.619141	-0.123047	-0.384521
174.0	6.063138	-0.162846	7.88335	-0.001048	0.008184	-0.005581	-0.612793	-0.123047	-0.386719
175.0	6.035358	-0.145777	7.870437	0.001444	0.010185	-0.006877	-0.614746	-0.127441	-0.388916
176.0	6.004449	-0.170281	7.900346	0.002569	0.012958	-0.007972	-0.621338	-0.123047	-0.386719
177.0	6.033412	-0.144574	7.871951	0.001768	0.013875	-0.006149	-0.610352	-0.127197	-0.391113
178.0	6.032427	-0.143989	7.872717	0.001443	0.011424	-0.009045	-0.616943	-0.123047	-0.384521
179.0	6.016512	-0.155968	7.888021	0.003136	0.011863	-0.004179	-0.61499	-0.123047	-0.388916
180.0	6.03066	-0.142897	7.87409	0.001445	0.010184	-0.006875	-0.616943	-0.127441	-0.386719
181.0	6.029698	-0.142411	7.874836	-0.000161	0.014499	-0.007569	-0.608398	-0.125	-0.391113
182.0	5.99285	-0.080594	7.891446	-0.005467	0.005565	-0.003537	-0.619141	-0.125244	-0.386719
183.0	6.02555	-0.175682	7.884977	-0.00603	0.004178	-0.00299	-0.61499	-0.12085	-0.388916
184.0	6.04324	-0.130542	7.861357	-0.011254	0.003719	-0.001295	-0.61499	-0.118652	-0.388916
185.0	6.043068	-0.139964	7.894919	-0.011015	0.001415	-0.002569	-0.612549	-0.125	-0.395264
186.0	6.027908	-0.144631	7.876165	-0.009887	0.001707	0.000674	-0.619141	-0.123047	-0.382324
187.0	6.015925	-0.124949	7.881463	-0.012703	-0.002745	-0.000928	-0.612549	-0.125244	-0.386719
188.0	6.028038	-0.146592	7.87603	-0.013744	0.000475	0.00217	-0.614746	-0.125244	-0.391113
189.0	6.013128	-0.151656	7.857075	-0.012137	-0.00384	0.002863	-0.612549	-0.127197	-0.391113
190.0	6.028211	-0.148955	7.875853	-0.014547	0.002632	0.001825	-0.621338	-0.125244	-0.388916
191.0	6.055113	-0.158204	7.855995	-0.01318	0.00062	0.003793	-0.618896	-0.129395	-0.388916
192.0	6.027977	-0.151418	7.875986	-0.013181	0.001861	0.001625	-0.619385	-0.116699	-0.386719
193.0	6.039911	-0.172996	7.870672	-0.010448	0.000319	0.001224	-0.61499	-0.12085	-0.388916
194.0	6.039792	-0.17394	7.870743	-0.010688	0.002622	0.0025	-0.621582	-0.12085	-0.388916
195.0	6.039565	-0.174807	7.870898	-0.009322	0.003093	0.000132	-0.612549	-0.127197	-0.388916
196.0	6.01207	-0.158676	7.857746	-0.005141	0.008015	-0.000633	-0.623779	-0.12085	-0.388916
197.0	6.03859	-0.17568	7.871626	-0.004902	0.005712	-0.001909	-0.619141	-0.123047	-0.391113
198.0	5.996094	-0.171947	7.873034	-0.00683	0.005095	-0.001162	-0.619141	-0.125244	-0.384521
199.0	6.02869	-0.122617	7.868445	-0.002973	0.006328	-0.002656	-0.612793	-0.118652	-0.386719
200.0	6.05212	-0.172502	7.891607	-0.003213	0.009872	-0.003547	-0.617188	-0.118896	-0.382324
201.0	6.024304	-0.14711	7.845292	-0.001283	0.009247	-0.002126	-0.610352	-0.125244	-0.386719
202.0	6.02359	-0.155796	7.879256	-0.001283	0.009246	-0.002126	-0.617188	-0.12085	-0.384521
203.0	6.019689	-0.179959	7.85574	0.001772	0.013878	-0.006131	-0.61499	-0.118652	-0.391113
204.0	6.036786	-0.15126	7.899515	8.3e-05	0.009717	-0.004494	-0.61499	-0.123047	-0.384521
205.0	6.033006	-0.175342	7.875914	0.002575	0.010479	-0.003618	-0.617188	-0.123047	-0.386719
206.0	6.020053	-0.154262	7.881989	0.003139	0.013107	-0.006331	-0.61499	-0.12085	-0.382324
207.0	6.031182	-0.165685	7.84393	-0.001845	0.010342	-0.005914	-0.610596	-0.122803	-0.395264
208.0	6.045351	-0.170235	7.896842	0.000647	0.011103	-0.005038	-0.617188	-0.123047	-0.388916
209.0	6.017481	-0.153271	7.883972	0.000647	0.009861	-0.002871	-0.610352	-0.125244	-0.384521
210.0	6.019618	-0.120028	7.875427	-0.004577	0.011881	-0.005512	-0.614746	-0.127441	-0.388916
211.0	6.004	-0.132565	7.890427	-0.001365	0.003253	-0.004133	-0.608154	-0.127197	-0.388916
212.0	6.042617	-0.169831	7.898943	-0.002649	0.008773	0.000244	-0.61499	-0.118652	-0.388916
213.0	6.00005	-0.148642	7.833565	-0.007392	0.004947	-0.002786	-0.614746	-0.125244	-0.391113
214.0	6.038747	-0.19499	7.875404	-0.004901	0.004467	0.000257	-0.619141	-0.123047	-0.384521
215.0	6.029326	-0.150359	7.905228	-0.006026	0.004177	-0.002986	-0.608398	-0.123047	-0.388916
216.0	6.029071	-0.150819	7.905414	-0.007956	0.002318	-7.4e-05	-0.619385	-0.118896	-0.382324
217.0	5.998908	-0.159159	7.86779	-0.006028	0.001693	0.001348	-0.612793	-0.118652	-0.384521
218.0	6.028836	-0.143445	7.872184	-0.012376	0.000939	-0.000204	-0.612549	-0.125244	-0.384521
219.0	6.025646	-0.186231	7.91488	-0.008197	0.003378	0.003371	-0.617188	-0.118896	-0.384521
220.0	6.055658	-0.161696	7.885833	-0.006912	-0.002141	-0.001007	-0.621338	-0.123047	-0.386719
221.0	6.043432	-0.14177	7.891323	-0.008999	0.006776	0.000862	-0.61499	-0.123047	-0.384521
222.0	6.025184	-0.170728	7.848429	-0.009643	0.000641	-0.002771	-0.612793	-0.123047	-0.386719
223.0	6.067122	-0.183993	7.880878	-0.00466	0.002165	-0.001019	-0.610352	-0.125244	-0.391113
224.0	6.051947	-0.179327	7.828761	-0.005221	0.003262	-0.004807	-0.610596	-0.12085	-0.388916
225.0	6.039481	-0.167495	7.867826	-0.001603	0.006798	-0.005019	-0.612793	-0.12085	-0.382324
226.0	6.011917	-0.141952	7.821347	-0.002969	0.007568	-0.004817	-0.619385	-0.118652	-0.393311
227.0	6.026101	-0.14643	7.874223	0.004507	0.012339	-0.006519	-0.612793	-0.123047	-0.386719
228.0	6.028268	-0.112518	7.865699	0.004185	0.00865	-0.007253	-0.610352	-0.125244	-0.386719
229.0	6.039419	-0.132457	7.861039	-0.000152	0.014502	-0.007538	-0.61499	-0.123047	-0.384521
230.0	6.053464	-0.119418	7.847286	8.8e-05	0.010958	-0.00665	-0.619141	-0.125244	-0.384521
231.0	6.04047	-0.098358	7.853373	0.003142	0.013107	-0.006316	-0.619141	-0.123047	-0.388916
232.0	6.036407	-0.130873	7.863378	0.004267	0.014639	-0.005238	-0.619385	-0.12085	-0.384521
233.0	6.035164	-0.139047	7.897697	0.003462	0.015553	-0.003415	-0.617188	-0.12085	-0.382324
234.0	6.04603	-0.150277	7.859921	0.002904	0.016649	-0.007201	-0.616943	-0.125244	-0.382324
235.0	6.035668	-0.104788	7.890441	0.002899	0.014166	-0.002869	-0.612793	-0.118652	-0.386719
236.0	6.037678	-0.071222	7.882022	0.002578	0.010477	-0.003604	-0.619385	-0.118652	-0.386719
237.0	6.043125	-0.158367	7.895509	-0.01037	0.006299	0.003223	-0.608398	-0.123047	-0.386719
238.0	6.000579	-0.155246	7.896805	-0.009564	0.005385	0.001402	-0.619141	-0.125244	-0.386719
239.0	6.04242	-0.160348	7.896009	-0.013184	0.000606	0.003775	-0.612793	-0.12085	-0.391113
240.0	6.042396	-0.161557	7.896002	-0.011818	-0.000163	0.003575	-0.617188	-0.123047	-0.386719
241.0	6.009493	-0.203572	7.867324	-0.012378	-0.000308	0.001954	-0.612793	-0.123047	-0.384521
242.0	6.054609	-0.175496	7.857154	-0.011012	-0.001078	0.001754	-0.616943	-0.127441	-0.388916
243.0	6.024413	-0.201472	7.886211	-0.007952	0.003556	-0.002241	-0.610352	-0.125244	-0.386719
244.0	6.039354	-0.180425	7.838455	-0.003293	0.001394	-0.001221	-0.614746	-0.125244	-0.391113
245.0	6.026888	-0.159913	7.84412	-0.002401	0.008953	-0.005356	-0.612793	-0.123047	-0.386719
246.0	6.04131	-0.155749	7.863443	0.000573	0.005114	-0.007037	-0.619385	-0.12085	-0.386719
247.0	6.010737	-0.171681	7.859478	0.002824	0.00942	-0.007043	-0.610352	-0.125244	-0.382324
248.0	6.054925	-0.150638	7.883402	0.003388	0.010807	-0.007586	-0.61499	-0.12085	-0.386719
249.0	6.011934	-0.14602	7.885052	0.001216	0.012489	-0.005562	-0.616943	-0.125244	-0.386719
250.0	6.03813	-0.153249	7.865934	0.005319	0.011424	-0.008328	-0.617188	-0.12085	-0.382324
251.0	6.025076	-0.140838	7.905364	0.000653	0.011101	-0.005019	-0.612793	-0.123047	-0.391113
252.0	6.012284	-0.111232	7.877942	8.9e-05	0.009714	-0.004476	-0.617188	-0.118896	-0.384521
253.0	6.026747	-0.098283	7.86391	0.001695	0.005403	-0.003792	-0.612793	-0.123047	-0.391113
254.0	6.038256	-0.118751	7.859004	-0.005137	0.009246	-0.002791	-0.616943	-0.125244	-0.388916
255.0	6.025581	-0.107338	7.898112	-0.005465	0.003074	0.000801	-0.617188	-0.118896	-0.384521
256.0	6.037602	-0.119749	7.859492	-0.0074	0.001214	0.003707	-0.619141	-0.123047	-0.384521
257.0	6.037563	-0.120697	7.859507	-0.012378	-0.000313	0.001948	-0.610596	-0.118652	-0.391113
258.0	6.022451	-0.143312	7.90732	-0.011263	-0.001266	0.007357	-0.616943	-0.127441	-0.388916
259.0	6.004794	-0.172883	7.863994	-0.012946	-0.002942	0.004656	-0.616943	-0.127441	-0.386719
260.0	6.046919	-0.18683	7.896323	-0.011012	-0.001081	0.001749	-0.612793	-0.12085	-0.386719
261.0	6.008086	-0.141827	7.854591	-0.009649	-0.003093	0.003713	-0.610596	-0.123047	-0.386719
262.0	6.062019	-0.175987	7.881773	-0.007633	0.005998	0.000662	-0.614746	-0.125244	-0.384521
263.0	6.043879	-0.195859	7.805517	-0.002971	0.00508	-0.000482	-0.614746	-0.125244	-0.384521
264.0	6.0161	-0.196786	7.859148	8.7e-05	0.008473	-0.002308	-0.614746	-0.125244	-0.384521
265.0	6.033256	-0.159541	7.869548	0.001214	0.011247	-0.003391	-0.610596	-0.123047	-0.382324
266.0	6.017543	-0.163172	7.851224	8.7e-05	0.008473	-0.002307	-0.621338	-0.123047	-0.388916
267.0	6.031613	-0.167979	7.904109	-0.000715	0.010628	-0.002648	-0.616943	-0.123047	-0.384521
268.0	6.045783	-0.164006	7.92362	-0.002397	0.008952	-0.005351	-0.621338	-0.123047	-0.386719
269.0	6.042407	-0.179401	7.866454	0.001453	0.007704	-0.002507	-0.614746	-0.125244	-0.386719
270.0	6.032448	-0.134334	7.896646	-0.000156	0.010772	-0.001025	-0.616943	-0.127441	-0.382324
271.0	6.043894	-0.145981	7.858497	-0.002397	0.008952	-0.00535	-0.612793	-0.123047	-0.382324
272.0	6.013002	-0.171124	7.888004	-0.001274	0.010483	-0.004269	-0.614746	-0.127441	-0.382324
273.0	6.039378	-0.17876	7.868794	-0.000466	0.00957	-0.006091	-0.610596	-0.118896	-0.382324
274.0	6.029577	-0.124773	7.865572	-0.00103	0.008183	-0.00555	-0.621338	-0.125244	-0.384521
275.0	6.043797	-0.120808	7.885045	-0.003204	0.009863	-0.003527	-0.612793	-0.118652	-0.384521
276.0	6.025526	-0.148892	7.84223	0.003058	0.003393	-0.001823	-0.61499	-0.123047	-0.384521
277.0	6.039866	-0.153778	7.894885	-0.006256	0.007713	-0.003867	-0.61499	-0.123047	-0.386719
278.0	6.027387	-0.124578	7.867253	-0.004082	0.006032	-0.005889	-0.61499	-0.12085	-0.384521
279.0	6.03882	-0.153972	7.895682	-0.004331	0.007089	-0.002444	-0.613037	-0.116699	-0.382324
280.0	6.03848	-0.145383	7.862669	-0.005454	0.005557	-0.003525	-0.612793	-0.123047	-0.393311
281.0	6.038001	-0.145533	7.863034	-0.005448	0.0068	-0.005688	-0.612549	-0.125244	-0.386719
282.0	6.049642	-0.157387	7.82477	-0.005692	0.009099	-0.004406	-0.616943	-0.125244	-0.380127
283.0	6.02438	-0.134059	7.902807	-0.003203	0.009862	-0.003524	-0.610596	-0.12085	-0.384521
284.0	6.021139	-0.149734	7.845583	-0.006011	0.005412	-0.005147	-0.621338	-0.123047	-0.384521
285.0	6.038423	-0.121721	7.889148	-0.004895	0.005701	-0.001902	-0.621094	-0.129639	-0.386719
286.0	6.035089	-0.155148	7.898511	-0.004093	0.003546	-0.001562	-0.619385	-0.118652	-0.386719
287.0	6.03498	-0.146701	7.865331	-0.007947	0.003549	-0.002244	-0.612793	-0.12085	-0.384521
288.0	6.037499	-0.12285	7.889838	-0.007389	0.003694	-0.000621	-0.619141	-0.125244	-0.384521
289.0	6.022278	-0.12728	7.871121	-0.009313	0.004317	-0.002043	-0.612549	-0.127441	-0.386719
290.0	6.034054	-0.148246	7.866013	-0.006017	0.004169	-0.002983	-0.61499	-0.123047	-0.386719
291.0	6.04869	-0.144859	7.88516	-0.010435	0.002785	-0.003125	-0.612549	-0.125244	-0.384521
292.0	6.018287	-0.16214	7.880948	-0.012848	0.008006	-0.001981	-0.616943	-0.125244	-0.388916
293.0	6.063043	-0.133814	7.871258	-0.008524	-0.000325	0.002622	-0.619385	-0.12085	-0.386719
294.0	6.020789	-0.130434	7.872209	-0.004901	0.004457	0.000262	-0.621582	-0.121094	-0.382324
295.0	6.047387	-0.147623	7.886107	-0.007633	0.005991	0.000664	-0.616943	-0.123047	-0.384521
296.0	6.043957	-0.181395	7.89551	-0.008748	0.005703	-0.002581	-0.619385	-0.118652	-0.388916
297.0	6.03175	-0.143805	7.834458	-0.007633	0.005991	0.000664	-0.608398	-0.12085	-0.384521
298.0	6.030981	-0.161971	7.901511	-0.005458	0.004313	-0.001359	-0.617188	-0.12085	-0.386719
299.0	6.060758	-0.137031	7.872962	-0.009305	0.00556	-0.004202	-0.610352	-0.125244	-0.384521
300.0	6.030081	-0.154012	7.868948	-0.006743	0.012307	-0.001291	-0.61499	-0.123047	-0.382324
301.0	6.029358	-0.154249	7.869497	-0.00352	0.006176	-0.00426	-0.616943	-0.127441	-0.382324
302.0	6.040864	-0.174911	7.864595	-0.004574	0.009385	-0.001153	-0.612549	-0.125244	-0.382324
303.0	6.042886	-0.150734	7.889498	-0.003201	0.009862	-0.003515	-0.616943	-0.123047	-0.384521
304.0	6.042366	-0.141965	7.856674	-0.003765	0.008474	-0.002975	-0.617188	-0.12085	-0.386719
305.0	6.041449	-0.150891	7.890596	-0.0032	0.009861	-0.003514	-0.616943	-0.125244	-0.380127
306.0	6.025846	-0.154805	7.872176	-0.003765	0.008474	-0.002975	-0.612549	-0.125244	-0.386719
307.0	6.055118	-0.138489	7.877275	-0.004574	0.009384	-0.001152	-0.617188	-0.12085	-0.388916
308.0	6.024346	-0.164143	7.906526	-0.004893	0.005699	-0.001897	-0.621338	-0.123047	-0.388916
309.0	6.039109	-0.142921	7.85916	-0.005138	0.007996	-0.000613	-0.61499	-0.123047	-0.384521
310.0	6.026245	-0.131567	7.898296	-0.005449	0.005555	-0.003519	-0.623779	-0.12085	-0.388916
311.0	6.035171	-0.176647	7.868926	-0.004893	0.005698	-0.001897	-0.617432	-0.116699	-0.384521
312.0	6.037449	-0.152645	7.893623	-0.006259	0.006465	-0.001696	-0.616699	-0.129639	-0.382324
313.0	6.034214	-0.177466	7.869641	-0.008189	0.005844	-0.000957	-0.614746	-0.125244	-0.384521
314.0	6.00946	-0.136856	7.880752	-0.004328	0.007086	-0.002434	-0.619385	-0.12085	-0.386719
315.0	6.03601	-0.153799	7.894701	-0.005457	0.00431	-0.001358	-0.61499	-0.12085	-0.384521
316.0	6.032761	-0.17818	7.870739	-0.003501	0.008665	-0.008578	-0.616943	-0.125244	-0.384521
317.0	6.04992	-0.141148	7.88122	-0.002651	0.008759	0.000274	-0.612549	-0.125244	-0.380127
318.0	6.034521	-0.145137	7.862643	-0.004082	0.004788	-0.003719	-0.616943	-0.125244	-0.388916
319.0	6.033866	-0.154066	7.896335	-0.003517	0.006175	-0.004256	-0.617188	-0.12085	-0.384521
320.0	6.04574	-0.165739	7.857975	-0.002961	0.006318	-0.002634	-0.612549	-0.125244	-0.384521
321.0	6.03015	-0.178513	7.872732	-0.002961	0.006318	-0.002634	-0.610352	-0.125244	-0.386719
322.0	6.029792	-0.169609	7.839822	-0.002388	0.00895	-0.005331	-0.616943	-0.125244	-0.384521
323.0	6.031642	-0.154066	7.898034	-0.002952	0.007563	-0.004793	-0.613037	-0.116699	-0.386719
324.0	6.031441	-0.145303	7.865002	-0.003534	0.003686	6.4e-05	-0.616943	-0.125244	-0.384521
325.0	6.046079	-0.132744	7.85098	-0.004874	0.008186	-0.006215	-0.616943	-0.125244	-0.384521
326.0	6.045126	-0.141673	7.884889	-0.002643	0.010002	-0.001884	-0.618896	-0.129639	-0.386719
327.0	6.044547	-0.132795	7.852159	-0.003189	0.011103	-0.005666	-0.608398	-0.12085	-0.391113
328.0	6.02861	-0.145351	7.867172	-0.001822	0.010337	-0.005866	-0.617188	-0.12085	-0.386719
329.0	6.042702	-0.141378	7.886752	-0.001832	0.009092	-0.003706	-0.612793	-0.121094	-0.380127
330.0	6.039293	-0.165721	7.862931	-0.006239	0.00895	-0.006013	-0.621338	-0.127441	-0.384521
331.0	6.014224	-0.124629	7.874254	0.000664	0.011102	-0.00498	-0.608398	-0.12085	-0.386719
332.0	6.022584	-0.178322	7.878526	-0.006495	0.010002	-0.002568	-0.617188	-0.118652	-0.386719
333.0	6.039741	-0.141536	7.889017	-0.002405	0.00646	-0.001009	-0.608154	-0.125244	-0.384521
334.0	6.024158	-0.145344	7.870581	-0.002623	0.01249	-0.0062	-0.619385	-0.12085	-0.386719
335.0	6.062762	-0.173522	7.846124	-0.004871	0.008184	-0.006213	-0.616943	-0.125244	-0.391113
336.0	6.022651	-0.14529	7.871736	-0.003197	0.009857	-0.003504	-0.617188	-0.12085	-0.391113
337.0	6.048874	-0.161961	7.885971	-0.003751	0.009714	-0.005126	-0.612793	-0.118652	-0.386719
338.0	6.006297	-0.148987	7.853892	0.000101	0.009713	-0.00444	-0.616943	-0.127441	-0.388916
339.0	6.047272	-0.161692	7.887204	-0.004553	0.011866	-0.005461	-0.610596	-0.123047	-0.388916
340.0	6.007348	-0.124573	7.879502	-0.004869	0.008183	-0.006212	-0.616943	-0.123047	-0.382324
341.0	6.058379	-0.173312	7.849513	-0.003513	0.006173	-0.004253	-0.614746	-0.125244	-0.388916
342.0	6.045481	-0.152809	7.855439	-0.001513	0.012774	-0.002951	-0.612549	-0.125244	-0.382324
343.0	6.047197	-0.128479	7.88054	-0.002078	0.011386	-0.002415	-0.610596	-0.12085	-0.384521
344.0	6.03152	-0.132369	7.862176	-0.005116	0.010478	-0.004924	-0.617188	-0.123047	-0.388916
345.0	6.000408	-0.157917	7.891521	-0.003998	0.012008	-0.003836	-0.610596	-0.123047	-0.384521
346.0	6.029812	-0.132623	7.863483	-0.005127	0.009233	-0.002765	-0.621582	-0.12085	-0.384521
347.0	6.043969	-0.128885	7.883009	-0.002947	0.007559	-0.004787	-0.614746	-0.127441	-0.388916
348.0	6.040331	-0.162243	7.892511	-0.006493	0.009997	-0.002564	-0.619141	-0.127441	-0.382324
349.0	6.01519	-0.121522	7.903826	-0.005115	0.010477	-0.004922	-0.616943	-0.123047	-0.384521
350.0	6.041871	-0.129553	7.884606	-0.006821	0.005069	-0.001158	-0.614746	-0.125244	-0.382324
351.0	6.023976	-0.158108	7.84153	-0.006256	0.006457	-0.001693	-0.61084	-0.116699	-0.386719
352.0	6.037882	-0.163448	7.894359	-0.00376	0.008467	-0.002963	-0.612793	-0.123047	-0.386719
353.0	6.025451	-0.134288	7.866796	-0.006809	0.006313	-0.003316	-0.61499	-0.123047	-0.382324
354.0	6.036811	-0.164013	7.895166	-0.006809	0.006313	-0.003315	-0.621582	-0.12085	-0.386719
355.0	6.036287	-0.164279	7.895561	-0.004324	0.007079	-0.002427	-0.612549	-0.127197	-0.388916
356.0	6.048194	-0.175934	7.857306	-0.004865	0.008181	-0.006207	-0.616943	-0.123047	-0.384521
357.0	6.023362	-0.13501	7.868384	-0.002156	0.004162	-0.002292	-0.616943	-0.123047	-0.384521
358.0	6.037865	-0.131291	7.887646	-0.00464	0.003396	-0.00318	-0.621338	-0.123047	-0.384521
359.0	6.049726	-0.151897	7.882531	-0.004075	0.004783	-0.003715	-0.610596	-0.12085	-0.384521
360.0	5.992059	-0.160851	7.897803	-0.002405	0.006456	-0.001003	-0.619141	-0.123047	-0.391113
361.0	6.036589	-0.131647	7.888617	-0.005429	0.006793	-0.005672	-0.612549	-0.125244	-0.391113
362.0	6.021394	-0.135756	7.869877	-0.007938	0.003536	-0.002245	-0.617188	-0.118896	-0.384521
363.0	6.011214	-0.1006	7.933183	-0.008212	0.003341	0.003358	-0.614746	-0.125244	-0.391113
364.0	6.002187	-0.048253	7.929426	-0.019618	-0.008672	0.004432	-0.619385	-0.12085	-0.386719
365.0	6.048084	-0.021975	7.919204	-0.039454	-0.012811	0.018672	-0.614746	-0.125244	-0.384521
366.0	5.988581	0.066165	7.978146	-0.059158	-0.029958	0.025385	-0.623779	-0.12085	-0.384521
367.0	5.989019	0.034242	7.951453	-0.089299	-0.046833	0.033299	-0.612549	-0.127197	-0.388916
368.0	6.01816	-0.1614	7.934126	-0.122418	-0.059638	0.030106	-0.612793	-0.12085	-0.384521
369.0	6.029267	-0.09847	7.879206	-0.15351	-0.064606	0.026107	-0.621582	-0.121094	-0.382324
370.0	6.048945	-0.11896	7.927427	-0.194436	-0.065422	0.01852	-0.619385	-0.116699	-0.384521
371.0	6.060321	-0.060861	7.872516	-0.218547	-0.066063	0.024174	-0.619385	-0.12085	-0.384521
372.0	6.105317	-0.271629	7.904631	-0.245517	-0.078404	0.028322	-0.617188	-0.121094	-0.380127
373.0	6.05134	-0.191682	7.927146	-0.274116	-0.089922	0.025509	-0.619385	-0.118896	-0.384521
374.0	6.08355	-0.132088	7.979966	-0.319195	-0.130771	0.024402	-0.619629	-0.114502	-0.382324
375.0	6.140522	-0.256751	7.889384	-0.368687	-0.155084	0.022311	-0.617432	-0.112305	-0.382324
376.0	6.165509	-0.298462	7.839221	-0.388161	-0.172222	0.016666	-0.621826	-0.114502	-0.384521
377.0	6.194319	-0.317825	7.812929	-0.411851	-0.181427	0.019468	-0.624023	-0.110107	-0.384521
378.0	6.211383	-0.307924	7.759236	-0.415992	-0.183144	0.019885	-0.624023	-0.108154	-0.373779
379.0	6.24244	-0.438592	7.717543	-0.405276	-0.15373	0.022434	-0.617676	-0.105957	-0.380371
380.0	6.25949	-0.424062	7.757424	-0.389477	-0.130983	0.02322	-0.628662	-0.10376	-0.382568
381.0	6.247115	-0.525149	7.744876	-0.371639	-0.094355	0.025349	-0.620117	-0.101563	-0.378174
382.0	6.265162	-0.575403	7.731371	-0.35356	-0.066447	0.036808	-0.626465	-0.10376	-0.384766
383.0	6.23317	-0.533074	7.712712	-0.333777	-0.047151	0.038895	-0.624512	-0.101563	-0.380371
384.0	6.181422	-0.669615	7.673481	-0.310414	-0.02686	0.045029	-0.628906	-0.097412	-0.382568
385.0	6.12524	-0.837122	7.64194	-0.270059	-0.012492	0.03987	-0.622559	-0.095215	-0.382568
386.0	6.134267	-0.901624	7.606805	-0.231966	-0.003714	0.036703	-0.628906	-0.095215	-0.380371
387.0	6.140443	-0.863178	7.623502	-0.186108	-0.003072	0.031113	-0.620361	-0.095215	-0.373779
388.0	6.106248	-0.905311	7.558627	-0.147776	0.013403	0.022292	-0.620117	-0.099365	-0.384766
389.0	5.976485	-0.947778	7.602637	-0.096213	0.004631	0.004269	-0.622559	-0.095215	-0.378174
390.0	6.105959	-0.799725	7.635162	-0.064925	0.00186	-0.001446	-0.624756	-0.091064	-0.375977
391.0	6.051957	-0.768027	7.610488	-0.038914	-0.00608	-0.009719	-0.620361	-0.095215	-0.380371
392.0	6.047708	-0.703743	7.668069	-0.012194	-0.02342	-0.017831	-0.631348	-0.088867	-0.378174
393.0	6.049229	-0.824181	7.58866	0.011905	-0.032014	-0.025347	-0.624756	-0.093018	-0.378174
394.0	6.034234	-0.867197	7.607367	0.050164	-0.038124	-0.037985	-0.622314	-0.099609	-0.380371
395.0	6.053249	-0.856371	7.624221	0.093744	-0.051847	-0.055965	-0.620117	-0.101807	-0.375977
396.0	6.027262	-0.848895	7.584249	0.138406	-0.049974	-0.067045	-0.628906	-0.099609	-0.373779
397.0	6.057161	-0.91616	7.699632	0.188419	-0.057057	-0.081302	-0.61792	-0.099609	-0.375977
398.0	5.996357	-0.838992	7.680482	0.241404	-0.06663	-0.099469	-0.620117	-0.099609	-0.378174
399.0	6.03877	-0.83821	7.90542	0.2879	-0.088593	-0.107025	-0.622314	-0.099609	-0.373779
400.0	6.031949	-0.774548	8.130827	0.32519	-0.106316	-0.116169	-0.633301	-0.099609	-0.373779
401.0	5.876852	-0.331174	8.640994	0.331008	-0.152939	-0.11537	-0.624268	-0.10376	-0.378174
402.0	5.344142	0.900215	9.366354	0.228343	-0.282107	-0.112211	-0.628662	-0.105957	-0.375977
403.0	4.627212	0.675184	9.969636	0.051876	-0.564961	-0.130318	-0.626465	-0.101807	-0.367432
404.0	1.867661	-4.791049	10.978992	0.015494	-1.069609	-0.294043	-0.63501	-0.108398	-0.358643
405.0	5.372731	-1.665879	10.392946	0.154851	-1.63228	-0.517564	-0.641602	-0.108643	-0.349854
406.0	5.292662	-2.155087	10.379886	0.411091	-1.979702	-0.675238	-0.645508	-0.115234	-0.336914
407.0	5.120604	-2.437053	10.28718	0.557997	-2.321727	-0.695393	-0.658447	-0.117676	-0.317383
408.0	5.308941	-1.135112	10.34282	0.728147	-2.67332	-0.681885	-0.662354	-0.130859	-0.300049
409.0	5.728286	-0.245755	10.531892	0.678829	-3.076812	-0.768095	-0.668457	-0.137695	-0.282715
410.0	6.418076	-0.759611	9.640507	0.612945	-3.478806	-0.798693	-0.675049	-0.135742	-0.260986
411.0	8.296732	-0.975783	9.343695	0.635747	-3.622719	-0.918706	-0.679199	-0.142578	-0.235107
412.0	8.31762	-2.358869	8.205438	0.637119	-3.807367	-1.064899	-0.694092	-0.149414	-0.211182
413.0	11.188657	-2.313293	8.727195	0.708737	-3.852097	-1.236353	-0.685059	-0.158203	-0.19165
414.0	13.901697	-3.149345	9.4805	0.647913	-3.534048	-1.412253	-0.699951	-0.165039	-0.167725
415.0	11.446119	-3.218676	10.032904	0.73284	-3.092462	-1.484041	-0.699707	-0.171631	-0.154785
416.0	7.267307	-5.584098	11.093475	0.586366	-2.448509	-1.278422	-0.699219	-0.178467	-0.137207
417.0	6.630658	-8.168157	11.465096	0.690756	-1.845565	-0.878528	-0.692871	-0.17627	-0.135254
418.0	5.182671	-7.487625	11.343943	0.804535	-0.855039	-0.405333	-0.690918	-0.171875	-0.135254
419.0	5.395207	-4.527347	12.592081	0.627899	-0.034317	-0.015323	-0.678223	-0.161133	-0.135254
420.0	0.519988	-4.036125	11.122647	0.255892	0.539741	0.054262	-0.682861	-0.154541	-0.154785
421.0	0.114594	-2.862441	10.400883	-0.064002	0.721032	-0.076777	-0.665527	-0.1521	-0.172119
422.0	1.340921	-1.894071	10.522187	-0.479123	1.018839	-0.187898	-0.666016	-0.141113	-0.187256
423.0	2.170318	-2.083567	10.308141	-0.884486	1.424274	-0.220302	-0.653564	-0.125488	-0.211182
424.0	2.241124	-2.850837	9.558395	-1.132758	1.804368	-0.199868	-0.634521	-0.112305	-0.226318
425.0	2.567337	-3.15331	8.95563	-1.212432	2.091889	-0.137699	-0.613525	-0.096924	-0.256836
426.0	3.171643	-2.98848	8.638779	-1.232803	2.315358	-0.008592	-0.59668	-0.079346	-0.271973
427.0	3.907297	-2.731556	8.433351	-1.243144	2.489455	0.187224	-0.567139	-0.05957	-0.295898
428.0	4.486946	-2.574844	8.269463	-1.225622	2.626973	0.435413	-0.548584	-0.03125	-0.311279
429.0	5.057196	-2.326686	8.200932	-1.173804	2.722552	0.672927	-0.514648	-0.011719	-0.324219
430.0	5.712494	-1.950553	8.144505	-1.111154	2.787371	0.896126	-0.487061	0.01001	-0.326416
431.0	6.357114	-1.84473	7.980794	-1.038491	2.821089	1.072029	-0.453125	0.033936	-0.337402
432.0	6.877532	-1.860775	7.8239	-0.951676	2.823437	1.211542	-0.423584	0.05542	-0.333008
433.0	7.287622	-1.869557	7.824051	-0.855267	2.784886	1.338609	-0.389648	0.081299	-0.32666
434.0	7.789921	-1.928349	7.848554	-0.776534	2.721239	1.470362	-0.364258	0.096191	-0.307129
435.0	8.069217	-1.862222	7.848768	-0.710199	2.641866	1.615992	-0.33667	0.115479	-0.294189
436.0	8.154704	-1.739537	7.86951	-0.677319	2.511174	1.753118	-0.311035	0.130371	-0.272461
437.0	8.382898	-1.507248	7.932077	-0.674926	2.35671	1.870263	-0.295898	0.134521	-0.248779
438.0	8.561038	-1.319753	7.938782	-0.687089	2.187304	1.948236	-0.276855	0.14917	-0.218506
439.0	8.777924	-1.036187	7.989403	-0.691132	2.01794	1.97755	-0.266113	0.157471	-0.187988
440.0	8.863982	-0.688517	7.973024	-0.694735	1.839608	1.969368	-0.270752	0.165527	-0.157715
441.0	8.930008	-0.241273	7.897915	-0.71415	1.660196	1.944718	-0.26001	0.169678	-0.131836
442.0	8.952705	0.096928	7.732938	-0.764574	1.47287	1.918366	-0.268555	0.166992	-0.097168
443.0	9.218828	0.288142	7.544836	-0.817219	1.284926	1.894776	-0.272705	0.166504	-0.068848
444.0	9.774164	0.372529	7.275117	-0.854453	1.144455	1.873888	-0.290039	0.16626	-0.047363
445.0	10.112766	0.397801	6.786092	-0.819551	1.055855	1.868878	-0.296631	0.165771	-0.025635
446.0	10.262504	0.71081	6.327523	-0.724152	0.991361	1.815255	-0.315918	0.161133	-0.008301
447.0	10.432218	0.825367	5.836166	-0.586594	0.969407	1.673354	-0.32251	0.163086	0.002441
448.0	10.439716	0.896502	5.165194	-0.388107	0.987477	1.413722	-0.337402	0.156494	0.017578
449.0	10.207565	1.381641	4.561439	-0.192386	1.011654	1.085082	-0.356934	0.154297	0.019775
450.0	10.087939	2.032977	3.970914	-0.075763	1.013146	0.750318	-0.37207	0.149658	0.030762
451.0	9.531035	2.292787	3.247873	-0.054206	0.986629	0.43688	-0.382568	0.143311	0.028564
452.0	8.898285	2.354065	2.421864	-0.094692	0.872157	0.171317	-0.393311	0.136719	0.034912
453.0	8.482208	2.149037	1.714514	-0.172898	0.675577	-0.056297	-0.404053	0.134521	0.034912
454.0	8.276323	1.68755	1.072169	-0.213376	0.398377	-0.24291	-0.419189	0.130127	0.041504
455.0	8.26631	1.293057	0.752541	-0.238992	0.096309	-0.374645	-0.42749	0.121338	0.045898
456.0	8.567119	0.859372	0.54643	-0.220696	-0.222536	-0.465004	-0.436035	0.116943	0.05249
457.0	8.318681	0.382661	0.231376	-0.168911	-0.546579	-0.552075	-0.442383	0.112549	0.061035
458.0	9.166066	0.759667	0.504193	-0.182366	-0.925265	-0.639635	-0.450684	0.101563	0.074219
459.0	10.916354	1.355585	1.325828	-0.405516	-1.204718	-0.637436	-0.450684	0.103271	0.095703
460.0	12.314026	0.801812	1.762096	-0.780412	-1.282401	-0.519482	-0.456787	0.092285	0.106689
461.0	11.243348	-0.815132	1.264114	-1.063488	-1.268658	-0.32184	-0.458496	0.085693	0.126221
462.0	9.917307	-2.423959	0.73859	-1.084235	-1.372964	-0.095785	-0.458496	0.083252	0.145752
463.0	8.954425	-4.173888	0.451569	-0.744856	-1.513386	0.065884	-0.45166	0.078857	0.163086
464.0	7.557206	-6.020325	2.097848	-0.128342	-1.601837	0.208192	-0.449463	0.080566	0.191162
465.0	2.521241	-28.672704	6.133412	2.956854	-2.501017	-0.368699	-0.449463	0.080078	0.219482
466.0	-8.158706	-13.672158	18.736262	4.886456	-0.749609	-0.851524	-0.45166	0.084229	0.241211
467.0	7.28034	-14.42394	8.582618	5.512623	-1.076077	-1.522841	-0.451416	0.077637	0.249756
468.0	-4.324753	27.267741	11.038874	8.947535	-1.204107	-3.033834	-0.45166	0.081543	0.275879
469.0	38.105674	63.013932	33.223105	1.969671	-2.883158	-1.747416	-0.459717	0.068604	0.280273
470.0	8.662979	0.859788	8.940442	-1.284256	0.662707	-1.061721	-0.459717	0.066162	0.286621
471.0	5.069108	-15.831189	4.418964	0.546335	-0.89779	-0.620045	-0.459961	0.072754	0.288818
472.0	14.416842	7.065865	13.38273	1.428064	-0.378667	-0.271586	-0.459961	0.070557	0.293213
473.0	2.230547	4.99369	8.233073	0.433393	-0.054586	-0.144837	-0.457764	0.070557	0.291016
474.0	6.779232	0.660413	8.767664	0.233034	-0.225247	0.001662	-0.459717	0.068359	0.293213
475.0	6.350911	1.332756	8.350385	0.07749	-0.258411	0.070381	-0.45752	0.068359	0.297607
476.0	6.318126	0.493497	7.937688	-0.084345	-0.239564	0.111551	-0.464355	0.07251	0.301758
477.0	6.460095	-1.078637	7.708277	-0.12951	-0.190175	0.115051	-0.453369	0.070557	0.293213
478.0	6.48564	-1.36501	7.830453	-0.100924	-0.160921	0.085246	-0.459961	0.074707	0.303955
479.0	6.418404	-0.484476	7.875001	-0.077428	-0.131729	0.051283	-0.455322	0.068359	0.297607
480.0	6.194613	-0.030122	8.000028	-0.121906	-0.133145	0.061514	-0.45752	0.070313	0.303955
481.0	6.00766	-0.610014	7.841912	-0.168557	-0.147104	0.076039	-0.453369	0.070313	0.301758
482.0	6.227836	-1.073448	7.80654	-0.179623	-0.133343	0.062594	-0.455322	0.068115	0.30835
483.0	6.134754	-0.284499	7.926298	-0.20461	-0.125923	0.064601	-0.453369	0.07251	0.301758
484.0	6.149304	-0.03905	7.962179	-0.275579	-0.139599	0.090562	-0.455322	0.068115	0.30835
485.0	6.206854	-0.052402	7.976089	-0.338608	-0.140625	0.11825	-0.44873	0.065918	0.30835
486.0	6.227493	-0.048539	8.047812	-0.396468	-0.149817	0.141228	-0.453125	0.065918	0.30835
487.0	6.287954	0.028651	7.979126	-0.440628	-0.15785	0.16358	-0.45752	0.068115	0.301758
488.0	6.509556	-0.275502	7.837285	-0.487251	-0.169177	0.189723	-0.453125	0.068115	0.310547
489.0	6.037367	-0.528008	7.71349	-0.425492	-0.155057	0.17446	-0.453125	0.068115	0.306152
490.0	6.274895	-0.88548	7.623863	-0.395424	-0.143331	0.158517	-0.451172	0.072266	0.316895
491.0	6.318581	-1.10997	7.545843	-0.31458	-0.118686	0.13187	-0.451172	0.07251	0.30835
492.0	6.321591	-1.065805	7.465648	-0.235952	-0.095056	0.089045	-0.453125	0.068115	0.310547
493.0	6.305217	-1.1885	7.394765	-0.134936	-0.066332	0.042953	-0.44873	0.065918	0.310547
494.0	6.262358	-0.759242	7.435012	-0.063525	-0.046867	0.003216	-0.453125	0.065918	0.314941
495.0	6.276011	-0.71315	7.480993	-0.003309	-0.029556	-0.026715	-0.44873	0.065918	0.30835
496.0	6.253394	-0.55178	7.57513	0.041985	-0.017824	-0.046538	-0.455322	0.068115	0.314941
497.0	6.207364	-0.578877	7.618513	0.060757	-0.013703	-0.053765	-0.450928	0.068115	0.30835
498.0	6.192363	-0.650555	7.578674	0.080998	-0.011428	-0.064723	-0.455322	0.068115	0.317139
499.0	6.166051	-0.786586	7.557471	0.08358	-0.006966	-0.070474	-0.453125	0.068115	0.30835
500.0	6.109406	-0.788169	7.607561	0.088226	-0.004255	-0.078304	-0.44873	0.068115	0.310547
501.0	6.113791	-1.047417	7.483132	0.107729	-0.003624	-0.082918	-0.44873	0.063721	0.312744
502.0	6.032224	-1.009094	7.453937	0.141174	-0.008591	-0.092421	-0.450928	0.068115	0.317139
503.0	6.029172	-0.963763	7.550737	0.168694	-0.032153	-0.093068	-0.444824	0.074463	0.317139
504.0	6.190584	-0.787623	7.555606	0.18774	-0.059537	-0.08424	-0.446777	0.070313	0.312744
505.0	6.134278	-0.639198	7.585666	0.204242	-0.072162	-0.074781	-0.440186	0.068115	0.312744
506.0	6.192304	-0.664579	7.642049	0.221365	-0.084683	-0.063631	-0.442139	0.063721	0.312744
507.0	6.221005	-0.450793	7.686507	0.233317	-0.093686	-0.057351	-0.446289	0.05957	0.310547
508.0	6.203036	-0.340472	7.721246	0.239475	-0.103072	-0.05093	-0.448486	0.059326	0.317139
509.0	6.242707	-0.305615	7.718907	0.230332	-0.111032	-0.030546	-0.448486	0.05957	0.310547
510.0	6.287538	-0.335073	7.754304	0.222595	-0.107915	-0.008072	-0.459473	0.063721	0.317139
511.0	6.300538	-0.380305	7.786832	0.215324	-0.096068	0.006153	-0.44873	0.065918	0.317139
512.0	6.259775	-0.537854	7.722703	0.230372	-0.077571	-0.003779	-0.453369	0.074463	0.319092
513.0	6.36382	-0.608022	7.715814	0.26522	-0.060657	-0.025313	-0.453369	0.072266	0.314941
514.0	6.409612	-0.504378	7.697334	0.303711	-0.038097	-0.045839	-0.455322	0.070068	0.323486
515.0	6.344133	-0.623722	7.716523	0.338488	-0.016526	-0.070479	-0.451172	0.072266	0.316895
516.0	6.273764	-0.377481	7.837286	0.351434	-0.016498	-0.08935	-0.453369	0.072266	0.321289
517.0	6.323291	-0.161176	7.859756	0.336095	-0.039692	-0.101777	-0.442383	0.072266	0.319092
518.0	6.05499	0.322403	8.328366	0.246921	-0.096908	-0.112648	-0.448975	0.070068	0.319092
519.0	5.856543	0.158716	8.437824	0.094634	-0.242825	-0.107309	-0.451172	0.074463	0.316895
520.0	5.734828	-0.173352	8.646801	0.033386	-0.376674	-0.092872	-0.453125	0.070068	0.327881
521.0	5.535359	-0.620398	8.789098	0.119077	-0.568286	-0.081532	-0.450928	0.067871	0.323486
522.0	5.943934	-0.029139	8.657221	0.082699	-0.771601	-0.084557	-0.450928	0.070068	0.327881
523.0	5.895404	0.233381	8.698451	0.065381	-0.966037	-0.081778	-0.444336	0.067871	0.327881
524.0	5.937385	0.586992	8.710593	0.030116	-1.186042	-0.063288	-0.444336	0.067871	0.33667
525.0	5.913157	0.428013	8.693856	0.009708	-1.405524	-0.0115	-0.444336	0.065674	0.338623
526.0	5.875266	0.053996	8.675633	0.037801	-1.646404	0.029389	-0.437744	0.065674	0.343018
527.0	5.931974	-0.143551	8.535591	0.127196	-1.89123	0.054904	-0.431396	0.067627	0.351807
528.0	5.746428	-0.098279	8.709217	0.215761	-2.132074	0.06941	-0.426758	0.06543	0.362549
529.0	5.726286	-0.019194	8.689765	0.238846	-2.412231	0.09349	-0.42041	0.06543	0.366943
530.0	5.571911	-0.127298	8.966261	0.205421	-2.720184	0.107257	-0.418213	0.067383	0.377686
531.0	5.366796	-0.036363	9.155089	0.163652	-3.098662	0.101771	-0.404785	0.060791	0.38208
532.0	5.055811	-0.744055	9.103113	0.050698	-3.511076	0.056259	-0.405029	0.064941	0.395264
533.0	4.722446	-0.914768	9.354809	0.019469	-4.042915	-0.073561	-0.391846	0.060547	0.406006
534.0	4.537381	-1.618832	9.170846	0.029266	-4.641114	-0.293533	-0.382568	0.051758	0.432129
535.0	3.494353	-2.182232	9.262262	0.142761	-5.312564	-0.529077	-0.367188	0.049316	0.442871
536.0	4.092267	-3.554872	8.915335	0.344429	-6.132825	-0.75181	-0.349609	0.042725	0.466797
537.0	5.805353	-3.575648	8.944653	0.672507	-6.928517	-1.121194	-0.325439	0.038086	0.49292
538.0	7.983001	-1.963688	7.293876	0.788322	-7.539315	-1.391092	-0.296875	0.031494	0.519043
539.0	14.821565	-1.057636	9.529578	1.046513	-8.334195	-1.65736	-0.263916	0.029053	0.542969
540.0	24.701033	0.636352	9.908325	0.519241	-8.063637	-1.348763	-0.237549	0.020264	0.5625
541.0	24.130727	0.023453	6.125301	0.514554	-7.916425	-1.612082	-0.206543	0.011719	0.575684
542.0	25.866657	-4.252914	11.355294	0.614286	-7.602679	-2.104766	-0.175781	0.003174	0.584473
543.0	20.789336	-3.968792	10.381787	0.667964	-6.942746	-2.284704	-0.164551	-0.007813	0.588867
544.0	25.21365	-2.449015	16.196664	0.149828	-6.691948	-2.183584	-0.146729	-0.018555	0.599854
545.0	23.14415	-2.78229	18.396966	-1.063411	-5.47767	-1.861634	-0.13916	-0.042236	0.602051
546.0	10.962104	-5.802286	18.480735	-1.519072	-3.644828	-1.611411	-0.144775	-0.065918	0.5979
547.0	4.090288	-13.672147	14.523334	-1.154023	-1.645954	-0.969284	-0.155029	-0.083008	0.600098
548.0	21.523133	-8.7797	22.938757	-0.520103	0.306525	-0.686098	-0.187256	-0.091797	0.5979
549.0	0.401584	-8.354673	15.694304	-0.399521	2.080679	-0.484746	-0.221436	-0.113281	0.582764
550.0	-4.215575	-4.664586	12.757735	-0.229331	1.798655	-0.658035	-0.249268	-0.124023	0.576172
551.0	-1.185985	-1.206666	12.122603	-0.673064	1.800528	-0.692315	-0.279053	-0.141113	0.556885
552.0	1.755342	-0.498518	11.763785	-1.34253	2.104069	-0.510713	-0.307129	-0.151611	0.539551
553.0	3.524283	-1.40726	10.877346	-1.820118	2.67578	-0.256651	-0.341064	-0.170898	0.522217
554.0	3.972296	-2.520658	9.926708	-1.946961	3.354287	-0.008565	-0.371094	-0.185791	0.493896
555.0	4.021071	-3.131384	9.275183	-1.741372	3.959735	0.157984	-0.401123	-0.200439	0.450684
556.0	4.310222	-2.471265	8.78348	-1.37863	4.479461	0.239186	-0.43335	-0.215088	0.426758
557.0	4.587693	-0.932213	8.38069	-1.10351	4.931926	0.274611	-0.457031	-0.223145	0.370605
558.0	4.622241	1.048496	8.115998	-1.03481	5.274322	0.283457	-0.485352	-0.225098	0.342285
559.0	4.477329	2.719477	7.863619	-1.216116	5.480232	0.279016	-0.504395	-0.243652	0.288086
560.0	4.409287	3.650179	7.548668	-1.57207	5.523834	0.287736	-0.523438	-0.256104	0.24707
561.0	4.745786	3.541912	7.197593	-1.950033	5.446925	0.31296	-0.531738	-0.268311	0.199463
562.0	5.559857	2.820237	7.090725	-2.227917	5.301838	0.364535	-0.546875	-0.274414	0.156006
563.0	6.74305	2.137216	7.223146	-2.364213	5.16282	0.453966	-0.550781	-0.288818	0.106201
564.0	8.157422	1.75808	7.556895	-2.402216	5.0364	0.580148	-0.565918	-0.296875	0.062988
565.0	9.591247	1.199622	7.581437	-2.376315	4.942689	0.731691	-0.563721	-0.29834	0.019531
566.0	10.180573	0.3321	7.355452	-2.243658	4.854272	0.932473	-0.576904	-0.297852	-0.025879
567.0	10.301006	-0.333369	7.526632	-2.023459	4.690077	1.170866	-0.574951	-0.292969	-0.069336
568.0	10.862661	-0.225588	8.383231	-1.831442	4.459867	1.488674	-0.582031	-0.281494	-0.108398
569.0	11.997129	0.040143	9.491723	-1.763627	4.249839	1.880062	-0.571777	-0.268066	-0.15625
570.0	13.131131	-0.129428	10.647642	-1.797307	4.095242	2.301923	-0.577148	-0.246094	-0.190918
571.0	14.74139	-0.803456	11.579427	-1.834607	3.995703	2.718969	-0.567139	-0.223877	-0.232178
572.0	16.335907	-1.923488	11.602576	-1.756668	3.922497	3.115556	-0.548828	-0.195313	-0.27124
573.0	16.902746	-2.228849	10.507417	-1.459429	3.79864	3.504944	-0.530273	-0.168945	-0.314697
574.0	17.248492	-0.991134	9.284517	-1.013628	3.450532	3.825254	-0.507324	-0.144775	-0.332275
575.0	19.338387	1.48646	7.929724	-0.601348	2.977119	3.967478	-0.479736	-0.125244	-0.351807
576.0	24.197089	5.640593	7.494038	-0.255614	2.556269	3.877364	-0.456299	-0.111816	-0.369141
577.0	31.067269	7.716555	5.959772	-0.069176	2.773824	3.552527	-0.43457	-0.111816	-0.377686
578.0	31.657729	7.281511	1.546517	0.143377	3.498159	2.797927	-0.412842	-0.109375	-0.384277
579.0	27.720306	7.453373	-3.492923	0.547501	3.971481	1.888558	-0.384521	-0.115479	-0.397217
580.0	23.624977	7.753761	-7.974387	0.919586	3.900261	1.131604	-0.373047	-0.130615	-0.39917
581.0	23.068537	9.177308	-10.953229	0.895444	3.273778	0.647418	-0.355225	-0.138916	-0.403564
582.0	23.58779	9.268924	-13.239683	0.309095	2.534946	0.249823	-0.352783	-0.147705	-0.403564
583.0	23.385127	9.314515	-14.551487	-0.394355	1.864527	-0.202544	-0.341797	-0.151855	-0.409912
584.0	22.033576	9.596018	-14.527008	-1.14683	1.225602	-0.655191	-0.332764	-0.158203	-0.407715
585.0	17.830356	0.09869	-17.420131	-0.88925	-0.461583	-1.272454	-0.330322	-0.166748	-0.405518
586.0	16.832728	-5.492087	-19.016333	0.710402	-0.903915	-1.75987	-0.340576	-0.182129	-0.394531
587.0	14.706026	-1.212833	-14.80065	3.50835	-1.94652	-1.872899	-0.337402	-0.205811	-0.385742
588.0	-3.577233	15.267325	20.842258	2.430565	-3.565343	-0.061973	-0.354736	-0.208496	-0.364258
589.0	9.982045	-6.286723	11.166774	0.810983	-3.894407	1.019003	-0.36499	-0.221436	-0.348877
590.0	9.719092	10.11971	8.626777	2.498168	-4.161838	-0.246586	-0.379639	-0.234863	-0.322754
591.0	23.504282	19.14696	19.002296	1.607416	-4.521751	-0.57159	-0.390137	-0.24585	-0.303223
592.0	42.120316	10.894701	19.137997	0.410216	-2.273226	-1.177523	-0.39209	-0.252441	-0.303223
593.0	-2.462332	-8.831134	3.058152	0.707565	-0.246474	-0.739551	-0.391846	-0.259033	-0.294678
594.0	11.679596	-0.34161	10.86567	1.651562	-1.642287	-0.73365	-0.395996	-0.261475	-0.277344
595.0	9.975338	9.523945	11.88653	0.933914	-0.192851	-0.412869	-0.391357	-0.269775	-0.285889
596.0	6.773018	-0.277185	8.545389	0.474364	-0.441878	-0.183865	-0.391113	-0.272217	-0.272949
597.0	7.456283	-2.956679	7.229524	0.435308	-0.031424	-0.141105	-0.393311	-0.271973	-0.281494
598.0	7.016363	-0.388811	8.129684	0.488964	0.009591	-0.166422	-0.390869	-0.278564	-0.274902
599.0	7.134049	-0.383932	8.023838	0.480185	0.156641	-0.187474	-0.386475	-0.278564	-0.270752
600.0	6.389907	-0.242296	8.190908	0.426126	0.222029	-0.18723	-0.386719	-0.276367	-0.2771
601.0	6.239587	-0.793599	7.969311	0.422331	0.245505	-0.208219	-0.384521	-0.278564	-0.281494
602.0	6.215881	0.175992	8.221379	0.417086	0.237499	-0.213014	-0.390625	-0.285156	-0.272705
603.0	5.852866	0.189901	8.247065	0.365333	0.222688	-0.186947	-0.38623	-0.289307	-0.274902
604.0	5.911584	0.689518	8.31271	0.291619	0.146789	-0.140408	-0.384277	-0.282715	-0.279297
605.0	5.86263	0.32948	8.281909	0.226501	0.089136	-0.097759	-0.381836	-0.291504	-0.274902
606.0	5.928822	0.472549	8.173898	0.187446	0.041775	-0.06685	-0.384033	-0.287354	-0.270508
607.0	5.892427	0.386317	8.008668	0.147928	0.012167	-0.038947	-0.383789	-0.291504	-0.2771
608.0	5.767535	0.735296	8.110851	0.115263	-0.023568	-0.000225	-0.383789	-0.295898	-0.274902
609.0	5.787318	0.753092	8.09316	0.061981	-0.071346	0.047313	-0.379395	-0.293701	-0.2771
610.0	5.761332	0.577133	8.154029	0.01982	-0.104006	0.0786	-0.384033	-0.287354	-0.270508
611.0	5.773612	0.298465	8.087668	-0.008681	-0.131496	0.095732	-0.384033	-0.287109	-0.274902
612.0	5.788289	0.025008	7.986575	-0.018008	-0.140267	0.098914	-0.390625	-0.289307	-0.270508
613.0	5.801002	0.006816	7.887364	-0.021371	-0.153183	0.105342	-0.390381	-0.289551	-0.268311
614.0	5.812319	0.117528	7.850984	-0.026399	-0.164204	0.115375	-0.384033	-0.287354	-0.26416
615.0	5.849307	0.203151	7.86317	-0.036364	-0.168328	0.134005	-0.388428	-0.287354	-0.270508
616.0	5.977173	-0.045289	7.947792	-0.031391	-0.160995	0.130724	-0.392822	-0.285156	-0.259766
617.0	5.906864	0.108589	8.023867	-0.033674	-0.158218	0.123343	-0.392822	-0.282959	-0.26416
618.0	5.96815	0.151513	8.027924	-0.049244	-0.165312	0.120534	-0.390625	-0.285156	-0.26416
619.0	6.034358	0.107773	8.048161	-0.047199	-0.1672	0.111436	-0.380127	-0.278564	-0.268555
620.0	6.041451	-0.088842	7.961695	-0.032705	-0.152353	0.081306	-0.380127	-0.276611	-0.26416
621.0	6.058517	-0.172772	7.935664	0.00251	-0.139701	0.044153	-0.379639	-0.287109	-0.272705
622.0	6.043664	-0.149696	7.879057	0.015882	-0.123953	0.008463	-0.381592	-0.295898	-0.266113
623.0	6.040194	-0.263307	7.84599	0.034608	-0.113751	-0.023508	-0.390137	-0.300293	-0.268311
624.0	6.047071	-0.145683	7.846303	0.054723	-0.103142	-0.057838	-0.396729	-0.295898	-0.26416
625.0	6.002847	-0.093404	7.901301	0.059699	-0.098189	-0.082659	-0.392578	-0.293701	-0.266357
626.0	5.944872	-0.162419	7.964508	0.069824	-0.098888	-0.110986	-0.394775	-0.289551	-0.268555
627.0	5.874026	-0.222834	8.099228	0.079412	-0.111692	-0.137529	-0.392578	-0.291748	-0.259766
628.0	5.836437	0.136545	8.235356	0.112535	-0.150913	-0.153861	-0.392578	-0.289551	-0.261963
629.0	5.680439	0.418231	8.418462	0.113987	-0.21276	-0.167596	-0.392822	-0.287354	-0.259766
630.0	5.592485	0.602076	8.54188	0.094575	-0.327433	-0.15453	-0.396973	-0.291748	-0.257568
631.0	5.677385	0.441337	8.553499	0.075128	-0.444824	-0.156829	-0.394531	-0.293945	-0.253174
632.0	5.729052	0.539341	8.559705	0.045553	-0.575215	-0.1648	-0.401123	-0.293945	-0.249023
633.0	5.771269	0.435314	8.497639	0.02685	-0.714725	-0.157736	-0.401123	-0.29834	-0.253174
634.0	5.747901	0.505529	8.605678	0.033807	-0.863918	-0.154313	-0.398926	-0.296143	-0.244629
635.0	5.77064	0.454957	8.679286	0.037244	-1.040232	-0.135079	-0.401123	-0.296143	-0.244629
636.0	5.779981	0.348123	8.78426	0.075947	-1.234644	-0.099043	-0.400879	-0.302979	-0.229248
637.0	5.783246	0.443614	8.815679	0.134605	-1.440219	-0.061951	-0.402832	-0.302979	-0.225098
638.0	5.739525	0.437762	8.623556	0.164918	-1.668694	-0.017651	-0.41626	-0.298828	-0.218506
639.0	5.751421	0.794592	8.793584	0.252773	-1.906444	0.045851	-0.409424	-0.303223	-0.205566
640.0	5.642613	0.441735	8.711435	0.285445	-2.179345	0.096068	-0.42041	-0.299072	-0.198975
641.0	5.539527	0.478744	8.846106	0.310517	-2.469989	0.12991	-0.422363	-0.303467	-0.188232
642.0	5.50512	0.173692	8.935445	0.315449	-2.799257	0.120722	-0.428711	-0.306152	-0.166504
643.0	5.628279	0.064964	9.15875	0.273644	-3.136597	0.02563	-0.433105	-0.304199	-0.153564
644.0	5.381645	0.06563	9.130483	0.179005	-3.475636	-0.091219	-0.44165	-0.311035	-0.127441
645.0	4.963407	0.737882	9.765449	-0.030183	-3.877248	-0.209334	-0.437256	-0.309082	-0.105957
646.0	4.398689	0.225582	10.208081	-0.303479	-4.347183	-0.321055	-0.443604	-0.313721	-0.088623
647.0	3.665246	-1.824459	9.170918	-0.376698	-4.943989	-0.599574	-0.436768	-0.318115	-0.068848
648.0	2.91991	-3.441839	8.288943	-0.063838	-5.727684	-0.985613	-0.438965	-0.320801	-0.030029
649.0	3.747797	-4.507213	8.122939	0.533475	-6.566725	-1.382968	-0.429199	-0.342773	0.000488
650.0	5.760504	-3.551609	7.589403	1.191313	-7.440862	-1.79508	-0.424316	-0.354004	0.039551
651.0	9.796526	-1.794824	7.461607	1.74645	-8.247662	-2.193734	-0.406494	-0.365234	0.083008
652.0	22.076443	2.771406	11.620681	2.328656	-8.679905	-2.303782	-0.386475	-0.372559	0.139404
653.0	30.082861	1.711596	8.764893	1.930197	-8.330462	-2.021715	-0.357666	-0.383789	0.182861
654.0	26.09317	0.935656	9.949781	1.954244	-8.117676	-2.302776	-0.33374	-0.379883	0.226318
655.0	26.120785	-4.362066	11.920299	1.649273	-7.355111	-2.22615	-0.29834	-0.393066	0.254639
656.0	27.052293	-3.438743	14.259194	1.602999	-7.164977	-2.232273	-0.272217	-0.386963	0.297852
657.0	24.343553	-2.169643	19.322335	0.538654	-5.875051	-1.965051	-0.24585	-0.391602	0.321777
658.0	14.362949	-3.493674	20.053343	-0.045368	-4.288784	-1.659171	-0.224121	-0.389648	0.345703
659.0	-1.946059	-6.658018	13.991954	-0.363324	-2.508293	-1.269798	-0.204834	-0.385498	0.363037
660.0	22.356528	-4.350793	19.812732	-0.33692	-1.555994	-0.812845	-0.205078	-0.379395	0.375977
661.0	12.235836	-7.08136	17.145713	-0.752151	1.121643	-0.573512	-0.209229	-0.383545	0.380371
662.0	-0.61194	-7.888576	10.702264	-0.407106	1.617578	-0.56094	-0.218018	-0.381592	0.382568
663.0	-0.484564	-5.146591	9.753615	-0.120919	1.618686	-0.710212	-0.222412	-0.377441	0.386963
664.0	1.543989	-2.657356	9.36373	-0.30603	1.858688	-0.678848	-0.233887	-0.364502	0.391113
665.0	3.39397	-1.931608	9.255639	-0.664861	2.276934	-0.438813	-0.245117	-0.351563	0.382324
666.0	4.601118	-2.305442	8.377127	-0.977836	2.859713	-0.138465	-0.260986	-0.33667	0.384521
667.0	5.208243	-3.162943	7.689715	-1.081025	3.502817	0.054208	-0.276855	-0.323486	0.369141
668.0	5.67337	-3.690353	7.34682	-0.932652	4.129436	0.14278	-0.291016	-0.29126	0.360352
669.0	5.909915	-2.938018	7.070471	-0.699952	4.721018	0.169372	-0.300781	-0.267578	0.355713
670.0	5.922133	-1.236025	7.049403	-0.574336	5.242295	0.145632	-0.315186	-0.233154	0.359863
671.0	5.443491	0.863373	6.692598	-0.71143	5.626324	0.13323	-0.318848	-0.196533	0.357666
672.0	4.895068	2.417582	6.185678	-1.074728	5.801819	0.156486	-0.341553	-0.168945	0.374756
673.0	4.656641	3.087012	5.589217	-1.561676	5.767247	0.243418	-0.359863	-0.147705	0.381104
674.0	4.900956	2.771359	5.133371	-2.018174	5.581534	0.386988	-0.393555	-0.115723	0.393799
675.0	5.497022	2.019663	4.85815	-2.307603	5.330345	0.57733	-0.429199	-0.09668	0.408936
676.0	6.617664	1.465603	4.938608	-2.429847	5.071839	0.777226	-0.475586	-0.075439	0.415283
677.0	7.991671	1.210608	5.246585	-2.419601	4.861761	0.990778	-0.524414	-0.054199	0.421631
678.0	9.044543	1.051634	5.559729	-2.336554	4.694893	1.193817	-0.57959	-0.037109	0.416992
679.0	9.919722	0.860388	5.723281	-2.200109	4.567963	1.396409	-0.641113	-0.022217	0.4104
680.0	10.411199	0.682035	6.054538	-2.037163	4.429529	1.628609	-0.698242	-0.009277	0.390625
681.0	10.942494	0.572908	6.611021	-1.887788	4.277069	1.893499	-0.76416	0.005859	0.368896
682.0	11.723856	0.563957	7.449432	-1.779205	4.144794	2.198996	-0.828125	0.023438	0.322998
683.0	12.734342	0.774858	8.607568	-1.753353	4.084721	2.513391	-0.889404	0.030762	0.251465
684.0	13.773361	0.705202	9.764166	-1.800767	4.098386	2.782958	-0.951172	0.044434	0.164551
685.0	14.643898	0.737572	10.692384	-1.881282	4.161756	2.997981	-0.97583	0.061035	0.047363
686.0	15.186198	0.691538	11.231994	-1.97758	4.186961	3.160307	-0.979492	0.09082	-0.076416
687.0	16.129654	0.857946	11.32963	-2.101357	4.097088	3.296249	-0.946289	0.122559	-0.195557
688.0	17.705724	1.090047	10.883655	-2.193778	3.934237	3.420574	-0.876953	0.182373	-0.306396
689.0	19.870779	1.593371	9.757913	-2.191892	3.724376	3.517097	-0.779053	0.239502	-0.367188
690.0	21.775022	3.61314	8.208632	-1.987222	3.523847	3.526735	-0.678711	0.287354	-0.375977
691.0	23.976787	5.727153	6.606704	-1.729508	3.339559	3.317549	-0.594727	0.313232	-0.349854
692.0	25.669681	6.052384	3.683061	-1.405062	3.410686	2.772472	-0.533691	0.310791	-0.312988
693.0	24.598623	6.318637	0.194774	-0.868023	3.527098	2.062697	-0.491455	0.293213	-0.280273
694.0	23.378541	7.276711	-3.005622	-0.405422	3.435062	1.508965	-0.481934	0.271484	-0.256348
695.0	22.030486	7.733784	-6.44202	-0.120837	3.1271	1.132943	-0.471924	0.239014	-0.243164
696.0	20.081963	8.403436	-10.011225	-0.026099	2.60684	0.744224	-0.475342	0.213379	-0.245117
697.0	18.774561	10.404434	-12.215811	-0.233978	1.780783	0.226506	-0.480713	0.189453	-0.234131
698.0	15.249409	9.520895	-12.376443	-0.759193	0.678979	-0.459626	-0.490967	0.169678	-0.2146
699.0	19.265306	7.697429	-16.062218	-0.398012	-0.836046	-1.209842	-0.496582	0.145996	-0.203613
700.0	20.058085	0.886751	-19.109583	0.737859	-1.659589	-2.01342	-0.506592	0.128418	-0.184082
701.0	17.602995	-0.62661	-21.61369	3.307946	-2.04431	-2.814882	-0.524902	0.093506	-0.155762
702.0	-10.455939	14.926642	16.370314	4.26344	-3.279378	-2.810447	-0.54126	0.073486	-0.114502
703.0	22.97031	2.918858	19.518774	1.570667	-4.947522	-1.109181	-0.545166	0.060303	-0.081787
704.0	14.06656	10.039138	9.589012	2.501969	-3.678452	-1.316449	-0.559814	0.044678	-0.049316
705.0	22.956634	12.426872	17.683199	1.298248	-4.318777	-0.922805	-0.563232	0.0271	-0.023193
706.0	40.263087	6.44104	17.35327	0.798007	-2.513351	-1.17627	-0.56543	0.024658	-0.010254
707.0	3.317598	-4.296853	5.405712	1.059599	-0.517942	-0.607537	-0.565186	0.020264	-0.003662
708.0	8.31965	0.956478	9.999374	1.428767	-1.4249	-0.570845	-0.567383	0.018066	0.009277
709.0	9.249047	5.876732	11.665977	1.106189	-0.853098	-0.47239	-0.564697	0.007324	0.011475
710.0	7.37625	3.896601	8.853307	0.394534	-0.256102	-0.185266	-0.571533	0.015869	0.015869
711.0	8.440524	-3.329691	7.723328	0.438786	-0.316075	-0.102838	-0.571289	0.009277	0.011475
712.0	6.571608	0.052756	7.967571	0.436967	-0.017326	-0.126374	-0.573486	0.013672	0.018066
713.0	6.650738	1.498536	8.373601	0.31478	-0.015039	-0.090232	-0.564697	0.00708	0.020264
714.0	6.721387	0.792601	8.245254	0.211976	-0.005854	-0.030525	-0.569092	0.011475	0.020264
715.0	6.444237	0.13748	8.121358	0.157811	0.009842	0.00078	-0.569336	0.013672	0.015869
716.0	6.304115	-0.310839	8.040315	0.128412	0.026002	0.008436	-0.571533	0.013672	0.015869
717.0	6.129443	0.053958	8.191237	0.130079	0.016926	0.01228	-0.569336	0.017822	0.018066
718.0	6.239674	-0.204569	8.132638	0.100881	0.003429	0.025938	-0.569336	0.013428	0.020264
719.0	6.177876	0.351486	8.189801	0.080788	-0.029931	0.03871	-0.567139	0.015625	0.020264
720.0	6.124662	0.097864	8.034753	0.044033	-0.053976	0.059152	-0.569336	0.015869	0.015869
721.0	6.056328	-0.161875	7.984134	0.024931	-0.064392	0.063655	-0.569336	0.013672	0.018066
722.0	6.037734	-0.250386	7.922947	0.017351	-0.07134	0.056657	-0.56958	0.022217	0.018066
723.0	6.095593	-0.193132	7.774703	0.008637	-0.086982	0.056005	-0.569336	0.015625	0.020264
724.0	6.089511	-0.653365	7.625294	0.033557	-0.061731	0.036676	-0.56958	0.02002	0.02002
725.0	6.098582	-0.60074	7.670234	0.082544	-0.035363	0.015761	-0.564941	0.017822	0.020264
726.0	6.057098	-0.365793	7.685916	0.101647	-0.010643	-0.003656	-0.567383	0.02002	0.02002
727.0	5.992467	-0.301245	7.785075	0.102411	-0.00564	-0.01072	-0.571533	0.013428	0.022217
728.0	5.942197	-0.472488	7.829519	0.097368	-0.010653	-0.018944	-0.567383	0.024414	0.02002
729.0	5.933225	-0.434902	7.799809	0.095707	-0.021835	-0.022754	-0.564941	0.015625	0.020264
730.0	6.007147	-0.184258	7.786903	0.095823	-0.019422	-0.027098	-0.56958	0.021973	0.024414
731.0	6.023034	0.068039	7.878431	0.072074	-0.015733	-0.014064	-0.567139	0.018066	0.013672
732.0	5.988209	0.128554	7.923875	0.052912	-0.024965	0.00122	-0.567139	0.015625	0.020264
733.0	5.968558	0.311197	8.08636	0.023938	-0.045427	0.029708	-0.571777	0.02002	0.024414
734.0	5.92023	0.344943	8.177425	-0.013614	-0.07788	0.051045	-0.56958	0.02417	0.028809
735.0	6.043988	0.119918	8.037644	-0.037751	-0.098071	0.063431	-0.565186	0.02002	0.026611
736.0	6.040511	0.133754	8.035999	-0.043974	-0.103488	0.064882	-0.560791	0.017822	0.026611
737.0	6.088266	-0.025218	7.907363	-0.05031	-0.113678	0.062164	-0.562744	0.013672	0.020264
738.0	6.124985	-0.15325	7.873456	-0.04445	-0.114329	0.05152	-0.566895	0.00708	0.026611
739.0	6.117735	-0.170518	7.881194	-0.031589	-0.103353	0.030132	-0.571045	0.004883	0.026611
740.0	6.10248	-0.131064	7.883943	-0.004007	-0.098783	0.00813	-0.571289	0.013428	0.028809
741.0	6.128887	-0.094016	7.887159	0.009718	-0.094694	-0.009801	-0.567139	0.013428	0.022461
742.0	6.105727	0.003783	7.884861	0.009503	-0.094645	-0.030007	-0.573486	0.013428	0.033203
743.0	6.047973	-0.176635	7.905257	0.009328	-0.102901	-0.053453	-0.569336	0.013428	0.026611
744.0	6.100561	-0.159606	7.956092	0.011983	-0.109106	-0.083796	-0.573486	0.009033	0.0354
745.0	5.95199	-0.168935	8.011789	0.003538	-0.126925	-0.111385	-0.573486	0.01123	0.033203
746.0	5.743852	-0.222691	8.249162	0.010963	-0.161608	-0.135114	-0.569092	0.009033	0.031006
747.0	5.426179	0.519166	8.592192	0.071163	-0.284755	-0.134529	-0.571045	0.006836	0.031006
748.0	5.898655	0.44936	8.243413	0.013396	-0.439403	-0.107222	-0.571289	0.01123	0.039795
749.0	5.80114	0.604486	8.353628	-0.013651	-0.524355	-0.093172	-0.573242	0.004639	0.0354
750.0	5.787834	0.527453	8.513259	-0.063097	-0.662975	-0.069703	-0.569092	0.010986	0.043945
751.0	5.67795	0.200397	8.713988	-0.103722	-0.836625	-0.060044	-0.573242	0.004639	0.041992
752.0	5.759083	0.17919	8.728383	-0.100482	-1.019667	-0.055949	-0.568848	0.002441	0.04834
753.0	5.795717	0.237485	8.733051	-0.092554	-1.213357	-0.045065	-0.570801	0.000244	0.052734
754.0	5.843503	0.238816	8.712813	-0.05383	-1.427268	-0.017575	-0.566406	-0.002197	0.065674
755.0	5.775212	0.006425	8.755358	0.008632	-1.644554	0.01471	-0.570557	-0.006348	0.065674
756.0	5.796524	-0.408837	8.669263	0.101668	-1.886352	0.031924	-0.568359	-0.008789	0.07666
757.0	5.731303	-0.440247	8.757856	0.211624	-2.141929	0.04134	-0.568115	-0.010986	0.081055
758.0	5.531115	-0.371728	8.912183	0.296174	-2.436992	0.029237	-0.561523	-0.01123	0.096191
759.0	5.310383	0.427136	9.486519	0.311551	-2.794462	0.021407	-0.559082	-0.017578	0.100586
760.0	5.03189	0.46787	9.9927	0.228434	-3.225868	0.018605	-0.561279	-0.017822	0.122314
761.0	4.799355	-0.090641	10.519257	0.09148	-3.72646	-0.087537	-0.554199	-0.028809	0.133057
762.0	4.047749	-1.121473	10.695474	-0.065716	-4.294879	-0.308767	-0.547607	-0.033447	0.15918
763.0	2.849941	-1.717317	10.396981	-0.197596	-5.034421	-0.519932	-0.546875	-0.046631	0.178711
764.0	2.509104	-3.926826	9.71367	0.065192	-5.929569	-0.811976	-0.528809	-0.062012	0.207031
765.0	2.910173	-4.63668	9.131141	0.576768	-6.866806	-1.3085	-0.516846	-0.088135	0.239746
766.0	4.832015	-3.362329	8.340068	1.060573	-7.990425	-1.76281	-0.494629	-0.099365	0.281006
767.0	9.287071	-1.687759	8.807423	1.494893	-8.74216	-2.096886	-0.471924	-0.123535	0.320068
768.0	20.975253	1.248945	11.354033	1.736646	-9.258499	-2.063312	-0.434326	-0.136963	0.359375
769.0	29.840716	1.054028	6.590999	1.450947	-8.67677	-1.883697	-0.400635	-0.162842	0.387695
770.0	26.406287	-1.818168	9.578782	1.489786	-8.496415	-2.355542	-0.367432	-0.174072	0.420166
771.0	22.982207	-4.578042	10.820273	1.50269	-7.578815	-2.501765	-0.329346	-0.202148	0.444336
772.0	22.869185	-4.325295	14.078777	1.363986	-7.393478	-2.580131	-0.289307	-0.22168	0.468262
773.0	26.459351	-2.888858	19.133316	0.38075	-6.350006	-2.291349	-0.266113	-0.256104	0.477295
774.0	17.090386	-3.08488	19.493763	-0.552517	-4.274933	-1.712229	-0.245605	-0.277588	0.486084
775.0	0.808777	-11.017007	16.914072	-0.761967	-1.811604	-0.970946	-0.233887	-0.303467	0.479736
776.0	24.256681	-7.473231	23.083053	-0.40929	-0.252704	-0.352156	-0.237305	-0.324707	0.475342
777.0	5.337518	-8.800288	16.666573	-0.589225	2.352177	-0.096031	-0.249268	-0.354736	0.458252
778.0	-6.283432	-7.704771	10.484091	-0.191741	2.141415	-0.259652	-0.259766	-0.367676	0.462646
779.0	-2.805063	-3.587363	9.688356	-0.195121	1.771721	-0.489183	-0.263184	-0.391113	0.44751
780.0	1.057865	-1.532755	9.565314	-0.640081	1.863207	-0.460802	-0.266846	-0.40625	0.443359
781.0	4.562024	-1.532369	9.474101	-1.148709	2.366809	-0.227732	-0.279053	-0.429932	0.432617
782.0	5.679343	-2.373592	8.815855	-1.466453	3.152567	0.07814	-0.29126	-0.451172	0.413086
783.0	5.635713	-3.48577	8.227184	-1.446984	3.914471	0.295827	-0.314941	-0.46167	0.389404
784.0	5.22488	-3.850046	7.540921	-1.164266	4.548722	0.401819	-0.338623	-0.469971	0.37207
785.0	5.368397	-2.887298	7.035978	-0.819211	5.041182	0.435289	-0.362305	-0.476318	0.354492
786.0	5.692233	-0.947797	6.747174	-0.646717	5.455956	0.464749	-0.392578	-0.482666	0.337158
787.0	5.535573	0.794366	6.443876	-0.742833	5.753558	0.504127	-0.421143	-0.480225	0.304688
788.0	5.15393	1.920133	6.105602	-1.058348	5.867662	0.570774	-0.44751	-0.471436	0.280762
789.0	5.056836	2.340453	5.956338	-1.462517	5.798016	0.64563	-0.478027	-0.471191	0.248291
790.0	5.532683	2.329275	6.078951	-1.872369	5.607585	0.723763	-0.50708	-0.457764	0.215576
791.0	6.679896	2.029007	6.397968	-2.218542	5.391472	0.82086	-0.529541	-0.444336	0.169922
792.0	8.196884	1.557836	6.746569	-2.458863	5.215816	0.913079	-0.554199	-0.426758	0.124268
793.0	9.765193	0.920564	6.916929	-2.569726	5.110328	0.998313	-0.567871	-0.40918	0.095947
794.0	10.96459	0.267334	6.920554	-2.533464	5.023069	1.093612	-0.581787	-0.391357	0.050293
795.0	11.509545	-0.560967	6.688739	-2.380888	4.917014	1.22925	-0.591064	-0.375732	0.013428
796.0	11.868396	-1.114805	6.904697	-2.154431	4.723796	1.452402	-0.603027	-0.349609	-0.012695
797.0	12.681171	-1.297216	7.925834	-1.955665	4.480583	1.794794	-0.606445	-0.325439	-0.05835
798.0	14.028753	-1.159043	9.434713	-1.862435	4.274725	2.273248	-0.61377	-0.303711	-0.07373
799.0	15.60361	-1.133203	10.899423	-1.862176	4.140899	2.808438	-0.619385	-0.270996	-0.104248
800.0	17.443682	-1.298551	12.032566	-1.891655	4.096462	3.292717	-0.627441	-0.234131	-0.128174
801.0	19.098432	-1.132056	12.265239	-1.896248	4.090802	3.676383	-0.630615	-0.210205	-0.154297
802.0	20.620791	-0.262731	11.582964	-1.823063	4.083161	3.957995	-0.636475	-0.171143	-0.171875
803.0	22.639811	1.408046	10.291089	-1.673714	4.041864	4.073914	-0.635254	-0.149414	-0.197998
804.0	22.861612	4.906856	8.64985	-1.502223	3.971531	3.990318	-0.647705	-0.110596	-0.213379
805.0	24.068307	6.676459	6.260664	-1.457768	3.826348	3.562284	-0.648926	-0.082031	-0.246094
806.0	24.395547	6.328642	2.951882	-1.291976	3.776337	2.829109	-0.645264	-0.064453	-0.267822
807.0	23.460973	6.622147	-0.391262	-0.899073	3.665521	2.090098	-0.639648	-0.042725	-0.293945
808.0	22.788255	7.775392	-3.414	-0.523516	3.390944	1.640891	-0.642334	-0.029541	-0.315674
809.0	21.761784	8.037724	-7.054058	-0.29365	3.004026	1.378891	-0.634033	-0.018311	-0.337402
810.0	19.630415	9.177793	-10.744085	-0.01273	2.420474	1.056918	-0.63208	-0.011719	-0.346191
811.0	18.058128	11.72201	-13.221866	-0.019466	1.571543	0.541532	-0.632324	-0.007324	-0.356934
812.0	19.5026	13.763442	-14.114237	-0.472178	0.65888	-0.152022	-0.634766	-0.000977	-0.356934
813.0	20.75587	13.169534	-14.246548	-1.017028	0.02292	-0.833025	-0.634766	-0.005127	-0.365723
814.0	20.663652	10.586672	-13.309341	-1.127997	-0.490025	-1.440372	-0.638916	-0.009521	-0.354736
815.0	13.234702	0.0762	-5.102718	-0.918176	-0.663217	-1.840933	-0.64502	-0.018311	-0.354736
816.0	11.468635	-15.122108	-8.991868	4.121021	-2.616548	-3.102298	-0.656494	-0.05957	-0.324219
817.0	-4.760963	-1.700646	20.357767	3.120863	-1.875497	-3.315686	-0.659668	-0.087646	-0.308838
818.0	1.317606	-6.250502	7.874865	2.731729	-2.56797	-2.128884	-0.667725	-0.103271	-0.282959
819.0	6.289512	6.023646	2.222403	4.314849	-4.109113	-1.77313	-0.675293	-0.129639	-0.243652
820.0	16.385427	15.394604	17.590909	2.46132	-4.921217	-0.411325	-0.69458	-0.134277	-0.208984
821.0	32.790896	20.736472	19.831673	1.876841	-4.545915	-1.024096	-0.702881	-0.145508	-0.178711
822.0	34.462408	9.401008	17.231605	0.476897	-1.365593	-1.160108	-0.700439	-0.147949	-0.169922
823.0	1.401518	-8.625555	4.120828	0.938386	-0.915496	-0.589325	-0.704346	-0.158691	-0.161377
824.0	11.187386	2.636749	11.904835	1.47292	-1.251416	-0.591975	-0.699707	-0.165283	-0.145996
825.0	8.935354	9.49505	11.675598	0.830316	-0.437198	-0.300095	-0.699707	-0.16748	-0.154785
826.0	6.562007	-1.165936	7.631771	0.325629	-0.411043	-0.141079	-0.704102	-0.167725	-0.141602
827.0	7.9015	-2.145273	7.610714	0.395431	-0.130256	-0.079991	-0.701904	-0.16748	-0.145996
828.0	6.582544	0.410985	8.322631	0.393435	-0.081806	-0.107265	-0.69751	-0.169678	-0.141602
829.0	6.95036	0.853082	8.375397	0.282102	-0.027099	-0.069694	-0.699707	-0.169678	-0.139648
830.0	6.301738	0.571693	8.258567	0.204882	-0.011792	-0.017498	-0.706055	-0.169678	-0.143799
831.0	6.352675	-0.003311	7.937202	0.168142	-0.027154	-0.00336	-0.705811	-0.178467	-0.141602
832.0	6.171786	-0.389229	8.053084	0.163721	3.4e-05	-0.00532	-0.706299	-0.167725	-0.139648
833.0	6.29648	-0.715899	7.968819	0.165211	0.013664	-0.012755	-0.69751	-0.16748	-0.143799
834.0	6.285879	-0.646322	7.967466	0.187565	0.031748	-0.045229	-0.706055	-0.169922	-0.137451
835.0	6.26428	-0.23105	7.967093	0.203165	0.034426	-0.066434	-0.701416	-0.178467	-0.139404
836.0	5.986139	-0.28209	7.93875	0.19872	0.048408	-0.06324	-0.705811	-0.17627	-0.139404
837.0	6.104319	-0.019105	7.957224	0.182918	0.03627	-0.064757	-0.697266	-0.174072	-0.139404
838.0	6.055483	0.11336	7.968875	0.162503	0.028528	-0.051649	-0.70166	-0.174072	-0.133057
839.0	5.999095	0.136247	7.916073	0.139364	0.015137	-0.030917	-0.70166	-0.17627	-0.137451
840.0	5.999112	-0.012671	7.857864	0.119383	0.006366	-0.014081	-0.70166	-0.17627	-0.133057
841.0	5.922485	-0.057879	7.893973	0.106762	-0.006051	0.003515	-0.703613	-0.17627	-0.139404
842.0	5.942176	-0.004861	7.870176	0.094835	-0.014631	0.016285	-0.70166	-0.172119	-0.135254
843.0	5.894699	0.098532	7.944598	0.068085	-0.034973	0.030702	-0.703613	-0.17627	-0.139404
844.0	5.837256	-0.253601	7.939158	0.053334	-0.05027	0.026012	-0.701416	-0.178467	-0.135254
845.0	5.873203	-0.402338	7.792724	0.057364	-0.056101	0.011928	-0.697266	-0.17627	-0.135254
846.0	5.963795	-0.244614	7.725087	0.065555	-0.053523	0.00359	-0.703857	-0.169922	-0.135254
847.0	5.925134	-0.058882	7.836688	0.060985	-0.045426	0.004529	-0.703857	-0.174072	-0.135254
848.0	5.931152	0.282288	7.882056	0.031763	-0.061747	0.022254	-0.701904	-0.167725	-0.130859
849.0	5.86937	0.350171	8.034475	-0.013278	-0.083065	0.058358	-0.706299	-0.167725	-0.128662
850.0	5.981619	0.252971	8.064264	-0.0495	-0.112362	0.08877	-0.701904	-0.169922	-0.130859
851.0	5.986153	0.345431	8.100589	-0.072717	-0.124435	0.100208	-0.695313	-0.169922	-0.133057
852.0	6.051344	0.147241	8.031061	-0.09092	-0.138519	0.107206	-0.697266	-0.174072	-0.133057
853.0	6.115227	-0.059421	7.994069	-0.078308	-0.139365	0.094944	-0.695068	-0.178223	-0.141602
854.0	6.104154	-0.012153	7.928209	-0.059443	-0.132258	0.076992	-0.706055	-0.174316	-0.124268
855.0	6.148991	-0.105985	7.881939	-0.028156	-0.128382	0.050935	-0.701416	-0.178467	-0.133057
856.0	6.207557	-0.343195	7.763691	0.007368	-0.113472	0.006142	-0.708008	-0.178711	-0.124268
857.0	6.09263	-0.431368	7.836859	0.041582	-0.095335	-0.04283	-0.699463	-0.174316	-0.124268
858.0	6.055875	-0.580432	7.897324	0.057978	-0.088641	-0.094734	-0.708008	-0.176514	-0.124268
859.0	6.010501	-0.526764	7.954113	0.076169	-0.093315	-0.151376	-0.710205	-0.176514	-0.124268
860.0	5.963681	-0.348724	7.986685	0.098172	-0.113666	-0.197538	-0.703857	-0.174316	-0.11792
861.0	5.818654	-0.170323	8.155294	0.153365	-0.160908	-0.231075	-0.707764	-0.180908	-0.119873
862.0	5.534582	0.620951	8.573195	0.165543	-0.252999	-0.223905	-0.705811	-0.178711	-0.111328
863.0	5.846128	0.654751	8.36748	0.099444	-0.415363	-0.189984	-0.703613	-0.176514	-0.12207
864.0	5.820489	0.758442	8.43082	0.068712	-0.50941	-0.171344	-0.705811	-0.178955	-0.106934
865.0	5.744053	0.621221	8.589559	0.014443	-0.652054	-0.141202	-0.703369	-0.183105	-0.106934
866.0	5.699094	0.643892	8.816777	-0.022313	-0.82696	-0.120748	-0.705566	-0.18335	-0.098389
867.0	5.728045	0.695589	8.793807	-0.04397	-1.025808	-0.083869	-0.707764	-0.181152	-0.0896
868.0	5.757026	0.825541	8.850987	-0.057521	-1.236768	-0.033267	-0.707764	-0.181396	-0.078857
869.0	5.673679	0.870911	8.898376	-0.058182	-1.456304	0.027182	-0.709961	-0.179199	-0.07666
870.0	5.75812	0.458133	8.888531	-0.035536	-1.710549	0.083933	-0.714355	-0.17749	-0.059326
871.0	5.603956	0.081475	8.923604	0.070108	-1.963832	0.120605	-0.714355	-0.179688	-0.046387
872.0	5.602888	-0.223313	8.886501	0.171204	-2.251216	0.142698	-0.71875	-0.175781	-0.024658
873.0	5.370604	-0.279732	8.996032	0.246921	-2.568013	0.135056	-0.720947	-0.176025	-0.007324
874.0	5.218824	0.270597	9.477523	0.265641	-2.936539	0.129301	-0.718506	-0.17627	0.020752
875.0	4.995918	0.451052	10.137226	0.196331	-3.353477	0.100547	-0.718506	-0.176514	0.040283
876.0	4.834474	-0.156496	10.832203	0.041738	-3.853789	-0.04829	-0.718506	-0.174805	0.070801
877.0	3.384403	-1.209747	10.96584	-0.129295	-4.432115	-0.259814	-0.71167	-0.181885	0.107666
878.0	2.895324	-2.729079	10.442157	-0.278887	-5.208984	-0.532284	-0.707275	-0.180176	0.148682
879.0	2.298564	-5.13053	9.544803	0.08017	-6.091107	-0.984542	-0.693848	-0.189453	0.194336
880.0	2.303438	-4.540352	9.010883	0.628793	-7.083809	-1.546818	-0.675781	-0.200928	0.255127
881.0	5.212112	-3.069222	8.42054	1.136718	-8.260414	-1.961579	-0.646973	-0.212402	0.318115
882.0	10.746808	-1.296021	9.099498	1.579846	-8.97038	-2.268541	-0.616211	-0.213135	0.378906
883.0	24.14885	1.238357	10.784755	1.868322	-9.31289	-2.242923	-0.574463	-0.220215	0.444092
884.0	30.656125	1.53393	5.494577	1.7658	-8.510398	-2.205074	-0.532959	-0.220947	0.498291
885.0	29.022674	-2.600086	12.1978	1.735768	-8.259089	-2.541812	-0.493408	-0.231934	0.539551
886.0	23.109881	-4.68858	10.612362	1.46061	-7.433789	-2.528811	-0.445313	-0.234619	0.580811
887.0	25.248582	-3.785763	16.164095	1.122683	-7.066246	-2.469615	-0.4104	-0.234863	0.615479
888.0	24.79069	-3.467093	21.10258	0.035575	-5.630215	-2.115296	-0.377197	-0.248047	0.641602
889.0	7.139044	-5.545536	19.835781	-0.659419	-3.249301	-1.656307	-0.36377	-0.256836	0.652588
890.0	3.392037	-12.500796	16.185038	-0.346857	-1.80052	-0.899187	-0.365967	-0.254639	0.66333
891.0	25.945271	-6.429771	25.056998	-0.45574	0.412016	-0.246043	-0.389893	-0.254639	0.654785
892.0	1.35301	-9.803125	15.637987	-0.549641	2.512241	0.088594	-0.415771	-0.259033	0.652588
893.0	-5.393709	-7.811451	11.559196	-0.086861	2.294982	-0.090943	-0.431152	-0.258789	0.633057
894.0	-1.813755	-3.28368	11.216345	-0.157683	2.223031	-0.265474	-0.457275	-0.259033	0.630859
895.0	1.113463	-0.741423	11.09137	-0.69327	2.452879	-0.235476	-0.485107	-0.269531	0.604736
896.0	3.669104	-0.418	10.559776	-1.363771	2.96201	-0.029666	-0.51123	-0.271484	0.585205
897.0	5.065904	-1.043046	9.59586	-1.845882	3.621996	0.199693	-0.550049	-0.28418	0.557129
898.0	5.726851	-2.126177	8.655016	-1.969088	4.315107	0.347358	-0.586914	-0.288086	0.513672
899.0	5.480435	-2.75638	7.77536	-1.773468	4.937735	0.367512	-0.625977	-0.296143	0.466064
900.0	5.097056	-1.820281	7.186867	-1.478619	5.393722	0.303939	-0.656494	-0.295654	0.418213
901.0	5.105315	0.23508	6.848141	-1.352825	5.663729	0.216923	-0.677979	-0.30542	0.355469
902.0	5.11186	2.344187	6.748302	-1.520989	5.783346	0.19883	-0.701904	-0.311279	0.30127
903.0	5.15338	3.439951	6.616015	-1.92352	5.747984	0.279859	-0.721191	-0.321289	0.233887
904.0	5.424685	3.363903	6.52141	-2.365103	5.584002	0.422731	-0.730225	-0.316162	0.179688
905.0	6.194107	2.615961	6.520899	-2.67751	5.357783	0.607679	-0.736572	-0.323975	0.112549
906.0	7.458176	1.963466	6.772992	-2.821284	5.130546	0.802015	-0.739014	-0.321045	0.062744
907.0	9.108557	1.515576	7.09593	-2.856916	4.963282	0.995216	-0.734619	-0.324707	0.006348
908.0	10.751568	0.952324	7.262269	-2.796052	4.857277	1.197661	-0.737305	-0.313232	-0.037109
909.0	11.437457	0.204479	7.219319	-2.647747	4.763925	1.45506	-0.737793	-0.30835	-0.091309
910.0	11.878944	-0.41155	7.392321	-2.402734	4.586319	1.766835	-0.733887	-0.299072	-0.132324
911.0	12.678094	-0.856677	7.975499	-2.115765	4.398174	2.13786	-0.734375	-0.287842	-0.171387
912.0	13.586515	-1.297037	8.984408	-1.834688	4.252896	2.511231	-0.729004	-0.261475	-0.215088
913.0	14.822521	-0.998458	10.241861	-1.629623	4.149288	2.862238	-0.727295	-0.25	-0.25415
914.0	16.67319	-0.438325	11.469532	-1.571572	4.126834	3.178515	-0.721924	-0.219482	-0.291016
915.0	18.569679	-0.214745	12.052227	-1.59317	4.179004	3.44134	-0.710205	-0.190918	-0.330078
916.0	19.996793	0.403449	11.746727	-1.587339	4.263475	3.697024	-0.702637	-0.158203	-0.36499
917.0	20.43674	1.777004	11.000198	-1.529717	4.243163	3.920301	-0.686523	-0.127441	-0.40625
918.0	20.812394	4.815494	9.348732	-1.47918	4.066275	4.035475	-0.672607	-0.094727	-0.426025
919.0	21.586483	7.498555	7.44404	-1.48453	3.71886	3.918983	-0.651855	-0.070557	-0.462891
920.0	23.828837	7.548402	4.299009	-1.371201	3.482165	3.425831	-0.640137	-0.040039	-0.486816
921.0	24.725835	5.675146	0.580335	-0.871768	3.459695	2.662332	-0.618896	-0.028809	-0.506348
922.0	24.030462	5.500529	-2.452776	-0.115913	3.418903	1.957853	-0.595459	-0.011475	-0.525879
923.0	23.809079	7.003269	-5.117451	0.493626	3.210169	1.551671	-0.577881	-0.017334	-0.547607
924.0	22.138216	8.153128	-8.838354	0.80875	2.875264	1.282865	-0.560547	-0.01709	-0.564941
925.0	19.704238	10.584748	-11.893564	0.774864	2.221407	0.905794	-0.547363	-0.02124	-0.575684
926.0	18.938186	13.435493	-13.584692	0.204778	1.272042	0.390264	-0.543213	-0.019043	-0.575684
927.0	19.44796	13.565268	-13.765594	-0.634287	0.386442	-0.156727	-0.538574	-0.023193	-0.580078
928.0	20.103726	10.552708	-12.825185	-0.999819	-0.274729	-0.736034	-0.538574	-0.023438	-0.577881
929.0	16.149764	4.826187	-8.299106	-0.736677	-0.641488	-1.294501	-0.542725	-0.027588	-0.577881
930.0	16.3483	-10.730205	-14.9453	2.266337	-2.91187	-2.226309	-0.552246	-0.064453	-0.5625
931.0	-12.831094	0.093957	12.99143	2.828686	-1.54393	-3.220779	-0.568359	-0.099121	-0.544922
932.0	3.950678	0.075677	19.066973	2.153282	-3.594463	-2.236662	-0.580566	-0.116699	-0.527588
933.0	10.963356	-1.237885	-0.134405	2.527092	-4.120371	-1.660213	-0.605713	-0.143066	-0.499268
934.0	11.960563	10.75319	13.745517	2.358932	-4.771371	-0.901826	-0.626709	-0.156494	-0.460205
935.0	25.778384	13.561882	18.762135	1.468676	-4.799488	-0.604307	-0.636963	-0.171875	-0.436279
936.0	39.257025	11.677179	18.488848	0.747415	-3.326071	-1.273461	-0.645508	-0.174316	-0.418945
937.0	10.514217	-6.232962	6.336469	0.666856	-0.719795	-0.474723	-0.649414	-0.1875	-0.4104
938.0	7.871473	-1.809851	9.310154	1.334165	-1.512035	-0.565393	-0.655518	-0.196289	-0.392822
939.0	7.719928	11.711477	12.818968	1.057275	-1.067592	-0.385562	-0.657227	-0.209229	-0.39502
940.0	9.953627	1.446995	8.930284	0.112453	-0.544588	-0.062609	-0.657715	-0.198486	-0.386475
941.0	7.351105	-5.385151	6.908386	0.251388	-0.433937	-0.030274	-0.664063	-0.202881	-0.384277
942.0	7.236389	1.007656	8.381575	0.319771	-0.237664	-0.064598	-0.659668	-0.205078	-0.379883
943.0	7.150877	0.419449	8.199039	0.181265	-0.207017	0.007207	-0.657227	-0.207031	-0.384277
944.0	6.346882	0.285237	8.246463	0.134718	-0.171961	0.034008	-0.661621	-0.209473	-0.379883
945.0	6.445571	-0.600265	7.922238	0.086944	-0.114894	0.036206	-0.661621	-0.207275	-0.379883
946.0	6.19463	-0.833068	7.776012	0.109303	-0.069666	0.008628	-0.666016	-0.209473	-0.373291
947.0	6.215716	-0.950775	7.842594	0.148379	-0.047615	-0.020129	-0.663818	-0.209473	-0.377686
948.0	6.414999	-0.774879	7.918054	0.212483	-0.029601	-0.042407	-0.666016	-0.207275	-0.377686
949.0	6.13676	-0.893264	7.899928	0.243363	-0.004482	-0.067709	-0.665771	-0.21167	-0.377686
950.0	6.300251	-0.634594	7.746162	0.251182	0.012583	-0.077383	-0.663574	-0.213623	-0.375488
951.0	6.299189	-0.432587	7.749052	0.24661	0.033774	-0.080958	-0.656982	-0.218018	-0.379883
952.0	6.213775	-0.173429	7.89232	0.2397	0.048115	-0.080473	-0.661377	-0.218018	-0.375488
953.0	6.089129	-0.237377	7.93693	0.219776	0.053384	-0.077811	-0.661377	-0.216064	-0.371094
954.0	6.113313	-0.045747	7.9202	0.191866	0.045095	-0.066104	-0.65918	-0.21582	-0.377686
955.0	6.005728	0.278572	8.062648	0.114906	0.000824	-0.015906	-0.663574	-0.21582	-0.375488
956.0	6.079215	-0.480732	7.785138	0.075665	-0.020855	0.005683	-0.661133	-0.220215	-0.368896
957.0	6.035678	-0.136023	7.845639	0.069901	-0.027473	0.003502	-0.656738	-0.220215	-0.375488
958.0	5.949568	0.023185	7.939533	0.044142	-0.037285	0.013056	-0.663574	-0.21582	-0.38208
959.0	5.999343	0.077971	7.954604	0.007322	-0.049581	0.026291	-0.66333	-0.222412	-0.375488
960.0	5.992493	-0.264292	7.869621	-0.029295	-0.056839	0.031043	-0.668213	-0.209473	-0.366943
961.0	6.085648	-0.423514	7.769906	-0.023875	-0.067015	0.03023	-0.658936	-0.220215	-0.373291
962.0	6.167292	-0.359986	7.698627	-0.006371	-0.054013	0.023988	-0.661377	-0.21582	-0.373291
963.0	6.12113	-0.448082	7.686665	0.017862	-0.026827	0.015994	-0.65918	-0.216064	-0.362549
964.0	6.101564	-0.348402	7.713388	0.048204	-0.010573	-0.001864	-0.670166	-0.209473	-0.366943
965.0	6.096516	-0.217946	7.78562	0.074479	0.003237	-0.023396	-0.663574	-0.213867	-0.368896
966.0	6.087726	-0.309436	7.810719	0.097442	0.011201	-0.046165	-0.654785	-0.21582	-0.373291
967.0	6.103703	-0.069299	7.878866	0.1105	0.015566	-0.052648	-0.647949	-0.224365	-0.373291
968.0	6.155963	0.073107	7.847377	0.116133	0.006523	-0.048342	-0.656494	-0.226563	-0.377686
969.0	6.14038	0.071902	7.86099	0.118461	-0.002417	-0.043134	-0.658447	-0.235107	-0.377441
970.0	6.115817	-0.053398	7.874246	0.124387	-0.007791	-0.037995	-0.660889	-0.224609	-0.371094
971.0	6.135249	-0.172393	7.854979	0.11953	-0.014066	-0.044068	-0.662842	-0.233154	-0.375488
972.0	6.075442	-0.212538	7.908493	0.130514	-0.025998	-0.047702	-0.665283	-0.226807	-0.366699
973.0	6.069202	-0.106554	7.986674	0.132989	-0.027356	-0.062427	-0.66748	-0.226807	-0.368896
974.0	6.068019	-0.149705	7.968425	0.123174	-0.042413	-0.070317	-0.660645	-0.233154	-0.368896
975.0	6.017375	-0.097428	8.028063	0.116198	-0.05648	-0.082837	-0.663086	-0.229004	-0.362305
976.0	6.002641	-0.163099	8.0548	0.09911	-0.083326	-0.101952	-0.660889	-0.224609	-0.366699
977.0	5.895012	-0.163173	8.166516	0.088232	-0.114016	-0.130789	-0.663086	-0.229004	-0.362305
978.0	5.788469	-0.196248	8.284792	0.06905	-0.161865	-0.158317	-0.660645	-0.231201	-0.362305
979.0	5.315654	-0.270078	8.680694	0.117513	-0.269209	-0.17842	-0.658447	-0.235352	-0.360107
980.0	5.399039	0.731876	8.878055	0.106695	-0.485512	-0.162736	-0.665039	-0.233398	-0.351563
981.0	5.529587	0.483677	8.81167	0.074627	-0.645607	-0.158382	-0.664795	-0.235596	-0.347168
982.0	5.65989	0.439447	8.701801	0.037978	-0.823404	-0.159767	-0.67334	-0.23999	-0.342773
983.0	5.691383	0.569481	8.753521	-0.005097	-1.012787	-0.153116	-0.675781	-0.23584	-0.336426
984.0	5.871837	0.336748	8.676881	-0.011125	-1.218939	-0.136612	-0.675781	-0.23584	-0.329834
985.0	5.712239	0.101201	8.842794	0.019778	-1.423858	-0.124085	-0.684082	-0.242676	-0.316895
986.0	5.836678	-0.078223	8.774412	0.087051	-1.635358	-0.111562	-0.686523	-0.236328	-0.301758
987.0	5.892868	-0.580548	8.713931	0.199325	-1.887432	-0.106706	-0.688232	-0.247314	-0.295166
988.0	5.719515	-0.428864	8.744919	0.307604	-2.129164	-0.109793	-0.692871	-0.23877	-0.275635
989.0	5.576751	-0.277713	8.80405	0.387811	-2.429964	-0.108144	-0.701172	-0.245605	-0.249756
990.0	5.366504	0.27097	9.097397	0.416017	-2.757637	-0.108038	-0.705566	-0.248047	-0.232422
991.0	5.282744	0.801032	9.818051	0.353044	-3.176504	-0.132998	-0.71167	-0.254883	-0.212891
992.0	5.072028	0.31497	10.434013	0.23334	-3.624004	-0.262835	-0.718262	-0.253174	-0.178223
993.0	4.322409	0.009465	10.759132	0.033743	-4.164779	-0.393627	-0.717773	-0.264404	-0.145508
994.0	3.817207	-1.222072	10.918245	-0.1909	-4.774802	-0.565637	-0.724121	-0.264893	-0.108643
995.0	3.214888	-4.056976	10.020011	0.000724	-5.46611	-0.890628	-0.723633	-0.27417	-0.071777
996.0	1.852098	-4.715734	9.091763	0.522177	-6.36582	-1.411524	-0.720947	-0.285645	-0.010986
997.0	3.606506	-4.896303	8.380836	1.109138	-7.428036	-2.003225	-0.715576	-0.307861	0.04541
998.0	7.832551	-2.778434	8.586665	1.764631	-8.395683	-2.473807	-0.693115	-0.32373	0.114746
999.0	17.50807	0.46151	10.431345	2.049452	-8.978409	-2.690034	-0.668213	-0.341797	0.184326
1000.0	32.983081	0.68343	9.109286	2.450289	-8.562744	-2.716935	-0.641602	-0.351318	0.247314
1001.0	25.917719	1.304469	7.148657	2.252264	-7.958647	-2.902903	-0.604248	-0.362549	0.305908
1002.0	27.224446	-4.450357	11.02823	1.665571	-7.288276	-2.606305	-0.568848	-0.371826	0.358154
1003.0	21.55768	-3.593703	12.854829	1.418673	-6.780754	-2.601387	-0.533447	-0.38501	0.39502
1004.0	21.815657	-3.6807	17.862306	0.9785	-6.067548	-2.513667	-0.500488	-0.389648	0.427734
1005.0	12.543291	-5.412887	17.910045	0.411211	-4.445829	-2.238649	-0.467285	-0.405029	0.447266
1006.0	0.542441	-8.868962	15.290525	0.308824	-2.520029	-1.440545	-0.454346	-0.400879	0.468994
1007.0	21.670268	-5.035158	21.445448	-0.068104	-1.189494	-0.442436	-0.445313	-0.409424	0.460449
1008.0	11.585299	-7.521509	18.655377	-0.596299	1.47771	0.253338	-0.456299	-0.402832	0.458008
1009.0	-2.21278	-8.390142	12.143813	-0.402048	2.085884	0.521617	-0.462646	-0.40918	0.440674
1010.0	-1.884437	-5.604501	10.773619	-0.143885	2.097619	0.494429	-0.467285	-0.404785	0.434326
1011.0	-0.176433	-3.025402	10.092284	-0.257909	2.28254	0.473245	-0.482422	-0.406738	0.416992
1012.0	1.631186	-1.943532	9.788364	-0.52489	2.578384	0.530095	-0.493652	-0.402344	0.403809
1013.0	4.013764	-1.808785	9.562719	-0.750062	3.054875	0.628345	-0.503906	-0.415039	0.384277
1014.0	6.217946	-2.370746	9.227606	-0.818327	3.758996	0.701672	-0.521729	-0.408203	0.358398
1015.0	7.498851	-2.520974	8.811273	-0.698547	4.564336	0.703971	-0.54126	-0.412109	0.330078
1016.0	7.464663	-1.879328	8.356142	-0.508131	5.322581	0.624961	-0.558838	-0.409668	0.297607
1017.0	7.246858	-0.563626	7.713634	-0.399486	5.912442	0.506729	-0.573975	-0.415771	0.258545
1018.0	6.604984	0.838517	6.958191	-0.477002	6.315673	0.367817	-0.591309	-0.417236	0.217285
1019.0	5.984603	1.9552	6.231288	-0.738058	6.46448	0.26826	-0.608643	-0.42334	0.171875
1020.0	5.726755	2.589897	5.731795	-1.1301	6.362172	0.233107	-0.615479	-0.41626	0.132813
1021.0	6.064314	2.533006	5.557128	-1.531213	6.085797	0.29825	-0.617188	-0.428467	0.080811
1022.0	7.009074	2.034208	5.709659	-1.880676	5.748708	0.427584	-0.628662	-0.421387	0.039551
1023.0	8.476897	1.257372	6.011831	-2.12655	5.455401	0.581625	-0.630615	-0.42749	-0.001465
1024.0	10.021699	0.5112	6.399464	-2.26068	5.247353	0.734064	-0.635498	-0.41626	-0.036377
1025.0	11.262268	-0.162886	6.655264	-2.283043	5.120537	0.875406	-0.635498	-0.419678	-0.088379
1026.0	11.83784	-0.829051	6.701404	-2.211711	5.025131	1.02007	-0.642334	-0.410889	-0.118652
1027.0	11.918265	-1.180067	6.822567	-2.091561	4.892965	1.204983	-0.644775	-0.405762	-0.166504
1028.0	11.873482	-1.265615	7.340042	-2.010023	4.682087	1.462535	-0.649658	-0.392578	-0.201172
1029.0	12.28747	-1.050275	8.140946	-2.010254	4.397431	1.80151	-0.648193	-0.378906	-0.249023
1030.0	12.945886	-0.678133	9.096796	-2.093748	4.058828	2.169028	-0.653809	-0.350342	-0.285889
1031.0	13.828873	-0.19578	10.00737	-2.248303	3.708757	2.50302	-0.645996	-0.330566	-0.327148
1032.0	15.105206	0.593582	11.093043	-2.474223	3.323506	2.718401	-0.651611	-0.300049	-0.355469
1033.0	16.598977	1.667884	11.522764	-2.799201	2.949912	2.833823	-0.64624	-0.271484	-0.392578
1034.0	19.892404	3.093884	11.465965	-3.159956	2.642437	2.921033	-0.654297	-0.232422	-0.416504
1035.0	21.560628	4.574001	9.831427	-3.443499	2.540756	3.045713	-0.640137	-0.204102	-0.453613
1036.0	23.046548	5.089336	7.461353	-3.465543	2.435326	3.022126	-0.635498	-0.160645	-0.473145
1037.0	23.577851	3.916655	4.166552	-3.067933	2.487656	2.705636	-0.621338	-0.134521	-0.499268
1038.0	22.143498	4.130286	1.006037	-2.143663	2.469757	2.208939	-0.61792	-0.108398	-0.52124
1039.0	21.596766	6.559615	-1.257914	-1.169702	2.235138	1.82976	-0.603271	-0.095215	-0.531982
1040.0	21.719686	7.994844	-3.920013	-0.401601	2.097754	1.561421	-0.590576	-0.082275	-0.538574
1041.0	22.337259	8.543568	-7.197149	0.097693	1.953675	1.261153	-0.579834	-0.081787	-0.558105
1042.0	21.700333	9.544072	-10.248879	0.356312	1.796697	0.887708	-0.575928	-0.072998	-0.568848
1043.0	20.100224	12.121034	-11.840505	0.233761	1.432296	0.547894	-0.571289	-0.077393	-0.573242
1044.0	18.431542	13.389265	-12.494044	-0.355908	0.798212	0.292195	-0.563232	-0.062256	-0.575439
1045.0	18.067843	11.906007	-11.674765	-0.956237	0.110628	0.086729	-0.565186	-0.068604	-0.579834
1046.0	19.248988	9.158005	-9.486221	-1.122778	-0.380691	-0.113444	-0.570068	-0.053711	-0.575439
1047.0	18.844902	5.524013	-6.909847	-0.756771	-0.650448	-0.35292	-0.57666	-0.055664	-0.582031
1048.0	3.477234	-21.825254	3.446206	-0.297392	-0.357936	-0.27066	-0.580322	-0.06665	-0.564697
1049.0	2.737009	-1.895674	16.239522	6.150026	-1.962627	-1.897145	-0.581055	-0.107666	-0.553711
1050.0	-7.61284	-16.173135	3.129799	3.025573	-1.380631	-1.302188	-0.592773	-0.138184	-0.53833
1051.0	-8.10109	6.679593	0.572921	6.406147	-3.000995	-1.923136	-0.612793	-0.186035	-0.505615
1052.0	11.002775	24.748286	13.805454	3.712938	-4.929955	-0.512193	-0.634033	-0.195068	-0.46875
1053.0	22.315016	23.756948	20.642446	1.828539	-4.874392	-0.421476	-0.657227	-0.212891	-0.44043
1054.0	44.303738	21.248457	22.199418	0.40011	-3.288819	-1.748039	-0.65918	-0.217285	-0.42749
1055.0	7.352529	-11.897775	2.737882	0.206305	-0.478341	-0.668132	-0.663086	-0.232422	-0.418701
1056.0	9.609905	-1.839341	11.078922	1.804507	-1.79794	-0.798925	-0.671387	-0.239258	-0.39917
1057.0	11.481668	13.793902	13.506545	0.995967	-0.554027	-0.384514	-0.668701	-0.25	-0.401367
1058.0	5.86223	-1.658495	7.585177	0.310192	-0.523128	-0.132908	-0.67334	-0.241455	-0.392822
1059.0	8.666135	-1.28681	8.17135	0.355188	-0.297563	-0.006426	-0.673096	-0.25	-0.392578
1060.0	6.398849	0.602624	8.062227	0.263759	-0.199066	0.016557	-0.670898	-0.248047	-0.392578
1061.0	6.938651	-0.783799	8.185327	0.151712	-0.13169	0.052485	-0.670898	-0.252197	-0.392578
1062.0	6.666294	-0.1276	8.040224	0.100776	-0.115291	0.066761	-0.67334	-0.24585	-0.384033
1063.0	6.570954	-0.734997	7.836304	0.058895	-0.095809	0.068556	-0.670654	-0.254395	-0.390381
1064.0	6.280886	-0.926391	7.831887	0.081754	-0.05421	0.050162	-0.67749	-0.248047	-0.381836
1065.0	6.235098	-0.974826	7.812227	0.06758	-0.040313	0.038058	-0.673096	-0.250244	-0.38623
1066.0	6.237896	-1.178179	7.842264	0.086411	-0.02827	0.016965	-0.675293	-0.248047	-0.381836
1067.0	6.514224	-0.942262	7.75953	0.09071	-0.04054	-0.008686	-0.673096	-0.250244	-0.388428
1068.0	6.018195	-0.481236	7.928357	0.097229	-0.015821	-0.020226	-0.671143	-0.246094	-0.377441
1069.0	6.268824	-0.211842	7.888552	0.072025	-0.035281	-0.013729	-0.672852	-0.254395	-0.388428
1070.0	6.15623	-0.21959	7.911545	0.057117	-0.051653	-0.009095	-0.675293	-0.248047	-0.381836
1071.0	6.144997	-0.116739	7.934484	0.03614	-0.06753	-0.001012	-0.673096	-0.250244	-0.381836
1072.0	6.180643	-0.004064	7.89067	0.002077	-0.084042	0.020134	-0.67749	-0.248291	-0.377441
1073.0	6.214144	-0.140854	7.795564	-0.019523	-0.093099	0.032239	-0.673096	-0.250244	-0.384033
1074.0	6.183213	-0.328203	7.75497	-0.022093	-0.086884	0.036962	-0.671143	-0.243896	-0.379639
1075.0	6.21891	-0.331057	7.697654	-0.007021	-0.080127	0.03831	-0.670898	-0.252441	-0.375244
1076.0	6.154533	-0.430055	7.698506	0.007629	-0.0649	0.028511	-0.675293	-0.246094	-0.371094
1077.0	6.140266	-0.577392	7.670632	0.023128	-0.066972	0.009909	-0.677246	-0.252441	-0.379639
1078.0	6.126284	-0.934438	7.584679	0.064687	-0.047105	-0.010664	-0.67334	-0.243896	-0.373291
1079.0	6.17269	-1.038522	7.447082	0.127423	-0.015814	-0.049348	-0.670898	-0.250488	-0.371094
1080.0	6.13851	-0.959814	7.464386	0.186654	0.023952	-0.090919	-0.677734	-0.243896	-0.375488
1081.0	6.119765	-0.832973	7.586325	0.223895	0.065236	-0.1228	-0.675293	-0.248291	-0.375244
1082.0	6.092394	-0.527201	7.685405	0.25324	0.101575	-0.147441	-0.670898	-0.248291	-0.373047
1083.0	6.158889	-0.013206	7.861921	0.24939	0.099009	-0.143606	-0.662354	-0.246094	-0.377441
1084.0	6.138869	0.151779	7.975081	0.211839	0.083729	-0.117873	-0.66626	-0.254639	-0.377441
1085.0	6.107721	0.206963	8.022353	0.185321	0.063407	-0.088576	-0.661621	-0.267578	-0.379639
1086.0	6.139411	0.155914	7.919643	0.156918	0.041576	-0.069407	-0.667969	-0.267334	-0.385986
1087.0	6.142017	-0.018123	7.890635	0.142339	0.029841	-0.053078	-0.670166	-0.269531	-0.379639
1088.0	6.158961	-0.20619	7.823518	0.133058	0.025761	-0.045707	-0.674561	-0.267578	-0.377441
1089.0	6.121736	-0.361467	7.851507	0.134885	0.020374	-0.048438	-0.672119	-0.271729	-0.377441
1090.0	6.108217	-0.215306	7.868071	0.140406	0.008975	-0.052473	-0.672607	-0.26123	-0.375244
1091.0	6.08047	-0.192252	7.887031	0.141354	-0.006206	-0.05241	-0.672119	-0.276123	-0.377441
1092.0	6.122713	-0.175488	7.978267	0.13666	-0.025437	-0.051546	-0.665771	-0.267578	-0.373047
1093.0	6.113926	-0.140311	7.980882	0.134801	-0.047266	-0.061765	-0.672119	-0.271973	-0.37085
1094.0	6.026324	-0.053775	8.06171	0.13245	-0.075229	-0.068387	-0.670166	-0.269775	-0.37085
1095.0	6.002085	-0.063886	8.084124	0.105077	-0.112934	-0.080124	-0.667725	-0.273926	-0.373047
1096.0	5.975774	0.13043	8.1903	0.066668	-0.161069	-0.091489	-0.670166	-0.269775	-0.37085
1097.0	5.863582	0.026071	8.233919	0.008296	-0.223521	-0.100738	-0.674316	-0.27417	-0.37085
1098.0	4.892673	0.124135	9.121116	0.013077	-0.382888	-0.083374	-0.678955	-0.265625	-0.366699
1099.0	5.700551	0.542662	8.782003	-0.031741	-0.65758	-0.04814	-0.672119	-0.27417	-0.360107
1100.0	5.588048	0.366105	8.816455	-0.071643	-0.80513	-0.039753	-0.681152	-0.265869	-0.351318
1101.0	5.793254	0.482298	8.674927	-0.111568	-0.980704	-0.044639	-0.685303	-0.272217	-0.353516
1102.0	5.885068	0.5839	8.622584	-0.160433	-1.175946	-0.02156	-0.689697	-0.270264	-0.331787
1103.0	5.786085	0.064667	8.72412	-0.182033	-1.375228	0.003845	-0.689453	-0.272461	-0.329834
1104.0	5.757658	-0.29044	8.838631	-0.132823	-1.600051	0.005702	-0.696045	-0.272705	-0.31665
1105.0	5.696292	-0.682012	8.772619	-0.025648	-1.838055	-0.008548	-0.70459	-0.272949	-0.301514
1106.0	5.736927	-0.951532	8.668463	0.116748	-2.08258	-0.024497	-0.713623	-0.269043	-0.286377
1107.0	5.515366	-0.783725	8.931676	0.261459	-2.347185	-0.032402	-0.717529	-0.275635	-0.269043
1108.0	5.297231	-0.161232	9.271145	0.351333	-2.688295	-0.043814	-0.726563	-0.269531	-0.240967
1109.0	5.185436	0.111596	9.814725	0.307701	-3.095685	-0.060795	-0.739014	-0.280762	-0.221436
1110.0	5.067053	-0.252123	10.494422	0.23972	-3.581877	-0.157578	-0.739258	-0.276855	-0.195313
1111.0	4.501596	-1.023879	10.784614	0.058189	-4.12368	-0.40272	-0.743408	-0.279297	-0.158447
1112.0	3.566377	-1.960305	10.88082	-0.077791	-4.818799	-0.595255	-0.756348	-0.280029	-0.119629
1113.0	3.101068	-4.629121	9.893031	0.04076	-5.55909	-0.95677	-0.753662	-0.291504	-0.071777
1114.0	2.421376	-4.813155	9.500944	0.524352	-6.480181	-1.533362	-0.748535	-0.307129	-0.013184
1115.0	4.772137	-3.819739	8.737114	1.03846	-7.615732	-1.997668	-0.73877	-0.327393	0.041016
1116.0	8.177457	-0.957875	9.469058	1.380133	-8.348156	-2.349501	-0.727295	-0.339111	0.114746
1117.0	19.57903	-1.860409	9.782917	1.557778	-8.800741	-2.480816	-0.704834	-0.354736	0.177734
1118.0	30.211735	1.379366	7.260952	1.88585	-8.195825	-2.531564	-0.680176	-0.368408	0.240723
1119.0	24.181997	-0.524836	8.530381	1.905943	-7.866704	-2.839731	-0.644287	-0.392822	0.299561
1120.0	21.530911	-3.830498	9.825871	1.337943	-7.14318	-2.596207	-0.613525	-0.395752	0.355957
1121.0	20.891447	-3.535935	13.089027	1.154577	-6.992513	-2.615733	-0.577881	-0.415527	0.399414
1122.0	22.794104	-2.661562	17.136235	0.425944	-6.087938	-2.412117	-0.546875	-0.426514	0.429932
1123.0	14.830636	-2.247996	17.571388	-0.243853	-4.50652	-1.987689	-0.524658	-0.439453	0.440918
1124.0	2.228744	-8.704969	16.311504	-0.682329	-2.128705	-1.175176	-0.511475	-0.439697	0.458252
1125.0	21.533073	-6.497394	20.589546	-0.618616	-0.631845	-0.423471	-0.513428	-0.450195	0.44751
1126.0	9.3827	-8.501205	16.647288	-0.662185	1.85905	-0.029431	-0.521973	-0.452148	0.427979
1127.0	-3.874942	-8.458031	10.07733	-0.252424	2.206646	-0.006593	-0.532959	-0.454346	0.423584
1128.0	-3.397361	-5.490099	8.684587	0.12045	1.991335	-0.235467	-0.534912	-0.456299	0.416992
1129.0	-1.294377	-2.151504	8.529277	-0.007015	2.00046	-0.318107	-0.545654	-0.464844	0.395508
1130.0	1.683418	-0.144112	8.959836	-0.480196	2.15138	-0.175501	-0.55249	-0.458252	0.386719
1131.0	4.365718	-0.007051	8.899783	-1.020046	2.587396	0.090386	-0.564941	-0.473145	0.36499
1132.0	6.157674	-0.727118	8.684808	-1.332945	3.225168	0.331754	-0.578125	-0.472656	0.33252
1133.0	6.573935	-1.768967	8.212015	-1.35491	3.970967	0.462244	-0.597168	-0.483154	0.308594
1134.0	6.023473	-2.15311	7.471069	-1.120201	4.625224	0.436551	-0.612793	-0.476318	0.27832
1135.0	5.471734	-1.024958	6.879982	-0.877647	5.122601	0.31472	-0.623291	-0.490967	0.237061
1136.0	5.140836	1.008115	6.589197	-0.835037	5.416671	0.172835	-0.636719	-0.484131	0.20459
1137.0	4.925835	2.817088	6.48123	-1.093511	5.528266	0.104082	-0.649414	-0.491943	0.150391
1138.0	5.003104	3.718281	6.311374	-1.563203	5.464627	0.118082	-0.6604	-0.491455	0.115723
1139.0	5.423891	3.58784	6.17229	-2.069658	5.299608	0.203671	-0.664795	-0.495117	0.07251
1140.0	6.357945	2.797809	6.190765	-2.470016	5.078224	0.319192	-0.669434	-0.492432	0.03125
1141.0	7.910152	1.932625	6.385141	-2.697965	4.899849	0.448266	-0.677979	-0.494141	-0.014404
1142.0	9.564331	1.07731	6.695002	-2.774166	4.818391	0.572174	-0.680664	-0.489258	-0.05542
1143.0	10.860141	0.180881	6.747381	-2.722081	4.794191	0.723453	-0.685059	-0.486572	-0.103271
1144.0	11.359199	-0.770774	6.742105	-2.532926	4.776631	0.9194	-0.681396	-0.473145	-0.140137
1145.0	11.30617	-1.216096	6.894394	-2.271404	4.6841	1.196319	-0.690186	-0.472412	-0.181396
1146.0	11.260281	-1.151505	7.482678	-2.034324	4.485887	1.559018	-0.695313	-0.452881	-0.209717
1147.0	11.545109	-0.665261	8.61954	-1.889511	4.234979	1.972738	-0.695801	-0.441406	-0.248779
1148.0	12.515357	0.365929	10.208526	-1.946782	3.966793	2.402482	-0.705566	-0.41748	-0.28125
1149.0	14.270511	1.211377	11.926367	-2.140065	3.760207	2.786955	-0.715576	-0.388916	-0.316162
1150.0	16.607564	1.653623	13.251504	-2.383487	3.676893	3.066529	-0.72998	-0.354248	-0.344482
1151.0	18.39303	2.070741	13.637536	-2.591929	3.738959	3.231462	-0.733398	-0.321533	-0.377197
1152.0	19.903367	2.625782	13.215354	-2.656697	3.812209	3.285044	-0.737061	-0.284668	-0.403564
1153.0	20.565249	4.330104	11.440605	-2.515465	3.80837	3.254959	-0.743164	-0.245361	-0.449219
1154.0	20.234069	7.609104	9.471415	-2.317501	3.651703	3.071397	-0.746826	-0.206543	-0.462402
1155.0	21.728844	8.022584	6.372955	-2.131444	3.452986	2.642403	-0.734619	-0.182373	-0.49292
1156.0	22.507687	6.20983	2.767577	-1.551879	3.349375	2.078972	-0.744385	-0.15625	-0.514648
1157.0	23.731822	6.471733	-0.658913	-0.721885	3.268317	1.72054	-0.734131	-0.140869	-0.531982
1158.0	23.52491	5.804226	-4.889933	0.121026	3.239372	1.518062	-0.739258	-0.125488	-0.551514
1159.0	20.356199	7.717352	-8.855281	0.95524	3.017752	1.225397	-0.726074	-0.129639	-0.573242
1160.0	17.865164	13.216172	-11.471692	1.378243	2.357055	0.788797	-0.737061	-0.127197	-0.590576
1161.0	17.281689	18.941814	-12.777545	0.707672	1.394849	0.173763	-0.734863	-0.125	-0.592773
1162.0	18.898512	18.203477	-13.239056	-0.554683	0.566138	-0.51107	-0.739258	-0.129395	-0.590576
1163.0	19.58083	13.291805	-12.668604	-0.820568	0.095718	-1.282808	-0.743408	-0.133545	-0.592773
1164.0	14.54824	6.447725	-7.786052	-0.293831	-0.076762	-1.909488	-0.745117	-0.146729	-0.581787
1165.0	13.165743	-3.033884	-14.220491	2.851104	-2.12448	-3.143537	-0.751465	-0.205078	-0.566406
1166.0	-13.128646	7.244482	15.828016	2.423583	-1.517394	-3.310164	-0.767822	-0.231445	-0.525146
1167.0	4.465076	-3.684392	18.945165	0.928041	-3.282625	-2.342068	-0.781738	-0.26001	-0.492432
1168.0	11.354775	-5.325518	-1.289187	2.02623	-3.71888	-1.959657	-0.806885	-0.286621	-0.442627
1169.0	10.418508	7.500472	11.894924	1.821958	-4.425881	-0.722155	-0.827881	-0.302246	-0.394775
1170.0	23.338023	5.640132	16.463787	1.264264	-4.536388	-0.246563	-0.849365	-0.305176	-0.347168
1171.0	35.796572	12.031205	18.056904	1.227035	-3.441589	-0.880628	-0.857422	-0.320801	-0.318848
1172.0	14.939676	-1.947648	8.499509	0.411684	-0.556551	-0.21559	-0.859619	-0.320801	-0.3125
1173.0	7.021786	-0.844013	9.629025	1.140359	-1.409127	-0.302327	-0.858887	-0.336182	-0.294922
1174.0	9.278132	9.398976	12.342474	0.667639	-0.848698	-0.084028	-0.859375	-0.325439	-0.28418
1175.0	6.691517	4.809794	9.23613	-0.105298	-0.601868	0.174828	-0.865723	-0.329834	-0.288574
1176.0	7.153508	-4.160672	7.132623	-0.227995	-0.650994	0.230735	-0.86792	-0.327881	-0.273438
1177.0	6.801854	-1.176086	7.596839	-0.083289	-0.451903	0.155863	-0.870117	-0.327881	-0.273438
1178.0	6.869579	-0.278979	7.829385	-0.10489	-0.34797	0.127193	-0.870117	-0.325684	-0.269043
1179.0	6.383546	-0.322599	7.88918	-0.129076	-0.29159	0.117509	-0.876709	-0.32373	-0.262695
1180.0	6.208506	-0.343457	7.826622	-0.187859	-0.258315	0.0975	-0.874756	-0.317139	-0.260498
1181.0	6.255503	-1.006478	7.728242	-0.205425	-0.217972	0.075174	-0.874756	-0.321533	-0.262695
1182.0	6.384213	-1.126427	7.52953	-0.197521	-0.17226	0.041076	-0.877197	-0.315186	-0.258301
1183.0	6.53603	-1.033369	7.675602	-0.120787	-0.133807	0.013527	-0.876953	-0.319336	-0.260498
1184.0	6.422579	-0.781016	7.748087	-0.056682	-0.087706	0.003743	-0.876953	-0.317383	-0.258301
1185.0	6.47441	-0.617664	7.809266	-0.012356	-0.079861	-0.013944	-0.874756	-0.319336	-0.256104
1186.0	6.396513	-0.580542	7.798142	0.008097	-0.063584	-0.017739	-0.879395	-0.312988	-0.256104
1187.0	6.426697	-0.705171	7.763355	0.028243	-0.051894	-0.027581	-0.874512	-0.32373	-0.260498
1188.0	6.462661	-0.588837	7.693978	0.043018	-0.044657	-0.036763	-0.881348	-0.31958	-0.249512
1189.0	6.38272	-0.482048	7.76633	0.054104	-0.037961	-0.039503	-0.872559	-0.32373	-0.262695
1190.0	6.357824	-0.480118	7.724593	0.059561	-0.029505	-0.046272	-0.876953	-0.319336	-0.258301
1191.0	6.377117	-0.376263	7.668758	0.061359	-0.020251	-0.048639	-0.878906	-0.325928	-0.251709
1192.0	6.334545	-0.435711	7.67761	0.058873	-0.011257	-0.053255	-0.874756	-0.31958	-0.253906
1193.0	6.349091	-0.446321	7.670378	0.062947	-0.002126	-0.059774	-0.870361	-0.321533	-0.258301
1194.0	6.23626	-0.453917	7.661783	0.060403	0.004195	-0.060315	-0.881104	-0.326172	-0.243164
1195.0	6.220718	-0.516453	7.652832	0.060937	0.005615	-0.060739	-0.872314	-0.328125	-0.253906
1196.0	6.191834	-0.547054	7.619147	0.077298	0.012777	-0.058038	-0.876465	-0.328125	-0.245361
1197.0	6.1471	-0.582548	7.657453	0.093593	0.021626	-0.064454	-0.87207	-0.330322	-0.247314
1198.0	6.174671	-0.51862	7.661972	0.11424	0.029058	-0.059487	-0.876221	-0.334717	-0.247314
1199.0	6.175474	-0.283584	7.750598	0.113059	0.029021	-0.045031	-0.869873	-0.330322	-0.249512
1200.0	6.158269	-0.387413	7.689687	0.105253	0.026201	-0.024614	-0.872314	-0.325928	-0.251709
1201.0	6.141596	-0.371025	7.730965	0.114381	0.029488	-0.022563	-0.874512	-0.323975	-0.243164
1202.0	6.155513	-0.27724	7.709883	0.122763	0.025055	-0.016939	-0.878906	-0.323975	-0.243164
1203.0	6.166534	-0.341299	7.683889	0.132205	0.034297	-0.01092	-0.865723	-0.328125	-0.249512
1204.0	6.192377	-0.290468	7.720649	0.132057	0.030629	-0.011832	-0.865967	-0.323975	-0.243164
1205.0	6.159886	-0.343953	7.753483	0.134816	0.03874	-0.008977	-0.861328	-0.328125	-0.251709
1206.0	6.20021	-0.320772	7.724626	0.147681	0.033005	-0.016615	-0.865479	-0.334473	-0.249512
1207.0	6.183284	-0.279311	7.792554	0.152896	0.022961	-0.019431	-0.858643	-0.343018	-0.251709
1208.0	6.222873	-0.290773	7.859351	0.156897	0.006417	-0.022285	-0.869629	-0.338867	-0.247314
1209.0	6.197269	-0.137157	7.855702	0.1562	-0.010824	-0.021906	-0.867432	-0.341064	-0.251709
1210.0	6.170468	-0.120129	7.873719	0.150251	-0.031493	-0.015799	-0.871826	-0.336914	-0.240967
1211.0	6.243269	-0.202475	7.838219	0.133411	-0.049652	-0.021269	-0.869629	-0.33667	-0.249512
1212.0	6.2179	-0.254967	7.866005	0.132523	-0.061019	-0.018538	-0.871826	-0.341064	-0.245117
1213.0	6.236311	-0.318525	7.8353	0.127097	-0.065218	-0.024882	-0.871826	-0.336914	-0.245117
1214.0	6.241234	-0.340724	7.837369	0.122801	-0.073483	-0.03947	-0.874023	-0.336914	-0.234375
1215.0	6.189602	-0.344058	7.935958	0.118152	-0.090366	-0.053843	-0.876221	-0.339111	-0.236572
1216.0	6.198746	-0.308292	7.865385	0.095236	-0.103065	-0.071064	-0.874023	-0.334717	-0.23877
1217.0	5.995311	-0.183413	8.078768	0.06917	-0.130997	-0.099919	-0.873779	-0.341309	-0.23877
1218.0	5.498341	-0.059463	8.559373	0.032002	-0.230276	-0.115227	-0.871582	-0.341309	-0.22998
1219.0	5.677743	-0.379702	8.461228	0.095911	-0.406061	-0.124119	-0.873779	-0.341309	-0.227783
1220.0	5.988536	-0.010965	8.179396	0.068764	-0.497065	-0.143351	-0.873779	-0.343506	-0.219238
1221.0	5.967108	0.479656	8.261877	0.036039	-0.604857	-0.137409	-0.87793	-0.348145	-0.210449
1222.0	6.049118	0.518669	8.196165	-0.011917	-0.716677	-0.123841	-0.880127	-0.34375	-0.204102
1223.0	6.043031	0.390487	8.285932	-0.043518	-0.837815	-0.101581	-0.87793	-0.350342	-0.206055
1224.0	6.03449	-0.00399	8.366156	-0.051061	-0.975422	-0.094175	-0.886475	-0.348389	-0.186523
1225.0	6.038027	-0.464212	8.359077	-0.008579	-1.132097	-0.099972	-0.888672	-0.348389	-0.18457
1226.0	5.992088	-0.72401	8.452709	0.05636	-1.304704	-0.127415	-0.897461	-0.34668	-0.165039
1227.0	5.948947	-1.000759	8.493802	0.165327	-1.498605	-0.157023	-0.894775	-0.361816	-0.151855
1228.0	5.809084	-0.650606	8.828753	0.278193	-1.721496	-0.182865	-0.907959	-0.355713	-0.132568
1229.0	5.595318	-0.353424	9.197523	0.372589	-2.018629	-0.187006	-0.900879	-0.366699	-0.112793
1230.0	5.456125	-0.394296	9.304743	0.411801	-2.388246	-0.199673	-0.916504	-0.358398	-0.091309
1231.0	5.457767	-0.287681	9.585652	0.401309	-2.77849	-0.231556	-0.91626	-0.363037	-0.062988
1232.0	5.626746	0.218625	10.316296	0.357976	-3.220799	-0.328133	-0.922363	-0.36792	-0.026123
1233.0	4.911425	-0.682789	10.467963	0.276261	-3.6984	-0.418384	-0.926514	-0.375	0.008545
1234.0	4.403387	-2.356878	10.766567	0.212185	-4.24785	-0.579418	-0.928467	-0.377686	0.062744
1235.0	4.112674	-3.404058	10.470531	0.25353	-4.926707	-0.956215	-0.932129	-0.391357	0.110352
1236.0	2.853991	-4.060722	9.511363	0.485304	-5.670077	-1.461564	-0.924805	-0.407227	0.166992
1237.0	4.272015	-4.205785	8.178859	0.968032	-6.621453	-2.061596	-0.915039	-0.431885	0.24292
1238.0	5.947178	-2.832505	8.763322	1.438737	-7.323402	-2.53962	-0.887939	-0.452393	0.331787
1239.0	14.468769	-2.793772	7.857654	1.832604	-7.832799	-2.871882	-0.861084	-0.470459	0.410156
1240.0	26.129891	-0.354773	8.346147	2.308554	-7.506622	-3.134426	-0.829834	-0.486328	0.483887
1241.0	22.878246	2.90389	3.825526	2.167361	-6.774065	-3.085987	-0.793701	-0.510986	0.553467
1242.0	23.8963	-1.093048	8.38559	1.421201	-6.462987	-2.889644	-0.764893	-0.524414	0.609863
1243.0	20.888932	-2.091838	10.279573	0.822238	-5.875816	-2.543858	-0.722412	-0.546631	0.662109
1244.0	21.940814	-2.485169	12.890656	0.260863	-5.37034	-2.404871	-0.699951	-0.562012	0.703369
1245.0	17.362717	-2.873196	15.317264	-0.296609	-3.999628	-2.177053	-0.69043	-0.587891	0.714355
1246.0	3.629881	-7.624942	15.93782	-0.590671	-1.712466	-1.648684	-0.692139	-0.598877	0.723145
1247.0	8.640134	-8.947577	15.319398	-0.142223	-0.324829	-0.759493	-0.715576	-0.611816	0.716553
1248.0	10.205037	-6.834279	16.855508	-0.36654	1.518114	-0.362422	-0.75	-0.620605	0.714355
1249.0	-3.523729	-7.053249	10.277785	-0.177533	1.835166	-0.230506	-0.79126	-0.626953	0.699219
1250.0	-3.174589	-4.301594	8.975866	-0.082679	1.596644	-0.328145	-0.832275	-0.635742	0.697021
1251.0	0.368865	-1.805421	9.291702	-0.387742	1.652198	-0.347696	-0.873047	-0.652832	0.67749
1252.0	3.16963	-0.85463	9.735056	-0.857506	2.028308	-0.238323	-0.924805	-0.663574	0.660156
1253.0	4.511451	-1.069135	9.519609	-1.28913	2.570586	-0.061453	-0.98291	-0.682617	0.623291
1254.0	5.106102	-1.79421	9.010617	-1.518447	3.194476	0.118119	-1.058838	-0.692871	0.573486
1255.0	4.908383	-2.129726	8.134493	-1.522543	3.792485	0.2171	-1.128174	-0.705322	0.510498
1256.0	4.624017	-1.975771	7.4197	-1.395285	4.275105	0.234915	-1.206299	-0.712891	0.423584
1257.0	4.295709	-0.543182	6.93224	-1.339261	4.580039	0.240778	-1.278809	-0.700928	0.317383
1258.0	4.373037	1.27411	6.791696	-1.474569	4.71339	0.295735	-1.344971	-0.690918	0.195801
1259.0	4.610827	2.478069	6.631264	-1.80563	4.713964	0.418704	-1.391846	-0.667969	0.06543
1260.0	5.012557	2.637761	6.387222	-2.193714	4.606752	0.58167	-1.433105	-0.618896	-0.069092
1261.0	5.732905	2.268268	6.329384	-2.456739	4.433413	0.746393	-1.433594	-0.561035	-0.2146
1262.0	6.964874	2.158078	6.570989	-2.593158	4.270613	0.878294	-1.427734	-0.490479	-0.343018
1263.0	8.610015	2.185	6.922371	-2.648733	4.173789	0.98865	-1.39209	-0.406738	-0.477783
1264.0	9.928383	1.863898	7.165117	-2.633316	4.149479	1.076352	-1.333008	-0.308105	-0.579834
1265.0	10.55923	1.522146	7.274294	-2.528158	4.132448	1.167844	-1.232422	-0.216309	-0.666992
1266.0	10.965557	1.60139	7.432687	-2.380292	4.058964	1.296594	-1.127441	-0.118408	-0.712646
1267.0	11.37725	1.90515	7.725734	-2.271654	3.938017	1.47847	-0.986328	-0.049072	-0.708496
1268.0	11.916846	2.509088	8.219714	-2.240667	3.76813	1.69296	-0.877197	0.002441	-0.665283
1269.0	12.812319	2.768515	8.678679	-2.299985	3.636874	1.914231	-0.791992	-0.002441	-0.5979
1270.0	13.399452	2.417665	9.156464	-2.370898	3.553206	2.100646	-0.753906	-0.029053	-0.534912
1271.0	13.965068	2.215519	9.753347	-2.394756	3.493223	2.244735	-0.745605	-0.070313	-0.497803
1272.0	14.464297	2.351571	10.232536	-2.381883	3.456865	2.343599	-0.761475	-0.109131	-0.497559
1273.0	14.785923	3.076399	10.417044	-2.378125	3.416478	2.388857	-0.771729	-0.130371	-0.527832
1274.0	14.671173	4.294424	10.327404	-2.430931	3.328572	2.391822	-0.787109	-0.12793	-0.556152
1275.0	14.673167	5.62675	9.864456	-2.551177	3.176757	2.364257	-0.778809	-0.116455	-0.599365
1276.0	14.440143	6.929345	8.929735	-2.670583	2.95005	2.321979	-0.782227	-0.090332	-0.629883
1277.0	14.683364	7.421119	8.113693	-2.702235	2.665053	2.212128	-0.768066	-0.063965	-0.656006
1278.0	16.31017	6.365901	7.073303	-2.566851	2.49158	1.989249	-0.762451	-0.035645	-0.677734
1279.0	17.496223	4.34903	5.55237	-2.138117	2.501523	1.701124	-0.748291	-0.013916	-0.699707
1280.0	17.522631	3.354654	3.747822	-1.473911	2.577209	1.4731	-0.729492	0.005859	-0.719238
1281.0	16.639525	3.63906	1.727117	-0.844075	2.560501	1.363196	-0.7146	0.016846	-0.736572
1282.0	15.052206	4.301118	-0.548406	-0.413191	2.368977	1.28253	-0.704346	0.032227	-0.749512
1283.0	13.330591	5.307327	-2.455978	-0.198554	1.977723	1.146511	-0.685303	0.043213	-0.773438
1284.0	12.179065	7.118783	-3.349488	-0.21241	1.404853	0.944811	-0.674805	0.054199	-0.780029
1285.0	11.917885	8.829057	-3.627352	-0.597194	0.78427	0.76375	-0.673096	0.065186	-0.792969
1286.0	12.344024	8.833802	-3.844679	-1.049712	0.227039	0.638411	-0.666992	0.078125	-0.799561
1287.0	12.845126	6.648364	-4.050498	-1.113412	-0.137095	0.495386	-0.665527	0.095215	-0.79541
1288.0	13.009594	4.535296	-3.995527	-0.667271	-0.373789	0.284162	-0.674561	0.104004	-0.797607
1289.0	13.251141	3.804857	-3.217734	0.046263	-0.545736	0.079235	-0.672363	0.099609	-0.802002
1290.0	4.591072	-4.520168	1.943962	0.693408	-0.562532	-0.113649	-0.682861	0.093262	-0.799805
1291.0	9.960506	2.439655	-4.119136	3.897174	-2.256922	-1.335387	-0.69458	0.054443	-0.803955
1292.0	-8.198997	-9.925787	6.026089	2.626126	-2.319033	-1.955262	-0.728027	0.021973	-0.797363
1293.0	6.536348	-4.889445	14.910075	3.282941	-2.269044	-2.335829	-0.739502	-0.02124	-0.78833
1294.0	5.910686	9.194885	5.597165	4.005111	-2.781323	-1.947663	-0.76416	-0.058105	-0.777344
1295.0	10.798262	10.792265	11.724729	2.475043	-3.242116	-1.234762	-0.780518	-0.083984	-0.768555
1296.0	12.250732	11.050402	15.425628	1.963009	-3.227865	-1.09312	-0.808105	-0.099365	-0.753418
1297.0	18.899591	12.47198	15.17743	1.095956	-3.046203	-1.133031	-0.815918	-0.123291	-0.733887
1298.0	26.481553	2.021631	13.400349	0.468235	-2.116213	-1.01519	-0.833008	-0.130127	-0.7229
1299.0	8.299412	-5.262046	6.137862	1.149563	-0.976262	-0.514825	-0.841064	-0.147461	-0.714355
1300.0	7.374534	0.941928	9.584222	1.2001	-1.220418	-0.46478	-0.851807	-0.151855	-0.712158
1301.0	7.338526	5.845233	10.98146	0.942937	-1.001482	-0.398647	-0.849121	-0.164795	-0.707764
1302.0	10.048169	2.970728	9.623697	0.392033	-0.297993	-0.146011	-0.855469	-0.166992	-0.701172
1303.0	7.381396	-2.554747	7.872754	0.347599	-0.350404	-0.06622	-0.855225	-0.171143	-0.705566
1304.0	6.535894	-0.533509	7.531088	0.33046	-0.028529	-0.077341	-0.864014	-0.169189	-0.701172
1305.0	7.24539	0.336693	8.029363	0.308876	-0.051726	-0.081272	-0.859619	-0.171387	-0.701172
1306.0	6.335222	0.313618	8.165569	0.216107	0.042407	-0.072184	-0.861816	-0.17334	-0.705566
1307.0	6.581023	-0.237372	8.143933	0.177371	0.078043	-0.057638	-0.853027	-0.177734	-0.703369
1308.0	6.576255	-0.143833	7.994541	0.178711	0.092325	-0.060277	-0.861328	-0.182129	-0.701172
1309.0	6.395668	-0.290618	8.071937	0.19927	0.091572	-0.058625	-0.852539	-0.184082	-0.703369
1310.0	6.317048	-0.180941	7.96589	0.213266	0.062665	-0.067499	-0.857178	-0.181885	-0.709717
