Acquisition frequency: 100 Hz
PacketCounter	Acc_X	Acc_Y	Acc_Z	Gyr_X	Gyr_Y	Gyr_Z	Mag_X	Mag_Y	Mag_Z
1.0	5.922702	0.105071	8.476664	-0.030168	0.014406	0.255448	-0.613525	0.036133	-0.448242
2.0	5.903341	-0.178652	8.550809	-0.029311	0.015937	0.230171	-0.620117	0.035889	-0.448242
3.0	5.872684	-0.275052	8.52303	-0.022271	0.016506	0.190539	-0.61377	0.040283	-0.452881
4.0	5.84794	-0.219019	8.561547	-0.020684	0.012842	0.14981	-0.620361	0.040283	-0.448242
5.0	5.881312	-0.159521	8.538195	-0.017394	0.013346	0.120706	-0.616211	0.044678	-0.446289
6.0	5.849388	-0.130727	8.549438	-0.019266	0.011213	0.08713	-0.622314	0.038086	-0.439209
7.0	5.861456	-0.11817	8.524727	-0.020851	0.020633	0.067167	-0.614014	0.046875	-0.446289
8.0	5.878158	-0.107398	8.523962	-0.02356	0.017068	0.04549	-0.620605	0.046875	-0.450684
9.0	5.827473	-0.280525	8.514962	-0.033119	0.021791	0.019706	-0.615967	0.040283	-0.446045
10.0	5.856666	-0.238548	8.565328	-0.029941	0.022573	-0.024664	-0.614014	0.044678	-0.443848
11.0	5.881896	-0.012438	8.537982	-0.036607	0.020818	-0.04413	-0.615967	0.04248	-0.448486
12.0	5.841508	-0.008047	8.522594	-0.044795	0.022969	-0.049817	-0.616211	0.044678	-0.455322
13.0	5.865363	-0.042153	8.489645	-0.045658	0.025252	-0.064883	-0.615967	0.04248	-0.448486
14.0	5.87104	-0.010522	8.518383	-0.04139	0.025051	-0.070483	-0.618164	0.04248	-0.450684
15.0	5.872043	0.024074	8.52326	-0.050741	0.020966	-0.076095	-0.61377	0.04248	-0.448486
16.0	5.862311	-0.006717	8.497328	-0.046112	0.025697	-0.083356	-0.615967	0.040283	-0.452881
17.0	5.860048	-0.005471	8.498889	-0.046474	0.027688	-0.093397	-0.616211	0.046875	-0.446289
18.0	5.878897	0.046635	8.502332	-0.044381	0.026823	-0.100404	-0.620605	0.044678	-0.448486
19.0	5.894862	0.065154	8.502197	-0.039944	0.026533	-0.104319	-0.615967	0.04248	-0.450684
20.0	5.85876	0.070121	8.510843	-0.034378	0.027346	-0.103295	-0.611572	0.040283	-0.446045
21.0	5.88803	0.108458	8.485336	-0.029862	0.028588	-0.098756	-0.618164	0.04248	-0.448486
22.0	5.888233	0.146298	8.490666	-0.021537	0.028158	-0.098103	-0.61377	0.040283	-0.450684
23.0	5.867478	0.133807	8.494043	-0.022094	0.028275	-0.089571	-0.609375	0.040527	-0.450684
24.0	5.893759	0.13811	8.465099	-0.021093	0.032799	-0.084547	-0.618164	0.040283	-0.448242
25.0	5.882949	0.190809	8.499618	-0.014954	0.026571	-0.080339	-0.611328	0.036133	-0.455078
26.0	5.888746	0.144527	8.46848	-0.01673	0.027211	-0.069973	-0.615967	0.04248	-0.450684
27.0	5.880383	0.159253	8.522875	-0.017493	0.024101	-0.064855	-0.61377	0.04248	-0.452881
28.0	5.886887	0.183385	8.475141	-0.018219	0.024319	-0.058006	-0.61377	0.040283	-0.448486
29.0	5.85589	0.183962	8.507196	-0.015891	0.019766	-0.049936	-0.613525	0.033936	-0.452881
30.0	5.831225	0.17196	8.486249	-0.016618	0.019983	-0.043093	-0.615967	0.040283	-0.448486
31.0	5.839094	0.167124	8.534878	-0.015998	0.016253	-0.03817	-0.61792	0.038086	-0.452881
32.0	5.864117	0.063523	8.517708	-0.01166	0.012485	-0.030347	-0.61377	0.040283	-0.448486
33.0	5.867772	0.132931	8.526003	-0.011655	0.017617	-0.035316	-0.61377	0.04248	-0.450684
34.0	5.84829	0.117448	8.528534	-0.016759	0.01314	-0.03306	-0.615967	0.04248	-0.452881
35.0	5.876037	0.048215	8.514947	-0.011093	0.012367	-0.038833	-0.615967	0.04248	-0.450684
36.0	5.866606	0.170259	8.532151	-0.011256	0.012466	-0.040491	-0.618164	0.04248	-0.448486
37.0	5.837835	0.089638	8.503255	-0.012938	0.011478	-0.036925	-0.615967	0.040283	-0.448486
38.0	5.873101	0.123265	8.500699	-0.00952	0.009837	-0.03064	-0.615723	0.035889	-0.450439
39.0	5.835902	0.0917	8.50456	-0.012314	0.012881	-0.036973	-0.61377	0.038086	-0.450684
40.0	5.875643	0.122575	8.525945	-0.010144	0.013565	-0.035546	-0.615967	0.04248	-0.448486
41.0	5.856439	0.107279	8.528283	-0.010117	0.011757	-0.028842	-0.615723	0.038086	-0.446045
42.0	5.853083	0.145334	8.508929	-0.008734	0.011138	-0.029023	-0.615723	0.038086	-0.450684
43.0	5.867818	0.12834	8.504272	-0.008571	0.011037	-0.027359	-0.611572	0.03833	-0.452881
44.0	5.855777	0.144181	8.534063	-0.007786	0.01234	-0.02575	-0.613525	0.033936	-0.452881
45.0	5.863425	0.095895	8.501912	-0.004856	0.011005	-0.024454	-0.609375	0.03833	-0.452881
46.0	5.844484	0.151839	8.487766	-0.005777	0.007993	-0.021022	-0.61792	0.035889	-0.450439
47.0	5.868785	0.128785	8.530576	-0.005753	0.011319	-0.019285	-0.611328	0.033936	-0.446045
48.0	5.845256	0.116197	8.508874	-0.001463	0.006042	-0.019909	-0.611572	0.040283	-0.448486
49.0	5.862753	0.13349	8.507685	-0.002685	0.006557	-0.018064	-0.615967	0.040283	-0.450684
50.0	5.855222	0.103087	8.480498	0.000246	0.005224	-0.016769	-0.606934	0.036133	-0.452881
51.0	5.866508	0.132584	8.532084	-0.000863	0.00412	-0.021696	-0.618164	0.040283	-0.450684
52.0	5.854408	0.10532	8.481032	-0.002247	0.004736	-0.021512	-0.61377	0.040283	-0.448486
53.0	5.872013	0.122961	8.479763	0.000981	0.00501	-0.023591	-0.611572	0.03833	-0.452881
54.0	5.869852	0.133247	8.556739	-0.005178	0.006067	-0.022804	-0.619873	0.031494	-0.450439
55.0	5.859996	0.140054	8.509479	-0.000539	0.003918	-0.018371	-0.609131	0.036133	-0.441406
56.0	5.864418	0.138242	8.533431	6.3e-05	0.001998	-0.02016	-0.613525	0.033936	-0.452881
57.0	5.875096	0.124469	8.504596	0.000703	0.006729	-0.018476	-0.61792	0.033936	-0.452881
58.0	5.858785	0.1434	8.510257	0.000244	0.005223	-0.016762	-0.61377	0.040283	-0.452881
59.0	5.853523	0.147095	8.486852	-0.001419	0.007557	-0.011468	-0.615723	0.033691	-0.446045
60.0	5.873373	0.126941	8.50575	-3.4e-05	0.006942	-0.011651	-0.61792	0.033936	-0.455078
61.0	5.872749	0.127401	8.506173	-0.004809	0.00738	-0.011049	-0.613525	0.033936	-0.448242
62.0	5.88145	0.122169	8.554198	0.004139	0.008423	-0.010462	-0.618164	0.040283	-0.448242
63.0	5.848528	0.115072	8.484961	-0.004791	0.010705	-0.009312	-0.615723	0.035889	-0.450439
64.0	5.870419	0.128953	8.507759	0.000749	0.008247	-0.010042	-0.61792	0.038086	-0.448242
65.0	5.858451	0.14441	8.537426	-0.002947	0.011597	-0.011207	-0.611572	0.03833	-0.448242
66.0	5.850508	0.113616	8.510588	-0.001103	0.012488	-0.013102	-0.615723	0.038086	-0.450684
67.0	5.872248	0.127685	8.533484	-0.002183	0.009576	-0.011335	-0.615723	0.035889	-0.446045
68.0	5.887152	0.110439	8.528798	-0.001885	0.011183	-0.014707	-0.61792	0.038086	-0.452881
69.0	5.843007	0.11851	8.488717	0.001667	0.011259	-0.013464	-0.611328	0.033936	-0.450439
70.0	5.864804	0.132863	8.51157	-0.00112	0.009162	-0.014836	-0.61377	0.040283	-0.450684
71.0	5.861609	0.099521	8.508483	0.002906	0.014071	-0.013568	-0.615967	0.040283	-0.450684
72.0	5.885492	0.148213	8.535169	0.000427	0.008447	-0.013357	-0.615967	0.040283	-0.452881
73.0	5.861929	0.135483	8.513509	-0.003592	0.011995	-0.017841	-0.613525	0.033936	-0.448242
74.0	5.858744	0.101993	8.510427	-0.002046	0.011281	-0.016363	-0.61377	0.040283	-0.446045
75.0	5.873487	0.085203	8.505876	9.7e-05	0.01378	-0.021626	-0.609375	0.03833	-0.450684
76.0	5.842947	0.156062	8.520916	-0.006537	0.009995	-0.02087	-0.61377	0.038086	-0.452881
77.0	5.896408	0.134806	8.533199	-0.001601	0.009461	-0.019808	-0.611328	0.036133	-0.452881
78.0	5.850295	0.108731	8.4892	-0.001441	0.00936	-0.018148	-0.613281	0.031738	-0.450439
79.0	5.867418	0.126179	8.488269	-0.003307	0.010274	-0.022942	-0.615723	0.033936	-0.448242
80.0	5.853369	0.107955	8.514051	-0.001773	0.006235	-0.023201	-0.613525	0.036133	-0.450439
81.0	5.852743	0.109273	8.514465	-0.001475	0.007841	-0.026569	-0.617676	0.031738	-0.452637
82.0	5.872201	0.161496	8.517142	-0.000868	0.005922	-0.028356	-0.615723	0.035889	-0.448242
83.0	5.866994	0.165763	8.493709	-0.001614	0.006133	-0.021538	-0.615479	0.031738	-0.445801
84.0	5.868934	0.129796	8.514127	-0.001156	0.00764	-0.023247	-0.61377	0.040283	-0.44165
85.0	5.852262	0.148786	8.519935	-0.00347	0.01037	-0.024592	-0.61792	0.035889	-0.450439
86.0	5.869371	0.166254	8.519001	-0.003608	0.008663	-0.019564	-0.622314	0.038086	-0.448242
87.0	5.884542	0.149291	8.5142	-0.004226	0.007256	-0.019511	-0.61377	0.038086	-0.452881
88.0	5.86125	0.136373	8.492372	-0.006999	0.008478	-0.019147	-0.620361	0.040283	-0.452881
89.0	5.881026	0.116423	8.511402	-0.003768	0.008762	-0.021219	-0.611084	0.029541	-0.450439
90.0	5.85978	0.13788	8.493363	-0.007936	0.00727	-0.022411	-0.615723	0.038086	-0.448242
91.0	5.88163	0.152029	8.516164	-0.008545	0.009188	-0.020621	-0.611328	0.036133	-0.448242
92.0	5.862883	0.136013	8.518198	-0.008545	0.009188	-0.020619	-0.615723	0.038086	-0.450684
93.0	5.880128	0.152901	8.517186	-0.009619	0.006273	-0.018858	-0.613525	0.035889	-0.446045
94.0	5.861393	0.136836	8.51921	-0.007313	0.012002	-0.020718	-0.618164	0.040283	-0.450684
95.0	5.894269	0.136114	8.513118	-0.010092	0.009897	-0.022092	-0.606934	0.033936	-0.446045
96.0	5.870722	0.123011	8.491473	-0.008859	0.012712	-0.022191	-0.611572	0.03833	-0.450684
97.0	5.835845	0.124669	8.498921	-0.009157	0.011103	-0.018824	-0.613281	0.031738	-0.452637
98.0	5.857348	0.138821	8.52196	-0.00531	0.012799	-0.020944	-0.615723	0.038086	-0.450684
99.0	5.865584	0.090472	8.489817	-0.007472	0.012101	-0.022368	-0.613525	0.036133	-0.450439
100.0	5.86187	0.128409	8.470564	-0.00779	0.012301	-0.025682	-0.615723	0.035889	-0.448242
101.0	5.8653	0.126738	8.495164	-0.002259	0.014996	-0.031345	-0.609131	0.033936	-0.448242
102.0	5.86873	0.125024	8.519763	-0.007632	0.012198	-0.024021	-0.611572	0.040283	-0.452881
103.0	5.860253	0.166123	8.476794	-0.00549	0.014706	-0.029271	-0.61377	0.038086	-0.452881
104.0	5.863875	0.16439	8.501254	-0.004857	0.007655	-0.026118	-0.615723	0.033936	-0.448242
105.0	5.859067	0.097118	8.494243	-0.004103	0.014096	-0.029447	-0.615967	0.040283	-0.446045
106.0	5.858017	0.098526	8.49495	-0.002398	0.009962	-0.028052	-0.61377	0.038086	-0.450684
107.0	5.858911	0.134365	8.499455	-0.001487	0.012978	-0.031461	-0.613281	0.031738	-0.448242
108.0	5.859718	0.170274	8.504004	-0.001943	0.011469	-0.029753	-0.615723	0.038086	-0.448242
109.0	5.879476	0.151201	8.523088	8.1e-05	0.007136	-0.025045	-0.615723	0.033936	-0.450439
110.0	5.890043	0.137767	8.494572	-0.005175	0.011174	-0.027682	-0.61377	0.038086	-0.450684
111.0	5.852445	0.177378	8.481959	-0.001785	0.011367	-0.028091	-0.615723	0.033691	-0.446045
112.0	5.894412	0.171889	8.523603	-0.002402	0.013283	-0.026301	-0.615723	0.038086	-0.452881
113.0	5.868993	0.12511	8.498145	-0.004088	0.01228	-0.022757	-0.613525	0.033936	-0.448242
114.0	5.874374	0.157514	8.52649	-0.002699	0.011673	-0.022936	-0.61792	0.033691	-0.448242
115.0	5.868773	0.161607	8.503361	-0.00131	0.011066	-0.023115	-0.613525	0.033936	-0.448242
116.0	5.854545	0.143374	8.529228	-0.001468	0.011166	-0.024769	-0.617676	0.031738	-0.448242
117.0	5.878225	0.149564	8.475628	-0.001784	0.011365	-0.028079	-0.613281	0.031738	-0.448242
118.0	5.865715	0.165482	8.505396	-0.005478	0.012883	-0.022569	-0.611328	0.033936	-0.448242
119.0	5.864733	0.166654	8.506051	-0.000849	0.00925	-0.026552	-0.613525	0.036133	-0.448242
120.0	5.850546	0.148312	8.531887	-0.003932	0.012176	-0.021091	-0.613525	0.033936	-0.448242
121.0	5.880417	0.185626	8.506076	-0.001791	0.014688	-0.026332	-0.615723	0.033691	-0.446045
122.0	5.870491	0.164289	8.555934	-0.00471	0.01419	-0.020956	-0.615723	0.033936	-0.448242
123.0	5.876291	0.153314	8.503825	-0.004544	0.010765	-0.021039	-0.613525	0.033936	-0.450439
124.0	5.843178	0.189544	8.51497	-0.0027	0.011669	-0.022921	-0.61792	0.038086	-0.450684
125.0	5.874381	0.155211	8.50511	-0.004998	0.009255	-0.019334	-0.611084	0.031738	-0.455078
126.0	5.852917	0.17656	8.487095	-0.001451	0.009355	-0.018085	-0.613525	0.036133	-0.452881
127.0	5.868356	0.160061	8.482273	0.00134	0.004821	-0.020183	-0.613281	0.029541	-0.448242
128.0	5.870416	0.124122	8.502751	-0.00209	0.013077	-0.022963	-0.615723	0.038086	-0.446045
129.0	5.850487	0.179925	8.4887	-0.005312	0.009452	-0.02264	-0.613525	0.036133	-0.448242
130.0	5.870197	0.160452	8.507901	-0.002858	0.011767	-0.024568	-0.615723	0.033936	-0.452881
131.0	5.857699	0.176233	8.537589	-0.003155	0.010157	-0.021209	-0.611328	0.033936	-0.448242
132.0	5.866575	0.128358	8.505339	-0.002858	0.011766	-0.024565	-0.615723	0.033936	-0.452881
133.0	5.869096	0.198077	8.513611	-0.003298	0.006932	-0.024601	-0.613281	0.029541	-0.450439
134.0	5.853328	0.14523	8.535515	-0.005483	0.012872	-0.022548	-0.61377	0.038086	-0.448242
135.0	5.845073	0.186464	8.492287	0.00103	0.005022	-0.023482	-0.615723	0.035889	-0.448242
136.0	5.862249	0.204324	8.491302	-0.002063	0.007942	-0.018027	-0.615479	0.031738	-0.452637
137.0	5.851353	0.148538	8.536812	0.000109	0.005326	-0.018338	-0.615723	0.033936	-0.452881
138.0	5.86659	0.160435	8.435258	0.003046	0.00402	-0.017041	-0.61792	0.035889	-0.439209
139.0	5.85526	0.148075	8.561023	0.003218	0.000597	-0.017126	-0.613525	0.036133	-0.448242
140.0	5.862303	0.137839	8.508136	0.008781	-0.001814	-0.017842	-0.615723	0.033936	-0.455078
141.0	5.841811	0.160023	8.489386	0.008328	-0.003324	-0.016141	-0.615723	0.033691	-0.446045
142.0	5.883688	0.226648	8.514133	0.010015	-0.002318	-0.019674	-0.615723	0.033936	-0.450439
143.0	5.892475	0.145351	8.477058	0.009128	-0.008662	-0.01801	-0.611084	0.031738	-0.445801
144.0	5.860563	0.182155	8.487214	0.005998	-0.000611	-0.017481	-0.615234	0.027344	-0.445801
145.0	5.883131	0.197445	8.509433	0.007424	-0.006344	-0.012736	-0.611084	0.031738	-0.452637
146.0	5.899687	0.181361	8.503896	0.006172	-0.004035	-0.017565	-0.613525	0.036133	-0.450439
147.0	5.895305	0.185664	8.479928	0.006467	-0.000908	-0.012518	-0.615723	0.035889	-0.450439
148.0	5.861421	0.187689	8.4865	0.003529	0.000395	-0.013814	-0.613525	0.033936	-0.455078
149.0	5.901291	0.219498	8.507631	0.006136	0.002614	-0.014087	-0.613281	0.027344	-0.452637
150.0	5.904106	0.183475	8.5277	0.002294	0.000897	-0.01198	-0.613281	0.031738	-0.443604
151.0	5.877041	0.173289	8.481586	0.00012	0.003511	-0.01167	-0.613281	0.031738	-0.445801
152.0	5.89884	0.187773	8.504344	-0.001447	0.007536	-0.011406	-0.615479	0.031738	-0.448242
153.0	5.877453	0.208736	8.486193	-0.001447	0.007536	-0.011406	-0.61792	0.035889	-0.448242
154.0	5.888341	0.194488	8.457654	-0.00423	0.008739	-0.011048	-0.611572	0.03833	-0.448242
155.0	5.88749	0.194786	8.45824	-0.00517	0.010849	-0.012569	-0.611084	0.031738	-0.448242
156.0	5.890966	0.192163	8.482799	-0.00519	0.014174	-0.010831	-0.613281	0.031738	-0.450439
157.0	5.910466	0.171882	8.50225	-0.008892	0.014162	-0.013732	-0.617676	0.029541	-0.448242
158.0	5.893145	0.189618	8.508251	-0.004562	0.01226	-0.012614	-0.613525	0.033936	-0.448242
159.0	5.891864	0.189961	8.50913	-0.00799	0.01718	-0.01713	-0.613281	0.031738	-0.450439
160.0	5.902139	0.175505	8.481049	-0.008893	0.01416	-0.01373	-0.611084	0.031738	-0.445801
161.0	5.893746	0.187393	8.534779	-0.008441	0.01567	-0.015428	-0.615723	0.033936	-0.450439
162.0	5.883344	0.19321	8.488063	-0.010284	0.01476	-0.013549	-0.61792	0.035889	-0.446045
163.0	5.902725	0.172804	8.507607	-0.009833	0.01627	-0.015247	-0.613281	0.029541	-0.445801
164.0	5.879096	0.158904	8.4861	-0.009523	0.016072	-0.01194	-0.613525	0.033936	-0.443604
165.0	5.895458	0.175621	8.485692	-0.01044	0.014858	-0.015199	-0.611084	0.031738	-0.452637
166.0	5.876408	0.158698	8.487965	-0.01076	0.016572	-0.010106	-0.615723	0.035889	-0.446045
167.0	5.910209	0.192037	8.486419	-0.011404	0.020292	-0.014976	-0.613281	0.031738	-0.448242
168.0	5.907204	0.157654	8.483601	-0.014139	0.014844	-0.018099	-0.617676	0.031494	-0.445801
169.0	5.884841	0.177923	8.466124	-0.013892	0.0231	-0.017966	-0.615479	0.031738	-0.445801
170.0	5.887396	0.174815	8.491304	-0.015891	0.022287	-0.017741	-0.613281	0.029541	-0.448242
171.0	5.885532	0.174483	8.492603	-0.016497	0.020875	-0.017694	-0.613281	0.029541	-0.448242
172.0	5.888222	0.171261	8.517683	-0.016651	0.020974	-0.019345	-0.617676	0.031494	-0.445801
173.0	5.886422	0.171088	8.51893	-0.015413	0.020474	-0.021173	-0.617676	0.029541	-0.448242
174.0	5.884653	0.170937	8.520155	-0.015105	0.020274	-0.017866	-0.615723	0.035889	-0.448242
175.0	5.878378	0.173591	8.497575	-0.016651	0.020972	-0.019338	-0.61792	0.033691	-0.443604
176.0	5.876653	0.173308	8.498774	-0.01571	0.018861	-0.017818	-0.611572	0.03833	-0.448242
177.0	5.854144	0.193437	8.481385	-0.016047	0.022382	-0.019377	-0.611084	0.031738	-0.448242
178.0	5.889274	0.155357	8.496099	-0.015106	0.020272	-0.017857	-0.615723	0.035889	-0.446045
179.0	5.859523	0.186987	8.531499	-0.01695	0.019357	-0.015982	-0.613281	0.031738	-0.445801
180.0	5.87412	0.169127	8.527457	-0.01571	0.018859	-0.01781	-0.613281	0.031738	-0.448242
181.0	5.868151	0.171972	8.504673	-0.012289	0.015753	-0.019951	-0.615723	0.035889	-0.452881
182.0	5.865415	0.137587	8.501649	-0.015374	0.015335	-0.016248	-0.615723	0.038086	-0.448242
183.0	5.869849	0.168679	8.530406	-0.015075	0.016948	-0.019592	-0.615479	0.031738	-0.450439
184.0	5.846274	0.154651	8.508823	-0.015075	0.016947	-0.01959	-0.613525	0.033936	-0.443604
185.0	5.862478	0.171255	8.508599	-0.017073	0.016132	-0.019368	-0.615479	0.031738	-0.450439
186.0	5.895026	0.170363	8.50315	-0.015527	0.015433	-0.017893	-0.613525	0.036133	-0.452881
187.0	5.875953	0.153376	8.505354	-0.012926	0.017661	-0.018151	-0.611084	0.029541	-0.448242
188.0	5.849412	0.147821	8.56043	-0.018466	0.016726	-0.019185	-0.615723	0.033936	-0.450439
189.0	5.874393	0.187091	8.511361	-0.015679	0.015533	-0.019539	-0.611084	0.029541	-0.450439
190.0	5.870353	0.118417	8.504313	-0.01353	0.016247	-0.018104	-0.615723	0.035889	-0.450439
191.0	5.886572	0.135111	8.504102	-0.017224	0.016229	-0.021009	-0.613525	0.033936	-0.448242
192.0	5.871848	0.115118	8.530166	-0.016018	0.019054	-0.021087	-0.611328	0.036133	-0.450684
193.0	5.856657	0.201118	8.544418	-0.010894	0.015156	-0.020105	-0.615723	0.033936	-0.450439
194.0	5.88803	0.16645	8.534898	-0.011195	0.01354	-0.016762	-0.615723	0.033936	-0.450439
195.0	5.869204	0.149591	8.536898	-0.01274	0.014237	-0.018233	-0.613525	0.036133	-0.448242
196.0	5.841543	0.138789	8.491243	-0.011648	0.013844	-0.021711	-0.615723	0.033936	-0.452881
197.0	5.8963	0.152607	8.508385	-0.010556	0.013452	-0.025189	-0.613525	0.033936	-0.448242
198.0	5.862372	0.187843	8.519629	-0.011046	0.015256	-0.021747	-0.613525	0.036133	-0.452881
199.0	5.855601	0.156934	8.49251	-0.010064	0.009827	-0.021983	-0.613281	0.031738	-0.452637
200.0	5.858993	0.154265	8.51703	-0.013796	0.013125	-0.023138	-0.611084	0.031738	-0.448242
201.0	5.871038	0.174579	8.492842	-0.009162	0.012856	-0.025358	-0.613281	0.031738	-0.452637
202.0	5.857993	0.189503	8.522604	-0.010857	0.011833	-0.021839	-0.620117	0.033691	-0.446045
203.0	5.873206	0.172611	8.518191	-0.008259	0.014065	-0.022093	-0.615479	0.029541	-0.450439
204.0	5.867643	0.176117	8.495157	-0.008711	0.012549	-0.020403	-0.609131	0.033936	-0.446045
205.0	5.85335	0.156725	8.520864	-0.008861	0.012651	-0.022051	-0.611084	0.031738	-0.445801
206.0	5.881694	0.159618	8.491554	-0.010749	0.015047	-0.018433	-0.611328	0.033936	-0.455078
207.0	5.868677	0.174331	8.521276	-0.006972	0.008432	-0.019027	-0.615479	0.029541	-0.448242
208.0	5.850128	0.157813	8.523057	-0.011651	0.013836	-0.021692	-0.615723	0.035889	-0.446045
209.0	5.878546	0.160662	8.493714	-0.008411	0.012343	-0.017096	-0.613525	0.033936	-0.450439
210.0	5.877453	0.161079	8.494462	-0.008861	0.012649	-0.022044	-0.615723	0.033936	-0.448242
211.0	5.842376	0.161918	8.50152	-0.010106	0.01314	-0.020215	-0.608887	0.029541	-0.448242
212.0	5.880711	0.193074	8.523943	-0.009957	0.013037	-0.018564	-0.615723	0.033691	-0.446045
213.0	5.856437	0.145022	8.497934	-0.012897	0.014324	-0.019858	-0.611572	0.03833	-0.448242
214.0	5.877035	0.159216	8.521583	-0.008906	0.015966	-0.020285	-0.615479	0.031738	-0.452637
215.0	5.87156	0.162478	8.49851	-0.009462	0.009411	-0.015365	-0.611328	0.033936	-0.450439
216.0	5.858323	0.176909	8.528345	-0.013243	0.017844	-0.0214	-0.61377	0.040283	-0.443848
217.0	5.85588	0.14285	8.525139	-0.008412	0.012341	-0.017085	-0.609131	0.036133	-0.452881
218.0	5.86789	0.163093	8.501033	-0.009357	0.014449	-0.018593	-0.613281	0.031738	-0.448242
219.0	5.871065	0.160465	8.525673	-0.00871	0.012546	-0.020381	-0.615479	0.029541	-0.450439
220.0	5.849152	0.181202	8.507792	-0.010255	0.013239	-0.021852	-0.611328	0.033936	-0.450439
221.0	5.867622	0.127027	8.523154	-0.009507	0.01455	-0.020237	-0.611572	0.03833	-0.448242
222.0	5.863074	0.164567	8.504326	-0.010754	0.015038	-0.01841	-0.611084	0.031738	-0.450439
223.0	5.866237	0.161859	8.52897	-0.011001	0.011927	-0.02346	-0.611328	0.036133	-0.455078
224.0	5.877036	0.147867	8.500848	-0.013246	0.017839	-0.021386	-0.613525	0.036133	-0.452881
225.0	5.863627	0.162493	8.530753	-0.007313	0.011954	-0.020549	-0.615479	0.029541	-0.450439
226.0	5.858143	0.165788	8.5077	-0.012751	0.014212	-0.018191	-0.615723	0.035889	-0.448242
227.0	5.895274	0.16266	8.526125	-0.008561	0.012441	-0.018721	-0.609131	0.033936	-0.450439
228.0	5.851474	0.16931	8.485464	-0.00936	0.014445	-0.018578	-0.615723	0.033936	-0.452881
229.0	5.854689	0.166595	8.510062	-0.009159	0.011025	-0.018683	-0.613525	0.033936	-0.448242
230.0	5.891799	0.16368	8.528507	-0.00891	0.015962	-0.020258	-0.611084	0.031738	-0.452637
231.0	5.852267	0.167363	8.511712	-0.008561	0.012439	-0.018716	-0.611084	0.027344	-0.452637
232.0	5.867586	0.150309	8.50733	-0.008918	0.014134	-0.013628	-0.613525	0.033936	-0.450439
233.0	5.86621	0.150727	8.508272	-0.004922	0.017612	-0.020676	-0.613525	0.033936	-0.448242
234.0	5.854404	0.234006	8.546729	-0.01051	0.019969	-0.019968	-0.613281	0.031738	-0.445801
235.0	5.880446	0.16838	8.509498	-0.008974	0.017447	-0.011868	-0.615479	0.031738	-0.448242
236.0	5.861429	0.151622	8.511551	-0.006171	0.018098	-0.018846	-0.615723	0.038086	-0.448242
237.0	5.873075	0.172117	8.487763	-0.008018	0.017168	-0.016986	-0.613525	0.033936	-0.448242
238.0	5.862771	0.149325	8.537413	-0.008615	0.015752	-0.016951	-0.611328	0.033936	-0.450439
239.0	5.856974	0.152679	8.514598	-0.0114	0.018758	-0.023222	-0.615723	0.038086	-0.455078
240.0	5.868498	0.173096	8.490908	-0.008967	0.019274	-0.018486	-0.613525	0.033936	-0.448242
241.0	5.8452	0.159368	8.469102	-0.010159	0.016443	-0.018418	-0.613525	0.033936	-0.448242
242.0	5.856628	0.150476	8.541608	-0.01016	0.016442	-0.018417	-0.615479	0.031738	-0.445801
243.0	5.834394	0.170942	8.523902	-0.01016	0.016442	-0.018415	-0.611572	0.03833	-0.448242
244.0	5.862725	0.173992	8.494878	-0.010756	0.015026	-0.018381	-0.61377	0.040283	-0.448486
245.0	5.852482	0.151004	8.54444	-0.012299	0.015717	-0.019851	-0.62207	0.031494	-0.452637
246.0	5.864396	0.171311	8.520508	-0.0101	0.013127	-0.020169	-0.615479	0.031738	-0.450439
247.0	5.862287	0.137319	8.517118	-0.009213	0.014334	-0.016905	-0.615723	0.033936	-0.450439
248.0	5.866319	0.168767	8.545955	-0.010695	0.01171	-0.020134	-0.609375	0.03833	-0.450684
249.0	5.839331	0.158057	8.499899	-0.006721	0.011536	-0.013928	-0.606934	0.031738	-0.448242
250.0	5.842498	0.155254	8.524491	-0.00767	0.013642	-0.015431	-0.611328	0.033936	-0.452881
251.0	5.857979	0.138372	8.520065	-0.005323	0.010948	-0.014103	-0.611328	0.033936	-0.457275
252.0	5.837093	0.193239	8.506246	-0.005324	0.010948	-0.014102	-0.613281	0.031738	-0.445801
253.0	5.852576	0.176362	8.501824	-0.00767	0.013641	-0.015428	-0.613281	0.031738	-0.448242
254.0	5.834023	0.159585	8.503514	-0.004584	0.01226	-0.012485	-0.613281	0.031738	-0.445801
255.0	5.850344	0.17706	8.503346	-0.006417	0.013158	-0.017249	-0.613281	0.031738	-0.452637
256.0	5.89187	0.171226	8.545625	-0.00423	0.008737	-0.01095	-0.611572	0.03833	-0.448242
257.0	5.835182	0.157547	8.529458	-0.006931	0.014951	-0.013809	-0.613281	0.031738	-0.445801
258.0	5.868027	0.157642	8.524182	-0.006577	0.011429	-0.012275	-0.611328	0.033936	-0.448242
259.0	5.850429	0.175021	8.530029	-0.004439	0.012155	-0.010834	-0.615479	0.029541	-0.452637
260.0	5.852785	0.138113	8.550343	-0.00333	0.011777	-0.014302	-0.613525	0.036133	-0.455078
261.0	5.881493	0.141581	8.521161	-0.004729	0.012363	-0.014126	-0.609131	0.036133	-0.450684
262.0	5.846379	0.142255	8.527964	-0.003025	0.013401	-0.017625	-0.611084	0.031738	-0.450439
263.0	5.845233	0.142788	8.528741	-0.006128	0.012947	-0.013949	-0.613525	0.036133	-0.452881
264.0	5.849258	0.174308	8.55753	-0.007604	0.010324	-0.01718	-0.615723	0.038086	-0.450684
265.0	5.860625	0.160643	8.529217	-0.004874	0.012466	-0.015769	-0.613525	0.033936	-0.448242
266.0	5.842263	0.143954	8.530756	-0.005917	0.009529	-0.014061	-0.613525	0.033936	-0.448242
267.0	5.858725	0.161535	8.530505	-0.003475	0.011881	-0.015942	-0.611328	0.036133	-0.45752
268.0	5.870163	0.148084	8.502157	-0.002525	0.009775	-0.014441	-0.61377	0.040283	-0.450684
269.0	5.861196	0.159713	8.555532	-0.003119	0.008359	-0.01441	-0.611328	0.033936	-0.448242
270.0	5.851964	0.166551	8.508365	0.00101	0.009917	-0.013173	-0.611572	0.03833	-0.452881
271.0	5.872909	0.181337	8.531778	-0.002905	0.004941	-0.014524	-0.615479	0.031738	-0.457275
272.0	5.833279	0.150737	8.510107	-0.002382	0.00967	-0.012792	-0.615723	0.033936	-0.450439
273.0	5.832623	0.151232	8.510547	-0.000339	0.005355	-0.008144	-0.615479	0.031738	-0.448242
274.0	5.883558	0.168895	8.503972	0.000917	0.004875	-0.009965	-0.611328	0.033936	-0.448242
275.0	5.835977	0.14945	8.534963	0.002316	0.004291	-0.01014	-0.608887	0.031738	-0.448242
276.0	5.852189	0.133087	8.530103	0.000773	0.004979	-0.01161	-0.619873	0.031494	-0.445801
277.0	5.849015	0.205448	8.515074	0.002909	0.005707	-0.010169	-0.613281	0.031738	-0.450439
278.0	5.864338	0.15478	8.506057	0.00011	0.006875	-0.009819	-0.617676	0.029541	-0.445801
279.0	5.863847	0.155468	8.506382	0.002316	0.004291	-0.010138	-0.613525	0.033936	-0.452881
280.0	5.884781	0.170264	8.529799	-0.000248	0.010396	-0.011348	-0.611328	0.033936	-0.452881
281.0	5.862515	0.156775	8.507277	-0.000482	0.005458	-0.009788	-0.613525	0.033936	-0.452881
282.0	5.862035	0.157307	8.507597	-0.000482	0.005458	-0.009788	-0.611572	0.03833	-0.450684
283.0	5.882327	0.137737	8.526698	-3.3e-05	0.006979	-0.011463	-0.61792	0.033691	-0.443604
284.0	5.857319	0.195848	8.488832	-0.000841	0.008979	-0.011317	-0.611328	0.033936	-0.450439
285.0	5.843325	0.176073	8.514109	-0.003497	0.010042	-0.009322	-0.613525	0.036133	-0.450439
286.0	5.859009	0.159515	8.509641	5.7e-05	0.012021	-0.014666	-0.615723	0.033936	-0.448242
287.0	5.875484	0.177411	8.509379	0.000702	0.008291	-0.009845	-0.613525	0.033936	-0.448242
288.0	5.840523	0.177887	8.515993	-0.004	0.013666	-0.012496	-0.617676	0.031494	-0.445801
289.0	5.859636	0.123749	8.531175	-0.003355	0.009937	-0.007675	-0.611084	0.029541	-0.450439
290.0	5.872576	0.178483	8.511364	-0.003049	0.011562	-0.010995	-0.609131	0.036133	-0.450684
291.0	5.888164	0.161835	8.506984	-0.0026	0.013082	-0.012669	-0.61792	0.033691	-0.443604
292.0	5.85305	0.162255	8.513689	-0.004734	0.012352	-0.01411	-0.611084	0.031738	-0.448242
293.0	5.869389	0.179768	8.513535	-0.005183	0.010831	-0.012436	-0.613281	0.031738	-0.448242
294.0	5.850997	0.163055	8.515084	-0.002743	0.013186	-0.014311	-0.615723	0.038086	-0.450684
295.0	5.850044	0.163497	8.515731	-0.004232	0.008727	-0.010935	-0.617676	0.031738	-0.450439
296.0	5.861862	0.149822	8.487229	-0.003565	0.006831	-0.012725	-0.615723	0.038086	-0.446045
297.0	5.882676	0.164422	8.51073	-0.004658	0.009039	-0.015869	-0.613525	0.036133	-0.448242
298.0	5.847988	0.164893	8.517116	-0.002164	0.006249	-0.012898	-0.611328	0.036133	-0.452881
299.0	5.859917	0.151414	8.488545	-0.003707	0.006935	-0.014369	-0.615723	0.033936	-0.455078
300.0	5.885643	0.197322	8.54011	-0.002306	0.006353	-0.014542	-0.613525	0.036133	-0.450439
301.0	5.86289	0.149434	8.513209	-0.004965	0.007413	-0.012549	-0.611328	0.033936	-0.450439
302.0	5.862133	0.150019	8.51372	0.001007	0.009918	-0.013154	-0.61792	0.038086	-0.450684
303.0	5.861866	0.184846	8.518608	-0.005185	0.010828	-0.01243	-0.611084	0.031738	-0.452637
304.0	5.860369	0.150959	8.514917	-0.004517	0.008933	-0.01422	-0.613525	0.033936	-0.446045
305.0	5.872697	0.171635	8.490808	-0.003785	0.010246	-0.012603	-0.611328	0.033936	-0.441406
306.0	5.858646	0.151694	8.51609	-0.007318	0.010096	-0.013872	-0.617676	0.031738	-0.450439
307.0	5.857658	0.152085	8.516763	-0.00502	0.012557	-0.017389	-0.609375	0.03833	-0.455078
308.0	5.82267	0.152447	8.52332	-0.006059	0.009618	-0.015689	-0.617432	0.027344	-0.450439
309.0	5.873205	0.17024	8.517155	-0.006931	0.008409	-0.01895	-0.61377	0.038086	-0.446045
310.0	5.838278	0.170382	8.523667	-0.011945	0.01215	-0.018282	-0.611572	0.03833	-0.448242
311.0	5.867046	0.173853	8.494669	-0.006422	0.013138	-0.017211	-0.615723	0.033691	-0.446045
312.0	5.870253	0.171197	8.51917	-0.006648	0.0082	-0.015658	-0.611572	0.03833	-0.450684
313.0	5.865181	0.174558	8.495942	-0.009955	0.012985	-0.018479	-0.611572	0.038086	-0.443848
314.0	5.868299	0.171789	8.520504	-0.007601	0.010302	-0.017154	-0.61377	0.038086	-0.446045
315.0	5.850068	0.15491	8.521927	-0.009143	0.010987	-0.018624	-0.611328	0.036133	-0.446045
316.0	5.891568	0.144449	8.463913	-0.010544	0.011566	-0.018449	-0.61377	0.040283	-0.455322
317.0	5.861285	0.175562	8.498609	-0.010992	0.010044	-0.016777	-0.613281	0.031738	-0.448242
318.0	5.86039	0.175695	8.499224	-0.011274	0.010253	-0.020064	-0.615479	0.031738	-0.445801
319.0	5.880357	0.155886	8.518618	-0.007601	0.010301	-0.017148	-0.609375	0.03833	-0.443848
320.0	5.845366	0.155988	8.525133	-0.010686	0.01167	-0.020088	-0.613525	0.033936	-0.450439
321.0	5.874328	0.15966	8.496054	-0.0062	0.009722	-0.017319	-0.611328	0.036133	-0.448242
322.0	5.877517	0.15692	8.520559	-0.010545	0.011564	-0.018442	-0.609131	0.031738	-0.450439
323.0	5.868203	0.163293	8.473564	-0.009958	0.012982	-0.018467	-0.61377	0.040283	-0.448486
324.0	5.841303	0.157191	8.527896	-0.008556	0.012402	-0.018639	-0.613525	0.036133	-0.450439
325.0	5.874728	0.191898	8.52715	-0.009677	0.012771	-0.015177	-0.615723	0.038086	-0.450684
326.0	5.838951	0.15764	8.529498	-0.008922	0.015922	-0.020157	-0.61377	0.038086	-0.452881
327.0	5.867688	0.161157	8.500613	-0.010125	0.011247	-0.013507	-0.611328	0.036133	-0.452881
328.0	5.849739	0.178171	8.506506	-0.012314	0.01566	-0.019783	-0.611084	0.031738	-0.445801
329.0	5.852254	0.140867	8.526788	-0.010852	0.009933	-0.015123	-0.609131	0.033936	-0.446045
330.0	5.860219	0.16433	8.479067	-0.010633	0.014871	-0.016667	-0.620117	0.033691	-0.450439
331.0	5.884373	0.175482	8.526969	-0.010633	0.014871	-0.016665	-0.611572	0.04248	-0.446045
332.0	5.861361	0.12726	8.500294	-0.010097	0.013085	-0.020099	-0.615723	0.035889	-0.448242
333.0	5.881391	0.141634	8.524343	-0.011589	0.016972	-0.018157	-0.611084	0.029541	-0.450439
334.0	5.855425	0.199563	8.487032	-0.004268	0.015713	-0.02233	-0.611572	0.03833	-0.448242
335.0	5.84498	0.176695	8.536417	-0.012593	0.015868	-0.023059	-0.611084	0.031738	-0.448242
336.0	5.890444	0.163082	8.502578	-0.016015	0.013762	-0.016092	-0.615967	0.038086	-0.45752
337.0	5.825192	0.159234	8.538871	-0.010913	0.015079	-0.019942	-0.609375	0.040527	-0.452881
338.0	5.853895	0.162882	8.510084	-0.011499	0.01366	-0.019917	-0.611328	0.033936	-0.448242
339.0	5.835873	0.180061	8.515986	-0.011637	0.013765	-0.021558	-0.611572	0.03833	-0.448242
340.0	5.868757	0.180697	8.51101	-0.012362	0.012452	-0.023176	-0.615967	0.040283	-0.452881
341.0	5.884497	0.163979	8.506677	-0.012085	0.012239	-0.019889	-0.611572	0.038086	-0.446045
342.0	5.87915	0.167249	8.483689	-0.011732	0.017072	-0.019784	-0.615479	0.031738	-0.452637
343.0	5.881975	0.164267	8.508416	-0.010405	0.011451	-0.016775	-0.615479	0.029541	-0.452637
344.0	5.884993	0.161382	8.533004	-0.008555	0.0124	-0.018612	-0.617676	0.031738	-0.450439
345.0	5.845327	0.130218	8.511284	-0.011053	0.015182	-0.021572	-0.615723	0.036133	-0.455078
346.0	5.882501	0.161878	8.534713	-0.012765	0.014126	-0.018091	-0.613525	0.036133	-0.450439
347.0	5.86002	0.147656	8.512345	-0.012765	0.014125	-0.018089	-0.608887	0.031738	-0.443604
348.0	5.85887	0.14771	8.513136	-0.012084	0.012237	-0.019881	-0.615723	0.035889	-0.452881
349.0	5.887646	0.151491	8.484381	-0.00879	0.015813	-0.018476	-0.615967	0.040283	-0.450684
350.0	5.839603	0.165259	8.519853	-0.009414	0.011192	-0.021865	-0.61792	0.035889	-0.448242
351.0	5.859519	0.145507	8.539327	-0.010406	0.011447	-0.016766	-0.609131	0.031738	-0.450439
352.0	5.854294	0.14874	8.516265	-0.01232	0.015648	-0.019746	-0.615723	0.038086	-0.448242
353.0	5.870202	0.166378	8.516501	-0.010371	0.013292	-0.023352	-0.615967	0.040283	-0.448486
354.0	5.834681	0.132023	8.518557	-0.011501	0.013653	-0.019894	-0.617676	0.031738	-0.452637
355.0	5.867811	0.167059	8.518136	-0.008109	0.013924	-0.020259	-0.611328	0.036133	-0.455078
356.0	5.866657	0.167418	8.518923	-0.012221	0.012339	-0.021512	-0.613281	0.031738	-0.450439
357.0	5.865479	0.167712	8.519729	-0.009514	0.014498	-0.020083	-0.611328	0.033936	-0.446045
358.0	5.847158	0.150561	8.521134	-0.011947	0.012124	-0.018227	-0.613525	0.035889	-0.446045
359.0	5.872201	0.15758	8.468369	-0.009996	0.009771	-0.021832	-0.615723	0.033691	-0.443604
360.0	5.845081	0.151061	8.522551	-0.012323	0.015643	-0.019734	-0.611572	0.040283	-0.450684
361.0	5.860905	0.168636	8.522858	-0.013316	0.014544	-0.024635	-0.611328	0.036133	-0.452881
362.0	5.855705	0.172051	8.499793	-0.012221	0.012336	-0.021503	-0.615479	0.031738	-0.452637
363.0	5.841435	0.151764	8.525037	-0.011639	0.013756	-0.021522	-0.613525	0.036133	-0.448242
364.0	5.853268	0.172528	8.501462	-0.012461	0.015748	-0.021367	-0.608887	0.031738	-0.448242
365.0	5.872924	0.1526	8.521145	-0.01503	0.01348	-0.021154	-0.615723	0.033936	-0.450439
366.0	5.854648	0.169586	8.527139	-0.012016	0.017275	-0.023024	-0.611572	0.03833	-0.450684
367.0	5.836335	0.152566	8.528516	-0.009993	0.00977	-0.021821	-0.613525	0.033936	-0.450439
368.0	5.865267	0.15664	8.499774	-0.012599	0.015854	-0.023001	-0.613525	0.033936	-0.450439
369.0	5.88083	0.140089	8.495655	-0.012599	0.015853	-0.022999	-0.613281	0.029541	-0.450439
370.0	5.866464	0.154004	8.525569	-0.01414	0.016532	-0.024465	-0.61377	0.040283	-0.448486
371.0	5.865131	0.154296	8.526481	-0.011775	0.01386	-0.023148	-0.611328	0.033936	-0.452881
372.0	5.855931	0.161036	8.479563	-0.011911	0.013968	-0.024787	-0.613525	0.036133	-0.450439
373.0	5.875641	0.141621	8.499219	-0.012317	0.01429	-0.029705	-0.611084	0.031738	-0.448242
374.0	5.840453	0.175608	8.510207	-0.012911	0.014213	-0.01969	-0.620361	0.04248	-0.450684
375.0	5.877327	0.173467	8.529284	-0.011492	0.012298	-0.029854	-0.61377	0.038086	-0.450684
376.0	5.854927	0.159742	8.506842	-0.013563	0.017948	-0.02447	-0.613525	0.036133	-0.448242
377.0	5.844486	0.136339	8.556012	-0.011086	0.011974	-0.024931	-0.611328	0.036133	-0.450684
378.0	5.869541	0.178099	8.508003	-0.012047	0.014072	-0.026414	-0.615723	0.033936	-0.452881
379.0	5.855257	0.157968	8.533198	-0.012627	0.012651	-0.026395	-0.611084	0.027344	-0.445801
380.0	5.867078	0.144852	8.505078	-0.013588	0.014749	-0.027877	-0.61377	0.038086	-0.450684
381.0	5.848861	0.16214	8.510969	-0.012762	0.012758	-0.02803	-0.611328	0.036133	-0.452881
382.0	5.843718	0.165755	8.487893	-0.015574	0.013895	-0.027683	-0.615479	0.031738	-0.450439
383.0	5.842612	0.16607	8.488648	-0.013072	0.011119	-0.02473	-0.609375	0.03833	-0.452881
384.0	5.879355	0.163981	8.507851	-0.013839	0.018159	-0.027729	-0.615723	0.033936	-0.455078
385.0	5.860981	0.147036	8.509243	-0.011221	0.012079	-0.026554	-0.611328	0.033936	-0.452881
386.0	5.863759	0.144332	8.533922	-0.013456	0.014637	-0.026224	-0.61377	0.038086	-0.448242
387.0	5.871604	0.16861	8.486569	-0.013456	0.014636	-0.026222	-0.61377	0.038086	-0.450684
388.0	5.840272	0.165128	8.516807	-0.012761	0.012755	-0.028014	-0.611572	0.038086	-0.443848
389.0	5.842995	0.162544	8.541513	-0.010065	0.014921	-0.026577	-0.615723	0.033936	-0.448242
390.0	5.87194	0.167015	8.512911	-0.014612	0.01179	-0.026184	-0.61792	0.038086	-0.452881
391.0	5.845734	0.156221	8.466504	-0.013576	0.017936	-0.024434	-0.615723	0.035889	-0.450439
392.0	5.869131	0.167747	8.514833	-0.013147	0.016273	-0.029503	-0.609375	0.03833	-0.450684
393.0	5.850834	0.150933	8.516155	-0.009236	0.012932	-0.026724	-0.615479	0.029541	-0.448242
394.0	5.853553	0.148299	8.540858	-0.013458	0.014631	-0.026207	-0.609131	0.036133	-0.450684
395.0	5.848361	0.186222	8.522402	-0.01122	0.012075	-0.026533	-0.609131	0.033936	-0.455078
396.0	5.843301	0.155806	8.494721	-0.011474	0.015486	-0.026389	-0.61792	0.038086	-0.448242
397.0	5.863075	0.170587	8.518948	-0.011529	0.010433	-0.023239	-0.611084	0.031738	-0.452637
398.0	5.845047	0.153746	8.520078	-0.005712	0.013112	-0.025434	-0.613525	0.036133	-0.452881
399.0	5.857004	0.175219	8.496518	-0.010954	0.011854	-0.023251	-0.613525	0.033936	-0.448242
400.0	5.859996	0.172375	8.52103	-0.012105	0.009008	-0.023221	-0.609131	0.033936	-0.443604
401.0	5.842059	0.155299	8.522098	-0.008971	0.012711	-0.023433	-0.611328	0.033936	-0.450439
402.0	5.861884	0.170199	8.546284	-0.009546	0.011288	-0.023417	-0.611328	0.036133	-0.450684
403.0	5.836087	0.159662	8.499607	-0.009546	0.011287	-0.023416	-0.611328	0.033936	-0.448242
404.0	5.873083	0.157889	8.518701	-0.009546	0.011287	-0.023414	-0.61792	0.033691	-0.441406
405.0	5.851116	0.178265	8.500511	-0.009989	0.009754	-0.021762	-0.613281	0.031738	-0.457275
406.0	5.871103	0.158885	8.520047	-0.008265	0.014023	-0.021801	-0.611328	0.036133	-0.455078
407.0	5.835802	0.192584	8.530866	-0.009724	0.009534	-0.018485	-0.611328	0.036133	-0.448242
408.0	5.87304	0.156323	8.545272	-0.01069	0.01163	-0.019963	-0.615723	0.035889	-0.452881
409.0	5.834041	0.159099	8.527519	-0.005891	0.011362	-0.020489	-0.609131	0.033936	-0.450439
410.0	5.863235	0.163824	8.498866	-0.009282	0.011066	-0.020132	-0.613281	0.031738	-0.455078
411.0	5.848968	0.177734	8.528494	-0.007432	0.012035	-0.021952	-0.615723	0.033936	-0.448242
412.0	5.865099	0.16163	8.52413	-0.009282	0.011065	-0.02013	-0.613281	0.031738	-0.450439
413.0	5.881117	0.179541	8.524378	-0.009724	0.009531	-0.018479	-0.604492	0.029541	-0.452637
414.0	5.84247	0.147883	8.501851	-0.009151	0.010954	-0.018491	-0.613281	0.031738	-0.445801
415.0	5.879261	0.180238	8.525643	-0.007874	0.010501	-0.020297	-0.611328	0.036133	-0.455078
416.0	5.857385	0.16628	8.502851	-0.011659	0.013722	-0.021431	-0.615723	0.035889	-0.450439
417.0	5.856278	0.166569	8.503608	-0.006905	0.011594	-0.015398	-0.611084	0.031738	-0.452637
418.0	5.889372	0.167926	8.498879	-0.009282	0.011063	-0.020123	-0.61377	0.038086	-0.446045
419.0	5.858199	0.164016	8.528828	-0.009151	0.010952	-0.018485	-0.615479	0.031738	-0.448242
420.0	5.857513	0.130114	8.524781	-0.009151	0.010952	-0.018484	-0.611084	0.029541	-0.448242
421.0	5.869246	0.185359	8.505949	-0.01197	0.012076	-0.018141	-0.609131	0.031738	-0.450439
422.0	5.855136	0.164841	8.530915	-0.005187	0.012676	-0.018847	-0.613525	0.033936	-0.446045
423.0	5.854166	0.131064	8.527065	-0.010253	0.016346	-0.018173	-0.611328	0.036133	-0.452881
424.0	5.852569	0.165668	8.532661	-0.006728	0.013347	-0.020309	-0.61792	0.033691	-0.450439
425.0	5.872599	0.146245	8.552202	-0.011263	0.010198	-0.019933	-0.611084	0.029541	-0.448242
426.0	5.85059	0.166373	8.534003	-0.009282	0.011061	-0.020113	-0.615723	0.035889	-0.450439
427.0	5.845665	0.16998	8.51084	-0.01012	0.013045	-0.019952	-0.611084	0.031738	-0.441406
428.0	5.831595	0.14938	8.53576	-0.009151	0.010949	-0.018475	-0.613525	0.033936	-0.446045
429.0	5.844027	0.136294	8.507458	-0.011132	0.010086	-0.018293	-0.615479	0.031738	-0.448242
430.0	5.842793	0.170919	8.512793	-0.006593	0.010049	-0.022086	-0.61792	0.035889	-0.450439
431.0	5.879782	0.16924	8.531974	-0.010692	0.011619	-0.019936	-0.609131	0.031738	-0.452881
432.0	5.844586	0.168312	8.538078	-0.011401	0.013493	-0.018139	-0.611084	0.031738	-0.452637
433.0	5.840057	0.137644	8.510162	-0.007742	0.010388	-0.01864	-0.613525	0.035889	-0.446045
434.0	5.838806	0.172181	8.515503	-0.009723	0.009523	-0.018458	-0.611572	0.038086	-0.446045
435.0	5.837879	0.17239	8.516135	-0.010562	0.011507	-0.018296	-0.609131	0.036133	-0.450684
436.0	5.857948	0.152792	8.53567	-0.010693	0.011618	-0.01993	-0.61792	0.033936	-0.452881
437.0	5.832333	0.141962	8.488922	-0.010122	0.013042	-0.019939	-0.608887	0.027344	-0.454834
438.0	5.838392	0.169816	8.542285	-0.010832	0.014915	-0.018141	-0.615723	0.033936	-0.459717
439.0	5.86791	0.140165	8.509101	-0.010432	0.011395	-0.016657	-0.613281	0.031738	-0.450439
440.0	5.870709	0.137103	8.533698	-0.008582	0.012371	-0.018471	-0.615479	0.031738	-0.450439
441.0	5.865363	0.174975	8.515324	-0.008712	0.012482	-0.020104	-0.61792	0.035889	-0.452881
442.0	5.864554	0.141204	8.511397	-0.008983	0.01589	-0.019951	-0.611328	0.036133	-0.446045
443.0	5.849943	0.154776	8.541123	-0.009152	0.010945	-0.018458	-0.608887	0.029541	-0.450439
444.0	5.845154	0.158363	8.51789	-0.009152	0.010945	-0.018457	-0.615479	0.031738	-0.450439
445.0	5.844004	0.158778	8.518671	-0.007573	0.015331	-0.020117	-0.611084	0.029541	-0.448242
446.0	5.842976	0.159144	8.51937	-0.01029	0.008094	-0.018438	-0.61377	0.038086	-0.450684
447.0	5.838178	0.162629	8.496151	-0.009296	0.014241	-0.016666	-0.613525	0.033936	-0.450439
448.0	5.861982	0.139685	8.539654	-0.010434	0.01139	-0.016648	-0.611328	0.033936	-0.452881
449.0	5.85288	0.180814	8.497349	-0.005761	0.011253	-0.018801	-0.606934	0.031738	-0.450439
450.0	5.84266	0.156991	8.546066	-0.008583	0.012368	-0.018459	-0.615723	0.033936	-0.450439
451.0	5.834023	0.163868	8.498981	-0.009023	0.010831	-0.016816	-0.609131	0.036133	-0.450684
452.0	5.863888	0.134544	8.465658	-0.00774	0.010385	-0.018619	-0.613525	0.033936	-0.450439
453.0	5.835857	0.161407	8.524206	-0.006733	0.013347	-0.020268	-0.613525	0.033936	-0.452881
454.0	5.852189	0.145392	8.519833	-0.00818	0.008847	-0.016976	-0.606934	0.031738	-0.448242
455.0	5.855073	0.142326	8.544349	-0.008327	0.012143	-0.015186	-0.606689	0.027344	-0.450439
456.0	5.866899	0.163621	8.521034	-0.009556	0.01446	-0.019924	-0.611328	0.033936	-0.452881
457.0	5.865742	0.164081	8.521822	-0.007301	0.011921	-0.020255	-0.611328	0.033936	-0.450439
458.0	5.851207	0.177659	8.551425	-0.009152	0.01094	-0.018443	-0.613281	0.027344	-0.447998
459.0	5.847058	0.147056	8.523327	-0.009719	0.009514	-0.018435	-0.611084	0.027344	-0.452637
460.0	5.862889	0.165201	8.523764	-0.007301	0.011921	-0.020252	-0.61792	0.038086	-0.448242
461.0	5.861865	0.165526	8.524462	-0.010436	0.011383	-0.016636	-0.615479	0.029541	-0.450439
462.0	5.860932	0.16585	8.525097	-0.006328	0.009827	-0.018779	-0.61377	0.03833	-0.455078
463.0	5.838782	0.185923	8.506932	-0.01141	0.013476	-0.018104	-0.611084	0.029541	-0.455078
464.0	5.863221	0.128978	8.545565	-0.007868	0.010495	-0.02024	-0.620117	0.033691	-0.443604
465.0	5.840559	0.183309	8.532181	-0.009153	0.010938	-0.018436	-0.615479	0.031738	-0.450439
466.0	5.873721	0.185006	8.527611	-0.00774	0.010382	-0.018605	-0.611328	0.033936	-0.446045
467.0	5.865826	0.157877	8.475629	-0.009281	0.011049	-0.020067	-0.611328	0.036133	-0.450684
468.0	5.841443	0.181022	8.558027	-0.010565	0.011492	-0.018263	-0.615723	0.035889	-0.452881
469.0	5.854581	0.134207	8.524984	-0.005324	0.012791	-0.020416	-0.611084	0.031738	-0.455078
470.0	5.832462	0.154242	8.506786	-0.010749	0.009727	-0.013356	-0.615479	0.031738	-0.445801
471.0	5.838974	0.147647	8.555268	-0.011667	0.013696	-0.021361	-0.611328	0.033936	-0.455078
472.0	5.850935	0.169177	8.531896	-0.004788	0.00916	-0.017305	-0.613525	0.036133	-0.450439
473.0	5.837371	0.148623	8.556345	-0.004945	0.004214	-0.015825	-0.615723	0.038086	-0.448242
474.0	5.871582	0.15072	8.55108	0.002498	-0.007134	-0.012087	-0.611084	0.031738	-0.445801
475.0	5.825033	0.163598	8.584358	0.014562	-0.020482	-0.003961	-0.611572	0.03833	-0.450684
476.0	5.867554	0.160271	8.500828	0.024521	-0.03459	0.002711	-0.613281	0.031738	-0.448242
477.0	5.842813	0.222581	8.561335	0.028577	-0.038017	0.00711	-0.61792	0.033691	-0.448242
478.0	5.852396	0.119163	8.568025	0.038025	-0.051677	0.007257	-0.613525	0.033936	-0.450439
479.0	5.812799	0.163975	8.627529	0.01999	-0.062487	0.00217	-0.613525	0.033936	-0.446045
480.0	5.874971	0.042561	8.623278	-0.054406	-0.053071	-0.034146	-0.613525	0.035889	-0.446045
481.0	5.891546	0.127432	8.605516	-0.127513	-0.063774	-0.076244	-0.611328	0.033936	-0.446045
482.0	6.00853	0.045468	8.29955	-0.128322	-0.021218	-0.102565	-0.611084	0.031738	-0.450439
483.0	5.752872	0.489116	8.902518	-0.118195	-0.030388	-0.09735	-0.622314	0.035889	-0.450439
484.0	6.009965	0.375122	8.243829	-0.111372	-0.087564	-0.054045	-0.609131	0.033936	-0.450439
485.0	5.873018	0.237372	8.519177	-0.102934	-0.055457	-0.032225	-0.613525	0.033936	-0.446045
486.0	6.000902	-0.053142	8.330174	-0.103608	-0.046643	-0.040026	-0.615723	0.035889	-0.446045
487.0	5.837043	0.232964	8.572506	-0.081179	-0.035683	-0.040371	-0.617676	0.031494	-0.443604
488.0	5.919377	0.218667	8.406349	-0.102425	-0.034408	-0.028069	-0.61792	0.033691	-0.450439
489.0	5.828833	0.100222	8.55336	-0.081729	-0.039766	-0.015696	-0.617676	0.031738	-0.448242
490.0	5.926801	0.106108	8.487033	-0.077362	-0.04661	-0.011492	-0.615967	0.040283	-0.446045
491.0	5.908975	0.153991	8.470762	-0.071341	-0.056151	0.002313	-0.620117	0.038086	-0.446045
492.0	5.893416	0.133401	8.443629	-0.064191	-0.062839	0.016106	-0.615723	0.038086	-0.441406
493.0	5.91604	0.078705	8.529637	-0.056998	-0.075863	0.023029	-0.615723	0.038086	-0.441406
494.0	5.932593	0.063494	8.471706	-0.047134	-0.091782	0.034481	-0.618164	0.040283	-0.443848
495.0	5.934085	0.197507	8.463139	-0.043177	-0.108431	0.039967	-0.615723	0.038086	-0.443848
496.0	5.948351	0.15301	8.475131	-0.052104	-0.113691	0.052347	-0.620605	0.044678	-0.446045
497.0	5.933204	0.337051	8.576628	-0.059447	-0.139277	0.062065	-0.618164	0.040283	-0.441406
498.0	5.931058	0.274983	8.562212	-0.071757	-0.178536	0.089976	-0.615967	0.040283	-0.441406
499.0	5.898357	0.176662	8.646293	-0.072489	-0.222472	0.119712	-0.620605	0.044678	-0.437012
500.0	6.023992	0.027912	8.392185	-0.0711	-0.248501	0.135133	-0.622559	0.04248	-0.439209
501.0	5.99561	-0.104979	8.467598	-0.045009	-0.252104	0.130399	-0.618164	0.04248	-0.430176
502.0	6.058597	-0.02136	8.409144	-0.038154	-0.266202	0.124196	-0.627197	0.049072	-0.437012
503.0	6.130421	0.054221	8.296937	-0.039079	-0.263559	0.108043	-0.626953	0.044678	-0.427979
504.0	6.1945	-0.031225	8.210977	-0.039637	-0.246598	0.102347	-0.631592	0.046631	-0.425781
505.0	6.130681	-0.601231	8.198039	-0.049772	-0.236807	0.082622	-0.631592	0.048828	-0.430176
506.0	6.187415	-0.205544	8.190477	0.000119	-0.210359	0.039459	-0.633789	0.046631	-0.425781
507.0	6.248734	-0.015085	8.175001	-0.021159	-0.191114	0.019824	-0.629395	0.051025	-0.427979
508.0	6.171367	0.004264	8.235457	-0.033162	-0.182883	0.016789	-0.631592	0.051025	-0.43042
509.0	6.215514	-0.097072	8.177999	-0.044551	-0.164964	0.014065	-0.629395	0.048828	-0.425781
510.0	6.203372	-0.042785	8.233194	-0.051026	-0.146072	0.020685	-0.638428	0.05542	-0.423584
511.0	6.254175	-0.056012	8.064005	-0.035799	-0.130339	0.01274	-0.629395	0.051025	-0.425781
512.0	6.239954	-0.172595	8.093715	-0.08378	-0.107509	0.006718	-0.635742	0.046631	-0.418945
513.0	6.223188	-0.085254	8.15813	-0.06788	-0.089848	-0.014535	-0.635742	0.046631	-0.425781
514.0	6.232427	-0.09499	8.075959	-0.086347	-0.073603	-0.027988	-0.631836	0.05542	-0.418945
515.0	6.223665	-0.185326	8.161585	-0.096726	-0.059105	-0.037599	-0.629395	0.048828	-0.414307
516.0	6.186843	-0.183364	8.218312	-0.101406	-0.045003	-0.052949	-0.629639	0.053223	-0.425781
517.0	6.240545	-0.100778	8.219788	-0.100038	-0.036665	-0.067679	-0.629395	0.048828	-0.416504
518.0	6.200534	-0.16664	8.165425	-0.11069	-0.037235	-0.07121	-0.629883	0.057617	-0.418945
519.0	6.186411	-0.188463	8.163801	-0.103411	-0.024945	-0.078269	-0.623047	0.053223	-0.416748
520.0	6.220342	0.046934	8.196213	-0.116484	-0.021542	-0.074664	-0.640381	0.048828	-0.421143
521.0	6.291006	-0.160315	8.146512	-0.14052	-0.008882	-0.069165	-0.633789	0.051025	-0.418945
522.0	6.280804	-0.125441	8.105212	-0.146871	0.013652	-0.072242	-0.638428	0.05542	-0.421387
523.0	6.242746	-0.029385	8.207469	-0.16022	0.008349	-0.057351	-0.633789	0.051025	-0.418945
524.0	6.302944	-0.300205	8.098951	-0.163924	0.005723	-0.04034	-0.634277	0.057617	-0.421387
525.0	6.237577	-0.3136	8.212903	-0.140201	0.002903	-0.040345	-0.634033	0.053223	-0.416748
526.0	6.263088	-0.413109	8.140138	-0.118158	-0.006746	-0.057024	-0.634033	0.05542	-0.414551
527.0	6.301802	-0.352426	8.168383	-0.091312	-0.007064	-0.065658	-0.631592	0.048828	-0.42334
528.0	6.267491	-0.420971	8.238954	-0.078225	-0.011693	-0.077586	-0.63623	0.053223	-0.423584
529.0	6.255403	-0.641553	8.200658	-0.036423	-0.021957	-0.105327	-0.634033	0.053223	-0.416748
530.0	6.239119	-0.148166	8.315889	0.009034	-0.034008	-0.125378	-0.63623	0.053223	-0.421143
531.0	6.312554	-0.139268	8.222759	0.016746	-0.04558	-0.120337	-0.63623	0.053223	-0.412109
532.0	6.325816	0.027731	8.220875	0.029982	-0.046535	-0.105628	-0.629639	0.05542	-0.418945
533.0	6.395599	0.272393	8.170309	-0.001607	-0.055717	-0.068578	-0.63623	0.053223	-0.418945
534.0	6.359505	-0.053899	8.142173	-0.014432	-0.038033	-0.056034	-0.63623	0.053223	-0.416748
535.0	6.380685	0.131415	8.194245	-0.025834	-0.030419	-0.052433	-0.631592	0.048828	-0.416504
536.0	6.324094	0.284607	8.207448	-0.051671	-0.020293	-0.016931	-0.638428	0.057617	-0.421387
537.0	6.411495	0.19919	8.173859	-0.074346	-0.011552	0.021384	-0.635986	0.051025	-0.414307
538.0	6.35297	0.01337	8.179275	-0.067242	-0.007368	0.048731	-0.635986	0.051025	-0.421143
539.0	6.3409	-0.04856	8.273085	-0.059891	-0.017991	0.072032	-0.634033	0.053223	-0.421143
540.0	6.320668	-0.037626	8.254598	-0.042448	-0.030705	0.090517	-0.634033	0.053223	-0.416748
541.0	6.310299	-0.17002	8.156849	-0.04459	-0.030207	0.097485	-0.642578	0.051025	-0.416748
542.0	6.325712	-0.091041	8.24468	-0.047584	-0.020722	0.096734	-0.634033	0.053223	-0.414307
543.0	6.351276	-0.124722	8.183294	-0.05966	-0.013763	0.085544	-0.634277	0.059814	-0.414551
544.0	6.317652	-0.069504	8.201943	-0.065408	-0.01534	0.096237	-0.636475	0.062012	-0.412354
545.0	6.358623	-0.019304	8.153369	-0.071882	-0.009947	0.105729	-0.634277	0.059814	-0.421387
546.0	6.388515	-0.094038	8.109811	-0.070784	0.000522	0.119389	-0.634277	0.059814	-0.416748
547.0	6.354142	-0.109294	8.116997	-0.068614	0.010735	0.129583	-0.640869	0.064209	-0.421387
548.0	6.326561	-0.199917	8.058214	-0.061306	0.020427	0.142353	-0.636719	0.068604	-0.414795
549.0	6.305736	-0.262493	8.130446	-0.054912	0.027753	0.143533	-0.634521	0.064209	-0.416992
550.0	6.302919	-0.309795	8.125832	-0.053073	0.037027	0.142144	-0.641357	0.070557	-0.416992
551.0	6.277251	-0.335829	8.10503	-0.050092	0.047943	0.132384	-0.634521	0.068604	-0.414795
552.0	6.270926	-0.446856	8.165525	-0.053448	0.053425	0.116592	-0.636963	0.070801	-0.416992
553.0	6.266635	-0.525224	8.155242	-0.039802	0.043882	0.099255	-0.636719	0.068604	-0.419189
554.0	6.289584	-0.42375	8.223988	-0.037222	0.032245	0.080027	-0.632568	0.072998	-0.416992
555.0	6.292106	-0.469278	8.24236	-0.02687	0.019125	0.061273	-0.62793	0.064209	-0.416992
556.0	6.213863	-0.536422	8.196107	-0.022264	-0.005875	0.059282	-0.630371	0.072998	-0.412598
557.0	6.20424	-0.599148	8.135558	-0.01477	-0.00363	0.023474	-0.636719	0.068604	-0.410156
558.0	6.185069	-0.480199	8.239113	-0.007362	0.003081	-0.002119	-0.634766	0.070801	-0.416992
559.0	6.22606	-0.452186	8.185233	-0.006612	-0.003209	-0.014193	-0.636719	0.068604	-0.416992
560.0	6.202785	-0.42736	8.245089	0.003147	-0.012598	-0.036008	-0.632324	0.066406	-0.416992
561.0	6.204626	-0.458404	8.237262	0.008054	-0.0276	-0.040831	-0.63916	0.072754	-0.414795
562.0	6.203246	-0.44945	8.211366	0.02761	-0.053067	-0.053262	-0.634766	0.070801	-0.410156
563.0	6.196855	-0.667919	8.191868	0.04663	-0.067764	-0.076647	-0.641113	0.066406	-0.412354
564.0	6.185581	-0.739649	8.251238	0.077988	-0.099859	-0.115964	-0.634766	0.070801	-0.419434
565.0	6.240197	-0.764582	8.278158	0.11935	-0.135993	-0.15519	-0.641113	0.066406	-0.412354
566.0	6.2559	-0.642931	8.211725	0.178046	-0.179894	-0.178933	-0.643066	0.064209	-0.414551
567.0	6.292998	-0.496124	8.320019	0.251705	-0.221238	-0.174698	-0.638916	0.064209	-0.414551
568.0	6.342936	-0.456017	8.275211	0.325638	-0.273643	-0.14934	-0.642822	0.05542	-0.412109
569.0	6.465788	-0.479888	8.123336	0.396093	-0.317949	-0.124576	-0.63623	0.05542	-0.412109
570.0	6.446854	-0.291027	8.165364	0.457615	-0.349664	-0.116012	-0.644775	0.053223	-0.405273
571.0	6.565519	-0.130744	8.091849	0.491757	-0.364522	-0.091016	-0.646729	0.048828	-0.405273
572.0	6.544818	-0.035874	8.087829	0.527338	-0.381738	-0.061243	-0.646973	0.051025	-0.405273
573.0	6.546164	0.169956	8.04479	0.529351	-0.378853	-0.032401	-0.644531	0.046631	-0.402832
574.0	6.548214	0.207969	8.050634	0.512203	-0.36807	-0.008808	-0.651123	0.048828	-0.398438
575.0	6.599824	0.330043	8.05764	0.471614	-0.372572	0.009494	-0.651123	0.044434	-0.391357
576.0	6.743629	0.368929	8.130143	0.442334	-0.393305	0.035675	-0.651123	0.044434	-0.391357
577.0	6.608837	0.06611	7.867265	0.40018	-0.431931	0.056879	-0.655273	0.042236	-0.395996
578.0	6.594796	0.156678	8.012086	0.381118	-0.427364	0.029003	-0.659424	0.040039	-0.391357
579.0	6.62734	0.132883	8.103539	0.339938	-0.449034	0.012406	-0.653076	0.042236	-0.386719
580.0	6.686873	-0.047861	8.191729	0.322166	-0.490096	-0.006294	-0.657227	0.037842	-0.384521
581.0	6.641457	-0.044589	8.355739	0.349423	-0.567441	-0.047161	-0.654785	0.033447	-0.379883
582.0	6.664199	0.102205	8.236047	0.345432	-0.611043	-0.055874	-0.661621	0.039795	-0.377686
583.0	6.576354	0.411068	8.496465	0.346885	-0.665154	-0.086879	-0.665771	0.0354	-0.377441
584.0	6.750258	0.207593	8.259448	0.33816	-0.715398	-0.077636	-0.666016	0.037598	-0.377686
585.0	6.763997	0.10554	8.335245	0.339819	-0.771638	-0.1114	-0.669922	0.028809	-0.365967
586.0	6.835273	0.289266	8.371931	0.357768	-0.837995	-0.142514	-0.669922	0.026611	-0.36377
587.0	6.871845	0.283573	8.420231	0.386589	-0.913756	-0.146672	-0.669922	0.026611	-0.356934
588.0	6.93371	0.390099	8.416939	0.403108	-0.998274	-0.163006	-0.68042	0.022217	-0.347656
589.0	6.970197	0.338335	8.453945	0.405832	-1.077778	-0.192956	-0.675781	0.015625	-0.345215
590.0	7.007294	0.328021	8.622293	0.381325	-1.172296	-0.246818	-0.678223	0.017822	-0.333984
591.0	6.987207	0.208635	8.878204	0.359485	-1.289215	-0.326299	-0.680176	0.015625	-0.324707
592.0	6.948015	0.189378	9.229591	0.325659	-1.436418	-0.429509	-0.68457	0.013428	-0.317871
593.0	6.910964	0.396065	9.441462	0.311547	-1.633306	-0.543023	-0.686523	0.009033	-0.311035
594.0	6.916943	0.817934	9.623649	0.277859	-1.823237	-0.635116	-0.692627	0.002441	-0.299316
595.0	6.782405	0.577438	10.059509	0.27658	-2.042981	-0.694941	-0.688232	-0.001953	-0.285645
596.0	6.637204	0.500463	10.418872	0.273076	-2.358542	-0.765735	-0.694336	-0.012939	-0.271729
597.0	6.439396	0.813623	10.873294	0.327042	-2.730118	-0.757895	-0.698486	-0.012939	-0.255859
598.0	6.334004	0.677721	11.113605	0.401993	-3.13436	-0.662993	-0.700684	-0.013184	-0.246582
599.0	6.334691	1.073919	11.205134	0.41735	-3.587861	-0.655265	-0.693604	-0.023926	-0.221436
600.0	5.989336	1.821456	11.173562	0.444122	-4.026313	-0.594775	-0.70459	-0.026367	-0.193848
601.0	7.025894	3.973175	10.47653	0.070562	-4.539063	-0.628551	-0.702148	-0.030762	-0.168701
602.0	7.04622	3.56871	10.030985	-0.013853	-4.94987	-0.544173	-0.704346	-0.030762	-0.145996
603.0	8.307559	4.26717	9.529126	-0.149558	-5.351524	-0.320233	-0.695557	-0.030762	-0.109619
604.0	8.644997	4.774631	9.709108	0.062451	-5.581635	-0.035961	-0.695557	-0.028809	-0.086914
605.0	7.812799	2.597911	9.869277	-0.01692	-5.920334	0.413526	-0.689209	-0.026611	-0.052734
606.0	7.876829	-2.038051	9.775683	0.648496	-6.227912	0.583419	-0.67627	-0.022217	-0.030029
607.0	12.793716	0.792184	8.675292	1.663388	-6.166709	0.513792	-0.666016	-0.01123	0.003906
608.0	11.802302	3.821844	8.171568	2.530705	-5.977735	0.98193	-0.650879	-0.004639	0.028809
609.0	11.382225	6.374742	7.528185	3.314335	-5.259903	1.027088	-0.631836	0.006348	0.040039
610.0	11.926415	10.732576	8.787973	1.357689	-4.901671	0.635504	-0.612549	0.015137	0.058105
611.0	18.821958	4.468373	15.739818	-3.104891	-4.300212	1.365688	-0.580566	0.032715	0.064453
612.0	24.281971	-3.607042	9.949479	-3.361804	-1.601823	1.199354	-0.558838	0.035156	0.048584
613.0	7.926479	-3.169348	5.384478	2.878842	2.715197	0.636198	-0.519775	0.039795	0.020996
614.0	-3.225682	5.278025	13.044117	6.198129	4.311257	0.521109	-0.492188	0.053223	-0.008789
615.0	-4.435993	12.423498	18.908229	0.848728	1.254738	1.014916	-0.453125	0.057861	-0.022705
616.0	3.670911	2.713356	6.422469	-2.277766	-0.278861	1.298284	-0.4104	0.079834	-0.030029
617.0	7.351986	1.200513	3.938877	-0.109135	1.290869	0.827596	-0.362793	0.08667	-0.043945
618.0	5.853825	5.357595	9.527968	0.352539	2.193971	0.551256	-0.313232	0.102295	-0.041992
619.0	5.004269	4.567813	8.251142	-0.314169	2.474472	0.425316	-0.259277	0.11377	-0.049072
620.0	4.154169	3.461203	7.936918	-0.48457	2.958464	0.299846	-0.207764	0.12915	-0.042725
621.0	4.110084	2.116543	7.488338	-0.750151	3.258977	0.207447	-0.154053	0.14917	-0.013428
622.0	4.637871	0.717528	6.676931	-0.862208	3.557922	0.136128	-0.104736	0.168945	0.018066
623.0	4.633583	-0.15848	6.471195	-0.812571	3.892347	0.128562	-0.068115	0.180176	0.061035
624.0	4.20468	-1.116846	6.165215	-0.609672	4.178686	0.170878	-0.036133	0.193115	0.117676
625.0	3.772426	-1.830305	6.267336	-0.335597	4.367359	0.234164	-0.030029	0.208496	0.174316
626.0	3.903868	-2.403964	6.22228	-0.042838	4.433101	0.297544	-0.039307	0.217041	0.229004
627.0	4.385034	-2.676002	6.429844	0.330211	4.466232	0.335652	-0.057129	0.225342	0.29248
628.0	5.189845	-2.329359	6.815617	0.586462	4.484789	0.354741	-0.098877	0.23584	0.340332
629.0	6.24626	-1.96357	7.19173	0.70197	4.505271	0.385906	-0.148926	0.231201	0.383789
630.0	7.349464	-1.688485	7.520774	0.713605	4.556957	0.43467	-0.205811	0.237305	0.406494
631.0	7.919817	-1.77408	7.674675	0.710475	4.578814	0.475358	-0.273438	0.236816	0.415771
632.0	8.091467	-1.980309	7.895454	0.683866	4.593514	0.422837	-0.336914	0.24292	0.411133
633.0	8.162973	-1.980854	8.195083	0.684535	4.574243	0.256811	-0.393311	0.231689	0.390869
634.0	8.290222	-1.632816	8.652545	0.610026	4.506649	0.038737	-0.445557	0.231445	0.361328
635.0	8.698173	-1.589785	9.346252	0.530596	4.373297	-0.144719	-0.495117	0.220215	0.320557
636.0	9.722658	-1.822544	9.605935	0.503664	4.231518	-0.288398	-0.531982	0.213623	0.279785
637.0	10.876506	-2.021553	9.848267	0.542594	4.222541	-0.46446	-0.568359	0.200439	0.232178
638.0	11.88464	-1.364545	10.859597	0.544263	4.262092	-0.620389	-0.598633	0.19165	0.177734
639.0	13.049988	-0.789678	11.628936	0.475899	4.222286	-0.646084	-0.606689	0.176514	0.132324
640.0	14.999189	-1.296234	11.819325	0.478532	4.161423	-0.57619	-0.617432	0.174316	0.077637
641.0	16.370975	-1.929556	11.266283	0.628023	4.184051	-0.579873	-0.623047	0.152588	0.037109
642.0	16.829116	-0.469623	10.396396	0.73229	4.173132	-0.66168	-0.620605	0.14624	-0.012939
643.0	17.129949	1.043027	9.450409	0.519473	4.035925	-0.754699	-0.619873	0.128906	-0.053467
644.0	17.853533	0.843746	7.949488	0.138398	3.826907	-0.860269	-0.612793	0.120117	-0.085205
645.0	18.079909	0.505126	6.087369	-0.095101	3.615966	-0.938008	-0.603516	0.103027	-0.125977
646.0	17.680414	0.38389	4.182629	-0.310661	3.357544	-0.957714	-0.598877	0.096436	-0.15332
647.0	17.36541	0.251187	2.13061	-0.459346	3.047137	-0.953696	-0.585205	0.083496	-0.184814
648.0	16.852127	0.293674	0.392642	-0.572395	2.69068	-0.959017	-0.576416	0.081543	-0.20752
649.0	15.874883	0.111916	-1.177856	-0.603918	2.233017	-0.975136	-0.571533	0.070557	-0.228027
650.0	15.480622	-0.20389	-2.383842	-0.617774	1.688695	-0.920563	-0.569092	0.068604	-0.237061
651.0	15.704645	-0.793567	-3.24177	-0.523761	1.128683	-0.781879	-0.566406	0.05542	-0.243652
652.0	16.026045	-1.209223	-3.884412	-0.32647	0.626096	-0.563819	-0.559814	0.053223	-0.252686
653.0	15.724529	-1.2608	-3.862349	-0.0996	0.186371	-0.327838	-0.557373	0.049072	-0.266357
654.0	15.12772	-0.668117	-3.167272	0.081423	-0.261824	-0.110193	-0.562012	0.053223	-0.261719
655.0	13.276273	4.743579	-1.348908	0.115595	-0.766879	0.503606	-0.562256	0.057617	-0.252686
656.0	13.109619	1.76532	-6.863681	-1.407252	-3.311629	0.786396	-0.571289	0.064209	-0.22998
657.0	6.279088	-8.323193	0.344753	-0.846593	-3.328323	0.003448	-0.57959	0.057373	-0.218506
658.0	6.319708	-1.107085	24.233992	1.002379	-3.717263	-1.348489	-0.594482	0.050781	-0.197998
659.0	5.444855	6.714711	14.915544	0.553507	-4.04321	-0.004682	-0.60083	0.046387	-0.17041
660.0	12.831157	-1.621902	7.713653	-1.09343	-3.886026	0.196717	-0.60791	0.057129	-0.147949
661.0	16.947771	-2.782026	10.192418	-0.67807	-3.04408	-0.470254	-0.618408	0.04834	-0.13623
662.0	12.871831	-2.512395	9.869683	-0.690313	-2.46803	-0.253205	-0.616455	0.052734	-0.118164
663.0	9.353719	-3.581848	8.228806	-0.053235	-2.110139	-0.043882	-0.618652	0.054688	-0.109131
664.0	8.037741	1.882114	11.266899	0.038329	-2.009486	-0.04852	-0.62085	0.05249	-0.102295
665.0	19.678773	6.942181	10.081983	-1.951183	-1.250322	0.663264	-0.625244	0.054688	-0.088623
666.0	5.311671	0.692304	8.82865	-0.948353	-1.028007	0.463463	-0.62793	0.063477	-0.084229
667.0	9.680045	-7.902182	7.280812	-1.81218	-1.139335	0.738912	-0.625977	0.069824	-0.079834
668.0	8.594758	-3.353145	6.905576	0.150662	-0.356033	0.200031	-0.629883	0.063232	-0.072754
669.0	6.744859	2.848031	9.381135	-0.199316	-0.377706	0.042101	-0.630127	0.067627	-0.075195
670.0	6.488476	0.428851	8.159638	-0.347116	-0.325216	0.149868	-0.628174	0.072021	-0.070557
671.0	6.338915	-1.836082	8.181465	-0.488895	-0.2832	0.091348	-0.632568	0.074219	-0.068359
672.0	6.239396	-1.985516	8.160042	-0.204773	-0.204623	-0.118805	-0.62793	0.067627	-0.065918
673.0	6.166143	-0.389385	8.461278	0.005189	-0.15632	-0.226367	-0.62793	0.063232	-0.061279
674.0	6.112511	-0.407219	8.557034	0.054053	-0.193198	-0.218431	-0.630127	0.067627	-0.063721
675.0	6.166094	-0.149568	8.375142	0.137891	-0.210653	-0.220265	-0.63208	0.063232	-0.061279
676.0	6.192235	0.142272	8.451006	0.180551	-0.235772	-0.192841	-0.630127	0.067627	-0.063721
677.0	6.128573	0.011744	8.326296	0.230408	-0.247816	-0.149143	-0.63208	0.063232	-0.061279
678.0	6.118242	0.139543	8.356267	0.287939	-0.235662	-0.123624	-0.629883	0.063232	-0.054443
679.0	6.198225	0.006384	8.156469	0.329279	-0.233146	-0.061823	-0.636475	0.061035	-0.059082
680.0	6.243627	-0.223559	8.150896	0.398642	-0.209231	-0.032367	-0.62793	0.067627	-0.061523
681.0	6.317187	0.163015	8.126183	0.449847	-0.199218	-0.011146	-0.634033	0.058838	-0.056641
682.0	6.342754	0.629627	8.143123	0.421091	-0.188604	0.017853	-0.634521	0.067627	-0.052246
683.0	6.359929	0.526574	8.211524	0.357056	-0.188584	0.050637	-0.629639	0.056641	-0.056641
684.0	6.338395	0.278107	8.145977	0.298236	-0.183171	0.053058	-0.636719	0.067627	-0.047852
685.0	6.242457	0.317909	8.382227	0.239184	-0.203875	0.044915	-0.634033	0.056641	-0.052002
686.0	6.2948	0.731494	8.234147	0.185063	-0.225242	0.052762	-0.627686	0.058838	-0.049805
687.0	6.420653	0.862461	8.062646	0.112446	-0.211517	0.091733	-0.634521	0.06543	-0.054443
688.0	6.392001	0.909706	8.088458	0.072916	-0.19816	0.144968	-0.634521	0.067627	-0.04541
689.0	6.44256	0.595965	8.032698	0.058674	-0.181896	0.205186	-0.630127	0.06543	-0.04541
690.0	6.399448	0.408171	8.061778	0.066262	-0.174073	0.241071	-0.634521	0.067627	-0.04541
691.0	6.396465	0.277292	8.040069	0.070855	-0.164735	0.260785	-0.63208	0.063232	-0.043213
692.0	6.3791	0.0033	8.205582	0.074328	-0.157778	0.252365	-0.628174	0.072021	-0.043213
693.0	6.402095	-0.01118	8.242788	0.081302	-0.165287	0.226625	-0.634766	0.074219	-0.038818
694.0	6.420182	-0.235188	8.155455	0.084765	-0.176305	0.197914	-0.625977	0.069824	-0.041016
695.0	6.455787	-0.292771	8.158299	0.110099	-0.19129	0.158041	-0.634766	0.074219	-0.041016
696.0	6.476128	-0.328586	8.165615	0.135103	-0.209457	0.113145	-0.634766	0.074219	-0.041016
697.0	6.464195	-0.359717	8.179113	0.157839	-0.225087	0.068564	-0.634766	0.072021	-0.03418
698.0	6.484067	-0.314434	8.168085	0.189408	-0.249572	0.031084	-0.63916	0.071777	-0.03418
699.0	6.48431	-0.243992	8.137187	0.233407	-0.272702	-0.004608	-0.63501	0.080566	-0.031982
700.0	6.534282	0.0322	8.166241	0.266328	-0.288106	-0.02207	-0.630371	0.074219	-0.029785
701.0	6.547125	0.036487	8.171994	0.290914	-0.318559	-0.016812	-0.636719	0.069824	-0.027344
702.0	6.592308	0.103279	8.074822	0.291746	-0.342344	-0.02329	-0.634766	0.073975	-0.029541
703.0	6.616935	-0.057047	8.184313	0.295882	-0.375869	-0.036806	-0.636963	0.071777	-0.027344
704.0	6.60766	0.112559	8.13105	0.304522	-0.424686	-0.055785	-0.632568	0.073975	-0.020508
705.0	6.511276	-0.137822	8.358554	0.335377	-0.481216	-0.059201	-0.634521	0.069824	-0.018066
706.0	6.531771	-0.141412	8.377857	0.37895	-0.550042	-0.102386	-0.638916	0.06958	-0.015869
707.0	6.548806	0.509985	8.501295	0.393998	-0.613726	-0.137949	-0.634521	0.06543	-0.013428
708.0	6.544244	0.122523	8.63933	0.37289	-0.685222	-0.122877	-0.640869	0.065186	-0.006592
709.0	6.587659	0.169764	8.52059	0.373369	-0.763413	-0.170412	-0.636475	0.063232	-0.006592
710.0	6.607315	0.173516	8.553401	0.344572	-0.833116	-0.224942	-0.638916	0.067383	0.0
711.0	6.607287	-0.086263	8.672876	0.318444	-0.904274	-0.279251	-0.640625	0.056396	0.011719
712.0	6.625902	-0.122527	8.877816	0.315236	-1.011351	-0.368831	-0.638672	0.060791	0.009277
713.0	6.682776	0.113079	8.982851	0.305945	-1.131948	-0.471025	-0.633789	0.050049	0.023193
714.0	6.630996	-0.138563	9.242574	0.293882	-1.267793	-0.540887	-0.638184	0.052002	0.027832
715.0	6.471488	0.346003	9.732817	0.283741	-1.490569	-0.656003	-0.640137	0.04541	0.037109
716.0	6.54893	0.731027	9.901368	0.232738	-1.73582	-0.753408	-0.635498	0.04126	0.052979
717.0	6.595063	0.23602	10.061709	0.212865	-2.007168	-0.818213	-0.639648	0.034668	0.060059
718.0	6.530823	0.10704	10.177707	0.186381	-2.312938	-0.97242	-0.641602	0.030029	0.069336
719.0	6.485999	-0.002145	10.664324	0.120995	-2.643397	-1.150003	-0.636475	0.014893	0.092285
720.0	6.249762	-0.583616	11.488405	0.13409	-3.032154	-1.27504	-0.634277	0.012695	0.105957
721.0	5.869937	-1.496075	12.492141	0.18813	-3.550763	-1.354614	-0.633545	-0.002686	0.133545
722.0	5.191575	0.324922	13.177625	0.396163	-4.141665	-1.517184	-0.62207	-0.015869	0.1521
723.0	4.701157	1.07972	14.157306	0.401401	-4.745409	-1.446182	-0.625977	-0.026855	0.193359
724.0	3.912639	4.018285	14.899086	0.269691	-5.547933	-1.515459	-0.610352	-0.0354	0.216309
725.0	5.016063	4.577845	13.573818	-0.371476	-6.4069	-1.453223	-0.594482	-0.046387	0.262207
726.0	6.85331	3.669937	13.027956	-0.638842	-6.966169	-1.319675	-0.574463	-0.055176	0.291992
727.0	9.225175	0.606933	12.845606	-0.068817	-7.380278	-1.05238	-0.558594	-0.065918	0.335449
728.0	9.052333	1.399656	13.325361	0.419347	-7.857935	-0.815443	-0.532471	-0.068115	0.367188
729.0	12.015174	-3.81405	14.069395	2.009973	-7.979207	-0.199923	-0.512939	-0.063721	0.4104
730.0	14.334972	3.335359	11.178407	4.228836	-8.100392	-0.022693	-0.476807	-0.043945	0.455566
731.0	14.652623	9.408807	7.494123	5.96811	-6.938807	0.211753	-0.445068	-0.019775	0.484863
732.0	16.045875	15.340795	15.768933	3.522018	-5.196345	0.108075	-0.43457	-0.010986	0.500488
733.0	27.741843	12.519428	17.904768	-1.160823	-3.83069	1.235238	-0.42334	-0.021973	0.512207
734.0	21.738411	0.81557	11.979434	-1.570704	-0.152643	1.591241	-0.430176	-0.015381	0.498291
735.0	7.229359	-0.055628	12.420007	2.323655	2.962065	1.096452	-0.449951	-0.009033	0.482178
736.0	-2.760015	3.649248	17.145018	2.964251	3.217387	1.01804	-0.468262	0.006348	0.459229
737.0	-3.459787	4.4681	13.178968	0.920409	1.656931	1.239975	-0.468506	0.012695	0.456787
738.0	0.215819	3.478696	6.814592	0.889265	1.443955	1.343837	-0.484131	0.021484	0.440674
739.0	2.409242	5.289864	7.425893	0.651126	1.705174	1.365425	-0.49292	0.023682	0.429199
740.0	4.815995	6.179902	6.96084	-0.132182	2.130128	1.379041	-0.499756	0.028076	0.41333
741.0	4.687585	5.402013	7.683006	-0.758175	2.744791	1.445902	-0.510498	0.025879	0.392822
742.0	3.798756	3.6403	8.1112	-1.41361	3.192664	1.360917	-0.530029	0.025635	0.367676
743.0	3.519839	1.467119	7.479522	-1.686519	3.61779	1.2002	-0.540771	0.019043	0.351807
744.0	3.468729	0.296572	7.286909	-1.575889	3.972942	1.019458	-0.549561	0.019287	0.31543
745.0	3.750346	-0.027949	6.914712	-1.380217	4.243832	0.908052	-0.560059	0.014893	0.283691
746.0	3.840873	-0.213481	6.336166	-1.121153	4.516775	0.86717	-0.568848	0.014893	0.25415
747.0	3.858209	0.07056	6.007282	-0.793892	4.787492	0.854206	-0.572998	0.010498	0.222168
748.0	3.893052	0.561119	6.034789	-0.550353	4.934045	0.874943	-0.573486	0.01709	0.18335
749.0	4.105661	0.856082	6.001603	-0.411913	4.954253	0.876206	-0.568604	0.010742	0.153809
750.0	4.744578	0.881685	6.197829	-0.27582	4.955304	0.805498	-0.56665	0.015137	0.128662
751.0	5.672494	0.938906	6.673077	-0.095692	4.965778	0.63795	-0.560059	0.010986	0.094482
752.0	6.675084	1.146694	7.309959	0.086769	5.001498	0.407471	-0.553711	0.017578	0.071533
753.0	7.83145	1.754032	7.650455	0.210754	5.062474	0.163627	-0.558105	0.017578	0.053467
754.0	8.597635	2.299546	8.101193	0.23157	5.106638	-0.050313	-0.549561	0.02002	0.026123
755.0	9.085024	2.556371	8.711951	0.170226	5.091032	-0.298405	-0.540771	0.017822	0.014648
756.0	9.477345	2.668942	9.393751	0.10962	5.030251	-0.598194	-0.54541	0.026611	-0.017334
757.0	9.883065	2.483644	10.336839	0.082802	4.946633	-0.914176	-0.545166	0.02002	-0.031006
758.0	10.961295	2.055027	10.929057	0.091855	4.904792	-1.180684	-0.545166	0.020264	-0.051514
759.0	12.15003	1.392657	11.996653	0.140995	4.965042	-1.334179	-0.545166	0.020264	-0.069824
760.0	13.765743	0.811854	13.076314	0.222963	5.014471	-1.30226	-0.549561	0.022461	-0.099365
761.0	15.94456	0.27194	13.817757	0.349906	5.087112	-1.121577	-0.551514	0.013672	-0.124268
762.0	18.140549	0.709113	14.093244	0.507862	5.137225	-0.896108	-0.549561	0.018311	-0.169922
763.0	19.97343	2.128466	13.660683	0.543956	5.106818	-0.740035	-0.536133	0.009766	-0.208496
764.0	21.556307	2.61421	11.769494	0.354688	4.962584	-0.726383	-0.509766	0.007813	-0.245117
765.0	22.970799	2.252979	9.110835	0.289206	4.788986	-0.889479	-0.461426	-0.000488	-0.267578
766.0	24.310803	2.931434	6.588129	0.100259	4.589239	-0.987387	-0.416016	0.006348	-0.2771
767.0	24.176516	2.145063	2.844602	-0.147863	4.369761	-1.024436	-0.376221	-0.002197	-0.265381
768.0	22.241838	1.024455	-1.208359	-0.236547	4.005968	-1.028593	-0.344238	0.015381	-0.243164
769.0	19.90531	0.793412	-3.95067	-0.195485	3.280702	-0.986559	-0.331299	0.017578	-0.220459
770.0	19.872966	-0.688434	-6.82509	-0.026868	2.349782	-0.919843	-0.316406	0.02417	-0.195313
771.0	20.843774	-2.193202	-9.112034	0.417708	1.507952	-0.84263	-0.320801	0.026367	-0.172607
772.0	21.357682	-2.679456	-10.488956	0.814002	0.745358	-0.758328	-0.321045	0.02832	-0.1521
773.0	20.919843	-1.62382	-10.656975	0.869682	0.037655	-0.625464	-0.321289	0.034912	-0.129639
774.0	20.535567	-1.021862	-9.507372	0.563724	-0.582349	-0.488947	-0.328125	0.045654	-0.11377
775.0	19.89211	-1.074662	-7.304358	0.189416	-1.106826	-0.369077	-0.325928	0.043457	-0.088623
776.0	18.564737	-0.536639	-4.872402	0.070494	-1.611055	-0.259669	-0.32666	0.060791	-0.075439
777.0	3.491925	15.518106	6.754133	-0.972401	-2.845393	0.28958	-0.324707	0.062988	-0.043457
778.0	4.220167	-10.68273	13.653856	-4.542514	-4.59804	-0.43068	-0.320801	0.076172	-0.016357
779.0	-8.13181	-3.719887	24.729034	0.059023	-4.766783	-1.572553	-0.325195	0.075928	0.013184
780.0	9.112025	-7.083292	9.849332	-2.968373	-5.746531	0.509138	-0.328125	0.091064	0.049316
781.0	22.717359	-14.053715	6.749482	-0.972466	-4.789485	-0.461381	-0.319336	0.088867	0.076904
782.0	15.958922	-7.278108	9.01788	-0.123391	-4.061286	-0.390356	-0.317383	0.095459	0.099365
783.0	12.931002	-3.889996	8.490822	0.716212	-3.469898	-0.160115	-0.311035	0.099854	0.119873
784.0	14.898695	7.992415	12.379981	0.811939	-2.883876	-0.306591	-0.308594	0.095459	0.138184
785.0	28.562003	9.43942	10.078485	-2.415355	-1.581491	0.883859	-0.313232	0.101807	0.147217
786.0	9.791894	-8.749355	7.908462	-0.890884	-1.025905	0.478447	-0.307129	0.108398	0.142578
787.0	8.287889	0.525677	8.217001	-0.278489	-0.683526	0.161049	-0.304688	0.106201	0.153809
788.0	7.9773	2.264218	8.721434	-0.432683	-0.529354	0.300417	-0.309082	0.106201	0.15625
789.0	7.00631	-0.99726	8.406456	-0.548682	-0.562934	0.349693	-0.304443	0.101807	0.160889
790.0	6.688338	-1.38009	7.840956	-0.515012	-0.438496	0.23998	-0.298096	0.106201	0.163086
791.0	6.672103	-0.369357	7.734261	-0.280324	-0.253206	0.098916	-0.300781	0.112793	0.162842
792.0	6.404403	0.305844	7.999251	-0.168592	-0.108448	0.093183	-0.304932	0.108398	0.165283
793.0	6.349182	0.231201	8.247216	-0.131515	-0.032914	0.136007	-0.298096	0.106201	0.160645
794.0	6.294716	-0.12171	8.218626	-0.098451	0.008061	0.152688	-0.304932	0.108398	0.160645
795.0	6.234165	-0.345152	8.2662	-0.052362	0.036484	0.137634	-0.30249	0.106201	0.165283
796.0	6.208675	-0.115531	8.292642	-0.017773	0.041057	0.125709	-0.300293	0.104004	0.165283
797.0	6.125928	-0.192018	8.421801	-0.007951	0.037554	0.150545	-0.307129	0.110596	0.165283
798.0	6.090642	-0.330936	8.354271	0.005675	0.029137	0.153366	-0.300781	0.112793	0.162842
799.0	6.204388	-0.210865	8.285346	-0.004806	0.031343	0.126949	-0.300537	0.108398	0.165283
800.0	6.272868	-0.143332	8.11363	-0.00529	0.041908	0.117885	-0.302734	0.112793	0.158447
801.0	6.263197	0.270957	8.12243	0.007417	0.049369	0.133282	-0.305176	0.11499	0.162842
802.0	6.193316	-0.133064	8.137346	0.011882	0.077351	0.182095	-0.304932	0.112793	0.162842
803.0	6.001968	-0.86644	8.436848	0.04075	0.062817	0.166413	-0.300293	0.106201	0.165283
804.0	5.802599	-0.788961	8.939266	0.086792	-0.033039	0.118947	-0.298584	0.117188	0.16748
805.0	5.972559	-0.301062	8.672156	0.107516	-0.174688	0.112516	-0.302734	0.108398	0.160645
806.0	6.118069	-0.204512	8.404876	0.116718	-0.22991	0.127771	-0.291992	0.112793	0.165283
807.0	6.253552	-0.00567	8.231686	0.11498	-0.244246	0.130526	-0.291748	0.11084	0.160645
808.0	6.240761	0.120175	8.195727	0.110676	-0.221661	0.162107	-0.296387	0.11499	0.16748
809.0	6.257792	-0.044224	8.202663	0.119098	-0.197525	0.19883	-0.300781	0.11499	0.165039
810.0	6.248619	-0.155459	8.200271	0.134519	-0.177829	0.21146	-0.296387	0.117188	0.165039
811.0	6.295576	-0.156369	8.2846	0.145332	-0.175414	0.21212	-0.296387	0.117188	0.165039
812.0	6.287082	-0.300737	8.276524	0.122071	-0.188895	0.197903	-0.298584	0.117188	0.165039
813.0	6.215115	-0.357324	8.345875	0.115337	-0.203096	0.17342	-0.29248	0.123779	0.17627
814.0	6.208161	-0.500705	8.336926	0.101872	-0.213085	0.148349	-0.296631	0.121582	0.169678
815.0	6.218017	-0.720609	8.285253	0.121402	-0.222614	0.096191	-0.298828	0.121582	0.169678
816.0	6.269225	-0.481812	8.257434	0.140559	-0.227678	0.054171	-0.298828	0.121582	0.171875
817.0	6.358524	-0.534715	8.219303	0.165782	-0.231101	0.029575	-0.296387	0.117188	0.174316
818.0	6.338445	-0.485768	8.294506	0.20602	-0.241834	0.002711	-0.296875	0.125977	0.17627
819.0	6.376872	-0.383855	8.215006	0.247617	-0.260126	-0.016448	-0.294434	0.119385	0.176514
820.0	6.372579	-0.206216	8.306164	0.271687	-0.282481	-0.018697	-0.294922	0.130371	0.17627
821.0	6.43855	-0.446814	8.310128	0.298051	-0.323733	-0.023688	-0.294678	0.123779	0.178711
822.0	6.384378	-0.40626	8.40837	0.334432	-0.38327	-0.075103	-0.292236	0.121582	0.174072
823.0	6.3994	-0.253605	8.507766	0.348439	-0.432178	-0.101506	-0.29248	0.123779	0.180908
824.0	6.148622	-0.169401	8.975925	0.389296	-0.531523	-0.115066	-0.29248	0.123779	0.17627
825.0	6.309096	-0.261693	8.820837	0.375534	-0.622001	-0.118868	-0.294434	0.121582	0.180908
826.0	6.294918	-0.572923	8.89443	0.370661	-0.715685	-0.181117	-0.294678	0.123779	0.185547
827.0	6.302915	-0.429989	9.00273	0.360419	-0.821291	-0.283518	-0.296631	0.119385	0.185547
828.0	6.329579	-0.325532	9.045288	0.338627	-0.922331	-0.350393	-0.294678	0.123779	0.187744
829.0	6.401289	-0.613764	8.940655	0.339735	-1.046957	-0.435064	-0.294434	0.121582	0.197021
830.0	6.47836	-1.050188	9.167287	0.348601	-1.182853	-0.547954	-0.294678	0.125977	0.199219
831.0	6.30854	-0.198138	9.524684	0.374337	-1.395972	-0.723876	-0.292236	0.117188	0.206055
832.0	6.490171	0.626111	9.510591	0.35147	-1.562266	-0.777251	-0.294434	0.119385	0.212891
833.0	6.273214	-0.162352	9.850613	0.321409	-1.773172	-0.787905	-0.291992	0.112793	0.217529
834.0	6.317442	0.141376	9.984354	0.323346	-2.026776	-0.932872	-0.296387	0.11499	0.229004
835.0	6.359993	0.298688	10.175065	0.253662	-2.27651	-1.05412	-0.289551	0.110596	0.240479
836.0	6.222155	0.299891	10.603909	0.204661	-2.580827	-1.157473	-0.291748	0.106201	0.245117
837.0	6.080283	-0.367283	11.122075	0.173417	-2.972522	-1.255176	-0.286865	0.097412	0.263428
838.0	5.806403	-0.497944	11.897374	0.201291	-3.460655	-1.347414	-0.284668	0.095215	0.281738
839.0	5.375097	-0.155693	12.582701	0.280258	-4.015033	-1.321235	-0.275635	0.09082	0.286377
840.0	5.026386	0.874021	13.588239	0.395488	-4.603365	-1.265567	-0.270996	0.084229	0.309326
841.0	4.018051	1.982198	14.528394	0.561766	-5.295639	-1.188631	-0.257813	0.084229	0.327393
842.0	4.596299	5.442276	14.134131	-0.016602	-6.179363	-1.234901	-0.242676	0.08667	0.350342
843.0	5.619677	5.766526	13.182709	-0.442643	-6.838081	-1.067318	-0.227295	0.084473	0.375244
844.0	8.183573	2.247322	12.668151	-0.250188	-7.239329	-0.673483	-0.205322	0.077881	0.407227
845.0	9.34241	1.155613	13.436979	0.494821	-7.586397	-0.475116	-0.179199	0.08252	0.420898
846.0	8.836127	-2.993414	13.545368	1.170217	-8.040772	-0.16546	-0.15332	0.086914	0.443604
847.0	13.480219	-2.550265	12.596041	3.111784	-8.096618	-0.076044	-0.121582	0.108887	0.468262
848.0	15.490584	4.639928	8.70731	4.786482	-7.836877	0.514886	-0.10083	0.133057	0.479004
849.0	14.05104	12.345467	9.08779	6.165927	-5.932056	0.238018	-0.080322	0.15918	0.485352
850.0	21.461403	14.149111	21.514302	0.813886	-4.649271	0.67611	-0.065186	0.163818	0.499023
851.0	29.822463	3.928916	16.625682	-3.358295	-2.927532	1.461391	-0.073242	0.148193	0.521973
852.0	16.516102	-1.718549	7.872425	0.419021	2.005199	0.972466	-0.108887	0.16333	0.523926
853.0	0.382474	1.359659	15.776034	4.480535	4.553581	0.425931	-0.142822	0.191406	0.528076
854.0	-6.832484	9.210768	20.986274	1.836947	2.741463	0.579129	-0.176025	0.204346	0.532471
855.0	-1.582005	3.206973	8.688576	-0.922265	1.080212	0.923193	-0.193604	0.208496	0.552979
856.0	2.697574	2.093308	5.744199	0.081469	1.649005	0.996965	-0.229004	0.217041	0.552734
857.0	4.119719	3.249452	7.620988	0.140183	2.160947	1.008705	-0.262207	0.232178	0.561523
858.0	4.764298	3.228036	7.337596	-0.063914	2.79493	1.002406	-0.306396	0.242676	0.552246
859.0	3.620434	3.433847	8.857971	-0.310624	3.338275	1.028614	-0.350342	0.246826	0.543213
860.0	3.477732	2.703842	8.349026	-0.835653	3.659405	1.01473	-0.409424	0.253174	0.524902
861.0	3.598638	1.147105	7.330591	-1.103485	3.957339	1.014963	-0.457764	0.259521	0.49292
862.0	3.63531	-0.318467	6.995553	-0.878962	4.23103	0.964403	-0.503662	0.265869	0.447266
863.0	3.731306	-1.243741	6.439947	-0.445533	4.46175	0.879147	-0.549561	0.267822	0.397217
864.0	3.647135	-1.180126	6.090442	0.074056	4.7047	0.781209	-0.571777	0.276611	0.333252
865.0	3.658467	-0.512167	6.442775	0.414819	4.849472	0.736778	-0.574219	0.281006	0.260254
866.0	4.256239	-0.231261	6.449958	0.491447	4.881049	0.774308	-0.555176	0.292236	0.196045
867.0	4.957601	-0.687268	6.683117	0.537089	4.900499	0.811711	-0.520264	0.294922	0.148193
868.0	5.665021	-1.060492	6.900684	0.643292	4.909707	0.806655	-0.475098	0.303955	0.122803
869.0	6.393491	-1.130664	7.307315	0.801189	4.924217	0.73071	-0.435791	0.304199	0.122803
870.0	7.351273	-0.881005	7.704448	0.885462	4.954659	0.588765	-0.420898	0.312988	0.143066
871.0	8.120556	-0.30391	7.999249	0.927523	5.032104	0.404974	-0.420166	0.29541	0.170898
872.0	8.290493	0.491674	8.802864	0.823576	5.026192	0.166001	-0.452637	0.292969	0.198242
873.0	8.765003	0.921478	9.734838	0.635985	4.944575	-0.106039	-0.506104	0.270752	0.203369
874.0	9.706781	0.541831	10.437123	0.517261	4.859834	-0.425889	-0.561523	0.237793	0.183594
875.0	10.730135	0.342261	11.069203	0.54069	4.9028	-0.796842	-0.605469	0.196045	0.147949
876.0	11.911247	0.522844	12.376307	0.589606	4.9335	-1.100395	-0.642334	0.145752	0.105713
877.0	14.04307	0.547725	13.335261	0.675842	4.984569	-1.18756	-0.673096	0.099854	0.065674
878.0	16.163978	-0.041414	13.941136	0.838832	5.03016	-1.099429	-0.688477	0.053955	0.01416
879.0	17.791146	-0.350646	13.659994	1.128875	4.979612	-0.996829	-0.70166	0.010498	-0.032959
880.0	20.194451	0.595914	12.828985	1.381116	4.905299	-1.000209	-0.70459	-0.024414	-0.073242
881.0	22.836258	2.196661	11.246099	1.390439	4.799135	-1.01319	-0.700439	-0.067871	-0.120117
882.0	24.282441	2.758286	8.57303	1.25811	4.650237	-0.967611	-0.693115	-0.087402	-0.151855
883.0	24.612948	2.967303	5.604942	0.989953	4.444061	-0.836502	-0.683105	-0.115723	-0.189941
884.0	24.182967	1.589001	1.52075	0.859012	4.235566	-0.715594	-0.664795	-0.13501	-0.223877
885.0	21.805984	0.837276	-1.870345	0.903812	3.899632	-0.678128	-0.657715	-0.143799	-0.241943
886.0	19.316304	0.090931	-4.142883	0.9678	3.264688	-0.69693	-0.639893	-0.152344	-0.27124
887.0	18.469459	-0.934988	-5.944947	1.068746	2.43241	-0.709516	-0.637451	-0.160889	-0.275635
888.0	19.231224	-2.417472	-7.657937	1.249502	1.545755	-0.6819	-0.624023	-0.16748	-0.280273
889.0	20.941631	-1.626223	-9.525972	1.323291	0.818832	-0.662055	-0.625732	-0.180664	-0.280029
890.0	20.435889	-0.133169	-10.003012	0.999731	0.208025	-0.601512	-0.618896	-0.187012	-0.277588
891.0	19.513294	0.167253	-9.154642	0.404817	-0.44524	-0.620682	-0.618652	-0.189209	-0.266113
892.0	19.340392	-0.346746	-7.536984	-0.124307	-1.053485	-0.704702	-0.622803	-0.193604	-0.263672
893.0	18.798046	-0.273831	-5.010443	-0.40775	-1.566354	-0.773902	-0.628906	-0.202393	-0.240723
894.0	16.656984	11.805789	-4.189313	-0.106023	-1.869864	-0.793714	-0.628906	-0.207031	-0.224609
895.0	-0.726905	15.370242	19.393477	-4.757106	-3.249319	-0.40629	-0.642334	-0.198242	-0.211182
896.0	-1.926509	-10.269983	20.200063	-5.240833	-4.527305	-0.462596	-0.648926	-0.196289	-0.179199
897.0	-9.290573	-2.554378	18.200062	-4.558249	-5.250742	-1.142901	-0.662354	-0.187744	-0.154297
898.0	7.193745	-29.009363	9.38001	-7.126154	-6.500763	0.935583	-0.671875	-0.17041	-0.115967
899.0	24.314259	-24.101686	-0.410042	-0.554947	-4.64301	-0.249286	-0.682373	-0.179199	-0.088379
900.0	16.820925	-4.918367	11.005581	1.201764	-3.670444	-0.129116	-0.688965	-0.179443	-0.054199
901.0	16.400847	3.851502	9.301314	1.126268	-3.03304	-0.457504	-0.686523	-0.183838	-0.042725
902.0	26.207344	16.265706	14.654735	0.483504	-1.44683	-0.416325	-0.695313	-0.181641	-0.026855
903.0	12.081045	-5.483119	8.675907	-3.644758	-2.101446	1.288763	-0.693604	-0.170654	-0.024658
904.0	10.886317	-9.853035	6.473075	-0.977824	-1.025009	0.404131	-0.69165	-0.16626	-0.018066
905.0	9.257324	1.689443	8.681959	0.058658	-0.520994	0.142679	-0.69165	-0.166504	-0.01123
906.0	7.751984	2.027609	9.145496	-0.888929	-0.635514	0.201322	-0.698242	-0.164307	-0.01123
907.0	7.25916	-1.28814	7.882766	-0.688244	-0.543692	0.297314	-0.698242	-0.164307	-0.002197
908.0	6.765706	-2.65325	8.019303	-0.651008	-0.44076	0.166218	-0.694092	-0.159912	-0.002197
909.0	6.670874	-1.696635	7.603919	-0.260696	-0.267278	-0.047683	-0.696045	-0.166504	-0.006592
910.0	6.490236	-0.029488	8.073366	-0.029778	-0.126902	-0.078044	-0.696533	-0.157715	-0.009033
911.0	6.392495	-0.068972	8.151468	-0.041878	-0.094	-0.032052	-0.698486	-0.162109	-0.004395
912.0	6.359373	0.092772	8.206967	0.00229	-0.07897	-0.009892	-0.698486	-0.162109	-0.002197
913.0	6.283256	-0.127255	8.225747	0.012899	-0.074299	0.010512	-0.693848	-0.166504	-0.001953
914.0	6.158279	-0.697788	8.414941	0.041476	-0.086717	-0.014781	-0.698242	-0.164307	-0.004395
915.0	6.18542	-0.604787	8.345887	0.126256	-0.117022	-0.063922	-0.696045	-0.168701	-0.001953
916.0	6.313308	-0.075956	8.360347	0.156855	-0.157892	-0.0648	-0.693848	-0.164307	0.000244
917.0	6.375262	-0.349181	8.039283	0.17602	-0.16738	-0.052681	-0.697998	-0.168701	0.000244
918.0	6.40486	-0.184773	8.102267	0.212712	-0.168436	-0.043734	-0.698486	-0.157715	0.0
919.0	6.380187	-0.741963	8.073412	0.272852	-0.191555	-0.030477	-0.700439	-0.166504	0.009277
920.0	6.406703	-0.883918	8.032481	0.348238	-0.207076	-0.051287	-0.696289	-0.159912	0.002441
921.0	6.436968	-0.570805	8.041348	0.422216	-0.197967	-0.064026	-0.696045	-0.164307	0.011475
922.0	6.449607	-0.237419	7.953396	0.459119	-0.1954	-0.064501	-0.700439	-0.164307	0.016113
923.0	6.433309	0.184163	7.957289	0.462286	-0.174566	-0.047075	-0.696045	-0.168701	0.013916
924.0	6.394462	0.010551	8.048405	0.46794	-0.156995	-0.012118	-0.696045	-0.164307	0.009277
925.0	6.250965	0.090828	8.272917	0.512639	-0.175121	0.021755	-0.697754	-0.175293	0.016357
926.0	6.248198	0.374931	8.373249	0.520956	-0.214385	0.064148	-0.698242	-0.164307	0.018311
927.0	6.431569	0.520765	8.040429	0.495559	-0.240732	0.099596	-0.700195	-0.173096	0.016357
928.0	6.434451	0.855409	7.965134	0.463516	-0.248378	0.144678	-0.698486	-0.162109	0.025146
929.0	6.368784	1.090388	8.13936	0.36481	-0.258721	0.189309	-0.700684	-0.162109	0.022949
930.0	6.411575	0.566397	8.098834	0.274236	-0.251831	0.220305	-0.704834	-0.162109	0.022949
931.0	6.385145	0.31977	8.009625	0.271027	-0.236102	0.226348	-0.700684	-0.159912	0.027344
932.0	6.399339	0.667008	8.186119	0.254658	-0.236621	0.228634	-0.701172	-0.151367	0.036377
933.0	6.479698	0.485253	8.135431	0.194886	-0.245693	0.252405	-0.705322	-0.151367	0.031738
934.0	6.488179	0.202254	8.138138	0.166885	-0.251327	0.242837	-0.709717	-0.151367	0.03418
935.0	6.531155	0.020878	8.170819	0.159543	-0.272921	0.223867	-0.703125	-0.151367	0.041016
936.0	6.611886	0.029492	8.091325	0.152807	-0.289657	0.19505	-0.703125	-0.153564	0.043213
937.0	6.635908	-0.104589	8.030997	0.152484	-0.312274	0.170288	-0.705566	-0.146973	0.043213
938.0	6.645149	-0.119729	8.011284	0.176335	-0.329364	0.137648	-0.705566	-0.146973	0.047607
939.0	6.624696	0.101649	8.073578	0.202845	-0.339508	0.117956	-0.705566	-0.14917	0.047852
940.0	6.705274	0.230429	8.076982	0.191585	-0.358097	0.099717	-0.705811	-0.142578	0.054443
941.0	6.700415	0.043089	8.088717	0.179197	-0.377879	0.07671	-0.708008	-0.144775	0.054443
942.0	6.583908	-0.353903	8.253778	0.170043	-0.420129	0.020121	-0.712402	-0.142822	0.061279
943.0	6.565221	-0.615195	8.535749	0.225356	-0.497452	-0.068287	-0.709961	-0.146973	0.063721
944.0	6.540318	-0.212391	8.884481	0.272794	-0.591686	-0.176911	-0.708008	-0.144775	0.070557
945.0	6.506322	-0.437246	8.990365	0.233999	-0.718746	-0.253431	-0.705322	-0.151367	0.072754
946.0	6.572533	-0.38422	8.993205	0.249825	-0.847701	-0.346683	-0.705811	-0.144775	0.074951
947.0	6.495609	-0.712697	9.194835	0.279117	-0.97089	-0.464103	-0.70752	-0.153564	0.08667
948.0	6.448873	-0.729465	9.491806	0.250279	-1.145216	-0.615936	-0.705322	-0.153564	0.088867
949.0	6.422045	-0.563618	9.79539	0.290878	-1.353887	-0.766158	-0.696289	-0.160156	0.095703
950.0	6.467588	0.045218	9.978968	0.337616	-1.59386	-0.896384	-0.696045	-0.166748	0.111816
951.0	6.525527	0.720628	10.073752	0.28912	-1.848509	-1.002552	-0.693604	-0.168945	0.114258
952.0	6.439472	0.875615	10.222693	0.226462	-2.105806	-1.084167	-0.691406	-0.17334	0.132568
953.0	6.442715	0.884905	10.619201	0.142588	-2.402454	-1.1726	-0.688965	-0.179932	0.150879
954.0	6.304521	0.33963	10.943836	0.058833	-2.744563	-1.28491	-0.688721	-0.184326	0.166992
955.0	5.91508	-0.18172	12.074263	0.025198	-3.204768	-1.362137	-0.677246	-0.195068	0.187744
956.0	5.35402	-0.956454	13.165629	0.025674	-3.799593	-1.36286	-0.666016	-0.20166	0.208252
957.0	4.529711	0.035733	14.125482	0.117907	-4.517432	-1.422038	-0.659424	-0.206055	0.244873
958.0	3.865939	0.790931	14.437084	-0.024332	-5.290705	-1.402131	-0.650635	-0.203857	0.274414
959.0	3.926906	3.52126	15.004491	-0.173296	-6.134986	-1.581664	-0.628174	-0.217041	0.308838
960.0	4.867602	4.185402	14.125338	-0.223653	-6.916179	-1.550551	-0.608643	-0.214844	0.352051
961.0	7.311892	2.807438	14.024656	0.011362	-7.429721	-1.236871	-0.58252	-0.217041	0.393066
962.0	8.427045	-1.284649	13.817531	0.69198	-7.899962	-0.950863	-0.550049	-0.212402	0.431641
963.0	8.210513	-2.062226	14.748918	1.462663	-8.4526	-0.834881	-0.519775	-0.205811	0.486328
964.0	11.193194	-6.09798	11.270139	3.398834	-8.612894	-0.559611	-0.479492	-0.179443	0.529053
965.0	15.822504	4.32102	8.163538	6.081238	-8.170961	-0.179731	-0.446289	-0.137939	0.580566
966.0	10.710502	13.503572	8.50947	7.364373	-6.258938	-0.08672	-0.411133	-0.098633	0.606934
967.0	19.857791	10.975357	24.280827	1.622178	-5.784773	0.534411	-0.385498	-0.087402	0.622803
968.0	35.047649	10.771345	13.178479	-1.937431	-2.332049	0.726004	-0.394287	-0.085449	0.618164
969.0	13.474174	-5.577036	14.45283	0.160263	2.539144	1.375516	-0.414551	-0.067871	0.601807
970.0	-0.513959	-1.141815	15.046338	3.699789	4.334833	0.640449	-0.436035	-0.031006	0.585205
971.0	-7.133808	4.078612	18.538601	2.807878	3.317314	0.98384	-0.460693	-0.011475	0.571289
972.0	-0.931064	3.242277	9.545336	0.791404	2.028744	1.641788	-0.474854	0.010254	0.557129
973.0	4.902942	3.275011	6.730461	1.227716	2.506776	1.96456	-0.484619	0.032227	0.54541
974.0	7.073247	5.329238	7.020353	0.849386	3.206617	2.052133	-0.507568	0.05835	0.519775
975.0	6.881607	6.182434	7.773779	0.414373	4.10749	1.956178	-0.52124	0.073486	0.499023
976.0	5.512523	6.777146	8.342921	-0.351662	4.642932	1.707294	-0.543457	0.082031	0.469238
977.0	4.778068	6.692257	7.145003	-1.15658	5.016009	1.495357	-0.561279	0.09082	0.439453
978.0	3.818999	4.770331	6.911217	-1.730068	5.127037	1.325596	-0.577148	0.104004	0.416504
979.0	3.467924	2.123009	6.464437	-2.050407	4.984544	1.113265	-0.596924	0.108154	0.386719
980.0	3.406244	-0.196793	5.354201	-1.886047	4.884176	0.870602	-0.612793	0.116943	0.365967
981.0	3.549258	-0.682164	4.829128	-1.006582	4.890575	0.611567	-0.623535	0.116943	0.336426
982.0	4.281816	0.736025	5.367518	-0.272758	4.876307	0.438904	-0.637451	0.134277	0.308838
983.0	5.226532	1.782766	6.138554	-0.056904	4.807539	0.403243	-0.652832	0.136475	0.285889
984.0	6.353304	1.699207	6.698228	-0.081397	4.747877	0.39457	-0.666504	0.149658	0.256104
985.0	7.42515	0.975361	6.971088	-0.089783	4.727591	0.356986	-0.680176	0.1604	0.228516
986.0	8.207969	0.5586	6.777796	0.052239	4.768838	0.27093	-0.697754	0.164795	0.201172
987.0	8.121912	1.005484	6.931433	0.275433	4.818676	0.130193	-0.706787	0.171387	0.169189
988.0	7.666436	1.946116	7.576343	0.333969	4.657608	-0.046053	-0.720703	0.188721	0.145996
989.0	8.141895	2.097223	8.230598	0.323194	4.346975	-0.249209	-0.733643	0.188721	0.111816
990.0	9.50774	1.663672	7.827821	0.369334	4.26347	-0.596503	-0.74707	0.195313	0.070557
991.0	10.413092	2.508773	9.19965	0.302445	4.382463	-1.047657	-0.76416	0.184326	0.043457
992.0	11.713534	3.04554	11.41344	0.105789	4.394675	-1.315095	-0.76416	0.188965	0.00708
993.0	13.889167	1.25857	12.702021	0.0154	4.366403	-1.325758	-0.772705	0.18457	-0.0271
994.0	15.506749	-1.236256	13.249647	0.405407	4.473399	-1.217316	-0.774902	0.18457	-0.068115
995.0	16.391282	-2.131844	13.199858	1.044336	4.641304	-1.07381	-0.786133	0.186768	-0.111572
996.0	17.670509	-0.789139	12.680613	1.630757	4.801049	-0.856019	-0.781494	0.184814	-0.161621
997.0	19.259718	2.016226	11.839111	1.805475	4.896118	-0.642565	-0.783691	0.182617	-0.207031
998.0	20.384392	4.166932	10.474299	1.439972	4.870684	-0.495398	-0.772461	0.178467	-0.263916
999.0	21.370707	2.325589	8.019623	0.953587	4.781593	-0.458657	-0.763428	0.169922	-0.309326
1000.0	21.171143	0.777003	5.805725	0.93874	4.67585	-0.554975	-0.743408	0.159424	-0.357178
1001.0	19.253931	-0.25243	2.376047	0.87651	4.291424	-0.644408	-0.725586	0.153076	-0.404785
1002.0	15.38863	-0.621249	-0.889044	0.871768	3.412151	-0.65796	-0.712158	0.144531	-0.441162
1003.0	17.669201	-0.281109	-3.590076	0.700298	2.376682	-0.619166	-0.698486	0.129395	-0.461426
1004.0	21.95938	-0.413571	-4.975576	0.544372	1.696129	-0.514712	-0.687256	0.125	-0.479492
1005.0	22.65376	-2.042985	-6.890325	0.494269	1.179786	-0.47432	-0.676025	0.114258	-0.497559
1006.0	21.34296	-2.167368	-9.153185	0.545779	0.610811	-0.49462	-0.671387	0.112061	-0.506592
1007.0	21.543739	-2.315433	-10.26197	0.434897	-0.015997	-0.505153	-0.673096	0.101318	-0.515625
1008.0	21.99229	-1.924683	-10.107975	0.26394	-0.4972	-0.532945	-0.666504	0.096924	-0.513184
1009.0	20.848503	-1.237711	-8.211445	-0.139583	-0.962139	-0.423727	-0.677002	0.090332	-0.508545
1010.0	20.401444	9.369902	-7.25405	-0.107012	-1.363235	-0.293048	-0.67749	0.099121	-0.492676
1011.0	4.43675	11.069048	4.83995	-5.455492	-4.485074	0.926766	-0.70166	0.151123	-0.452637
1012.0	2.284844	-29.890781	22.158107	-7.946365	-4.758321	0.185397	-0.724121	0.16626	-0.418701
1013.0	-5.382564	-7.486797	19.088335	1.263373	-4.047665	-1.269377	-0.739014	0.161621	-0.395996
1014.0	11.996887	-11.652834	10.355295	-2.993394	-5.061477	1.325939	-0.759521	0.181152	-0.357422
1015.0	26.426313	-15.330256	3.666513	-0.43676	-3.968202	0.064191	-0.768066	0.176514	-0.332275
1016.0	16.26899	-1.037481	12.938382	0.441428	-3.115517	-0.27774	-0.776855	0.174316	-0.304932
1017.0	11.58282	-1.632094	9.363661	0.245777	-2.850514	-0.253258	-0.785156	0.167725	-0.28418
1018.0	16.11141	9.22858	14.085241	-0.032492	-2.085607	-0.564429	-0.787598	0.171875	-0.270752
1019.0	15.807429	-3.996453	6.912037	-2.546479	-1.733119	0.717349	-0.794678	0.182861	-0.252686
1020.0	10.100891	-7.2958	8.056666	-0.134389	-0.90494	-0.010872	-0.801025	0.178467	-0.252686
1021.0	9.255833	2.98596	8.41904	-0.074905	-0.695396	-0.244812	-0.800781	0.17627	-0.243408
1022.0	7.74508	2.692384	8.428503	-0.502736	-0.636529	-0.093879	-0.796875	0.182617	-0.243652
1023.0	7.298238	-0.817288	8.301952	-0.551115	-0.523176	0.069438	-0.805176	0.178223	-0.241211
1024.0	6.55582	-3.685626	7.746342	-0.273488	-0.4034	-0.025119	-0.805664	0.187012	-0.236816
1025.0	6.499464	-1.173205	8.010232	0.277274	-0.215996	-0.256095	-0.811523	0.173828	-0.234131
1026.0	6.401002	0.791836	8.264773	0.206358	-0.164919	-0.221783	-0.802979	0.173828	-0.231934
1027.0	6.227947	1.219709	8.347498	0.202921	-0.117342	-0.131	-0.804932	0.171631	-0.229736
1028.0	6.229309	1.176927	8.258715	0.093639	-0.097613	-0.03728	-0.807373	0.173828	-0.229736
1029.0	6.180399	0.669591	8.153248	0.007276	-0.060804	0.015559	-0.807129	0.171631	-0.234131
1030.0	6.091836	1.051396	8.403062	0.005809	-0.045972	0.085153	-0.809814	0.18042	-0.236572
1031.0	6.222559	1.090289	8.167221	-0.029976	-0.036195	0.218364	-0.805176	0.178223	-0.229736
1032.0	6.338971	0.500153	8.0137	-0.06581	0.010901	0.315096	-0.805176	0.178223	-0.232178
1033.0	6.428557	-0.044969	7.871846	-0.085689	0.091137	0.311326	-0.805664	0.184814	-0.227539
1034.0	6.277008	-0.171748	8.257297	-0.08987	0.154718	0.277756	-0.807861	0.187012	-0.232178
1035.0	6.193006	-0.094772	8.435856	-0.040363	0.154834	0.278719	-0.805664	0.189209	-0.232178
1036.0	6.115725	0.04791	8.5204	-0.025464	0.097186	0.297126	-0.803711	0.191406	-0.223145
1037.0	6.165221	0.244233	8.321145	-0.010437	0.058897	0.324429	-0.803711	0.193604	-0.232422
1038.0	6.1609	0.087072	8.283804	-0.038629	0.044403	0.352898	-0.799805	0.200195	-0.232422
1039.0	6.079985	0.102631	8.374785	-0.035072	0.039334	0.360939	-0.801758	0.197998	-0.237061
1040.0	6.020754	-0.038703	8.468902	-0.038295	0.036789	0.374609	-0.797607	0.20459	-0.232666
1041.0	5.973988	0.11422	8.571937	-0.03752	0.029625	0.379539	-0.799805	0.20459	-0.234863
1042.0	6.026963	0.169589	8.453467	-0.083487	0.015696	0.412941	-0.80249	0.213135	-0.235107
1043.0	6.037912	-0.080166	8.376362	-0.095831	-0.006618	0.435044	-0.796143	0.215576	-0.239746
1044.0	5.964129	-0.212778	8.470387	-0.092357	-0.039959	0.443855	-0.798584	0.221924	-0.230713
1045.0	5.90734	-0.499461	8.541041	-0.102821	-0.071993	0.438953	-0.791992	0.224121	-0.226074
1046.0	5.866901	-1.042671	8.45055	-0.091268	-0.104649	0.38397	-0.794434	0.226318	-0.230713
1047.0	5.972673	-0.785154	8.39385	-0.024688	-0.116396	0.306698	-0.794434	0.228516	-0.235352
1048.0	5.95665	-0.637673	8.459939	0.015047	-0.142004	0.275903	-0.794678	0.235107	-0.235352
1049.0	5.99264	-0.679088	8.51916	0.008879	-0.151835	0.252947	-0.799072	0.23291	-0.233154
1050.0	6.027181	-0.785986	8.420416	0.010808	-0.16603	0.21077	-0.794922	0.239502	-0.230957
1051.0	6.054633	-0.881976	8.397234	0.020097	-0.178366	0.167973	-0.797119	0.237305	-0.224121
1052.0	6.102754	-0.8176	8.366266	0.031819	-0.200018	0.122899	-0.792725	0.239502	-0.217285
1053.0	6.130525	-0.725422	8.290212	0.062501	-0.221828	0.086113	-0.799072	0.237305	-0.217285
1054.0	6.093312	-0.418426	8.348721	0.091676	-0.211655	0.10233	-0.788574	0.243896	-0.221924
1055.0	6.146999	-0.348539	8.340343	0.118949	-0.205609	0.116886	-0.801514	0.239502	-0.219482
1056.0	6.162839	-0.451075	8.339711	0.139301	-0.203098	0.12694	-0.792725	0.237305	-0.215088
1057.0	6.122521	-0.668201	8.456087	0.15493	-0.217721	0.11181	-0.801514	0.241455	-0.212891
1058.0	6.114467	-0.988159	8.430681	0.160803	-0.246994	0.06039	-0.794922	0.239502	-0.219482
1059.0	6.160217	-1.354886	8.514375	0.125736	-0.315811	-0.030114	-0.799072	0.235107	-0.214844
1060.0	6.034685	-1.760072	8.911594	0.169643	-0.430415	-0.186055	-0.80127	0.237061	-0.208252
1061.0	5.744485	-1.300678	9.706402	0.285882	-0.566423	-0.290648	-0.803467	0.232666	-0.203613
1062.0	5.662046	-1.237081	10.341527	0.271773	-0.865221	-0.32711	-0.803223	0.228516	-0.196533
1063.0	5.770559	-0.860794	10.347939	0.318959	-1.187127	-0.451478	-0.809326	0.217529	-0.187256
1064.0	6.224132	-0.405542	9.561149	0.344845	-1.447145	-0.492861	-0.813965	0.223877	-0.18042
1065.0	5.908102	-1.561105	10.00501	0.334679	-1.645404	-0.556669	-0.817627	0.212891	-0.162109
1066.0	6.081783	-1.580669	9.847671	0.449448	-1.891428	-0.76972	-0.821777	0.204102	-0.145996
1067.0	6.018896	-0.954048	10.096787	0.520012	-2.102501	-0.942017	-0.825439	0.193115	-0.127441
1068.0	6.179108	-0.321719	10.205967	0.552318	-2.310867	-1.047273	-0.831543	0.179932	-0.108887
1069.0	6.189979	-0.495485	10.329612	0.546009	-2.530375	-1.159373	-0.8396	0.166748	-0.090576
1070.0	6.112777	-0.551447	10.572275	0.519533	-2.757812	-1.348097	-0.839111	0.155762	-0.069824
1071.0	6.063992	-0.138447	11.131519	0.496618	-3.042086	-1.529595	-0.843018	0.142578	-0.042236
1072.0	5.822223	-0.44131	12.190013	0.418214	-3.397504	-1.588915	-0.846191	0.120605	-0.007568
1073.0	5.053577	-1.013692	13.133367	0.505509	-3.896242	-1.581176	-0.845703	0.105469	0.022461
1074.0	4.662878	1.659527	14.256046	0.718324	-4.520303	-1.50474	-0.851563	0.094238	0.061279
1075.0	3.63918	2.764367	14.598175	0.761376	-5.220402	-1.274891	-0.851074	0.081055	0.10498
1076.0	4.735367	7.526317	14.486686	0.004495	-6.091428	-1.348823	-0.839355	0.065674	0.153076
1077.0	5.992501	9.007608	13.84338	-0.701336	-6.763148	-1.048896	-0.832275	0.05249	0.208008
1078.0	8.379017	1.995145	12.525594	-1.154951	-7.185655	-0.339429	-0.810303	0.048096	0.269531
1079.0	7.565065	0.020529	13.988569	-0.247052	-7.608321	-0.088083	-0.790283	0.041504	0.333496
1080.0	8.792214	-1.056238	15.896151	0.855683	-8.229324	0.28621	-0.758057	0.050537	0.387939
1081.0	13.66851	-0.40703	11.284202	2.082119	-8.364739	0.585955	-0.727539	0.052734	0.456299
1082.0	16.891271	6.583476	5.315827	3.802351	-6.897639	0.52927	-0.702393	0.074463	0.48999
1083.0	15.088373	14.839697	14.228667	4.094613	-5.283621	0.171452	-0.678467	0.076904	0.519531
1084.0	24.919648	6.844086	22.649075	-1.949837	-3.866492	0.867877	-0.661133	0.076904	0.54248
1085.0	23.886285	0.610456	10.746735	-1.060971	-0.750855	0.632003	-0.651855	0.068115	0.540283
1086.0	4.813928	2.711089	17.058568	1.60693	2.050748	0.369629	-0.669922	0.081299	0.519531
1087.0	-4.883763	5.431278	18.240718	0.540079	1.339091	0.352064	-0.669678	0.07251	0.515137
1088.0	-3.141062	2.612595	10.563985	-0.281749	0.589065	0.493646	-0.673828	0.07251	0.508301
1089.0	0.502539	2.752352	8.336037	0.222408	0.652959	0.581842	-0.674072	0.074707	0.508301
1090.0	3.114543	3.100371	7.519577	0.187598	0.924504	0.572835	-0.682861	0.076904	0.496826
1091.0	4.390148	3.115618	7.263158	0.161114	1.520206	0.526755	-0.687256	0.076904	0.480957
1092.0	3.520913	3.654848	7.976893	0.002135	2.137874	0.481235	-0.700439	0.081055	0.462646
1093.0	2.328778	3.479345	8.338963	-0.372775	2.624352	0.455027	-0.708984	0.07666	0.446777
1094.0	2.153535	3.155477	8.666477	-0.779606	2.942535	0.498146	-0.728516	0.072266	0.424072
1095.0	3.130985	1.392152	7.876263	-1.046295	3.224255	0.595385	-0.736816	0.061523	0.39917
1096.0	4.149792	-0.533901	7.538596	-0.935639	3.555354	0.69098	-0.745605	0.063721	0.371826
1097.0	4.332625	-2.092445	7.254045	-0.559438	3.930365	0.733581	-0.765381	0.067871	0.348877
1098.0	4.173456	-2.319889	7.070921	-0.027095	4.289361	0.767201	-0.780762	0.072266	0.310059
1099.0	4.101134	-1.601666	7.21322	0.360964	4.580419	0.835034	-0.787354	0.070068	0.266846
1100.0	4.592624	-1.279604	7.190366	0.481116	4.732417	0.990616	-0.798584	0.078857	0.232422
1101.0	5.091284	-1.304652	6.975936	0.557427	4.831328	1.119592	-0.80542	0.083252	0.186768
1102.0	5.249739	-1.394423	7.428769	0.508108	4.855469	1.170104	-0.807861	0.090088	0.150391
1103.0	5.686758	-2.103029	7.574856	0.433037	4.816222	1.102426	-0.821045	0.092285	0.11377
1104.0	6.555332	-2.791487	7.675748	0.514738	4.784472	0.909146	-0.821045	0.094482	0.065918
1105.0	7.787824	-2.504432	8.097577	0.71563	4.867823	0.646005	-0.820801	0.088135	0.027344
1106.0	8.652646	-1.477008	9.004815	0.768502	4.91986	0.412144	-0.812012	0.08374	-0.020508
1107.0	9.467127	-0.565207	9.800157	0.618457	4.924873	0.183143	-0.811768	0.07959	-0.052246
1108.0	10.353923	-0.517871	10.501795	0.36555	4.949066	-0.065056	-0.806885	0.071045	-0.093262
1109.0	11.166238	-0.771144	10.946659	0.239987	5.043257	-0.375521	-0.797607	0.058105	-0.131592
1110.0	11.715427	-0.791196	11.714448	0.170204	5.12343	-0.694556	-0.786377	0.047363	-0.172607
1111.0	13.011133	-0.351545	12.512363	0.118071	5.193805	-0.918375	-0.772705	0.036621	-0.206543
1112.0	14.767077	-0.002918	13.035343	0.037755	5.236588	-0.96225	-0.75708	0.028076	-0.247314
1113.0	16.697658	0.287426	13.232594	-0.058622	5.236931	-0.954115	-0.740967	0.010742	-0.28125
1114.0	18.783599	0.762956	12.705361	-0.170423	5.179173	-1.103442	-0.718994	0.004395	-0.312988
1115.0	21.089124	1.343569	11.706458	-0.320316	5.035279	-1.29265	-0.698975	-0.00415	-0.342529
1116.0	23.555272	1.852002	9.398076	-0.503396	4.839158	-1.416814	-0.68335	-0.014893	-0.378906
1117.0	24.123658	1.189399	6.193554	-0.643072	4.573993	-1.353153	-0.671875	-0.023438	-0.39917
1118.0	23.444419	1.233659	3.349246	-0.708883	4.181788	-1.134122	-0.650146	-0.023193	-0.426514
1119.0	23.246197	0.575195	-0.129229	-0.705227	3.703986	-0.901791	-0.634521	-0.029541	-0.442383
1120.0	23.250442	0.207747	-2.898845	-0.524786	3.292974	-0.769737	-0.621582	-0.029541	-0.465332
1121.0	22.534159	0.422658	-4.896368	-0.284808	2.856333	-0.669858	-0.60376	-0.038086	-0.483398
1122.0	21.323632	-0.379841	-7.119414	-0.086183	2.250524	-0.49689	-0.597168	-0.038086	-0.494629
1123.0	20.679153	-1.94992	-9.469632	0.406992	1.513805	-0.307988	-0.59668	-0.046631	-0.496826
1124.0	20.31239	-1.116569	-10.281617	0.932618	0.693723	-0.061027	-0.592529	-0.046631	-0.496826
1125.0	20.131606	-0.688852	-10.047135	1.142788	-0.069319	0.181942	-0.5896	-0.062012	-0.491943
1126.0	19.3895	-0.043715	-8.378854	1.227903	-0.667727	0.252757	-0.593994	-0.059814	-0.489746
1127.0	17.23663	15.413163	-4.127839	1.2487	-1.334343	0.844174	-0.609131	-0.062012	-0.4646
1128.0	2.562441	0.008053	-8.568141	-4.426009	-5.159892	0.380419	-0.62793	-0.033936	-0.446777
1129.0	0.963993	-23.691869	25.064708	-1.422534	-4.606722	-1.734729	-0.655029	-0.0625	-0.407471
1130.0	7.37514	8.469208	21.858173	2.476801	-5.10373	-1.227447	-0.672363	-0.064941	-0.382324
1131.0	17.15318	-5.987569	6.987191	-2.026288	-5.062245	0.865973	-0.692627	-0.049805	-0.343994
1132.0	18.415126	-9.05097	6.250821	-0.000402	-4.118052	-0.463804	-0.709717	-0.056641	-0.318604
1133.0	15.58538	-2.432511	12.482106	0.124093	-3.495097	-0.402013	-0.724609	-0.06543	-0.29126
1134.0	17.989379	-0.669096	11.254221	0.625823	-2.779497	-0.178581	-0.726563	-0.067627	-0.279785
1135.0	23.101995	9.165766	9.740479	-0.688654	-1.264899	0.516915	-0.731689	-0.054688	-0.266357
1136.0	8.901159	-0.496084	10.903535	-1.095426	-1.024129	0.373181	-0.736084	-0.050293	-0.26416
1137.0	7.92498	-5.777717	6.257112	-0.502507	-0.820048	0.212623	-0.736084	-0.054688	-0.261719
1138.0	7.894513	4.117717	9.512921	0.059246	-0.485048	-0.064664	-0.738525	-0.043945	-0.257324
1139.0	6.788854	1.181352	8.572987	-0.580463	-0.638889	0.169847	-0.742676	-0.052734	-0.250488
1140.0	6.66391	-0.077993	8.284395	-0.504983	-0.580717	0.242317	-0.738525	-0.043945	-0.250488
1141.0	6.503908	-0.8217	7.984062	-0.387909	-0.42605	0.217554	-0.73877	-0.039551	-0.243896
1142.0	6.469721	0.086414	7.790335	-0.208035	-0.272136	0.156502	-0.740967	-0.039551	-0.241455
1143.0	6.362277	0.549046	8.101225	-0.182943	-0.148564	0.216293	-0.747559	-0.041748	-0.241455
1144.0	6.149214	0.020913	8.347467	-0.124171	-0.075737	0.281059	-0.745605	-0.032959	-0.239258
1145.0	6.120798	0.055945	8.40519	-0.03799	-0.026195	0.303344	-0.743408	-0.032959	-0.239258
1146.0	6.107382	-0.411809	8.345266	-0.018904	-0.006847	0.32763	-0.741699	-0.02417	-0.241943
1147.0	6.086141	-0.612427	8.396631	0.049143	-0.001036	0.308193	-0.743652	-0.030762	-0.239502
1148.0	5.89829	-0.726041	8.574655	0.080263	-0.014471	0.267595	-0.743652	-0.026367	-0.241699
1149.0	5.921521	-0.950995	8.517267	0.083267	-0.040468	0.202165	-0.748047	-0.026611	-0.237305
1150.0	6.071339	-0.911491	8.258934	0.106115	-0.040972	0.09364	-0.739502	-0.021973	-0.237305
1151.0	6.124529	-0.550272	8.225253	0.135459	-0.044029	0.018987	-0.750488	-0.024414	-0.244141
1152.0	6.018946	-0.083734	8.565797	0.145301	-0.061935	0.002667	-0.746338	-0.02002	-0.241943
1153.0	5.875947	-0.532984	8.59053	0.163087	-0.099189	0.017786	-0.748047	-0.026611	-0.232666
1154.0	5.86337	-0.631211	8.646028	0.195277	-0.158187	-0.011821	-0.750488	-0.024414	-0.239502
1155.0	5.994489	-0.375268	8.332952	0.259354	-0.193292	-0.047623	-0.74585	-0.028564	-0.239502
1156.0	6.098592	-0.162006	8.236695	0.285551	-0.210138	-0.048446	-0.75	-0.031006	-0.228027
1157.0	6.113537	-0.36594	8.271256	0.318445	-0.199656	-0.058514	-0.750244	-0.028809	-0.230225
1158.0	6.121956	0.071018	8.357691	0.337289	-0.201252	-0.082743	-0.750244	-0.028809	-0.22583
1159.0	6.22043	0.426466	8.273547	0.312109	-0.203974	-0.054292	-0.747803	-0.035156	-0.232422
1160.0	6.29358	0.732622	8.259264	0.284037	-0.200094	0.00909	-0.74585	-0.030762	-0.228027
1161.0	6.275969	0.649155	8.213594	0.239139	-0.18027	0.092339	-0.747559	-0.041748	-0.225586
1162.0	6.242147	0.372304	8.275794	0.204121	-0.158264	0.143616	-0.748047	-0.026611	-0.223633
1163.0	6.306725	0.462928	8.293256	0.146693	-0.13937	0.15544	-0.748047	-0.028809	-0.218994
1164.0	6.257879	0.386116	8.333087	0.103601	-0.129894	0.187228	-0.750244	-0.026611	-0.221191
1165.0	6.243864	0.171184	8.330795	0.078041	-0.138832	0.220436	-0.754639	-0.028809	-0.216553
1166.0	6.242675	0.008198	8.307617	0.066647	-0.147628	0.224564	-0.754639	-0.026611	-0.218994
1167.0	6.181693	-0.030778	8.403302	0.062166	-0.149572	0.239862	-0.754883	-0.024414	-0.218994
1168.0	6.263388	-0.109017	8.230039	0.048312	-0.151886	0.222968	-0.754883	-0.022217	-0.218994
1169.0	6.298013	-0.104797	8.268868	0.076197	-0.138136	0.214559	-0.759277	-0.022217	-0.209961
1170.0	6.292353	-0.1284	8.260622	0.107216	-0.139099	0.215403	-0.757324	-0.017822	-0.2146
1171.0	6.269847	-0.265217	8.366373	0.129025	-0.155849	0.201786	-0.757324	-0.017822	-0.212402
1172.0	6.282469	-0.163025	8.36636	0.141885	-0.182212	0.187059	-0.750977	-0.01123	-0.207764
1173.0	6.353134	-0.078871	8.379535	0.128882	-0.226547	0.187383	-0.754883	-0.02002	-0.205322
1174.0	6.170927	0.372504	8.730823	0.185147	-0.280173	0.153582	-0.755371	-0.013428	-0.203369
1175.0	6.242054	-0.182427	8.578056	0.182105	-0.341397	0.215819	-0.759277	-0.02002	-0.205322
1176.0	6.021451	-0.626409	9.068907	0.178804	-0.420747	0.190316	-0.759766	-0.011475	-0.200928
1177.0	6.169892	-0.913364	8.677782	0.189045	-0.49069	0.053055	-0.761719	-0.015869	-0.19873
1178.0	6.017754	-1.053388	9.059394	0.209982	-0.565576	-0.068506	-0.759766	-0.009277	-0.194336
1179.0	5.946397	-1.292563	9.294139	0.203524	-0.675789	-0.200789	-0.765869	-0.022461	-0.182617
1180.0	6.074201	-0.768918	9.209778	0.194151	-0.813261	-0.347187	-0.763916	-0.015869	-0.18042
1181.0	6.069557	-0.82824	9.338263	0.212307	-0.964543	-0.440732	-0.77002	-0.026855	-0.168701
1182.0	6.086052	-0.354409	9.623334	0.258102	-1.160532	-0.5542	-0.774414	-0.024658	-0.164307
1183.0	6.115445	-0.051227	9.733406	0.226595	-1.363965	-0.621027	-0.775879	-0.037842	-0.145752
1184.0	6.180239	0.86168	9.996158	0.157554	-1.594331	-0.664464	-0.773682	-0.037842	-0.138916
1185.0	6.246449	0.818777	9.979332	0.099933	-1.84093	-0.621924	-0.777832	-0.046631	-0.122803
1186.0	6.165497	0.695889	10.164442	0.050962	-2.07901	-0.623663	-0.781982	-0.046631	-0.102295
1187.0	6.187739	0.218799	10.376016	-0.032481	-2.363468	-0.665433	-0.783936	-0.053223	-0.081787
1188.0	5.97666	0.143191	11.018376	-0.075836	-2.733391	-0.773747	-0.788086	-0.057861	-0.065674
1189.0	5.921949	0.375696	11.443466	-0.150528	-3.172227	-0.866122	-0.7854	-0.068848	-0.03125
1190.0	5.76689	0.809555	11.963041	-0.156104	-3.624752	-0.887241	-0.787842	-0.06665	-0.001709
1191.0	5.637408	1.449099	12.81458	-0.085778	-4.08622	-0.828205	-0.791748	-0.075439	0.028076
1192.0	4.962412	1.285027	13.915333	-0.117134	-4.649189	-0.68668	-0.79126	-0.084229	0.067139
1193.0	4.700061	1.880774	14.032821	-0.182126	-5.361749	-0.581617	-0.786865	-0.084473	0.110352
1194.0	4.895749	4.925382	13.148565	-0.311455	-5.990109	-0.592549	-0.780273	-0.088867	0.158447
1195.0	5.966688	4.261886	11.823864	-0.737503	-6.476142	-0.299517	-0.77124	-0.095459	0.210938
1196.0	7.891098	5.573418	12.95759	-0.570573	-6.891932	-0.068351	-0.758057	-0.095459	0.260986
1197.0	9.368953	-2.380716	11.130331	-0.757608	-7.335994	0.687891	-0.74292	-0.091064	0.317871
1198.0	8.80938	-7.592586	13.663697	1.033457	-7.536087	0.484809	-0.715088	-0.078125	0.367676
1199.0	15.150108	-0.055604	10.180202	1.793335	-7.517132	0.10324	-0.693359	-0.075928	0.427002
1200.0	15.96509	3.275247	7.515991	2.930344	-6.565053	0.274815	-0.667969	-0.05835	0.479004
1201.0	15.016619	10.846468	9.629217	3.542057	-5.19497	-0.111296	-0.646729	-0.049561	0.506104
1202.0	23.806431	7.996347	19.638397	-0.599399	-2.960728	0.411527	-0.637939	-0.049561	0.515137
1203.0	19.757337	-0.954519	14.171879	-0.557052	-0.520456	0.744461	-0.635986	-0.042969	0.512695
1204.0	1.693737	1.852339	16.571902	1.357419	1.423973	0.517693	-0.647461	-0.03418	0.501221
1205.0	-5.532564	3.863597	16.631216	0.301722	0.621253	0.547894	-0.649414	-0.036621	0.510498
1206.0	-1.528969	0.625172	9.71619	-0.159195	-0.034196	0.672371	-0.654297	-0.023438	0.505615
1207.0	3.256535	0.644607	8.450363	0.619315	0.290977	0.649614	-0.658936	-0.019043	0.503174
1208.0	5.699095	2.220632	8.129618	0.81041	0.889053	0.550283	-0.663574	-0.010254	0.493896
1209.0	5.354421	3.36151	8.097265	0.831031	1.673294	0.456938	-0.677246	-0.001709	0.484619
1210.0	3.380023	4.551496	8.436561	0.536172	2.290309	0.367626	-0.692383	-0.001709	0.466553
1211.0	2.527504	5.32866	8.200098	-0.000382	2.721534	0.290865	-0.69873	-0.006104	0.446045
1212.0	3.545445	4.52114	7.553681	-0.567843	3.07195	0.261871	-0.718506	-0.003906	0.42334
1213.0	4.038027	2.706159	7.131961	-0.823469	3.387279	0.250363	-0.73584	-0.006348	0.407227
1214.0	3.931655	1.150478	7.101026	-0.794307	3.655419	0.198122	-0.750977	-0.008301	0.37085
1215.0	4.350911	0.100062	6.928168	-0.637631	3.900816	0.15178	-0.763916	-0.010498	0.336914
1216.0	4.993132	-0.364261	6.654622	-0.30743	4.147372	0.146464	-0.779541	-0.00415	0.304688
1217.0	5.198546	-0.154327	6.35686	0.021357	4.406515	0.218848	-0.796875	-0.006348	0.272949
1218.0	5.119977	0.153992	6.358251	0.21994	4.605811	0.319102	-0.810059	-0.00415	0.229736
1219.0	5.182085	0.208011	6.484265	0.305913	4.692137	0.423809	-0.81665	-0.003906	0.186279
1220.0	5.576979	-0.074599	6.680147	0.355363	4.682987	0.513268	-0.830322	0.006836	0.14502
1221.0	6.416524	-0.557607	6.864295	0.463842	4.654833	0.564307	-0.834473	0.002686	0.108643
1222.0	7.735199	-1.14604	6.631172	0.663016	4.648986	0.528301	-0.841309	0.009277	0.062988
1223.0	8.527118	-0.391641	7.142017	0.956777	4.722093	0.384401	-0.841309	0.00708	0.024414
1224.0	8.821169	0.744848	8.154476	0.955745	4.707264	0.184446	-0.841309	0.009521	-0.02124
1225.0	9.265589	1.147575	8.823278	0.812244	4.622056	-0.075216	-0.841064	0.00293	-0.057617
1226.0	9.832876	1.318609	9.513418	0.627335	4.539429	-0.363498	-0.834473	0.003174	-0.096436
1227.0	10.382194	0.816501	9.837686	0.452539	4.504862	-0.659131	-0.825195	-0.011963	-0.130371
1228.0	10.729773	0.250106	10.185522	0.398686	4.495263	-0.92413	-0.816162	-0.018311	-0.173584
1229.0	11.736912	0.212771	11.155726	0.404624	4.499763	-1.071524	-0.806885	-0.03125	-0.209717
1230.0	14.092194	-0.307527	12.529067	0.428073	4.524411	-1.0135	-0.793457	-0.037598	-0.246094
1231.0	16.716397	-1.16336	13.103798	0.67649	4.613607	-0.816025	-0.779785	-0.04834	-0.282227
1232.0	17.878197	-0.495367	13.102801	0.998752	4.714947	-0.632297	-0.76416	-0.059082	-0.318604
1233.0	18.17315	1.126351	12.082872	1.065858	4.686181	-0.63031	-0.748291	-0.072021	-0.350342
1234.0	18.907535	2.281658	9.880775	0.884687	4.50077	-0.805117	-0.728271	-0.078369	-0.386719
1235.0	20.3906	2.06063	7.226523	0.511051	4.233304	-1.039855	-0.710449	-0.091309	-0.411377
1236.0	21.156021	0.410555	4.296474	0.344268	3.912567	-1.214923	-0.69043	-0.099854	-0.443359
1237.0	21.32804	0.284114	1.588649	0.0477	3.539823	-1.275481	-0.674072	-0.121582	-0.461182
1238.0	20.133574	-0.349363	-1.753084	-0.403963	3.019914	-1.264112	-0.649902	-0.12793	-0.483643
1239.0	19.321274	-0.686716	-4.395773	-0.89206	2.332536	-1.257772	-0.643066	-0.13208	-0.495117
1240.0	20.76883	-2.094554	-6.538189	-1.263425	1.670151	-1.145997	-0.634521	-0.13208	-0.508789
1241.0	21.741386	-4.178161	-8.611248	-1.249827	1.086167	-0.93702	-0.634521	-0.13208	-0.513428
1242.0	21.659522	-4.53753	-10.450822	-1.085646	0.514203	-0.66965	-0.623779	-0.127686	-0.515625
1243.0	21.330088	-4.397295	-11.306113	-0.833752	-0.013752	-0.356013	-0.632568	-0.125488	-0.513428
1244.0	20.171766	4.376006	-10.107247	-0.376308	-0.376679	0.160037	-0.632568	-0.123291	-0.509033
1245.0	19.663254	-0.685697	-9.99922	-3.769028	-3.619025	1.338417	-0.658203	-0.088623	-0.486816
1246.0	5.856999	-18.617865	-2.521102	-4.247659	-4.353421	-0.09297	-0.680176	-0.084473	-0.46167
1247.0	3.306514	-9.075738	30.062593	3.256685	-4.2599	-1.649218	-0.696289	-0.115234	-0.429199
1248.0	17.719434	10.819629	16.593712	0.744851	-3.803498	0.790115	-0.723389	-0.093506	-0.406738
1249.0	19.786267	-5.382788	5.688222	-3.627608	-3.930871	0.515794	-0.734619	-0.087158	-0.377441
1250.0	16.328259	-3.469036	9.30707	-0.585948	-2.299152	-0.928011	-0.741211	-0.084961	-0.370605
1251.0	10.192944	-6.376334	11.156765	-1.234345	-2.379256	-0.43189	-0.749512	-0.091797	-0.349854
1252.0	11.933609	-5.262031	9.167859	0.21644	-1.849927	-0.037282	-0.756348	-0.087402	-0.343018
1253.0	13.613911	5.259397	9.465013	-0.000235	-1.0831	0.400727	-0.760742	-0.087402	-0.336182
1254.0	9.320146	3.895326	9.674048	-1.084625	-0.949462	0.412976	-0.763184	-0.078613	-0.331787
1255.0	7.872293	-5.703762	8.717487	-1.612778	-1.171327	0.601401	-0.77002	-0.074463	-0.311523
1256.0	7.829869	-4.548549	5.786704	-0.17249	-0.701518	0.20797	-0.772461	-0.070068	-0.316162
1257.0	6.886635	3.727217	9.714656	0.265447	-0.437113	0.084288	-0.774658	-0.067871	-0.316162
1258.0	6.843981	-0.511351	7.24909	-0.208773	-0.372206	0.363799	-0.7771	-0.063721	-0.309326
1259.0	6.516249	-1.55414	7.95394	-0.122934	-0.217588	0.311003	-0.776611	-0.070068	-0.306885
1260.0	6.362364	-1.317783	7.853854	0.050931	-0.069466	0.152065	-0.779297	-0.063721	-0.307129
1261.0	6.293647	0.483659	8.348182	0.103312	0.012314	0.127444	-0.775146	-0.059326	-0.304932
1262.0	6.041795	-0.117982	8.665627	-0.013737	-0.000597	0.227686	-0.777588	-0.052734	-0.302734
1263.0	6.016881	-0.919672	8.455859	0.033892	0.001723	0.237392	-0.779297	-0.061523	-0.304932
1264.0	6.028478	-1.080144	8.528406	0.062674	0.010595	0.161897	-0.775146	-0.059326	-0.302734
1265.0	6.099943	-1.069487	8.3762	0.048661	0.016702	0.056576	-0.773193	-0.052734	-0.304932
1266.0	6.066642	-0.58352	8.513707	0.052918	0.008974	0.001467	-0.772949	-0.054932	-0.302734
1267.0	6.039586	-0.483084	8.458544	0.039465	-0.003571	-0.003284	-0.779785	-0.052734	-0.307373
1268.0	6.143944	-0.364032	8.32018	0.021406	0.002339	-0.011353	-0.775146	-0.057129	-0.302734
1269.0	6.196617	-0.266571	8.183393	0.006622	0.014699	0.012002	-0.772949	-0.057129	-0.304932
1270.0	6.180932	-0.352479	8.171202	0.022552	0.027154	0.02807	-0.773193	-0.052734	-0.307373
1271.0	6.06176	-0.192858	8.334992	0.034322	0.025124	0.063208	-0.777344	-0.057129	-0.304932
1272.0	5.962444	-0.451131	8.475067	0.038458	0.016481	0.118231	-0.777588	-0.050537	-0.307373
1273.0	5.920636	-0.58845	8.530726	0.060394	-0.011586	0.139358	-0.777588	-0.052734	-0.304932
1274.0	5.976531	-0.623636	8.320365	0.06809	-0.045131	0.153003	-0.777344	-0.054932	-0.302734
1275.0	6.018194	-0.598665	8.368252	0.094702	-0.078849	0.156998	-0.777588	-0.050537	-0.302734
1276.0	5.896785	-0.558846	8.505356	0.087866	-0.125513	0.156135	-0.780029	-0.046143	-0.300537
1277.0	5.979203	-0.753346	8.408434	0.095262	-0.177795	0.15551	-0.780029	-0.046143	-0.300537
1278.0	5.95426	-0.857025	8.483181	0.099214	-0.217328	0.131339	-0.780029	-0.043945	-0.29834
1279.0	6.122757	-0.744182	8.251024	0.10718	-0.244697	0.097794	-0.781982	-0.050537	-0.305176
1280.0	6.091059	-0.759453	8.238662	0.112886	-0.24221	0.074582	-0.782227	-0.046143	-0.305176
1281.0	6.171807	-0.783769	8.313232	0.132792	-0.240041	0.045246	-0.777588	-0.04834	-0.293701
1282.0	6.170705	-0.622025	8.326461	0.142169	-0.237799	0.028288	-0.784424	-0.043945	-0.296143
1283.0	6.159802	-0.684898	8.328919	0.141204	-0.233384	0.015594	-0.782227	-0.046143	-0.289307
1284.0	6.18686	-0.68427	8.387394	0.163547	-0.23654	0.002163	-0.78418	-0.04834	-0.291504
1285.0	6.216078	-0.641442	8.302658	0.17208	-0.245233	0.00771	-0.788574	-0.04834	-0.286865
1286.0	6.217351	-0.640322	8.263363	0.206203	-0.25581	0.012658	-0.78418	-0.04834	-0.284668
1287.0	6.193935	-0.58446	8.334338	0.2396	-0.254149	0.010114	-0.788574	-0.04834	-0.286865
1288.0	6.203617	-0.589687	8.367289	0.252592	-0.251348	0.014335	-0.788574	-0.046387	-0.286865
1289.0	6.320997	-0.523784	8.298932	0.273989	-0.248724	0.021113	-0.792725	-0.052979	-0.277588
1290.0	6.290423	-0.623815	8.396373	0.290135	-0.276133	0.010377	-0.792969	-0.046387	-0.273193
1291.0	6.362499	-0.508196	8.361645	0.296448	-0.323386	-0.021785	-0.792725	-0.055176	-0.272949
1292.0	6.354928	-0.68614	8.416921	0.276827	-0.351988	-0.020935	-0.792725	-0.052979	-0.266357
1293.0	6.347803	-0.723743	8.341339	0.264564	-0.406486	-0.061351	-0.799072	-0.057373	-0.263916
1294.0	6.163834	-0.892732	8.964318	0.276549	-0.487567	-0.134544	-0.797119	-0.055176	-0.261719
1295.0	6.233992	-0.070104	9.157906	0.294118	-0.630118	-0.132678	-0.796875	-0.057373	-0.250244
1296.0	6.246938	-0.491753	9.013934	0.299891	-0.734151	-0.15565	-0.799072	-0.055176	-0.248047
1297.0	6.226123	-0.803228	8.96168	0.286131	-0.824469	-0.213556	-0.801025	-0.063965	-0.23877
1298.0	6.267656	-0.419511	9.08189	0.271955	-0.933986	-0.296025	-0.80542	-0.063965	-0.236328
1299.0	6.270424	-0.650296	9.252567	0.252068	-1.052745	-0.334334	-0.805176	-0.068359	-0.224854
1300.0	6.347941	-0.641045	9.208938	0.286197	-1.199185	-0.396369	-0.809326	-0.070557	-0.211182
1301.0	6.376682	-0.537538	9.127864	0.284014	-1.351494	-0.466198	-0.81543	-0.079346	-0.206543
1302.0	6.450403	-0.008965	9.302441	0.255888	-1.512352	-0.544505	-0.811279	-0.079346	-0.183594
1303.0	6.411344	-0.230611	9.312808	0.232463	-1.691263	-0.570508	-0.812988	-0.090332	-0.174316
1304.0	6.514461	-0.099191	9.322047	0.238451	-1.873805	-0.637921	-0.826172	-0.086182	-0.15625
1305.0	6.512726	-0.044969	9.369067	0.200098	-2.068553	-0.706298	-0.823486	-0.099365	-0.137695
1306.0	6.496706	-0.177832	9.655465	0.134473	-2.294127	-0.780216	-0.825439	-0.101563	-0.121582
1307.0	6.3803	-0.658541	10.177439	0.10412	-2.583332	-0.886416	-0.831299	-0.114746	-0.10083
1308.0	6.222872	-0.591099	10.885271	0.081706	-2.941967	-1.027025	-0.831299	-0.119141	-0.068848
1309.0	6.040954	-0.37204	11.432429	0.1194	-3.348044	-1.078897	-0.837158	-0.132324	-0.036865
1310.0	6.047833	0.89247	12.069529	0.217569	-3.794861	-1.053887	-0.834717	-0.138916	-0.004639
1311.0	5.463686	0.588218	12.954824	0.196249	-4.310798	-0.90048	-0.832031	-0.149902	0.03418
1312.0	4.944062	1.843446	13.267058	0.148259	-4.932885	-0.85418	-0.831787	-0.152344	0.077637
1313.0	6.176685	6.231514	12.916338	-0.30675	-5.555113	-0.918481	-0.825195	-0.154541	0.125488
1314.0	6.199759	5.201147	11.890335	-0.663031	-6.033782	-0.561304	-0.818359	-0.158936	0.177979
1315.0	7.828051	3.904365	12.598378	-0.791015	-6.506755	-0.226019	-0.809326	-0.169922	0.228271
1316.0	8.555245	0.378463	11.950514	-0.648358	-6.955094	0.149671	-0.794678	-0.156982	0.287354
1317.0	7.184196	-4.908395	14.727089	0.785595	-7.453257	0.388204	-0.768311	-0.15918	0.344238
1318.0	13.411146	-1.868828	11.363187	1.732381	-7.932154	0.296505	-0.740479	-0.148193	0.412354
1319.0	15.673618	1.090124	5.858861	2.985583	-6.993263	0.457532	-0.719482	-0.130615	0.464355
1320.0	15.989036	8.621451	7.217092	5.104552	-5.544098	0.256333	-0.690186	-0.102295	0.50708
1321.0	17.555725	13.096884	16.564463	1.906049	-3.967129	-0.173775	-0.683594	-0.102295	0.536865
1322.0	25.006915	3.920742	17.756772	-1.492788	-2.332555	0.648695	-0.672852	-0.0979	0.54126
1323.0	13.830151	3.311046	11.928716	0.393152	1.034642	0.412861	-0.683838	-0.095703	0.536621
