Acquisition frequency: 100 Hz
PacketCounter	Acc_X	Acc_Y	Acc_Z	Gyr_X	Gyr_Y	Gyr_Z	Mag_X	Mag_Y	Mag_Z
0.0	4.322943	0.986135	9.485531	0.003084	0.006353	-0.01943	-0.518066	0.047607	-0.491943
1.0	4.312427	1.010691	9.534139	0.004021	0.006049	-0.020598	-0.524658	0.047607	-0.494141
2.0	4.314806	0.98077	9.463847	0.006226	0.006071	-0.02086	-0.520508	0.049805	-0.491943
3.0	4.327295	0.998203	9.50824	0.005342	0.00292	-0.024619	-0.524658	0.049805	-0.496582
4.0	4.314759	0.969915	9.495668	0.006005	0.004182	-0.020473	-0.522461	0.047607	-0.496582
5.0	4.319747	0.99329	9.48624	0.007768	0.000419	-0.019961	-0.526855	0.049805	-0.494141
6.0	4.319258	0.994754	9.48631	0.003692	0.005428	-0.022672	-0.522461	0.047607	-0.498779
7.0	4.323889	1.018014	9.477047	0.006228	0.006082	-0.020861	-0.522705	0.049805	-0.496582
8.0	4.312328	0.975876	9.496162	0.007166	0.00578	-0.022029	-0.529053	0.047607	-0.491943
9.0	4.327898	0.961936	9.470128	0.004025	0.006063	-0.0206	-0.524902	0.052002	-0.494385
10.0	4.276061	0.956421	9.487956	0.007884	0.003587	-0.022809	-0.524658	0.04541	-0.494141
11.0	4.305273	0.878507	9.508109	0.0215	0.000901	-0.027232	-0.520508	0.049805	-0.494141
12.0	4.327588	1.036513	9.499334	0.025749	-0.004398	-0.032293	-0.524414	0.043213	-0.494141
13.0	4.344269	1.02463	9.472579	0.021342	-0.008861	-0.026461	-0.524658	0.04541	-0.496338
14.0	4.333599	1.065047	9.488819	0.019138	-0.004459	-0.031509	-0.520264	0.04541	-0.494141
15.0	4.333559	1.068079	9.488497	0.017813	-0.001325	-0.02749	-0.526855	0.047607	-0.491943
16.0	4.356302	1.063357	9.484171	0.013405	-0.001372	-0.026967	-0.522461	0.047607	-0.485107
17.0	4.326695	1.064878	9.465987	0.008058	-0.001118	-0.025276	-0.526855	0.047607	-0.498779
18.0	4.350547	1.045476	9.493415	0.00734	0.00108	-0.024497	-0.526855	0.047607	-0.496582
19.0	4.34346	1.039298	9.471352	0.009044	0.005199	-0.02437	-0.526611	0.041016	-0.496338
20.0	4.326508	1.056379	9.497637	0.005466	0.001688	-0.022163	-0.522461	0.04541	-0.494141
21.0	4.342592	1.042457	9.471402	0.005249	-0.000204	-0.021774	-0.522461	0.047607	-0.491943
22.0	4.330311	1.014024	9.458833	0.00304	0.004194	-0.026824	-0.522461	0.04541	-0.491943
23.0	4.31852	1.052824	9.475692	0.006842	0.005183	-0.024108	-0.522705	0.049805	-0.491943
24.0	4.32896	1.017087	9.459122	0.003482	0.003563	-0.02229	-0.520264	0.04541	-0.496338
25.0	4.340012	1.048169	9.471954	0.002039	0.007956	-0.020734	-0.522217	0.043213	-0.494141
26.0	4.343016	1.084888	9.43121	0.001318	0.010152	-0.019956	-0.526611	0.043213	-0.489502
27.0	4.336653	1.063963	9.441099	-0.000164	0.00793	-0.020473	-0.522705	0.049805	-0.496582
28.0	4.336892	1.050766	9.473095	-0.004247	0.008503	-0.017877	-0.526855	0.04541	-0.494141
29.0	4.329287	1.042979	9.451455	-0.005908	0.010999	-0.015932	-0.522461	0.047607	-0.496582
30.0	4.364036	1.051792	9.492146	-0.00844	0.010342	-0.017744	-0.518066	0.04541	-0.489502
31.0	4.30389	1.050519	9.456637	-0.003485	0.012928	-0.016582	-0.526611	0.041016	-0.494141
32.0	4.38977	1.066699	9.479675	-0.008654	0.00845	-0.017356	-0.524658	0.047607	-0.491943
33.0	4.325767	1.029642	9.485182	-0.004966	0.010707	-0.017099	-0.526611	0.043213	-0.494141
34.0	4.341234	1.014458	9.459419	-0.007929	0.006259	-0.018134	-0.522217	0.043213	-0.489502
35.0	4.329276	1.051764	9.476468	-0.006989	0.005962	-0.019301	-0.526855	0.049805	-0.494141
36.0	4.357694	1.052413	9.49499	-0.00999	0.011577	-0.013338	-0.52002	0.043213	-0.491943
37.0	4.326975	1.051594	9.477537	-0.006014	0.012281	-0.018394	-0.524658	0.04541	-0.494141
38.0	4.349832	1.030512	9.505668	-0.007784	0.011611	-0.013599	-0.520264	0.04541	-0.489502
39.0	4.35409	1.052181	9.496669	-0.011394	0.005907	-0.018782	-0.520508	0.049805	-0.491943
40.0	4.345533	1.057759	9.443363	-0.009588	0.008762	-0.01619	-0.524414	0.043213	-0.489502
41.0	4.352104	1.051799	9.497622	-0.008108	0.010989	-0.015672	-0.518066	0.047607	-0.498779
42.0	4.332733	1.013658	9.463402	-0.010312	0.01096	-0.015412	-0.524658	0.047607	-0.489746
43.0	4.3497	1.051472	9.498759	-0.007166	0.010695	-0.016839	-0.522461	0.047607	-0.494141
44.0	4.335487	1.035385	9.455092	-0.007567	0.013518	-0.013987	-0.526611	0.043213	-0.498779
45.0	4.36358	1.035952	9.473797	-0.01031	0.010965	-0.015413	-0.524658	0.04541	-0.487305
46.0	4.309823	1.042016	9.460453	-0.011761	0.015355	-0.013855	-0.522217	0.043213	-0.494141
47.0	4.344246	1.050267	9.501388	-0.01219	0.011562	-0.01308	-0.526611	0.043213	-0.496338
48.0	4.358161	1.0481	9.444333	-0.01617	0.015296	-0.013337	-0.520264	0.04541	-0.491943
49.0	4.3349	1.040498	9.480769	-0.016383	0.013401	-0.01295	-0.526611	0.041016	-0.494141
50.0	4.333495	1.039506	9.48152	-0.016383	0.013403	-0.01295	-0.52002	0.041016	-0.496338
51.0	4.353739	1.045017	9.446714	-0.017727	0.016521	-0.008931	-0.522217	0.043213	-0.491943
52.0	4.358556	1.051942	9.469723	-0.016488	0.014682	-0.015412	-0.526855	0.047607	-0.487305
53.0	4.327587	1.050098	9.452455	-0.018048	0.015902	-0.011005	-0.520264	0.04541	-0.491943
54.0	4.350101	1.027607	9.480902	-0.01993	0.016497	-0.008673	-0.520508	0.052002	-0.491943
55.0	4.354831	1.034175	9.503984	-0.017402	0.017155	-0.006857	-0.522461	0.04541	-0.494141
56.0	4.353023	1.032989	9.504941	-0.013719	0.019417	-0.006592	-0.522705	0.049805	-0.487305
57.0	4.291562	1.033628	9.60305	-0.019757	0.005171	-0.013226	-0.533203	0.041016	-0.491699
58.0	4.205608	1.085203	9.742774	-0.049236	-0.053859	-0.02539	-0.522217	0.043213	-0.494141
59.0	4.355786	1.003832	9.51147	-0.049967	-0.10149	-0.024051	-0.520264	0.04541	-0.491943
60.0	4.348205	0.962911	9.472057	-0.039411	-0.124897	-0.03084	-0.526855	0.04541	-0.491943
61.0	4.419458	1.026781	9.399148	-0.019936	-0.115126	-0.028241	-0.526855	0.047607	-0.491943
62.0	4.41428	1.023998	9.319105	-0.018774	-0.083637	-0.016507	-0.53125	0.047607	-0.489746
63.0	4.363976	0.993658	9.343491	-0.013672	-0.047012	-0.015129	-0.533447	0.047607	-0.489746
64.0	4.34539	0.91931	9.348025	-0.010473	-0.027468	-0.01029	-0.529053	0.047607	-0.489746
65.0	4.380563	0.811455	9.430022	0.003685	-0.016517	-0.01625	-0.526855	0.049805	-0.491943
66.0	4.40161	1.049057	9.419468	0.020469	-0.012788	-0.020032	-0.531006	0.04541	-0.489502
67.0	4.393626	0.994368	9.469052	0.027291	-0.01079	-0.021208	-0.528809	0.041016	-0.489502
68.0	4.409625	1.064021	9.440121	0.033058	-0.007219	-0.023674	-0.529053	0.047607	-0.485107
69.0	4.432846	0.993945	9.40563	0.030322	-0.00976	-0.0251	-0.528809	0.043213	-0.487305
70.0	4.423449	1.021252	9.453363	0.035267	-0.00717	-0.023939	-0.529053	0.04541	-0.491943
71.0	4.438902	1.024536	9.394827	0.034503	-0.007125	-0.030548	-0.528809	0.043213	-0.494141
72.0	4.434104	1.007394	9.403606	0.036268	-0.006424	-0.035346	-0.528809	0.043213	-0.489502
73.0	4.418059	1.027708	9.429145	0.040264	-0.010131	-0.035103	-0.528809	0.043213	-0.496338
74.0	4.412447	1.092187	9.435584	0.04194	-0.012596	-0.037055	-0.526611	0.043213	-0.489502
75.0	4.447657	1.120592	9.443104	0.042802	-0.009448	-0.033296	-0.529053	0.04541	-0.489502
76.0	4.45822	1.102727	9.393799	0.040719	-0.01075	-0.030571	-0.531006	0.04541	-0.489502
77.0	4.414509	1.108149	9.432758	0.041283	-0.012669	-0.023576	-0.526611	0.041016	-0.491699
78.0	4.420842	1.134786	9.422101	0.03858	-0.019658	-0.019685	-0.531006	0.043213	-0.494141
79.0	4.440389	1.110068	9.426165	0.035763	-0.018779	-0.016178	-0.531006	0.04541	-0.482666
80.0	4.407801	1.091103	9.416384	0.034001	-0.026059	-0.013453	-0.531006	0.041016	-0.484863
81.0	4.4384	1.109545	9.401046	0.031181	-0.031776	-0.012019	-0.530762	0.038818	-0.484863
82.0	4.419784	1.106163	9.435102	0.027714	-0.032141	-0.012657	-0.529053	0.04541	-0.485107
83.0	4.417666	1.087394	9.442916	0.026452	-0.032465	-0.01356	-0.5354	0.043213	-0.489502
84.0	4.4532	1.126996	9.418109	0.023516	-0.023724	-0.010443	-0.531006	0.043213	-0.487305
85.0	4.443599	1.099131	9.40441	0.012902	-0.020145	-0.009887	-0.533203	0.043213	-0.484863
86.0	4.445441	1.100767	9.403347	0.009719	-0.022052	-0.015836	-0.528809	0.041016	-0.484863
87.0	4.465058	1.140203	9.437055	0.00331	-0.013693	-0.013354	-0.530762	0.038818	-0.489502
88.0	4.475741	1.117349	9.388274	-0.005959	-0.006624	-0.014748	-0.526367	0.038818	-0.487305
89.0	4.456128	1.096601	9.455646	-0.012778	-0.002055	-0.011483	-0.531006	0.043213	-0.487305
90.0	4.442837	1.079651	9.411682	-0.013431	0.003294	-0.013557	-0.535156	0.041016	-0.482666
91.0	4.481601	1.123779	9.410873	-0.014698	0.009554	-0.012388	-0.528564	0.038818	-0.489502
92.0	4.451227	1.121523	9.393557	-0.02172	0.005639	-0.010804	-0.533203	0.04541	-0.482666
93.0	4.46321	1.069118	9.409103	-0.020578	0.013837	-0.010293	-0.522705	0.049805	-0.489746
94.0	4.466716	1.089386	9.400454	-0.025108	0.015026	-0.01222	-0.528564	0.038818	-0.484863
95.0	4.471581	1.095424	9.423566	-0.028662	0.018079	-0.00793	-0.526611	0.043213	-0.491943
96.0	4.463169	1.084806	9.402668	-0.031601	0.020223	-0.006883	-0.528564	0.038818	-0.482666
97.0	4.467732	1.090275	9.425988	-0.031924	0.01961	-0.008956	-0.529053	0.04541	-0.494141
98.0	4.438184	1.072673	9.440754	-0.034001	0.011706	-0.008304	-0.531006	0.043213	-0.487305
99.0	4.437571	1.069894	9.441357	-0.033666	-0.000852	-0.010386	-0.533447	0.047607	-0.489746
100.0	4.476999	1.044982	9.411186	-0.03334	-0.000228	-0.008313	-0.5354	0.04541	-0.485107
101.0	4.470177	1.034477	9.389502	-0.028968	0.004309	-0.014157	-0.528809	0.043213	-0.487305
102.0	4.437208	1.062266	9.442389	-0.034595	-0.00714	-0.011299	-0.533203	0.043213	-0.484863
103.0	4.470704	1.096655	9.419252	-0.029245	-0.007338	-0.013002	-0.533203	0.04541	-0.485107
104.0	4.469823	1.041355	9.358134	-0.028182	-0.008899	-0.011712	-0.528809	0.04541	-0.478271
105.0	4.478595	1.033504	9.411694	-0.025977	-0.008853	-0.011979	-0.531006	0.043213	-0.485107
106.0	4.449694	1.030691	9.393711	-0.023569	-0.006913	-0.012632	-0.531006	0.043213	-0.485107
107.0	4.461491	1.059227	9.40638	-0.019695	-0.002749	-0.012768	-0.526611	0.043213	-0.482666
108.0	4.484462	1.050964	9.402307	-0.020877	9.9e-05	-0.016518	-0.531006	0.041016	-0.480469
109.0	4.484284	1.050211	9.402476	-0.012386	-0.000344	-0.019659	-0.533203	0.04541	-0.482666
110.0	4.454397	1.048786	9.384812	-0.01386	0.00402	-0.01809	-0.528809	0.043213	-0.485107
111.0	4.488284	1.071409	9.393576	-0.011656	0.004065	-0.018357	-0.528564	0.038818	-0.480225
112.0	4.458196	1.069984	9.376006	-0.013859	0.004024	-0.018091	-0.531006	0.043213	-0.485107
113.0	4.480623	1.062546	9.372105	-0.012595	0.004354	-0.017187	-0.526611	0.041016	-0.491699
114.0	4.46985	1.084992	9.421008	-0.016598	0.008062	-0.017424	-0.531006	0.04541	-0.485107
115.0	4.450783	1.046252	9.386809	-0.01493	0.012183	-0.017291	-0.528564	0.038818	-0.487305
116.0	4.467763	1.083388	9.422182	-0.020465	0.003904	-0.017293	-0.5354	0.043213	-0.487305
117.0	4.450514	1.03057	9.419411	-0.015574	0.010964	-0.021439	-0.533203	0.04541	-0.491943
118.0	4.482285	1.066889	9.396954	-0.017856	0.007744	-0.01833	-0.533203	0.041016	-0.487305
119.0	4.469662	1.035982	9.384915	-0.017871	0.014332	-0.016238	-0.529053	0.04541	-0.485107
120.0	4.481308	1.051053	9.42991	-0.018593	0.009931	-0.017545	-0.529053	0.047607	-0.487305
121.0	4.455342	1.071207	9.403343	-0.016108	0.015055	-0.021037	-0.530762	0.038818	-0.489502
122.0	4.478261	1.049602	9.431519	-0.016726	0.015954	-0.017793	-0.531006	0.043213	-0.491943
123.0	4.456688	1.091569	9.395828	-0.019147	0.020601	-0.01505	-0.5354	0.04541	-0.485107
124.0	4.466097	1.053536	9.380052	-0.020327	0.023462	-0.018797	-0.531006	0.041016	-0.489502
125.0	4.492973	1.053765	9.399325	-0.015198	0.02796	-0.018019	-0.529297	0.052002	-0.489746
126.0	4.460576	1.051838	9.382869	-0.019081	0.030385	-0.015798	-0.531006	0.043213	-0.487305
127.0	4.463808	1.058891	9.406649	-0.016475	0.034231	-0.016829	-0.528809	0.043213	-0.489502
128.0	4.50147	1.022354	9.409376	-0.01375	0.03679	-0.015401	-0.53125	0.047607	-0.487305
129.0	4.473292	1.042793	9.383828	-0.011544	0.036841	-0.015664	-0.529053	0.04541	-0.489502
130.0	4.448035	1.035237	9.421336	-0.012283	0.039029	-0.014878	-0.53125	0.047607	-0.485107
131.0	4.478655	1.057965	9.431788	-0.010596	0.036572	-0.016835	-0.528564	0.038818	-0.487305
132.0	4.46861	1.049742	9.411382	-0.009016	0.037515	-0.013852	-0.531006	0.041016	-0.480469
133.0	4.453816	1.019443	9.400249	-0.009098	0.03433	-0.011012	-0.526855	0.04541	-0.485107
134.0	4.42903	1.012226	9.437426	-0.00584	0.030699	-0.017381	-0.533203	0.043213	-0.484863
135.0	4.437567	1.042746	9.451493	0.001228	0.023563	-0.015729	-0.526855	0.047607	-0.491943
136.0	4.434085	1.057524	9.42085	0.000427	0.015963	-0.014201	-0.5354	0.04541	-0.485107
137.0	4.427998	1.036443	9.430638	0.005719	0.005989	-0.015149	-0.531006	0.04541	-0.491943
138.0	4.455491	1.052893	9.417247	0.00858	0.00066	-0.013355	-0.535156	0.038818	-0.480225
139.0	4.483016	1.069346	9.40384	0.008668	0.005961	-0.008799	-0.526611	0.043213	-0.485107
140.0	4.453172	1.06964	9.385834	0.010785	0.000708	-0.013616	-0.526855	0.04541	-0.485107
141.0	4.470831	1.042142	9.391136	0.007609	0.007536	-0.01009	-0.531006	0.043213	-0.485107
142.0	4.430068	1.065218	9.421873	0.009898	0.010777	-0.013191	-0.531006	0.043213	-0.485107
143.0	4.486553	1.082937	9.426716	0.008039	0.004747	-0.012952	-0.531006	0.04541	-0.487305
144.0	4.451783	1.061235	9.418065	0.009729	0.002285	-0.014906	-0.533203	0.04541	-0.487305
145.0	4.452869	1.048804	9.449585	0.009729	0.002287	-0.014906	-0.531006	0.04541	-0.489502
146.0	4.474023	1.057518	9.413987	0.00867	0.003861	-0.016196	-0.529053	0.04541	-0.487305
147.0	4.471928	1.073011	9.382596	0.007926	0.006045	-0.015411	-0.531006	0.041016	-0.489502
148.0	4.449466	1.067316	9.418472	0.009699	0.008884	-0.01281	-0.530762	0.038818	-0.484863
149.0	4.468864	1.026156	9.45518	0.011454	-0.006763	-0.018953	-0.531006	0.043213	-0.485107
150.0	4.445325	1.049175	9.42705	0.016557	-0.018633	-0.019511	-0.533203	0.043213	-0.484863
151.0	4.424364	1.058874	9.429851	0.024811	-0.030729	-0.021497	-0.531006	0.04541	-0.487305
152.0	4.478223	1.070619	9.410509	0.026307	-0.035082	-0.023067	-0.533203	0.04541	-0.485107
153.0	4.46857	1.057896	9.364359	0.024421	-0.034513	-0.020731	-0.526855	0.04541	-0.485107
154.0	4.4843	1.077065	9.406879	0.020961	-0.034884	-0.021377	-0.535156	0.041016	-0.484863
155.0	4.485565	1.094107	9.373646	0.022186	-0.030063	-0.025775	-0.531006	0.041016	-0.484863
156.0	4.504515	1.082413	9.345909	0.022151	-0.023467	-0.023685	-0.531006	0.041016	-0.491699
157.0	4.495657	1.108375	9.39328	0.018729	-0.014064	-0.025084	-0.528809	0.041016	-0.487305
158.0	4.521488	1.090421	9.419782	0.018968	-0.016641	-0.020164	-0.531006	0.043213	-0.482666
159.0	4.468382	1.112535	9.373611	0.017551	-0.00909	-0.021442	-0.526611	0.041016	-0.480469
160.0	4.479804	1.145048	9.385919	0.012669	-0.001923	-0.023363	-0.535156	0.041016	-0.480469
161.0	4.489682	1.12399	9.337484	0.007471	0.006739	-0.019966	-0.539551	0.038818	-0.482666
162.0	4.488733	1.125243	9.337789	0.00137	0.00909	-0.017487	-0.528564	0.038818	-0.489502
163.0	4.472339	1.127122	9.39612	0.002077	0.013501	-0.016183	-0.533203	0.043213	-0.482666
164.0	4.520086	1.149933	9.347578	-0.007293	0.017367	-0.014734	-0.530762	0.036621	-0.482666
165.0	4.480593	1.090569	9.380979	-0.008595	0.023626	-0.013553	-0.532959	0.038818	-0.491699
166.0	4.506092	1.105609	9.368586	-0.008594	0.023629	-0.013553	-0.528809	0.041016	-0.480469
167.0	4.498771	1.083433	9.379238	-0.008202	0.027434	-0.014324	-0.537598	0.043213	-0.480469
168.0	4.505601	1.127306	9.361748	-0.009459	0.027107	-0.015231	-0.533203	0.041016	-0.484863
169.0	4.486182	1.141659	9.38935	-0.013436	0.026318	-0.010173	-0.535156	0.041016	-0.480469
170.0	4.477199	1.132567	9.368593	-0.017647	0.028116	-0.010036	-0.533203	0.041016	-0.480469
171.0	4.491144	1.11629	9.343862	-0.021546	0.030522	-0.007824	-0.533203	0.041016	-0.478027
172.0	4.461769	1.085389	9.390547	-0.022606	0.0321	-0.009117	-0.528809	0.043213	-0.482666
173.0	4.475789	1.121929	9.427273	-0.019385	0.03718	-0.005994	-0.535645	0.047607	-0.487305
174.0	4.51171	1.098701	9.399029	-0.023122	0.045988	-0.009472	-0.531006	0.043213	-0.485107
175.0	4.47818	1.095404	9.383157	-0.026857	0.040511	-0.006894	-0.530762	0.038818	-0.484863
176.0	4.470799	1.057253	9.426241	-0.025205	0.044658	-0.006753	-0.531006	0.04541	-0.480469
177.0	4.512586	1.041903	9.42043	-0.023224	0.047318	-0.011932	-0.528809	0.043213	-0.487305
178.0	4.471198	1.097843	9.412296	-0.024393	0.050203	-0.015685	-0.531006	0.043213	-0.480469
179.0	4.494186	1.111347	9.401467	-0.027231	0.051045	-0.012185	-0.533203	0.041016	-0.487305
180.0	4.454799	1.086002	9.395371	-0.02926	0.057416	-0.017614	-0.526611	0.041016	-0.484863
181.0	4.444681	1.061791	9.407459	-0.03174	0.052268	-0.014136	-0.533203	0.043213	-0.482666
182.0	4.467084	1.075108	9.396976	-0.026649	0.061318	-0.018634	-0.531006	0.043213	-0.485107
183.0	4.468755	1.067295	9.453703	-0.029044	0.059377	-0.018	-0.531006	0.043213	-0.482666
184.0	4.461677	1.0796	9.42509	-0.024826	0.057595	-0.018127	-0.535156	0.038818	-0.482666
185.0	4.45115	1.056059	9.437248	-0.023368	0.059849	-0.017597	-0.533203	0.043213	-0.489502
186.0	4.450295	1.076779	9.430792	-0.021553	0.056103	-0.017089	-0.533203	0.043213	-0.489502
187.0	4.444659	1.075645	9.433579	-0.020506	0.059058	-0.021094	-0.529053	0.04541	-0.487305
188.0	4.417026	1.014429	9.410472	-0.019894	0.060283	-0.016939	-0.526611	0.043213	-0.487305
189.0	4.434328	1.059143	9.470815	-0.024494	0.058282	-0.016059	-0.531006	0.043213	-0.482666
190.0	4.427642	1.071896	9.442004	-0.018468	0.052729	-0.01567	-0.531006	0.043213	-0.487305
191.0	4.418242	1.049127	9.453471	-0.011134	0.040888	-0.016468	-0.531006	0.043213	-0.487305
192.0	4.389962	1.069536	9.427723	-0.009974	0.038005	-0.012716	-0.526367	0.038818	-0.491699
193.0	4.42098	1.092639	9.438297	-0.007146	0.022826	-0.010177	-0.528564	0.038818	-0.487305
194.0	4.396131	1.099256	9.442976	-0.004522	0.010261	-0.012554	-0.524658	0.049805	-0.489746
195.0	4.431728	1.041741	9.454186	-0.006427	0.01081	-0.010228	-0.528809	0.043213	-0.491943
196.0	4.381838	1.082957	9.399518	-0.009882	0.010428	-0.010895	-0.526611	0.041016	-0.487305
197.0	4.40004	1.039928	9.437017	-0.004881	0.016275	-0.012529	-0.530762	0.038818	-0.493896
198.0	4.397178	1.054045	9.406292	-0.007383	0.01562	-0.01436	-0.526611	0.043213	-0.491943
199.0	4.443113	1.027047	9.43075	0.001136	0.01524	-0.017429	-0.531006	0.041016	-0.489502
200.0	4.424252	1.04254	9.457598	8.3e-05	0.016827	-0.018724	-0.522217	0.043213	-0.487305
201.0	4.398168	1.064033	9.430685	-0.001067	0.015189	-0.017182	-0.533203	0.04541	-0.494141
202.0	4.435335	1.110333	9.431326	-0.000411	0.014317	-0.020425	-0.529053	0.04541	-0.487305
203.0	4.389092	1.057789	9.409647	0.002848	0.012791	-0.019376	-0.533203	0.041016	-0.487305
204.0	4.416952	1.060036	9.428581	-0.001756	0.010767	-0.018504	-0.529053	0.04541	-0.482666
205.0	4.398296	1.07564	9.455284	0.002649	0.01542	-0.024293	-0.533203	0.04541	-0.489502
206.0	4.386042	1.046717	9.442781	0.002951	0.011486	-0.016918	-0.528809	0.043213	-0.487305
207.0	4.422527	1.10748	9.411649	0.001668	0.005857	-0.022398	-0.531006	0.041016	-0.484863
208.0	4.416936	1.086605	9.421104	0.00417	0.006517	-0.020565	-0.52002	0.038818	-0.489502
209.0	4.451239	1.097267	9.462062	0.00292	0.00619	-0.021482	-0.522217	0.041016	-0.491699
210.0	4.415193	1.089038	9.42164	0.002163	0.008377	-0.020698	-0.522217	0.043213	-0.489502
211.0	4.409232	1.067909	9.431306	-0.000603	0.012421	-0.020048	-0.526855	0.04541	-0.489502
212.0	4.412722	1.090815	9.422593	-0.002344	0.009579	-0.022666	-0.529053	0.04541	-0.491943
213.0	4.411441	1.091188	9.423149	-0.007875	0.013122	-0.01607	-0.531006	0.041016	-0.487305
214.0	4.397968	1.075461	9.379285	-0.003664	0.01587	-0.021478	-0.533447	0.047607	-0.487305
215.0	4.408142	1.091785	9.424624	-0.009027	0.016026	-0.019825	-0.526611	0.041016	-0.489502
216.0	4.429591	1.085135	9.421627	-0.009686	0.016899	-0.016583	-0.531006	0.041016	-0.489502
217.0	4.405718	1.077433	9.457833	-0.00949	0.018817	-0.016962	-0.529053	0.04541	-0.487305
218.0	4.402572	1.091463	9.427264	-0.008534	0.01855	-0.018125	-0.528809	0.041016	-0.489502
219.0	4.418915	1.062891	9.433628	-0.007187	0.022114	-0.020045	-0.5354	0.04541	-0.487305
220.0	4.421628	1.085162	9.425364	-0.007771	0.016371	-0.018909	-0.528809	0.043213	-0.482666
221.0	4.413581	1.077303	9.404053	-0.006697	0.024636	-0.018343	-0.531006	0.043213	-0.491943
222.0	4.394137	1.091737	9.431167	-0.011884	0.016856	-0.016342	-0.528564	0.036621	-0.493896
223.0	4.415411	1.084972	9.4283	-0.009582	0.020153	-0.019423	-0.528809	0.041016	-0.494141
224.0	4.389972	1.091265	9.433161	-0.012254	0.02288	-0.016316	-0.528564	0.038818	-0.491699
225.0	4.416751	1.092252	9.452814	-0.013501	0.022555	-0.017235	-0.529053	0.04541	-0.491943
226.0	4.397855	1.053822	9.418539	-0.010144	0.024268	-0.019018	-0.524658	0.04541	-0.489502
227.0	4.402486	1.047361	9.47348	-0.013498	0.022563	-0.017236	-0.526611	0.043213	-0.491943
228.0	4.409308	1.091231	9.456406	-0.010418	0.028978	-0.016531	-0.522217	0.043213	-0.491943
229.0	4.40062	1.082968	9.435443	-0.01061	0.027065	-0.016154	-0.53125	0.047607	-0.487305
230.0	4.421131	1.076312	9.432964	-0.008695	0.026533	-0.018477	-0.526611	0.043213	-0.489502
231.0	4.384533	1.052565	9.424888	-0.010413	0.028992	-0.016532	-0.526611	0.043213	-0.491943
232.0	4.398015	1.090416	9.461758	-0.010412	0.028997	-0.016533	-0.524414	0.043213	-0.485107
233.0	4.418118	1.083775	9.459486	-0.007528	0.033498	-0.015447	-0.531006	0.043213	-0.485107
234.0	4.390733	1.104373	9.433177	-0.008397	0.027149	-0.016397	-0.528809	0.043213	-0.489502
235.0	4.378469	1.060144	9.452777	-0.005997	0.029135	-0.017015	-0.526611	0.041016	-0.494141
236.0	4.385327	1.104538	9.435672	-0.006773	0.02146	-0.015507	-0.528809	0.041016	-0.494141
237.0	4.401298	1.075916	9.44228	-0.008199	0.029081	-0.016775	-0.531006	0.041016	-0.487305
238.0	4.39872	1.075888	9.443484	-0.006483	0.022063	-0.013427	-0.531006	0.041016	-0.487305
239.0	4.396317	1.075862	9.444606	-0.007339	0.025578	-0.015101	-0.529053	0.04541	-0.494141
240.0	4.3658	1.060184	9.458631	-0.007624	0.024986	-0.017183	-0.526611	0.043213	-0.487305
241.0	4.344878	1.088759	9.454305	-0.007725	0.021744	-0.014349	-0.533203	0.04541	-0.496338
242.0	4.393982	1.097719	9.438789	-0.011368	0.019434	-0.014656	-0.524658	0.047607	-0.489746
243.0	4.362885	1.095858	9.421145	-0.010214	0.021092	-0.016192	-0.52417	0.038818	-0.496338
244.0	4.386243	1.060761	9.481345	-0.00907	0.018176	-0.012437	-0.526611	0.041016	-0.487305
245.0	4.388062	1.096599	9.441673	-0.013763	0.017458	-0.014044	-0.524414	0.043213	-0.491943
246.0	4.409181	1.089606	9.439051	-0.013556	0.023959	-0.019711	-0.528809	0.043213	-0.489502
247.0	4.368541	1.043196	9.4397	-0.013283	0.01998	-0.012339	-0.532959	0.038818	-0.491699
248.0	4.404825	1.088424	9.441221	-0.012128	0.02164	-0.013874	-0.522217	0.041016	-0.494141
249.0	4.374771	1.072212	9.45502	-0.01136	0.019455	-0.014658	-0.526611	0.043213	-0.494141
250.0	4.372773	1.071598	9.456014	-0.014524	0.01966	-0.013263	-0.526855	0.047607	-0.489746
251.0	4.398736	1.086618	9.444267	-0.013563	0.019398	-0.014422	-0.526611	0.043213	-0.491943
252.0	4.373369	1.092378	9.448977	-0.013085	0.021918	-0.012715	-0.526855	0.04541	-0.487305
253.0	4.388729	1.077215	9.424071	-0.015288	0.021858	-0.01248	-0.533203	0.04541	-0.494141
254.0	4.392047	1.084309	9.447645	-0.014899	0.025709	-0.01323	-0.526855	0.04541	-0.491943
255.0	4.389637	1.083344	9.448876	-0.015964	0.022724	-0.00924	-0.524414	0.043213	-0.485107
256.0	4.376037	1.066559	9.405267	-0.013079	0.021933	-0.012716	-0.52002	0.038818	-0.487305
257.0	4.409378	1.061045	9.478975	-0.015089	0.023797	-0.012856	-0.524658	0.04541	-0.491943
258.0	4.372454	1.050681	9.439016	-0.015281	0.021876	-0.012482	-0.526855	0.04541	-0.494141
259.0	4.351484	1.07847	9.434773	-0.013931	0.025465	-0.014389	-0.529053	0.047607	-0.489746
260.0	4.35011	1.063602	9.467362	-0.013636	0.020763	-0.016882	-0.528564	0.036621	-0.489502
261.0	4.403772	1.094593	9.443146	-0.01288	0.023876	-0.01309	-0.53125	0.049805	-0.498779
262.0	4.367758	1.070217	9.434605	-0.012879	0.02388	-0.013091	-0.517822	0.041016	-0.494141
263.0	4.389724	1.049128	9.463535	-0.010185	0.021166	-0.016191	-0.526855	0.047607	-0.489746
264.0	4.373437	1.099382	9.450215	-0.015167	0.025157	-0.015315	-0.526855	0.04541	-0.491943
265.0	4.361633	1.054283	9.469493	-0.014397	0.022972	-0.0161	-0.529053	0.04541	-0.491943
266.0	4.381602	1.061459	9.435651	-0.013838	0.024158	-0.011934	-0.526611	0.043213	-0.491943
267.0	4.355939	1.066998	9.440433	-0.016598	0.022916	-0.015869	-0.522217	0.043213	-0.498779
268.0	4.376689	1.0598	9.438117	-0.01469	0.027692	-0.013606	-0.524658	0.04541	-0.489502
269.0	4.351666	1.051207	9.47442	-0.012956	0.025244	-0.015548	-0.528809	0.043213	-0.494141
270.0	4.352938	1.087099	9.435197	-0.01287	0.02391	-0.013092	-0.526611	0.043213	-0.494141
271.0	4.370013	1.043545	9.47327	-0.015157	0.025188	-0.015318	-0.522461	0.047607	-0.494141
272.0	4.361973	1.03496	9.452065	-0.013144	0.023328	-0.015176	-0.522461	0.047607	-0.489746
273.0	4.397733	1.080311	9.454131	-0.013914	0.025523	-0.014392	-0.531006	0.043213	-0.491943
274.0	4.367116	1.063696	9.467991	-0.016199	0.026802	-0.016618	-0.526855	0.049805	-0.489746
275.0	4.382062	1.048739	9.443394	-0.01504	0.028474	-0.018147	-0.528809	0.041016	-0.496338
276.0	4.356728	1.039953	9.479782	-0.016691	0.029592	-0.01375	-0.528809	0.043213	-0.491943
277.0	4.377262	1.032576	9.477636	-0.016801	0.026327	-0.010923	-0.526611	0.043213	-0.491943
278.0	4.345661	1.030132	9.460103	-0.015033	0.028491	-0.018148	-0.526855	0.04541	-0.489502
279.0	4.357714	1.081786	9.46596	-0.01495	0.027155	-0.015693	-0.526855	0.047607	-0.498779
280.0	4.345742	1.036768	9.485172	-0.011973	0.025033	-0.016706	-0.522217	0.043213	-0.491943
281.0	4.35356	1.066438	9.499777	-0.012357	0.021177	-0.015964	-0.522217	0.041016	-0.498535
282.0	4.387086	1.037777	9.448867	-0.008141	0.01938	-0.016048	-0.524658	0.04541	-0.496338
283.0	4.361878	1.043919	9.453268	-0.01081	0.0168	-0.017535	-0.526855	0.04541	-0.496338
284.0	4.337406	1.035761	9.489096	-0.006708	0.021644	-0.01549	-0.52002	0.043213	-0.489502
285.0	4.362428	1.066068	9.446221	-0.0069	0.019715	-0.01512	-0.531006	0.043213	-0.494141
286.0	4.366068	1.073782	9.469539	-0.009216	0.016376	-0.012068	-0.528809	0.041016	-0.498535
287.0	4.354258	1.04357	9.456819	-0.00508	0.015924	-0.014605	-0.524658	0.04541	-0.494141
288.0	4.362811	1.073685	9.471051	-0.007204	0.014514	-0.011924	-0.528809	0.043213	-0.485107
289.0	4.355766	1.065654	9.449341	-0.00852	0.015535	-0.015309	-0.524658	0.04541	-0.496338
290.0	4.355109	1.051165	9.481427	-0.006158	0.012912	-0.010624	-0.522461	0.04541	-0.489502
291.0	4.358319	1.07323	9.47317	-0.006931	0.015105	-0.009839	-0.524658	0.047607	-0.491943
292.0	4.352294	1.050984	9.48274	-0.006003	0.010897	-0.018035	-0.522217	0.043213	-0.494141
293.0	4.350121	1.065157	9.451997	-0.01161	0.014389	-0.011474	-0.528809	0.041016	-0.498535
294.0	4.326237	1.056609	9.487531	-0.010138	0.011354	-0.0155	-0.528809	0.043213	-0.491943
295.0	4.34276	1.042317	9.462242	-0.006234	0.014267	-0.013079	-0.528809	0.041016	-0.494141
296.0	4.346649	1.050109	9.485425	-0.008516	0.015549	-0.01531	-0.526855	0.04541	-0.496338
297.0	4.344128	1.064393	9.454839	-0.008593	0.0169	-0.017765	-0.524414	0.043213	-0.498779
298.0	4.371195	1.065855	9.474645	-0.009481	0.015813	-0.014155	-0.522705	0.049805	-0.489746
299.0	4.330616	1.033916	9.442915	-0.008321	0.01749	-0.015679	-0.526611	0.043213	-0.494141
300.0	4.362305	1.057745	9.453804	-0.007545	0.0153	-0.016465	-0.524658	0.04541	-0.494141
301.0	4.356153	1.035478	9.46342	-0.007736	0.013369	-0.016096	-0.522461	0.04541	-0.491943
302.0	4.335826	1.063892	9.458706	-0.009824	0.016587	-0.018696	-0.531006	0.043213	-0.489502
303.0	4.363093	1.065219	9.47845	-0.012334	0.011304	-0.01528	-0.526855	0.04541	-0.485107
304.0	4.351644	1.034628	9.465587	-0.01195	0.015174	-0.016018	-0.524414	0.043213	-0.491943
305.0	4.353879	1.070817	9.426102	-0.013185	0.014851	-0.01695	-0.524414	0.041016	-0.494141
306.0	4.358568	1.063789	9.480693	-0.01214	0.013245	-0.01565	-0.526855	0.04541	-0.485107
307.0	4.333588	1.069602	9.484919	-0.010521	0.017443	-0.015456	-0.524658	0.04541	-0.494141
308.0	4.349962	1.054954	9.459802	-0.016812	0.01253	-0.017291	-0.524414	0.043213	-0.494141
309.0	4.320213	1.03816	9.473015	-0.01331	0.021508	-0.014815	-0.524414	0.043213	-0.489502
310.0	4.346178	1.053578	9.461694	-0.01369	0.01764	-0.014079	-0.522461	0.047607	-0.491943
311.0	4.338898	1.045134	9.44015	-0.01253	0.019322	-0.015601	-0.52002	0.043213	-0.494141
312.0	4.352244	1.082345	9.477253	-0.01667	0.01977	-0.013072	-0.524414	0.043213	-0.494141
313.0	4.316789	1.057275	9.46815	-0.018416	0.022223	-0.011132	-0.522461	0.047607	-0.489746
314.0	4.366572	1.051502	9.485012	-0.018224	0.024163	-0.011499	-0.524658	0.04541	-0.494141
315.0	4.340144	1.070737	9.458284	-0.021851	0.021837	-0.011844	-0.518066	0.04541	-0.489502
316.0	4.366371	1.070496	9.478736	-0.027358	0.028609	-0.00811	-0.522217	0.041016	-0.494141
317.0	4.339158	1.08902	9.452457	-0.024315	0.035076	-0.007345	-0.522461	0.04541	-0.494141
318.0	4.331034	1.064234	9.463193	-0.032142	0.03849	-0.000571	-0.520264	0.04541	-0.494141
319.0	4.345765	1.047211	9.43916	-0.034473	0.031203	-0.004581	-0.522461	0.047607	-0.494141
320.0	4.343369	1.029828	9.472239	-0.030842	0.033541	-0.004233	-0.52002	0.043213	-0.491943
321.0	4.340169	1.027014	9.474011	-0.033306	0.032903	-0.006102	-0.522461	0.047607	-0.491943
322.0	4.332472	1.001985	9.484518	-0.030321	0.030785	-0.007108	-0.524658	0.047607	-0.491943
323.0	4.334312	1.021573	9.47728	-0.0344	0.025946	-0.009183	-0.526855	0.047607	-0.494141
324.0	4.332295	1.004349	9.510112	-0.029275	0.029184	-0.005809	-0.529053	0.04541	-0.498779
325.0	4.30104	1.000625	9.492334	-0.024094	0.0232	-0.014084	-0.524658	0.049805	-0.500977
326.0	4.332155	1.022839	9.503909	-0.024475	0.019327	-0.013356	-0.518311	0.052002	-0.496582
327.0	4.320233	0.991423	9.491208	-0.018196	0.020317	-0.018547	-0.522461	0.047607	-0.496582
328.0	4.322717	1.012854	9.483509	-0.016963	0.020644	-0.017611	-0.524658	0.04541	-0.487305
329.0	4.320681	1.012061	9.484522	-0.016182	0.018453	-0.018401	-0.529053	0.047607	-0.494141
330.0	4.318817	1.01138	9.485443	-0.013908	0.01716	-0.016165	-0.526855	0.047607	-0.487305
331.0	4.311809	1.003002	9.463764	-0.015399	0.016265	-0.01919	-0.529053	0.04541	-0.491943
332.0	4.319997	1.03247	9.47839	-0.014357	0.014649	-0.017891	-0.522217	0.043213	-0.496338
333.0	4.336287	1.018143	9.453414	-0.011321	0.021119	-0.017107	-0.522461	0.047607	-0.494141
334.0	4.316327	1.031388	9.480179	-0.016489	0.013222	-0.015225	-0.522461	0.047607	-0.491943
335.0	4.314542	1.03073	9.481063	-0.01255	0.020805	-0.018043	-0.520264	0.04541	-0.491943
336.0	4.32618	0.994066	9.464856	-0.014161	0.016604	-0.018255	-0.520264	0.04541	-0.491943
337.0	4.338884	1.045987	9.470793	-0.01189	0.015308	-0.016019	-0.522461	0.047607	-0.496582
338.0	4.318879	1.059423	9.497538	-0.011508	0.019195	-0.016744	-0.526855	0.04541	-0.496338
339.0	4.348609	1.111676	9.446641	-0.020135	0.024786	-0.009192	-0.524658	0.047607	-0.491943
340.0	4.359789	1.279398	9.413104	-0.034597	0.031899	0.005268	-0.526611	0.043213	-0.491943
341.0	4.351505	1.354629	9.415434	-0.069949	0.053924	0.02675	-0.522461	0.04541	-0.494141
342.0	4.323932	1.130344	9.47096	-0.095586	0.048834	0.043283	-0.522461	0.047607	-0.489746
343.0	4.305709	1.051771	9.500258	-0.104194	0.054492	0.050829	-0.518311	0.052002	-0.489746
344.0	4.324719	1.033163	9.500347	-0.109612	0.050002	0.057656	-0.520508	0.049805	-0.498779
345.0	4.306789	0.952995	9.529344	-0.112176	0.046125	0.058577	-0.520752	0.056396	-0.489746
346.0	4.307483	0.859304	9.532028	-0.105414	0.03972	0.05577	-0.5271	0.052002	-0.491943
347.0	4.284784	0.788177	9.506225	-0.086538	0.032746	0.040891	-0.520752	0.056396	-0.501221
348.0	4.277477	0.75675	9.516672	-0.07285	0.027829	0.02723	-0.520508	0.054199	-0.498779
349.0	4.275288	0.749655	9.518216	-0.056905	0.021577	0.015805	-0.520752	0.056396	-0.492188
350.0	4.288621	0.781772	9.556181	-0.042594	0.015015	0.01122	-0.520508	0.052002	-0.496582
351.0	4.286331	0.807897	9.494836	-0.03053	0.015844	-0.00329	-0.520508	0.049805	-0.498779
352.0	4.29525	0.820467	9.540966	-0.024574	0.011558	-0.005302	-0.520508	0.052002	-0.494385
353.0	4.283724	0.804068	9.496337	-0.0142	0.013464	-0.015416	-0.522705	0.054199	-0.494385
354.0	4.254944	0.772725	9.53971	-0.005521	0.006462	-0.020527	-0.520752	0.056396	-0.492188
355.0	4.296316	0.857122	9.502859	0.002712	0.006936	-0.027988	-0.526855	0.049805	-0.505615
356.0	4.263191	0.805461	9.554364	0.009329	0.00321	-0.035686	-0.520508	0.052002	-0.494385
357.0	4.295356	0.847121	9.534182	0.020333	0.003502	-0.036726	-0.520508	0.052002	-0.494385
358.0	4.304654	0.880783	9.548246	0.021326	-0.000644	-0.044951	-0.522705	0.054199	-0.496582
359.0	4.299379	0.877388	9.525283	0.025596	-0.003843	-0.04257	-0.518311	0.054199	-0.501221
360.0	4.322651	0.875984	9.521668	0.030601	-0.001772	-0.051119	-0.522949	0.056396	-0.494385
361.0	4.293946	0.879925	9.501846	0.035788	-0.003836	-0.052333	-0.518555	0.056396	-0.494385
362.0	4.303148	0.930818	9.484286	0.041637	-0.005332	-0.059234	-0.518311	0.049805	-0.498779
363.0	4.284933	0.95116	9.509461	0.046889	-0.008765	-0.058002	-0.520508	0.052002	-0.496582
364.0	4.313365	0.974443	9.496811	0.045225	-0.011569	-0.060682	-0.518311	0.054199	-0.489746
365.0	4.290309	0.987341	9.499176	0.045929	-0.008466	-0.056856	-0.518311	0.052002	-0.496582
366.0	4.322985	1.032812	9.478091	0.04141	-0.005813	-0.061334	-0.526855	0.047607	-0.498779
367.0	4.318368	1.016655	9.485995	0.039058	-0.005289	-0.051255	-0.516357	0.054199	-0.494385
368.0	4.32776	1.052171	9.499573	0.032366	-0.000198	-0.046009	-0.522705	0.049805	-0.494141
369.0	4.298666	1.055287	9.479915	0.027432	0.002441	-0.042707	-0.526855	0.049805	-0.494141
370.0	4.312362	1.008686	9.493691	0.023283	0.00288	-0.040199	-0.526855	0.04541	-0.494141
371.0	4.311764	1.012471	9.493559	0.021146	0.001438	-0.037542	-0.522705	0.049805	-0.489746
372.0	4.311229	1.015884	9.493438	0.018222	0.00219	-0.034092	-0.520264	0.04541	-0.498779
373.0	4.328952	1.005557	9.467538	0.020864	0.004781	-0.032568	-0.526855	0.047607	-0.491943
374.0	4.305206	1.000351	9.501992	0.022755	0.005674	-0.037317	-0.520264	0.04541	-0.491943
375.0	4.309154	1.026204	9.49327	0.017855	-0.001687	-0.033378	-0.520264	0.047607	-0.491943
376.0	4.313355	1.051684	9.484457	0.017067	0.000514	-0.032586	-0.518066	0.04541	-0.494141
377.0	4.364926	1.050394	9.50049	0.015117	0.001013	-0.030287	-0.5271	0.052002	-0.496582
378.0	4.307974	1.034632	9.49289	0.009924	0.003065	-0.029078	-0.517822	0.043213	-0.491943
379.0	4.335171	1.05323	9.481156	0.010859	0.006715	-0.023164	-0.522705	0.049805	-0.494141
380.0	4.325399	1.010165	9.498588	0.004004	0.005929	-0.024628	-0.522461	0.04541	-0.496338
381.0	4.31923	1.018643	9.444835	0.005899	0.000728	-0.02167	-0.524414	0.043213	-0.491943
382.0	4.305271	1.041161	9.493403	-0.000151	0.00635	-0.02212	-0.520264	0.04541	-0.496338
383.0	4.318434	1.006457	9.476429	0.006208	0.006012	-0.024837	-0.529053	0.04541	-0.494141
384.0	4.29858	1.036233	9.471237	0.00303	0.006185	-0.023479	-0.52002	0.043213	-0.491943
385.0	4.344697	1.02569	9.46506	0.002054	0.006432	-0.02233	-0.520264	0.047607	-0.494141
386.0	4.349353	1.019774	9.519231	0.00151	0.009193	-0.019448	-0.522217	0.041016	-0.494141
387.0	4.319404	1.0337	9.468868	0.001871	0.004488	-0.021971	-0.522705	0.054199	-0.496582
388.0	4.323484	1.042586	9.491781	0.002424	0.010337	-0.023048	-0.526611	0.041016	-0.491699
389.0	4.341207	1.01527	9.497704	-0.0013	0.013265	-0.018808	-0.522217	0.043213	-0.494141
390.0	4.339456	1.030863	9.466902	0.002306	0.007008	-0.020239	-0.522461	0.04541	-0.489502
391.0	4.315595	1.023134	9.501659	0.00249	0.00896	-0.020598	-0.522461	0.047607	-0.494141
392.0	4.33303	1.010656	9.476207	0.001266	0.008641	-0.02154	-0.522461	0.047607	-0.496582
393.0	4.308495	1.017592	9.479763	0.002492	0.008964	-0.020598	-0.520264	0.047607	-0.494141
394.0	4.339733	1.057772	9.45968	0.00347	0.008723	-0.021748	-0.526855	0.04541	-0.496338
395.0	4.329792	1.013944	9.477335	-0.001729	0.010762	-0.020542	-0.520264	0.047607	-0.487305
396.0	4.333052	1.037068	9.469157	-0.001911	0.008814	-0.020184	-0.52002	0.043213	-0.487305
397.0	4.308399	1.04368	9.472786	0.000721	0.011409	-0.018659	-0.520264	0.04541	-0.489502
398.0	4.330651	1.038797	9.470066	0.00023	0.010283	-0.022842	-0.524658	0.047607	-0.503418
399.0	4.325029	1.017214	9.479159	-0.001481	0.011334	-0.018452	-0.526855	0.047607	-0.494141
400.0	4.308934	1.068538	9.465647	-0.001298	0.013287	-0.018811	-0.518066	0.047607	-0.485107
401.0	4.331163	1.063205	9.462998	-0.004843	0.00955	-0.016737	-0.518066	0.04541	-0.498779
402.0	4.326206	1.026442	9.503346	-0.003681	0.01126	-0.018245	-0.520264	0.04541	-0.485107
403.0	4.324404	1.041609	9.472612	-0.005393	0.009814	-0.023371	-0.524658	0.049805	-0.491943
404.0	4.346599	1.036301	9.469988	-0.003498	0.013216	-0.018604	-0.522461	0.04541	-0.491943
405.0	4.317379	1.020127	9.482333	-0.00368	0.011267	-0.018246	-0.524658	0.04541	-0.498779
406.0	4.324944	1.065292	9.465607	-0.006063	0.009237	-0.017681	-0.52002	0.043213	-0.491943
407.0	4.324352	1.051051	9.497327	-0.000253	0.011673	-0.01751	-0.524414	0.043213	-0.494141
408.0	4.322506	1.066194	9.466619	-0.007103	0.01087	-0.018983	-0.522217	0.043213	-0.489502
409.0	4.368775	1.040148	9.492128	-0.005698	0.013145	-0.018399	-0.522461	0.04541	-0.491943
410.0	4.310541	1.03641	9.453778	-0.006859	0.011436	-0.016892	-0.526611	0.041016	-0.491699
411.0	4.33705	1.053175	9.442631	-0.006677	0.01339	-0.01725	-0.520264	0.047607	-0.491943
412.0	4.336281	1.038636	9.474461	-0.005877	0.0112	-0.018041	-0.517822	0.041016	-0.494141
413.0	4.334927	1.038735	9.47507	-0.007656	0.013634	-0.016102	-0.522217	0.041016	-0.494141
414.0	4.357562	1.018242	9.503826	-0.007655	0.013636	-0.016102	-0.526611	0.041016	-0.489502
415.0	4.312834	1.067006	9.470938	-0.005694	0.013159	-0.018399	-0.515869	0.04541	-0.494141
416.0	4.358334	1.055722	9.465343	-0.006493	0.015354	-0.017609	-0.522461	0.047607	-0.491943
417.0	4.309749	1.067225	9.472318	-0.008875	0.013321	-0.017047	-0.522217	0.038818	-0.491699
418.0	4.331923	1.061369	9.469813	-0.009055	0.01137	-0.016689	-0.520264	0.04541	-0.489502
419.0	4.354778	1.040813	9.498485	-0.009295	0.010811	-0.018781	-0.522461	0.047607	-0.496582
420.0	4.325115	1.03876	9.47955	-0.007832	0.011696	-0.015745	-0.522461	0.04541	-0.491943
421.0	4.328077	1.061304	9.471579	-0.00569	0.013174	-0.018399	-0.526855	0.04541	-0.496338
422.0	4.341712	1.010776	9.486178	-0.008011	0.009745	-0.015388	-0.522217	0.043213	-0.496338
423.0	4.349277	1.055686	9.469513	-0.007269	0.008949	-0.018628	-0.520264	0.047607	-0.496582
424.0	4.320298	1.039081	9.481711	-0.007089	0.010905	-0.018986	-0.524414	0.043213	-0.494141
425.0	4.346894	1.056016	9.47057	-0.005867	0.011229	-0.018042	-0.526855	0.04541	-0.494141
426.0	4.322106	1.061942	9.474234	-0.005867	0.011231	-0.018042	-0.520264	0.04541	-0.489502
427.0	4.320835	1.062132	9.474793	-0.005627	0.011792	-0.01595	-0.524658	0.047607	-0.491943
428.0	4.319683	1.062122	9.475319	-0.010688	0.008553	-0.019371	-0.524414	0.043213	-0.491943
429.0	4.332344	1.041084	9.427436	-0.003185	0.012439	-0.014061	-0.52002	0.038818	-0.491699
430.0	4.340585	1.056476	9.473412	-0.012113	0.014896	-0.018148	-0.526855	0.04541	-0.491943
431.0	4.330002	1.026139	9.459999	-0.006606	0.012037	-0.014802	-0.52002	0.041016	-0.491699
432.0	4.337749	1.056228	9.474738	-0.008629	0.013909	-0.014956	-0.520264	0.04541	-0.494141
433.0	4.30855	1.039213	9.487041	-0.010028	0.011635	-0.015545	-0.522217	0.043213	-0.494141
434.0	4.330179	1.047972	9.453395	-0.01083	0.013829	-0.014754	-0.52002	0.041016	-0.489502
435.0	4.329171	1.032839	9.485355	-0.010651	0.015787	-0.015111	-0.522705	0.049805	-0.494141
436.0	4.327696	1.032487	9.486066	-0.009788	0.012199	-0.013453	-0.518066	0.047607	-0.496582
437.0	4.321407	1.02451	9.464105	-0.009667	0.015555	-0.016259	-0.522461	0.047607	-0.491943
438.0	4.343408	1.01874	9.461741	-0.007643	0.013687	-0.016104	-0.524414	0.043213	-0.494141
439.0	4.34624	1.041113	9.453876	-0.010081	0.013047	-0.017996	-0.531006	0.041016	-0.496338
440.0	4.325951	1.054296	9.480346	-0.008446	0.015883	-0.015313	-0.524414	0.043213	-0.494141
441.0	4.320134	1.031773	9.48959	-0.007877	0.013138	-0.018198	-0.520508	0.049805	-0.491943
442.0	4.346517	1.048654	9.478638	-0.007876	0.01314	-0.018198	-0.518066	0.047607	-0.496582
443.0	4.317333	1.031837	9.490858	-0.006599	0.012062	-0.014803	-0.526855	0.04541	-0.500977
444.0	4.32455	1.076626	9.474418	-0.009783	0.012213	-0.013455	-0.522461	0.04541	-0.500977
445.0	4.338033	1.026035	9.489113	-0.005317	0.017148	-0.01911	-0.524658	0.04541	-0.496338
446.0	4.336578	1.026151	9.489765	-0.007993	0.009789	-0.015394	-0.522217	0.041016	-0.494141
447.0	4.334776	1.040887	9.459163	-0.007637	0.013706	-0.016105	-0.526855	0.04541	-0.496338
448.0	4.342345	1.071067	9.473987	-0.007872	0.013153	-0.018199	-0.522461	0.04541	-0.496338
449.0	4.308313	1.046511	9.463542	-0.007636	0.013711	-0.016106	-0.520508	0.049805	-0.489746
450.0	4.311699	1.054079	9.48686	-0.008797	0.011989	-0.014604	-0.524414	0.041016	-0.491699
451.0	4.329027	1.040627	9.461824	-0.008442	0.015907	-0.015314	-0.524658	0.04541	-0.491943
452.0	4.332152	1.048313	9.48525	-0.007925	0.014567	-0.020648	-0.524414	0.043213	-0.489502
453.0	4.330281	1.063005	9.454696	-0.009956	0.010269	-0.013103	-0.522217	0.043213	-0.496338
454.0	4.329337	1.047951	9.486575	-0.009715	0.016998	-0.01871	-0.522461	0.047607	-0.491943
455.0	4.322962	1.040095	9.464655	-0.009834	0.013637	-0.015907	-0.522217	0.043213	-0.496338
456.0	4.321595	1.039765	9.465315	-0.010995	0.011913	-0.014406	-0.529053	0.04541	-0.491943
457.0	4.315496	1.031759	9.443288	-0.009833	0.013641	-0.015907	-0.526855	0.04541	-0.500977
458.0	4.323499	1.046863	9.489357	-0.009832	0.013644	-0.015907	-0.52002	0.041016	-0.494141
459.0	4.327356	1.039374	9.543886	-0.010993	0.011919	-0.014407	-0.526855	0.047607	-0.489746
460.0	4.320233	1.061103	9.459506	-0.007397	0.014289	-0.014012	-0.520264	0.04541	-0.491943
461.0	4.338113	1.032624	9.465688	-0.014002	0.014026	-0.013418	-0.522461	0.047607	-0.500977
462.0	4.318374	1.030497	9.523257	-0.010005	0.011693	-0.015554	-0.524658	0.047607	-0.494141
463.0	4.320705	1.067544	9.484273	-0.009597	0.014207	-0.013814	-0.524414	0.043213	-0.489502
464.0	4.338589	1.03907	9.490455	-0.011798	0.014121	-0.013616	-0.522461	0.047607	-0.491943
465.0	4.336621	1.05346	9.460013	-0.010812	0.013891	-0.014762	-0.522461	0.04541	-0.491943
466.0	4.330936	1.030604	9.469194	-0.009595	0.014214	-0.013814	-0.52002	0.043213	-0.491943
467.0	4.329568	1.030275	9.469856	-0.011217	0.011384	-0.016503	-0.520264	0.047607	-0.496582
468.0	4.309192	1.043005	9.496287	-0.01139	0.016641	-0.011876	-0.526611	0.043213	-0.489502
469.0	4.331272	1.037128	9.494009	-0.007567	0.012348	-0.013658	-0.529053	0.04541	-0.494141
470.0	4.35347	1.031527	9.491655	-0.007621	0.01376	-0.016106	-0.522217	0.043213	-0.496338
471.0	4.300349	1.034606	9.475552	-0.013591	0.009342	-0.015955	-0.526611	0.043213	-0.498779
472.0	4.322687	1.028666	9.473173	-0.009822	0.013676	-0.015909	-0.526611	0.043213	-0.491943
473.0	4.330159	1.05847	9.48811	-0.010753	0.012497	-0.012316	-0.520508	0.049805	-0.491943
474.0	4.315645	1.005393	9.482999	-0.010861	0.015323	-0.017211	-0.524658	0.047607	-0.494141
475.0	4.313516	1.019916	9.452638	-0.010402	0.016425	-0.013022	-0.520264	0.047607	-0.494141
476.0	4.340307	1.021746	9.47307	-0.010222	0.011174	-0.017652	-0.518066	0.04541	-0.487305
477.0	4.319704	1.049338	9.468207	-0.011913	0.010772	-0.010819	-0.522461	0.04541	-0.498779
478.0	4.314351	1.026411	9.477217	-0.010449	0.010629	-0.019747	-0.522461	0.04541	-0.491943
479.0	4.336989	1.005856	9.506057	-0.009643	0.015655	-0.016262	-0.52002	0.041016	-0.489502
480.0	4.330427	1.012871	9.452884	-0.009991	0.011732	-0.015557	-0.522217	0.038818	-0.498535
481.0	4.338426	1.02787	9.498937	-0.009991	0.011734	-0.015558	-0.520264	0.04541	-0.491943
482.0	4.332443	1.020013	9.476856	-0.010043	0.013151	-0.018005	-0.52002	0.043213	-0.489502
483.0	4.31664	1.040542	9.525955	-0.009815	0.013701	-0.01591	-0.522461	0.04541	-0.491943
484.0	4.329059	1.034546	9.447094	-0.007386	0.014341	-0.014009	-0.526855	0.04541	-0.489502
485.0	4.332566	1.026899	9.501716	-0.014042	0.015488	-0.015873	-0.520264	0.04541	-0.494141
486.0	4.311106	1.069117	9.465916	-0.013989	0.014075	-0.013427	-0.522461	0.04541	-0.496338
487.0	4.320316	1.010315	9.457782	-0.011787	0.014167	-0.013621	-0.526611	0.043213	-0.498779
488.0	4.327512	1.039933	9.472886	-0.012826	0.015815	-0.014923	-0.522217	0.041016	-0.489502
489.0	4.325953	1.039348	9.473663	-0.012999	0.013854	-0.014572	-0.52002	0.043213	-0.491943
490.0	4.31989	1.031058	9.451671	-0.013986	0.014084	-0.013428	-0.522461	0.04541	-0.491943
491.0	4.322835	1.037997	9.475234	-0.013863	0.017469	-0.016226	-0.526855	0.04541	-0.496338
492.0	4.349184	1.03949	9.495952	-0.013412	0.018564	-0.012034	-0.524658	0.04541	-0.494141
493.0	4.319233	1.036401	9.477051	-0.018437	0.015329	-0.015489	-0.524658	0.049805	-0.494141
494.0	4.364752	1.024444	9.472086	-0.018038	0.017843	-0.013744	-0.522461	0.04541	-0.496338
495.0	4.320145	1.041734	9.501711	-0.018852	0.020039	-0.012951	-0.52002	0.043213	-0.489502
496.0	4.318106	1.040502	9.502772	-0.018851	0.020043	-0.012951	-0.522217	0.043213	-0.496338
497.0	4.335238	1.026203	9.478117	-0.020235	0.017763	-0.013553	-0.522217	0.043213	-0.494141
498.0	4.313917	1.053068	9.473641	-0.015832	0.017949	-0.013937	-0.522217	0.043213	-0.491943
499.0	4.308054	1.029406	9.4829	-0.02063	0.01526	-0.015301	-0.524658	0.04541	-0.496338
500.0	4.334082	1.045324	9.472561	-0.017808	0.018409	-0.01165	-0.526611	0.043213	-0.496338
501.0	4.347574	0.993347	9.487345	-0.021986	0.018774	-0.009171	-0.520508	0.049805	-0.494141
502.0	4.307146	1.032822	9.508582	-0.020452	0.017239	-0.015652	-0.524658	0.047607	-0.498779
503.0	4.31576	0.988548	9.469434	-0.016816	0.018194	-0.012793	-0.522461	0.047607	-0.496582
504.0	4.318529	0.99506	9.49311	-0.016988	0.01623	-0.012445	-0.517822	0.043213	-0.498779
505.0	4.321012	1.016669	9.485638	-0.01622	0.015465	-0.015685	-0.522217	0.043213	-0.496338
506.0	4.362138	0.997583	9.457898	-0.014018	0.015559	-0.015876	-0.529053	0.047607	-0.494141
507.0	4.332953	0.979753	9.46983	-0.014584	0.011085	-0.017276	-0.526855	0.047607	-0.496582
508.0	4.312501	0.992179	9.496151	-0.01221	0.013146	-0.017815	-0.522217	0.043213	-0.489502
509.0	4.295835	1.042121	9.483063	-0.014313	0.010204	-0.012735	-0.526855	0.04541	-0.496338
510.0	4.309712	1.005922	9.466299	-0.014802	0.010551	-0.019374	-0.520264	0.047607	-0.491943
511.0	4.308383	1.005518	9.466947	-0.009787	0.013787	-0.015907	-0.522461	0.047607	-0.496582
512.0	4.311112	1.027708	9.45932	-0.011938	0.01227	-0.013273	-0.524414	0.043213	-0.498779
513.0	4.313449	1.064624	9.420665	-0.014956	0.014373	-0.012288	-0.524658	0.04541	-0.494141
514.0	4.316134	1.070908	9.444413	-0.020381	0.021628	-0.006472	-0.518311	0.049805	-0.496582
515.0	4.335076	1.151657	9.466443	-0.026968	0.027141	0.000835	-0.524414	0.043213	-0.489502
516.0	4.323514	1.118285	9.453686	-0.036182	0.037268	0.010876	-0.522705	0.049805	-0.498779
517.0	4.300806	1.126497	9.481502	-0.048331	0.040865	0.020047	-0.520264	0.047607	-0.489746
518.0	4.32936	1.145016	9.495604	-0.06065	0.042503	0.02956	-0.524414	0.043213	-0.489502
519.0	4.32927	1.174981	9.459054	-0.071412	0.048409	0.039336	-0.518311	0.052002	-0.491943
520.0	4.350781	1.270343	9.474905	-0.09519	0.048078	0.059997	-0.526855	0.049805	-0.496582
521.0	4.31333	1.091569	9.512851	-0.118275	0.04989	0.072526	-0.520508	0.054199	-0.496582
522.0	4.295091	0.898319	9.524766	-0.123172	0.043901	0.073916	-0.520508	0.049805	-0.496582
523.0	4.29416	0.780917	9.534403	-0.110184	0.03817	0.063949	-0.522461	0.047607	-0.491943
524.0	4.2913	0.768711	9.536683	-0.09566	0.030883	0.047501	-0.518311	0.052002	-0.501221
525.0	4.260882	0.756375	9.51854	-0.083462	0.02586	0.040777	-0.518311	0.052002	-0.496582
526.0	4.291146	0.772316	9.532115	-0.064714	0.022492	0.031067	-0.520508	0.052002	-0.489746
527.0	4.304378	0.730263	9.515787	-0.053001	0.017802	0.017707	-0.520508	0.052002	-0.501221
528.0	4.255593	0.736138	9.522492	-0.040677	0.016143	0.008211	-0.520508	0.054199	-0.491943
529.0	4.286287	0.757264	9.535508	-0.028215	0.01789	-0.004057	-0.525146	0.058594	-0.499023
530.0	4.288885	0.778196	9.52837	-0.017318	0.015385	-0.01661	-0.522705	0.054199	-0.496582
531.0	4.276478	0.83567	9.538833	-0.010761	0.017059	-0.019593	-0.518555	0.056396	-0.492188
532.0	4.298334	0.845819	9.505844	-0.006202	0.013418	-0.027063	-0.522949	0.056396	-0.501221
533.0	4.292843	0.823753	9.514366	-0.004321	0.00811	-0.024136	-0.522705	0.054199	-0.496582
534.0	4.300297	0.839561	9.560625	0.004321	0.014191	-0.034608	-0.518311	0.052002	-0.496582
535.0	4.290116	0.826985	9.515315	0.004742	0.009491	-0.037178	-0.522949	0.058594	-0.494385
536.0	4.293278	0.836851	9.538524	0.014313	0.009054	-0.041144	-0.522705	0.052002	-0.496582
537.0	4.292048	0.855818	9.507789	0.021294	0.006037	-0.046694	-0.520752	0.056396	-0.489746
538.0	4.295297	0.883019	9.499787	0.029661	0.005307	-0.05162	-0.522705	0.049805	-0.496582
539.0	4.294191	0.903563	9.468816	0.03165	0.004872	-0.053902	-0.520752	0.056396	-0.501221
540.0	4.27841	0.944238	9.486232	0.032119	-0.001259	-0.054033	-0.515869	0.047607	-0.496582
541.0	4.301541	0.944414	9.483137	0.037124	0.00196	-0.050533	-0.518311	0.049805	-0.494141
542.0	4.305237	0.957369	9.505746	0.034717	0.001362	-0.052453	-0.522705	0.049805	-0.491943
543.0	4.284989	0.99086	9.500237	0.033903	0.003577	-0.051652	-0.520508	0.052002	-0.496582
544.0	4.311924	1.013183	9.489266	0.026745	0.004621	-0.045768	-0.520508	0.052002	-0.491943
545.0	4.315439	1.024787	9.512053	0.02239	0.003017	-0.042968	-0.518311	0.052002	-0.496582
546.0	4.274022	0.973763	9.485226	0.019799	0.006199	-0.037786	-0.522949	0.058594	-0.489746
547.0	4.309183	1.024369	9.48931	0.014795	0.00876	-0.034523	-0.524658	0.047607	-0.494141
548.0	4.303875	1.004559	9.497633	0.015009	0.009297	-0.032423	-0.522705	0.049805	-0.496582
549.0	4.29865	0.984194	9.505987	0.006466	0.008035	-0.02716	-0.524658	0.049805	-0.491943
550.0	4.312714	0.950835	9.488795	0.008798	0.011548	-0.030121	-0.522705	0.052002	-0.496582
551.0	4.296133	0.988013	9.506729	0.004441	0.009929	-0.02732	-0.516113	0.049805	-0.496582
552.0	4.298884	1.012115	9.499091	0.002837	0.01288	-0.023279	-0.524658	0.047607	-0.498779
553.0	4.297013	1.028552	9.468758	0.001192	0.017276	-0.021678	-0.526855	0.049805	-0.496582
554.0	4.295538	0.998715	9.531459	-0.002573	0.01869	-0.015017	-0.518311	0.049805	-0.491943
555.0	4.312927	0.986285	9.506734	-0.006799	0.020489	-0.014997	-0.518311	0.052002	-0.489746
556.0	4.323124	1.03882	9.514467	-0.008196	0.023969	-0.008856	-0.518311	0.052002	-0.494385
557.0	4.284553	1.005616	9.480669	-0.019152	0.022073	-0.005519	-0.518311	0.052002	-0.496582
558.0	4.306354	0.983318	9.510021	-0.021102	0.021068	-0.0008	-0.518311	0.054199	-0.496582
559.0	4.299976	0.958714	9.519332	-0.020587	0.027005	-0.001818	-0.524902	0.052002	-0.498779
560.0	4.277953	0.984496	9.515289	-0.023914	0.023714	0.002279	-0.518311	0.054199	-0.494385
561.0	4.299171	0.99215	9.48292	-0.026149	0.025078	1.7e-05	-0.520508	0.049805	-0.496582
562.0	4.268913	0.972159	9.495069	-0.02697	0.027282	0.000818	-0.516357	0.054199	-0.494385
563.0	4.30558	0.929143	9.476147	-0.025113	0.02342	0.001316	-0.522705	0.049805	-0.496582
564.0	4.299226	0.88882	9.516434	-0.022569	0.027472	0.000463	-0.515869	0.047607	-0.505615
565.0	4.277251	0.914644	9.512364	-0.023535	0.021934	-0.005166	-0.518311	0.052002	-0.494385
566.0	4.279401	0.935646	9.505373	-0.017489	0.017718	-0.007123	-0.522705	0.052002	-0.503418
567.0	4.293254	0.883773	9.5196	-0.015462	0.01583	-0.006963	-0.524902	0.052002	-0.494385
568.0	4.272236	0.895476	9.545958	-0.011685	0.014427	-0.013619	-0.520264	0.047607	-0.498779
569.0	4.270827	0.910851	9.515614	-0.002651	0.009551	-0.018992	-0.520508	0.054199	-0.503418
570.0	4.262013	0.851328	9.562794	0.008204	0.002258	-0.026305	-0.522949	0.056396	-0.489746
571.0	4.261887	0.86943	9.531626	0.020675	-0.007974	-0.03766	-0.518311	0.049805	-0.494141
572.0	4.274159	0.816115	9.521272	0.040195	-0.018324	-0.042903	-0.518311	0.052002	-0.494385
573.0	4.31199	0.869598	9.524082	0.043297	-0.027624	-0.048211	-0.524902	0.052002	-0.498779
574.0	4.298874	0.92671	9.508936	0.048977	-0.034317	-0.051931	-0.522705	0.049805	-0.494141
575.0	4.305753	0.940965	9.529944	0.049361	-0.031784	-0.05017	-0.524658	0.049805	-0.496582
576.0	4.312144	0.9857	9.489077	0.045759	-0.03269	-0.053057	-0.520508	0.052002	-0.496582
577.0	4.322421	1.037678	9.471179	0.045275	-0.026512	-0.052938	-0.520264	0.047607	-0.496582
578.0	4.312338	0.976034	9.493913	0.042253	-0.02439	-0.051961	-0.522705	0.052002	-0.503418
579.0	4.298441	1.01741	9.510014	0.039191	-0.02082	-0.053426	-0.526855	0.047607	-0.496582
580.0	4.34289	1.020925	9.44942	0.039444	-0.021724	-0.048886	-0.526855	0.047607	-0.494141
581.0	4.333087	1.053999	9.51954	0.03596	-0.014914	-0.045351	-0.522461	0.04541	-0.494141
582.0	4.349023	1.039306	9.470214	0.034261	-0.009063	-0.046197	-0.520264	0.047607	-0.496582
583.0	4.325855	1.049212	9.472148	0.027749	-0.012253	-0.040775	-0.526611	0.043213	-0.496338
584.0	4.354348	1.055939	9.491551	0.025881	-0.008387	-0.04128	-0.529053	0.049805	-0.494141
585.0	4.322754	1.034956	9.479	0.024055	-0.005973	-0.039344	-0.524414	0.043213	-0.496338
586.0	4.322379	1.053862	9.447607	0.020397	-0.001158	-0.035469	-0.524658	0.04541	-0.491943
587.0	4.354164	1.06701	9.490397	0.016574	0.001675	-0.031252	-0.526611	0.043213	-0.494141
588.0	4.329955	1.074656	9.493042	0.009976	0.00137	-0.030712	-0.531006	0.04541	-0.496338
589.0	4.348799	1.064099	9.467563	0.006519	0.006704	-0.024739	-0.526611	0.043213	-0.489502
590.0	4.351947	1.073045	9.490733	4e-05	0.009825	-0.026985	-0.524414	0.041016	-0.491699
591.0	4.338778	1.021169	9.484679	-0.001749	0.010777	-0.022606	-0.524658	0.049805	-0.489746
592.0	4.341193	1.044516	9.477101	-0.004621	0.014844	-0.021972	-0.526611	0.043213	-0.494141
593.0	4.335466	1.037397	9.454913	-0.006982	0.012762	-0.02145	-0.524658	0.047607	-0.491943
594.0	4.3381	1.045121	9.47845	-0.006411	0.015797	-0.017593	-0.524658	0.04541	-0.494141
595.0	4.335996	1.060359	9.448243	-0.008448	0.017673	-0.017757	-0.526855	0.047607	-0.496582
596.0	4.338513	1.067521	9.471895	-0.014168	0.013716	-0.015573	-0.529053	0.04541	-0.491943
597.0	4.332898	1.044283	9.480922	-0.011279	0.02029	-0.014681	-0.520264	0.047607	-0.489746
598.0	4.330508	1.05882	9.450932	-0.015678	0.020082	-0.014323	-0.52002	0.043213	-0.494141
599.0	4.333023	1.050469	9.505768	-0.011439	0.018316	-0.014338	-0.526611	0.043213	-0.498779
600.0	4.30323	1.047124	9.486544	-0.017834	0.018526	-0.011703	-0.522217	0.043213	-0.500977
601.0	4.31711	1.010948	9.470105	-0.014635	0.018426	-0.013021	-0.522217	0.043213	-0.498779
602.0	4.323219	1.040386	9.485768	-0.013636	0.01822	-0.01416	-0.522461	0.04541	-0.498779
603.0	4.349336	1.042282	9.506837	-0.012797	0.016033	-0.014957	-0.520508	0.049805	-0.491943
604.0	4.339873	0.996582	9.523947	-0.007035	0.018544	-0.014693	-0.526611	0.043213	-0.494141
605.0	4.249339	0.994248	9.619516	0.012263	-0.015537	-0.008213	-0.520264	0.04541	-0.494141
606.0	4.084696	1.08493	9.931059	0.015287	-0.13042	-0.000297	-0.52002	0.043213	-0.489502
607.0	4.278219	0.95143	9.699939	0.00614	-0.301884	-0.011753	-0.526855	0.047607	-0.494141
608.0	4.510687	1.068162	9.29812	0.014748	-0.288076	-0.017966	-0.529053	0.04541	-0.491943
609.0	4.499197	1.117039	9.329716	-0.011168	-0.225138	-0.030891	-0.526855	0.04541	-0.494141
610.0	4.489504	1.083021	9.363632	-0.048417	-0.151389	-0.045839	-0.522461	0.04541	-0.489502
611.0	4.536576	1.017464	9.346084	-0.056221	-0.103247	-0.047758	-0.5354	0.043213	-0.487305
612.0	4.500529	1.032739	9.371654	-0.029066	-0.056056	-0.037933	-0.533447	0.047607	-0.48291
613.0	4.441446	1.077005	9.393403	-0.017972	-0.037249	-0.030927	-0.529053	0.047607	-0.485107
614.0	4.476205	1.102382	9.403682	-0.003135	-0.031003	-0.017716	-0.528809	0.043213	-0.487305
615.0	4.444145	1.040192	9.42974	0.01048	-0.029318	-0.014667	-0.533203	0.04541	-0.489502
616.0	4.473901	1.05979	9.417271	0.015824	-0.023605	-0.009434	-0.53125	0.047607	-0.485107
617.0	4.462954	1.134616	9.394733	0.014513	-0.016763	-0.006065	-0.5354	0.043213	-0.489502
618.0	4.46503	1.230848	9.440871	-0.002855	-0.017109	-0.002424	-0.528564	0.038818	-0.482666
619.0	4.436661	1.189044	9.459112	-0.021687	-0.038607	0.00707	-0.5354	0.043213	-0.487305
620.0	4.496278	1.015811	9.371602	-0.023694	-0.069074	0.016724	-0.533203	0.04541	-0.482666
621.0	4.486601	0.93755	9.370785	-0.015078	-0.04946	0.019374	-0.526855	0.049805	-0.48291
622.0	4.482303	1.015757	9.370511	-0.018315	-0.032461	0.014597	-0.528809	0.043213	-0.478271
623.0	4.460579	1.033117	9.341564	-0.027484	-0.024802	0.015162	-0.531006	0.043213	-0.482666
624.0	4.434228	1.054253	9.469173	-0.025754	-0.020032	0.017533	-0.533447	0.047607	-0.480469
625.0	4.434892	1.081412	9.406549	-0.02819	-0.025519	0.020847	-0.531006	0.04541	-0.489502
626.0	4.53636	0.969961	9.368973	-0.030408	-0.030487	0.026261	-0.535645	0.047607	-0.480469
627.0	4.56111	0.881458	9.286835	-0.020017	-0.022394	0.022972	-0.533203	0.043213	-0.484863
628.0	4.585628	0.889787	9.252176	-0.007843	-0.010365	0.01007	-0.526855	0.049805	-0.485107
629.0	4.5632	0.989098	9.302329	-0.007209	0.002376	0.003497	-0.531494	0.054199	-0.485107
630.0	4.529362	1.021011	9.376983	0.002815	-0.002584	-0.003105	-0.535645	0.049805	-0.48291
631.0	4.511557	1.033701	9.402194	0.000327	-0.027737	-0.005338	-0.53125	0.047607	-0.480469
632.0	4.502527	1.091847	9.41047	0.002067	-0.03353	-0.004518	-0.528809	0.043213	-0.482666
633.0	4.52251	1.041677	9.421865	-0.000891	-0.043462	-0.002627	-0.533691	0.052002	-0.480713
634.0	4.516666	1.042154	9.343312	-0.001041	-0.04542	-0.002289	-0.533447	0.047607	-0.489746
635.0	4.549273	1.044973	9.360845	0.002545	-0.048713	-0.008646	-0.537598	0.04541	-0.487305
636.0	4.477603	0.873437	9.429789	-0.000256	-0.056668	-0.007092	-0.533203	0.043213	-0.480469
637.0	4.566723	0.870798	9.306979	0.016288	-0.059841	-0.016745	-0.531006	0.041016	-0.484863
638.0	4.509861	1.013739	9.37557	0.020849	-0.052785	-0.022701	-0.5354	0.043213	-0.484863
639.0	4.535497	0.988909	9.377554	0.019719	-0.06993	-0.017549	-0.531006	0.043213	-0.485107
640.0	4.558756	1.009948	9.286363	0.020569	-0.067212	-0.023579	-0.53125	0.049805	-0.485107
641.0	4.474758	1.066562	9.467045	0.014807	-0.059142	-0.022236	-0.542236	0.049561	-0.487305
642.0	4.54439	0.856146	9.337695	0.018294	-0.055297	-0.02427	-0.539551	0.041016	-0.482666
643.0	4.586586	1.055788	9.315493	0.01934	-0.041546	-0.026653	-0.537598	0.04541	-0.478271
644.0	4.582818	1.123659	9.345925	0.013574	-0.038353	-0.020086	-0.537598	0.04541	-0.480469
645.0	4.583767	1.155784	9.282269	0.003338	-0.033931	-0.015549	-0.533447	0.047607	-0.478271
646.0	4.608754	1.055809	9.230807	-0.005263	-0.017651	-0.004317	-0.53125	0.047607	-0.478271
647.0	4.563953	0.939278	9.251592	-0.00724	-0.012387	-0.007233	-0.537842	0.047607	-0.482666
648.0	4.536482	0.826241	9.215612	0.005396	-0.005654	-0.00833	-0.5354	0.04541	-0.478271
649.0	4.554269	0.652	9.243473	0.026586	0.005857	-0.017565	-0.537842	0.047607	-0.482666
650.0	4.55483	0.805323	9.22083	0.049278	0.02647	-0.031756	-0.533447	0.047607	-0.480469
651.0	4.567436	0.982816	9.267113	0.056437	0.04519	-0.032191	-0.539795	0.043213	-0.480469
652.0	4.602943	1.029348	9.326087	0.049777	0.071614	-0.021734	-0.537354	0.041016	-0.480469
653.0	4.651425	0.944614	9.321384	0.048995	0.082899	-0.016948	-0.535645	0.047607	-0.480469
654.0	4.60297	0.937382	9.415804	0.056983	0.079875	-0.023715	-0.5354	0.04541	-0.480469
655.0	4.603015	1.100672	9.417575	0.071595	0.056931	-0.022161	-0.535156	0.041016	-0.480469
656.0	4.582858	1.143676	9.436535	0.073936	0.034549	-0.02298	-0.539795	0.043213	-0.484863
657.0	4.601189	1.286865	9.387444	0.059833	0.022929	-0.007721	-0.539795	0.04541	-0.480469
658.0	4.57524	1.295802	9.391119	0.028401	0.024855	0.009977	-0.533203	0.041016	-0.482666
659.0	4.628969	1.206188	9.384817	-0.001567	0.026779	0.018732	-0.533203	0.041016	-0.478027
660.0	4.56196	1.100345	9.433653	-0.019015	0.018122	0.030454	-0.537598	0.043213	-0.480469
661.0	4.550977	1.139954	9.474351	-0.01728	-0.01216	0.031038	-0.533203	0.043213	-0.482666
662.0	4.569452	1.101428	9.455748	-0.018848	-0.040066	0.04251	-0.537598	0.04541	-0.473633
663.0	4.59007	1.062952	9.436056	-0.014539	-0.058024	0.034175	-0.535156	0.041016	-0.478027
664.0	4.579947	1.110812	9.419815	-0.007738	-0.071934	0.024947	-0.5354	0.04541	-0.482666
665.0	4.582671	1.101547	9.393693	-0.005212	-0.078409	0.022529	-0.537598	0.04541	-0.47583
666.0	4.642065	1.097843	9.406611	-0.006191	-0.073329	0.018446	-0.537842	0.047363	-0.47583
667.0	4.595741	1.114141	9.356052	-0.00058	-0.067922	0.013754	-0.541992	0.047363	-0.47583
668.0	4.640115	1.199289	9.316628	-0.001636	-0.066255	0.012461	-0.5354	0.043213	-0.468994
669.0	4.641271	1.190781	9.291102	-0.004836	-0.055617	0.015342	-0.544189	0.045166	-0.485107
670.0	4.5917	1.154114	9.311868	-0.001366	-0.046096	0.020051	-0.539795	0.043213	-0.473633
671.0	4.60881	1.09488	9.299999	-0.005505	-0.061148	0.026263	-0.537842	0.049561	-0.476074
672.0	4.658677	1.06097	9.298855	0.000718	-0.063278	0.023888	-0.537842	0.049561	-0.476074
673.0	4.62249	1.077399	9.325084	0.001037	-0.069858	0.021669	-0.544189	0.043213	-0.482666
674.0	4.671623	1.058921	9.292592	-0.000402	-0.064991	0.025382	-0.541992	0.045166	-0.47583
675.0	4.65946	1.012405	9.229972	0.000721	-0.052708	0.02541	-0.541992	0.045166	-0.478271
676.0	4.668714	1.018905	9.25055	0.001991	-0.038477	0.025095	-0.541992	0.045166	-0.478271
677.0	4.668389	0.995644	9.257272	0.009473	-0.026405	0.022397	-0.542236	0.049561	-0.478271
678.0	4.651077	0.913193	9.235152	0.025998	-0.034399	0.017899	-0.544434	0.049561	-0.476074
679.0	4.642716	0.97339	9.242695	0.038491	-0.0353	0.010343	-0.542236	0.049561	-0.480469
680.0	4.584696	0.896749	9.280494	0.054388	-0.041453	-0.003239	-0.541748	0.041016	-0.473633
681.0	4.62564	0.825771	9.295942	0.083779	-0.053531	-0.020306	-0.546387	0.047363	-0.480469
682.0	4.640709	0.851863	9.337664	0.120607	-0.067397	-0.038826	-0.544189	0.045166	-0.471436
683.0	4.631923	0.901671	9.350778	0.14861	-0.079347	-0.046962	-0.544189	0.045166	-0.473633
684.0	4.664144	1.076798	9.28634	0.16058	-0.092729	-0.047911	-0.546387	0.042969	-0.473633
685.0	4.635223	1.119864	9.332073	0.172711	-0.104117	-0.049208	-0.54834	0.040771	-0.473633
686.0	4.651943	1.183417	9.307958	0.17442	-0.116425	-0.042784	-0.550537	0.038574	-0.473389
687.0	4.621076	1.219346	9.329399	0.183895	-0.139566	-0.025213	-0.54834	0.042969	-0.473633
688.0	4.658514	1.232484	9.316679	0.189619	-0.159869	-0.00336	-0.546143	0.038574	-0.468994
689.0	4.703382	1.252775	9.32527	0.19177	-0.185858	0.020956	-0.546143	0.038574	-0.468994
690.0	4.779422	1.216078	9.266545	0.196346	-0.206327	0.041892	-0.545898	0.036377	-0.466553
691.0	4.796495	1.209641	9.262586	0.198948	-0.223882	0.050361	-0.556885	0.036377	-0.46875
692.0	4.813716	1.16674	9.297763	0.208658	-0.244627	0.043285	-0.550293	0.03418	-0.464355
693.0	4.843154	1.192297	9.305419	0.208103	-0.26668	0.034124	-0.55249	0.03418	-0.466553
694.0	4.862994	1.202167	9.267559	0.209583	-0.266306	0.025116	-0.55249	0.03418	-0.45752
695.0	4.934653	1.285138	9.297157	0.210458	-0.276054	0.008067	-0.558838	0.031982	-0.461914
696.0	4.931689	1.301179	9.262133	0.20265	-0.284381	-0.008376	-0.554443	0.031982	-0.459717
697.0	4.924403	1.332393	9.329094	0.194029	-0.294805	-0.00883	-0.560791	0.025391	-0.452637
698.0	4.909249	1.221881	9.370424	0.192252	-0.310438	-0.024485	-0.561035	0.031982	-0.452881
699.0	4.932604	1.197275	9.370496	0.20399	-0.335034	-0.040935	-0.563232	0.031982	-0.450439
700.0	4.954578	1.19162	9.471227	0.227366	-0.36856	-0.065761	-0.560791	0.025391	-0.450439
701.0	4.859064	0.9326	9.484835	0.277096	-0.405389	-0.090537	-0.565186	0.027588	-0.452637
702.0	4.843223	1.097938	9.560285	0.370784	-0.452622	-0.111436	-0.564941	0.023193	-0.443604
703.0	4.578899	2.186393	10.071654	0.374381	-0.523443	-0.106705	-0.571533	0.020996	-0.445801
704.0	4.75204	1.737259	9.873073	0.324328	-0.613508	-0.07193	-0.571045	0.014404	-0.436523
705.0	4.895197	1.400856	9.744835	0.329991	-0.687627	-0.068665	-0.575684	0.018799	-0.438965
706.0	4.972235	1.393727	9.665618	0.365189	-0.757176	-0.093028	-0.575439	0.012207	-0.427246
707.0	4.910091	1.396144	9.732827	0.414784	-0.844265	-0.125526	-0.579834	0.014404	-0.42749
708.0	4.888172	1.463563	9.872868	0.455825	-0.958762	-0.165665	-0.579834	0.012207	-0.422852
709.0	4.867445	1.459562	10.127422	0.482455	-1.111531	-0.201237	-0.585938	0.005615	-0.413574
710.0	4.863831	1.535273	10.178807	0.528992	-1.308204	-0.249827	-0.592285	0.001221	-0.408936
711.0	4.839245	2.007075	10.231417	0.578936	-1.520074	-0.272733	-0.59668	-0.001221	-0.392822
712.0	4.798164	2.190162	10.445901	0.582628	-1.76736	-0.26678	-0.600586	-0.007813	-0.385986
713.0	4.787243	1.942514	10.597401	0.625532	-2.007581	-0.240546	-0.611084	-0.016602	-0.376709
714.0	4.737614	2.197048	10.739598	0.6988	-2.311882	-0.202645	-0.615479	-0.018799	-0.360596
715.0	4.758875	2.172255	11.057735	0.809498	-2.631744	-0.1273	-0.625977	-0.027588	-0.344482
716.0	4.545431	2.293068	11.705707	0.90083	-3.018314	-0.020972	-0.625977	-0.029785	-0.333008
717.0	4.268168	2.881229	12.164802	0.907402	-3.479259	0.142716	-0.641113	-0.032227	-0.307861
718.0	4.46742	2.557534	12.355615	1.031084	-3.983788	0.331395	-0.642822	-0.041016	-0.282715
719.0	4.59874	6.494207	12.585493	1.021628	-4.496247	0.567314	-0.653809	-0.038818	-0.259766
720.0	4.846521	6.978089	11.591147	0.590443	-4.996586	0.979609	-0.660645	-0.030273	-0.230469
721.0	5.963933	8.211138	11.06484	0.518758	-5.498513	1.333649	-0.669434	-0.032715	-0.200684
722.0	7.068057	7.91237	12.083122	-0.154912	-5.811848	1.843991	-0.676758	-0.015381	-0.159912
723.0	7.162696	2.048101	11.058037	-0.243548	-6.238708	2.109994	-0.676758	-0.010986	-0.139648
724.0	8.915624	1.008084	11.751128	0.476789	-6.319381	2.119281	-0.681885	0.001953	-0.094238
725.0	11.165271	7.072985	13.511996	0.695799	-5.945597	2.342068	-0.680176	0.012695	-0.071777
726.0	9.582857	9.86678	12.769059	0.396352	-5.808904	2.540924	-0.664795	0.014893	-0.042236
727.0	9.728926	4.720775	11.534012	0.034482	-5.360459	2.434205	-0.658691	0.023682	-0.021729
728.0	13.244384	10.32365	17.36847	-0.098119	-3.814542	1.330934	-0.638916	0.019531	-0.014893
729.0	14.430343	8.993198	18.86143	-0.428428	-1.29906	0.377031	-0.619385	0.021729	-0.031006
730.0	3.55805	7.320913	15.956886	-0.590502	0.087253	-0.256587	-0.596924	0.006592	-0.041992
731.0	-0.513905	5.459294	12.047182	-0.788515	0.366941	-0.393294	-0.563721	-0.001709	-0.057861
732.0	-0.840127	2.473943	9.846575	-0.738772	0.328759	-0.256335	-0.530518	-0.016846	-0.064453
733.0	0.067146	0.665998	8.940669	-0.380018	0.38012	-0.089173	-0.497314	-0.027344	-0.084717
734.0	0.789287	0.835492	8.918626	0.057617	0.632829	0.0584	-0.451172	-0.033691	-0.098389
735.0	0.993853	2.197132	9.062057	0.250752	1.024603	0.219583	-0.409668	-0.037842	-0.107422
736.0	1.024694	3.196223	9.021518	0.1003	1.445099	0.369087	-0.359131	-0.043945	-0.116455
737.0	1.382309	3.347182	8.803394	-0.208274	1.859901	0.449198	-0.298096	-0.045654	-0.118896
738.0	1.678796	2.741616	8.432689	-0.451656	2.271421	0.451391	-0.22583	-0.051758	-0.114258
739.0	1.771105	1.729566	8.092641	-0.479743	2.660651	0.35224	-0.156006	-0.049316	-0.10083
740.0	1.980648	1.305149	7.96774	-0.342056	2.987374	0.173443	-0.07959	-0.051025	-0.077881
741.0	2.264587	1.340077	7.975432	-0.174395	3.291629	-0.034601	-0.010254	-0.041992	-0.023682
742.0	2.619192	1.428045	8.08132	-0.062739	3.556189	-0.223648	0.061035	-0.028564	0.046631
743.0	3.159287	1.412403	8.093331	-0.021423	3.77202	-0.378489	0.097656	-0.013428	0.139893
744.0	3.818606	1.35297	8.107232	-0.023384	3.95806	-0.458426	0.118408	0.006104	0.239746
745.0	4.327434	1.100582	8.06093	-0.049154	4.110864	-0.478904	0.099609	0.036377	0.339355
746.0	4.610281	0.533075	8.129208	-0.014982	4.197036	-0.481087	0.044434	0.05542	0.437012
747.0	5.110111	0.132782	8.351914	0.086055	4.204485	-0.464195	-0.031006	0.083252	0.502686
748.0	5.813821	-0.15117	8.472375	0.237007	4.174279	-0.434089	-0.134033	0.095459	0.548096
749.0	6.449988	0.268272	8.714985	0.348613	4.124278	-0.422037	-0.241699	0.110107	0.557129
750.0	6.399948	0.945612	9.273967	0.389867	4.020455	-0.448501	-0.346436	0.11377	0.54126
751.0	6.61481	1.227099	9.902387	0.344294	3.872447	-0.586305	-0.440186	0.113281	0.502686
752.0	7.195587	1.150261	10.713771	0.314873	3.72879	-0.82498	-0.520264	0.097656	0.455078
753.0	8.370629	1.159237	11.676731	0.302872	3.697234	-1.086416	-0.574219	0.086426	0.394043
754.0	8.93488	1.719466	12.242837	0.174552	3.784247	-1.25542	-0.621338	0.06665	0.325928
755.0	8.757033	1.823806	12.406158	-0.047291	3.800244	-1.297052	-0.662109	0.049316	0.251221
756.0	8.724118	1.577164	12.457792	-0.321963	3.685803	-1.260567	-0.678467	0.027344	0.180908
757.0	10.323979	0.663618	13.084844	-0.415543	3.586579	-1.221531	-0.693359	0.016602	0.115234
758.0	12.569736	0.544423	14.039301	-0.260181	3.718707	-1.196002	-0.697266	0.005859	0.053711
759.0	14.012291	1.30506	14.517041	-0.055435	3.998938	-1.176433	-0.687988	-0.00708	-0.005127
760.0	14.569842	2.514586	14.047671	0.017686	4.223087	-1.180742	-0.680908	-0.017822	-0.059814
761.0	15.575402	3.094701	13.018574	-0.037667	4.324399	-1.252498	-0.66748	-0.02417	-0.116455
762.0	16.925801	2.687636	11.581711	-0.117503	4.372118	-1.363875	-0.645264	-0.034668	-0.166504
763.0	17.654913	2.229947	9.779218	-0.146498	4.333423	-1.35944	-0.631836	-0.041016	-0.209717
764.0	17.940488	1.694568	7.43953	-0.170301	4.137399	-1.266036	-0.605469	-0.045166	-0.248535
765.0	18.160475	1.224325	4.689477	-0.121458	3.736347	-1.142797	-0.598877	-0.047363	-0.280273
766.0	18.513786	0.809311	1.8236	0.00268	3.15785	-1.030727	-0.572266	-0.055664	-0.307617
767.0	18.774897	0.395858	-0.8474	0.167867	2.462537	-0.935558	-0.561279	-0.060059	-0.325684
768.0	19.53928	0.013088	-2.77253	0.309294	1.651347	-0.830715	-0.545898	-0.064209	-0.341553
769.0	21.097178	-0.407917	-3.9403	0.37899	0.932612	-0.683157	-0.543213	-0.072998	-0.348145
770.0	21.768763	-0.818669	-4.583978	0.387431	0.353687	-0.531362	-0.536621	-0.077148	-0.352783
771.0	21.587234	-0.913387	-4.833265	0.284416	-0.146254	-0.389316	-0.536621	-0.074951	-0.348145
772.0	18.947046	4.375433	-3.018167	-0.587357	-0.890995	-0.070415	-0.54126	-0.070801	-0.350586
773.0	20.727301	0.094973	-7.23101	-2.018212	-2.917875	0.442673	-0.54834	-0.05542	-0.33252
774.0	10.863923	-6.389998	1.232646	-1.495268	-3.557173	0.142046	-0.565918	-0.055664	-0.312012
775.0	1.075221	2.653566	22.443571	-1.113853	-3.682361	-0.500064	-0.583252	-0.053711	-0.293945
776.0	1.394923	-2.477654	13.093996	-0.940445	-4.193425	0.178398	-0.594238	-0.053711	-0.268799
777.0	11.383148	-4.802565	11.032846	-0.38882	-4.004684	0.244431	-0.607422	-0.051758	-0.250488
778.0	12.071172	-1.658653	13.392082	-0.117668	-3.3661	0.135185	-0.611816	-0.049561	-0.232422
779.0	11.539576	-0.072264	11.075706	-0.022931	-2.81407	0.246731	-0.618408	-0.049805	-0.216309
780.0	7.320933	1.648268	10.570079	0.088794	-2.376003	0.184523	-0.62915	-0.054199	-0.207275
781.0	4.13645	1.835255	9.266741	0.105151	-2.374202	-0.039119	-0.62915	-0.052002	-0.193604
782.0	10.072063	5.130956	13.781545	-0.299819	-2.505275	-0.293036	-0.631592	-0.047607	-0.177734
783.0	18.586971	0.458832	10.271433	-0.699369	-0.738953	0.414285	-0.63623	-0.043457	-0.177734
784.0	11.280584	0.453897	10.780744	-0.41239	-0.202931	0.126816	-0.635986	-0.047852	-0.175293
785.0	5.740959	-0.870848	9.526159	-0.089908	0.194237	0.103457	-0.638428	-0.043457	-0.173096
786.0	5.917496	0.983432	9.726305	0.032147	0.23125	-0.005197	-0.63623	-0.039063	-0.177734
787.0	5.507371	0.324056	9.66679	0.160431	0.224796	-0.06982	-0.640625	-0.04126	-0.180176
788.0	5.202123	0.862465	9.534609	0.272115	0.204541	-0.103192	-0.633789	-0.047852	-0.177734
789.0	5.034019	1.192083	9.46993	0.319649	0.157353	-0.114641	-0.633545	-0.049805	-0.182129
790.0	4.845349	1.110369	9.54378	0.331751	0.057172	-0.127466	-0.633545	-0.052002	-0.184326
791.0	4.857614	1.252612	9.398006	0.337087	-0.004608	-0.137247	-0.635742	-0.052002	-0.182129
792.0	4.856654	1.330465	9.353291	0.36856	-0.039191	-0.138254	-0.633545	-0.052002	-0.179932
793.0	4.831934	1.573671	9.175653	0.419208	-0.038127	-0.125972	-0.637939	-0.054199	-0.17749
794.0	4.667877	1.857922	9.374013	0.365453	-0.064238	-0.125871	-0.633545	-0.054199	-0.17749
795.0	4.672434	1.634127	9.221461	0.33144	-0.073593	-0.09396	-0.635498	-0.058594	-0.182129
796.0	4.741424	1.328884	9.218901	0.347985	-0.096464	-0.069192	-0.635498	-0.056396	-0.179688
797.0	4.710137	1.387149	9.261302	0.380497	-0.103306	-0.046349	-0.635498	-0.056396	-0.17749
798.0	4.753078	1.521781	9.234787	0.399213	-0.116706	-0.027785	-0.633301	-0.058594	-0.170654
799.0	4.811435	1.755976	9.060445	0.391944	-0.118095	-0.023594	-0.639648	-0.060791	-0.181885
800.0	4.809314	2.252708	8.953752	0.348621	-0.102211	-0.010823	-0.637451	-0.062988	-0.17749
801.0	4.722547	2.232931	9.005207	0.293306	-0.093077	0.007505	-0.635254	-0.065186	-0.17041
802.0	4.677072	2.148774	9.047032	0.245752	-0.092871	0.018062	-0.639648	-0.060791	-0.170654
803.0	4.705232	2.156066	9.012246	0.195613	-0.082175	0.03237	-0.637451	-0.060791	-0.175049
804.0	4.698151	2.411552	8.88586	0.13251	-0.070669	0.049829	-0.637207	-0.067383	-0.172852
805.0	4.697323	2.340917	8.885532	0.069182	-0.057197	0.076875	-0.637695	-0.056641	-0.168457
806.0	4.717511	2.21522	8.902117	0.003953	-0.046931	0.109135	-0.637695	-0.058594	-0.163818
807.0	4.762436	2.253374	8.954937	-0.052514	-0.03755	0.140842	-0.637695	-0.056641	-0.166016
808.0	4.78516	2.299849	8.847833	-0.109105	-0.03392	0.173692	-0.635254	-0.060791	-0.168213
809.0	4.848614	2.150101	8.995263	-0.157724	-0.033032	0.197578	-0.635498	-0.056396	-0.168457
810.0	4.92247	1.897578	8.966065	-0.184733	-0.025741	0.199639	-0.633301	-0.056396	-0.163818
811.0	4.889823	1.775319	9.119474	-0.197921	-0.023418	0.198153	-0.637939	-0.054443	-0.16626
812.0	4.879165	1.804549	9.129767	-0.205197	-0.031691	0.181611	-0.640137	-0.050049	-0.170898
813.0	4.890643	1.598462	9.145372	-0.199826	-0.053643	0.17866	-0.637939	-0.050049	-0.16626
814.0	4.831771	1.777213	9.187928	-0.192754	-0.060195	0.161631	-0.640381	-0.047852	-0.16626
815.0	4.861102	1.584496	9.300087	-0.185479	-0.071684	0.149901	-0.642578	-0.043457	-0.16626
816.0	4.87615	1.308114	9.392732	-0.170125	-0.067045	0.133359	-0.640381	-0.045654	-0.16626
817.0	4.826568	1.478483	9.331856	-0.141547	-0.09403	0.122539	-0.646973	-0.043457	-0.164063
818.0	4.843516	1.409523	9.399322	-0.111983	-0.137893	0.108062	-0.640381	-0.045654	-0.161865
819.0	4.868152	1.285664	9.378806	-0.065597	-0.188817	0.088885	-0.642822	-0.039063	-0.164063
820.0	4.955671	1.200844	9.383489	-0.005535	-0.234151	0.059653	-0.642334	-0.050049	-0.161621
821.0	4.902196	1.179294	9.368597	0.051766	-0.278522	0.035944	-0.644775	-0.043457	-0.159424
822.0	4.922477	1.192635	9.299109	0.123693	-0.324633	0.004489	-0.644775	-0.045654	-0.159424
823.0	4.732624	1.536899	9.473357	0.261299	-0.370092	0.012857	-0.642822	-0.039063	-0.155029
824.0	4.880388	1.12895	9.562427	0.353074	-0.421438	0.016714	-0.644775	-0.047852	-0.147949
825.0	4.610769	1.574617	9.986721	0.386147	-0.4937	-0.02714	-0.653564	-0.045654	-0.145752
826.0	4.564146	1.454817	10.201067	0.345581	-0.624349	-0.060092	-0.646973	-0.045654	-0.138916
827.0	4.684714	1.534347	10.135966	0.397989	-0.77595	-0.073035	-0.644775	-0.047852	-0.138916
828.0	4.649749	1.043309	10.36104	0.514367	-0.953002	-0.121041	-0.648926	-0.052246	-0.129639
829.0	4.715925	1.274478	10.249968	0.646563	-1.122594	-0.184453	-0.650879	-0.054443	-0.120605
830.0	4.590657	1.170692	10.655773	0.755585	-1.343974	-0.223684	-0.650879	-0.054688	-0.109131
831.0	4.48848	1.357814	10.944348	0.856158	-1.601853	-0.291799	-0.657471	-0.054688	-0.100098
832.0	4.365308	1.550301	11.191008	0.949878	-1.902092	-0.34288	-0.655029	-0.059082	-0.093018
833.0	4.165748	1.45381	11.692742	1.047164	-2.258008	-0.40946	-0.659424	-0.061279	-0.067871
834.0	3.909626	0.881685	12.33616	1.16152	-2.691614	-0.492669	-0.66333	-0.070068	-0.058594
835.0	3.641607	0.618816	13.165277	1.387368	-3.206045	-0.616033	-0.665527	-0.070068	-0.029053
836.0	3.007359	1.673717	13.737463	1.640998	-3.841831	-0.668922	-0.662842	-0.081055	0.003174
837.0	2.466393	1.933095	15.147933	1.863515	-4.591965	-0.558989	-0.660645	-0.079102	0.030273
838.0	1.903024	3.147948	16.344537	1.934009	-5.487782	-0.295575	-0.6604	-0.083496	0.066895
839.0	2.241466	5.734499	15.409658	1.965417	-6.377149	0.063546	-0.654053	-0.079102	0.112305
840.0	3.463667	12.422496	14.379079	1.31978	-7.295195	0.585785	-0.647461	-0.079346	0.155762
841.0	8.339218	5.265347	15.194533	0.382559	-7.961233	1.092702	-0.630615	-0.068359	0.207764
842.0	5.784449	7.108191	15.66184	0.288329	-8.36505	1.428206	-0.624512	-0.05957	0.248779
843.0	7.787218	1.428719	17.236112	0.261503	-8.538577	1.710889	-0.603271	-0.044434	0.30542
844.0	11.196648	8.384763	18.234756	0.795695	-8.140625	2.030838	-0.577881	-0.026855	0.34375
845.0	10.71443	9.733801	14.859997	0.876558	-7.789471	2.236851	-0.554199	-0.018066	0.380127
846.0	14.811702	12.949598	21.097621	0.974202	-6.161917	1.786948	-0.535156	-0.004883	0.406982
847.0	21.20742	10.471534	28.004864	0.268539	-2.136263	1.137301	-0.537842	0.003906	0.397705
848.0	3.993588	8.445035	23.169682	-0.13913	0.973227	0.730159	-0.539551	-0.00708	0.388916
849.0	-7.275641	5.271667	15.22335	-0.248348	1.344334	1.008946	-0.544434	0.005859	0.379639
850.0	-6.120613	1.993786	11.003704	0.040791	0.758832	1.433032	-0.54248	0.010254	0.375
851.0	-1.086388	2.141401	10.390775	0.550158	0.723864	1.513035	-0.551758	0.023438	0.356445
852.0	1.022627	4.845061	10.910236	0.803006	1.403151	1.288747	-0.556396	0.030029	0.344971
853.0	-0.121272	7.17078	11.023145	0.438016	2.207738	0.966144	-0.563232	0.034424	0.32666
854.0	-0.753144	7.066311	10.238816	-0.277113	2.788368	0.657096	-0.573975	0.032227	0.30835
855.0	-0.022727	4.758392	8.93251	-0.86746	3.22706	0.376143	-0.578125	0.027832	0.276611
856.0	0.888249	2.224191	7.975567	-1.063948	3.60938	0.177584	-0.580322	0.027832	0.249268
857.0	1.619603	0.524869	7.514653	-0.955067	3.997955	0.078235	-0.59082	0.019287	0.222168
858.0	2.334323	-0.221849	7.454505	-0.709194	4.410683	0.086132	-0.584229	0.01709	0.185547
859.0	2.964115	0.054554	7.542917	-0.483005	4.800159	0.1691	-0.588623	0.019287	0.151367
860.0	3.258376	0.469562	7.653896	-0.333512	5.055115	0.343656	-0.584473	0.019531	0.11499
861.0	3.426424	0.153434	7.715174	-0.17054	5.213958	0.452632	-0.58667	0.021729	0.076172
862.0	3.50202	0.146214	7.823634	0.047631	5.297084	0.43505	-0.567139	0.021973	0.051025
863.0	3.917105	0.882378	8.067485	0.210517	5.294799	0.308046	-0.562988	0.026367	0.012207
864.0	4.598995	1.49833	8.400043	0.229609	5.245025	0.140629	-0.542969	0.022217	-0.010498
865.0	5.318882	1.295351	8.751037	0.183846	5.142346	-0.037096	-0.52124	0.022461	-0.026611
866.0	6.079033	1.180204	9.086957	0.172554	4.980766	-0.169101	-0.503906	0.022705	-0.04248
867.0	6.849766	1.483552	9.510616	0.17841	4.809665	-0.321745	-0.488525	0.020508	-0.053955
868.0	7.272932	1.871114	10.23093	0.243089	4.602519	-0.536141	-0.479492	0.011963	-0.065186
869.0	8.128728	2.632881	11.49082	0.307183	4.385054	-0.843741	-0.455078	0.003418	-0.076416
870.0	9.129426	4.260416	12.753516	0.112111	4.250998	-1.083349	-0.439453	-0.000977	-0.080811
871.0	10.621852	4.668228	14.135965	-0.249841	4.12374	-1.141985	-0.419678	-0.005127	-0.083008
872.0	14.236593	2.749332	15.414714	-0.274562	4.160465	-1.116178	-0.399902	-0.00708	-0.085205
873.0	17.318089	2.249801	15.854867	0.134398	4.482254	-1.143677	-0.383057	0.001709	-0.090088
874.0	18.486512	3.926296	15.059255	0.507293	4.752749	-1.175896	-0.370117	0.006104	-0.092529
875.0	18.799563	5.192812	13.18508	0.572904	4.737037	-1.244133	-0.353027	0.012695	-0.088135
876.0	19.745592	4.865568	10.997241	0.547723	4.456482	-1.379452	-0.344482	0.021484	-0.094971
877.0	21.350102	4.299102	9.204439	0.601555	4.112416	-1.586153	-0.331787	0.026123	-0.104248
878.0	22.59969	4.019378	7.859341	0.62268	3.825004	-1.753109	-0.316406	0.023926	-0.102051
879.0	23.058223	3.181637	6.21539	0.508586	3.613167	-1.890935	-0.313965	0.019531	-0.097412
880.0	22.898544	1.61613	3.950355	0.330498	3.336308	-2.07086	-0.313232	0.002197	-0.090088
881.0	22.585783	0.568642	1.471518	0.106725	3.021843	-2.118671	-0.312256	-0.019775	-0.087402
882.0	22.548349	-1.142471	-1.376522	-0.078582	2.609996	-1.936719	-0.311768	-0.030762	-0.075928
883.0	21.480637	-3.611572	-4.901146	0.069083	2.035749	-1.558134	-0.311279	-0.041504	-0.071045
884.0	21.313903	-4.703882	-7.507053	0.618008	1.142186	-1.023801	-0.312744	-0.059082	-0.057129
885.0	23.018415	-3.736299	-7.575406	1.252786	0.328944	-0.491996	-0.3125	-0.063477	-0.036377
886.0	22.837081	-1.287403	-6.443443	1.506942	-0.297669	-0.095272	-0.314453	-0.065674	-0.022705
887.0	21.528282	0.62669	-5.552721	1.306136	-0.756529	0.181289	-0.321045	-0.068115	-0.009033
888.0	19.82676	0.154332	-3.979205	1.055694	-1.421048	0.309485	-0.310303	-0.063721	0.015869
889.0	5.985248	20.995711	4.504716	-2.204107	-3.001809	0.431979	-0.303711	-0.061523	0.027344
890.0	9.771028	-4.244926	11.362565	-3.09974	-4.045665	0.00648	-0.290771	-0.061279	0.047852
891.0	-4.222714	9.026107	19.304863	-2.385761	-3.766679	-0.734281	-0.280029	-0.054932	0.072754
892.0	-4.028898	-14.421597	9.275922	-2.262342	-5.006743	-0.433356	-0.277588	-0.059326	0.0979
893.0	11.814227	-13.123822	12.08999	-0.77659	-4.942998	-0.276307	-0.268799	-0.065918	0.123047
894.0	14.022991	-8.151509	13.19877	-0.127805	-4.291539	0.312521	-0.257324	-0.074463	0.155029
895.0	12.967495	-2.955069	10.596061	0.400987	-3.620732	0.635343	-0.251221	-0.068115	0.180176
896.0	8.867465	7.098643	11.446655	0.381864	-3.239778	0.266685	-0.242432	-0.065918	0.186768
897.0	24.106106	14.378346	16.350911	-0.998154	-2.530492	0.285023	-0.233643	-0.070068	0.202881
898.0	13.323692	-1.288113	8.210938	-1.261819	-0.848392	0.703435	-0.23999	-0.07251	0.216553
899.0	11.455399	-3.488222	11.006292	-0.69376	-0.194254	0.4459	-0.235596	-0.07251	0.216553
900.0	7.198227	0.994207	9.673944	-0.272775	0.321792	0.27231	-0.233398	-0.074463	0.214355
901.0	5.936458	0.288663	9.777251	-0.108957	0.484565	0.131176	-0.233643	-0.070313	0.216553
902.0	5.6547	1.238483	9.571987	0.038787	0.45151	0.035219	-0.227051	-0.072266	0.212158
903.0	5.386995	1.929402	9.555315	0.034271	0.3941	0.020962	-0.238037	-0.068115	0.214355
904.0	5.185068	1.539239	9.473847	0.017253	0.373104	0.003777	-0.23584	-0.068115	0.211914
905.0	4.911329	1.734573	9.437378	0.006735	0.341665	0.004277	-0.23584	-0.068115	0.209717
906.0	4.724847	1.890164	9.293467	-0.009597	0.288168	0.024174	-0.233398	-0.072266	0.212158
907.0	4.673486	1.727718	9.363744	-0.00614	0.208375	0.055809	-0.240234	-0.070313	0.20752
908.0	4.566761	1.491181	9.35992	-0.000215	0.116478	0.065151	-0.237793	-0.07251	0.214355
909.0	4.595728	1.038325	9.329033	0.041541	0.058773	0.056559	-0.233643	-0.070068	0.211914
910.0	4.562382	0.836972	9.404055	0.104997	0.003139	0.044002	-0.229248	-0.067871	0.214355
911.0	4.523848	0.54781	9.64064	0.224499	-0.089143	0.015185	-0.233643	-0.068115	0.211914
912.0	4.601914	0.592783	9.538671	0.356457	-0.208241	-0.014308	-0.23584	-0.065918	0.209717
913.0	4.702265	1.013616	9.510558	0.442862	-0.296834	-0.050156	-0.238037	-0.065918	0.211914
914.0	4.744347	1.06262	9.565941	0.498998	-0.393466	-0.078044	-0.237793	-0.07251	0.216553
915.0	4.722326	1.368524	9.301304	0.526359	-0.464487	-0.104901	-0.229492	-0.065674	0.214111
916.0	4.779481	2.107926	9.018115	0.505597	-0.436493	-0.103873	-0.233887	-0.063721	0.225586
917.0	4.790482	2.775115	8.840362	0.39223	-0.371049	-0.058623	-0.233887	-0.065918	0.220947
918.0	4.844787	2.600039	8.755908	0.270874	-0.301498	-0.002429	-0.233643	-0.068115	0.225586
919.0	4.870944	2.558555	8.786031	0.171885	-0.225213	0.043146	-0.233643	-0.068115	0.225586
920.0	4.858572	2.649219	8.853132	0.062237	-0.167816	0.085403	-0.23584	-0.065918	0.227783
921.0	4.837209	2.506847	8.824948	-0.046973	-0.154322	0.132519	-0.231934	-0.059326	0.223145
922.0	4.956391	2.160536	8.847363	-0.124339	-0.154415	0.168623	-0.229004	-0.072266	0.230225
923.0	4.97264	2.116034	8.85193	-0.161079	-0.135691	0.196868	-0.227295	-0.063721	0.225586
924.0	4.965458	2.3629	8.883781	-0.222155	-0.091348	0.228024	-0.229492	-0.065918	0.234619
925.0	5.120963	2.164526	8.94694	-0.288903	-0.034763	0.252027	-0.236084	-0.063721	0.227783
926.0	4.987794	1.885993	9.145867	-0.338029	0.022262	0.274572	-0.231445	-0.070313	0.223389
927.0	5.032045	1.606598	9.230372	-0.368338	0.01605	0.280491	-0.231445	-0.070313	0.225586
928.0	5.038453	1.064636	9.229484	-0.31345	0.007517	0.26744	-0.2229	-0.065674	0.225586
929.0	4.955069	1.185735	9.376168	-0.23882	-0.020467	0.236266	-0.231689	-0.063721	0.223389
930.0	4.853575	1.144626	9.4795	-0.172837	-0.079463	0.21994	-0.231934	-0.059326	0.225342
931.0	4.796833	1.175201	9.470274	-0.086176	-0.153726	0.19556	-0.227539	-0.061523	0.227783
932.0	4.787014	1.501468	9.533277	0.025005	-0.214609	0.183108	-0.231689	-0.063721	0.225586
933.0	4.836354	1.536818	9.633668	0.071161	-0.29037	0.187653	-0.231934	-0.059326	0.22998
934.0	4.755052	1.51525	9.831779	0.10705	-0.364336	0.175179	-0.236084	-0.061523	0.232422
935.0	4.732308	1.470289	9.893283	0.06125	-0.453783	0.154195	-0.231689	-0.061523	0.236816
936.0	4.877215	1.373906	9.750975	0.118551	-0.544604	0.130429	-0.231689	-0.063721	0.230225
937.0	4.899095	0.938811	9.780075	0.187406	-0.638462	0.090559	-0.229492	-0.061523	0.234619
938.0	4.810314	0.734602	9.965746	0.289367	-0.75765	0.038446	-0.229492	-0.061523	0.239258
939.0	4.646077	0.913247	10.354335	0.40992	-0.9503	-0.032571	-0.233887	-0.065918	0.246094
940.0	4.677215	1.567833	10.443589	0.498636	-1.183685	-0.081878	-0.233887	-0.065918	0.243896
941.0	4.609725	1.401764	10.591401	0.544601	-1.449585	-0.095852	-0.233887	-0.065918	0.25293
942.0	4.683457	1.318938	10.727207	0.603628	-1.709201	-0.140755	-0.229492	-0.061523	0.257324
943.0	4.602189	1.521079	10.880745	0.623124	-1.986915	-0.187685	-0.231445	-0.068115	0.259766
944.0	4.574961	1.128643	10.962461	0.720644	-2.279652	-0.231884	-0.231201	-0.07251	0.273682
945.0	4.382514	1.15399	11.307684	0.899791	-2.614482	-0.281154	-0.231445	-0.068115	0.280273
946.0	4.03701	0.965297	12.093761	1.078776	-3.032529	-0.327441	-0.229248	-0.070313	0.293945
947.0	3.832784	0.55785	12.912073	1.244626	-3.573887	-0.388157	-0.231445	-0.068115	0.307617
948.0	3.561473	1.137433	13.417822	1.496695	-4.175811	-0.406061	-0.222412	-0.074707	0.328369
949.0	3.136165	2.686247	14.749072	1.683441	-4.852707	-0.231059	-0.224609	-0.074707	0.337402
950.0	2.818503	6.072152	15.131254	1.621909	-5.652707	0.048381	-0.21582	-0.079102	0.360352
951.0	2.996751	5.896516	14.933313	1.387457	-6.549682	0.420516	-0.204834	-0.076904	0.380859
952.0	4.730772	10.148005	15.355696	0.964228	-7.496643	0.81987	-0.19165	-0.079102	0.405762
953.0	6.361808	6.164514	14.718738	-0.061718	-8.019056	1.463958	-0.173828	-0.087891	0.426514
954.0	6.891096	-0.877464	15.781193	0.160291	-8.541803	1.571302	-0.160645	-0.089844	0.440186
955.0	11.477797	5.204705	18.55369	1.046833	-8.292821	1.520368	-0.13916	-0.085449	0.458252
956.0	10.499738	10.423157	17.755809	0.965244	-7.89359	2.059074	-0.128174	-0.085449	0.481201
957.0	12.405084	10.911518	15.28967	0.760002	-7.45045	2.162382	-0.112793	-0.089844	0.492676
958.0	17.097946	13.827496	24.862083	0.516696	-4.78027	1.189821	-0.123291	-0.096436	0.50415
959.0	17.640998	12.536224	27.759502	-0.144763	-0.844738	0.228204	-0.143066	-0.094238	0.494873
960.0	0.687645	9.629309	21.044571	-0.574403	1.200214	-0.20286	-0.166748	-0.098877	0.486084
961.0	-6.724353	4.907364	14.198641	-0.632262	1.194225	-0.060285	-0.184326	-0.09668	0.483643
962.0	-4.802447	0.848602	11.1936	-0.191477	0.781303	0.161416	-0.201904	-0.092529	0.48584
963.0	-1.558452	0.182906	10.594733	0.421987	0.829499	0.319013	-0.215576	-0.07959	0.476563
964.0	0.551563	1.599768	11.073405	0.741934	1.364591	0.383618	-0.22876	-0.077393	0.460449
965.0	0.885423	2.97361	11.256713	0.556421	2.09932	0.447922	-0.240723	-0.055664	0.450928
966.0	0.700455	2.910928	10.694137	0.060435	2.767311	0.457595	-0.260986	-0.040283	0.439453
967.0	0.775262	1.617193	9.84814	-0.370755	3.293933	0.454252	-0.279541	-0.018555	0.418457
968.0	1.073965	-0.163236	8.976995	-0.544057	3.736089	0.440307	-0.299805	-0.003418	0.415771
969.0	1.675944	-1.676602	8.668119	-0.404441	4.101871	0.439889	-0.320801	0.0271	0.390137
970.0	2.822136	-1.814808	8.668699	-0.115834	4.496292	0.461932	-0.343994	0.057373	0.366943
971.0	3.544185	-1.058985	8.905251	0.103942	4.929019	0.514389	-0.365234	0.092285	0.341064
972.0	3.869654	-0.065621	8.959801	0.156977	5.264803	0.593295	-0.391113	0.133789	0.301514
973.0	3.983775	0.19297	8.883525	0.141531	5.470046	0.657737	-0.405273	0.157715	0.250977
974.0	4.21479	0.11361	8.765775	0.172106	5.546887	0.620519	-0.399414	0.17749	0.202881
975.0	4.745313	0.706416	8.859302	0.229832	5.548184	0.482635	-0.376221	0.193115	0.15918
976.0	5.551664	1.58157	9.122078	0.222608	5.519235	0.263274	-0.337158	0.195557	0.149902
977.0	6.43936	2.236652	9.430261	0.140598	5.443702	-0.012754	-0.288818	0.189209	0.177246
978.0	7.211883	2.588738	9.466213	0.028217	5.310731	-0.318134	-0.277588	0.18042	0.243652
979.0	7.099036	3.183087	9.663764	-0.061302	5.085908	-0.658793	-0.305664	0.177979	0.33252
980.0	7.357489	3.940456	10.490211	-0.156042	4.756281	-1.02523	-0.397217	0.174805	0.405762
981.0	8.519398	4.072139	11.983497	-0.161022	4.463925	-1.437217	-0.528076	0.17627	0.424072
982.0	10.270045	5.136537	13.863741	-0.241874	4.410824	-1.774292	-0.664551	0.153564	0.392822
983.0	12.209821	5.084416	15.675264	-0.392625	4.513239	-1.843774	-0.774658	0.12915	0.311279
984.0	15.232071	3.192068	16.559253	-0.299448	4.710306	-1.690797	-0.849609	0.096191	0.200439
985.0	18.151827	2.049818	16.463827	0.109494	5.029104	-1.46504	-0.894043	0.067871	0.08252
986.0	19.472643	2.826966	15.277426	0.497725	5.239999	-1.253315	-0.901123	0.028809	-0.032959
987.0	20.620218	3.84711	13.32517	0.579615	5.155552	-1.086154	-0.897461	-0.003662	-0.137207
988.0	22.209686	3.267909	11.344918	0.540323	4.94023	-1.011115	-0.874268	-0.036133	-0.227783
989.0	23.366182	3.002217	9.735473	0.517599	4.751794	-1.020058	-0.836182	-0.055176	-0.307129
990.0	23.75485	2.490357	7.536792	0.438227	4.557776	-1.165586	-0.79541	-0.092041	-0.375
991.0	23.440989	1.685305	4.27725	0.221027	4.249488	-1.297218	-0.755371	-0.111084	-0.422363
992.0	22.866941	0.034745	0.478927	-0.05821	3.699472	-1.298937	-0.719727	-0.128418	-0.460938
993.0	23.28944	-2.119685	-3.062051	-0.164843	2.930743	-1.143938	-0.684326	-0.138916	-0.483398
994.0	24.297087	-3.780607	-6.607867	0.005971	2.135825	-0.853653	-0.657471	-0.154053	-0.508301
995.0	24.800045	-3.826868	-8.699865	0.206899	1.329008	-0.438516	-0.641846	-0.1604	-0.515137
996.0	24.956053	-3.753942	-9.545432	0.293046	0.533675	-0.104262	-0.624023	-0.171143	-0.521729
997.0	23.524016	-2.323832	-8.396947	0.187191	-0.201663	0.090653	-0.628418	-0.168945	-0.530762
998.0	22.462585	-1.591943	-6.170135	-0.05563	-0.928404	0.172702	-0.617432	-0.168945	-0.530762
999.0	21.039368	-0.970478	-3.167712	-0.213925	-1.569737	0.173119	-0.630371	-0.175537	-0.52832
1000.0	-0.59109	8.965406	5.685655	-2.139059	-3.249276	0.411054	-0.64624	-0.158203	-0.503662
1001.0	2.797426	-3.779496	16.300359	-1.836287	-4.33963	0.066613	-0.67041	-0.15625	-0.48999
1002.0	-2.275147	6.727946	14.821361	-1.63368	-5.108437	-0.152484	-0.690186	-0.154297	-0.464844
1003.0	7.233952	-8.543673	10.939565	-1.082716	-5.650709	0.020808	-0.718506	-0.152344	-0.433105
1004.0	17.359485	-4.486228	13.545524	-0.388034	-4.852943	-0.123482	-0.729004	-0.16333	-0.412354
1005.0	12.57122	-3.640429	12.110586	-0.28314	-4.244703	0.042862	-0.73999	-0.15918	-0.382813
1006.0	11.387797	-2.012024	10.848592	0.098669	-3.681612	0.15392	-0.759766	-0.159424	-0.364502
1007.0	7.786974	1.634094	10.507371	0.246523	-3.367388	-0.022999	-0.768066	-0.168213	-0.34375
1008.0	24.898766	11.643419	17.950385	-0.634226	-2.784375	0.09194	-0.779053	-0.161865	-0.337158
1009.0	16.525634	1.265665	9.315394	-1.212516	-0.390053	0.755648	-0.779785	-0.148682	-0.337402
1010.0	9.04687	-7.430362	10.641664	-0.476772	0.427665	0.348988	-0.775391	-0.150879	-0.344238
1011.0	6.94802	1.801803	9.984096	0.007142	0.558545	0.150858	-0.775635	-0.144287	-0.344238
1012.0	5.827881	1.142443	9.707485	-0.020702	0.633769	0.108264	-0.768555	-0.152832	-0.357666
1013.0	5.498372	1.113075	9.529304	0.023225	0.581439	0.069938	-0.768799	-0.148438	-0.353271
1014.0	5.243554	2.297807	9.294627	-0.015677	0.549978	0.059607	-0.766846	-0.144287	-0.355713
1015.0	4.767279	2.058704	9.474208	-0.110379	0.516136	0.090924	-0.77124	-0.146484	-0.362549
1016.0	4.528769	1.221707	9.620707	-0.159396	0.405916	0.100601	-0.770996	-0.148438	-0.364746
1017.0	4.552366	1.31224	9.598393	-0.174148	0.319589	0.099212	-0.769287	-0.137695	-0.367188
1018.0	4.470289	1.025212	9.572338	-0.186584	0.255229	0.104116	-0.769043	-0.141846	-0.374023
1019.0	4.561079	0.770086	9.437	-0.157997	0.192656	0.09793	-0.764893	-0.139648	-0.378662
1020.0	4.431837	1.018421	9.532826	-0.137251	0.17487	0.090865	-0.764893	-0.141846	-0.380859
1021.0	4.40874	1.173627	9.516704	-0.135431	0.159813	0.097401	-0.771484	-0.137695	-0.374023
1022.0	4.343255	0.882774	9.5346	-0.133857	0.115501	0.082023	-0.769531	-0.135498	-0.378662
1023.0	4.410412	0.955713	9.428793	-0.114339	0.063464	0.061464	-0.762695	-0.137451	-0.374023
1024.0	4.402717	1.162209	9.393548	-0.097441	0.034659	0.055082	-0.767334	-0.133301	-0.376465
1025.0	4.360933	0.984014	9.423102	-0.08378	-0.001203	0.057511	-0.764893	-0.137451	-0.380859
1026.0	4.346943	1.053625	9.427447	-0.077997	-0.022775	0.039626	-0.767334	-0.135498	-0.378662
1027.0	4.343918	1.184021	9.463655	-0.06779	-0.038109	0.064333	-0.765137	-0.135498	-0.376465
1028.0	4.453175	1.079944	9.350772	-0.07828	-0.049577	0.086142	-0.765381	-0.128906	-0.381104
1029.0	4.497502	1.019807	9.282643	-0.078353	-0.051545	0.086433	-0.767334	-0.133301	-0.371826
1030.0	4.442128	0.801394	9.424078	-0.067308	-0.062466	0.100607	-0.763184	-0.131104	-0.371826
1031.0	4.405643	0.79414	9.502651	-0.045415	-0.053745	0.09178	-0.769775	-0.128906	-0.376465
1032.0	4.393875	0.617409	9.525776	-0.022215	-0.05304	0.073107	-0.767578	-0.131104	-0.374268
1033.0	4.452889	0.727894	9.407967	0.004045	-0.058028	0.056188	-0.769775	-0.126709	-0.374268
1034.0	4.433379	0.690119	9.44416	0.029112	-0.06862	0.043397	-0.767578	-0.128906	-0.371826
1035.0	4.404829	0.91696	9.584233	0.041961	-0.087663	0.035676	-0.771973	-0.126709	-0.37207
1036.0	4.43774	0.892425	9.584054	0.02436	-0.132751	0.036452	-0.77002	-0.124512	-0.37207
1037.0	4.458006	0.979193	9.526168	0.021414	-0.159676	0.049216	-0.77002	-0.124512	-0.367432
1038.0	4.497325	0.969026	9.492462	0.017408	-0.205637	0.06041	-0.771973	-0.128906	-0.367432
1039.0	4.445269	0.936621	9.525766	0.022804	-0.241866	0.074108	-0.776367	-0.126709	-0.365234
1040.0	4.512062	0.859742	9.530863	0.024135	-0.266946	0.082046	-0.774414	-0.124512	-0.365234
1041.0	4.52323	0.898125	9.559822	0.031114	-0.28929	0.090384	-0.780762	-0.124512	-0.367432
1042.0	4.527473	0.87645	9.554775	0.034138	-0.331376	0.105076	-0.774414	-0.120117	-0.363037
1043.0	4.534935	0.799191	9.615739	0.053457	-0.360181	0.1049	-0.780762	-0.124756	-0.349121
1044.0	4.526026	0.774284	9.663512	0.083449	-0.397089	0.088847	-0.778809	-0.120361	-0.351563
1045.0	4.459548	0.782443	9.786611	0.107284	-0.453089	0.060601	-0.782959	-0.126953	-0.344482
1046.0	4.593505	0.760052	9.683458	0.13886	-0.521391	0.027092	-0.782959	-0.124756	-0.337891
1047.0	4.485592	0.919937	9.819619	0.258398	-0.577891	0.023249	-0.7854	-0.122559	-0.337891
1048.0	4.188693	0.411175	10.444295	0.268903	-0.675185	0.023985	-0.785156	-0.126953	-0.328613
1049.0	4.357688	0.520875	10.26948	0.377624	-0.832079	-0.030192	-0.791748	-0.126953	-0.330811
1050.0	4.356818	0.606943	10.41264	0.453605	-0.973699	-0.052476	-0.793701	-0.131348	-0.308105
1051.0	4.486825	0.387928	10.2373	0.561647	-1.135272	-0.09063	-0.802246	-0.133545	-0.310303
1052.0	4.494167	0.496957	10.503094	0.679738	-1.314477	-0.147707	-0.802246	-0.131348	-0.291992
1053.0	4.409313	0.537587	10.709551	0.790506	-1.52266	-0.21585	-0.804199	-0.138184	-0.273682
1054.0	4.431302	0.819116	10.894954	0.888126	-1.769155	-0.273859	-0.806641	-0.133789	-0.26001
1055.0	4.314917	1.054942	11.237488	0.921564	-2.039529	-0.325763	-0.812744	-0.142578	-0.243896
1056.0	4.360562	0.853965	11.222422	0.995402	-2.343068	-0.355481	-0.810303	-0.146973	-0.225586
1057.0	4.368116	0.963142	11.354495	1.113269	-2.656092	-0.378167	-0.819092	-0.147217	-0.196045
1058.0	4.375072	1.192788	11.533498	1.232697	-3.002071	-0.397474	-0.820801	-0.158203	-0.170654
1059.0	4.141653	1.723092	12.193149	1.2931	-3.412706	-0.395997	-0.822754	-0.1604	-0.141113
1060.0	3.862616	1.093715	12.779839	1.306987	-3.916097	-0.366117	-0.820313	-0.169189	-0.102051
1061.0	3.654039	1.196336	13.677041	1.401339	-4.520184	-0.335543	-0.82251	-0.165039	-0.056641
1062.0	3.55913	3.705365	14.328915	1.335594	-5.164534	-0.197028	-0.815918	-0.169434	-0.015625
1063.0	3.022146	6.613754	14.180975	1.003249	-5.885043	0.074175	-0.816162	-0.160645	0.036621
1064.0	3.087552	8.279486	14.7262	0.641859	-6.752937	0.465348	-0.80542	-0.160889	0.084473
1065.0	5.111133	11.549411	15.259649	-0.020314	-7.623076	0.994527	-0.788574	-0.143311	0.145752
1066.0	3.700348	6.857414	14.174678	-0.956003	-8.349219	1.590591	-0.765137	-0.132568	0.209229
1067.0	6.20323	-1.34003	15.272346	-0.765125	-8.918657	1.811145	-0.737305	-0.119385	0.272949
1068.0	13.264215	3.80818	18.81524	-0.023875	-8.545166	1.702161	-0.707275	-0.108398	0.32959
1069.0	9.502244	7.98923	15.705918	0.159395	-7.937668	1.890108	-0.675537	-0.088623	0.37915
1070.0	13.991917	8.370742	11.089249	0.179844	-7.606344	1.922288	-0.636963	-0.071045	0.415283
1071.0	17.771864	8.149923	21.736388	0.580122	-5.174243	1.28923	-0.613525	-0.057861	0.437744
1072.0	21.771778	9.576261	26.863268	0.523296	-1.066548	0.767672	-0.602783	-0.055664	0.428711
1073.0	2.70374	10.338639	20.701767	0.009191	1.263469	0.467481	-0.592041	-0.05127	0.424072
1074.0	-6.800246	6.960636	13.461305	-0.369463	1.157365	0.562532	-0.587891	-0.048828	0.4104
1075.0	-4.087396	2.706827	9.88264	-0.19524	0.500246	0.595622	-0.570801	-0.037842	0.412354
1076.0	0.186672	1.534384	9.237007	0.377605	0.549033	0.393436	-0.569092	-0.03125	0.405273
1077.0	1.689503	3.435182	10.016941	0.805799	1.257772	0.12769	-0.564697	-0.026855	0.386963
1078.0	1.103998	5.77663	10.162335	0.623268	2.073634	-0.033838	-0.567383	-0.018066	0.375488
1079.0	0.894231	5.894697	9.449874	0.0603	2.746007	-0.091635	-0.561035	-0.013672	0.364014
1080.0	1.283987	4.303131	8.567138	-0.434986	3.248746	-0.139639	-0.576416	-0.011719	0.343506
1081.0	1.984102	2.274849	7.966092	-0.619953	3.670287	-0.166929	-0.574707	-0.002686	0.320557
1082.0	2.59213	0.591209	7.793196	-0.495562	4.053499	-0.167738	-0.576904	-0.000488	0.302246
1083.0	3.222709	0.079751	7.787211	-0.237583	4.413463	-0.092434	-0.585938	0.005859	0.279297
1084.0	3.482565	-0.06107	7.7955	-0.010027	4.74233	0.044444	-0.596924	0.010254	0.25415
1085.0	3.518867	-0.088672	7.771144	0.146828	4.974693	0.21152	-0.597656	0.025635	0.22876
1086.0	3.766917	-0.355627	7.647432	0.286461	5.139589	0.324322	-0.609131	0.038818	0.205811
1087.0	4.174128	-0.268476	7.700657	0.442661	5.228523	0.363876	-0.607422	0.049805	0.173584
1088.0	4.304099	-0.253954	7.338361	0.493542	5.176383	0.350644	-0.616699	0.05835	0.152832
1089.0	5.446774	0.209819	8.29441	0.609199	5.174156	0.100624	-0.628174	0.071533	0.125244
1090.0	6.137453	0.62777	8.521021	0.572741	5.124239	-0.191479	-0.637207	0.078125	0.102539
1091.0	6.717006	0.701017	8.674513	0.466741	5.018846	-0.383999	-0.641846	0.08252	0.070557
1092.0	7.012259	0.950502	9.071978	0.276884	4.891768	-0.604092	-0.650635	0.086914	0.052246
1093.0	7.063475	0.72136	9.82992	0.117621	4.709345	-0.827546	-0.659668	0.095703	0.02002
1094.0	8.039258	0.244056	10.960225	0.113309	4.560877	-1.059002	-0.672852	0.0979	-0.009521
1095.0	9.390052	0.788198	12.322884	0.146405	4.576383	-1.19816	-0.677246	0.095703	-0.039063
1096.0	10.233456	1.625232	13.595778	0.049333	4.654622	-1.180571	-0.681396	0.093506	-0.073242
1097.0	10.996104	1.882942	14.563107	-0.118154	4.669724	-1.033501	-0.683838	0.095703	-0.112061
1098.0	13.088074	1.128315	15.500874	-0.086402	4.684623	-0.854245	-0.686035	0.098145	-0.148682
1099.0	15.797185	1.052209	16.135813	0.24818	4.852244	-0.777479	-0.683838	0.098145	-0.18042
1100.0	17.853496	2.886958	16.059622	0.589123	5.0917	-0.850467	-0.687744	0.087402	-0.218994
1101.0	19.052946	4.786379	15.09206	0.627587	5.194893	-1.058026	-0.678711	0.081055	-0.266846
1102.0	20.324073	5.115355	13.093918	0.433836	5.135299	-1.354235	-0.676025	0.070068	-0.307617
1103.0	21.306322	2.536519	10.871881	0.330256	4.957977	-1.615808	-0.662842	0.065918	-0.35083
1104.0	21.811663	1.439265	8.728936	0.338107	4.68488	-1.691117	-0.65332	0.048584	-0.380127
1105.0	21.695477	0.848668	6.25646	0.162074	4.296304	-1.680559	-0.644287	0.042236	-0.420898
1106.0	21.870286	-0.12223	3.530345	-0.137733	3.799476	-1.623771	-0.628662	0.033691	-0.452881
1107.0	21.896384	-1.844947	0.168106	-0.353539	3.232046	-1.481818	-0.615234	0.022949	-0.484375
1108.0	21.668443	-4.488159	-3.852314	-0.257223	2.421993	-1.10831	-0.612549	0.014404	-0.50708
1109.0	23.558608	-5.935678	-7.065261	0.219083	1.482159	-0.49153	-0.599365	0.012207	-0.520752
1110.0	25.349934	-5.893071	-8.233967	0.742051	0.77672	0.163489	-0.599121	0.005859	-0.527588
1111.0	24.573542	-4.040582	-7.946763	0.945253	0.143035	0.625135	-0.601563	0.01001	-0.534424
1112.0	22.741769	-2.056519	-6.558375	0.707637	-0.582505	0.807337	-0.607666	0.001221	-0.529541
1113.0	18.568166	9.221583	-1.639809	-1.030855	-1.698179	0.991042	-0.626465	0.029541	-0.518799
1114.0	7.348934	-5.908337	-7.847585	-2.613284	-4.504384	1.16421	-0.653564	0.05127	-0.496338
1115.0	1.811131	3.540226	23.42506	-1.0238	-4.549514	-0.147135	-0.679688	0.052979	-0.466797
1116.0	-0.29037	3.997769	15.298756	-1.53002	-5.233453	-0.005165	-0.706055	0.054932	-0.437256
1117.0	12.166774	-5.913846	10.967744	-0.844455	-5.404444	0.009671	-0.726074	0.063477	-0.400879
1118.0	15.781724	-4.081267	14.992551	-0.361834	-4.510376	-0.143386	-0.75415	0.061035	-0.364258
1119.0	14.25924	-2.900893	11.289481	-0.179836	-3.769738	0.129006	-0.765137	0.063232	-0.341553
1120.0	10.07697	-0.987328	10.967091	0.217251	-3.159485	0.091335	-0.77832	0.060791	-0.330078
1121.0	7.000969	1.670425	10.685886	0.33467	-2.881007	-0.005162	-0.791748	0.069336	-0.305176
1122.0	19.599618	9.897235	16.316453	-0.527978	-2.476538	0.007563	-0.800293	0.064941	-0.289063
1123.0	12.772413	1.162073	8.680027	-0.904941	-0.679146	0.51306	-0.802734	0.07373	-0.286865
1124.0	12.175315	-3.296465	10.935212	-0.408171	0.140038	0.270275	-0.800781	0.078125	-0.287109
1125.0	6.245367	0.504528	9.87727	0.004162	0.336339	0.136687	-0.798828	0.08252	-0.291748
1126.0	6.034383	1.075176	9.808823	0.051398	0.396606	0.07178	-0.79834	0.07373	-0.291504
1127.0	5.323535	0.485655	9.539274	0.160143	0.385433	0.019819	-0.79834	0.07373	-0.29834
1128.0	5.132514	2.064629	9.415851	0.14479	0.324297	0.001047	-0.796387	0.078125	-0.300781
1129.0	4.881352	1.594018	9.409086	0.132805	0.336235	0.012833	-0.798584	0.075928	-0.300781
1130.0	4.674123	1.491195	9.506216	0.117222	0.312126	0.003317	-0.796387	0.075928	-0.302979
1131.0	4.631264	1.640659	9.472886	0.077114	0.288009	0.009127	-0.790039	0.080322	-0.307617
1132.0	4.606269	1.459066	9.392024	0.051582	0.246579	0.014932	-0.794189	0.075928	-0.305176
1133.0	4.600727	1.15861	9.348072	0.052791	0.220086	0.017102	-0.794189	0.078125	-0.312256
1134.0	4.51108	1.231727	9.314991	0.065189	0.206098	0.012357	-0.794434	0.080322	-0.312256
1135.0	4.425705	1.485195	9.426295	0.06673	0.17758	0.025821	-0.791748	0.071533	-0.312012
1136.0	4.416397	1.543767	9.439609	0.062673	0.149798	0.036102	-0.791992	0.078125	-0.319092
1137.0	4.443595	1.526788	9.31871	0.053746	0.122943	0.033269	-0.787842	0.078125	-0.31665
1138.0	4.445963	1.554434	9.468356	0.056216	0.073831	0.03921	-0.7854	0.07373	-0.312012
1139.0	4.443095	1.573238	9.437905	0.062949	-0.005718	0.049011	-0.787842	0.08252	-0.310059
1140.0	4.356291	1.586513	9.517558	0.056566	-0.093093	0.069412	-0.787598	0.075928	-0.307617
1141.0	4.406799	1.70797	9.491757	0.039605	-0.196401	0.089642	-0.789795	0.078125	-0.30542
1142.0	4.472855	1.700449	9.40156	0.014486	-0.240643	0.113438	-0.794189	0.075928	-0.305176
1143.0	4.614631	1.773481	9.197088	-0.006684	-0.214456	0.128525	-0.792236	0.080322	-0.312256
1144.0	4.603433	1.660165	9.253716	-0.04991	-0.166027	0.141896	-0.794434	0.080322	-0.300781
1145.0	4.619247	1.414625	9.250075	-0.081626	-0.118835	0.142979	-0.794678	0.084717	-0.307617
1146.0	4.576811	1.321863	9.30512	-0.083891	-0.080685	0.124616	-0.79248	0.084717	-0.298584
1147.0	4.596398	1.198511	9.28746	-0.083259	-0.055855	0.111664	-0.797119	0.091309	-0.307861
1148.0	4.581556	1.166951	9.372802	-0.064732	-0.042517	0.094371	-0.796631	0.08252	-0.303223
1149.0	4.56822	1.228638	9.349332	-0.056045	-0.042014	0.091712	-0.794678	0.086914	-0.303223
1150.0	4.544961	1.35554	9.43483	-0.046377	-0.034307	0.103154	-0.797119	0.091309	-0.301025
1151.0	4.573288	1.566855	9.408182	-0.087452	-0.050259	0.108755	-0.801514	0.095459	-0.303467
1152.0	4.60944	1.438738	9.312702	-0.114683	-0.048008	0.133738	-0.794678	0.089111	-0.30542
1153.0	4.573672	1.426252	9.392591	-0.135528	-0.058472	0.144102	-0.797607	0.104248	-0.299072
1154.0	4.577783	1.360307	9.407339	-0.144641	-0.072453	0.151219	-0.799316	0.095459	-0.298828
1155.0	4.574397	1.20223	9.452835	-0.131772	-0.079128	0.151723	-0.790771	0.099854	-0.298828
1156.0	4.514649	1.145878	9.547951	-0.114012	-0.118631	0.152955	-0.797119	0.095459	-0.298828
1157.0	4.49456	1.01807	9.583706	-0.072785	-0.156566	0.139621	-0.797363	0.099854	-0.298828
1158.0	4.504432	1.086062	9.654653	-0.036695	-0.205945	0.123959	-0.797607	0.102051	-0.294434
1159.0	4.542269	1.185859	9.659386	-0.007086	-0.255392	0.11078	-0.799805	0.104248	-0.296631
1160.0	4.413493	0.877329	9.68865	0.080455	-0.315715	0.106213	-0.801758	0.102051	-0.287598
1161.0	4.428225	1.129435	9.930445	0.150266	-0.396954	0.098211	-0.797607	0.104248	-0.2854
1162.0	4.135264	0.752686	10.496835	0.153524	-0.528958	0.065939	-0.799561	0.099854	-0.287598
1163.0	4.268359	1.009652	10.354599	0.228486	-0.701024	0.039545	-0.806152	0.102051	-0.280762
1164.0	4.300679	0.817591	10.346845	0.316967	-0.875242	0.017099	-0.806152	0.102051	-0.271484
1165.0	4.290909	0.319798	10.371774	0.445323	-1.063803	-0.027491	-0.808105	0.097656	-0.257813
1166.0	4.311918	0.19223	10.505376	0.6031	-1.263975	-0.120609	-0.814453	0.091064	-0.253174
1167.0	4.339268	0.420235	10.543302	0.746096	-1.481964	-0.21518	-0.816895	0.097412	-0.239502
1168.0	4.336726	0.626342	10.727246	0.870423	-1.729377	-0.301836	-0.820801	0.088623	-0.228027
1169.0	4.379317	0.912683	10.92657	0.953	-1.978699	-0.375184	-0.829346	0.079834	-0.216309
1170.0	4.370474	1.134959	10.974947	0.998903	-2.232177	-0.420184	-0.828857	0.071045	-0.188965
1171.0	4.426161	1.447369	10.889797	1.093086	-2.500652	-0.442314	-0.8396	0.068848	-0.168213
1172.0	4.403919	1.613657	11.161287	1.201389	-2.801245	-0.454628	-0.843506	0.060059	-0.147705
1173.0	4.276764	1.688813	11.718964	1.283273	-3.181293	-0.451502	-0.849854	0.05542	-0.11792
1174.0	3.947375	2.232277	12.56778	1.278513	-3.644133	-0.408675	-0.854004	0.046631	-0.092773
1175.0	3.713135	1.970566	12.942421	1.319348	-4.170937	-0.287198	-0.858643	0.052979	-0.056396
1176.0	3.418503	2.97753	13.753121	1.459414	-4.773164	-0.085849	-0.860352	0.046387	-0.015137
1177.0	3.307133	6.630747	14.373681	1.446684	-5.463085	0.189945	-0.86084	0.054932	0.025635
1178.0	3.257667	7.258353	13.910559	0.991011	-6.241547	0.582693	-0.858398	0.04834	0.080566
1179.0	4.069628	9.504929	13.454779	0.567658	-7.050713	0.992208	-0.852539	0.063477	0.139404
1180.0	6.111015	9.860776	14.185703	-0.352408	-7.560943	1.558959	-0.842041	0.074463	0.198486
1181.0	6.322253	-0.285801	13.767486	-0.687295	-8.140731	1.883727	-0.82959	0.091797	0.266602
1182.0	10.495236	1.736718	17.315105	0.446185	-8.094166	1.641583	-0.806152	0.100342	0.327881
1183.0	8.225662	7.32919	15.324061	0.397305	-7.793919	1.961009	-0.782715	0.115723	0.379883
1184.0	9.488759	9.548496	14.807365	0.01169	-7.603744	2.320046	-0.752686	0.128906	0.425293
1185.0	12.65641	9.245308	14.318073	0.063784	-7.142735	1.897483	-0.729492	0.14209	0.477295
1186.0	20.747972	7.259163	24.42674	0.214557	-3.976487	0.806549	-0.720459	0.137695	0.481934
1187.0	15.480986	9.946035	26.143046	0.052628	-0.102282	-0.124403	-0.724854	0.137695	0.477539
1188.0	-1.137142	8.824571	18.53932	-0.45385	1.425821	-0.48211	-0.726563	0.128906	0.457031
1189.0	-6.653207	5.193458	12.632692	-0.863608	1.162988	-0.305176	-0.743652	0.120117	0.450439
1190.0	-3.924734	1.352791	9.77323	-0.759083	0.654566	-0.058602	-0.743652	0.11792	0.441406
1191.0	-0.471576	0.285278	9.290123	-0.262241	0.724508	0.039841	-0.74585	0.118164	0.427734
1192.0	1.679373	1.636961	10.035373	0.156884	1.334466	0.082204	-0.75415	0.109375	0.411865
1193.0	2.144592	3.514245	10.464603	0.128829	2.124226	0.157881	-0.765381	0.115723	0.393555
1194.0	2.419532	4.364721	10.422116	-0.270406	2.853001	0.263913	-0.773682	0.107178	0.373291
1195.0	2.901085	3.585737	9.668601	-0.744052	3.498753	0.36501	-0.793213	0.106934	0.34375
1196.0	2.925149	1.768926	8.730023	-0.936349	4.085299	0.416857	-0.799805	0.109375	0.300293
1197.0	2.713335	0.14846	7.831535	-0.743679	4.522503	0.40156	-0.815186	0.109375	0.261475
1198.0	2.488024	-0.1779	7.392235	-0.367336	4.818845	0.348022	-0.830322	0.107178	0.2229
1199.0	2.478271	0.827547	7.320157	-0.095227	4.9703	0.287893	-0.83252	0.107178	0.181885
1200.0	2.699474	1.676565	7.651741	-0.061012	5.021453	0.236316	-0.843262	0.100586	0.143311
1201.0	3.400251	1.696864	8.024165	-0.128898	5.045736	0.128863	-0.849854	0.105225	0.097656
1202.0	4.222696	1.246502	8.278559	-0.141277	5.088435	-0.013986	-0.856201	0.096436	0.052246
1203.0	4.861517	0.796621	8.503804	-0.06952	5.126464	-0.167467	-0.860352	0.092285	0.009033
1204.0	5.382726	0.454664	8.852026	0.039981	5.100136	-0.277268	-0.860107	0.087891	-0.036377
1205.0	6.165583	0.62836	9.066643	0.124074	5.00864	-0.319097	-0.853271	0.079346	-0.077393
1206.0	7.0813	1.416747	9.441761	0.061284	4.886959	-0.322065	-0.846191	0.070801	-0.118164
1207.0	7.667345	2.107065	10.180978	-0.088154	4.750481	-0.366068	-0.843994	0.06665	-0.163818
1208.0	8.600927	2.058526	11.146751	-0.150442	4.590218	-0.531535	-0.83667	0.053711	-0.20459
1209.0	9.560175	2.696307	12.287829	-0.13063	4.562344	-0.845058	-0.821045	0.045166	-0.236328
1210.0	10.00705	3.480124	13.344936	-0.206216	4.641389	-1.160458	-0.813965	0.030029	-0.2771
1211.0	10.465388	4.090058	14.27339	-0.371282	4.665305	-1.317743	-0.804199	0.008301	-0.312988
1212.0	12.135435	3.304592	15.212795	-0.48084	4.634856	-1.298429	-0.788574	-0.002441	-0.349365
1213.0	14.904295	2.1929	15.988219	-0.31099	4.688429	-1.196703	-0.766113	-0.017578	-0.385498
1214.0	17.557286	2.647969	16.082041	0.023912	4.864409	-1.077767	-0.74585	-0.028076	-0.421875
1215.0	18.993849	4.23725	15.340442	0.22775	5.055252	-1.029351	-0.721191	-0.043213	-0.460205
1216.0	19.819125	5.113195	13.584413	0.245076	5.081574	-1.071802	-0.692139	-0.0625	-0.489502
1217.0	20.777615	4.573667	11.588045	0.250836	4.988006	-1.190724	-0.66748	-0.077637	-0.518799
1218.0	21.165665	4.063006	9.254895	0.336012	4.836789	-1.293861	-0.635986	-0.096924	-0.550537
1219.0	20.997236	3.826778	6.537385	0.348566	4.600602	-1.281815	-0.604736	-0.112061	-0.570801
1220.0	20.733924	2.516402	3.527923	0.314803	4.16644	-1.259205	-0.580078	-0.127197	-0.586426
1221.0	20.877719	0.901262	0.650869	0.377184	3.640594	-1.143499	-0.557617	-0.144287	-0.608887
1222.0	20.758781	-1.428162	-2.587382	0.602598	2.973991	-0.906369	-0.531006	-0.152832	-0.613281
1223.0	20.469173	-3.512238	-5.812992	0.963347	2.031423	-0.556048	-0.525879	-0.168213	-0.62207
1224.0	22.877596	-3.998008	-7.4564	1.238997	1.081587	-0.12405	-0.520996	-0.178955	-0.626465
1225.0	24.312297	-3.141298	-7.380777	1.157718	0.400237	0.234353	-0.516357	-0.187744	-0.619385
1226.0	22.974079	-2.1888	-6.71901	0.704346	-0.225275	0.404434	-0.516113	-0.192139	-0.617188
1227.0	21.783207	-0.794925	-5.1232	0.199333	-0.889698	0.444542	-0.529541	-0.18335	-0.612793
1228.0	15.420396	10.774355	-4.737182	-2.702604	-3.066342	0.954723	-0.554688	-0.161865	-0.597168
1229.0	8.638956	-11.494836	-2.003571	-2.618406	-4.670406	0.960801	-0.579102	-0.148926	-0.574707
1230.0	0.284807	6.316665	25.553755	-1.502038	-4.924145	-0.334923	-0.609863	-0.144775	-0.547363
1231.0	3.252408	-2.440496	13.158138	-1.555989	-5.708643	-0.011989	-0.640625	-0.138672	-0.513184
1232.0	15.725731	-4.880955	11.344503	-0.894186	-5.327408	-0.14933	-0.662598	-0.136719	-0.479004
1233.0	16.032517	-2.655347	14.934449	-0.612436	-4.592548	-0.356585	-0.690674	-0.13916	-0.456055
1234.0	14.869781	-3.964542	11.741054	-0.34472	-3.603086	0.048397	-0.706055	-0.141357	-0.424072
1235.0	9.210888	-4.562993	11.009547	0.09666	-3.049747	0.054622	-0.717041	-0.139404	-0.403564
1236.0	6.089394	-0.077503	11.131744	0.417174	-2.835096	0.075654	-0.72998	-0.141602	-0.385498
1237.0	24.115416	12.394729	15.639651	-0.557262	-2.042874	0.490338	-0.732422	-0.133057	-0.383301
1238.0	11.734848	2.23693	8.79861	-1.078141	-0.518786	0.719464	-0.73291	-0.124268	-0.383545
1239.0	7.185257	-6.834145	9.825212	-0.468837	0.371952	0.50148	-0.739502	-0.12207	-0.385742
1240.0	7.412811	1.665661	9.742449	-0.034099	0.534336	0.222219	-0.733154	-0.119873	-0.385742
1241.0	6.489383	3.295996	9.412914	-0.034968	0.546468	0.17141	-0.730713	-0.12207	-0.392578
1242.0	5.132956	2.194425	9.688351	-0.113108	0.408659	0.194938	-0.730957	-0.119873	-0.390381
1243.0	4.929797	1.242669	9.486742	-0.203765	0.370192	0.209924	-0.729004	-0.115479	-0.397217
1244.0	4.796955	0.273942	9.584027	-0.192877	0.367817	0.155272	-0.726807	-0.113281	-0.401855
1245.0	4.789107	0.379433	9.512096	-0.104297	0.343166	0.091939	-0.731445	-0.108887	-0.408936
1246.0	4.669318	0.475877	9.529606	-0.038473	0.261015	0.042097	-0.724609	-0.115479	-0.406494
1247.0	4.708895	0.308853	9.505907	0.025035	0.191477	0.009169	-0.724854	-0.111084	-0.411133
1248.0	4.598883	0.616515	9.66393	0.077634	0.139511	-0.036681	-0.724854	-0.111084	-0.406494
1249.0	4.662869	0.990494	9.354807	0.094402	0.109575	-0.064676	-0.722412	-0.113281	-0.408691
1250.0	4.520682	1.10633	9.517969	0.119959	0.11597	-0.05666	-0.722412	-0.113281	-0.411133
1251.0	4.451538	0.946686	9.525095	0.133946	0.076321	-0.06458	-0.722412	-0.113281	-0.41333
1252.0	4.34264	0.910144	9.49892	0.180627	0.036009	-0.073487	-0.724365	-0.117676	-0.408691
1253.0	4.436349	1.36853	9.438659	0.201735	-0.002437	-0.066473	-0.729004	-0.115479	-0.408691
1254.0	4.582949	1.65912	9.165974	0.178541	-0.005019	-0.041305	-0.72876	-0.117676	-0.406494
1255.0	4.570618	1.428493	9.186112	0.166253	-0.021541	-0.005733	-0.722168	-0.119629	-0.40625
1256.0	4.475161	1.204538	9.388754	0.176617	-0.071723	0.014389	-0.726563	-0.119873	-0.404053
1257.0	4.470282	1.217928	9.537209	0.186739	-0.146522	0.013096	-0.728516	-0.12207	-0.408447
1258.0	4.561688	1.339644	9.464173	0.17537	-0.175974	0.020066	-0.726318	-0.12207	-0.40625
1259.0	4.550102	1.238553	9.49129	0.139015	-0.186829	0.017538	-0.72876	-0.117676	-0.401855
1260.0	4.690197	1.39906	9.322072	0.08841	-0.206994	0.020251	-0.72876	-0.119873	-0.40625
1261.0	4.714661	1.527245	9.29943	0.037577	-0.168202	0.035982	-0.730957	-0.119873	-0.39502
1262.0	4.743434	1.370044	9.287839	-0.033062	-0.120869	0.042483	-0.730957	-0.119873	-0.397217
1263.0	4.776072	1.417172	9.214012	-0.074496	-0.075325	0.042697	-0.731201	-0.115479	-0.401855
1264.0	4.560402	1.461866	9.44454	-0.107271	-0.114913	0.067438	-0.733154	-0.115479	-0.390381
1265.0	4.640219	1.753351	9.365118	-0.139918	-0.216888	0.106999	-0.733398	-0.113281	-0.399658
1266.0	4.680929	1.786752	9.210944	-0.209026	-0.232202	0.186436	-0.733154	-0.115479	-0.39502
1267.0	4.750057	1.36054	9.165168	-0.224894	-0.224176	0.216523	-0.733643	-0.108887	-0.395264
1268.0	4.708278	1.236428	9.345449	-0.218342	-0.219473	0.211194	-0.735596	-0.113281	-0.390381
1269.0	4.751106	1.07037	9.401438	-0.225947	-0.204892	0.224717	-0.738037	-0.106689	-0.390625
1270.0	4.682769	0.814514	9.392611	-0.193497	-0.206172	0.216859	-0.736084	-0.100342	-0.395264
1271.0	4.663987	0.670272	9.576019	-0.133785	-0.238189	0.182598	-0.733643	-0.104492	-0.383789
1272.0	4.659099	0.783016	9.657911	-0.077016	-0.282508	0.164333	-0.742676	-0.102539	-0.38623
1273.0	4.717474	0.878805	9.583928	-0.028745	-0.33429	0.156197	-0.74292	-0.095947	-0.384033
1274.0	4.71725	1.031197	9.576688	0.069788	-0.382843	0.147056	-0.747314	-0.095947	-0.381592
1275.0	4.770738	1.145524	9.598947	0.101923	-0.421419	0.175973	-0.749268	-0.100342	-0.376953
1276.0	4.401902	0.555894	10.083398	0.133636	-0.484967	0.152756	-0.751221	-0.104736	-0.370117
1277.0	4.6433	0.418657	9.846241	0.213298	-0.602145	0.084155	-0.751709	-0.091553	-0.372559
1278.0	4.684341	0.602858	9.924365	0.297312	-0.693612	0.037665	-0.755859	-0.098145	-0.361084
1279.0	4.651012	0.586415	10.046174	0.366145	-0.807978	0.004158	-0.762207	-0.100586	-0.349609
1280.0	4.531437	0.586876	10.332079	0.457603	-0.941138	-0.043467	-0.764404	-0.100586	-0.342773
1281.0	4.748826	0.832687	10.255144	0.527447	-1.118415	-0.086138	-0.766357	-0.10498	-0.335938
1282.0	4.668543	0.741636	10.407826	0.607219	-1.299832	-0.117846	-0.770752	-0.10498	-0.331299
1283.0	4.642887	0.629059	10.456675	0.681402	-1.499378	-0.189939	-0.770508	-0.11377	-0.30835
1284.0	4.707026	0.661339	10.519944	0.731685	-1.726755	-0.257276	-0.774658	-0.11377	-0.297119
1285.0	4.732152	0.961434	10.631769	0.852834	-1.965939	-0.315108	-0.789795	-0.118408	-0.276367
1286.0	4.662602	1.047941	10.81597	0.923602	-2.21734	-0.341031	-0.793945	-0.122803	-0.255859
1287.0	4.569191	1.217915	11.119041	0.98227	-2.521261	-0.374436	-0.795654	-0.133789	-0.230469
1288.0	4.354867	1.626503	11.816027	1.007316	-2.8929	-0.397804	-0.802002	-0.138184	-0.205322
1289.0	4.242392	1.392408	11.968584	0.995679	-3.346179	-0.395329	-0.814697	-0.14502	-0.17334
1290.0	4.113239	2.307913	12.490427	1.094302	-3.835341	-0.350423	-0.821289	-0.147217	-0.141357
1291.0	4.004442	2.136555	13.610668	1.154194	-4.370547	-0.177271	-0.825439	-0.149658	-0.102539
1292.0	3.622208	4.459928	14.041062	1.064691	-5.004795	0.078351	-0.825439	-0.149658	-0.059326
1293.0	3.538963	4.6972	13.682797	1.048979	-5.711453	0.342266	-0.832275	-0.141113	0.0
1294.0	4.457306	7.80672	13.182411	0.869204	-6.440763	0.687512	-0.834717	-0.13916	0.054443
1295.0	5.30619	10.059893	14.975086	0.003934	-7.071781	1.165115	-0.833252	-0.124023	0.113525
1296.0	5.022394	5.036722	12.69025	-0.789481	-7.772284	1.630132	-0.82251	-0.117432	0.172607
1297.0	9.20048	-2.532339	14.27003	-0.333662	-8.008777	1.629937	-0.810059	-0.104492	0.245361
1298.0	10.973774	4.427818	15.897037	0.266631	-7.47375	1.501632	-0.792969	-0.095703	0.299805
1299.0	8.851006	8.34434	15.109333	0.171445	-7.401308	1.705219	-0.776367	-0.073975	0.36084
1300.0	10.505076	6.628867	11.747243	0.050589	-7.381654	1.807773	-0.748291	-0.06958	0.410889
1301.0	15.571746	7.043659	20.549434	0.341045	-5.553063	1.144037	-0.727051	-0.058594	0.442627
1302.0	21.662455	7.897793	25.338981	0.45116	-1.979837	0.453918	-0.727051	-0.058594	0.447021
1303.0	7.079979	9.656129	21.748855	0.091416	0.756536	-0.063068	-0.727051	-0.056396	0.437988
1304.0	-2.930838	7.734655	15.37921	-0.388771	1.416182	-0.108605	-0.729004	-0.062988	0.428955
1305.0	-4.73936	3.325894	11.200312	-0.443209	1.090999	0.024603	-0.730957	-0.06958	0.422363
1306.0	-2.544225	1.070992	9.220842	-0.008972	0.842267	0.063974	-0.733154	-0.067383	0.417725
1307.0	-0.491553	1.174023	9.044831	0.559823	0.991193	0.005637	-0.73999	-0.058594	0.403809
1308.0	0.920007	3.3123	9.706665	0.802053	1.453948	-0.033493	-0.741943	-0.062988	0.401611
1309.0	1.491168	4.786296	10.129411	0.518908	2.053488	0.004504	-0.746582	-0.058594	0.381104
1310.0	1.935693	4.730876	9.98441	-0.035015	2.667293	0.051562	-0.759521	-0.060791	0.358398
1311.0	2.210031	3.114638	9.352394	-0.48094	3.214825	0.124931	-0.763916	-0.060791	0.333252
1312.0	2.490793	0.832696	8.850679	-0.512494	3.699258	0.181022	-0.779053	-0.065186	0.301514
1313.0	3.236954	-0.763348	8.561119	-0.116948	4.158791	0.187193	-0.792236	-0.065186	0.267334
1314.0	3.736427	-0.633351	8.408084	0.395113	4.609343	0.175552	-0.798584	-0.065186	0.237549
1315.0	3.675619	0.848576	8.531566	0.679448	4.978444	0.20406	-0.814453	-0.056396	0.191895
1316.0	3.672933	1.786082	8.507996	0.639064	5.226634	0.285763	-0.823242	-0.054199	0.155518
1317.0	3.879694	1.367929	8.402192	0.539878	5.340079	0.32115	-0.827881	-0.047607	0.105225
1318.0	4.630281	0.729231	8.218757	0.549577	5.360661	0.270138	-0.833984	-0.056152	0.059814
1319.0	5.204652	0.546415	8.169437	0.665151	5.343629	0.155275	-0.838623	-0.051758	0.011719
1320.0	5.530479	0.749625	8.518916	0.771225	5.220192	0.020691	-0.832031	-0.051514	-0.029297
1321.0	6.781714	1.251934	8.991669	0.772882	5.018151	-0.098942	-0.833984	-0.058105	-0.067871
1322.0	7.798165	1.953568	9.575143	0.657993	4.864447	-0.233741	-0.829346	-0.062256	-0.108887
1323.0	8.314642	2.666187	10.381793	0.468832	4.708846	-0.432113	-0.820313	-0.068604	-0.147461
1324.0	8.962894	2.844554	11.476682	0.350501	4.591072	-0.763661	-0.813477	-0.074951	-0.195068
1325.0	9.515567	3.302075	12.635533	0.28061	4.583135	-1.17421	-0.795654	-0.083496	-0.233643
1326.0	9.738446	4.002837	13.554524	0.107778	4.584801	-1.503403	-0.779785	-0.096436	-0.272217
