Acquisition frequency: 100 Hz
PacketCounter	Acc_X	Acc_Y	Acc_Z	Gyr_X	Gyr_Y	Gyr_Z	Mag_X	Mag_Y	Mag_Z
1.0	9.823853	-0.718074	2.073069	0.017715	0.030162	-0.00649	-0.584229	0.22168	-0.621338
2.0	9.802503	-0.705409	2.081427	0.018871	0.029932	-0.005489	-0.582275	0.230469	-0.624023
3.0	9.786555	-0.719708	2.057517	0.012242	0.030219	-0.004857	-0.582031	0.223877	-0.623779
4.0	9.780504	-0.692257	2.092939	0.00986	0.033359	-0.003198	-0.588867	0.228271	-0.619385
5.0	9.782459	-0.71304	2.040278	0.006768	0.030275	-0.003225	-0.579834	0.223877	-0.628418
6.0	9.779206	-0.691314	2.099307	0.007828	0.0341	-0.002938	-0.584473	0.230469	-0.628662
7.0	9.774339	-0.743869	2.090501	-0.002441	0.030776	-0.006851	-0.577393	0.22168	-0.628418
8.0	9.77368	-0.743402	2.093749	0.003762	0.035571	-0.00242	-0.589111	0.232666	-0.626465
9.0	9.752252	-0.731314	2.10211	-0.000661	0.028403	-0.004992	-0.577393	0.219482	-0.623779
10.0	9.765543	-0.774349	2.143673	0.000398	0.032229	-0.004703	-0.584473	0.226074	-0.626221
11.0	9.807883	-0.738753	2.124679	-0.005608	0.030367	-0.003223	-0.584229	0.219482	-0.623779
12.0	9.753156	-0.735984	2.134737	-0.004806	0.032543	-0.000822	-0.586426	0.223877	-0.619141
13.0	9.749692	-0.730337	2.114288	-0.008263	0.033255	-0.003822	-0.577637	0.223877	-0.628418
14.0	9.730998	-0.724051	2.146231	-0.003923	0.032057	-0.002073	-0.582275	0.228271	-0.624023
15.0	9.717895	-0.744451	2.145717	-0.007556	0.028448	-0.006618	-0.579834	0.223877	-0.626221
16.0	9.704752	-0.764856	2.145384	-0.002864	0.035891	-0.001779	-0.582031	0.223877	-0.626221
17.0	9.713731	-0.738758	2.128552	-0.007449	0.034052	0.002952	-0.577881	0.232666	-0.626465
18.0	9.694898	-0.732946	2.160734	-0.004625	0.036893	0.000736	-0.579834	0.223877	-0.623779
19.0	9.732977	-0.750989	2.130302	-0.009221	0.036449	0.001099	-0.57959	0.22168	-0.628418
20.0	9.714096	-0.745284	2.162563	-0.008951	0.036714	0.003357	-0.580078	0.228271	-0.628662
21.0	9.682703	-0.760388	2.191375	-0.00895	0.03672	0.00336	-0.582031	0.226074	-0.621582
22.0	9.688974	-0.728955	2.150982	-0.009747	0.034553	0.000959	-0.582275	0.228271	-0.626221
23.0	9.663008	-0.755248	2.226762	-0.004875	0.033871	0.007226	-0.588867	0.228271	-0.624023
24.0	9.658078	-0.809063	2.217851	-0.007705	0.032434	0.005077	-0.579834	0.226074	-0.619385
25.0	9.626679	-0.824593	2.246201	-0.00487	0.032484	0.011597	-0.582275	0.228271	-0.626221
26.0	9.680067	-0.828398	2.242105	-0.004071	0.023598	0.009503	-0.584473	0.226074	-0.628662
27.0	9.71536	-0.825997	2.266593	0.000703	0.028377	0.010699	-0.579834	0.223877	-0.619141
28.0	9.684386	-0.857167	2.215	0.004241	0.024997	0.010051	-0.575439	0.230469	-0.633301
29.0	9.714375	-0.843477	2.192285	0.007956	0.025945	0.010953	-0.577637	0.226074	-0.626221
30.0	9.718969	-0.855668	2.242216	0.009902	0.027888	0.014363	-0.577637	0.223877	-0.635498
31.0	9.761458	-0.821237	2.223021	0.01008	0.022545	0.007047	-0.571045	0.228271	-0.628662
32.0	9.733223	-0.857857	2.194866	0.009372	0.02598	0.014218	-0.580078	0.228271	-0.626221
33.0	9.747699	-0.843745	2.224426	0.012645	0.022338	0.011315	-0.577637	0.228271	-0.628662
34.0	9.733575	-0.800994	2.187898	0.014148	0.019689	0.010919	-0.579834	0.226074	-0.630859
35.0	9.741322	-0.83408	2.181639	0.016626	0.024946	0.010112	-0.572998	0.226074	-0.633301
36.0	9.758908	-0.840788	2.155503	0.017512	0.024452	0.008861	-0.580078	0.230469	-0.640381
37.0	9.752536	-0.814363	2.190472	0.019991	0.029711	0.008055	-0.580078	0.228271	-0.628662
38.0	9.730945	-0.803022	2.198825	0.015839	0.035258	0.007845	-0.580078	0.228271	-0.630859
39.0	9.691767	-0.801036	2.156125	0.01469	0.024413	0.002342	-0.575439	0.228271	-0.628662
40.0	9.660431	-0.815658	2.183968	0.009384	0.028802	0.005491	-0.580078	0.228271	-0.630859
41.0	9.659906	-0.815557	2.186325	0.012572	0.018138	-0.002616	-0.575439	0.228271	-0.628662
42.0	9.659519	-0.815136	2.188193	0.012834	0.018403	-0.000357	-0.586914	0.230469	-0.628662
43.0	9.675146	-0.863887	2.252453	0.017165	0.017199	0.001409	-0.580078	0.230469	-0.626465
44.0	9.674795	-0.863567	2.254083	0.023883	0.012843	0.00153	-0.58252	0.232666	-0.631104
45.0	9.641142	-0.872167	2.257195	0.029277	0.01548	0.003595	-0.575439	0.226074	-0.628662
46.0	9.691728	-0.853117	2.308032	0.033701	0.011597	0.001707	-0.582275	0.230469	-0.631104
47.0	9.668077	-0.835503	2.290674	0.038023	0.009009	0.007845	-0.580078	0.228271	-0.630859
48.0	9.691184	-0.852599	2.310507	0.040058	0.008282	0.007603	-0.586914	0.230469	-0.628662
49.0	9.685874	-0.841492	2.264146	0.041292	0.003981	0.009325	-0.580078	0.228271	-0.637939
50.0	9.719078	-0.832413	2.26316	0.039967	-0.000118	0.006775	-0.580078	0.228271	-0.626221
51.0	9.70651	-0.852997	2.260047	0.041378	-7.7e-05	0.010043	-0.571045	0.232666	-0.633545
52.0	9.728926	-0.80609	2.243459	0.043768	-0.003223	0.008406	-0.586914	0.230469	-0.626465
53.0	9.705625	-0.788778	2.224525	0.041286	-0.008476	0.009222	-0.577881	0.230469	-0.626465
54.0	9.687547	-0.782326	2.252374	0.036246	-0.013534	0.005766	-0.584473	0.230469	-0.626465
55.0	9.739285	-0.779587	2.221588	0.038639	-0.005576	0.008607	-0.577637	0.226074	-0.630859
56.0	9.723629	-0.778617	2.273663	0.03431	-0.004375	0.006837	-0.580078	0.230469	-0.624023
57.0	9.746756	-0.747863	2.177422	0.030512	-0.001256	0.00521	-0.577637	0.226074	-0.633301
58.0	9.74919	-0.753267	2.201621	0.030872	0.007434	0.008288	-0.580078	0.232666	-0.628906
59.0	9.733257	-0.752322	2.254873	0.027428	0.008129	0.005266	-0.58252	0.232666	-0.631104
60.0	9.733028	-0.752356	2.255852	0.021941	0.008177	0.006856	-0.58252	0.232666	-0.631104
61.0	9.714553	-0.746104	2.285321	0.02026	0.006488	0.005705	-0.580078	0.230469	-0.631104
62.0	9.725204	-0.784064	2.301456	0.023443	0.005529	0.006473	-0.58667	0.228271	-0.628662
63.0	9.689242	-0.787347	2.27982	0.021591	0.000871	-0.000586	-0.581787	0.219482	-0.633057
64.0	9.719972	-0.772835	2.254886	0.022377	0.001692	0.006188	-0.580078	0.228271	-0.628662
65.0	9.674057	-0.802554	2.253356	0.01981	0.000504	0.006287	-0.580078	0.230469	-0.633301
66.0	9.701481	-0.766643	2.284366	0.026546	0.008651	0.006521	-0.582031	0.226074	-0.626221
67.0	9.737065	-0.763141	2.307665	0.023897	0.011536	0.005897	-0.575439	0.226074	-0.628662
68.0	9.745039	-0.795617	2.300738	0.02275	0.011767	0.004889	-0.582031	0.226074	-0.633301
69.0	9.770413	-0.770579	2.229694	0.019486	0.016801	0.003396	-0.577637	0.226074	-0.633301
70.0	9.782486	-0.749853	2.235012	0.012768	0.021147	0.003248	-0.582275	0.228271	-0.628662
71.0	9.763694	-0.743429	2.265778	0.009586	0.022109	0.002479	-0.572998	0.226074	-0.628662
72.0	9.812274	-0.735639	2.214267	0.005256	0.023298	0.000699	-0.58252	0.234863	-0.635742
73.0	9.822527	-0.773649	2.232098	0.005778	0.023851	0.005217	-0.575684	0.232666	-0.628906
74.0	9.808632	-0.73077	2.195459	0.000835	0.027192	0.002569	-0.582275	0.230469	-0.633301
75.0	9.806215	-0.789576	2.210551	0.003585	0.032737	0.004009	-0.575439	0.226074	-0.635498
76.0	9.761382	-0.76082	2.199685	0.002792	0.030542	0.001609	-0.582275	0.228271	-0.628662
77.0	9.71732	-0.795829	2.224545	-0.000389	0.031506	0.000838	-0.580078	0.228271	-0.628662
78.0	9.716676	-0.795952	2.227311	-0.000843	0.02551	0.00142	-0.575439	0.228271	-0.626221
79.0	9.691888	-0.762528	2.290319	-0.002344	0.028169	0.001802	-0.572998	0.223877	-0.628418
80.0	9.66129	-0.793543	2.2388	-0.009515	0.026519	0.002226	-0.580078	0.228271	-0.633301
81.0	9.688119	-0.758018	2.271904	-0.006153	0.029915	0.004537	-0.577881	0.230469	-0.631104
82.0	9.672408	-0.774006	2.247799	-0.006507	0.032348	0.005931	-0.580078	0.228271	-0.633301
83.0	9.659156	-0.795379	2.247338	-0.001824	0.028735	0.006327	-0.577637	0.226074	-0.630859
84.0	9.684132	-0.818441	2.292767	-0.001547	0.030388	0.004214	-0.579834	0.223877	-0.630859
85.0	9.642769	-0.811702	2.226109	-0.001012	0.032317	0.004361	-0.575439	0.226074	-0.628662
86.0	9.680229	-0.813801	2.275086	-0.000913	0.029616	0.000712	-0.584473	0.228271	-0.635498
87.0	9.658751	-0.80218	2.282589	-0.004905	0.027005	0.001905	-0.575439	0.226074	-0.630859
88.0	9.697455	-0.820533	2.251583	-0.00702	0.020678	-0.003048	-0.579834	0.226074	-0.630859
89.0	9.7095	-0.799674	2.257075	-0.010811	0.023797	-0.004691	-0.580078	0.228271	-0.630859
90.0	9.750686	-0.823048	2.249627	-0.00931	0.02114	-0.00507	-0.580078	0.230469	-0.633301
91.0	9.747844	-0.81733	2.228023	-0.011065	0.023527	-0.006948	-0.579834	0.226074	-0.633301
92.0	9.747366	-0.816794	2.230308	-0.010785	0.025182	-0.009059	-0.580078	0.228271	-0.628662
93.0	9.777867	-0.801765	2.207566	-0.005825	0.023214	-0.010773	-0.579834	0.223877	-0.640137
94.0	9.746499	-0.815091	2.234718	-0.006359	0.021289	-0.010919	-0.575439	0.230469	-0.626465
95.0	9.764613	-0.820529	2.20817	-0.006002	0.01886	-0.012311	-0.575439	0.226074	-0.635498
96.0	9.707749	-0.811197	2.192356	0.000891	0.018864	-0.010605	-0.580078	0.232666	-0.638184
97.0	9.699684	-0.841539	2.23803	0.002393	0.016205	-0.010985	-0.573242	0.228271	-0.630859
98.0	9.645244	-0.837634	2.245587	0.002113	0.014553	-0.008872	-0.582031	0.226074	-0.630859
99.0	9.655164	-0.810602	2.226603	0.005649	0.01116	-0.009485	-0.575439	0.230469	-0.635742
100.0	9.690676	-0.80609	2.250119	0.007938	0.010703	-0.007459	-0.575439	0.228271	-0.628662
101.0	9.672007	-0.798727	2.27963	0.009973	0.009971	-0.007692	-0.575439	0.226074	-0.633301
102.0	9.692714	-0.809542	2.275846	0.00944	0.008043	-0.007838	-0.577881	0.232666	-0.628906
103.0	9.680087	-0.829551	2.273277	0.012234	0.008136	-0.001294	-0.573242	0.230469	-0.631104
104.0	9.704892	-0.787467	2.281056	0.016333	0.00805	-0.006129	-0.577881	0.232666	-0.635742
105.0	9.692254	-0.807414	2.278559	0.016838	0.008602	-0.00161	-0.570801	0.226074	-0.633301
106.0	9.700417	-0.839369	2.271502	0.024264	0.01054	0.000247	-0.573242	0.230469	-0.631104
107.0	9.691815	-0.806312	2.280814	0.019408	0.009802	-0.001694	-0.579834	0.226074	-0.633301
108.0	9.712447	-0.81746	2.277281	0.021977	0.011001	-0.001778	-0.582275	0.228271	-0.633301
109.0	9.745531	-0.807942	2.27727	0.021086	0.011508	-0.000532	-0.575439	0.228271	-0.630859
110.0	9.742952	-0.801979	2.254835	0.020835	0.011234	-0.00279	-0.582275	0.228271	-0.637939
111.0	9.724195	-0.794942	2.284444	0.019661	0.010088	0.000569	-0.572998	0.226074	-0.630859
112.0	9.7263	-0.799755	2.309281	0.01941	0.009813	-0.00169	-0.575439	0.228271	-0.630859
113.0	9.742304	-0.800068	2.258313	0.021477	0.010459	-0.006291	-0.575439	0.230469	-0.637939
114.0	9.742195	-0.79925	2.259073	0.01842	0.00187	-0.001257	-0.580078	0.230469	-0.631104
115.0	9.721279	-0.786817	2.264225	0.022416	0.004497	-0.002439	-0.573242	0.228271	-0.635498
116.0	9.744403	-0.803121	2.283794	0.020739	0.002795	-0.003599	-0.577881	0.230469	-0.637939
117.0	9.7383	-0.77508	2.316023	0.020739	0.002797	-0.003598	-0.577881	0.230469	-0.631104
118.0	9.741944	-0.796332	2.261184	0.020022	0.007669	-0.000818	-0.580078	0.230469	-0.635742
119.0	9.729304	-0.816623	2.258681	0.023453	0.006993	0.002227	-0.582031	0.226074	-0.628662
120.0	9.689675	-0.797884	2.292843	0.01791	0.01249	-0.001313	-0.580078	0.228271	-0.626221
121.0	9.718954	-0.766702	2.348378	0.015843	0.011849	0.003289	-0.570801	0.223877	-0.633057
122.0	9.701621	-0.776621	2.298622	0.021167	0.007451	0.000201	-0.577637	0.228271	-0.630859
123.0	9.703725	-0.781663	2.323294	0.019633	0.008742	0.004948	-0.575439	0.228271	-0.635498
124.0	9.688741	-0.797039	2.29708	0.018849	0.006533	0.002545	-0.575439	0.228271	-0.635498
125.0	9.690829	-0.802142	2.321779	0.02106	0.010173	0.00385	-0.579834	0.226074	-0.633301
126.0	9.706807	-0.803231	2.270916	0.021344	0.011826	0.001737	-0.575684	0.232666	-0.628906
127.0	9.727363	-0.814757	2.267696	0.023021	0.013536	0.002898	-0.575439	0.228271	-0.633301
128.0	9.722461	-0.804043	2.221634	0.022488	0.011607	0.002755	-0.58252	0.232666	-0.642822
129.0	9.718376	-0.781747	2.278396	0.022489	0.01161	0.002756	-0.572998	0.226074	-0.630859
130.0	9.721892	-0.803437	2.224341	0.02163	0.013487	-0.000374	-0.577637	0.226074	-0.630859
131.0	9.736348	-0.78753	2.252901	0.02506	0.012819	0.002676	-0.577637	0.228271	-0.630859
132.0	9.736095	-0.787117	2.254139	0.023743	0.008675	0.000131	-0.577881	0.232666	-0.633545
133.0	9.735888	-0.786665	2.255192	0.02285	0.009184	0.001374	-0.575439	0.230469	-0.633301
134.0	9.766759	-0.772028	2.231167	0.020924	0.007193	-0.002043	-0.580078	0.228271	-0.633301
135.0	9.754143	-0.792298	2.228624	0.020889	0.005829	0.002332	-0.582275	0.228271	-0.635498
136.0	9.733091	-0.780284	2.234097	0.026281	0.008524	0.004428	-0.577881	0.232666	-0.628906
137.0	9.730593	-0.774867	2.211397	0.023995	0.008972	0.002395	-0.580078	0.228271	-0.628662
138.0	9.732652	-0.779854	2.236158	0.020531	0.008275	0.00372	-0.584473	0.228271	-0.633301
139.0	9.693	-0.761324	2.269917	0.02114	0.006122	0.004595	-0.571045	0.228271	-0.633301
140.0	9.703493	-0.799078	2.286491	0.016533	0.005647	0.004902	-0.577881	0.230469	-0.631104
141.0	9.682428	-0.787384	2.29186	0.015031	0.00831	0.005269	-0.573242	0.230469	-0.635742
142.0	9.703015	-0.799556	2.288353	0.014921	0.011037	0.008912	-0.582275	0.228271	-0.633301
143.0	9.733778	-0.785955	2.264525	0.015815	0.010532	0.007671	-0.575195	0.223877	-0.628418
144.0	9.733457	-0.786344	2.265771	0.01635	0.012468	0.007814	-0.582275	0.228271	-0.630859
145.0	9.716148	-0.796932	2.216258	0.015853	0.011898	0.003297	-0.573486	0.232666	-0.633545
146.0	9.732762	-0.786768	2.268609	0.016526	0.016848	0.00934	-0.579834	0.226074	-0.628662
147.0	9.72394	-0.754665	2.278178	0.010527	0.016306	0.006368	-0.573242	0.230469	-0.633301
148.0	9.731906	-0.78771	2.271951	0.007061	0.015609	0.00769	-0.580078	0.228271	-0.635498
149.0	9.710658	-0.776279	2.277987	0.010887	0.013867	0.004987	-0.573242	0.228271	-0.637939
150.0	9.752055	-0.800131	2.270281	0.008067	0.012374	0.002808	-0.577881	0.230469	-0.633301
151.0	9.747195	-0.790121	2.224353	0.009026	0.018976	0.006734	-0.575195	0.22168	-0.633057
152.0	9.749013	-0.795432	2.249856	0.012069	0.015011	0.001631	-0.573242	0.228271	-0.630859
153.0	9.742483	-0.768028	2.283044	0.01028	0.016028	0.004112	-0.575439	0.228271	-0.637939
154.0	9.745996	-0.790355	2.229522	0.009961	0.019833	0.001119	-0.577881	0.230469	-0.633301
155.0	9.739409	-0.762908	2.262934	0.009139	0.016252	0.003095	-0.577637	0.228271	-0.633301
156.0	9.726526	-0.783616	2.261359	0.009427	0.017901	0.000978	-0.580078	0.228271	-0.628662
157.0	9.715491	-0.745798	2.24734	0.006784	0.020787	0.000322	-0.568604	0.226074	-0.640137
158.0	9.727757	-0.788711	2.289307	0.004635	0.024251	0.004185	-0.577881	0.230469	-0.631104
159.0	9.701936	-0.766799	2.24857	0.000675	0.022976	0.000984	-0.573242	0.228271	-0.637939
160.0	9.703622	-0.772076	2.274465	0.002423	0.020602	0.002883	-0.580078	0.230469	-0.628662
161.0	9.705354	-0.777244	2.300155	-0.000641	0.018818	-0.001559	-0.577881	0.230469	-0.631104
162.0	9.711187	-0.804731	2.270161	-0.002898	0.013807	0.001514	-0.584473	0.230469	-0.631104
163.0	9.658813	-0.807078	2.300896	-0.006076	0.014756	0.000713	-0.575439	0.226074	-0.637939
164.0	9.70432	-0.777666	2.30437	-0.007752	0.01304	-0.000449	-0.577881	0.232666	-0.638184
165.0	9.689397	-0.793353	2.278385	-0.009429	0.011324	-0.001612	-0.575439	0.230469	-0.631104
166.0	9.724729	-0.789569	2.30184	-0.010745	0.007162	-0.004157	-0.579834	0.226074	-0.640137
167.0	9.691255	-0.798459	2.303485	-0.008753	0.005074	0.0	-0.572998	0.226074	-0.635498
168.0	9.66839	-0.845265	2.320833	-0.011861	0.001929	-6.7e-05	-0.577881	0.232666	-0.635742
169.0	9.722355	-0.784671	2.278858	-0.008277	-0.000105	-0.005025	-0.573242	0.230469	-0.635742
170.0	9.712115	-0.810192	2.299117	-0.009953	-0.001821	-0.006188	-0.580078	0.230469	-0.631104
171.0	9.720353	-0.778921	2.254589	-0.010244	-0.00347	-0.004072	-0.568604	0.228271	-0.633301
172.0	9.707946	-0.799617	2.250963	-0.0115	-0.000515	-0.001449	-0.577881	0.230469	-0.635742
173.0	9.708022	-0.79956	2.250656	-0.008207	-0.004198	-0.004291	-0.577881	0.230469	-0.633301
174.0	9.718461	-0.773389	2.229746	-0.007311	-0.004706	-0.005531	-0.577637	0.228271	-0.630859
175.0	9.687435	-0.787044	2.254122	-0.007311	-0.004705	-0.005531	-0.575439	0.230469	-0.633301
176.0	9.71065	-0.803838	2.272773	-0.012209	-0.006833	-0.003119	-0.580078	0.230469	-0.631104
177.0	9.710759	-0.803749	2.272341	-0.005995	-0.000544	-0.002983	-0.580078	0.232666	-0.631104
178.0	9.671247	-0.784931	2.304895	-0.011094	-0.001595	-0.007206	-0.58252	0.237061	-0.638184
179.0	9.681938	-0.822312	2.320496	-0.011384	-0.003244	-0.00509	-0.580078	0.228271	-0.628662
180.0	9.713213	-0.808208	2.295173	-0.015747	-0.003435	-0.002533	-0.575684	0.232666	-0.631104
181.0	9.711156	-0.802979	2.270914	-0.015096	-0.004228	-0.006032	-0.577637	0.228271	-0.635498
182.0	9.715662	-0.813077	2.317904	-0.015096	-0.004227	-0.006032	-0.58252	0.232666	-0.633545
183.0	9.70113	-0.828459	2.29036	-0.015457	-0.001782	-0.004647	-0.573242	0.230469	-0.637939
184.0	9.692864	-0.795739	2.29765	-0.019343	-0.007145	-0.007119	-0.577881	0.230469	-0.631104
185.0	9.736981	-0.824399	2.311742	-0.015991	-0.003715	-0.00479	-0.584717	0.232666	-0.635742
186.0	9.734977	-0.819044	2.287278	-0.016164	-0.008094	-0.00632	-0.577881	0.230469	-0.631104
187.0	9.73739	-0.824095	2.310128	-0.015919	-0.007808	-0.004059	-0.577881	0.232666	-0.635742
188.0	9.72521	-0.844683	2.305615	-0.014055	-0.012915	-0.005811	-0.582275	0.232666	-0.626465
189.0	9.714929	-0.806953	2.288344	-0.016134	-0.013551	-0.001214	-0.573242	0.230469	-0.633301
190.0	9.707286	-0.838147	2.330661	-0.013909	-0.021099	-0.004352	-0.577637	0.228271	-0.628662
191.0	9.715829	-0.806889	2.284542	-0.010803	-0.017956	-0.004284	-0.575439	0.228271	-0.626221
192.0	9.70168	-0.822412	2.255196	-0.010411	-0.025857	-0.000567	-0.577881	0.230469	-0.628662
193.0	9.702213	-0.822488	2.252875	-0.009054	-0.020332	-0.00239	-0.582275	0.230469	-0.628662
194.0	9.70058	-0.817282	2.226593	-0.010583	-0.030227	-0.002095	-0.580322	0.234863	-0.631104
195.0	9.715988	-0.801807	2.250571	-0.007937	-0.03311	-0.001444	-0.573486	0.232666	-0.631104
196.0	9.685678	-0.815898	2.272103	-0.007576	-0.035545	-0.002828	-0.584473	0.230469	-0.633301
197.0	9.738509	-0.813298	2.238993	-0.01064	-0.037309	-0.007264	-0.580078	0.232666	-0.633545
198.0	9.718495	-0.801129	2.239961	-0.009857	-0.035086	-0.004858	-0.582275	0.230469	-0.624023
199.0	9.740259	-0.812504	2.231658	-0.010278	-0.039734	-0.008645	-0.580078	0.232666	-0.628906
200.0	9.735098	-0.784659	2.259297	-0.008525	-0.042107	-0.006753	-0.575439	0.230469	-0.631104
201.0	9.72128	-0.79973	2.228346	-0.008959	-0.035573	-0.006092	-0.575684	0.234863	-0.628906
202.0	9.724398	-0.804567	2.248617	-0.005245	-0.034587	-0.005156	-0.580078	0.232666	-0.628906
203.0	9.702061	-0.787051	2.226081	-0.005494	-0.034863	-0.007413	-0.577881	0.232666	-0.631104
204.0	9.738485	-0.782969	2.24524	-0.004459	-0.032364	-0.00275	-0.577881	0.234863	-0.628906
205.0	9.724442	-0.798265	2.215038	-0.001888	-0.031157	-0.002832	-0.577637	0.228271	-0.633301
206.0	9.735844	-0.835928	2.227844	4e-05	-0.029164	0.000587	-0.584717	0.234863	-0.628906
207.0	9.734148	-0.83051	2.201408	0.002641	-0.026589	-0.00387	-0.580078	0.232666	-0.631104
208.0	9.734793	-0.830253	2.198652	0.004115	-0.030613	0.000134	-0.577881	0.232666	-0.619629
209.0	9.727068	-0.797654	2.203698	0.004116	-0.030609	0.000136	-0.575439	0.228271	-0.633301
210.0	9.736189	-0.830027	2.192547	0.003943	-0.03497	-0.001391	-0.58252	0.234863	-0.628906
211.0	9.690563	-0.795793	2.150893	0.000842	-0.038096	-0.001444	-0.584717	0.234863	-0.626465
212.0	9.750312	-0.808987	2.18862	0.001988	-0.038313	-0.000427	-0.580322	0.237061	-0.626709
213.0	9.738686	-0.829592	2.181593	0.000844	-0.038084	-0.001439	-0.582275	0.232666	-0.624268
214.0	9.752032	-0.808598	2.181089	5.8e-05	-0.040287	-0.003836	-0.58252	0.234863	-0.626465
215.0	9.752853	-0.808404	2.177485	0.001021	-0.03371	9.2e-05	-0.575439	0.230469	-0.626465
216.0	9.732809	-0.79642	2.178655	0.003775	-0.039296	-0.002906	-0.584473	0.230469	-0.626465
217.0	9.775315	-0.819606	2.165752	0.001046	-0.032333	-0.004278	-0.582275	0.228271	-0.619385
218.0	9.734355	-0.795542	2.172056	-9.9e-05	-0.032105	-0.005289	-0.584717	0.234863	-0.624268
219.0	9.737459	-0.800431	2.192882	0.000332	-0.027462	-0.001505	-0.582275	0.232666	-0.626465
220.0	9.733148	-0.789868	2.142982	-0.000638	-0.022878	-0.000992	-0.582275	0.232666	-0.619629
221.0	9.726035	-0.820961	2.185014	-0.000106	-0.020948	-0.000851	-0.584717	0.237061	-0.628906
222.0	9.769866	-0.785813	2.161025	0.000528	-0.02173	-0.004352	-0.580322	0.234863	-0.626465
223.0	9.757827	-0.806221	2.155902	0.005565	-0.016616	-0.000895	-0.580078	0.232666	-0.619629
224.0	9.739787	-0.79937	2.182909	0.003805	-0.014242	-0.002779	-0.589111	0.232666	-0.626465
225.0	9.725236	-0.814705	2.154276	0.004759	-0.020186	0.001085	-0.584717	0.234863	-0.626465
226.0	9.713122	-0.83534	2.149423	0.009814	-0.013708	0.000165	-0.589355	0.237061	-0.619629
227.0	9.744213	-0.821026	2.123171	0.008843	-0.009128	0.000677	-0.580322	0.234863	-0.624268
228.0	9.772707	-0.80165	2.07371	0.010698	-0.003067	0.003352	-0.589355	0.239258	-0.619873
229.0	9.777594	-0.81208	2.121377	0.016285	0.005337	0.002569	-0.582275	0.232666	-0.621826
230.0	9.744154	-0.820852	2.123511	0.017175	0.004835	0.001325	-0.584717	0.234863	-0.626465
231.0	9.743979	-0.820721	2.124363	0.015314	0.009919	0.00308	-0.580322	0.234863	-0.626465
232.0	9.753783	-0.794689	2.104894	0.012488	0.008437	0.000917	-0.582764	0.239258	-0.62207
233.0	9.722749	-0.808752	2.130959	0.012213	0.006793	0.003036	-0.58252	0.237061	-0.619629
234.0	9.707681	-0.824296	2.10459	0.016901	0.003195	0.003447	-0.586914	0.234863	-0.621826
235.0	9.728457	-0.836006	2.100184	0.017258	0.000765	0.002065	-0.584473	0.230469	-0.621826
236.0	9.726002	-0.830631	2.076517	0.021946	-0.002832	0.002477	-0.582275	0.232666	-0.628906
237.0	9.746867	-0.842328	2.071704	0.022204	-0.002547	0.004735	-0.58252	0.237061	-0.624268
238.0	9.728504	-0.835484	2.100174	0.022222	-0.001184	0.000359	-0.584717	0.234863	-0.621826
239.0	9.695168	-0.84406	2.101899	0.028766	0.001287	0.003444	-0.58252	0.237061	-0.62207
240.0	9.740969	-0.813945	2.103779	0.025149	-0.002407	-0.001113	-0.58252	0.234863	-0.624268
241.0	9.759372	-0.820147	2.075388	0.028234	-0.000633	0.003309	-0.580322	0.234863	-0.621826
242.0	9.738503	-0.807858	2.08044	0.028785	0.002656	-0.00093	-0.586914	0.232666	-0.626465
243.0	9.738453	-0.807345	2.080872	0.027621	0.001521	0.002435	-0.577881	0.232666	-0.628906
244.0	9.750895	-0.786162	2.084422	0.027364	0.001239	0.00018	-0.589355	0.239258	-0.626709
245.0	9.786638	-0.781951	2.106959	0.021868	0.001266	0.001748	-0.580322	0.234863	-0.621826
246.0	9.763274	-0.764752	2.088341	0.020365	0.003919	0.002114	-0.58252	0.234863	-0.619629
247.0	9.7691	-0.791896	2.057166	0.017538	0.00243	-4.9e-05	-0.580078	0.228271	-0.628662
248.0	9.708992	-0.761324	2.095338	0.015226	0.001513	0.002302	-0.586914	0.232666	-0.626465
249.0	9.725628	-0.82631	2.079986	0.011427	0.004602	0.00064	-0.586914	0.230469	-0.624023
250.0	9.696371	-0.781822	2.092893	0.012656	0.000309	0.002397	-0.584717	0.234863	-0.621826
251.0	9.704705	-0.814418	2.085113	0.008049	-0.000172	0.00272	-0.582275	0.228271	-0.621582
252.0	9.717171	-0.793736	2.088337	0.006902	4.6e-05	0.001706	-0.587158	0.237061	-0.62207
253.0	9.715502	-0.85213	2.101024	0.005221	-0.001664	0.000556	-0.584717	0.232666	-0.624268
254.0	9.702237	-0.809309	2.06143	0.009472	0.001252	0.001612	-0.58252	0.237061	-0.62207
255.0	9.707119	-0.819466	2.109063	0.005754	0.000265	0.000692	-0.584717	0.232666	-0.626465
256.0	9.76129	-0.822248	2.102832	0.002927	-0.001228	-0.001472	-0.580322	0.234863	-0.626465
257.0	9.740467	-0.810431	2.107458	0.003442	-0.000653	0.003042	-0.586914	0.232666	-0.624268
258.0	9.77971	-0.829064	2.074184	0.001504	-0.002651	-0.000364	-0.582275	0.230469	-0.626465
259.0	9.740515	-0.810449	2.10723	0.005755	0.000265	0.000692	-0.580322	0.234863	-0.621826
260.0	9.77726	-0.82375	2.050502	0.00603	0.001906	-0.00143	-0.58252	0.234863	-0.624268
261.0	9.748806	-0.842698	2.099784	0.006288	0.002194	0.000827	-0.577881	0.232666	-0.619629
262.0	9.797987	-0.835337	2.046434	0.005674	0.00434	-5.2e-05	-0.584717	0.232666	-0.624268
263.0	9.746137	-0.837402	2.077129	0.010457	0.009185	0.001138	-0.582275	0.228271	-0.624023
264.0	9.743496	-0.832175	2.054333	0.012495	0.008463	0.00091	-0.584717	0.234863	-0.61499
265.0	9.745786	-0.836878	2.078984	0.01198	0.007889	-0.003603	-0.588867	0.228271	-0.624023
266.0	9.755645	-0.810667	2.05938	0.013028	0.010394	0.001046	-0.589355	0.237061	-0.62207
267.0	9.712091	-0.845167	2.082505	0.013385	0.007961	-0.000331	-0.586914	0.232666	-0.619629
268.0	9.724423	-0.824005	2.086527	0.013128	0.007674	-0.002588	-0.587158	0.239258	-0.62207
269.0	9.742662	-0.830275	2.059049	0.014809	0.009387	-0.001438	-0.580322	0.234863	-0.617188
270.0	9.726526	-0.828031	2.112248	0.014552	0.0091	-0.003694	-0.591553	0.239258	-0.619629
271.0	9.729878	-0.849532	2.057947	0.018647	0.009009	-0.008527	-0.586914	0.234863	-0.628906
272.0	9.742201	-0.827987	2.062153	0.012772	0.010114	-0.001209	-0.584717	0.237061	-0.61499
273.0	9.738551	-0.804897	2.118403	0.013764	0.006885	-0.006084	-0.586914	0.234863	-0.619629
274.0	9.72591	-0.824877	2.116317	0.018804	0.012028	-0.002635	-0.584717	0.237061	-0.617432
275.0	9.741709	-0.825988	2.065276	0.018885	0.007954	-0.001887	-0.577637	0.228271	-0.624023
276.0	9.723137	-0.818666	2.094604	0.020032	0.007741	-0.000871	-0.589111	0.230469	-0.617188
277.0	9.735465	-0.797377	2.098623	0.02207	0.007022	-0.001096	-0.582275	0.230469	-0.624023
278.0	9.74129	-0.824389	2.06789	0.0195	0.005814	-0.001003	-0.584717	0.237061	-0.626709
279.0	9.735152	-0.796543	2.100391	0.017894	0.011194	0.002988	-0.584229	0.22168	-0.621338
280.0	9.753335	-0.803158	2.073216	0.017638	0.010905	0.000732	-0.584473	0.230469	-0.621826
281.0	9.734706	-0.795868	2.10271	0.014556	0.009114	-0.00369	-0.586914	0.232666	-0.626465
282.0	9.719653	-0.811072	2.076805	0.009057	0.009132	-0.002132	-0.584717	0.234863	-0.619629
283.0	9.755201	-0.806705	2.100116	0.010481	0.010557	-0.003239	-0.589355	0.234863	-0.624268
284.0	9.755039	-0.806199	2.101064	0.007377	0.007417	-0.003281	-0.584717	0.232666	-0.619629
285.0	9.740025	-0.821361	2.075041	0.007655	0.009057	-0.005404	-0.58252	0.237061	-0.631348
286.0	9.7423	-0.825682	2.099695	0.003938	0.008061	-0.006329	-0.589355	0.234863	-0.624268
287.0	9.763072	-0.836668	2.095804	0.002003	0.006053	-0.009735	-0.580322	0.234863	-0.626465
288.0	9.721271	-0.812231	2.105741	0.003046	0.008568	-0.005088	-0.586914	0.232666	-0.619629
289.0	9.741992	-0.823427	2.102011	0.000753	0.008997	-0.007121	-0.586914	0.232666	-0.628906
290.0	9.723422	-0.815797	2.131217	0.003683	0.007772	-0.008585	-0.584717	0.234863	-0.624268
291.0	9.723328	-0.814986	2.131954	0.000221	0.007066	-0.007254	-0.580322	0.234863	-0.626465
292.0	9.729262	-0.841892	2.101054	0.000834	0.004921	-0.00637	-0.584717	0.234863	-0.619629
293.0	9.723201	-0.813573	2.133075	0.004297	0.005627	-0.007701	-0.580322	0.234863	-0.621826
294.0	9.700674	-0.85927	2.151003	0.003232	0.001764	-0.007967	-0.580322	0.237061	-0.617432
295.0	9.744017	-0.823752	2.129323	0.009161	0.006413	-0.005758	-0.577881	0.234863	-0.621826
296.0	9.700633	-0.857745	2.151796	0.004993	-0.000595	-0.006067	-0.582764	0.239258	-0.62207
297.0	9.715477	-0.841144	2.179015	0.008906	0.006122	-0.008014	-0.577637	0.228271	-0.621582
298.0	9.73152	-0.842235	2.127315	0.005779	0.001629	-0.003677	-0.584717	0.234863	-0.628906
299.0	9.736264	-0.851538	2.175334	0.006868	0.006842	-0.00779	-0.584717	0.232666	-0.624268
300.0	9.710538	-0.828966	2.132999	0.007736	0.004989	-0.00465	-0.580322	0.234863	-0.624268
301.0	9.752217	-0.85191	2.124368	0.008629	0.004484	-0.00589	-0.577881	0.232666	-0.624268
302.0	9.710465	-0.827592	2.133862	0.006672	0.001125	-0.004916	-0.587158	0.237061	-0.624268
303.0	9.741347	-0.813029	2.109036	0.011453	0.005991	-0.003723	-0.582275	0.232666	-0.626465
304.0	9.741259	-0.812392	2.109686	0.013492	0.005273	-0.003945	-0.58252	0.234863	-0.619629
305.0	9.754429	-0.854278	2.150002	0.012428	0.001409	-0.004211	-0.584717	0.237061	-0.617432
306.0	9.737274	-0.864308	2.099373	0.011111	-0.002748	-0.006732	-0.582275	0.232666	-0.614746
307.0	9.737363	-0.863533	2.099282	0.015081	-0.001453	-0.003548	-0.584473	0.230469	-0.626465
308.0	9.731368	-0.835183	2.130792	0.016506	-2.4e-05	-0.004655	-0.58252	0.237061	-0.624268
309.0	9.731439	-0.834447	2.130755	0.01455	-0.003383	-0.00368	-0.580322	0.234863	-0.626465
310.0	9.741542	-0.808071	2.110039	0.01676	0.000271	-0.002398	-0.591309	0.230469	-0.614746
311.0	9.689807	-0.809601	2.139833	0.015697	-0.003594	-0.002661	-0.580078	0.232666	-0.626465
312.0	9.720791	-0.794974	2.114524	0.016507	-2e-05	-0.004653	-0.584717	0.234863	-0.617188
313.0	9.708338	-0.815278	2.111717	0.0178	0.002794	0.002247	-0.586914	0.232666	-0.621826
314.0	9.73148	-0.831528	2.131709	0.01802	0.009859	-0.005012	-0.586914	0.230469	-0.619385
315.0	9.738953	-0.800125	2.088323	0.01942	0.009943	-0.001737	-0.58667	0.226074	-0.626221
316.0	9.720271	-0.792639	2.117789	0.018274	0.010156	-0.002754	-0.584717	0.234863	-0.619629
317.0	9.761852	-0.815612	2.10974	0.017743	0.008224	-0.002884	-0.582275	0.232666	-0.617188
318.0	9.724733	-0.801329	2.167199	0.014894	0.00537	-0.000669	-0.586914	0.232666	-0.626465
319.0	9.743222	-0.807723	2.139078	0.015699	-0.003585	-0.002652	-0.589111	0.232666	-0.624268
320.0	9.726063	-0.818071	2.0885	0.017295	0.002217	-0.002259	-0.591553	0.234863	-0.619629
321.0	9.746934	-0.829166	2.084282	0.019081	0.001207	-0.004735	-0.584961	0.239258	-0.619873
322.0	9.734554	-0.848991	2.081395	0.018297	-0.00102	-0.007121	-0.584717	0.237061	-0.617432
323.0	9.75707	-0.801566	2.063855	0.020228	0.001001	-0.003716	-0.584717	0.232666	-0.617188
324.0	9.761792	-0.810668	2.111923	0.020398	0.005376	-0.002217	-0.584717	0.234863	-0.619629
325.0	9.761717	-0.81002	2.112517	0.019867	0.003444	-0.002346	-0.586914	0.230469	-0.624023
326.0	9.750816	-0.771795	2.096845	0.021292	0.004874	-0.003453	-0.586914	0.234863	-0.621826
327.0	9.738315	-0.791985	2.094393	0.020121	0.003744	-8.9e-05	-0.584473	0.230469	-0.621826
328.0	9.738283	-0.79134	2.09479	0.019084	0.001218	-0.004729	-0.58252	0.234863	-0.617188
329.0	9.753068	-0.774852	2.121905	0.021882	0.001396	0.00182	-0.577637	0.228271	-0.621582
330.0	9.759094	-0.802257	2.090951	0.014364	0.003452	-0.000797	-0.591309	0.232666	-0.619385
331.0	9.76748	-0.83439	2.083961	0.014643	0.00509	-0.002923	-0.582275	0.230469	-0.626465
332.0	9.761331	-0.806088	2.115801	0.015258	0.002948	-0.002033	-0.589111	0.232666	-0.621826
333.0	9.761286	-0.805705	2.116158	0.01294	0.002026	0.000313	-0.582275	0.228271	-0.624023
334.0	9.771274	-0.779766	2.095733	0.015511	0.003248	0.000223	-0.584717	0.232666	-0.617188
335.0	9.72789	-0.814062	2.118304	0.010116	0.000509	-0.001853	-0.580078	0.230469	-0.624023
336.0	9.740349	-0.792896	2.121276	0.007013	-0.002647	-0.001892	-0.582275	0.232666	-0.626465
337.0	9.758895	-0.799634	2.092883	0.007798	-0.000414	0.000493	-0.584717	0.232666	-0.624268
338.0	9.735629	-0.782813	2.07366	0.010369	0.000808	0.000403	-0.584717	0.234863	-0.617188
339.0	9.758861	-0.799304	2.093169	0.007183	0.001729	-0.000398	-0.584717	0.234863	-0.624268
340.0	9.756394	-0.794229	2.069881	0.007631	0.007742	-0.001031	-0.584717	0.234863	-0.619629
341.0	9.758645	-0.798888	2.094335	0.005674	0.004378	-5.1e-05	-0.582275	0.228271	-0.619385
342.0	9.758543	-0.798695	2.094883	0.0071	0.005808	-0.001159	-0.586914	0.232666	-0.612549
343.0	9.741275	-0.809746	2.044789	0.000169	0.004376	0.001493	-0.586914	0.234863	-0.61499
344.0	9.758356	-0.798681	2.095757	0.006289	0.002236	0.00084	-0.589355	0.237061	-0.624268
345.0	9.735	-0.78186	2.07697	0.007631	0.007744	-0.001031	-0.580078	0.232666	-0.621826
346.0	9.745719	-0.819106	2.093921	0.007715	0.003666	-0.000268	-0.589355	0.237061	-0.626709
347.0	9.764154	-0.825832	2.066127	0.00914	0.005096	-0.001376	-0.589111	0.230469	-0.624023
348.0	9.739425	-0.790803	2.126292	0.008246	0.005602	-0.000139	-0.586914	0.234863	-0.619629
349.0	9.722162	-0.801748	2.076284	0.008246	0.005603	-0.000139	-0.584717	0.234863	-0.619629
350.0	9.745316	-0.818082	2.096195	0.010035	0.004591	-0.002612	-0.587158	0.237061	-0.619629
351.0	9.728071	-0.828831	2.046223	0.009672	0.007033	-0.001247	-0.584717	0.234863	-0.624268
352.0	9.742738	-0.812457	2.073706	0.006849	0.005512	-0.003414	-0.59375	0.232666	-0.621826
353.0	9.74266	-0.812089	2.074217	0.006569	0.003876	-0.001286	-0.582275	0.230469	-0.621826
354.0	9.744922	-0.816591	2.098604	0.011713	0.006322	-0.001463	-0.580078	0.230469	-0.624023
355.0	9.747157	-0.821025	2.123133	0.011713	0.006323	-0.001463	-0.591309	0.232666	-0.626465
356.0	9.759441	-0.799718	2.12691	0.011993	0.00796	-0.003591	-0.58252	0.237061	-0.624268
357.0	9.754617	-0.789617	2.079996	0.009141	0.005101	-0.001374	-0.58252	0.237061	-0.62207
358.0	9.721197	-0.79828	2.082133	0.009673	0.007038	-0.001246	-0.582275	0.232666	-0.619629
359.0	9.744313	-0.814348	2.102303	0.011742	0.007662	-0.005845	-0.586914	0.230469	-0.619385
360.0	9.739491	-0.80402	2.05552	0.011993	0.007963	-0.003589	-0.589355	0.234863	-0.617188
361.0	9.74407	-0.813175	2.103883	0.009142	0.005104	-0.001373	-0.586914	0.232666	-0.617188
362.0	9.754028	-0.787162	2.083685	0.010568	0.006535	-0.002481	-0.589111	0.232666	-0.614746
363.0	9.762415	-0.819374	2.07689	0.011182	0.004393	-0.001588	-0.584717	0.232666	-0.624268
364.0	9.759973	-0.814188	2.053684	0.011714	0.00633	-0.00146	-0.591309	0.232666	-0.619385
365.0	9.720406	-0.794955	2.087089	0.011714	0.006331	-0.00146	-0.580078	0.232666	-0.624268
366.0	9.738778	-0.801776	2.059772	0.012133	0.011013	0.002286	-0.59375	0.237061	-0.626709
367.0	9.764203	-0.822932	2.103778	0.006319	0.00358	-0.003539	-0.586914	0.230469	-0.621826
368.0	9.753307	-0.7851	2.087834	0.009142	0.005107	-0.001371	-0.58252	0.234863	-0.61499
369.0	9.759349	-0.812416	2.05735	0.009704	0.00838	-0.005628	-0.584473	0.228271	-0.616943
370.0	9.742998	-0.809695	2.11018	0.008247	0.005615	-0.000136	-0.591553	0.234863	-0.619629
371.0	9.761429	-0.816474	2.082655	0.006488	0.007963	-0.002049	-0.580078	0.230469	-0.624023
372.0	9.782179	-0.827824	2.079124	0.008809	0.008888	-0.004392	-0.584717	0.237061	-0.612793
373.0	9.740242	-0.803634	2.088817	0.007383	0.007457	-0.003284	-0.584473	0.226074	-0.616943
374.0	9.758692	-0.810212	2.061331	0.010569	0.006542	-0.002477	-0.580078	0.232666	-0.617188
375.0	9.737629	-0.797925	2.066689	0.008446	0.011334	-0.00303	-0.584717	0.234863	-0.628906
376.0	9.739758	-0.802303	2.091583	0.010206	0.008988	-0.001115	-0.584473	0.230469	-0.624023
377.0	9.724817	-0.818033	2.065942	0.011268	0.012865	-0.000861	-0.582275	0.230469	-0.619385
378.0	9.736993	-0.796869	2.07009	0.015964	0.009302	-0.000393	-0.587158	0.237061	-0.62207
379.0	9.736795	-0.796532	2.071149	0.013924	0.010014	-0.000179	-0.582275	0.232666	-0.619629
380.0	9.718017	-0.78906	2.100411	0.016861	0.008799	-0.001626	-0.589111	0.230469	-0.617188
381.0	9.744931	-0.828373	2.065856	0.01711	0.009103	0.00063	-0.584717	0.232666	-0.624268
382.0	9.711514	-0.836894	2.068023	0.012977	0.003393	-0.004047	-0.584717	0.237061	-0.62207
383.0	9.757136	-0.80641	2.070169	0.01404	0.007271	-0.003794	-0.58252	0.234863	-0.617188
384.0	9.721411	-0.81005	2.048549	0.018371	0.006155	-0.001963	-0.58667	0.228271	-0.614746
385.0	9.725899	-0.81895	2.097035	0.011999	0.007983	-0.003581	-0.584473	0.230469	-0.631104
386.0	9.712634	-0.776061	2.057635	0.020082	0.009226	-0.005198	-0.591553	0.234863	-0.621826
387.0	9.738047	-0.796536	2.101729	0.018737	0.003715	-0.00332	-0.582275	0.230469	-0.626465
388.0	9.741888	-0.81902	2.047357	0.019269	0.005656	-0.003193	-0.584473	0.230469	-0.619385
389.0	9.737923	-0.795103	2.102847	0.018207	0.001779	-0.003444	-0.580078	0.230469	-0.624023
390.0	9.720923	-0.805742	2.052558	0.017062	0.001982	-0.004466	-0.582275	0.232666	-0.628906
391.0	9.744133	-0.821421	2.072387	0.014772	0.002388	-0.006509	-0.582275	0.228271	-0.624023
392.0	9.725555	-0.813473	2.100761	0.013959	-0.001185	-0.004504	-0.58252	0.234863	-0.61499
393.0	9.777518	-0.81074	2.07121	0.014241	0.00045	-0.006634	-0.584473	0.230469	-0.624023
394.0	9.74426	-0.818886	2.072794	0.016532	4.8e-05	-0.004589	-0.586914	0.232666	-0.617188
395.0	9.756653	-0.797153	2.076023	0.017345	0.003624	-0.006594	-0.580078	0.230469	-0.626465
396.0	9.78994	-0.787164	2.075008	0.014773	0.002393	-0.006508	-0.589355	0.239258	-0.617432
397.0	9.750398	-0.767238	2.107962	0.017346	0.003627	-0.006593	-0.58252	0.234863	-0.628906
398.0	9.741962	-0.810388	2.050438	0.014243	0.000456	-0.006631	-0.584717	0.232666	-0.624268
399.0	9.789883	-0.784456	2.076303	0.018905	0.008121	-0.001833	-0.582275	0.230469	-0.621826
400.0	9.767209	-0.830174	2.095605	0.018207	0.014345	-0.003505	-0.589355	0.234863	-0.617188
401.0	9.787115	-0.77852	2.055162	0.017925	0.012714	-0.001373	-0.582764	0.239258	-0.62207
402.0	9.772119	-0.794156	2.030192	0.018903	0.020679	-0.001898	-0.589355	0.237061	-0.619629
403.0	9.755374	-0.791127	2.084318	0.016331	0.019448	-0.001812	-0.582275	0.232666	-0.624268
404.0	9.746406	-0.758011	2.093663	0.015965	0.021899	-0.000455	-0.582275	0.232666	-0.614746
405.0	9.733618	-0.778478	2.092835	0.014904	0.018019	-0.000702	-0.584717	0.232666	-0.624268
406.0	9.754124	-0.790136	2.090536	0.01593	0.020578	0.003933	-0.591553	0.234863	-0.621826
407.0	9.697312	-0.782484	2.073964	0.014824	0.00955	-0.001404	-0.584717	0.234863	-0.626465
408.0	9.72253	-0.803098	2.118675	0.020502	0.013964	-0.001447	-0.586914	0.234863	-0.624268
409.0	9.71775	-0.793301	2.072333	0.015356	0.011496	-0.001279	-0.586914	0.234863	-0.621826
410.0	9.740761	-0.809159	2.09296	0.02185	0.006929	-0.003255	-0.58252	0.234863	-0.621826
411.0	9.759324	-0.815609	2.065602	0.019277	0.005695	-0.003171	-0.582275	0.230469	-0.631104
412.0	9.770081	-0.85206	2.082925	0.017356	0.003644	-0.006572	-0.580322	0.234863	-0.628906
413.0	9.776121	-0.802088	2.117351	0.021972	0.004176	-0.006862	-0.584717	0.232666	-0.621826
414.0	9.744333	-0.751723	2.105547	0.022257	0.005812	-0.008993	-0.58252	0.237061	-0.619629
415.0	9.756638	-0.729459	2.109187	0.026873	0.006347	-0.009282	-0.577637	0.228271	-0.621582
416.0	9.799954	-0.693135	2.087807	0.02977	0.010546	-0.015882	-0.584717	0.232666	-0.624268
417.0	9.751874	-0.715941	2.064155	0.031686	0.019338	-0.022031	-0.579834	0.228271	-0.616943
418.0	9.825995	-0.664391	2.019163	0.03507	0.030895	-0.033674	-0.584717	0.237061	-0.61499
419.0	9.869629	-0.688026	2.038485	0.03437	0.043868	-0.044904	-0.582275	0.232666	-0.626465
420.0	9.966662	-0.650372	2.015303	0.039112	0.048404	-0.05834	-0.580078	0.232666	-0.617188
421.0	9.980589	-0.626699	2.047381	0.04962	0.053299	-0.07103	-0.580322	0.234863	-0.624268
422.0	9.980725	-0.680448	2.091247	0.064752	0.05876	-0.083992	-0.58252	0.234863	-0.626465
423.0	10.009784	-0.714826	2.086386	0.070942	0.058053	-0.088958	-0.584473	0.230469	-0.624023
424.0	9.963693	-0.734235	2.091283	0.077663	0.059305	-0.093796	-0.584229	0.223877	-0.623779
425.0	9.887881	-0.709056	2.10717	0.090433	0.055826	-0.090457	-0.584473	0.226074	-0.626221
426.0	9.857396	-0.653992	2.124751	0.100837	0.064005	-0.084883	-0.584473	0.226074	-0.624023
427.0	9.798886	-0.559124	2.177892	0.126615	0.071255	-0.080443	-0.586426	0.22168	-0.625977
428.0	9.778868	-0.541572	2.21344	0.14125	0.0686	-0.069282	-0.584229	0.223877	-0.628418
429.0	9.762497	-0.486404	2.155443	0.150838	0.05935	-0.057167	-0.582031	0.226074	-0.621582
430.0	9.727256	-0.424896	2.124716	0.151047	0.058471	-0.050483	-0.584229	0.22168	-0.630615
431.0	9.7531	-0.394666	2.05801	0.157069	0.059312	-0.047419	-0.577393	0.22168	-0.630615
432.0	9.712512	-0.383776	1.993985	0.156271	0.063042	-0.040314	-0.579834	0.226074	-0.626221
433.0	9.753516	-0.280485	1.93989	0.164173	0.073198	-0.028814	-0.581787	0.217285	-0.628174
434.0	9.73384	-0.283596	1.873041	0.17546	0.07433	-0.014853	-0.588623	0.219482	-0.625977
435.0	9.669996	-0.260517	1.789797	0.18228	0.072113	-0.004205	-0.586426	0.219482	-0.633057
436.0	9.60024	-0.272081	1.775736	0.1878	0.072887	0.008995	-0.581787	0.217285	-0.632813
437.0	9.549533	-0.292688	1.734062	0.189447	0.075374	0.024812	-0.581787	0.215088	-0.637451
438.0	9.555119	-0.321391	1.711636	0.18503	0.075818	0.041983	-0.581787	0.217285	-0.635254
439.0	9.560776	-0.351421	1.688794	0.177986	0.064607	0.048401	-0.579346	0.212891	-0.630371
440.0	9.594759	-0.348319	1.717925	0.171617	0.054397	0.061569	-0.581543	0.212891	-0.628174
441.0	9.646097	-0.350391	1.694228	0.170643	0.039857	0.071868	-0.577148	0.212891	-0.63501
442.0	9.654212	-0.387384	1.692018	0.173607	0.024914	0.075188	-0.581787	0.215088	-0.628174
443.0	9.700945	-0.365603	1.719617	0.174971	0.011344	0.083195	-0.581543	0.210693	-0.62793
444.0	9.728562	-0.411825	1.687334	0.180735	-0.001937	0.08873	-0.581787	0.215088	-0.630371
445.0	9.765394	-0.415946	1.734313	0.180869	-0.011211	0.094885	-0.579346	0.215088	-0.632813
446.0	9.798524	-0.413356	1.732278	0.18123	-0.020113	0.103303	-0.577393	0.217285	-0.635254
447.0	9.88983	-0.42172	1.773309	0.184774	-0.017186	0.112307	-0.577148	0.215088	-0.63501
448.0	9.903827	-0.412632	1.798654	0.190077	-0.016507	0.123309	-0.581787	0.217285	-0.630615
449.0	9.913112	-0.43958	1.918558	0.188013	-0.009537	0.132906	-0.579346	0.212891	-0.63501
450.0	9.937385	-0.468894	1.963691	0.188098	1.2e-05	0.148139	-0.579346	0.215088	-0.630371
451.0	9.954607	-0.469863	2.039584	0.183558	0.014288	0.158322	-0.57251	0.210693	-0.63501
452.0	9.942848	-0.507047	2.064793	0.175394	0.030685	0.173321	-0.575195	0.219482	-0.630615
453.0	9.945098	-0.467219	2.076746	0.164494	0.046655	0.181712	-0.579346	0.212891	-0.632813
454.0	9.837625	-0.401546	2.200995	0.149406	0.060724	0.184607	-0.57959	0.217285	-0.630615
455.0	9.80131	-0.344833	2.270651	0.138498	0.086093	0.186781	-0.570313	0.212891	-0.632813
456.0	9.700648	-0.328326	2.267522	0.117152	0.108287	0.178114	-0.574951	0.217285	-0.635254
457.0	9.515434	-0.321978	2.320408	0.102919	0.133176	0.162442	-0.574951	0.215088	-0.63501
458.0	9.475049	-0.319645	2.41336	0.084848	0.159813	0.149301	-0.57959	0.217285	-0.632813
459.0	9.472568	-0.398296	2.52006	0.063458	0.194297	0.137886	-0.570557	0.219482	-0.637695
460.0	9.451048	-0.486975	2.556055	0.04601	0.236439	0.117701	-0.572998	0.223877	-0.630859
461.0	9.366375	-0.617185	2.544482	0.035031	0.27077	0.089999	-0.570801	0.22168	-0.635254
462.0	9.287031	-0.820813	2.697181	0.023423	0.288318	0.052389	-0.568359	0.22168	-0.635254
463.0	9.514331	-1.040247	2.879834	0.009033	0.306372	0.0228	-0.563721	0.215088	-0.639893
464.0	9.832878	-1.005828	2.846882	0.003434	0.321789	0.003876	-0.561768	0.22168	-0.642334
465.0	10.047278	-0.907786	2.831327	-0.005223	0.341459	-0.010157	-0.559082	0.212891	-0.646729
466.0	10.066387	-0.808363	2.852241	-0.026751	0.33742	-0.013788	-0.563965	0.22168	-0.644775
467.0	9.885418	-0.76943	2.699984	-0.051729	0.306392	-0.027905	-0.559326	0.219482	-0.64917
468.0	9.534152	-0.825345	2.539212	-0.087898	0.299977	-0.044654	-0.561768	0.22168	-0.646973
469.0	9.33083	-0.89989	2.268889	-0.125059	0.308147	-0.076234	-0.548096	0.217529	-0.64917
470.0	9.207002	-1.139311	2.046389	-0.142376	0.322123	-0.101483	-0.557129	0.219482	-0.646973
471.0	9.103542	-1.307762	1.882186	-0.151838	0.349297	-0.135135	-0.550293	0.219727	-0.65625
472.0	9.374201	-1.46707	1.708526	-0.138494	0.368609	-0.161052	-0.550293	0.219727	-0.651611
473.0	9.701313	-1.563396	1.716975	-0.099592	0.364136	-0.166879	-0.550537	0.224121	-0.654053
474.0	10.023911	-1.627556	1.509445	-0.066662	0.344543	-0.160024	-0.554932	0.221924	-0.658691
475.0	10.191046	-1.643937	1.436755	-0.025141	0.34167	-0.130995	-0.545654	0.215332	-0.653809
476.0	10.392667	-1.660983	1.413697	0.001386	0.323947	-0.091301	-0.545654	0.217529	-0.653809
477.0	10.563199	-1.718693	1.583563	0.014214	0.315468	-0.027073	-0.543457	0.217529	-0.663086
478.0	10.628473	-1.647844	1.626352	0.008094	0.315803	0.039356	-0.543701	0.221924	-0.665527
479.0	10.598755	-1.477395	1.510454	-0.006384	0.27937	0.083267	-0.54126	0.217529	-0.667725
480.0	10.586495	-1.257215	1.547469	-0.011841	0.272444	0.125615	-0.541504	0.221924	-0.670166
481.0	10.160935	-1.168225	1.590999	-0.029638	0.262618	0.154568	-0.534668	0.219727	-0.667725
482.0	10.032432	-1.067617	1.707536	-0.037157	0.259037	0.165804	-0.530029	0.219727	-0.667725
483.0	9.807758	-1.077229	1.784685	-0.051915	0.298494	0.181344	-0.530273	0.221924	-0.672607
484.0	9.680134	-1.084841	1.642253	-0.059738	0.315098	0.181715	-0.532715	0.230713	-0.672852
485.0	9.717661	-1.091492	1.797252	-0.058304	0.308333	0.180268	-0.527832	0.221924	-0.66333
486.0	9.731475	-1.118707	1.800617	-0.065488	0.303193	0.172312	-0.530518	0.228516	-0.672852
487.0	9.579981	-1.169027	1.674762	-0.066591	0.315936	0.164463	-0.525879	0.228516	-0.675049
488.0	9.521687	-1.27415	1.739226	-0.073048	0.310219	0.132843	-0.52832	0.23291	-0.67749
489.0	9.42679	-1.290892	1.765036	-0.076185	0.307824	0.11264	-0.521484	0.233154	-0.677734
490.0	9.37541	-1.323411	1.738347	-0.086209	0.288824	0.086709	-0.526123	0.235352	-0.675293
491.0	9.292711	-1.322223	1.81211	-0.096853	0.275428	0.065656	-0.51709	0.230957	-0.67749
492.0	9.221644	-1.338302	1.78288	-0.106276	0.262235	0.047944	-0.514893	0.233154	-0.682373
493.0	9.225745	-1.373228	1.776039	-0.106698	0.245042	0.026477	-0.514893	0.235352	-0.679932
494.0	9.169013	-1.46617	1.830916	-0.106878	0.240703	0.002635	-0.521973	0.239746	-0.677979
495.0	9.157439	-1.57095	1.809459	-0.105285	0.214493	-0.026356	-0.514893	0.233154	-0.682373
496.0	9.35192	-1.571249	1.809968	-0.099229	0.196071	-0.048008	-0.512695	0.233154	-0.679932
497.0	9.508106	-1.635453	1.823513	-0.092178	0.197251	-0.054582	-0.505859	0.235352	-0.679932
498.0	9.624915	-1.666167	1.790913	-0.091787	0.186595	-0.063261	-0.512939	0.239746	-0.677979
499.0	9.623746	-1.657755	1.783516	-0.088165	0.191583	-0.067265	-0.505859	0.233154	-0.687012
500.0	9.671041	-1.612582	1.734527	-0.090694	0.182504	-0.072464	-0.508057	0.235352	-0.693848
501.0	9.650753	-1.544738	1.784672	-0.0912	0.188862	-0.071859	-0.503662	0.233154	-0.682373
502.0	9.649966	-1.493186	1.857855	-0.086551	0.177291	-0.073889	-0.501465	0.239746	-0.684814
503.0	9.692266	-1.505238	1.823969	-0.072964	0.177909	-0.064725	-0.501221	0.233154	-0.68457
504.0	9.80013	-1.505398	1.820165	-0.067843	0.164172	-0.054605	-0.501465	0.237549	-0.684814
505.0	9.755766	-1.621063	1.83741	-0.053494	0.143091	-0.047332	-0.499023	0.233154	-0.693848
506.0	9.689482	-1.728864	1.876502	-0.044085	0.104121	-0.037188	-0.503662	0.235352	-0.689209
507.0	9.60857	-1.809267	1.816192	-0.044631	0.065465	-0.034975	-0.496826	0.230957	-0.686768
508.0	9.512511	-1.820049	1.737858	-0.041767	0.031142	-0.02788	-0.501221	0.230957	-0.682129
509.0	9.373522	-1.810443	1.681812	-0.028193	-0.005101	-0.020885	-0.499023	0.235352	-0.68457
510.0	9.162243	-1.833746	1.713384	-0.009869	-0.015688	-0.007087	-0.499023	0.233154	-0.68457
511.0	9.003842	-1.865948	1.771168	0.010423	-0.023291	0.003621	-0.494385	0.22876	-0.679688
512.0	8.86429	-1.960794	1.794489	0.042873	-0.043907	0.013262	-0.503662	0.235352	-0.679932
513.0	8.765515	-2.08446	1.839475	0.078233	-0.062145	0.020898	-0.496582	0.22876	-0.67749
514.0	8.613303	-2.245866	1.799243	0.104879	-0.10402	0.024155	-0.496826	0.230957	-0.67749
515.0	8.713778	-2.425389	1.96704	0.133566	-0.126325	0.021312	-0.496582	0.226563	-0.67749
516.0	8.954439	-2.397091	1.82563	0.161447	-0.192516	0.010202	-0.496582	0.226563	-0.679688
517.0	9.346079	-2.302808	1.620479	0.197544	-0.289906	-5.1e-05	-0.500977	0.226563	-0.67749
518.0	9.473589	-2.308664	1.250942	0.218319	-0.406182	-0.019624	-0.500732	0.222168	-0.672607
519.0	9.685009	-2.238468	1.130833	0.23975	-0.552422	-0.045836	-0.500732	0.219971	-0.674805
520.0	10.348163	-2.102319	1.890702	0.281855	-0.610904	-0.045485	-0.505127	0.215576	-0.667725
521.0	11.331949	-1.804304	2.992932	0.331023	-0.627537	-0.019316	-0.507324	0.215576	-0.672363
522.0	12.603127	-1.41629	4.471258	0.320218	-0.614987	0.079997	-0.51416	0.219727	-0.658447
523.0	13.781492	-0.573861	4.260809	0.222214	-0.725096	0.213716	-0.516357	0.213135	-0.665283
524.0	14.096716	0.22641	3.590554	0.066842	-0.71807	0.318931	-0.51416	0.215332	-0.660645
525.0	12.705792	0.560808	3.290742	-0.092057	-0.650298	0.304305	-0.51416	0.215332	-0.656006
526.0	10.785858	0.360111	3.463934	-0.255031	-0.509685	0.169286	-0.516602	0.219727	-0.651611
527.0	9.874104	0.11675	3.537005	-0.347604	-0.360373	0.016875	-0.518799	0.217529	-0.646973
528.0	9.956839	-0.214382	3.635393	-0.279826	-0.1832	-0.090917	-0.525635	0.221924	-0.651611
529.0	10.596371	-0.825677	4.539013	-0.164878	-0.062521	-0.091574	-0.516602	0.224121	-0.644775
530.0	11.033659	-1.005933	3.929435	-0.06349	-0.127526	-0.023493	-0.518799	0.217529	-0.651611
531.0	10.670514	-1.188435	3.323658	0.010469	-0.133173	0.074279	-0.520996	0.219727	-0.637695
532.0	9.95767	-1.43853	3.63125	0.061221	-0.057387	0.166228	-0.516602	0.219727	-0.644531
533.0	9.256637	-1.581806	3.715438	0.108123	-0.028956	0.233481	-0.518799	0.217529	-0.646973
534.0	8.565287	-1.690517	3.709233	0.134694	-0.014232	0.273331	-0.518799	0.219727	-0.642334
535.0	8.132899	-1.63627	3.873601	0.149429	-0.011224	0.289058	-0.51416	0.217529	-0.646973
536.0	7.997747	-1.494786	4.169923	0.140953	-0.031856	0.278954	-0.523438	0.221924	-0.646973
537.0	8.247703	-1.300182	4.221483	0.131336	-0.040232	0.262983	-0.51416	0.217529	-0.644531
538.0	8.643308	-0.944783	4.12123	0.118618	-0.028741	0.252965	-0.516602	0.219727	-0.646973
539.0	9.097359	-0.44255	3.943605	0.118139	0.004556	0.25201	-0.507568	0.219727	-0.644531
540.0	9.43161	-0.031998	3.707899	0.130266	0.053638	0.252932	-0.516357	0.217529	-0.644531
541.0	9.768748	0.202978	3.45203	0.132332	0.104369	0.235032	-0.507568	0.219727	-0.642334
542.0	9.64753	0.261767	3.254171	0.126556	0.164316	0.196484	-0.505371	0.221924	-0.644775
543.0	9.595618	0.106684	2.80637	0.078026	0.150119	0.133558	-0.51001	0.224121	-0.644775
544.0	9.593245	-0.12018	2.470347	-0.000438	0.142576	0.053586	-0.514404	0.224121	-0.649414
545.0	9.374131	-0.26659	2.416391	-0.061478	0.16121	-0.000248	-0.505127	0.217529	-0.64917
546.0	9.187625	-0.329417	2.47323	-0.102542	0.188048	-0.025742	-0.505371	0.224365	-0.649414
547.0	9.12827	-0.326566	2.516837	-0.10917	0.226939	-0.031887	-0.507568	0.221924	-0.649414
548.0	9.230699	-0.338969	2.537501	-0.100601	0.259174	-0.024061	-0.503418	0.22876	-0.647217
549.0	9.441033	-0.357222	2.512691	-0.088348	0.296406	-0.018142	-0.50293	0.215332	-0.651367
550.0	9.685835	-0.455175	2.480452	-0.06529	0.305891	-0.019951	-0.503174	0.222168	-0.649414
551.0	9.794587	-0.590822	2.517619	-0.041342	0.322115	-0.020113	-0.496094	0.215576	-0.658447
552.0	9.743892	-0.871775	2.458975	-0.027668	0.322604	-0.017845	-0.496338	0.219971	-0.64917
553.0	9.751851	-1.024397	2.468551	-0.017111	0.32047	-0.022482	-0.493896	0.215576	-0.660645
554.0	9.573421	-1.0711	2.586568	0.00026	0.303395	-0.032797	-0.498779	0.22876	-0.658936
555.0	9.391778	-1.156095	2.597027	0.018207	0.273143	-0.050864	-0.489746	0.224365	-0.661133
556.0	9.274337	-1.271297	2.551489	0.031239	0.237821	-0.079429	-0.491699	0.219971	-0.660889
557.0	9.061128	-1.268078	2.53971	0.043007	0.186398	-0.101306	-0.489502	0.217773	-0.665527
558.0	8.925891	-1.181841	2.437381	0.050332	0.123311	-0.111645	-0.487305	0.222168	-0.658691
559.0	8.821283	-1.04102	2.240896	0.05352	0.10352	-0.115351	-0.486816	0.211182	-0.660645
560.0	8.719158	-0.860305	2.148394	0.061147	0.121874	-0.111714	-0.487061	0.217773	-0.658447
561.0	8.70858	-0.725872	2.152416	0.075917	0.133728	-0.095055	-0.484619	0.211182	-0.66748
562.0	8.720623	-0.595526	2.083871	0.101094	0.146568	-0.077211	-0.487061	0.217773	-0.667725
563.0	8.812127	-0.528577	2.084681	0.119576	0.155827	-0.05622	-0.484619	0.213379	-0.665283
564.0	8.887756	-0.527356	2.003072	0.134939	0.162194	-0.035423	-0.486816	0.211182	-0.665283
565.0	8.907217	-0.528782	1.969079	0.146931	0.164794	-0.014888	-0.475586	0.208984	-0.665039
566.0	9.022319	-0.563164	1.934981	0.157899	0.160021	-0.002759	-0.473389	0.211182	-0.662842
567.0	9.046653	-0.648212	1.840166	0.158927	0.132708	0.015612	-0.46875	0.206787	-0.669678
568.0	9.037929	-0.648364	1.703474	0.159131	0.102423	0.01801	-0.482178	0.206787	-0.669678
569.0	9.0896	-0.600997	1.573007	0.152988	0.073552	0.020492	-0.466309	0.206787	-0.676758
570.0	9.164836	-0.654636	1.428401	0.125167	0.05138	0.017715	-0.475342	0.206787	-0.672119
571.0	8.975942	-0.450403	1.450687	0.103619	0.051006	0.025484	-0.470947	0.20459	-0.678955
572.0	8.975925	-0.409883	1.558824	0.083689	0.036817	0.033418	-0.470703	0.202393	-0.674072
573.0	9.150661	-0.369406	1.698789	0.068332	0.026604	0.033763	-0.466309	0.202393	-0.676514
574.0	9.239635	-0.312412	1.516566	0.039142	0.038475	0.031028	-0.46875	0.208984	-0.674316
575.0	9.38114	-0.317902	1.526655	0.021258	0.038494	0.01065	-0.470947	0.20459	-0.676514
576.0	9.446907	-0.225628	1.790224	-0.000638	0.01722	0.002298	-0.470947	0.206787	-0.66748
577.0	9.723817	-0.199695	1.805837	-0.01021	-0.03933	-0.015141	-0.468506	0.200195	-0.669434
578.0	9.79269	-0.141051	1.910007	0.007702	-0.055402	-0.025129	-0.470703	0.202393	-0.669434
579.0	9.835049	-0.0317	1.991855	0.02733	-0.088739	-0.031775	-0.468506	0.202393	-0.667236
580.0	9.891228	-0.032567	1.984311	0.062857	-0.102392	-0.047117	-0.466064	0.200195	-0.669434
581.0	9.922885	-0.06875	1.944489	0.084491	-0.125264	-0.072155	-0.466309	0.202393	-0.667236
582.0	9.982945	-0.094932	1.732975	0.083439	-0.133103	-0.094028	-0.468506	0.202393	-0.669434
583.0	10.339002	-0.108996	1.559091	0.071336	-0.140136	-0.111377	-0.468262	0.195801	-0.659912
584.0	10.831008	0.220021	1.650454	0.056053	-0.162129	-0.13532	-0.468506	0.202393	-0.664795
585.0	11.097436	0.338896	1.580673	0.035902	-0.177484	-0.149804	-0.463867	0.202393	-0.664795
586.0	11.758941	0.294521	2.563648	0.080664	-0.146999	-0.163414	-0.470703	0.200195	-0.664795
587.0	12.963156	-0.058641	4.85971	0.201209	-0.095292	-0.202577	-0.461426	0.193604	-0.666992
588.0	13.567838	-1.276121	4.766674	0.271813	-0.182747	-0.262899	-0.474854	0.193604	-0.666992
589.0	13.135997	-2.79012	3.170414	0.280859	-0.308975	-0.33996	-0.468018	0.189209	-0.671387
590.0	12.157854	-3.241799	3.789635	0.257635	-0.331133	-0.380128	-0.474609	0.187012	-0.662109
591.0	10.84487	-2.906581	3.877835	0.222872	-0.335004	-0.346182	-0.469971	0.182617	-0.661865
592.0	9.667354	-2.142948	3.627587	0.177501	-0.361753	-0.268634	-0.476807	0.187012	-0.659668
593.0	9.19015	-1.202998	3.237038	0.073763	-0.429307	-0.21986	-0.471924	0.178223	-0.664063
594.0	9.303053	-0.306742	3.293181	-0.016995	-0.355719	-0.227283	-0.476807	0.182373	-0.652588
595.0	9.894987	0.245739	4.632357	-0.057755	-0.123585	-0.264808	-0.472168	0.184814	-0.661865
596.0	10.069614	0.407419	4.767588	-0.139145	0.046956	-0.29734	-0.472168	0.182617	-0.654785
597.0	10.082064	0.335065	4.027633	-0.175281	0.076415	-0.341115	-0.469727	0.18042	-0.652588
598.0	10.534915	0.017822	4.741086	-0.149047	0.1131	-0.382791	-0.476563	0.180176	-0.654785
599.0	10.762295	-0.228407	5.289986	-0.110395	0.124901	-0.409109	-0.469971	0.18042	-0.666504
600.0	10.500633	-0.7186	5.042777	-0.071659	0.077431	-0.411902	-0.474121	0.175781	-0.661621
601.0	10.098709	-1.045999	5.053942	-0.032199	0.064504	-0.363619	-0.469482	0.171631	-0.663818
602.0	9.723826	-1.113912	4.848216	-0.01693	0.066447	-0.333322	-0.476318	0.175781	-0.65918
603.0	9.669766	-1.105162	4.582415	0.009305	0.089156	-0.303086	-0.47168	0.171631	-0.670654
604.0	9.661834	-0.973299	4.458075	0.006999	0.148646	-0.277214	-0.474365	0.178223	-0.664063
605.0	10.432463	-0.85126	3.829924	0.013703	0.133689	-0.209963	-0.469482	0.169434	-0.668213
606.0	10.153827	-0.727002	3.288738	0.010417	0.175912	-0.148328	-0.469727	0.176025	-0.66626
607.0	9.963375	-0.824986	2.972176	-0.019768	0.18305	-0.093023	-0.462891	0.173828	-0.668457
608.0	9.396494	-0.978196	2.914163	-0.056761	0.212328	-0.059846	-0.471924	0.178223	-0.67334
609.0	9.102302	-1.234421	2.676554	-0.089067	0.198849	-0.033666	-0.460449	0.171631	-0.666016
610.0	8.757862	-1.603247	2.644069	-0.110365	0.202598	-0.015464	-0.467529	0.18042	-0.668701
611.0	8.65057	-1.694868	2.696046	-0.119125	0.194254	0.006425	-0.456055	0.176025	-0.668457
612.0	8.575035	-1.735818	2.852377	-0.132328	0.199304	0.021322	-0.465332	0.18042	-0.67334
613.0	8.685334	-1.526412	2.871439	-0.135568	0.204111	0.039538	-0.451904	0.18042	-0.671143
614.0	8.851466	-1.314666	2.844681	-0.117383	0.201124	0.05838	-0.45874	0.184814	-0.673584
615.0	8.747039	-1.040563	2.817348	-0.081742	0.183503	0.08858	-0.451904	0.182617	-0.682861
616.0	8.562617	-0.913871	2.74482	-0.054258	0.186542	0.117881	-0.454346	0.187012	-0.673584
617.0	8.325922	-0.731739	2.676813	-0.015625	0.180812	0.139982	-0.449707	0.184814	-0.682861
618.0	8.283875	-0.604628	2.633002	0.003102	0.16732	0.177178	-0.45459	0.191406	-0.676025
619.0	8.170175	-0.660584	2.563951	0.011945	0.171663	0.192088	-0.443115	0.187012	-0.682861
620.0	8.328962	-0.729046	2.504684	0.008607	0.167721	0.205298	-0.452148	0.189209	-0.683105
621.0	8.26525	-0.848769	2.479677	0.000892	0.181085	0.201753	-0.445557	0.189209	-0.683105
622.0	8.303869	-0.834552	2.500931	-0.004462	0.194647	0.189299	-0.447998	0.195801	-0.678711
623.0	8.317346	-0.912655	2.486618	-0.002722	0.213678	0.169439	-0.443359	0.196045	-0.68335
624.0	8.376709	-0.956182	2.455489	0.005278	0.22685	0.157075	-0.443359	0.193848	-0.687744
625.0	8.342124	-1.115959	2.430802	0.014526	0.227499	0.141663	-0.436768	0.198242	-0.687988
626.0	8.36607	-1.118249	2.279479	0.020747	0.207866	0.122621	-0.443359	0.196045	-0.692627
627.0	8.396837	-1.208797	2.14019	0.013301	0.174043	0.094606	-0.432129	0.196045	-0.692627
628.0	8.4247	-1.257275	2.124967	0.012105	0.121156	0.060879	-0.437012	0.202637	-0.692871
629.0	8.358653	-1.27287	2.078676	0.00649	0.072487	0.023988	-0.432373	0.200439	-0.697266
630.0	8.631741	-1.184074	1.963301	0.013973	0.043994	-0.008014	-0.443848	0.204834	-0.685791
631.0	8.613848	-1.113456	1.950341	0.035697	0.053753	-0.017095	-0.43457	0.200439	-0.69043
632.0	8.534361	-1.050946	1.85797	0.042712	0.028625	-0.032093	-0.437256	0.207031	-0.690674
633.0	8.783121	-0.954906	1.812133	0.048164	-0.001173	-0.025057	-0.432129	0.196045	-0.690186
634.0	8.841271	-0.999348	1.908235	0.058859	-0.019786	-0.021657	-0.439453	0.207031	-0.690674
635.0	9.032697	-1.205527	2.016062	0.060876	-0.050768	-0.02927	-0.425537	0.200439	-0.695068
636.0	9.31369	-1.353	2.158555	0.052696	-0.065807	-0.046033	-0.437256	0.207031	-0.692871
637.0	9.837427	-1.36714	2.206843	0.065737	-0.067725	-0.054894	-0.43457	0.200439	-0.687988
638.0	10.197724	-1.322616	2.300485	0.082728	-0.071112	-0.054848	-0.437012	0.204834	-0.692871
639.0	10.222541	-1.27592	2.324247	0.096316	-0.082803	-0.047564	-0.432373	0.200439	-0.69043
640.0	10.143659	-1.312781	2.15819	0.080468	-0.109332	-0.051702	-0.434814	0.207031	-0.688232
641.0	10.201975	-1.253099	1.762017	0.060161	-0.135723	-0.05363	-0.432617	0.204834	-0.690674
642.0	10.036693	-1.294643	1.561618	0.055645	-0.144322	-0.051964	-0.44165	0.207031	-0.695313
643.0	9.917505	-1.254763	1.395045	0.046535	-0.192132	-0.05615	-0.43457	0.198242	-0.69043
644.0	9.724229	-1.245858	1.140588	0.069422	-0.29306	-0.066552	-0.437256	0.209229	-0.686035
645.0	10.522547	-1.533043	1.65838	0.115056	-0.314839	-0.062827	-0.436768	0.200439	-0.685791
646.0	11.246347	-1.712904	2.329447	0.156594	-0.273853	-0.017402	-0.44165	0.207031	-0.683594
647.0	12.555718	-1.823301	3.597947	0.212143	-0.267972	0.073974	-0.437012	0.207031	-0.678955
648.0	14.147107	-1.088895	4.439859	0.224588	-0.344815	0.221722	-0.441895	0.213623	-0.681641
649.0	14.666883	0.02746	4.175492	0.212936	-0.479195	0.395489	-0.435059	0.209229	-0.683838
650.0	13.666429	0.764577	4.720585	0.163386	-0.444957	0.516297	-0.444092	0.213623	-0.677002
651.0	12.2451	1.20129	5.117068	0.099628	-0.352336	0.565414	-0.444092	0.211426	-0.683838
652.0	9.842577	1.020632	4.909551	0.070558	-0.240136	0.528195	-0.446777	0.222412	-0.675049
653.0	8.090708	0.333543	5.003373	0.051674	-0.230581	0.415985	-0.442139	0.222412	-0.675049
654.0	8.151038	-0.821994	5.323535	0.038384	-0.111667	0.374186	-0.444824	0.231201	-0.67749
655.0	8.828918	-1.493682	4.805848	0.048837	-0.009607	0.402001	-0.442383	0.224609	-0.679688
656.0	9.771265	-1.700598	4.741446	0.110421	0.08173	0.465088	-0.447021	0.231201	-0.682129
657.0	10.36584	-1.64967	4.925861	0.18806	0.149501	0.572061	-0.442627	0.229004	-0.67749
658.0	10.233125	-1.781955	4.7412	0.256163	0.199369	0.64928	-0.445313	0.23999	-0.682617
659.0	9.954392	-1.877591	4.78059	0.278022	0.213262	0.664254	-0.431641	0.235596	-0.680176
660.0	9.50513	-2.005317	4.812852	0.22411	0.248348	0.624935	-0.438232	0.235596	-0.682373
661.0	9.554647	-2.347088	4.963675	0.125166	0.221421	0.53942	-0.429199	0.235596	-0.680176
662.0	9.655734	-2.34169	5.163626	0.027199	0.159283	0.415777	-0.431885	0.244385	-0.685059
663.0	9.796462	-2.314045	5.01471	-0.044444	0.086903	0.273406	-0.429688	0.246826	-0.6875
664.0	9.673607	-2.104934	4.666952	-0.107637	0.053928	0.136095	-0.429932	0.251221	-0.680664
665.0	9.411272	-1.656788	4.184825	-0.133881	0.08417	0.035818	-0.42749	0.246826	-0.68042
666.0	9.516134	-1.092376	3.728795	-0.102738	0.081085	-0.029538	-0.427979	0.257813	-0.68335
667.0	9.145448	-0.484355	3.160476	-0.062353	0.101687	-0.066568	-0.429932	0.253418	-0.687744
668.0	8.491158	-0.126341	2.85717	0.001999	0.187098	-0.082086	-0.430176	0.255615	-0.680908
669.0	8.190219	0.098381	2.954385	0.085166	0.24201	-0.081905	-0.420898	0.251221	-0.689941
670.0	8.226373	0.129134	3.052471	0.14624	0.265124	-0.077745	-0.425293	0.251221	-0.689941
671.0	8.435895	-0.149615	3.061278	0.17807	0.277418	-0.073219	-0.425293	0.251221	-0.687744
672.0	8.796996	-0.375741	3.035127	0.190503	0.258515	-0.08058	-0.427734	0.255615	-0.685547
673.0	8.758731	-0.586841	2.891628	0.19895	0.256023	-0.093941	-0.418701	0.253418	-0.69458
674.0	8.81829	-0.828972	2.726713	0.202713	0.241869	-0.102283	-0.420898	0.251221	-0.692383
675.0	8.714998	-1.007556	2.703353	0.21413	0.214426	-0.129142	-0.420654	0.246826	-0.689697
676.0	8.513245	-1.026129	2.634243	0.22795	0.180454	-0.144948	-0.42334	0.255615	-0.70166
677.0	8.301395	-1.063076	2.534355	0.224016	0.128782	-0.154	-0.414063	0.249023	-0.692139
678.0	8.073606	-1.173412	2.399529	0.206023	0.090163	-0.165	-0.42334	0.257813	-0.687988
679.0	7.987348	-1.155116	2.37804	0.171328	0.068398	-0.160988	-0.414063	0.249023	-0.689941
680.0	7.86941	-1.143864	2.327618	0.140235	0.054884	-0.157693	-0.425293	0.249023	-0.699219
681.0	7.821688	-0.979523	2.313972	0.098329	0.020261	-0.148816	-0.411621	0.244629	-0.698975
682.0	7.947075	-0.686521	2.21807	0.067812	-0.028713	-0.131285	-0.416504	0.253418	-0.692383
683.0	8.201433	-0.420481	2.12486	0.034778	-0.066526	-0.105467	-0.414063	0.246826	-0.692139
684.0	8.329146	-0.211844	2.213392	0.01001	-0.079963	-0.079568	-0.418701	0.253418	-0.692383
685.0	8.422358	-0.06274	2.221461	-0.020435	-0.085819	-0.052357	-0.41626	0.246826	-0.689697
686.0	8.471925	0.058154	2.175641	-0.067443	-0.090093	-0.017561	-0.423096	0.251221	-0.69458
687.0	8.494788	0.223943	2.106707	-0.126771	-0.091391	0.00363	-0.41626	0.251221	-0.692383
688.0	8.501084	0.266245	1.906142	-0.184044	-0.101302	0.022314	-0.418945	0.257813	-0.690186
689.0	8.870314	0.104704	1.712356	-0.238681	-0.118577	0.027311	-0.412109	0.255615	-0.687744
690.0	9.101584	-0.089416	1.55621	-0.279554	-0.090054	0.009886	-0.423828	0.266602	-0.688232
691.0	8.816308	0.001338	1.541231	-0.295713	-0.025942	0.00697	-0.418945	0.257813	-0.687988
692.0	9.005381	-0.161021	1.610683	-0.273341	-0.037974	0.005805	-0.416992	0.268799	-0.688232
693.0	9.309957	-0.366211	1.925923	-0.217188	-0.062652	-0.014565	-0.416992	0.264404	-0.683594
694.0	10.043513	-0.715038	2.15354	-0.143565	-0.055268	-0.050062	-0.423828	0.266602	-0.685791
695.0	10.619355	-0.899794	2.137988	-0.062643	-0.077038	-0.089183	-0.419189	0.264404	-0.688232
696.0	10.892838	-1.100711	1.978013	0.01918	-0.107331	-0.129876	-0.423828	0.270996	-0.674561
697.0	11.004068	-1.508241	1.788423	0.070778	-0.140713	-0.16668	-0.416992	0.266602	-0.681152
698.0	10.911732	-1.68807	1.531458	0.092366	-0.148622	-0.185786	-0.419434	0.268799	-0.681396
699.0	10.772619	-1.712978	1.454381	0.093794	-0.190811	-0.194431	-0.421387	0.264404	-0.688232
700.0	10.891348	-1.55703	1.422739	0.088632	-0.267684	-0.201356	-0.426025	0.268799	-0.686035
701.0	11.038159	-1.263887	1.568971	0.070837	-0.279069	-0.209779	-0.423584	0.262207	-0.678711
702.0	11.350879	-0.985095	2.259633	0.073715	-0.253399	-0.217388	-0.42627	0.273193	-0.676758
703.0	12.540885	-0.975049	4.288586	0.1349	-0.216301	-0.234085	-0.423584	0.262207	-0.685791
704.0	13.712356	-1.300394	5.132915	0.186045	-0.251586	-0.302343	-0.43042	0.266602	-0.683594
705.0	13.177111	-2.604141	3.642293	0.143603	-0.475914	-0.374627	-0.425537	0.257813	-0.67627
706.0	11.68256	-2.90791	3.848947	0.138888	-0.614033	-0.44245	-0.441895	0.266602	-0.676514
707.0	9.96514	-2.190761	4.353278	0.137788	-0.662221	-0.469255	-0.434326	0.250977	-0.671387
708.0	8.9563	-1.28077	4.509591	0.153325	-0.638	-0.431637	-0.446045	0.259766	-0.666992
709.0	9.228837	-0.550484	4.827224	0.194572	-0.514465	-0.461241	-0.445557	0.248779	-0.668945
710.0	9.301833	-0.567974	4.171451	0.125052	-0.355772	-0.52843	-0.450439	0.255371	-0.662354
711.0	9.462356	-0.444548	3.977632	0.014118	-0.233649	-0.583181	-0.443359	0.250977	-0.662109
712.0	10.384413	0.106	4.383384	-0.077381	-0.114105	-0.602379	-0.449951	0.248779	-0.664307
713.0	11.022784	0.416967	4.908421	-0.111532	0.036674	-0.583129	-0.449707	0.23999	-0.66626
714.0	11.050238	0.465444	5.18632	-0.071125	0.126924	-0.538822	-0.45459	0.246582	-0.673584
715.0	10.943958	0.23283	5.280068	0.001545	0.151862	-0.477067	-0.447266	0.237793	-0.670898
716.0	10.854677	-0.229895	5.310035	0.060465	0.149367	-0.416187	-0.447754	0.248779	-0.676025
717.0	10.497929	-0.630655	5.246589	0.085387	0.144126	-0.339582	-0.447754	0.244385	-0.67334
718.0	10.297122	-1.015497	5.234014	0.08387	0.153443	-0.259013	-0.452148	0.244385	-0.668701
719.0	10.478857	-0.910907	4.670389	0.087716	0.175054	-0.153685	-0.447266	0.233398	-0.673096
720.0	10.068778	-0.897362	4.175247	0.067715	0.209474	-0.081184	-0.449707	0.242188	-0.67334
721.0	9.726918	-0.813379	3.611793	0.012754	0.201795	-0.023301	-0.436279	0.244385	-0.675781
722.0	8.849181	-0.677778	3.462609	-0.059359	0.23808	0.010506	-0.452148	0.246582	-0.673584
723.0	8.294705	-0.771187	3.324301	-0.140229	0.248403	0.003398	-0.44043	0.235596	-0.677734
724.0	8.013257	-0.873013	3.210988	-0.218676	0.254966	0.001667	-0.445557	0.246582	-0.675781
725.0	7.932254	-0.853508	3.010219	-0.27438	0.268141	0.007913	-0.443115	0.246582	-0.678223
726.0	7.970001	-0.824785	2.935112	-0.31146	0.275748	0.029517	-0.441162	0.250977	-0.687744
727.0	7.984214	-0.689081	3.017251	-0.32442	0.322845	0.049423	-0.429932	0.251221	-0.680664
728.0	8.204463	-0.476614	3.164068	-0.335586	0.350172	0.066397	-0.437012	0.257813	-0.680908
729.0	8.623288	-0.407761	3.112098	-0.328076	0.327264	0.105733	-0.438965	0.253418	-0.697021
730.0	8.455411	-0.459533	2.909361	-0.320545	0.304223	0.122769	-0.434814	0.262207	-0.681152
731.0	8.3557	-0.592204	2.624829	-0.325166	0.281284	0.125221	-0.430176	0.255615	-0.680908
732.0	8.51487	-0.606432	2.55524	-0.316101	0.282411	0.134494	-0.432617	0.26001	-0.680908
733.0	8.475722	-0.683148	2.496714	-0.288598	0.276961	0.139124	-0.427979	0.262207	-0.68335
734.0	8.515549	-0.715288	2.41976	-0.270288	0.252358	0.140399	-0.42627	0.270996	-0.693115
735.0	8.468657	-0.858135	2.275821	-0.266418	0.218309	0.124241	-0.42627	0.273193	-0.683838
736.0	8.343299	-0.992647	2.199114	-0.262292	0.198215	0.098781	-0.428467	0.273193	-0.688477
737.0	8.322831	-1.189019	2.191175	-0.275994	0.168215	0.052418	-0.419434	0.268799	-0.688232
738.0	8.141303	-1.322227	2.177666	-0.286298	0.142704	0.004068	-0.424316	0.277588	-0.690918
739.0	8.124615	-1.45673	2.168516	-0.273636	0.10236	-0.038288	-0.419434	0.273193	-0.690674
740.0	8.232264	-1.512876	2.147545	-0.230546	0.086349	-0.063183	-0.422119	0.279785	-0.688721
741.0	8.242775	-1.489915	2.155322	-0.164798	0.098853	-0.079285	-0.419678	0.277588	-0.693359
742.0	8.505635	-1.509672	2.124466	-0.0889	0.099133	-0.08268	-0.426514	0.279785	-0.697998
743.0	8.16095	-1.629714	2.147733	-0.012701	0.127485	-0.084189	-0.417236	0.275391	-0.690918
744.0	8.632831	-1.877306	2.179258	0.036488	0.101259	-0.085215	-0.426758	0.281982	-0.691162
745.0	8.652827	-2.350545	1.983876	0.048484	0.07737	-0.093295	-0.419678	0.275391	-0.690918
746.0	8.648123	-2.6663	1.949151	0.028207	-0.000564	-0.106565	-0.424316	0.277588	-0.690918
747.0	8.985887	-2.599541	2.069738	0.013587	-0.110591	-0.132999	-0.424072	0.275391	-0.688477
748.0	9.276729	-2.150536	2.050503	0.031599	-0.196421	-0.150611	-0.424072	0.275391	-0.690918
749.0	9.563557	-1.443968	2.004461	0.087063	-0.255807	-0.148101	-0.423828	0.270996	-0.686035
750.0	9.600006	-0.787076	1.661738	0.147489	-0.307578	-0.123864	-0.430908	0.277588	-0.690918
751.0	9.947727	-0.112319	1.379832	0.179677	-0.347044	-0.08801	-0.428711	0.275391	-0.695557
752.0	10.118109	0.061579	1.125215	0.192147	-0.357263	-0.028237	-0.428467	0.273193	-0.688477
753.0	9.832144	-0.012244	0.921225	0.170529	-0.352746	0.025479	-0.430664	0.268799	-0.690674
754.0	9.909004	-0.471644	1.331679	0.134526	-0.335134	0.059867	-0.435303	0.270996	-0.686035
755.0	9.991534	-0.936125	1.965098	0.073962	-0.322713	0.090508	-0.432861	0.268799	-0.686035
756.0	11.191442	-1.445682	4.00947	0.022328	-0.251296	0.141346	-0.439941	0.277588	-0.684082
757.0	13.330027	-0.835613	6.379366	-0.001407	-0.156955	0.253688	-0.432861	0.266602	-0.683594
758.0	15.405485	1.144203	5.165052	0.001673	-0.439721	0.402512	-0.444336	0.273193	-0.688477
759.0	14.836934	2.419284	3.750374	-0.000703	-0.498103	0.55906	-0.435303	0.270996	-0.678955
760.0	12.034136	1.927929	5.082465	-0.087694	-0.427608	0.586284	-0.442383	0.281982	-0.684082
761.0	9.991988	0.647195	5.978339	-0.217089	-0.356318	0.529122	-0.437744	0.279785	-0.686279
762.0	9.43711	-0.673772	5.038513	-0.197962	-0.277144	0.501652	-0.442627	0.286377	-0.679688
763.0	9.614249	-1.626481	5.092189	-0.105627	-0.103953	0.509034	-0.435547	0.281982	-0.677246
764.0	9.981996	-2.312449	5.710042	-0.054373	0.067754	0.533457	-0.438232	0.292969	-0.682129
765.0	10.595217	-2.472404	5.418288	0.033236	0.064004	0.569817	-0.437988	0.286377	-0.684326
766.0	11.303112	-2.031589	5.053345	0.174046	0.077721	0.643901	-0.440674	0.295166	-0.689209
767.0	11.003509	-1.751282	5.03026	0.292532	0.144796	0.711514	-0.433838	0.292969	-0.691406
768.0	10.367001	-1.839657	5.039008	0.333264	0.178582	0.729781	-0.436279	0.297363	-0.687012
769.0	9.723344	-1.970949	5.019969	0.281502	0.226821	0.713398	-0.429199	0.290771	-0.686768
770.0	9.79488	-2.053644	5.021339	0.181879	0.221562	0.638904	-0.432129	0.306152	-0.694336
771.0	10.131367	-1.905406	5.124063	0.102104	0.207117	0.527474	-0.427246	0.295166	-0.689209
772.0	10.289199	-1.511183	4.679199	0.046226	0.200955	0.394713	-0.427246	0.299561	-0.689453
773.0	10.214173	-1.300886	4.205418	0.030364	0.169746	0.305414	-0.423096	0.304199	-0.687256
774.0	10.090674	-0.981868	3.665057	0.026954	0.192062	0.235787	-0.425293	0.306396	-0.694336
775.0	9.65891	-0.648348	3.289528	0.067202	0.255098	0.193262	-0.424805	0.295166	-0.696289
776.0	9.135206	-0.230805	3.021789	0.122425	0.364387	0.161306	-0.425293	0.304199	-0.705811
777.0	8.637246	0.050785	2.819108	0.16224	0.436586	0.122925	-0.416016	0.299805	-0.69873
778.0	8.129026	0.316441	2.836201	0.194859	0.514859	0.096267	-0.416504	0.308594	-0.708252
779.0	8.073842	0.475343	2.988573	0.213944	0.532456	0.066345	-0.416016	0.297607	-0.705566
780.0	8.341608	0.197634	3.070821	0.194958	0.508855	0.028048	-0.411865	0.306396	-0.715332
781.0	8.344731	0.055577	3.248239	0.176226	0.50013	-0.020824	-0.405029	0.302002	-0.712646
782.0	8.29655	-0.11741	3.271392	0.166702	0.484153	-0.067705	-0.409424	0.299805	-0.719727
783.0	8.57198	-0.33369	3.164178	0.159982	0.423738	-0.121447	-0.400146	0.293213	-0.712402
784.0	8.360599	-0.443513	3.148667	0.156194	0.384091	-0.172938	-0.411377	0.29541	-0.717041
785.0	8.400593	-0.529267	3.075344	0.145437	0.306561	-0.210861	-0.401855	0.282227	-0.718994
786.0	8.151221	-0.699579	3.088955	0.134538	0.267177	-0.237809	-0.406738	0.291016	-0.72168
787.0	8.014654	-0.628772	2.733059	0.094161	0.215311	-0.265217	-0.399902	0.288818	-0.723877
788.0	7.899731	-0.70267	2.487154	0.058451	0.206978	-0.28238	-0.404785	0.297607	-0.721924
789.0	7.5848	-0.534411	2.462313	0.034504	0.205325	-0.288705	-0.401855	0.284424	-0.730713
790.0	7.607832	-0.560681	2.499628	0.024122	0.16289	-0.279846	-0.404297	0.288818	-0.726318
791.0	7.843497	-0.52413	2.582817	0.035736	0.113173	-0.250404	-0.39502	0.282227	-0.726074
792.0	7.928792	-0.463223	2.527988	0.046131	0.07533	-0.21593	-0.399902	0.288818	-0.728516
793.0	8.183069	-0.325442	2.394162	0.059678	0.042562	-0.165376	-0.397461	0.284424	-0.726074
794.0	8.300325	-0.134723	2.250373	0.056405	0.038744	-0.104965	-0.404053	0.280029	-0.72583
795.0	8.384061	0.144003	2.208495	0.049595	0.034788	-0.041348	-0.397217	0.280029	-0.72583
796.0	8.473498	0.281134	2.081892	0.036973	0.01733	0.014605	-0.402344	0.291016	-0.728516
797.0	8.47062	0.446399	1.921093	0.007842	-0.040677	0.053266	-0.399414	0.275635	-0.72583
798.0	8.445897	0.568875	1.72562	-0.033992	-0.101792	0.07672	-0.406738	0.288818	-0.733154
799.0	8.58772	0.264978	1.558881	-0.105029	-0.133403	0.082697	-0.401855	0.284424	-0.730713
800.0	8.75763	0.083991	1.84379	-0.16751	-0.157458	0.065836	-0.406738	0.288818	-0.726318
801.0	8.697174	0.022234	1.869381	-0.236986	-0.157975	0.054542	-0.399902	0.288818	-0.733154
802.0	8.95097	-0.09036	1.894492	-0.275724	-0.148354	0.05053	-0.411377	0.29541	-0.731201
803.0	9.68113	-0.3029	2.172284	-0.27916	-0.166163	0.032736	-0.404297	0.286621	-0.719238
804.0	10.213882	-0.377453	2.342406	-0.252197	-0.167748	0.017877	-0.40918	0.297607	-0.72876
805.0	10.288999	-0.364559	2.282107	-0.21476	-0.183446	0.00585	-0.406738	0.291016	-0.723877
806.0	10.235958	-0.500204	2.417151	-0.150516	-0.199461	-0.003266	-0.407227	0.304199	-0.726807
807.0	10.354033	-0.920086	2.389211	-0.085646	-0.232423	-0.007819	-0.408936	0.291016	-0.72168
808.0	10.419795	-1.0625	2.084267	-0.050096	-0.25138	-0.028149	-0.411621	0.302002	-0.726807
809.0	10.286356	-1.153295	1.69205	-0.062455	-0.288252	-0.04846	-0.418457	0.302002	-0.719727
810.0	10.675382	-1.129371	1.887439	-0.089264	-0.289559	-0.073755	-0.422852	0.299805	-0.729004
811.0	10.902888	-0.759616	2.423433	-0.128886	-0.257019	-0.099574	-0.415771	0.293213	-0.72168
812.0	11.95963	-0.387639	4.05074	-0.095409	-0.212767	-0.129956	-0.421143	0.310791	-0.717773
813.0	13.66873	-0.816893	5.711273	-0.004877	-0.231365	-0.207912	-0.416016	0.297607	-0.721924
814.0	14.277093	-2.712762	4.454107	-0.035017	-0.438586	-0.316764	-0.429932	0.304199	-0.722168
815.0	14.005764	-3.851312	3.930086	-0.015665	-0.529352	-0.48059	-0.429443	0.293213	-0.714844
816.0	12.484941	-3.965554	4.646481	0.005491	-0.490794	-0.605307	-0.438721	0.302002	-0.719727
817.0	10.075511	-3.599955	3.721195	0.024841	-0.477109	-0.608006	-0.431396	0.288574	-0.7146
818.0	8.271969	-2.382951	3.568875	0.063271	-0.518409	-0.536393	-0.442871	0.290771	-0.717041
819.0	8.608396	-0.792172	4.822325	0.152841	-0.442802	-0.48644	-0.440186	0.281982	-0.714355
820.0	9.405237	-0.120094	5.837901	0.200424	-0.157233	-0.481969	-0.449463	0.288574	-0.705322
821.0	9.689952	-0.042714	5.22355	0.129136	-0.076344	-0.503255	-0.446777	0.275391	-0.716309
822.0	10.646196	0.001241	4.254289	0.003783	-0.174503	-0.522529	-0.456055	0.281982	-0.709717
823.0	10.894067	0.473752	4.578122	-0.051888	-0.126569	-0.518628	-0.44873	0.273193	-0.71167
824.0	10.238447	0.819539	5.220387	-0.00816	-0.026113	-0.49539	-0.458008	0.275391	-0.709473
825.0	9.850392	0.779005	5.153189	0.084955	0.015458	-0.441796	-0.455566	0.270996	-0.709229
826.0	9.581566	0.604251	4.907173	0.148234	0.032133	-0.379489	-0.457764	0.268799	-0.713867
827.0	9.639721	0.094122	4.813126	0.20217	0.082846	-0.313339	-0.450928	0.266602	-0.711426
828.0	9.888987	-0.322403	4.688005	0.237664	0.086945	-0.251739	-0.455322	0.266602	-0.711426
829.0	10.180507	-0.605597	4.358727	0.253099	0.100155	-0.18085	-0.455078	0.26001	-0.71582
830.0	9.621993	-0.783419	4.071028	0.22744	0.131713	-0.143714	-0.45752	0.264404	-0.716064
831.0	9.467412	-0.730219	3.986833	0.178062	0.148433	-0.107393	-0.450439	0.255615	-0.718018
832.0	9.145431	-0.842944	3.886222	0.112589	0.181069	-0.083854	-0.45752	0.264404	-0.720703
833.0	9.232253	-0.965747	3.62477	0.020248	0.158554	-0.065187	-0.452637	0.257813	-0.71582
834.0	9.047424	-1.036889	3.382813	-0.041001	0.163573	-0.025223	-0.45752	0.266602	-0.725342
835.0	8.913265	-1.01921	3.321613	-0.073754	0.180667	0.014297	-0.455078	0.257813	-0.720459
836.0	8.850915	-0.974314	3.389503	-0.111986	0.212077	0.061102	-0.45752	0.266602	-0.720703
837.0	8.818736	-0.818993	3.248829	-0.159346	0.219884	0.103439	-0.448242	0.257813	-0.722656
838.0	8.774873	-0.691818	3.130455	-0.20999	0.218832	0.139773	-0.450928	0.266602	-0.725342
839.0	8.754378	-0.629746	2.958602	-0.249105	0.21938	0.169616	-0.446289	0.264404	-0.725342
840.0	8.543062	-0.619379	2.896933	-0.262833	0.227411	0.178957	-0.44873	0.270996	-0.725586
841.0	8.437548	-0.566499	2.942071	-0.270223	0.234108	0.188319	-0.439697	0.270996	-0.723145
842.0	8.393702	-0.5532	2.814413	-0.265265	0.227132	0.183753	-0.451416	0.279785	-0.72583
843.0	8.318717	-0.650553	2.600295	-0.240511	0.229262	0.202203	-0.444336	0.273193	-0.725586
844.0	8.151452	-0.816482	2.447443	-0.210259	0.230323	0.206208	-0.449219	0.28418	-0.730713
845.0	7.977533	-0.992231	2.414575	-0.178714	0.226429	0.189897	-0.444824	0.281982	-0.72583
846.0	8.060245	-1.101307	2.32841	-0.149042	0.223704	0.171392	-0.44043	0.286377	-0.728516
847.0	8.085707	-1.262166	2.258027	-0.108698	0.226613	0.135558	-0.437988	0.28418	-0.723633
848.0	8.113534	-1.365097	2.192809	-0.083286	0.201415	0.101109	-0.44043	0.286377	-0.730713
849.0	8.198268	-1.364137	1.993252	-0.037244	0.187566	0.074413	-0.440186	0.279785	-0.73291
850.0	8.279935	-1.264847	1.92575	0.001296	0.157847	0.054414	-0.438232	0.286377	-0.730713
851.0	8.258717	-1.199462	1.919245	0.041686	0.126386	0.032122	-0.437988	0.281982	-0.73291
852.0	8.317683	-1.192002	1.835272	0.083026	0.081239	0.011255	-0.440674	0.29541	-0.733398
853.0	8.398962	-1.194025	1.749876	0.137242	0.069343	-0.005015	-0.438232	0.286377	-0.733154
854.0	8.658632	-1.330211	1.540866	0.199472	0.077074	-0.005349	-0.435791	0.286377	-0.733154
855.0	8.653713	-1.486873	1.510086	0.258311	0.089669	0.001291	-0.435547	0.279785	-0.735107
856.0	8.599864	-1.634346	1.402968	0.285165	0.047056	0.008445	-0.440186	0.281982	-0.735107
857.0	8.593283	-1.64595	1.332361	0.274491	-0.037291	0.019059	-0.437744	0.275391	-0.730225
858.0	9.144509	-1.599333	1.472979	0.261405	-0.105618	0.021704	-0.439941	0.277588	-0.735107
859.0	9.418599	-1.45187	1.571215	0.254684	-0.158275	0.018774	-0.442139	0.273193	-0.734863
860.0	9.958582	-1.122846	1.745824	0.250173	-0.215448	0.014642	-0.444336	0.275391	-0.741943
861.0	10.293133	-0.614988	1.838744	0.252026	-0.264674	0.015646	-0.444336	0.273193	-0.732666
862.0	10.306744	-0.237827	1.916713	0.24643	-0.290194	0.022233	-0.455811	0.275391	-0.737305
863.0	10.365627	-0.03792	1.857694	0.226842	-0.283531	0.02567	-0.446289	0.264404	-0.732178
864.0	10.46963	-0.015327	1.640179	0.188843	-0.273501	0.04562	-0.455811	0.275391	-0.737305
865.0	10.451468	-0.215034	1.472488	0.14916	-0.27874	0.067085	-0.452881	0.262207	-0.734375
866.0	10.260361	-0.380431	1.052686	0.122967	-0.297678	0.073729	-0.460205	0.275391	-0.737305
867.0	9.875331	-0.687864	0.857373	0.109984	-0.322381	0.068133	-0.461914	0.262207	-0.729736
868.0	9.777541	-0.971984	1.094401	0.124909	-0.347192	0.057427	-0.464355	0.264404	-0.732178
869.0	10.237631	-1.755742	2.180495	0.183485	-0.300231	0.084852	-0.455078	0.257813	-0.725098
870.0	10.928146	-1.977595	3.419436	0.301382	-0.238262	0.144698	-0.466309	0.257568	-0.722656
871.0	12.086972	-1.718165	4.853538	0.41464	-0.304083	0.257536	-0.468506	0.257568	-0.725098
872.0	13.203333	-0.473299	5.122306	0.467241	-0.489394	0.419424	-0.470947	0.261963	-0.725098
873.0	13.120736	0.279214	5.803495	0.437959	-0.586645	0.579948	-0.470459	0.248779	-0.729248
874.0	12.375115	0.758868	6.025511	0.324154	-0.63176	0.762396	-0.47998	0.261963	-0.7229
875.0	10.250231	1.479784	5.310849	0.252802	-0.620841	0.862375	-0.47998	0.259766	-0.725098
876.0	8.718939	1.359461	6.697695	0.1885	-0.443151	0.8403	-0.478027	0.268555	-0.720703
877.0	8.315656	0.269882	6.201783	0.139098	-0.218632	0.8267	-0.475586	0.26416	-0.713623
878.0	8.64622	-0.294997	4.755287	0.1545	-0.025774	0.806283	-0.482666	0.275146	-0.716309
879.0	10.147255	-0.957199	5.213416	0.14369	0.108523	0.772013	-0.478027	0.270752	-0.718506
880.0	11.883848	-1.3732	5.18906	0.135413	0.2188	0.777592	-0.476074	0.279541	-0.716553
881.0	12.287104	-1.690301	4.827036	0.114427	0.284823	0.755203	-0.466797	0.273193	-0.720947
882.0	11.872214	-2.230992	5.080565	0.03335	0.228573	0.690492	-0.471924	0.28418	-0.721436
883.0	11.689243	-2.933425	5.052285	-0.086491	0.163314	0.552833	-0.473633	0.275391	-0.723389
884.0	11.260784	-3.457867	4.549226	-0.222981	0.124355	0.3542	-0.474121	0.286377	-0.726074
885.0	10.642212	-3.298271	4.131299	-0.335371	0.094296	0.1657	-0.47168	0.279785	-0.723389
886.0	10.350874	-2.7012	3.953684	-0.382976	0.062661	0.022526	-0.476807	0.292969	-0.72168
887.0	10.132557	-1.991628	3.80896	-0.372404	0.062648	-0.075525	-0.467529	0.286377	-0.716797
888.0	9.659366	-1.209905	3.572971	-0.318167	0.142179	-0.124759	-0.474609	0.297363	-0.726563
889.0	8.964073	-0.569372	3.33576	-0.231279	0.233252	-0.114598	-0.471924	0.28418	-0.714355
890.0	8.464911	-0.155799	3.148253	-0.120394	0.314728	-0.088617	-0.474365	0.292969	-0.723877
891.0	8.127246	0.237905	2.943802	-0.017961	0.358099	-0.062589	-0.471924	0.28418	-0.728271
892.0	7.951823	0.219509	2.820166	0.064038	0.393679	-0.050312	-0.467529	0.290771	-0.72168
893.0	7.870497	-0.049878	2.833715	0.123147	0.416627	-0.062201	-0.460449	0.281982	-0.72583
894.0	7.940308	-0.398022	2.947494	0.152189	0.39652	-0.081439	-0.469727	0.286377	-0.733154
895.0	7.720533	-0.610586	2.761851	0.172657	0.39999	-0.097662	-0.464844	0.275391	-0.734863
896.0	7.95369	-0.98345	2.6367	0.176698	0.330776	-0.122259	-0.467285	0.28418	-0.73291
897.0	7.979731	-1.313128	2.647485	0.173343	0.288682	-0.148352	-0.455811	0.275391	-0.734863
898.0	7.765465	-1.301691	2.657844	0.157903	0.224868	-0.178821	-0.469482	0.281982	-0.737549
899.0	7.827096	-1.369354	2.503027	0.125207	0.162969	-0.214138	-0.462402	0.273193	-0.737305
900.0	7.893848	-1.472642	2.415891	0.094357	0.11846	-0.243228	-0.469238	0.275391	-0.737305
901.0	7.79732	-1.419726	2.4692	0.075964	0.075358	-0.25282	-0.466797	0.268799	-0.737061
902.0	7.809976	-1.263897	2.186137	0.066175	0.002464	-0.23837	-0.471436	0.273193	-0.739502
903.0	7.885416	-0.922861	1.959799	0.074763	-0.033347	-0.1964	-0.462158	0.264404	-0.741455
904.0	8.080709	-0.655529	1.979868	0.085386	-0.054269	-0.147181	-0.471191	0.266602	-0.741699
905.0	8.347422	-0.362839	2.14933	0.093021	-0.093188	-0.100854	-0.468506	0.257568	-0.736572
906.0	8.480434	-0.2513	1.980864	0.068847	-0.133066	-0.05304	-0.477783	0.266357	-0.739258
907.0	8.76143	-0.183796	1.839981	0.042098	-0.167238	-0.014091	-0.475342	0.257568	-0.729736
908.0	8.638412	-0.067827	1.749843	-0.004696	-0.165847	0.033368	-0.47583	0.268555	-0.725342
909.0	8.630442	-0.09168	1.68627	-0.062536	-0.141144	0.079055	-0.477539	0.255371	-0.734131
910.0	8.728154	-0.262319	1.820383	-0.111341	-0.109463	0.116181	-0.482178	0.261963	-0.739014
911.0	9.011831	-0.603131	1.787865	-0.1558	-0.072621	0.126582	-0.477539	0.259766	-0.739014
912.0	9.188229	-0.52624	1.770686	-0.173882	-0.03604	0.109379	-0.47583	0.268555	-0.732422
913.0	9.411668	-0.468714	1.63423	-0.173876	-0.037843	0.080095	-0.482178	0.261963	-0.727539
914.0	9.664838	-0.533443	1.73617	-0.125058	-0.073746	0.028069	-0.484619	0.26416	-0.734619
915.0	9.858361	-0.680564	1.974185	-0.049425	-0.10353	-0.036871	-0.47998	0.259766	-0.725098
916.0	9.991302	-0.868906	2.23104	0.025772	-0.078	-0.10121	-0.493408	0.261963	-0.729736
917.0	10.512584	-1.091526	2.06436	0.091956	-0.101738	-0.170654	-0.486572	0.257568	-0.731934
918.0	10.59555	-1.001575	1.668669	0.149863	-0.133363	-0.223528	-0.495605	0.259766	-0.731934
919.0	10.673071	-1.090784	1.432189	0.188567	-0.164133	-0.257461	-0.488525	0.248779	-0.731689
920.0	10.628879	-0.960524	1.270692	0.193017	-0.194497	-0.251334	-0.495361	0.253174	-0.731689
921.0	10.550454	-0.887826	0.954354	0.172591	-0.240162	-0.23246	-0.495117	0.246582	-0.726807
922.0	10.503114	-0.631718	0.570023	0.15681	-0.263065	-0.226333	-0.50415	0.248779	-0.731689
923.0	10.944889	-0.224199	1.090076	0.167621	-0.218293	-0.231594	-0.499512	0.242188	-0.726807
924.0	11.38927	-0.219739	1.643694	0.213321	-0.20031	-0.237169	-0.506348	0.246338	-0.724609
925.0	12.401734	-0.433743	3.528577	0.304132	-0.162892	-0.265403	-0.503662	0.235352	-0.72876
926.0	13.284628	-1.23108	4.380978	0.378945	-0.272645	-0.338451	-0.505859	0.233154	-0.719482
927.0	12.896899	-2.775209	2.957048	0.321777	-0.511397	-0.418127	-0.512207	0.224365	-0.730713
928.0	12.064865	-3.690985	3.509903	0.288322	-0.616547	-0.52465	-0.52124	0.226563	-0.712158
929.0	10.900504	-3.488539	4.457848	0.282259	-0.63098	-0.582067	-0.518555	0.213379	-0.71875
930.0	10.183012	-2.507976	5.859401	0.368721	-0.520649	-0.588425	-0.530029	0.215576	-0.723389
931.0	9.361081	-1.964851	5.286004	0.377341	-0.480814	-0.593742	-0.527344	0.204346	-0.713623
932.0	8.594124	-1.75664	4.518582	0.280972	-0.485781	-0.591515	-0.531494	0.199951	-0.71582
933.0	8.894411	-0.841515	4.979584	0.161326	-0.402846	-0.57975	-0.535645	0.188965	-0.710693
934.0	9.699832	0.258217	5.002641	0.062606	-0.231561	-0.576809	-0.540283	0.195557	-0.710938
935.0	10.693007	1.249199	4.592774	0.060728	-0.080883	-0.568061	-0.540039	0.18457	-0.712891
936.0	11.158024	1.609192	4.634961	0.096998	0.041034	-0.518588	-0.537842	0.188965	-0.713135
937.0	11.107228	1.4949	4.742611	0.125025	0.184217	-0.462455	-0.537354	0.177979	-0.712646
938.0	10.989431	1.048684	4.934664	0.142621	0.265539	-0.398659	-0.544434	0.182373	-0.715088
939.0	10.815887	0.486609	5.230684	0.132863	0.287423	-0.324886	-0.541748	0.173584	-0.717285
940.0	11.055325	-0.19281	5.136503	0.102357	0.293283	-0.227837	-0.541748	0.175781	-0.721924
941.0	10.710074	-0.793501	4.484528	0.056381	0.295679	-0.13869	-0.534668	0.166992	-0.717041
942.0	10.336376	-0.892037	3.929469	0.007605	0.296242	-0.083006	-0.541504	0.169189	-0.72168
943.0	10.05721	-0.661627	3.716753	-0.033936	0.33533	-0.04956	-0.534668	0.166992	-0.726318
944.0	9.423974	-0.690225	3.500782	-0.054312	0.343025	-0.036133	-0.537354	0.175781	-0.724121
945.0	8.638067	-0.857995	3.20428	-0.098576	0.324933	-0.074032	-0.534912	0.169189	-0.723877
946.0	8.366499	-0.937447	3.152066	-0.17773	0.291588	-0.096733	-0.537354	0.173584	-0.721924
947.0	8.237905	-1.010193	3.122483	-0.235269	0.279111	-0.091519	-0.530273	0.166992	-0.726318
948.0	8.134025	-0.933605	3.092474	-0.273879	0.272393	-0.057287	-0.535156	0.175781	-0.729004
949.0	8.151056	-0.786713	3.066018	-0.29589	0.284329	-0.008339	-0.526123	0.173584	-0.731201
950.0	7.967457	-0.599612	3.184283	-0.306404	0.320977	0.044337	-0.530762	0.182373	-0.733887
951.0	8.257266	-0.518943	3.072507	-0.305992	0.329648	0.092463	-0.528076	0.171387	-0.726318
952.0	8.416748	-0.536916	2.908036	-0.280024	0.32099	0.150725	-0.531006	0.18457	-0.733887
953.0	8.338072	-0.595554	2.686115	-0.272037	0.328583	0.186782	-0.526123	0.177979	-0.74292
954.0	8.36801	-0.550775	2.568371	-0.269285	0.323254	0.209237	-0.521973	0.182373	-0.738525
955.0	8.353451	-0.539595	2.472827	-0.275359	0.331583	0.228478	-0.523926	0.180176	-0.736084
956.0	8.30537	-0.593198	2.373442	-0.263666	0.316291	0.230892	-0.524658	0.193604	-0.748047
957.0	8.133862	-0.72003	2.312229	-0.261406	0.293493	0.220679	-0.519775	0.186768	-0.743164
958.0	8.186779	-0.940289	2.304545	-0.267799	0.26551	0.188943	-0.515625	0.197998	-0.746094
959.0	8.290694	-1.109024	2.396609	-0.280763	0.24597	0.148283	-0.519775	0.189209	-0.745605
960.0	8.371755	-1.223832	2.341073	-0.290047	0.239283	0.090168	-0.520264	0.197998	-0.746094
961.0	8.336674	-1.24251	2.282166	-0.288308	0.241413	0.039215	-0.515625	0.197998	-0.746094
962.0	8.196847	-1.250205	2.167148	-0.285776	0.224412	-0.013435	-0.516113	0.206787	-0.748535
963.0	8.330939	-1.209791	2.094497	-0.267309	0.205894	-0.049062	-0.51123	0.197998	-0.748291
964.0	8.217213	-1.154381	2.152069	-0.23478	0.178312	-0.070189	-0.520508	0.20459	-0.750977
965.0	8.483533	-1.070368	2.112445	-0.179695	0.148183	-0.083059	-0.515625	0.195801	-0.748291
966.0	8.831106	-1.034069	2.149292	-0.122913	0.142147	-0.09726	-0.520508	0.20459	-0.746338
967.0	8.990401	-1.165133	1.820892	-0.087945	0.139343	-0.098569	-0.513184	0.191406	-0.757324
968.0	8.949408	-1.599172	1.729538	-0.073339	0.126857	-0.09636	-0.522705	0.202393	-0.750732
969.0	8.943121	-1.874897	1.548173	-0.090598	0.074149	-0.112228	-0.515869	0.200195	-0.75293
970.0	9.390568	-2.112633	1.642442	-0.092062	0.027274	-0.121874	-0.517822	0.195801	-0.750488
971.0	9.902132	-2.07586	1.730314	-0.059514	0.000184	-0.134222	-0.515625	0.193604	-0.74585
972.0	10.135744	-1.832883	1.807617	0.019923	-0.05082	-0.12614	-0.520264	0.197998	-0.75293
973.0	9.828247	-1.613186	1.939098	0.104987	-0.08432	-0.12277	-0.522217	0.189209	-0.748047
974.0	10.433237	-1.209068	1.773749	0.151428	-0.180567	-0.091781	-0.524658	0.195801	-0.750488
975.0	10.382177	-1.062965	1.488954	0.196059	-0.23012	-0.017791	-0.521973	0.182373	-0.752441
976.0	10.251123	-0.967079	1.215753	0.180358	-0.279379	0.029046	-0.533691	0.195557	-0.75293
977.0	9.996412	-0.909307	0.781683	0.149672	-0.317899	0.071533	-0.52417	0.18457	-0.747803
978.0	9.85944	-0.974593	0.665788	0.121448	-0.325994	0.09632	-0.53125	0.188965	-0.754883
979.0	10.165308	-1.330707	1.862265	0.104627	-0.252334	0.124143	-0.533203	0.186768	-0.750244
980.0	10.979948	-1.347409	3.40384	0.094501	-0.190896	0.168328	-0.540283	0.193359	-0.752686
981.0	12.578977	-0.699082	4.848653	0.12208	-0.205115	0.275428	-0.530762	0.182373	-0.745361
982.0	14.160481	0.978495	4.753048	0.144484	-0.408794	0.42906	-0.547119	0.191162	-0.748047
983.0	14.41956	2.361134	4.865966	0.145713	-0.46584	0.60065	-0.542236	0.18457	-0.738525
984.0	12.895443	2.360312	5.890202	0.007587	-0.387055	0.739715	-0.549805	0.204346	-0.741455
985.0	10.363729	2.111396	5.436044	-0.210442	-0.501834	0.772335	-0.553955	0.197754	-0.743652
986.0	8.708883	1.131889	5.414452	-0.310318	-0.429219	0.733031	-0.559082	0.213135	-0.737305
987.0	8.433729	0.00543	6.252926	-0.313178	-0.285776	0.739368	-0.552002	0.204346	-0.739258
988.0	8.285906	-0.435726	5.059149	-0.269788	-0.184097	0.739264	-0.557373	0.221924	-0.737549
989.0	8.861035	-1.265883	5.535168	-0.255838	-0.052799	0.739901	-0.550293	0.215332	-0.739746
990.0	10.0423	-1.97723	5.696835	-0.236189	-0.010488	0.743389	-0.555176	0.228516	-0.737793
991.0	10.629398	-2.518874	5.218989	-0.16279	0.038157	0.727203	-0.550781	0.226318	-0.733154
992.0	10.750842	-2.964131	5.008053	-0.098193	0.082006	0.678148	-0.553467	0.237549	-0.73584
993.0	10.482709	-3.367914	4.939638	-0.066067	0.128627	0.592864	-0.548584	0.233154	-0.733398
994.0	10.312317	-3.339765	5.048618	-0.072729	0.114982	0.472289	-0.549316	0.246338	-0.738525
995.0	10.469392	-3.339515	4.892183	-0.108784	0.06224	0.313719	-0.551025	0.237549	-0.738037
996.0	10.45217	-2.848669	4.681075	-0.160876	0.024109	0.166589	-0.551758	0.255127	-0.731934
997.0	10.131095	-2.414695	4.254977	-0.188812	-0.018389	0.074611	-0.55127	0.241943	-0.738281
998.0	10.018083	-1.621668	3.981997	-0.172924	-0.01195	0.016376	-0.551514	0.248535	-0.743164
999.0	9.663808	-0.830609	3.63298	-0.109353	0.044948	-0.002325	-0.558105	0.244141	-0.731445
1000.0	9.094956	-0.264299	3.17079	-0.028468	0.125731	-0.012017	-0.558594	0.255127	-0.73877
1001.0	8.418508	0.14063	3.017738	0.035128	0.201906	-0.008393	-0.555908	0.244141	-0.740723
1002.0	7.71383	0.284907	3.020457	0.103732	0.287458	0.00256	-0.549561	0.25293	-0.745605
1003.0	7.731176	0.195929	3.210284	0.15049	0.333932	-0.000539	-0.551514	0.244141	-0.745361
1004.0	7.99438	0.041122	3.312309	0.190598	0.362333	0.001322	-0.544922	0.248535	-0.745605
1005.0	8.147252	-0.27851	3.15742	0.216081	0.379035	-0.010914	-0.546875	0.246338	-0.747803
1006.0	8.210641	-0.599788	3.050063	0.218911	0.386994	-0.039585	-0.547119	0.248535	-0.754883
1007.0	8.338719	-0.822013	3.026599	0.230324	0.352236	-0.066389	-0.540039	0.244141	-0.752441
1008.0	8.461219	-1.096603	3.021904	0.24143	0.289056	-0.106686	-0.54248	0.246338	-0.75708
1009.0	8.369732	-1.390066	2.902076	0.248125	0.248922	-0.139401	-0.539551	0.230957	-0.76123
1010.0	8.393268	-1.514671	2.721447	0.235593	0.181284	-0.180329	-0.546631	0.239746	-0.759033
1011.0	8.299949	-1.466924	2.488085	0.219887	0.130132	-0.208316	-0.541748	0.22876	-0.751709
1012.0	8.127886	-1.31577	2.323314	0.206847	0.085966	-0.21231	-0.548828	0.237549	-0.761475
1013.0	8.041887	-1.117116	2.284878	0.212744	0.0464	-0.197605	-0.543945	0.224365	-0.760986
1014.0	8.001979	-0.854657	2.150832	0.226416	0.01147	-0.168997	-0.541992	0.233154	-0.765869
1015.0	8.143966	-0.76626	1.968846	0.235189	-0.028193	-0.135024	-0.546143	0.224365	-0.758545
1016.0	8.161233	-0.603621	1.802656	0.217455	-0.061043	-0.086927	-0.544189	0.230957	-0.756592
1017.0	8.191485	-0.501416	1.852635	0.190189	-0.080391	-0.038685	-0.548096	0.219971	-0.762939
1018.0	8.325052	-0.329046	1.959731	0.149794	-0.083119	0.009668	-0.548584	0.230957	-0.76123
1019.0	8.390791	-0.100857	1.843757	0.099035	-0.070995	0.061514	-0.550293	0.217773	-0.760498
1020.0	8.459981	0.137437	1.876019	0.057406	-0.055117	0.108085	-0.546143	0.226563	-0.760986
1021.0	8.713083	0.112445	1.862497	0.001565	-0.055676	0.127958	-0.543457	0.215576	-0.760498
1022.0	8.876684	0.082736	1.86773	-0.05949	-0.048906	0.128776	-0.548584	0.230957	-0.765869
1023.0	8.751386	0.261447	1.569557	-0.124459	-0.026025	0.116445	-0.555176	0.226563	-0.758545
1024.0	8.796126	0.224407	1.520379	-0.157034	-0.029851	0.113281	-0.548584	0.230957	-0.76123
1025.0	9.122345	0.099752	1.754091	-0.153021	-0.040694	0.095116	-0.550537	0.224365	-0.760986
1026.0	9.38738	-0.083866	1.784149	-0.135525	-0.04981	0.053673	-0.553223	0.235352	-0.768311
1027.0	9.666542	-0.368944	1.930863	-0.10922	-0.072562	-0.007129	-0.551025	0.233154	-0.76123
1028.0	9.962769	-0.663611	2.147603	-0.079377	-0.107195	-0.081738	-0.555664	0.235352	-0.76123
1029.0	10.220841	-1.061404	2.25679	-0.037917	-0.106101	-0.153869	-0.557617	0.230957	-0.760986
1030.0	10.641666	-1.570025	2.199011	0.018112	-0.100137	-0.211987	-0.557861	0.237549	-0.759033
1031.0	10.910343	-1.701248	1.681886	0.066014	-0.128429	-0.260037	-0.557617	0.22876	-0.756348
1032.0	11.033828	-1.697018	1.059912	0.094172	-0.180266	-0.287791	-0.564453	0.230713	-0.751709
1033.0	11.063171	-1.418011	0.659669	0.08721	-0.211856	-0.288661	-0.561768	0.221924	-0.756104
1034.0	11.151739	-0.929089	0.782162	0.090847	-0.22124	-0.270673	-0.557617	0.22876	-0.756348
1035.0	11.661534	-0.432111	1.513132	0.129697	-0.190575	-0.254295	-0.565918	0.215332	-0.753662
1036.0	12.294431	-0.240115	2.26364	0.189779	-0.152659	-0.243022	-0.566406	0.221924	-0.758545
1037.0	13.088434	-0.448005	3.787564	0.258525	-0.176393	-0.261264	-0.568115	0.213135	-0.751221
1038.0	13.593378	-1.647956	3.685161	0.248348	-0.342011	-0.321171	-0.570801	0.219727	-0.749023
1039.0	12.96129	-2.626247	3.157507	0.181533	-0.50343	-0.401562	-0.570313	0.20874	-0.741699
1040.0	12.285998	-2.564833	4.195858	0.186217	-0.530022	-0.47309	-0.581787	0.213135	-0.741943
1041.0	11.028553	-2.374362	4.053414	0.224934	-0.544364	-0.49006	-0.58374	0.206543	-0.746338
1042.0	9.442733	-1.935933	3.653929	0.239383	-0.559601	-0.452452	-0.588135	0.204102	-0.743896
1043.0	9.116844	-0.839978	4.848765	0.313022	-0.493911	-0.423405	-0.592285	0.19751	-0.743652
1044.0	9.486745	-0.432592	5.214879	0.333361	-0.352723	-0.429824	-0.594971	0.204102	-0.741455
1045.0	9.418118	-0.57244	4.843113	0.248925	-0.213774	-0.449337	-0.594238	0.188721	-0.738525
1046.0	9.70998	-0.619335	4.607669	0.081179	-0.152105	-0.490069	-0.601074	0.190918	-0.734131
1047.0	10.390204	-0.220659	4.704953	-0.0274	-0.060394	-0.525916	-0.598389	0.182129	-0.731445
1048.0	10.83455	0.024854	5.077296	-0.052883	0.064384	-0.515601	-0.603271	0.188721	-0.738525
1049.0	10.645609	0.14749	5.185467	-0.024012	0.133403	-0.472274	-0.593994	0.182129	-0.736084
1050.0	10.506597	0.211513	5.104465	0.043376	0.197274	-0.402227	-0.596436	0.186523	-0.743164
1051.0	10.182096	0.086686	5.267545	0.094446	0.237062	-0.342471	-0.591553	0.177734	-0.738281
1052.0	10.269205	-0.153337	5.41112	0.126931	0.23902	-0.280912	-0.593994	0.182129	-0.740723
1053.0	10.459844	-0.41866	5.192191	0.12335	0.262184	-0.198257	-0.591553	0.179932	-0.745361
1054.0	10.374377	-0.341117	4.462944	0.104523	0.273571	-0.123657	-0.591553	0.179932	-0.745361
1055.0	10.093527	-0.280595	3.803972	0.080693	0.300643	-0.062367	-0.591553	0.175537	-0.740479
1056.0	9.605566	-0.347823	3.579223	0.045427	0.330282	-0.026778	-0.5896	0.182129	-0.752197
1057.0	8.853883	-0.610321	3.294226	-0.016173	0.325106	-0.002962	-0.589111	0.175537	-0.747314
1058.0	8.370999	-0.829404	3.255773	-0.090328	0.30297	-0.021818	-0.580811	0.188965	-0.757324
1059.0	8.288493	-0.871698	3.154166	-0.148526	0.282989	-0.029422	-0.58252	0.175537	-0.751953
1060.0	8.31875	-0.916811	2.981502	-0.179273	0.281113	-0.013131	-0.585205	0.186523	-0.754883
1061.0	8.269845	-0.953458	2.903217	-0.189828	0.277686	0.033476	-0.580566	0.184326	-0.75708
1062.0	7.789969	-0.856186	3.004816	-0.199351	0.299903	0.063767	-0.580811	0.193359	-0.755127
1063.0	7.934102	-0.677078	3.110033	-0.218038	0.289624	0.092327	-0.578125	0.182373	-0.763916
1064.0	8.153376	-0.676259	3.144023	-0.227645	0.316155	0.121659	-0.57666	0.197754	-0.771484
1065.0	8.22505	-0.666561	2.854611	-0.236255	0.301268	0.141434	-0.576172	0.186768	-0.76416
1066.0	8.678119	-0.669121	2.632327	-0.235713	0.251852	0.160719	-0.572266	0.202148	-0.764648
1067.0	8.525205	-0.767545	2.470577	-0.23182	0.246017	0.168664	-0.569824	0.197754	-0.759766
1068.0	8.62722	-0.806409	2.298435	-0.245482	0.213237	0.162198	-0.570313	0.206543	-0.76709
1069.0	8.605948	-0.757313	2.24183	-0.267864	0.194188	0.152422	-0.567871	0.204346	-0.771729
1070.0	8.57098	-0.730422	2.230745	-0.280994	0.171812	0.13942	-0.570557	0.213135	-0.769775
1071.0	8.545095	-0.73605	2.2412	-0.282218	0.142778	0.117597	-0.567871	0.206543	-0.76709
1072.0	8.52433	-0.843008	2.123101	-0.266329	0.12259	0.081941	-0.572998	0.219727	-0.765381
1073.0	8.537472	-0.882781	2.033427	-0.255033	0.127872	0.044638	-0.568359	0.215332	-0.774414
1074.0	8.491347	-0.973481	1.986469	-0.242955	0.132165	0.010667	-0.572998	0.221924	-0.767822
1075.0	8.430208	-1.138316	1.959382	-0.218972	0.14093	-0.009443	-0.561523	0.215332	-0.765137
1076.0	8.524765	-1.219754	1.947034	-0.195936	0.133428	-0.024552	-0.568848	0.228516	-0.774902
1077.0	8.639037	-1.365713	1.933103	-0.155171	0.143843	-0.031834	-0.570801	0.219727	-0.762939
1078.0	8.774802	-1.522175	1.920959	-0.103685	0.140631	-0.029237	-0.562256	0.235352	-0.772949
1079.0	8.564681	-1.652178	1.860468	-0.049176	0.148799	-0.030575	-0.564209	0.224365	-0.774902
1080.0	8.567022	-1.90011	1.833702	-0.017568	0.124967	-0.023757	-0.57373	0.235107	-0.772949
1081.0	8.482488	-2.102813	1.824694	0.00056	0.083642	-0.013565	-0.568359	0.215332	-0.772217
1082.0	8.732024	-1.980272	2.052746	0.036815	0.033897	-0.009796	-0.564453	0.233154	-0.770508
1083.0	9.396407	-1.875155	2.160005	0.064575	-0.053389	-0.004351	-0.563965	0.219727	-0.774658
1084.0	9.605402	-1.702305	2.105753	0.100518	-0.10834	0.002598	-0.564453	0.233154	-0.765869
1085.0	9.728012	-1.431073	2.092249	0.108434	-0.185738	0.010109	-0.562012	0.22876	-0.768066
1086.0	9.626645	-1.104346	2.181699	0.073913	-0.202887	0.011826	-0.571289	0.23291	-0.768066
1087.0	10.053165	-0.798264	2.085249	0.01126	-0.227723	0.031417	-0.571045	0.226318	-0.772461
1088.0	10.105445	-0.529732	1.833712	-0.033957	-0.244825	0.056332	-0.571533	0.237549	-0.770508
1089.0	9.956761	-0.42918	1.532973	-0.059421	-0.273385	0.068106	-0.571045	0.226318	-0.763184
1090.0	9.802124	-0.638425	1.288884	-0.066192	-0.26894	0.07153	-0.580566	0.241699	-0.761475
1091.0	9.602787	-0.876194	1.016479	-0.04798	-0.277622	0.056186	-0.573486	0.230713	-0.756348
1092.0	9.538122	-1.122565	0.653237	-0.005745	-0.301508	0.037523	-0.582764	0.241699	-0.754639
1093.0	9.932985	-1.645479	1.256899	0.072459	-0.288425	0.029776	-0.580566	0.237305	-0.756592
1094.0	10.552059	-2.00444	2.152989	0.166392	-0.243365	0.035561	-0.580566	0.241699	-0.752197
1095.0	11.443428	-2.028335	2.983178	0.288271	-0.256561	0.070026	-0.58252	0.23291	-0.744873
1096.0	12.632755	-1.511335	4.112474	0.375005	-0.353797	0.171568	-0.587158	0.237305	-0.749756
1097.0	13.542522	-0.887479	5.033765	0.354681	-0.524628	0.336437	-0.591553	0.235107	-0.742676
1098.0	14.021251	-0.053947	5.67176	0.216901	-0.603998	0.549463	-0.596436	0.243896	-0.740723
1099.0	12.680996	1.584329	4.947048	0.057671	-0.59464	0.706044	-0.598877	0.246094	-0.733887
1100.0	10.083763	2.120881	5.8802	0.015324	-0.466913	0.745321	-0.60376	0.25708	-0.734131
1101.0	9.032349	1.550296	7.556679	-0.042354	-0.3039	0.748265	-0.601074	0.248291	-0.733887
1102.0	8.226532	1.31841	5.407	-0.05078	-0.244604	0.75485	-0.606201	0.261475	-0.729736
1103.0	8.427306	0.477073	4.953941	-0.033475	-0.069939	0.757287	-0.599365	0.25708	-0.724854
1104.0	9.643661	-0.738847	5.399733	-0.050767	0.059418	0.763057	-0.602051	0.272461	-0.732422
1105.0	10.81382	-1.504283	4.869123	-0.048884	0.105268	0.762674	-0.595459	0.272461	-0.732422
1106.0	11.118912	-1.896381	4.610155	-0.041413	0.16904	0.729006	-0.602539	0.28125	-0.728027
1107.0	10.746865	-2.51223	4.723583	-0.091596	0.230124	0.655446	-0.598145	0.283447	-0.728271
1108.0	10.452592	-3.119219	4.937741	-0.140927	0.25447	0.538012	-0.591553	0.29248	-0.726318
1109.0	10.60906	-3.648705	4.944236	-0.197431	0.238082	0.36959	-0.589355	0.290283	-0.728516
1110.0	10.488771	-3.490221	4.304246	-0.267919	0.203769	0.161863	-0.587402	0.296875	-0.726318
1111.0	10.021591	-2.966666	3.859261	-0.302856	0.187433	0.001022	-0.587402	0.299072	-0.733398
1112.0	10.00089	-2.252432	3.828196	-0.27988	0.133436	-0.099446	-0.585449	0.303467	-0.729004
1113.0	9.680783	-1.232587	3.70645	-0.211535	0.156442	-0.138454	-0.587402	0.296875	-0.726318
1114.0	9.454402	-0.505302	3.188381	-0.120492	0.196267	-0.138261	-0.587891	0.307861	-0.729004
1115.0	8.844124	0.094657	3.047476	-0.027027	0.316566	-0.100276	-0.585205	0.299072	-0.731201
1116.0	8.186129	0.36251	2.990802	0.063478	0.416999	-0.048048	-0.583252	0.307861	-0.729004
1117.0	8.184018	0.297156	3.072429	0.137813	0.4681	0.003688	-0.580566	0.294678	-0.735596
1118.0	8.450026	0.060005	3.065007	0.189543	0.484338	0.030393	-0.578613	0.30127	-0.733398
1119.0	8.325692	-0.413767	3.003247	0.212647	0.510125	0.05024	-0.571777	0.303467	-0.74292
1120.0	8.717286	-1.00405	2.747862	0.190871	0.440588	-0.013127	-0.573975	0.303467	-0.747559
1121.0	8.458222	-1.238798	2.73479	0.180857	0.426947	-0.047348	-0.575928	0.290283	-0.744629
1122.0	8.471917	-1.466404	2.638385	0.177599	0.345192	-0.085959	-0.573975	0.30127	-0.74292
1123.0	8.326386	-1.583443	2.529695	0.195596	0.297047	-0.116077	-0.569092	0.29248	-0.742432
1124.0	8.269915	-1.508719	2.603087	0.213454	0.252295	-0.142668	-0.571533	0.296875	-0.747314
1125.0	8.126895	-1.446102	2.494316	0.211794	0.236928	-0.16331	-0.567139	0.296875	-0.75415
1126.0	8.15243	-1.311638	2.325729	0.206132	0.205083	-0.176712	-0.567139	0.296875	-0.751953
1127.0	8.078544	-1.007044	2.274797	0.195717	0.194466	-0.163733	-0.568848	0.283691	-0.749023
1128.0	8.137901	-0.640165	2.160839	0.180823	0.163067	-0.135803	-0.564697	0.29248	-0.756348
1129.0	8.230001	-0.358517	2.067772	0.16771	0.125123	-0.087758	-0.56665	0.285889	-0.753906
1130.0	8.396115	-0.172638	2.146974	0.14551	0.100404	-0.053245	-0.56665	0.288086	-0.751709
1131.0	8.356095	-0.034555	2.253806	0.126806	0.095635	-0.015808	-0.564453	0.285889	-0.753906
1132.0	8.46579	0.009137	2.29729	0.107293	0.085139	0.027048	-0.571289	0.288086	-0.749268
1133.0	8.594029	0.03459	2.365261	0.076889	0.061234	0.073578	-0.56665	0.285889	-0.751465
1134.0	8.666407	-0.061151	2.177339	0.034571	0.026179	0.110294	-0.569336	0.294678	-0.751953
1135.0	8.551108	-0.042416	2.021592	-0.018919	0.005471	0.137903	-0.564209	0.283691	-0.746826
1136.0	8.664803	-0.312489	1.77869	-0.085239	-0.042363	0.145111	-0.571777	0.299072	-0.747314
1137.0	8.697711	-0.407793	1.79872	-0.147151	-0.071701	0.123723	-0.571289	0.290283	-0.742432
1138.0	8.57929	-0.391697	1.68249	-0.19399	-0.095901	0.100886	-0.56958	0.30127	-0.745117
1139.0	8.687791	-0.343909	1.537313	-0.213523	-0.107131	0.082948	-0.569336	0.299072	-0.747314
1140.0	8.870772	-0.563175	1.560975	-0.195003	-0.115384	0.065504	-0.574219	0.307861	-0.738525
1141.0	9.254901	-0.863429	1.69604	-0.166265	-0.118877	0.024887	-0.573975	0.299072	-0.745117
1142.0	9.479383	-0.985013	2.019049	-0.144987	-0.090494	-0.013969	-0.578613	0.305664	-0.745361
1143.0	9.739048	-1.023032	2.1768	-0.10597	-0.099009	-0.039777	-0.573975	0.299072	-0.738037
1144.0	10.065192	-1.021704	2.120081	-0.036639	-0.10483	-0.071172	-0.581055	0.307861	-0.736084
1145.0	10.189733	-0.955598	2.195239	0.047024	-0.111494	-0.07054	-0.57373	0.296875	-0.735596
1146.0	10.369984	-1.048126	2.0235	0.098285	-0.120271	-0.064414	-0.583008	0.303467	-0.733643
1147.0	10.394686	-1.133183	1.592107	0.097736	-0.151886	-0.060838	-0.580566	0.296875	-0.735596
1148.0	10.751562	-1.07713	2.073539	0.068006	-0.139849	-0.074997	-0.583252	0.307861	-0.731445
1149.0	11.125006	-0.930486	2.780309	0.058602	-0.117864	-0.102807	-0.580811	0.30127	-0.731201
1150.0	12.478666	-0.826637	5.208369	0.168706	-0.04067	-0.148619	-0.587891	0.307861	-0.731445
1151.0	13.803119	-1.704078	5.935413	0.236919	-0.104346	-0.225663	-0.591797	0.294678	-0.733154
1152.0	14.477874	-3.828945	3.857647	0.232562	-0.380331	-0.374648	-0.592041	0.30127	-0.733398
1153.0	14.245604	-4.821539	4.107955	0.247474	-0.358455	-0.571027	-0.598389	0.292236	-0.726318
1154.0	11.730147	-4.953783	3.863901	0.243773	-0.40637	-0.648972	-0.600586	0.287842	-0.723633
1155.0	9.379414	-3.534062	3.365327	0.291924	-0.457199	-0.566916	-0.602295	0.276855	-0.71875
1156.0	9.24585	-1.584674	4.167263	0.375767	-0.503638	-0.462598	-0.606934	0.28125	-0.721191
1157.0	10.10193	-0.153649	4.248345	0.383689	-0.368078	-0.379797	-0.606445	0.265869	-0.713623
1158.0	10.165416	0.302194	4.013466	0.344959	-0.092332	-0.32697	-0.611328	0.276855	-0.71875
1159.0	10.551137	0.479628	4.176549	0.228574	0.026125	-0.317857	-0.608398	0.263672	-0.713623
1160.0	11.369572	0.732806	4.470575	0.106756	0.102294	-0.339834	-0.61084	0.265869	-0.71582
1161.0	11.410866	0.95242	5.005534	0.025737	0.212863	-0.367219	-0.610596	0.259277	-0.722656
1162.0	10.555661	0.795244	5.348535	0.024473	0.20594	-0.391677	-0.610596	0.261475	-0.725098
1163.0	9.71552	0.528358	5.319161	0.063863	0.173066	-0.398573	-0.610352	0.250488	-0.724609
1164.0	9.298802	0.245335	5.211219	0.123055	0.162038	-0.383413	-0.606201	0.261475	-0.720459
1165.0	9.14349	-0.110237	5.2895	0.168813	0.190234	-0.355863	-0.614746	0.248047	-0.719971
1166.0	9.338235	-0.516544	5.194166	0.203229	0.165486	-0.305765	-0.612549	0.252686	-0.717773
1167.0	9.358287	-0.763305	4.917902	0.209689	0.161611	-0.25855	-0.609863	0.243652	-0.722168
1168.0	9.633189	-0.73216	4.465975	0.211425	0.211985	-0.182025	-0.614746	0.248291	-0.726807
1169.0	9.045873	-0.738221	4.108426	0.17173	0.254927	-0.129301	-0.609619	0.237061	-0.724121
1170.0	9.166494	-0.553129	3.626197	0.105599	0.233479	-0.085916	-0.610352	0.250488	-0.729248
1171.0	8.582925	-0.630656	3.216897	0.039565	0.272883	-0.044402	-0.605225	0.239502	-0.729004
1172.0	8.081767	-0.826291	3.129886	-0.018388	0.254709	-0.020965	-0.60791	0.248291	-0.738525
1173.0	7.665011	-1.017831	3.094507	-0.064775	0.254672	-0.003709	-0.607666	0.239502	-0.738281
1174.0	7.753728	-1.101989	3.096502	-0.108897	0.253457	0.032534	-0.612305	0.248291	-0.733887
1175.0	7.781789	-1.21014	3.020015	-0.162611	0.260186	0.079586	-0.610107	0.243896	-0.736084
1176.0	8.022571	-1.026206	3.03495	-0.200551	0.25812	0.120498	-0.599121	0.254883	-0.736328
1177.0	8.12212	-1.006755	3.332526	-0.246853	0.256531	0.1499	-0.605713	0.248291	-0.733887
1178.0	8.506692	-0.935849	3.286519	-0.285223	0.204822	0.158859	-0.60376	0.259277	-0.729736
1179.0	8.69392	-0.943079	3.09728	-0.310093	0.175411	0.144098	-0.601318	0.252686	-0.736328
1180.0	8.694034	-0.840487	2.866262	-0.312068	0.172598	0.121823	-0.597168	0.259277	-0.736572
1181.0	8.676408	-0.810864	2.681549	-0.300382	0.162312	0.100004	-0.594727	0.25708	-0.736572
1182.0	8.652338	-0.833536	2.544129	-0.273123	0.16238	0.090246	-0.602051	0.268066	-0.741455
1183.0	8.507843	-0.904628	2.492257	-0.225074	0.166364	0.088227	-0.601563	0.259277	-0.731934
1184.0	8.374835	-1.041828	2.512183	-0.175121	0.134611	0.083221	-0.599854	0.272461	-0.739502
1185.0	8.38102	-1.228279	2.542724	-0.129625	0.118649	0.071642	-0.597168	0.261475	-0.741211
1186.0	8.523086	-1.393541	2.438624	-0.100277	0.093725	0.044516	-0.599609	0.268066	-0.739258
1187.0	8.610566	-1.4638	2.280821	-0.073777	0.083786	0.019853	-0.595215	0.265869	-0.741455
1188.0	8.61408	-1.536496	2.089119	-0.040437	0.074384	-0.00447	-0.597656	0.272461	-0.737061
1189.0	8.588567	-1.50757	1.920403	-0.006108	0.0502	-0.014607	-0.597168	0.259277	-0.741211
1190.0	8.389783	-1.506142	1.927771	0.028213	0.033617	-0.02901	-0.599854	0.270264	-0.746338
1191.0	8.433166	-1.490573	1.837513	0.084432	0.019942	-0.041123	-0.599365	0.261475	-0.743652
1192.0	8.501748	-1.573837	1.772182	0.158872	0.013873	-0.04204	-0.595459	0.272461	-0.741699
1193.0	8.145988	-1.789638	1.807933	0.232167	0.027283	-0.051401	-0.599365	0.261475	-0.743652
1194.0	8.250464	-2.038263	1.845182	0.26285	0.028073	-0.057576	-0.602051	0.268066	-0.739258
1195.0	8.353582	-2.236033	1.613977	0.264215	0.011388	-0.061148	-0.596924	0.252686	-0.73877
1196.0	8.642253	-2.361599	1.646192	0.238474	-0.057898	-0.067239	-0.606201	0.259277	-0.74585
1197.0	8.946305	-2.336513	1.822424	0.202147	-0.130956	-0.081687	-0.599121	0.252686	-0.736328
1198.0	10.083607	-1.792574	1.957507	0.195359	-0.247167	-0.064075	-0.599365	0.25708	-0.743408
1199.0	9.675734	-1.305914	2.020604	0.233213	-0.262843	-0.032175	-0.603516	0.248291	-0.738525
1200.0	9.970202	-0.570515	2.102201	0.261293	-0.312967	-0.006885	-0.608154	0.252686	-0.748047
1201.0	10.210625	0.00099	2.095373	0.246088	-0.336282	0.043628	-0.612305	0.246094	-0.743164
1202.0	10.241854	0.359995	1.867507	0.204127	-0.336609	0.079868	-0.610107	0.248291	-0.743164
1203.0	10.2664	0.419831	1.416305	0.163366	-0.354835	0.110422	-0.612305	0.246094	-0.740723
1204.0	9.867421	0.223081	1.248856	0.122749	-0.330003	0.115826	-0.614746	0.252686	-0.73877
1205.0	9.792048	-0.351555	1.702656	0.069471	-0.304646	0.107305	-0.612061	0.241699	-0.73584
1206.0	10.115484	-0.969152	2.511183	0.007945	-0.248896	0.114363	-0.621582	0.252686	-0.736328
1207.0	11.389379	-1.643199	4.477332	-0.018867	-0.126382	0.171362	-0.619141	0.24585	-0.731445
1208.0	13.17443	-0.700277	5.3987	-0.032584	-0.159436	0.300252	-0.619629	0.25708	-0.731934
1209.0	14.077436	1.07773	4.584084	-0.042947	-0.439061	0.434285	-0.623779	0.250244	-0.729248
1210.0	13.452315	1.888902	5.448509	-0.063113	-0.525618	0.566625	-0.624268	0.263672	-0.734375
1211.0	12.030364	1.751684	6.437535	-0.140759	-0.548113	0.631953	-0.626465	0.261475	-0.729736
1212.0	10.510414	1.214306	6.070896	-0.233265	-0.477846	0.665389	-0.631104	0.265625	-0.725098
1213.0	8.967601	0.747003	4.32749	-0.252279	-0.485299	0.627706	-0.626709	0.267822	-0.716064
1214.0	8.787833	-0.529728	4.797102	-0.192367	-0.23841	0.571332	-0.631592	0.279053	-0.71875
1215.0	9.336705	-1.73218	5.495216	-0.121317	0.081415	0.576211	-0.629395	0.276855	-0.716309
1216.0	10.214376	-2.547991	5.155931	-0.031074	0.19249	0.586592	-0.629639	0.28125	-0.721191
1217.0	11.18006	-3.050467	4.637212	0.049482	0.184996	0.604787	-0.620361	0.279053	-0.720947
1218.0	11.489145	-3.343075	4.873549	0.090627	0.200422	0.625726	-0.625488	0.290039	-0.728516
1219.0	10.804865	-3.419738	4.938205	0.106889	0.213456	0.625814	-0.620605	0.285645	-0.73291
1220.0	10.410714	-3.215612	5.14073	0.092092	0.231865	0.586748	-0.621338	0.298828	-0.733398
1221.0	10.504295	-3.099329	5.516575	0.044012	0.231123	0.485429	-0.614014	0.290039	-0.728516
1222.0	10.709739	-2.872596	5.282408	-0.0107	0.16218	0.323101	-0.623535	0.301025	-0.72876
1223.0	10.403291	-2.591333	4.815079	-0.073708	0.159965	0.147227	-0.616699	0.296631	-0.738037
1224.0	10.270681	-2.351469	4.379218	-0.140991	0.132276	0.002459	-0.616699	0.298828	-0.738037
1225.0	10.040042	-1.557185	3.961058	-0.145489	0.152782	-0.08105	-0.618896	0.296631	-0.735596
1226.0	9.448483	-0.858637	3.448567	-0.098813	0.171975	-0.116514	-0.619141	0.303223	-0.733643
1227.0	8.545214	-0.248914	3.090939	-0.027332	0.279693	-0.108157	-0.616455	0.292236	-0.742432
1228.0	7.707784	0.235758	3.085031	0.048618	0.382279	-0.081393	-0.614502	0.301025	-0.740479
1229.0	7.266974	0.41008	3.230172	0.137732	0.422328	-0.049054	-0.612061	0.292236	-0.742432
1230.0	7.620471	0.103024	3.386822	0.20833	0.401845	-0.022516	-0.609619	0.29248	-0.75415
1231.0	7.651386	-0.1661	3.102685	0.213606	0.400287	-0.025389	-0.60498	0.285889	-0.753906
1232.0	7.72116	-0.495776	2.944826	0.20691	0.372728	-0.066401	-0.607666	0.294678	-0.76123
1233.0	8.018063	-0.667918	3.099055	0.1906	0.2987	-0.108464	-0.602539	0.283691	-0.758301
1234.0	7.961602	-0.888468	3.19207	0.180783	0.232516	-0.13888	-0.600586	0.29248	-0.756348
1235.0	8.23437	-1.169981	3.140115	0.17395	0.147914	-0.181792	-0.606934	0.28125	-0.755859
1236.0	8.287504	-1.176138	3.010939	0.160253	0.105217	-0.235866	-0.602783	0.288086	-0.763184
1237.0	8.198946	-1.172511	2.888154	0.138386	0.057786	-0.266655	-0.606689	0.274658	-0.762695
1238.0	8.334548	-1.020379	2.708406	0.117263	0.02186	-0.264552	-0.609131	0.274658	-0.767334
1239.0	8.386762	-0.936446	2.616138	0.114297	-0.009465	-0.236661	-0.608398	0.261475	-0.764648
1240.0	8.391483	-0.794833	2.515719	0.124436	-0.035916	-0.193408	-0.604736	0.279297	-0.767578
1241.0	8.41075	-0.581108	2.462226	0.128398	-0.062099	-0.159507	-0.61084	0.265869	-0.762451
1242.0	8.473942	-0.420747	2.239144	0.12422	-0.094331	-0.111419	-0.608887	0.270264	-0.764893
1243.0	8.422611	-0.338914	2.077364	0.123799	-0.108704	-0.076546	-0.605957	0.25708	-0.766602
1244.0	8.484403	-0.228026	2.1455	0.106011	-0.119903	-0.035782	-0.613281	0.268066	-0.762451
1245.0	8.502066	-0.149299	2.183292	0.07153	-0.148895	0.008571	-0.610596	0.259277	-0.766846
1246.0	8.407262	0.002587	2.108138	0.022015	-0.179611	0.051084	-0.615723	0.270264	-0.769531
1247.0	8.505856	-0.026642	1.879473	-0.044705	-0.225976	0.07475	-0.610596	0.25708	-0.764404
1248.0	8.487072	0.011317	1.807615	-0.114941	-0.241175	0.082705	-0.620117	0.270264	-0.76709
1249.0	8.20488	0.100323	1.786048	-0.169931	-0.220081	0.091619	-0.619873	0.265869	-0.76001
1250.0	8.35916	-0.070444	1.857235	-0.191282	-0.211575	0.096458	-0.624756	0.272461	-0.758057
1251.0	8.843239	-0.191975	1.879185	-0.179261	-0.23889	0.073323	-0.626953	0.270264	-0.762451
1252.0	9.068684	-0.379821	1.999792	-0.141596	-0.244659	0.047969	-0.620361	0.279053	-0.758301
1253.0	9.775297	-0.411295	2.128396	-0.066494	-0.268232	-0.004202	-0.624268	0.261475	-0.75293
1254.0	10.156272	-0.605241	2.376304	0.021286	-0.281604	-0.073949	-0.628906	0.263672	-0.757568
1255.0	10.299064	-0.861596	2.482393	0.099406	-0.298748	-0.129508	-0.635254	0.25708	-0.755127
1256.0	10.192281	-1.258474	2.325248	0.166841	-0.350453	-0.176597	-0.635742	0.265869	-0.753174
1257.0	9.932119	-1.515827	1.910876	0.203966	-0.362567	-0.181796	-0.635254	0.254883	-0.757324
1258.0	9.65404	-1.708673	1.521626	0.207929	-0.360751	-0.149842	-0.637695	0.256836	-0.750488
1259.0	9.544607	-1.784965	1.068698	0.16312	-0.3698	-0.099239	-0.641846	0.248047	-0.75
1260.0	9.624224	-1.470131	0.692265	0.091753	-0.348787	-0.065216	-0.648682	0.254639	-0.750244
1261.0	10.047437	-1.011314	0.918879	0.036313	-0.291712	-0.057794	-0.650879	0.252441	-0.740967
1262.0	10.697845	-0.24274	2.106729	0.001949	-0.219178	-0.079103	-0.648682	0.250244	-0.754883
1263.0	11.906993	0.256823	3.718718	0.018689	-0.194556	-0.098915	-0.652832	0.243652	-0.745361
1264.0	13.012988	-0.113251	4.526624	0.028601	-0.306218	-0.181331	-0.653076	0.248047	-0.747803
1265.0	13.20775	-1.604836	3.630683	-0.033193	-0.530559	-0.332108	-0.661377	0.234863	-0.735596
1266.0	13.107786	-2.538471	4.718719	-0.033193	-0.60988	-0.51412	-0.664063	0.243652	-0.74292
1267.0	11.907921	-3.357953	5.305364	-0.032487	-0.603571	-0.63775	-0.667969	0.230225	-0.737793
1268.0	10.1773	-3.130574	5.633037	0.048218	-0.57374	-0.667024	-0.672852	0.234619	-0.735596
1269.0	9.723233	-2.286737	6.5346	0.159497	-0.492374	-0.664078	-0.676514	0.217041	-0.728027
1270.0	9.090244	-2.391867	5.535179	0.144419	-0.453305	-0.649077	-0.676514	0.219238	-0.72583
1271.0	9.393359	-1.703675	4.878175	0.052791	-0.35357	-0.61199	-0.683105	0.210449	-0.72998
1272.0	10.071737	-0.761227	4.69064	-0.043481	-0.17058	-0.562569	-0.689941	0.212646	-0.730225
1273.0	10.565877	0.525134	4.26329	-0.071982	-0.050915	-0.545694	-0.687012	0.197021	-0.715576
1274.0	10.840314	1.316032	4.102988	-0.040774	0.059661	-0.512819	-0.682861	0.203857	-0.727539
1275.0	10.803606	1.584828	4.403504	0.022008	0.164061	-0.488642	-0.68457	0.192627	-0.729492
1276.0	10.727515	1.34387	4.870657	0.092728	0.25335	-0.447499	-0.688965	0.188232	-0.733887
1277.0	10.735351	0.690271	5.206635	0.159732	0.26906	-0.381098	-0.682129	0.186035	-0.726807
1278.0	10.991169	-0.164807	4.963101	0.185016	0.191951	-0.294086	-0.684326	0.186035	-0.733887
1279.0	11.290534	-0.962758	4.763344	0.183418	0.123256	-0.200818	-0.681885	0.181641	-0.733643
1280.0	10.865292	-1.382608	4.417478	0.158854	0.108676	-0.122954	-0.686279	0.179443	-0.738281
1281.0	10.144068	-1.488117	4.056971	0.118907	0.128841	-0.081359	-0.69043	0.170654	-0.737793
1282.0	9.650871	-1.411359	4.012108	0.087239	0.141492	-0.054078	-0.688477	0.177246	-0.742676
1283.0	9.265394	-1.340091	4.016752	0.04586	0.137081	-0.036757	-0.686035	0.172852	-0.738037
1284.0	9.057825	-1.427548	3.733252	-0.003064	0.097463	-0.029133	-0.688477	0.175049	-0.740479
1285.0	8.773959	-1.502974	3.517336	-0.056329	0.085531	-0.013075	-0.688232	0.170654	-0.737793
1286.0	8.753111	-1.387195	3.471062	-0.091116	0.0913	0.028602	-0.688477	0.175049	-0.749756
1287.0	8.659968	-1.100717	3.394656	-0.102152	0.117588	0.08709	-0.688232	0.170654	-0.740234
1288.0	8.474461	-0.93596	3.347155	-0.10457	0.164701	0.13996	-0.686279	0.177246	-0.745117
1289.0	8.478001	-0.683902	3.232503	-0.091224	0.203577	0.191034	-0.683594	0.168457	-0.749512
1290.0	8.442666	-0.551954	3.197437	-0.083003	0.251869	0.225321	-0.686523	0.181641	-0.75
1291.0	8.597525	-0.443628	3.000854	-0.070732	0.267319	0.254516	-0.681641	0.175049	-0.747314
1292.0	8.8064	-0.394203	2.808853	-0.050431	0.257241	0.280807	-0.679443	0.179688	-0.752197
1293.0	8.638974	-0.417122	2.703219	-0.047477	0.260074	0.281036	-0.679443	0.175049	-0.754395
1294.0	8.569418	-0.576671	2.482308	-0.073698	0.26954	0.267193	-0.68457	0.190674	-0.759521
1295.0	8.544874	-0.787009	2.436321	-0.0984	0.291767	0.235431	-0.672852	0.181885	-0.754639
1296.0	8.490056	-0.950601	2.364154	-0.1264	0.301303	0.205869	-0.675293	0.186279	-0.75708
1297.0	8.606201	-1.040165	2.445144	-0.14194	0.306038	0.165464	-0.670898	0.186279	-0.75708
1298.0	8.618472	-1.123456	2.422494	-0.162928	0.284467	0.114926	-0.67334	0.192871	-0.76416
1299.0	8.634707	-1.1479	2.396754	-0.1728	0.261848	0.057931	-0.668457	0.181885	-0.761475
1300.0	8.681688	-1.126994	2.272663	-0.173399	0.249861	0.010065	-0.666504	0.190674	-0.773438
1301.0	8.738959	-0.969202	2.293686	-0.15797	0.248802	-0.028405	-0.675293	0.186279	-0.770996
1302.0	8.791262	-1.027597	2.220551	-0.136816	0.249666	-0.054401	-0.670898	0.190674	-0.766602
1303.0	8.875831	-0.98703	2.074626	-0.117137	0.236882	-0.075989	-0.663818	0.181885	-0.775391
1304.0	8.902259	-0.940744	1.997551	-0.087925	0.219874	-0.08164	-0.670898	0.188477	-0.773438
1305.0	8.786369	-0.952441	1.885827	-0.076025	0.205729	-0.081191	-0.663818	0.179688	-0.770752
1306.0	8.576896	-0.969185	1.863748	-0.065956	0.191241	-0.094209	-0.668457	0.186279	-0.770996
1307.0	8.541517	-0.9716	1.875258	-0.051446	0.144321	-0.093835	-0.663818	0.181885	-0.782471
1308.0	8.384648	-1.099792	1.826986	-0.036152	0.12223	-0.089988	-0.66626	0.186279	-0.780273
1309.0	8.359864	-1.30053	1.736813	-0.025174	0.072426	-0.074196	-0.663818	0.179688	-0.777832
1310.0	8.253967	-1.400039	1.633686	-0.01704	-0.019634	-0.066584	-0.668701	0.186279	-0.780273
1311.0	8.395214	-1.53166	1.737509	-0.01356	-0.109099	-0.064719	-0.668213	0.175293	-0.777588
1312.0	8.640414	-1.525372	1.865743	0.001916	-0.169517	-0.062215	-0.66626	0.184082	-0.773193
1313.0	8.89446	-1.38744	2.112275	0.027363	-0.182138	-0.054606	-0.672607	0.173096	-0.772705
1314.0	8.998325	-1.166398	2.371517	0.04182	-0.168327	-0.047278	-0.670654	0.179688	-0.775391
1315.0	9.280804	-1.11867	2.325084	0.026222	-0.193652	-0.04344	-0.672363	0.170898	-0.777344
1316.0	9.634671	-1.052566	2.206151	0.015423	-0.218566	-0.04609	-0.675049	0.17749	-0.770752
1317.0	9.709613	-0.909693	1.869523	0.029774	-0.238221	-0.060111	-0.676758	0.166504	-0.774902
1318.0	9.687599	-0.826053	1.62382	0.072084	-0.249113	-0.076538	-0.679443	0.175293	-0.768311
1319.0	9.431343	-0.917184	1.317686	0.120787	-0.240302	-0.100539	-0.677002	0.168701	-0.779541
1320.0	9.270474	-0.976901	1.068858	0.162928	-0.218242	-0.128098	-0.686035	0.172852	-0.770508
1321.0	9.831784	-1.531112	1.874919	0.21675	-0.130588	-0.135262	-0.680908	0.157471	-0.767578
1322.0	10.460135	-2.1759	3.039416	0.262424	-0.027952	-0.116063	-0.687988	0.16626	-0.765625
1323.0	11.660235	-1.867205	3.363468	0.261047	-0.131612	-0.055675	-0.685303	0.155273	-0.772217
