Acquisition frequency: 100 Hz
PacketCounter	Acc_X	Acc_Y	Acc_Z	Gyr_X	Gyr_Y	Gyr_Z	Mag_X	Mag_Y	Mag_Z
1.0	4.448134	1.3147	9.164577	-0.003747	0.030788	-0.021526	-0.444092	-0.001709	-0.664307
2.0	4.447794	1.265445	9.188716	-0.009316	0.031254	-0.020129	-0.441895	0.000488	-0.662109
3.0	4.42712	1.257552	9.175222	-0.009499	0.030482	-0.016293	-0.439697	0.000488	-0.659668
4.0	4.465188	1.246489	9.174102	-0.008749	0.025012	-0.012318	-0.437744	0.002686	-0.662109
5.0	4.43663	1.241866	9.24793	-0.011849	0.026186	-0.018284	-0.443848	-0.003906	-0.661865
6.0	4.422503	1.260354	9.213234	-0.012606	0.022208	-0.01012	-0.444092	0.000488	-0.662109
7.0	4.420678	1.259624	9.21421	-0.014397	0.014229	-0.013136	-0.437256	-0.003662	-0.666504
8.0	4.448513	1.26708	9.176556	-0.013462	0.009531	-0.012998	-0.441895	0.000488	-0.662109
9.0	4.441589	1.239208	9.19811	-0.019593	0.010235	-0.008931	-0.439697	-0.001709	-0.659668
10.0	4.46372	1.219047	9.181392	-0.021707	0.011061	-0.00924	-0.441895	0.000488	-0.659668
11.0	4.485752	1.198913	9.164721	-0.020367	0.012249	-0.011247	-0.441895	-0.001709	-0.657471
12.0	4.469537	1.140078	9.173189	-0.018595	0.016776	-0.006574	-0.444092	0.002686	-0.662109
13.0	4.453525	1.188385	9.204875	-0.011124	0.017263	-0.012646	-0.437256	-0.003662	-0.664307
14.0	4.507333	1.234468	9.195829	-0.014402	0.017667	-0.014779	-0.439453	-0.003906	-0.661865
15.0	4.458724	1.217686	9.220144	-0.014576	0.020342	-0.012596	-0.439453	-0.006104	-0.657227
16.0	4.456854	1.216651	9.221184	-0.020755	0.016694	-0.014054	-0.441895	0.000488	-0.659668
17.0	4.478544	1.196898	9.204649	-0.017311	0.01361	-0.014102	-0.441895	0.000488	-0.662109
18.0	4.523792	1.212231	9.182204	-0.013857	0.013974	-0.015799	-0.439453	-0.003906	-0.664307
19.0	4.603967	1.171451	9.267406	0.00268	0.015272	-0.01778	-0.444092	0.002686	-0.659668
20.0	4.551294	1.099612	9.246054	0.009138	0.04216	-0.015694	-0.439453	-0.003906	-0.666504
21.0	4.460314	1.277351	9.218671	0.048677	0.035259	-0.026422	-0.441895	0.002686	-0.662109
22.0	4.420524	1.159067	9.166942	0.015271	0.055224	-0.02635	-0.4375	-0.001709	-0.655029
23.0	4.357239	1.112383	9.144446	0.040975	0.043412	-0.028626	-0.441895	-0.001709	-0.661865
24.0	4.315466	1.257481	9.116175	0.032884	0.038804	-0.02541	-0.44165	-0.003906	-0.664307
25.0	4.122929	1.318701	9.109347	0.022469	0.019585	-0.019251	-0.435303	0.000488	-0.662109
26.0	4.274355	1.437152	9.188146	0.002256	-0.014733	-0.004089	-0.439453	-0.005859	-0.666504
27.0	4.461882	1.26827	9.138254	-0.021174	-0.006439	-0.003695	-0.439697	-0.001709	-0.657471
28.0	4.421791	1.277492	9.140378	-0.011739	-0.010076	0.003212	-0.441895	-0.001709	-0.661865
29.0	4.478313	1.30279	9.219575	-0.028449	-0.012147	0.009005	-0.437256	-0.003662	-0.664307
30.0	4.703168	1.07911	9.311988	-0.018076	0.002721	-0.002671	-0.444092	0.000488	-0.655273
31.0	4.523886	1.049704	9.139272	0.005199	0.02465	-0.014082	-0.439453	-0.003906	-0.661865
32.0	4.428145	1.251886	9.143681	0.017497	0.0276	-0.016664	-0.439697	-0.001709	-0.661865
33.0	4.456986	1.086524	9.195417	0.010197	0.034754	-0.017734	-0.441406	-0.010254	-0.66626
34.0	4.316841	1.029153	9.110126	0.015939	0.028175	-0.019644	-0.439453	-0.003906	-0.664307
35.0	4.014301	1.335826	9.102465	0.039576	0.014675	-0.01339	-0.439453	-0.005859	-0.664063
36.0	3.974298	1.369453	9.014573	0.034928	-0.031759	0.000751	-0.439697	-0.001709	-0.661865
37.0	3.918392	1.492144	9.17794	0.026658	-0.085304	0.030901	-0.44165	-0.005859	-0.668701
38.0	4.441222	1.304975	9.307804	-0.024862	-0.107393	0.049728	-0.443848	-0.003906	-0.659668
39.0	4.751943	1.071108	9.233056	0.002286	-0.107862	0.029513	-0.443848	-0.003906	-0.659668
40.0	4.682273	1.096232	9.26738	0.014924	-0.082749	0.00935	-0.441895	-0.001709	-0.661865
41.0	4.845487	1.308074	9.487763	0.062432	-0.08256	-0.013421	-0.443604	-0.008301	-0.659668
42.0	5.013572	1.060596	9.428373	0.091174	-0.03539	-0.053851	-0.44165	-0.003906	-0.657471
43.0	5.266231	0.775054	9.612377	0.289812	-0.008647	-0.123313	-0.448242	-0.006104	-0.652832
44.0	5.235627	0.819203	9.439945	0.387648	0.120735	-0.217465	-0.443604	-0.012451	-0.661865
45.0	4.577359	0.82522	9.103758	0.418141	0.17662	-0.234732	-0.441162	-0.014648	-0.661621
46.0	4.279383	1.584817	9.163805	0.427831	0.145305	-0.212246	-0.438965	-0.016846	-0.659424
47.0	4.122901	1.520651	8.945553	0.230727	0.171209	-0.170377	-0.438721	-0.019043	-0.656982
48.0	3.939287	1.615872	8.707667	0.252498	0.098183	-0.14152	-0.440918	-0.023438	-0.65918
49.0	3.11177	2.151198	8.651662	0.159078	0.046431	-0.084871	-0.436279	-0.025635	-0.663818
50.0	3.855209	2.226792	8.94673	0.097404	-0.096627	-0.02311	-0.442871	-0.027832	-0.652344
51.0	4.298525	1.569471	9.049703	-0.041501	-0.068591	0.012468	-0.440674	-0.027832	-0.652344
52.0	4.148957	1.341924	8.757804	-0.00645	-0.101068	0.025888	-0.440674	-0.027832	-0.65918
53.0	4.184915	2.011084	8.782168	-0.029622	-0.132143	0.075497	-0.440918	-0.023438	-0.650146
54.0	5.036581	1.378686	9.752251	-0.09464	-0.134094	0.078879	-0.443115	-0.023438	-0.654785
55.0	5.477949	0.741027	9.638602	-0.001264	-0.053085	-0.002945	-0.440674	-0.027832	-0.661377
56.0	4.814262	1.257562	9.206077	0.099085	0.017279	-0.056153	-0.440674	-0.025635	-0.654785
57.0	4.738912	1.523533	9.387475	0.097262	0.029422	-0.08018	-0.442871	-0.025635	-0.65918
58.0	4.870351	1.20066	9.178043	0.099334	0.0754	-0.102332	-0.442871	-0.027832	-0.656982
59.0	4.605364	1.442855	9.030725	0.161351	0.077263	-0.110444	-0.438477	-0.027832	-0.666016
60.0	4.487023	1.768373	9.103447	0.130392	0.091228	-0.103722	-0.436035	-0.032227	-0.656738
61.0	4.384217	1.493992	8.979406	0.08922	0.107631	-0.093695	-0.438232	-0.030029	-0.656982
62.0	4.412932	1.658421	9.009775	0.122767	0.07978	-0.088666	-0.443115	-0.023438	-0.656982
63.0	3.901889	1.716866	8.888055	0.041044	0.086136	-0.059046	-0.437988	-0.036621	-0.658936
64.0	3.525022	1.823237	8.781903	0.022442	0.012422	-0.007664	-0.44043	-0.034424	-0.656738
65.0	3.286579	2.041078	8.331835	-0.106424	-0.058287	0.099643	-0.44043	-0.030029	-0.656982
66.0	3.192701	1.760559	9.007081	-0.255954	-0.153769	0.213036	-0.438477	-0.027832	-0.656982
67.0	4.223754	1.106603	9.060482	-0.32332	-0.195573	0.258478	-0.442871	-0.025635	-0.661621
68.0	4.734543	1.646148	9.196825	-0.250716	-0.237954	0.298984	-0.440918	-0.023438	-0.652344
69.0	5.141264	1.94514	9.551085	-0.42257	-0.147063	0.285851	-0.445313	-0.02124	-0.659424
70.0	4.792459	1.338067	9.445983	-0.535831	-0.109334	0.259358	-0.443359	-0.016846	-0.664063
71.0	4.829237	1.516798	9.2935	-0.361952	-0.138081	0.18772	-0.443604	-0.008301	-0.657227
72.0	4.892389	1.000072	9.972427	-0.338116	-0.126563	0.127031	-0.450684	0.000488	-0.657471
73.0	4.763992	0.782926	8.955993	-0.163659	-0.149809	0.062804	-0.445801	-0.010498	-0.661865
74.0	4.749578	1.552288	9.36888	-0.054419	-0.176006	0.040127	-0.445801	-0.008301	-0.655029
75.0	4.929656	1.064235	9.139364	-0.129057	-0.119835	0.033757	-0.450195	-0.008301	-0.655029
76.0	4.8787	0.936566	8.90972	-0.036882	-0.106156	0.010497	-0.450439	-0.003906	-0.655029
77.0	4.900286	1.182197	8.998609	-0.009659	-0.073576	0.000502	-0.450195	-0.008301	-0.657227
78.0	4.884698	0.979347	8.846316	-0.007229	-0.027659	-0.006444	-0.454834	-0.003906	-0.655029
79.0	4.84958	0.976799	8.971856	0.032916	0.000599	-0.029509	-0.452393	-0.008301	-0.659668
80.0	4.768693	0.847516	8.977898	0.044035	0.033296	-0.056122	-0.452393	-0.010498	-0.657227
81.0	4.712891	1.152815	9.003094	0.086015	0.042653	-0.066727	-0.450195	-0.008301	-0.655029
82.0	4.73859	1.067749	8.977749	0.058922	0.073253	-0.06844	-0.443604	-0.010498	-0.659424
83.0	4.687485	0.852885	8.99319	0.101047	0.076268	-0.090512	-0.450195	-0.010498	-0.655029
84.0	4.371411	0.956829	9.277026	0.179753	0.058415	-0.132545	-0.452148	-0.014893	-0.657227
85.0	4.440227	1.198665	9.313358	0.252802	-0.004107	-0.162388	-0.447754	-0.01709	-0.652588
86.0	4.532607	1.368067	9.283609	0.234357	-0.038198	-0.173473	-0.452148	-0.014893	-0.654785
87.0	4.522159	1.415264	9.242404	0.220904	-0.050437	-0.164164	-0.449951	-0.016846	-0.659424
88.0	4.587524	1.484199	9.138104	0.19646	-0.05825	-0.153736	-0.449707	-0.02124	-0.656982
89.0	4.634646	1.554807	9.174782	0.158946	-0.060805	-0.142515	-0.449707	-0.02124	-0.656982
90.0	4.650977	1.541954	9.050385	0.118706	-0.052627	-0.130175	-0.449707	-0.02124	-0.652344
91.0	4.585561	1.635267	9.042883	0.095207	-0.048266	-0.113221	-0.453613	-0.027832	-0.656982
92.0	4.58564	1.770732	8.970905	0.042167	-0.047546	-0.086223	-0.453857	-0.023438	-0.656982
93.0	4.565742	1.73989	8.975493	-0.021579	-0.044133	-0.05312	-0.45166	-0.023438	-0.652344
94.0	4.632153	1.580511	8.988833	-0.057972	-0.033792	-0.039224	-0.454102	-0.021484	-0.647949
95.0	4.679687	1.517507	9.008931	-0.061646	-0.03559	-0.029838	-0.453857	-0.025635	-0.650146
96.0	4.687838	1.485792	8.97641	-0.070506	-0.027611	-0.022941	-0.453613	-0.027832	-0.656982
97.0	4.693353	1.4314	8.999965	-0.070503	-0.012874	-0.02253	-0.45166	-0.023438	-0.647949
98.0	4.665325	1.418075	9.039475	-0.069547	-0.002843	-0.021934	-0.453857	-0.023438	-0.654785
99.0	4.682743	1.421477	9.055011	-0.063424	0.00085	-0.02054	-0.449707	-0.02124	-0.652344
100.0	4.672991	1.43911	9.054136	-0.067684	0.005906	-0.022829	-0.449463	-0.025635	-0.645508
101.0	4.690171	1.389021	9.059395	-0.064592	0.011685	-0.020236	-0.456055	-0.025879	-0.647705
102.0	4.679192	1.460794	9.069502	-0.053021	0.007053	-0.024036	-0.451904	-0.02124	-0.652344
103.0	4.660171	1.448457	9.056192	-0.055996	0.017	-0.019044	-0.456299	-0.021484	-0.652344
104.0	4.681578	1.426371	9.040284	-0.044342	0.020253	-0.019058	-0.454102	-0.019287	-0.654785
105.0	4.670144	1.446146	9.03999	-0.036499	0.024142	-0.01852	-0.451904	-0.02124	-0.656982
106.0	4.649924	1.435281	9.027048	-0.035882	0.028298	-0.015715	-0.456299	-0.01709	-0.656982
107.0	4.631328	1.406229	9.103616	-0.034557	0.026031	-0.016056	-0.456055	-0.023682	-0.654785
108.0	4.648633	1.381054	9.053795	-0.038011	0.029096	-0.016013	-0.452148	-0.014893	-0.654785
109.0	4.608089	1.392781	9.092557	-0.032244	0.030362	-0.014101	-0.451904	-0.02124	-0.652344
110.0	4.629742	1.448054	9.032375	-0.034176	0.025016	-0.014887	-0.454102	-0.019287	-0.654785
111.0	4.603844	1.463941	9.051544	-0.033528	0.025731	-0.010406	-0.445313	-0.019043	-0.652588
112.0	4.604975	1.465417	9.087207	-0.034397	0.020111	-0.005556	-0.454102	-0.01709	-0.652588
113.0	4.618288	1.41353	9.058123	-0.028839	0.016229	-0.005289	-0.456299	-0.01709	-0.654785
114.0	4.646777	1.401256	9.109996	-0.025955	0.016863	-0.004332	-0.449951	-0.01709	-0.652588
115.0	4.683037	1.384725	9.074224	-0.032107	0.013141	-0.005734	-0.456299	-0.019287	-0.647949
116.0	4.641254	1.338776	9.067114	-0.027707	0.02011	-0.005141	-0.454102	-0.019287	-0.656982
117.0	4.626271	1.408588	9.043391	-0.024507	0.015328	-0.008501	-0.45166	-0.023438	-0.654785
118.0	4.613598	1.40635	9.098063	-0.028243	0.020368	-0.002471	-0.454102	-0.019287	-0.656982
119.0	4.649605	1.389785	9.062456	-0.028211	0.016925	-0.000802	-0.447266	-0.023438	-0.650146
120.0	4.597944	1.41965	9.064519	-0.0307	0.015287	-0.000599	-0.456299	-0.01709	-0.652588
121.0	4.605802	1.394242	9.067465	-0.032008	0.0141	0.001417	-0.449707	-0.02124	-0.652344
122.0	4.617306	1.37292	9.104332	-0.029701	0.007143	0.001227	-0.458496	-0.019287	-0.652588
123.0	4.631227	1.374144	9.085633	-0.036226	0.000975	0.000323	-0.449951	-0.01709	-0.654785
124.0	4.626286	1.344247	9.107162	-0.031434	-0.004347	-7e-05	-0.454346	-0.014893	-0.652588
125.0	4.626804	1.341347	9.107326	-0.032989	-0.007244	-0.001376	-0.458496	-0.01709	-0.654785
126.0	4.674142	1.301999	9.072436	-0.032906	-0.003071	-0.006863	-0.454346	-0.014893	-0.650391
127.0	4.637757	1.389792	9.065467	-0.026154	-0.006494	-0.004793	-0.456543	-0.014893	-0.650391
128.0	4.661715	1.368905	9.048056	-0.036706	-0.005901	-0.004646	-0.451904	-0.01709	-0.652588
129.0	4.653756	1.334679	9.035321	-0.041475	-0.004032	-0.002582	-0.452148	-0.014893	-0.652588
130.0	4.657362	1.335338	9.06978	-0.034758	-0.004012	-0.002175	-0.45874	-0.012695	-0.657227
131.0	4.698443	1.321937	9.067477	-0.043394	0.001914	-0.001217	-0.451904	-0.01709	-0.652588
132.0	4.671568	1.332236	9.051576	-0.042341	0.001618	0.004423	-0.458496	-0.019287	-0.656982
133.0	4.680512	1.305964	9.053978	-0.036841	0.004633	0.001358	-0.451904	-0.01709	-0.661621
134.0	4.687988	1.333324	9.068033	-0.039198	0.015023	-9.1e-05	-0.449951	-0.012695	-0.648193
135.0	4.673968	1.34857	9.033479	-0.03398	0.019999	0.002837	-0.456787	-0.010498	-0.655029
136.0	4.672055	1.345296	9.034956	-0.036919	0.022797	0.000226	-0.452148	-0.012695	-0.655029
137.0	4.661284	1.311325	9.023539	-0.032921	0.030767	-0.000312	-0.452148	-0.014893	-0.652588
138.0	4.62412	1.326142	9.09638	-0.031178	0.027511	0.000491	-0.452148	-0.012695	-0.657227
139.0	4.63659	1.274337	9.067381	-0.030039	0.031397	0.000652	-0.450195	-0.010498	-0.655029
140.0	4.628757	1.244977	9.090091	-0.025517	0.027829	-0.004736	-0.449951	-0.012695	-0.652588
141.0	4.652298	1.282245	9.119565	-0.01859	0.021715	-0.004844	-0.452148	-0.014893	-0.654785
142.0	4.673536	1.26265	9.103321	-0.019038	0.026153	-0.007651	-0.454346	-0.012695	-0.655029
143.0	4.676041	1.288533	9.083851	-0.014712	0.02873	-0.012521	-0.452148	-0.012695	-0.652588
144.0	4.660678	1.30646	9.049653	-0.014513	0.033868	-0.010845	-0.452393	-0.010498	-0.659424
145.0	4.671508	1.310215	9.03228	-0.012476	0.039944	-0.013843	-0.452148	-0.014893	-0.654785
146.0	4.680684	1.237733	9.058765	-0.012157	0.045823	-0.015986	-0.451904	-0.01709	-0.652588
147.0	4.657864	1.282601	9.057706	-0.009677	0.047456	-0.016176	-0.443604	-0.012695	-0.652588
148.0	4.653098	1.282357	9.06019	-0.011613	0.053389	-0.014797	-0.449951	-0.014893	-0.652588
149.0	4.647838	1.282135	9.062921	-0.01036	0.058013	-0.018449	-0.449951	-0.012695	-0.659424
150.0	4.626869	1.330815	9.096626	-0.013849	0.06105	-0.018391	-0.45459	-0.010498	-0.652588
151.0	4.639413	1.285429	9.103052	-0.011378	0.062678	-0.018574	-0.454346	-0.014893	-0.652588
152.0	4.629267	1.334825	9.083572	-0.010261	0.066551	-0.018399	-0.449951	-0.012695	-0.659424
153.0	4.608555	1.33002	9.106034	-0.015837	0.066945	-0.017	-0.447754	-0.012695	-0.652588
154.0	4.588063	1.325047	9.128371	-0.012738	0.061445	-0.016552	-0.456787	-0.008301	-0.655029
155.0	4.612101	1.279902	9.081474	-0.021075	0.06194	-0.019947	-0.452148	-0.014893	-0.661621
156.0	4.582737	1.297524	9.101889	-0.009926	0.05768	-0.021071	-0.450195	-0.010498	-0.657227
157.0	4.562682	1.292944	9.123886	-0.014192	0.059266	-0.021681	-0.449951	-0.014893	-0.659424
158.0	4.59841	1.28303	9.124171	-0.009724	0.051533	-0.021591	-0.450195	-0.010498	-0.655029
159.0	4.557595	1.320025	9.108165	-0.009194	0.051273	-0.024252	-0.447754	-0.012695	-0.657227
160.0	4.54754	1.293236	9.131401	-0.010331	0.047382	-0.024423	-0.449951	-0.012695	-0.655029
161.0	4.553384	1.347426	9.091978	-0.010342	0.047373	-0.024419	-0.447754	-0.012695	-0.652588
162.0	4.558166	1.325034	9.095921	-0.010302	0.043932	-0.022773	-0.443604	-0.010498	-0.657227
163.0	4.553891	1.325024	9.098063	-0.013203	0.043278	-0.023745	-0.450195	-0.008301	-0.661865
164.0	4.535377	1.320464	9.119185	-0.00945	0.038497	-0.018815	-0.450439	-0.006104	-0.652832
165.0	4.549017	1.328887	9.136087	-0.007548	0.036003	-0.021833	-0.447754	-0.012695	-0.657227
166.0	4.528221	1.320707	9.122705	-0.010583	0.034606	-0.01899	-0.447754	-0.014648	-0.659424
167.0	4.542373	1.328918	9.139388	-0.00917	0.028933	-0.017703	-0.450195	-0.008301	-0.661865
168.0	4.527481	1.347538	9.104888	-0.010893	0.02873	-0.016859	-0.447998	-0.010498	-0.659424
169.0	4.536787	1.32843	9.142233	-0.01297	0.02609	-0.015528	-0.445801	-0.010498	-0.659424
170.0	4.531562	1.32426	9.109316	-0.011608	0.023851	-0.015883	-0.450195	-0.008301	-0.655029
171.0	4.553069	1.30592	9.093177	-0.012374	0.022405	-0.01655	-0.447754	-0.012695	-0.657227
172.0	4.562864	1.286791	9.130281	-0.010796	0.021859	-0.013573	-0.447754	-0.012695	-0.657227
173.0	4.548701	1.305102	9.09548	-0.011346	0.022106	-0.010909	-0.450195	-0.008301	-0.659668
174.0	4.549228	1.308493	9.130834	-0.009082	0.022055	-0.014412	-0.45459	-0.010498	-0.655029
175.0	4.539005	1.277244	9.118601	-0.015064	0.023437	-0.014195	-0.452393	-0.010498	-0.657227
176.0	4.552583	1.338491	9.146668	-0.007779	0.023244	-0.016404	-0.445801	-0.010498	-0.659424
177.0	4.539769	1.303686	9.100145	-0.01212	0.020653	-0.011574	-0.447754	-0.014648	-0.659424
178.0	4.572211	1.319775	9.13157	-0.011574	0.020402	-0.014236	-0.452148	-0.012695	-0.657227
179.0	4.535485	1.302731	9.102417	-0.013768	0.02462	-0.016185	-0.445557	-0.014648	-0.664063
180.0	4.55985	1.287864	9.120499	-0.013439	0.019452	-0.009578	-0.448242	-0.006104	-0.659668
181.0	4.55759	1.287339	9.121703	-0.010125	0.026709	-0.01453	-0.443604	-0.010498	-0.657227
182.0	4.557797	1.290562	9.15721	-0.013507	0.022875	-0.011213	-0.447998	-0.010498	-0.661865
183.0	4.550284	1.282598	9.089959	-0.01124	0.022826	-0.014714	-0.449707	-0.019043	-0.659424
184.0	4.526627	1.303796	9.142731	-0.012615	0.025056	-0.014356	-0.450195	-0.010498	-0.657227
185.0	4.559951	1.26651	9.162716	-0.013581	0.026294	-0.012845	-0.445557	-0.014648	-0.654785
186.0	4.560076	1.289221	9.10911	-0.015925	0.02539	-0.016491	-0.450195	-0.008301	-0.657227
187.0	4.54283	1.284245	9.129498	-0.008839	0.027888	-0.016511	-0.443604	-0.010498	-0.659424
188.0	4.581195	1.274307	9.128858	-0.014417	0.028268	-0.015146	-0.445801	-0.008301	-0.655029
189.0	4.536954	1.283341	9.132547	-0.014553	0.035116	-0.018412	-0.447998	-0.010498	-0.664063
190.0	4.503172	1.346516	9.094831	-0.014634	0.030941	-0.012962	-0.447754	-0.012695	-0.659424
191.0	4.495137	1.318506	9.117038	-0.017051	0.025866	-0.011162	-0.447998	-0.010498	-0.657227
192.0	4.528595	1.28074	9.13706	-0.0174	0.023429	-0.010681	-0.445557	-0.012695	-0.659424
193.0	4.494842	1.267111	9.141861	-0.009418	0.016154	-0.012274	-0.445801	-0.010498	-0.661865
194.0	4.534314	1.25715	9.140728	-0.011554	0.01694	-0.012588	-0.443604	-0.008301	-0.659668
195.0	4.515606	1.248505	9.126286	-0.010382	0.01302	-0.016279	-0.441162	-0.014648	-0.659424
196.0	4.553802	1.29173	9.136879	-0.015962	0.013397	-0.01492	-0.447754	-0.014648	-0.659424
197.0	4.52976	1.256036	9.143139	-0.007011	0.016852	-0.019581	-0.443359	-0.014648	-0.657227
198.0	4.562194	1.272616	9.174602	-0.011836	0.018668	-0.01755	-0.447754	-0.012695	-0.661865
199.0	4.533792	1.286602	9.158586	-0.009705	0.01788	-0.017234	-0.448242	-0.006104	-0.657227
200.0	4.529332	1.282877	9.12533	-0.009365	0.020311	-0.017711	-0.441406	-0.012451	-0.659424
201.0	4.524834	1.279164	9.092098	-0.010123	0.018867	-0.018383	-0.447754	-0.012695	-0.657227
202.0	4.527675	1.286286	9.161656	-0.01192	0.022082	-0.019176	-0.445557	-0.012451	-0.661865
203.0	4.525487	1.286158	9.162755	-0.008206	0.020756	-0.015882	-0.443604	-0.012451	-0.664063
204.0	4.506412	1.278037	9.148399	-0.006475	0.016593	-0.022235	-0.447998	-0.010498	-0.661865
205.0	4.531045	1.263934	9.16632	-0.011858	0.01865	-0.017545	-0.443604	-0.010498	-0.657227
206.0	4.54369	1.268543	9.148384	-0.007662	0.020503	-0.018539	-0.450195	-0.010498	-0.661865
207.0	4.546934	1.295728	9.128738	-0.010142	0.018852	-0.018378	-0.445801	-0.010498	-0.659424
208.0	4.520784	1.313522	9.147	-0.009251	0.021037	-0.021514	-0.443604	-0.010498	-0.657227
209.0	4.527979	1.291182	9.149782	-0.009254	0.021034	-0.021513	-0.445801	-0.010498	-0.661865
210.0	4.523281	1.287524	9.116667	-0.012365	0.023048	-0.020319	-0.445557	-0.014648	-0.659424
211.0	4.511309	1.309932	9.116236	-0.008388	0.02758	-0.019126	-0.445557	-0.014648	-0.661621
212.0	4.501736	1.335849	9.150065	-0.014095	0.022834	-0.019483	-0.445801	-0.010498	-0.664063
213.0	4.474743	1.296335	9.122273	-0.010935	0.021758	-0.013527	-0.445557	-0.012695	-0.659424
214.0	4.472841	1.295696	9.123296	-0.015057	0.016477	-0.01091	-0.44165	-0.006104	-0.661865
215.0	4.505477	1.311611	9.154823	-0.012703	0.013017	-0.012776	-0.447998	-0.010498	-0.659424
216.0	4.522877	1.266025	9.15904	-0.015258	0.014786	-0.014244	-0.441406	-0.008057	-0.661865
217.0	4.517309	1.315182	9.137493	-0.010012	0.011989	-0.015117	-0.450195	-0.010498	-0.659424
218.0	4.542381	1.300563	9.155318	-0.015263	0.014782	-0.014242	-0.449951	-0.012695	-0.661865
219.0	4.50929	1.286795	9.159624	-0.013047	0.01058	-0.0123	-0.445557	-0.012695	-0.657227
220.0	4.505649	1.282611	9.126086	-0.013129	0.013999	-0.013923	-0.443604	-0.010498	-0.655029
221.0	4.543686	1.32578	9.136973	-0.015189	0.011357	-0.012617	-0.447754	-0.014893	-0.657227
222.0	4.5199	1.289314	9.14306	-0.01605	0.017694	-0.009394	-0.443604	-0.008301	-0.657227
223.0	4.527524	1.265725	9.145811	-0.019776	0.019007	-0.012687	-0.443604	-0.012451	-0.655029
224.0	4.535009	1.24206	9.148637	-0.019029	0.020446	-0.012009	-0.443604	-0.008301	-0.659668
225.0	4.542356	1.218618	9.1515	-0.016001	0.021853	-0.014822	-0.443604	-0.008301	-0.657227
226.0	4.523141	1.209884	9.137252	-0.008692	0.021704	-0.016998	-0.445801	-0.008301	-0.661865
227.0	4.513662	1.235756	9.170999	-0.012836	0.024003	-0.021442	-0.447998	-0.008301	-0.655029
228.0	4.507129	1.285327	9.149924	-0.007533	0.022152	-0.015168	-0.443848	-0.006104	-0.659668
229.0	4.521605	1.293692	9.16657	-0.010037	0.02808	-0.022063	-0.447754	-0.012695	-0.657227
230.0	4.557738	1.280551	9.131956	-0.015773	0.027685	-0.01691	-0.443604	-0.008301	-0.657227
231.0	4.554688	1.280049	9.133547	-0.012642	0.034195	-0.018002	-0.443604	-0.008301	-0.659668
232.0	4.541601	1.302026	9.133727	-0.014687	0.040069	-0.016601	-0.445801	-0.008301	-0.661865
233.0	4.539297	1.247943	9.123916	-0.020272	0.048934	-0.015158	-0.443604	-0.008301	-0.661865
234.0	4.472121	1.29747	9.090509	-0.017623	0.052262	-0.011966	-0.443604	-0.012451	-0.661865
235.0	4.178537	1.548384	9.120323	-0.01136	0.040666	-0.007297	-0.447998	-0.010498	-0.657227
236.0	4.448897	1.399467	9.171488	-0.037605	0.009494	0.005296	-0.443604	-0.010254	-0.661865
237.0	4.544691	1.118826	9.177117	-0.028091	0.012743	-0.001972	-0.441406	-0.008057	-0.661865
238.0	4.462595	1.21295	9.138371	-0.005121	0.003525	-0.002938	-0.445801	-0.008301	-0.661865
239.0	4.554303	1.284413	9.229887	-0.019146	0.007719	-0.006688	-0.443604	-0.012451	-0.659424
240.0	4.50428	1.148659	9.125566	-0.010188	0.011214	-0.011297	-0.443848	-0.006104	-0.657227
241.0	4.533062	1.271621	9.181316	-0.003615	0.009638	-0.014143	-0.439453	-0.003906	-0.661865
242.0	4.512695	1.259897	9.132167	-0.008137	0.013854	-0.012592	-0.439209	-0.010254	-0.657227
243.0	4.522824	1.240684	9.168907	-0.009536	0.016068	-0.012231	-0.439209	-0.012451	-0.657227
244.0	4.511657	1.262873	9.168096	-0.010558	0.016361	-0.017866	-0.441895	-0.001709	-0.666504
245.0	4.478223	1.249922	9.172219	-0.000492	0.016148	-0.015221	-0.441406	-0.012451	-0.661865
246.0	4.466963	1.272603	9.171374	-0.009817	0.017798	-0.017184	-0.44165	-0.003906	-0.659668
247.0	4.470564	1.30012	9.151701	-0.002405	0.01425	-0.01773	-0.443604	-0.010254	-0.664063
248.0	4.454292	1.238869	9.124716	-0.008331	0.012164	-0.015929	-0.446045	-0.001709	-0.657471
249.0	4.501647	1.260649	9.137514	-0.002736	0.01182	-0.017263	-0.443604	-0.008301	-0.659668
250.0	4.5129	1.319086	9.13154	-0.005118	0.015259	-0.015392	-0.443604	-0.010498	-0.657227
251.0	4.489204	1.283359	9.137246	-0.011044	0.013171	-0.013592	-0.445801	-0.010498	-0.659424
252.0	4.514172	1.269092	9.155165	-0.006848	0.015041	-0.014563	-0.445801	-0.010498	-0.661865
253.0	4.488073	1.286588	9.173154	-0.00909	0.019226	-0.016497	-0.445801	-0.010498	-0.659424
254.0	4.502957	1.238146	9.143238	-0.010494	0.021436	-0.016135	-0.446045	-0.003906	-0.655029
255.0	4.491303	1.260419	9.142635	-0.008352	0.020663	-0.015812	-0.443848	-0.006104	-0.655029
256.0	4.466807	1.281146	9.195153	-0.011903	0.023644	-0.015772	-0.445801	-0.008301	-0.657227
257.0	4.46261	1.277461	9.161927	-0.008681	0.018231	-0.015346	-0.441406	-0.012451	-0.659424
258.0	4.462815	1.280696	9.197154	-0.009247	0.018469	-0.012688	-0.443848	-0.003906	-0.664307
259.0	4.500259	1.267897	9.162178	-0.009009	0.0158	-0.01488	-0.441406	-0.010254	-0.664063
260.0	4.445957	1.295724	9.128527	-0.011804	0.011713	-0.014273	-0.443848	-0.006104	-0.661865
261.0	4.463608	1.307159	9.17903	-0.008916	0.012384	-0.013267	-0.441406	-0.010254	-0.664063
262.0	4.506021	1.24458	9.165827	-0.010725	0.007072	-0.01417	-0.446045	-0.006104	-0.664063
263.0	4.488223	1.235814	9.150795	-0.012131	0.009282	-0.013808	-0.441406	-0.010254	-0.661865
264.0	4.502028	1.240645	9.132562	-0.004804	0.009164	-0.015961	-0.439209	-0.010254	-0.664063
265.0	4.48812	1.239211	9.186143	-0.009101	0.010699	-0.016605	-0.445801	-0.010498	-0.661865
266.0	4.49438	1.213812	9.154072	0.000695	0.012241	-0.018898	-0.443604	-0.010498	-0.659424
267.0	4.505678	1.272328	9.148123	-0.009104	0.010696	-0.016604	-0.439209	-0.010254	-0.657227
268.0	4.491449	1.271033	9.201826	-0.002863	0.015217	-0.018856	-0.441406	-0.012451	-0.659424
269.0	4.473384	1.20655	9.1404	-0.007239	0.011657	-0.021231	-0.443604	-0.008301	-0.661865
270.0	4.512963	1.254652	9.18602	0.001428	0.01368	-0.018209	-0.443848	-0.003906	-0.661865
271.0	4.494597	1.24722	9.171076	-0.001321	0.013749	-0.023019	-0.44165	-0.003906	-0.661865
272.0	4.483465	1.270438	9.170056	-0.001888	0.013986	-0.020362	-0.447998	-0.008301	-0.661865
273.0	4.513443	1.284552	9.167618	-0.001993	0.017395	-0.021971	-0.441406	-0.010254	-0.659424
274.0	4.47027	1.294195	9.169958	-0.007035	0.017483	-0.023301	-0.445801	-0.008301	-0.655029
275.0	4.483176	1.299777	9.152093	-0.002422	0.018376	-0.023115	-0.447998	-0.010498	-0.659424
276.0	4.492949	1.281494	9.188849	-0.002884	0.015202	-0.01885	-0.450195	-0.008301	-0.664063
277.0	4.464808	1.295802	9.172392	-0.00775	0.016969	-0.016841	-0.447998	-0.010498	-0.657227
278.0	4.482144	1.251195	9.176627	-0.006871	0.019154	-0.019957	-0.44165	-0.006104	-0.664063
279.0	4.483635	1.275481	9.122774	-0.00578	0.014519	-0.019856	-0.443848	-0.006104	-0.661865
280.0	4.454268	1.269341	9.195224	-0.004056	0.014737	-0.020679	-0.447998	-0.010498	-0.661865
281.0	4.484409	1.28337	9.192758	-0.001485	0.012988	-0.019207	-0.439209	-0.010254	-0.664063
282.0	4.48092	1.280427	9.159147	-0.007938	0.015277	-0.020179	-0.441406	-0.010254	-0.659424
283.0	4.469798	1.303229	9.158144	-0.002228	0.011543	-0.019891	-0.448242	-0.006104	-0.664063
284.0	4.494812	1.28959	9.176061	-0.009246	0.014069	-0.018209	-0.443604	-0.008301	-0.664063
285.0	4.467048	1.303667	9.159423	-0.006423	0.009657	-0.018931	-0.448242	-0.006104	-0.661865
286.0	4.506894	1.29489	9.158686	-0.006613	0.01741	-0.015003	-0.439209	-0.008057	-0.664063
287.0	4.449078	1.298635	9.179632	-0.011544	0.014082	-0.014731	-0.448242	-0.006104	-0.664063
288.0	4.488895	1.289318	9.178995	-0.010384	0.01454	-0.012897	-0.443604	-0.008301	-0.664063
289.0	4.454	1.27218	9.148463	-0.009709	0.010892	-0.013945	-0.446045	-0.006104	-0.657227
290.0	4.469637	1.280414	9.16466	-0.007559	0.010129	-0.01362	-0.443604	-0.010254	-0.664063
291.0	4.451855	1.271706	9.149573	-0.011752	0.008243	-0.012663	-0.443604	-0.008301	-0.657227
292.0	4.45616	1.298881	9.129698	-0.006147	0.007924	-0.01398	-0.447998	-0.010498	-0.664063
293.0	4.474162	1.310562	9.179965	-0.009662	0.00239	-0.014073	-0.441406	-0.010254	-0.661865
294.0	4.493025	1.265711	9.183538	-0.007199	0.004054	-0.014207	-0.441406	-0.010254	-0.659424
295.0	4.475808	1.257346	9.168126	-0.005784	0.00185	-0.014569	-0.44165	-0.006104	-0.661865
296.0	4.50201	1.243507	9.185513	-0.006097	-0.000576	-0.014109	-0.441406	-0.010254	-0.657227
297.0	4.506903	1.271123	9.165296	-0.004485	0.003053	-0.016535	-0.447998	-0.010498	-0.659424
298.0	4.491535	1.266393	9.184173	-0.004486	0.003053	-0.016535	-0.446045	-0.006104	-0.657227
299.0	4.511115	1.298908	9.145389	-0.011256	0.002905	-0.017049	-0.446045	-0.003906	-0.657471
300.0	4.498293	1.240587	9.152044	-0.007632	0.005031	-0.01535	-0.443604	-0.010498	-0.659424
301.0	4.487817	1.263046	9.150761	-0.005596	0.007678	-0.01663	-0.450439	-0.006104	-0.664063
302.0	4.501793	1.268347	9.132495	-0.00676	0.007216	-0.018462	-0.443604	-0.010254	-0.661865
303.0	4.492957	1.294187	9.165631	-0.007016	0.009878	-0.016266	-0.443604	-0.008301	-0.664063
304.0	4.465503	1.308161	9.148825	-0.007327	0.007452	-0.015807	-0.447998	-0.010498	-0.657227
305.0	4.448158	1.299625	9.133493	-0.008084	0.001857	-0.011092	-0.441406	-0.012451	-0.661865
306.0	4.469063	1.258145	9.171306	-0.006785	0.003062	-0.013058	-0.441406	-0.010254	-0.661865
307.0	4.483658	1.263258	9.15277	-0.006104	-0.000584	-0.014108	-0.439209	-0.010254	-0.655029
308.0	4.49832	1.268644	9.134164	-0.001915	0.001307	-0.015061	-0.441406	-0.010254	-0.659424
309.0	4.499795	1.272299	9.168624	-0.006224	0.002821	-0.01571	-0.443604	-0.008301	-0.661865
310.0	4.523812	1.255331	9.151848	-0.00419	0.00547	-0.016988	-0.446045	-0.003906	-0.659668
311.0	4.481808	1.26449	9.153506	-0.003764	0.004488	-0.015843	-0.446045	-0.006104	-0.659668
312.0	4.486411	1.292194	9.133425	-0.005064	0.003281	-0.013877	-0.443604	-0.008301	-0.661865
313.0	4.471167	1.287214	9.152254	-0.005372	0.000855	-0.013419	-0.448242	-0.006104	-0.657227
314.0	4.527164	1.283569	9.132315	-0.008263	0.000167	-0.014431	-0.448242	-0.001709	-0.664307
315.0	4.490033	1.242589	9.155827	-0.005495	0.00426	-0.015021	-0.445801	-0.010498	-0.657227
316.0	4.525244	1.340029	9.179501	-0.008215	0.005253	-0.012692	-0.443604	-0.008301	-0.659668
317.0	4.520259	1.256102	9.153498	-0.006182	0.007903	-0.013969	-0.443848	-0.006104	-0.657227
318.0	4.507828	1.275153	9.117952	-0.006918	0.006458	-0.014656	-0.447754	-0.012695	-0.659424
319.0	4.50356	1.250907	9.173066	-0.008598	0.01132	-0.012096	-0.445557	-0.012451	-0.661865
320.0	4.487967	1.322861	9.150117	-0.006872	0.011545	-0.012916	-0.443604	-0.010254	-0.661865
321.0	4.48973	1.269665	9.138248	-0.009077	0.007211	-0.01498	-0.443604	-0.010254	-0.661865
322.0	4.520367	1.283048	9.135755	-0.009336	0.009872	-0.012783	-0.443604	-0.008301	-0.661865
323.0	4.504432	1.277897	9.154929	-0.004891	0.009106	-0.015931	-0.441406	-0.008301	-0.659668
324.0	4.530072	1.263998	9.172642	-0.008785	0.005484	-0.010038	-0.448242	-0.003906	-0.659668
325.0	4.502531	1.277576	9.155909	-0.009895	0.014255	-0.015527	-0.443604	-0.008301	-0.655029
326.0	4.50123	1.277431	9.156569	-0.007615	0.010095	-0.013602	-0.447754	-0.012451	-0.66626
327.0	4.516647	1.285933	9.172867	-0.006015	0.013726	-0.01602	-0.445801	-0.010498	-0.659424
328.0	4.508264	1.255046	9.159556	-0.011628	0.014024	-0.014706	-0.445557	-0.014648	-0.657227
329.0	4.487342	1.299238	9.15703	-0.011933	0.011597	-0.01425	-0.444092	-0.001709	-0.659668
330.0	4.510848	1.281836	9.140629	-0.007621	0.01009	-0.0136	-0.445801	-0.008301	-0.659668
331.0	4.509752	1.281381	9.141233	-0.013798	0.010624	-0.009634	-0.449951	-0.012695	-0.657227
332.0	4.508749	1.281085	9.14177	-0.005635	0.007655	-0.016615	-0.443604	-0.012451	-0.664063
333.0	4.534139	1.267223	9.159619	-0.011376	0.011355	-0.016901	-0.445801	-0.010498	-0.661865
334.0	4.509297	1.227833	9.130511	-0.007324	0.012511	-0.014052	-0.44165	-0.006104	-0.661865
335.0	4.505098	1.280948	9.143588	-0.006331	0.011294	-0.01556	-0.44165	-0.006104	-0.661865
336.0	4.488928	1.275779	9.162836	-0.008491	0.012044	-0.015885	-0.447998	-0.008301	-0.661865
337.0	4.512431	1.258692	9.14642	-0.007067	0.009846	-0.016248	-0.443604	-0.010254	-0.661865
338.0	4.501407	1.281014	9.145397	-0.007331	0.012506	-0.01405	-0.445557	-0.012695	-0.659424
339.0	4.485255	1.275651	9.164653	-0.009792	0.010831	-0.013921	-0.449951	-0.014893	-0.661621
340.0	4.515622	1.289547	9.162299	-0.000725	0.010996	-0.016867	-0.445557	-0.012451	-0.661865
341.0	4.507646	1.259058	9.148729	-0.009963	0.009147	-0.017263	-0.437256	-0.005859	-0.661865
342.0	4.496726	1.281423	9.147642	-0.005346	0.01007	-0.017064	-0.445557	-0.012451	-0.661865
343.0	4.523933	1.271025	9.199776	-0.007375	0.007415	-0.015793	-0.445801	-0.010498	-0.661865
344.0	4.494676	1.281559	9.148631	-0.008073	0.011054	-0.014737	-0.441406	-0.010254	-0.661865
345.0	4.483677	1.303862	9.147586	-0.005915	0.010303	-0.014411	-0.441406	-0.010254	-0.661865
346.0	4.495461	1.228418	9.137252	-0.010535	0.009376	-0.01461	-0.447998	-0.008301	-0.659668
347.0	4.530058	1.325972	9.161326	-0.00409	0.002045	-0.015377	-0.447754	-0.012695	-0.659424
348.0	4.467759	1.242458	9.120485	-0.007116	0.00475	-0.017989	-0.447754	-0.012695	-0.657227
349.0	4.505263	1.286862	9.132142	-0.012867	0.008439	-0.018276	-0.450195	-0.008301	-0.655029
350.0	4.498278	1.315781	9.199455	0.00066	-0.000432	-0.013582	-0.443604	-0.008301	-0.655029
351.0	4.471137	1.270073	9.101085	-0.012433	0.003312	-0.011742	-0.443604	-0.008301	-0.657227
352.0	4.522454	1.298517	9.182783	-0.00612	-0.000613	-0.014107	-0.441406	-0.010254	-0.661865
353.0	4.503937	1.286787	9.132806	-0.007117	0.000601	-0.012598	-0.447998	-0.008301	-0.659668
354.0	4.528499	1.269396	9.115965	-0.013898	0.000418	-0.013123	-0.439209	-0.012451	-0.657227
355.0	4.529933	1.272276	9.150485	-0.005225	0.002513	-0.010073	-0.446045	-0.006104	-0.664063
356.0	4.522571	1.241504	9.136653	-0.008557	0.006937	-0.01762	-0.44165	-0.003906	-0.659668
357.0	4.511832	1.263728	9.13549	-0.006794	0.008106	-0.011301	-0.447754	-0.012695	-0.659424
358.0	4.510906	1.263612	9.135963	-0.008393	0.008616	-0.014277	-0.445801	-0.010498	-0.655029
359.0	4.501614	1.288906	9.16928	-0.01026	0.011786	-0.015054	-0.441406	-0.012451	-0.66626
360.0	4.525171	1.271753	9.152914	-0.0081	0.011038	-0.014728	-0.443604	-0.008301	-0.659668
361.0	4.507441	1.263062	9.137749	-0.010559	0.009359	-0.014602	-0.446045	-0.006104	-0.659668
362.0	4.504617	1.25976	9.103985	-0.006376	0.011269	-0.015543	-0.439209	-0.010254	-0.655029
363.0	4.497157	1.288288	9.171553	-0.01275	0.005019	-0.016677	-0.447998	-0.010498	-0.664063
364.0	4.514473	1.240379	9.140809	-0.006239	0.007865	-0.013949	-0.445557	-0.012451	-0.661865
365.0	4.520309	1.271096	9.155408	-0.009132	0.007163	-0.014966	-0.447754	-0.012695	-0.657227
366.0	4.492913	1.284696	9.138529	-0.009568	0.00814	-0.016108	-0.450195	-0.010498	-0.659424
367.0	4.518513	1.270788	9.156337	-0.009135	0.007161	-0.014966	-0.445801	-0.008301	-0.661865
368.0	4.51254	1.243076	9.176994	-0.008843	0.009584	-0.015415	-0.445801	-0.010498	-0.659424
369.0	4.516587	1.270599	9.157313	-0.008574	0.006924	-0.017615	-0.446045	-0.006104	-0.657227
370.0	4.489105	1.284388	9.140443	-0.007118	0.009815	-0.01623	-0.450439	-0.006104	-0.659668
371.0	4.514563	1.270708	9.158296	-0.007848	0.008368	-0.016922	-0.446045	-0.003906	-0.659668
372.0	4.51865	1.298234	9.138601	-0.009142	0.007155	-0.014964	-0.445801	-0.010498	-0.657227
373.0	4.4962	1.262082	9.143421	-0.006251	0.007857	-0.013945	-0.443848	-0.006104	-0.666504
374.0	4.508797	1.26434	9.09083	-0.006273	0.002775	-0.015696	-0.443604	-0.008057	-0.666504
375.0	4.501584	1.292907	9.158226	-0.009874	0.005705	-0.015655	-0.445801	-0.010498	-0.664063
376.0	4.509243	1.267365	9.125788	-0.008439	0.003515	-0.016022	-0.443604	-0.008301	-0.657227
377.0	4.510243	1.270521	9.160451	-0.006985	0.006408	-0.014636	-0.443848	-0.006104	-0.657227
378.0	4.492995	1.261807	9.145034	-0.01117	0.00449	-0.013697	-0.445801	-0.008301	-0.661865
379.0	4.540283	1.283857	9.158456	-0.008988	0.008829	-0.011618	-0.447998	-0.010498	-0.659424
380.0	4.501367	1.23914	9.147438	-0.007153	0.004724	-0.017977	-0.441406	-0.012451	-0.664063
381.0	4.480817	1.283687	9.144608	-0.007717	0.004958	-0.015327	-0.443848	-0.006104	-0.659668
382.0	4.521657	1.275322	9.143698	-0.007281	0.00398	-0.014186	-0.445801	-0.008301	-0.661865
383.0	4.521174	1.27528	9.143943	-0.00801	0.002532	-0.014879	-0.445801	-0.010498	-0.655029
384.0	4.505926	1.269916	9.162658	-0.006573	0.000344	-0.015246	-0.443848	-0.006104	-0.666504
385.0	4.527196	1.305956	9.158459	-0.010467	0.000847	-0.014756	-0.443848	-0.006104	-0.661865
386.0	4.518569	1.271891	9.110114	-0.007286	0.003977	-0.014184	-0.447998	-0.008301	-0.657227
387.0	4.536235	1.283273	9.160544	-0.010141	0.004208	-0.00807	-0.450195	-0.010498	-0.659424
388.0	4.527589	1.248963	9.112242	-0.009743	0.002292	-0.014062	-0.443604	-0.008301	-0.657227
389.0	4.54506	1.260267	9.162779	-0.011168	0.009559	-0.011939	-0.443604	-0.012451	-0.661865
390.0	4.511034	1.242881	9.131697	-0.009167	0.007138	-0.014956	-0.445801	-0.008301	-0.655029
391.0	4.516766	1.273393	9.146384	-0.009732	0.00737	-0.012306	-0.450195	-0.010498	-0.657227
392.0	4.516094	1.273115	9.146754	-0.00902	0.003736	-0.013367	-0.452148	-0.014893	-0.664063
393.0	4.514081	1.269747	9.112637	-0.009309	0.001312	-0.012921	-0.443604	-0.012451	-0.657227
394.0	4.525239	1.250695	9.148748	-0.003838	0.004448	-0.015811	-0.445801	-0.008301	-0.657227
395.0	4.531103	1.281561	9.163323	-0.00757	0.006628	-0.011978	-0.446045	-0.003906	-0.659668
396.0	4.533847	1.228584	9.150968	-0.007172	0.004713	-0.017971	-0.450439	-0.003906	-0.659668
397.0	4.544433	1.287107	9.145552	-0.007162	0.009792	-0.016213	-0.446045	-0.006104	-0.664063
398.0	4.536773	1.256252	9.131868	-0.009893	0.010762	-0.01389	-0.448242	-0.006104	-0.661865
399.0	4.562079	1.242408	9.149856	-0.008607	0.011975	-0.015844	-0.443848	-0.006104	-0.664063
400.0	4.532514	1.252839	9.098884	-0.01049	0.015134	-0.016615	-0.447998	-0.008301	-0.659668
401.0	4.522487	1.278051	9.132502	-0.008764	0.015371	-0.017428	-0.445801	-0.010498	-0.657227
402.0	4.530902	1.25593	9.134826	-0.005433	0.015105	-0.015267	-0.448242	-0.003906	-0.657471
403.0	4.529532	1.255976	9.135499	-0.009339	0.010522	-0.016537	-0.452148	-0.012695	-0.661865
404.0	4.544868	1.264794	9.151868	-0.003153	0.01003	-0.020486	-0.450439	-0.001709	-0.661865
405.0	4.502164	1.273278	9.153596	-0.008618	0.011966	-0.015841	-0.443848	-0.006104	-0.659668
406.0	4.542155	1.265138	9.153168	-0.007048	0.015602	-0.018239	-0.447998	-0.010498	-0.66626
407.0	4.52908	1.284393	9.117989	-0.008059	0.01173	-0.018489	-0.450195	-0.010498	-0.657227
408.0	4.522763	1.256762	9.138744	-0.00834	0.014384	-0.016284	-0.44165	-0.003906	-0.659668
409.0	4.5113	1.27901	9.137899	-0.006897	0.0122	-0.016652	-0.447998	-0.010498	-0.661865
410.0	4.541176	1.293214	9.135973	-0.006333	0.017044	-0.01754	-0.447998	-0.010498	-0.657227
411.0	4.518328	1.25686	9.140924	-0.010479	0.010974	-0.011238	-0.446045	-0.006104	-0.664063
412.0	4.492105	1.273395	9.15852	-0.008067	0.011723	-0.018486	-0.449951	-0.012695	-0.655029
413.0	4.505843	1.27905	9.140586	-0.006623	0.00954	-0.018854	-0.447998	-0.008301	-0.661865
414.0	4.511388	1.309909	9.155314	-0.008916	0.004453	-0.017154	-0.443604	-0.012451	-0.659424
415.0	4.530711	1.26544	9.158796	-0.008476	0.008554	-0.014253	-0.443604	-0.010254	-0.66626
416.0	4.518254	1.284591	9.12333	-0.006467	0.00614	-0.01727	-0.443604	-0.010498	-0.657227
417.0	4.54382	1.270928	9.14121	-0.009927	0.010733	-0.013883	-0.445557	-0.012451	-0.661865
418.0	4.511396	1.256642	9.144378	-0.008038	0.007577	-0.013113	-0.445801	-0.008301	-0.657227
419.0	4.541894	1.270673	9.142203	-0.007919	0.008318	-0.0169	-0.447998	-0.010498	-0.657227
420.0	4.526001	1.265293	9.161145	-0.005749	0.007585	-0.016572	-0.441162	-0.014648	-0.657227
421.0	4.538257	1.267755	9.108886	-0.010096	0.014124	-0.015464	-0.443604	-0.010498	-0.659424
422.0	4.538585	1.27063	9.143852	-0.008043	0.007573	-0.013112	-0.443359	-0.014648	-0.657227
423.0	4.511068	1.284201	9.12694	-0.007202	0.009762	-0.016201	-0.443604	-0.012451	-0.661865
424.0	4.50363	1.25342	9.113135	-0.008932	0.009518	-0.015389	-0.443848	-0.006104	-0.661865
425.0	4.525558	1.292784	9.143781	-0.006034	0.005159	-0.016128	-0.445801	-0.008301	-0.659668
426.0	4.509962	1.287431	9.162554	-0.004427	0.004659	-0.013153	-0.447998	-0.008301	-0.659668
427.0	4.52436	1.293038	9.144338	-0.008487	0.003465	-0.016013	-0.439209	-0.008057	-0.661865
428.0	4.533988	1.270734	9.146117	-0.007442	0.003198	-0.01039	-0.445557	-0.012695	-0.657227
429.0	4.521861	1.289841	9.110503	-0.007204	0.00468	-0.017962	-0.445801	-0.010254	-0.668701
430.0	4.516415	1.262185	9.130795	-0.007325	0.003938	-0.014176	-0.445801	-0.008301	-0.659668
431.0	4.547153	1.276321	9.128523	-0.007048	0.006359	-0.014617	-0.446045	-0.006104	-0.661865
432.0	4.562771	1.284851	9.14482	-0.008057	0.007563	-0.013108	-0.450195	-0.010498	-0.659424
433.0	4.555535	1.254059	9.130922	-0.006774	0.008779	-0.015057	-0.443848	-0.006104	-0.664063
434.0	4.544289	1.276125	9.129976	-0.0104	0.011685	-0.015014	-0.448242	-0.006104	-0.657227
435.0	4.528192	1.270466	9.149026	-0.005611	0.009254	-0.013221	-0.446289	0.000488	-0.659668
436.0	4.527233	1.27062	9.149479	-0.00577	0.007572	-0.016565	-0.443604	-0.008301	-0.661865
437.0	4.541098	1.276268	9.131544	-0.008676	0.011925	-0.015824	-0.446045	-0.006104	-0.657227
438.0	4.525106	1.270661	9.150526	-0.007056	0.006353	-0.014615	-0.446045	-0.006104	-0.661865
439.0	4.539154	1.276191	9.132521	-0.008955	0.009501	-0.015383	-0.443604	-0.008301	-0.657227
440.0	4.53663	1.273157	9.098696	-0.007228	0.009745	-0.016193	-0.447998	-0.010498	-0.661865
441.0	4.536925	1.276248	9.133621	-0.007675	0.010716	-0.01733	-0.445801	-0.010498	-0.655029
442.0	4.520748	1.27075	9.152667	-0.006511	0.011192	-0.015494	-0.450195	-0.010498	-0.661865
443.0	4.547866	1.27879	9.082096	-0.012316	0.01482	-0.015779	-0.447998	-0.008301	-0.657227
444.0	4.532872	1.276146	9.135647	-0.005232	0.012408	-0.01744	-0.450195	-0.008301	-0.661865
445.0	4.540074	1.25099	9.103557	-0.00927	0.017219	-0.011406	-0.443604	-0.010498	-0.659424
446.0	4.541189	1.256815	9.173168	-0.009311	0.016278	-0.018535	-0.452637	-0.003906	-0.664307
447.0	4.538158	1.253798	9.139607	-0.008421	0.014333	-0.016258	-0.447998	-0.010498	-0.661865
448.0	4.542748	1.284456	9.154839	-0.008714	0.016983	-0.014051	-0.446045	-0.003906	-0.659668
449.0	4.534994	1.253493	9.141219	-0.010873	0.012634	-0.016147	-0.445801	-0.008301	-0.657227
450.0	4.518464	1.24774	9.160441	-0.008155	0.016749	-0.016695	-0.445801	-0.008301	-0.664063
451.0	4.56464	1.27038	9.174669	-0.01144	0.012861	-0.0135	-0.447998	-0.008301	-0.655029
452.0	4.518793	1.272191	9.107703	-0.007596	0.016516	-0.019339	-0.446045	-0.006104	-0.657227
453.0	4.530078	1.256176	9.178747	-0.006704	0.014571	-0.017063	-0.448242	-0.006104	-0.661865
454.0	4.558253	1.267561	9.142773	-0.009507	0.019656	-0.020105	-0.446045	-0.006104	-0.657227
455.0	4.524944	1.253428	9.146207	-0.006886	0.017959	-0.018637	-0.443604	-0.008301	-0.661865
456.0	4.569368	1.273475	9.12625	-0.009065	0.01868	-0.018966	-0.441406	-0.008301	-0.657227
457.0	4.521035	1.253582	9.148119	-0.009516	0.019649	-0.020102	-0.449951	-0.012695	-0.657227
458.0	4.508728	1.275753	9.147642	-0.009967	0.020617	-0.021238	-0.449951	-0.014893	-0.654785
459.0	4.533025	1.262425	9.166199	-0.006361	0.022791	-0.019507	-0.446045	-0.006104	-0.655029
460.0	4.530785	1.262513	9.167294	-0.010539	0.020841	-0.018592	-0.445801	-0.010498	-0.655029
461.0	4.502293	1.276032	9.150772	-0.00762	0.016497	-0.019332	-0.441406	-0.008301	-0.652832
462.0	4.500283	1.276358	9.151715	-0.004194	0.022062	-0.019173	-0.452148	-0.014893	-0.657227
463.0	4.533518	1.237878	9.137427	-0.013891	0.021074	-0.020758	-0.446045	-0.001709	-0.661865
464.0	4.505018	1.25157	9.120876	-0.001991	0.016269	-0.020613	-0.445801	-0.008301	-0.657227
465.0	4.525544	1.291431	9.152189	-0.008528	0.018427	-0.021604	-0.443604	-0.010254	-0.661865
466.0	4.502557	1.255087	9.157021	-0.008648	0.017685	-0.017821	-0.443848	-0.003906	-0.657471
467.0	4.547035	1.27524	9.137152	-0.006921	0.017933	-0.018627	-0.443604	-0.010498	-0.659424
468.0	4.492025	1.3024	9.103061	-0.00621	0.019381	-0.017924	-0.443604	-0.012451	-0.664063
469.0	4.526935	1.267039	9.122984	-0.007641	0.016479	-0.019327	-0.450195	-0.008301	-0.657227
470.0	4.516186	1.292254	9.156694	-0.007643	0.016477	-0.019326	-0.443604	-0.008301	-0.652832
471.0	4.52348	1.2674	9.124648	-0.006033	0.015987	-0.01635	-0.443848	-0.006104	-0.661865
472.0	4.511535	1.289501	9.12397	-0.009944	0.016453	-0.015875	-0.447998	-0.008301	-0.652832
473.0	4.488784	1.252917	9.128692	-0.00938	0.016221	-0.018519	-0.445801	-0.008301	-0.659668
474.0	4.504803	1.264412	9.179828	-0.011072	0.010901	-0.019488	-0.446045	-0.006104	-0.659668
475.0	4.491963	1.283662	9.144586	-0.006902	0.012852	-0.020395	-0.447998	-0.010498	-0.657227
476.0	4.5483	1.284837	9.160491	-0.006758	0.014529	-0.017048	-0.445557	-0.012451	-0.661865
477.0	4.482879	1.253089	9.131569	-0.011121	0.015961	-0.017711	-0.447998	-0.010498	-0.664063
478.0	4.528917	1.276184	9.146014	-0.006458	0.011879	-0.019256	-0.443604	-0.012451	-0.655029
479.0	4.506494	1.2398	9.150525	-0.008494	0.014273	-0.016241	-0.445801	-0.008301	-0.661865
480.0	4.515729	1.298516	9.145905	-0.006913	0.012844	-0.020392	-0.441406	-0.008301	-0.657227
481.0	4.508405	1.267962	9.132028	-0.00703	0.012104	-0.016611	-0.445801	-0.010498	-0.664063
482.0	4.496783	1.290238	9.131145	-0.006465	0.011873	-0.019254	-0.441406	-0.010254	-0.657227
483.0	4.522104	1.276707	9.149311	-0.012935	0.009892	-0.014902	-0.445801	-0.010498	-0.661865
484.0	4.514985	1.245744	9.135391	-0.008199	0.011617	-0.018449	-0.445801	-0.008301	-0.664063
485.0	4.519705	1.276653	9.150504	-0.006731	0.009451	-0.018819	-0.443848	-0.006104	-0.659668
486.0	4.508241	1.298884	9.149546	-0.007751	0.010647	-0.017312	-0.441406	-0.008057	-0.661865
487.0	4.501106	1.268113	9.135606	-0.009935	0.011359	-0.017644	-0.443604	-0.012695	-0.652588
488.0	4.532311	1.285443	9.168327	-0.007755	0.010644	-0.01731	-0.443848	-0.006104	-0.661865
489.0	4.520719	1.307691	9.167426	-0.00648	0.011864	-0.019249	-0.441406	-0.010254	-0.657227
490.0	4.513482	1.277027	9.153523	-0.010394	0.012321	-0.018778	-0.441406	-0.010254	-0.657227
491.0	4.527102	1.283115	9.135868	-0.003477	0.013337	-0.02199	-0.443848	-0.006104	-0.659668
492.0	4.515345	1.305585	9.135012	-0.005889	0.012571	-0.014765	-0.445801	-0.008301	-0.659668
493.0	4.525312	1.286349	9.171657	-0.011164	0.015929	-0.017702	-0.445801	-0.010498	-0.661865
494.0	4.496168	1.296601	9.120456	-0.010516	0.011576	-0.014998	-0.445801	-0.010498	-0.655029
495.0	4.470666	1.315317	9.172317	-0.013411	0.010836	-0.016035	-0.443604	-0.010254	-0.661865
496.0	4.440271	1.302958	9.209176	-0.017786	-0.009472	-0.016267	-0.448242	-0.003906	-0.655029
497.0	4.635352	1.323277	9.373438	-0.010911	-0.041991	-0.025952	-0.445801	-0.010498	-0.659424
498.0	4.781399	0.968513	9.085593	0.01768	0.014492	-0.037605	-0.450195	-0.010498	-0.657227
499.0	4.620964	1.426669	9.261053	0.100088	0.007335	-0.047901	-0.443604	-0.012451	-0.661865
500.0	4.616729	1.432473	9.226871	0.04355	0.046026	-0.041185	-0.450195	-0.010498	-0.659424
501.0	4.523117	1.440864	9.057522	0.08983	0.045834	-0.042374	-0.445557	-0.014648	-0.659424
502.0	4.671462	1.501309	9.13606	0.079661	0.057553	-0.038214	-0.447998	-0.010498	-0.655029
503.0	4.720522	1.185912	9.147564	0.072922	0.096333	-0.045252	-0.443604	-0.010498	-0.659424
504.0	4.728929	1.213006	9.235843	0.139725	0.103235	-0.061318	-0.443359	-0.014648	-0.659424
505.0	4.654562	1.279732	9.237091	0.125571	0.136805	-0.068084	-0.436768	-0.014648	-0.661621
506.0	4.500182	1.309017	9.226889	0.148824	0.132971	-0.077898	-0.438965	-0.016846	-0.657227
507.0	4.607579	1.522329	9.261632	0.164714	0.130045	-0.07852	-0.441162	-0.016846	-0.661621
508.0	4.635186	1.370533	9.280843	0.117121	0.157058	-0.081859	-0.436768	-0.019043	-0.661621
509.0	4.475489	1.304813	9.141361	0.129831	0.162809	-0.07621	-0.436768	-0.016846	-0.664063
510.0	4.398666	1.621896	9.223048	0.109888	0.15103	-0.069467	-0.436768	-0.019043	-0.654785
511.0	4.404312	1.342914	9.221733	0.042801	0.168784	-0.066737	-0.436523	-0.023438	-0.661621
512.0	4.356473	1.248509	9.169313	0.059516	0.15654	-0.066321	-0.438721	-0.02124	-0.661621
513.0	4.347655	1.37472	9.250286	0.050679	0.147755	-0.063661	-0.436279	-0.027832	-0.656982
514.0	4.35788	1.276885	9.179617	0.014677	0.161134	-0.060761	-0.43457	-0.016846	-0.661621
515.0	4.305629	1.313498	9.131289	0.038568	0.14556	-0.068972	-0.432129	-0.02124	-0.659424
516.0	4.249288	1.40715	9.128846	0.030321	0.1433	-0.063884	-0.434326	-0.023438	-0.656982
517.0	4.277959	1.412713	9.203319	0.035302	0.136521	-0.067513	-0.430176	-0.019043	-0.661621
518.0	4.321067	1.41433	9.156649	0.037277	0.139785	-0.072486	-0.429688	-0.027832	-0.65918
519.0	4.202247	1.471731	9.088343	0.038096	0.137822	-0.07017	-0.434326	-0.02124	-0.659424
520.0	4.021598	1.579209	9.014568	0.031785	0.119305	-0.063582	-0.431885	-0.025635	-0.65918
521.0	4.156898	1.610496	9.119292	0.023572	0.098171	-0.055786	-0.425293	-0.029785	-0.65918
522.0	4.189548	1.523365	9.0974	0.011022	0.097345	-0.051488	-0.425293	-0.027832	-0.661377
523.0	4.044887	1.565274	9.062652	0.00764	0.079634	-0.043845	-0.425293	-0.027832	-0.65918
524.0	4.142681	1.524063	9.208482	0.007931	0.064826	-0.038197	-0.429932	-0.025635	-0.656982
525.0	4.293264	1.436658	9.185246	0.005059	0.064054	-0.039271	-0.429932	-0.023438	-0.661621
526.0	4.125822	1.410297	9.138731	0.01607	0.061254	-0.041171	-0.429932	-0.025635	-0.663818
527.0	4.109036	1.512594	9.095788	0.023099	0.039343	-0.03615	-0.429688	-0.027832	-0.661377
528.0	4.084314	1.559198	9.092368	0.012647	0.024012	-0.02702	-0.425537	-0.02124	-0.661621
529.0	4.03627	1.529699	9.00914	0.004484	0.00124	-0.022596	-0.427734	-0.025635	-0.663818
530.0	3.942872	1.565972	9.005001	-0.002294	-0.024352	-0.014731	-0.429932	-0.025635	-0.663818
531.0	3.92492	1.608995	8.999168	-0.018013	-0.054262	0.001211	-0.42749	-0.027832	-0.65918
532.0	4.072785	1.515227	9.023458	-0.022552	-0.078853	0.01279	-0.427734	-0.025635	-0.65918
533.0	4.111998	1.533291	9.087606	-0.044317	-0.092794	0.031386	-0.429688	-0.030029	-0.661377
534.0	4.174921	1.414276	9.06083	-0.061947	-0.105837	0.042048	-0.431885	-0.025635	-0.656982
535.0	4.154516	1.388038	9.02433	-0.065424	-0.116819	0.054774	-0.429932	-0.025635	-0.661621
536.0	4.254963	1.403114	9.104232	-0.080961	-0.124866	0.063808	-0.434326	-0.02124	-0.663818
537.0	4.471579	1.42747	9.286088	-0.095851	-0.131483	0.073562	-0.436523	-0.023438	-0.65918
538.0	4.309983	1.570294	9.251249	-0.152616	-0.102345	0.082961	-0.436768	-0.019043	-0.663818
539.0	4.521597	1.384998	9.3325	-0.151444	-0.118492	0.08713	-0.441162	-0.016846	-0.659424
540.0	4.661895	1.548074	9.433152	-0.153306	-0.083685	0.072096	-0.438965	-0.016846	-0.661621
541.0	4.534362	1.321501	9.349166	-0.167994	-0.048012	0.056496	-0.436768	-0.016846	-0.661621
542.0	4.533301	1.269895	9.265609	-0.094598	-0.042355	0.038401	-0.436768	-0.019043	-0.66626
543.0	4.509524	1.353923	9.2399	-0.08201	-0.017825	0.022287	-0.43457	-0.014648	-0.664063
544.0	4.369234	1.352755	9.154714	-0.058223	-0.005861	0.011533	-0.438965	-0.016846	-0.659424
545.0	4.402838	1.289169	9.229035	-0.020102	-0.015807	0.003646	-0.436768	-0.016846	-0.664063
546.0	4.372801	1.189142	9.203268	-0.012628	-0.003511	-0.006116	-0.440918	-0.019043	-0.66626
547.0	4.281035	1.233162	9.269041	0.042115	-0.029603	-0.016559	-0.441162	-0.014648	-0.657227
548.0	4.310854	1.39594	9.37366	0.054349	-0.050135	-0.017815	-0.438965	-0.014648	-0.659424
549.0	4.512294	1.298288	9.273693	0.045248	-0.045704	-0.024146	-0.443359	-0.016846	-0.66626
550.0	4.357198	1.631216	9.208503	0.086295	-0.053228	-0.027637	-0.445557	-0.014648	-0.670898
551.0	4.403472	1.717708	9.266765	0.036919	-0.048675	-0.01529	-0.440918	-0.02124	-0.663818
552.0	4.544613	1.432801	9.254152	0.015851	-0.038572	-0.014793	-0.441162	-0.016846	-0.668457
553.0	4.516955	1.423356	9.288538	0.017784	-0.030162	-0.018018	-0.440918	-0.02124	-0.663818
554.0	4.461697	1.507961	9.297559	0.023527	-0.029648	-0.023006	-0.441162	-0.014648	-0.661621
555.0	4.49056	1.413387	9.287329	0.000297	-0.024602	-0.020851	-0.438721	-0.019043	-0.661621
556.0	4.424949	1.269958	9.248745	0.002455	-0.013785	-0.024514	-0.440918	-0.019043	-0.663818
557.0	4.431112	1.300281	9.227701	0.026152	-0.026539	-0.030633	-0.438965	-0.014648	-0.661621
558.0	4.447924	1.393304	9.235164	0.018664	-0.02156	-0.026862	-0.443359	-0.016846	-0.661621
559.0	4.433134	1.384076	9.183333	0.019919	-0.020359	-0.028788	-0.441162	-0.016846	-0.661621
560.0	4.38429	1.601426	9.111196	0.013122	-0.013925	-0.024313	-0.44751	-0.019043	-0.661621
561.0	4.276279	1.632566	9.126637	-0.00294	-0.021734	-0.012586	-0.443115	-0.02124	-0.661621
562.0	4.409095	1.558235	9.113126	-0.018314	-0.028092	-0.000152	-0.44751	-0.019043	-0.661621
563.0	4.350258	1.445227	9.123621	-0.033147	-0.023184	0.005629	-0.44751	-0.019043	-0.663818
564.0	4.431529	1.484216	9.169628	-0.028068	-0.034644	0.011062	-0.445313	-0.019043	-0.661621
565.0	4.471872	1.362124	9.161707	-0.040738	-0.025672	0.008081	-0.447754	-0.014648	-0.661621
566.0	4.50555	1.373826	9.159008	-0.022465	-0.029076	0.00783	-0.447754	-0.016846	-0.654785
567.0	4.487429	1.418347	9.188858	-0.025472	-0.025778	0.001427	-0.443115	-0.02124	-0.663818
568.0	4.394902	1.448561	9.152217	-0.024447	-0.020222	0.005039	-0.44751	-0.02124	-0.668457
569.0	4.460919	1.398394	9.189321	-0.026505	-0.030351	0.00493	-0.445068	-0.023438	-0.65918
570.0	4.516316	1.283331	9.162895	-0.02468	-0.029391	0.00037	-0.438721	-0.019043	-0.663818
571.0	4.51291	1.331848	9.140025	-0.000421	-0.028864	0.001778	-0.449951	-0.016846	-0.664063
572.0	4.552211	1.29681	9.15878	-0.010116	-0.019409	-0.011016	-0.445313	-0.02124	-0.663818
573.0	4.454716	1.302237	9.141929	0.008155	-0.023797	-0.018402	-0.440918	-0.02124	-0.663818
574.0	4.446044	1.325975	9.138923	0.014246	-0.024931	-0.018493	-0.445313	-0.019043	-0.66626
575.0	4.417125	1.397286	9.166444	0.021949	-0.033274	-0.020707	-0.447266	-0.023438	-0.656982
576.0	4.450312	1.411763	9.128327	0.015621	-0.034556	-0.020177	-0.445313	-0.02124	-0.661621
577.0	4.390262	1.548483	9.150099	0.018171	-0.042681	-0.012907	-0.447754	-0.016846	-0.661621
578.0	4.472972	1.507953	9.167603	-0.003889	-0.042924	-0.006829	-0.445313	-0.02124	-0.661621
579.0	4.487039	1.398956	9.106089	-0.005029	-0.042437	-0.001558	-0.44751	-0.02124	-0.661621
580.0	4.510637	1.516005	9.092968	-0.005252	-0.05062	0.000888	-0.449707	-0.019043	-0.659424
581.0	4.498602	1.501467	9.040524	-0.037854	-0.048059	0.017274	-0.449707	-0.019043	-0.659424
582.0	4.565141	1.443196	9.007931	-0.039909	-0.038908	0.025374	-0.451904	-0.019043	-0.659424
583.0	4.560596	1.468909	9.108311	-0.04977	-0.03466	0.03638	-0.451904	-0.02124	-0.65918
584.0	4.527458	1.49849	9.122794	-0.087806	-0.023765	0.051598	-0.451904	-0.02124	-0.65918
585.0	4.571351	1.477206	9.088403	-0.103695	-0.023482	0.060958	-0.44751	-0.02124	-0.661621
586.0	4.617	1.379038	9.130434	-0.129858	-0.006734	0.065314	-0.452148	-0.012695	-0.659424
587.0	4.492476	1.465986	9.126258	-0.122751	-0.001391	0.075957	-0.449707	-0.019043	-0.661621
588.0	4.524037	1.462841	9.091644	-0.134247	-0.002798	0.07513	-0.449951	-0.012695	-0.661865
589.0	4.440799	1.360737	9.22392	-0.143782	-0.006358	0.082193	-0.447998	-0.008301	-0.666504
590.0	4.510512	1.238015	9.180137	-0.131036	-0.026504	0.07442	-0.447754	-0.012695	-0.661865
591.0	4.492096	1.345833	9.136133	-0.101503	-0.041868	0.075553	-0.456787	-0.010498	-0.659424
592.0	4.379415	1.471886	9.213805	-0.093537	-0.057738	0.080175	-0.452393	-0.006104	-0.659668
593.0	4.381824	1.266218	9.210421	-0.120335	-0.069948	0.086286	-0.450195	-0.010498	-0.659424
594.0	4.251968	1.188092	9.233614	-0.076756	-0.119698	0.097754	-0.452393	-0.008301	-0.655029
595.0	4.272091	1.029313	9.41259	-0.047653	-0.170481	0.125341	-0.452637	-0.001709	-0.655029
596.0	3.892907	0.779206	9.417154	0.037846	-0.254413	0.169706	-0.450439	-0.006104	-0.661865
597.0	3.823338	1.371849	9.707533	0.109102	-0.428793	0.1483	-0.450439	-0.001709	-0.648193
598.0	4.004708	1.1039	9.548432	0.038353	-0.501425	0.146548	-0.454834	-0.003906	-0.650635
599.0	4.07038	1.080047	9.491173	0.104169	-0.657093	0.145022	-0.461182	-0.006104	-0.648193
600.0	4.022783	1.337756	9.67174	0.112615	-0.788423	0.148883	-0.465332	-0.010498	-0.645752
601.0	4.032341	1.171359	9.619049	0.106787	-0.930015	0.14931	-0.474121	-0.010498	-0.643555
602.0	4.063629	1.313063	9.691093	0.153082	-1.119007	0.149426	-0.480957	-0.006348	-0.636719
603.0	4.227034	1.17998	9.629994	0.149909	-1.296519	0.160768	-0.48291	-0.008545	-0.629883
604.0	4.11735	1.071559	9.480371	0.173262	-1.491832	0.156099	-0.491455	-0.012939	-0.620605
605.0	4.126484	1.338623	9.352885	0.235914	-1.718762	0.155992	-0.497803	-0.017334	-0.618408
606.0	4.092593	1.697937	9.654134	0.207442	-1.93875	0.182882	-0.512939	-0.017578	-0.597656
607.0	3.967002	1.665078	9.671777	0.117245	-2.179164	0.209557	-0.521729	-0.017578	-0.588623
608.0	4.018171	1.692216	9.798061	0.031235	-2.482881	0.229862	-0.530518	-0.017578	-0.583984
609.0	3.901138	2.283588	9.97744	-0.10083	-2.79095	0.278027	-0.545898	-0.015625	-0.568115
610.0	3.98337	2.765827	9.850774	-0.347312	-3.128389	0.370983	-0.559082	-0.011475	-0.550049
611.0	4.216907	2.609447	9.457421	-0.66391	-3.495158	0.5012	-0.568115	-0.00708	-0.53418
612.0	4.116402	2.488116	9.044252	-0.885721	-3.884174	0.62152	-0.581299	-0.005127	-0.513672
613.0	4.452136	2.543131	8.805741	-1.049749	-4.363292	0.779684	-0.594971	0.007813	-0.495605
614.0	4.800471	2.829894	9.003672	-1.284402	-4.793887	0.964858	-0.610596	0.018555	-0.466064
615.0	5.575256	3.041887	9.229431	-1.580516	-5.196097	1.216557	-0.62207	0.029297	-0.445801
616.0	6.764315	3.284687	9.666632	-1.906569	-5.490488	1.486195	-0.637939	0.042236	-0.411865
617.0	8.8643	2.304598	10.474842	-2.173725	-5.801467	1.692983	-0.64917	0.052979	-0.384766
618.0	12.353844	1.947486	10.828055	-1.768687	-6.12324	1.813043	-0.656494	0.070313	-0.346436
619.0	16.424248	1.632435	12.870193	-1.5513	-6.14927	1.915456	-0.65918	0.079102	-0.310059
620.0	14.822466	0.301228	10.336249	-1.126682	-5.975868	2.075762	-0.652832	0.087646	-0.276123
621.0	14.680745	1.659708	11.164903	-0.022829	-6.25286	2.244076	-0.642578	0.098633	-0.239746
622.0	14.612029	4.646507	11.334478	-0.342104	-6.218573	2.566882	-0.629639	0.105225	-0.203369
623.0	17.706238	5.38518	14.185464	-0.704581	-5.824687	2.860631	-0.61499	0.118164	-0.174072
624.0	18.311213	3.97596	13.966874	-1.69244	-5.001223	3.08995	-0.585449	0.137939	-0.147217
625.0	17.596562	-1.242604	19.477189	-1.238743	-3.818415	3.137944	-0.550781	0.142578	-0.131348
626.0	17.45001	2.345426	31.151589	1.43158	-1.748523	2.125678	-0.506836	0.138428	-0.135986
627.0	3.866512	14.016135	23.93549	0.521751	0.396926	1.246953	-0.45874	0.134521	-0.140381
628.0	5.674097	11.333713	19.044405	-0.793656	0.731393	1.179448	-0.406006	0.125977	-0.138184
629.0	-1.200118	9.662235	13.230503	-1.113034	1.647744	0.625913	-0.340088	0.117676	-0.140381
630.0	-2.796056	4.747934	12.546028	-1.236196	1.450109	0.57898	-0.27002	0.107178	-0.131104
631.0	-0.319284	3.062084	12.268188	-0.198121	1.49047	0.352918	-0.197754	0.103271	-0.11499
632.0	1.335039	4.24346	13.358129	0.283508	1.815317	0.187512	-0.125488	0.097168	-0.080811
633.0	1.629072	5.480171	13.048072	0.389737	2.327302	0.05965	-0.051514	0.101807	-0.040039
634.0	1.416282	5.701739	12.013166	0.25105	2.781051	-0.04132	0.013428	0.113037	0.025879
635.0	1.322424	4.645025	10.755824	0.174117	3.13001	-0.161751	0.056396	0.126221	0.107422
636.0	1.303266	3.61061	9.706525	0.314748	3.390947	-0.30926	0.072998	0.143555	0.196045
637.0	1.509528	3.209605	9.090811	0.591604	3.56164	-0.500771	0.056641	0.171631	0.282227
638.0	2.194402	3.195512	8.853428	0.837098	3.72364	-0.678087	0.026611	0.210449	0.365723
639.0	2.828228	2.982518	8.714796	0.973954	3.880179	-0.826485	-0.040527	0.244873	0.422119
640.0	3.439633	2.523755	8.666025	1.118655	3.994096	-0.938754	-0.116211	0.279053	0.453369
641.0	4.156505	2.217813	8.806752	1.275735	4.08976	-1.012061	-0.20874	0.30249	0.462158
642.0	5.031207	2.157414	9.008376	1.400312	4.197428	-1.065104	-0.292725	0.323975	0.452637
643.0	5.777526	1.960703	9.165972	1.493912	4.303914	-1.11279	-0.371826	0.336426	0.420654
644.0	6.602336	1.859307	9.354677	1.587397	4.38038	-1.17351	-0.443848	0.338379	0.375244
645.0	7.198105	1.602513	9.64632	1.640924	4.458156	-1.276347	-0.50293	0.344727	0.320313
646.0	7.82543	1.036928	9.734631	1.761864	4.487673	-1.416871	-0.543701	0.331543	0.256836
647.0	8.363235	1.222841	9.888115	1.911627	4.48216	-1.595781	-0.578125	0.320557	0.191162
648.0	8.590372	2.017755	9.980848	1.918476	4.440865	-1.798832	-0.601563	0.307373	0.129883
649.0	8.538796	2.457513	10.350644	1.737421	4.370895	-2.023068	-0.620117	0.283447	0.071045
650.0	8.747733	1.681722	11.125342	1.562693	4.276322	-2.245596	-0.634521	0.261719	0.012207
651.0	9.302301	0.465824	12.09594	1.578381	4.157856	-2.431326	-0.633301	0.235596	-0.035156
652.0	10.713582	-0.332892	12.837638	1.76343	4.026162	-2.568391	-0.63208	0.209473	-0.08252
653.0	12.178883	0.31485	13.385205	1.969673	3.890336	-2.686698	-0.633301	0.185547	-0.127686
654.0	13.594265	1.243618	13.891348	1.870492	3.789515	-2.777317	-0.629639	0.153076	-0.16333
655.0	14.981263	1.261026	14.174006	1.58533	3.727824	-2.875205	-0.623779	0.118164	-0.206055
656.0	16.770262	0.583693	14.45924	1.344016	3.680073	-2.979565	-0.618164	0.090088	-0.237305
657.0	18.743082	-0.216363	14.620358	1.152267	3.734747	-3.083945	-0.604004	0.066162	-0.268799
658.0	20.710323	-1.06784	14.595264	0.947975	3.877059	-3.14812	-0.585205	0.035889	-0.304688
659.0	21.99198	-2.555571	13.51909	0.740563	4.089864	-3.139719	-0.564453	0.011963	-0.336182
660.0	22.281726	-4.038569	11.696979	0.671199	4.183141	-3.00481	-0.539307	-0.016113	-0.36084
661.0	22.531651	-4.847011	8.82102	0.728343	4.087123	-2.778442	-0.518555	-0.037842	-0.389893
662.0	23.06342	-4.901545	5.527082	0.780037	3.77947	-2.475697	-0.496094	-0.054932	-0.412354
663.0	23.610617	-5.720562	1.919629	0.649746	3.424417	-2.092807	-0.475586	-0.072266	-0.437256
664.0	24.417796	-7.988809	-1.095141	0.629478	2.993276	-1.650047	-0.453369	-0.085205	-0.446045
665.0	25.59865	-11.009279	-4.082289	0.918347	2.43266	-1.27503	-0.4375	-0.095947	-0.457275
666.0	26.09913	-11.759347	-7.526003	1.710264	1.64632	-0.988202	-0.423584	-0.117676	-0.456787
667.0	24.497819	-8.089975	-10.342207	2.258609	0.733508	-0.738625	-0.425049	-0.133057	-0.451904
668.0	22.603968	-2.065662	-10.034893	1.167477	0.095536	-0.262686	-0.420654	-0.133057	-0.451904
669.0	22.589155	-1.286692	-6.284955	-1.563204	-0.342977	0.584004	-0.429932	-0.117676	-0.459229
670.0	23.310052	-7.955288	-2.484854	-3.117592	-0.639344	1.275997	-0.430908	-0.095947	-0.466309
671.0	7.298656	-8.63318	-1.799027	-3.559643	-1.089628	2.061404	-0.436279	-0.076172	-0.468994
672.0	-19.711132	4.188241	18.067154	-0.123	-2.304672	2.289557	-0.460693	-0.065674	-0.446533
673.0	2.966031	2.600649	22.114134	-0.041193	-5.889587	2.444478	-0.480957	-0.050537	-0.433105
674.0	13.267831	4.154954	-1.747897	-2.52026	-3.963519	1.165616	-0.505371	-0.039795	-0.417236
675.0	10.388807	-5.300424	18.794358	-1.072056	-3.39803	0.541615	-0.520752	-0.037842	-0.401367
676.0	14.659133	-1.414347	18.167344	0.676529	-4.079236	0.326159	-0.536133	-0.037842	-0.378662
677.0	12.415798	-5.882666	16.550912	-1.752548	-2.186183	0.935578	-0.543457	-0.020508	-0.374268
678.0	7.177908	-2.383773	9.174691	0.833202	-2.577029	0.649617	-0.555908	-0.033691	-0.351318
679.0	20.550808	22.601698	22.672767	4.107694	-3.954158	0.090496	-0.575195	-0.040527	-0.337402
680.0	10.994711	14.459282	7.244273	-4.636595	0.737495	0.4528	-0.563477	-0.011963	-0.356201
681.0	0.804156	-14.377468	13.969327	-6.208501	1.184778	1.003947	-0.562256	0.01001	-0.352051
682.0	3.55823	-8.159389	-3.224015	2.0907	-1.968974	0.422231	-0.574463	-0.007568	-0.338135
683.0	6.724385	8.887164	19.466685	4.841366	-2.933628	0.234542	-0.585205	-0.012207	-0.331055
684.0	10.032079	6.729974	11.083826	-3.170088	0.443986	0.658784	-0.574951	0.003174	-0.342773
685.0	2.519958	-5.229765	9.344319	-2.411162	0.682176	0.507448	-0.577637	0.01416	-0.331543
686.0	4.762476	-1.919817	7.660302	1.603585	-1.357815	0.202214	-0.581299	-0.001221	-0.324463
687.0	6.812877	4.431444	13.023714	0.571	-0.735756	0.085419	-0.588379	0.009766	-0.32251
688.0	4.953585	0.703765	9.610225	-0.893205	0.1872	0.117567	-0.581543	0.005371	-0.326904
689.0	4.040975	-0.51716	8.700594	0.048809	-0.304923	0.008517	-0.588379	0.009766	-0.324707
690.0	4.872608	2.222801	10.121808	0.401879	-0.413084	-0.043364	-0.590576	0.007568	-0.32251
691.0	4.491747	2.061052	9.321819	-0.065986	-0.178471	-0.021603	-0.592529	0.005371	-0.320068
692.0	4.35939	1.841121	9.116723	0.107807	-0.285217	-0.008658	-0.590088	0.000977	-0.320068
693.0	4.702943	1.973878	9.281907	0.072828	-0.261821	0.002913	-0.592529	0.007324	-0.315674
694.0	4.57967	1.645514	9.099563	0.01151	-0.210834	0.010942	-0.590332	0.003174	-0.317871
695.0	4.481107	1.487458	9.186305	0.027421	-0.227709	0.016219	-0.594727	0.005127	-0.308594
696.0	4.58612	1.456922	9.19251	0.039911	-0.236791	0.014468	-0.592529	0.003174	-0.311035
697.0	4.62027	1.410411	9.200653	0.036651	-0.237304	0.00975	-0.596924	0.007324	-0.308594
698.0	4.684463	1.439685	9.134562	0.059864	-0.239619	-0.000184	-0.594727	0.007324	-0.313232
699.0	4.67662	1.426465	9.124662	0.053707	-0.226322	-0.005624	-0.596924	0.007324	-0.311035
700.0	4.623015	1.382472	9.06636	0.056479	-0.228589	-0.000453	-0.592773	0.009521	-0.313232
701.0	4.713823	1.4034	9.017009	0.082484	-0.228561	0.000235	-0.599365	0.009521	-0.311035
702.0	4.789865	1.417572	8.985636	0.091946	-0.213893	-0.001261	-0.596924	0.005127	-0.301758
703.0	4.841344	1.617886	8.858506	0.103091	-0.191937	0.001582	-0.594727	0.00293	-0.303955
704.0	4.943292	1.652406	8.860895	0.074437	-0.156892	0.003082	-0.596924	0.005127	-0.306396
705.0	5.007923	1.63163	8.783177	0.059	-0.11617	0.000334	-0.601318	0.007324	-0.301758
706.0	5.007749	1.691322	8.861451	0.037933	-0.065583	-7.2e-05	-0.594727	0.005127	-0.301758
707.0	4.956295	1.66024	8.932562	0.009319	-0.01589	0.007994	-0.598877	0.000732	-0.301758
708.0	4.849292	1.50365	8.911736	-0.010123	0.013331	0.001372	-0.605713	0.007324	-0.299561
709.0	4.803701	1.418832	8.971438	-0.000273	0.020637	-0.001661	-0.599121	0.005127	-0.301758
710.0	4.696928	1.322233	8.948192	-0.001159	0.029747	-0.005061	-0.601318	0.005127	-0.304199
711.0	4.767229	1.051594	8.979763	0.004849	0.025832	-0.018285	-0.598877	0.00293	-0.301758
712.0	4.562973	1.038614	8.886043	0.049026	0.013992	-0.033941	-0.601318	0.005127	-0.301758
713.0	4.323425	1.216898	9.040478	0.095285	-0.032878	-0.031838	-0.603516	0.005127	-0.301758
714.0	4.108701	1.720918	8.928575	0.131332	-0.114002	-0.007777	-0.601318	0.007324	-0.301758
715.0	4.173834	1.994315	8.849781	0.112768	-0.177284	0.034556	-0.598877	0.00293	-0.303955
716.0	4.015551	2.380594	8.875188	0.08267	-0.237504	0.095243	-0.601074	-0.001465	-0.294922
717.0	3.931299	2.283693	8.995847	0.023903	-0.305628	0.183684	-0.603516	0.007324	-0.297363
718.0	3.877456	2.170815	9.252452	0.057012	-0.405334	0.275664	-0.603516	0.007324	-0.299561
719.0	3.765094	1.986082	9.548035	0.102192	-0.536334	0.32808	-0.601318	0.007324	-0.292725
720.0	3.777175	1.953686	9.787154	0.076265	-0.762694	0.319048	-0.605713	0.005127	-0.283691
721.0	4.152972	1.056952	9.392914	0.077075	-0.902878	0.303102	-0.616699	0.009277	-0.279053
722.0	4.223981	1.073278	9.679144	0.199244	-1.173137	0.283659	-0.614746	0.013672	-0.272461
723.0	4.329239	0.955701	9.650577	0.227368	-1.366387	0.245435	-0.619141	0.015869	-0.260986
724.0	3.951259	1.022038	9.689232	0.296874	-1.645739	0.19389	-0.625732	0.013672	-0.251709
725.0	3.916004	1.290182	9.604737	0.37638	-1.964324	0.164044	-0.627686	0.013672	-0.240479
726.0	3.733278	2.021741	9.902651	0.421648	-2.334636	0.17823	-0.640869	0.013428	-0.224365
727.0	3.906786	2.374924	9.873221	0.351575	-2.665262	0.216491	-0.643066	0.015625	-0.208496
728.0	3.863579	2.283638	9.740286	0.252517	-3.033821	0.254397	-0.654053	0.013184	-0.194824
729.0	3.523244	2.220044	9.967844	0.164773	-3.483933	0.27833	-0.65625	0.015381	-0.165283
730.0	2.920756	2.224527	10.68057	-0.031668	-4.055729	0.284255	-0.664795	0.010986	-0.140137
731.0	2.477006	2.514463	10.840162	-0.279539	-4.739668	0.269115	-0.671631	0.019531	-0.10376
732.0	2.66445	3.165517	11.223602	-0.59701	-5.506812	0.371747	-0.678467	0.025879	-0.067383
733.0	2.660283	3.731659	11.425495	-0.910226	-6.264971	0.544992	-0.689453	0.027832	-0.026367
734.0	4.181646	2.545083	11.79263	-1.117627	-7.107434	0.744432	-0.689697	0.032227	0.019043
735.0	8.69076	2.112625	12.501515	-0.240908	-8.03197	0.968717	-0.687744	0.036377	0.07373
736.0	17.581728	3.756761	15.619496	0.586309	-8.584941	1.286918	-0.681396	0.044922	0.125977
737.0	17.950036	3.457272	15.138233	0.547623	-8.166837	1.657692	-0.671143	0.058105	0.177979
738.0	14.558852	5.176913	16.059745	1.53185	-8.291451	2.15459	-0.652344	0.075439	0.230225
739.0	13.294684	10.144013	11.004961	1.100595	-8.443367	2.644131	-0.630859	0.086426	0.280029
740.0	20.276625	8.053125	16.893248	0.197431	-8.356303	3.335212	-0.603516	0.106201	0.320557
741.0	23.00683	4.345136	15.314459	-0.616302	-7.176023	3.654575	-0.57373	0.121582	0.359131
742.0	20.672475	2.684617	20.876474	0.130233	-5.927988	3.84166	-0.543701	0.134766	0.376953
743.0	22.611241	4.632921	38.477128	2.294371	-3.166746	3.330544	-0.53418	0.163086	0.387695
744.0	13.643572	15.789632	37.567428	0.73537	0.393009	3.054211	-0.516602	0.165527	0.378662
745.0	11.104772	10.247732	30.379428	-1.184473	2.739008	3.137468	-0.515137	0.176514	0.355713
746.0	-3.393427	8.898955	15.188421	-1.635659	3.755604	2.761296	-0.517334	0.176514	0.342041
747.0	-4.891331	4.6143	12.103169	-0.929373	3.199888	2.783533	-0.512939	0.180908	0.32373
748.0	-2.597443	5.194067	10.989781	-0.116418	3.134492	2.527747	-0.509033	0.189697	0.307617
749.0	-0.883501	6.000161	9.915933	0.299207	3.331648	2.242264	-0.496582	0.200684	0.289063
750.0	0.478022	7.641454	9.471779	0.63905	3.556932	1.89217	-0.500977	0.205078	0.272949
751.0	1.145887	9.284891	8.848152	0.569745	3.900528	1.436735	-0.49707	0.213867	0.256836
752.0	1.676214	9.677666	8.170309	0.253643	4.189422	0.932423	-0.495117	0.216064	0.240967
753.0	2.473682	8.913029	7.840659	-0.037139	4.398829	0.370936	-0.49292	0.218506	0.224854
754.0	3.383368	7.631097	7.560655	-0.086812	4.613556	-0.231517	-0.497314	0.216309	0.204346
755.0	4.082617	6.611873	7.204894	0.058702	4.800614	-0.847908	-0.490723	0.216309	0.183838
756.0	3.896812	6.274252	6.556433	0.155259	4.930407	-1.407489	-0.49707	0.214111	0.167969
757.0	3.407177	5.200723	6.157668	0.182452	4.917608	-1.861376	-0.503662	0.214111	0.135986
758.0	4.056762	4.192496	6.647736	0.325967	4.808454	-2.142359	-0.51001	0.211914	0.11792
759.0	5.504992	3.285404	7.739288	0.460822	4.79317	-2.293106	-0.516602	0.212158	0.08374
760.0	6.780839	2.514176	8.571757	0.604573	4.876456	-2.342186	-0.511963	0.205566	0.042725
761.0	7.946622	2.041598	9.46757	0.776708	5.001813	-2.301566	-0.487549	0.192871	-0.002441
762.0	9.040113	1.820233	10.029053	0.889331	5.128774	-2.211249	-0.442627	0.162598	-0.036133
763.0	9.665713	0.683575	10.540315	0.886717	5.302242	-2.056137	-0.369385	0.136963	-0.033447
764.0	9.560763	0.240963	10.127595	1.243551	5.323731	-1.946712	-0.305176	0.115479	0.012451
765.0	9.586776	0.973319	10.504745	1.472691	5.258007	-1.864022	-0.28125	0.117432	0.083008
766.0	9.617362	0.86698	10.954984	1.610524	5.146797	-1.84484	-0.296631	0.121582	0.135254
767.0	10.034566	1.115655	11.964171	1.833591	4.95106	-1.886692	-0.318848	0.12793	0.162598
768.0	11.625968	1.512422	13.644889	1.986865	4.760312	-2.033634	-0.351563	0.127686	0.17627
769.0	13.731396	0.409671	15.40867	2.000838	4.660972	-2.315457	-0.377686	0.129883	0.174072
770.0	16.854221	-1.235832	16.877916	2.234149	4.592891	-2.726544	-0.397217	0.125244	0.178711
771.0	20.883161	-1.904404	18.165456	2.34503	4.674856	-3.145963	-0.422119	0.144775	0.169189
772.0	25.240564	-1.910614	18.622647	2.067807	4.941777	-3.453496	-0.459717	0.159912	0.14624
773.0	28.878753	-2.731493	17.45802	1.390936	5.360203	-3.551963	-0.508545	0.179199	0.109375
774.0	30.957763	-4.77253	14.322052	0.750781	5.711366	-3.406734	-0.55249	0.181396	0.031982
775.0	31.564983	-7.083064	9.256787	0.545832	5.678975	-3.048953	-0.581299	0.192383	-0.04126
776.0	32.2342	-8.027595	2.678622	0.815668	5.089128	-2.547852	-0.591553	0.177246	-0.127441
777.0	32.391997	-8.492742	-4.101709	1.081098	4.062472	-1.996491	-0.591064	0.168701	-0.209229
778.0	32.378988	-10.446174	-10.76521	1.245661	2.961244	-1.40362	-0.579834	0.157959	-0.266113
779.0	31.521848	-13.177415	-16.100596	1.772812	2.07494	-1.084629	-0.566162	0.149414	-0.300049
780.0	31.129735	-13.150181	-18.322063	2.989685	1.040654	-1.218795	-0.561035	0.127686	-0.329346
781.0	30.768854	-5.420864	-15.035547	3.502765	-0.580355	-1.298287	-0.558105	0.112549	-0.356445
782.0	31.033428	2.079219	-11.961163	0.030818	-1.134788	-0.709088	-0.567139	0.119141	-0.365723
783.0	25.491523	-6.91261	-8.903054	-3.734645	-0.365446	0.835171	-0.572998	0.154053	-0.379883
784.0	-12.661139	-12.760925	10.579664	-3.30833	2.142563	2.24579	-0.575928	0.169189	-0.384766
785.0	-23.454324	11.921636	28.84586	4.112492	-8.110603	2.504555	-0.602539	0.182129	-0.360107
786.0	22.044851	6.136006	13.352312	-4.847996	-5.581916	2.834058	-0.611084	0.223389	-0.349365
787.0	17.541688	-16.188966	2.975108	-4.4361	-1.747529	2.431934	-0.614014	0.240967	-0.352051
788.0	8.667816	-8.022253	19.951348	3.065633	-5.797464	0.64722	-0.632813	0.221191	-0.340332
789.0	20.55961	10.719375	23.254456	1.84858	-3.88872	0.896681	-0.64209	0.234131	-0.33374
790.0	8.586149	0.718513	10.158803	-2.865912	-1.391495	1.183886	-0.642334	0.240723	-0.326904
791.0	8.393809	9.347415	13.285451	2.458768	-3.567139	0.635126	-0.65918	0.227539	-0.319824
792.0	20.241187	24.04965	13.990516	0.090545	-2.410804	-0.002069	-0.660156	0.249268	-0.317871
793.0	4.877124	-2.777021	13.423105	-6.606519	1.387025	1.345025	-0.652832	0.279785	-0.316406
794.0	1.967695	-14.493694	3.414485	-2.899887	-0.615895	0.771905	-0.657227	0.279785	-0.313965
795.0	5.044535	0.000782	6.945868	4.67235	-3.014516	0.626924	-0.66333	0.270996	-0.309326
796.0	12.438342	10.208764	20.82018	0.397946	-1.68185	0.479255	-0.661377	0.275391	-0.309326
797.0	5.680489	-1.982765	9.147091	-3.495236	1.197684	0.688907	-0.662109	0.292969	-0.307373
798.0	2.265946	-4.010604	7.912615	-0.213522	-0.851034	0.307969	-0.659912	0.290771	-0.307373
799.0	6.693836	0.863187	11.428949	1.686187	-1.386961	0.12095	-0.664063	0.288574	-0.300537
800.0	6.958473	2.47999	11.486631	-0.359017	-0.335058	0.044986	-0.661865	0.288574	-0.298096
801.0	4.33331	-0.688194	9.089642	-0.385048	-0.081584	-0.022476	-0.664063	0.286377	-0.300537
802.0	4.912275	1.02069	9.210127	0.647802	-0.606216	-0.107945	-0.668213	0.28418	-0.298096
803.0	5.186174	2.608673	9.814683	0.30189	-0.375125	-0.101449	-0.666016	0.28418	-0.295898
804.0	4.503154	1.734646	8.897188	0.082014	-0.27981	-0.078453	-0.668213	0.281982	-0.286621
805.0	4.349862	1.924519	8.895661	0.291093	-0.397347	-0.046431	-0.663818	0.281982	-0.295898
806.0	4.575496	1.905179	9.198668	0.168945	-0.366538	0.000746	-0.672363	0.279785	-0.293457
807.0	4.452007	1.361578	9.201538	0.141989	-0.343814	0.022644	-0.672363	0.279785	-0.29126
808.0	4.548951	1.066244	9.362689	0.273856	-0.418003	0.029351	-0.670166	0.275391	-0.291016
809.0	4.468617	1.131875	9.463387	0.412483	-0.464674	0.026165	-0.670166	0.275391	-0.281982
810.0	4.775594	1.176324	9.26891	0.497121	-0.510219	0.014129	-0.667725	0.273193	-0.288818
811.0	4.631402	1.979182	9.211547	0.476812	-0.593735	-0.021148	-0.669922	0.270996	-0.28418
812.0	5.112341	1.123119	8.887398	0.295252	-0.49744	-0.061781	-0.667725	0.270996	-0.28418
813.0	5.07488	1.100154	8.863833	0.439882	-0.581159	-0.086335	-0.671875	0.266602	-0.288574
814.0	5.326789	1.645182	8.665824	0.470515	-0.556416	-0.110096	-0.669434	0.262207	-0.2771
815.0	5.351488	1.971256	8.372061	0.382783	-0.468483	-0.107097	-0.673828	0.26001	-0.274902
816.0	5.407285	2.169298	8.242299	0.326055	-0.408302	-0.082757	-0.667236	0.262207	-0.274902
817.0	5.512863	2.192635	8.297212	0.248925	-0.3201	-0.05663	-0.665039	0.26001	-0.274902
818.0	5.446055	2.271266	8.401947	0.182791	-0.230222	-0.028225	-0.673584	0.255615	-0.270264
819.0	5.383027	2.079524	8.461774	0.1118	-0.15566	-0.001186	-0.671387	0.255615	-0.270264
820.0	5.179863	1.936733	8.585982	0.103966	-0.119251	0.030645	-0.669189	0.255615	-0.279297
821.0	5.101233	1.734065	8.862355	0.100336	-0.100784	0.059562	-0.667236	0.26001	-0.270264
822.0	5.130294	1.420479	8.600069	0.097075	-0.096953	0.066765	-0.664551	0.251221	-0.27002
823.0	5.021051	1.607987	8.345723	0.149932	-0.137855	0.076685	-0.666992	0.257813	-0.272461
824.0	4.892487	2.02056	8.299626	0.098367	-0.174204	0.101027	-0.671143	0.251221	-0.27002
825.0	4.935652	2.121816	7.948882	-0.008906	-0.189364	0.131396	-0.671143	0.251221	-0.27002
826.0	4.898452	2.400277	8.061321	-0.076748	-0.232842	0.174899	-0.668945	0.251221	-0.272461
827.0	4.834711	2.38232	8.460964	-0.163122	-0.247005	0.226527	-0.671631	0.26001	-0.272461
828.0	4.711711	2.27812	8.629238	-0.21308	-0.324092	0.279023	-0.669434	0.262207	-0.268066
829.0	4.574722	2.152168	9.111193	-0.223533	-0.438288	0.331503	-0.667236	0.262207	-0.268066
830.0	4.370813	1.997806	9.337267	-0.181235	-0.6077	0.363416	-0.671631	0.264404	-0.263428
831.0	4.341817	1.627866	9.466299	-0.162979	-0.809219	0.379575	-0.665283	0.266602	-0.256836
832.0	4.360213	1.135077	9.485338	-0.099303	-1.047864	0.346986	-0.665283	0.268799	-0.256836
833.0	4.263972	1.054474	9.763887	0.031127	-1.333477	0.277851	-0.669922	0.270752	-0.247803
834.0	4.124299	1.352693	9.897758	0.162948	-1.671059	0.208412	-0.665283	0.264404	-0.236084
835.0	3.976976	1.678719	10.240317	0.185192	-2.023362	0.164015	-0.665283	0.264404	-0.231689
836.0	4.108463	1.407839	9.920863	0.187575	-2.412732	0.097084	-0.666992	0.255615	-0.219971
837.0	3.766613	1.904192	9.871421	0.289119	-2.878672	0.066796	-0.666992	0.257568	-0.201904
838.0	3.475923	2.317654	10.137492	0.213128	-3.366202	0.069912	-0.666992	0.255371	-0.188232
839.0	2.880026	2.530554	10.634487	-0.007559	-3.961289	0.11929	-0.657959	0.250977	-0.169922
840.0	2.331444	3.223384	11.035508	-0.159609	-4.717033	0.187997	-0.65332	0.244629	-0.151611
841.0	2.945172	3.739129	11.375776	-0.448009	-5.532094	0.331005	-0.646484	0.238037	-0.121826
842.0	2.806737	3.821715	11.888816	-0.67226	-6.317714	0.512652	-0.633545	0.242432	-0.094482
843.0	5.622324	2.034016	12.54312	-0.407834	-7.297205	0.694188	-0.613525	0.233643	-0.060059
844.0	12.584607	2.61137	14.656384	0.82051	-8.261594	0.992235	-0.587402	0.231445	-0.02832
845.0	19.037307	3.462825	17.432133	1.026413	-8.21163	1.313939	-0.552734	0.238281	-0.003418
846.0	14.094541	3.661358	16.044544	1.209375	-8.009925	1.909544	-0.511719	0.244873	0.035156
847.0	13.310009	7.816904	15.751499	1.627425	-8.408956	2.263688	-0.455322	0.253906	0.069092
848.0	13.256907	10.13255	10.88231	0.73007	-8.582991	2.770241	-0.405518	0.262939	0.103027
849.0	24.850536	5.996107	18.655374	0.232878	-8.153798	3.259796	-0.340576	0.27417	0.143799
850.0	22.603524	6.409005	16.701662	0.042429	-7.070058	3.685255	-0.271484	0.291992	0.191162
851.0	21.485221	5.936197	26.487431	0.373826	-5.129392	3.720089	-0.213135	0.298828	0.225342
852.0	20.965033	11.453254	48.46645	1.765429	-1.762653	3.119408	-0.171875	0.307617	0.272949
853.0	18.36837	11.695991	31.294687	-2.378846	1.261979	2.955151	-0.143799	0.312012	0.329834
854.0	0.859874	9.939434	29.293007	-1.360168	3.76757	2.389785	-0.152588	0.311768	0.388916
855.0	-7.650799	6.429291	13.524825	-2.171536	3.600913	2.46245	-0.165283	0.302979	0.448486
856.0	-6.990435	4.133828	11.443397	-0.868782	3.016375	2.308908	-0.210693	0.295898	0.494141
857.0	-3.213898	5.182333	11.602058	-0.511926	2.907455	2.206044	-0.25	0.295654	0.530762
858.0	-1.057915	5.471267	11.319351	-0.263121	3.269035	2.014433	-0.308838	0.295166	0.55127
859.0	0.548405	7.168755	10.713166	0.021374	3.630266	1.746118	-0.367432	0.290283	0.553711
860.0	0.320548	8.298488	9.403433	-0.250546	4.109495	1.42816	-0.44165	0.292236	0.540039
861.0	0.55309	8.154441	8.199591	-0.458176	4.356431	1.080069	-0.502441	0.282959	0.529053
862.0	1.320775	7.07785	7.717588	-0.627339	4.548084	0.678595	-0.562988	0.273926	0.495117
863.0	1.947928	5.494399	7.267418	-0.435221	4.689815	0.203273	-0.623779	0.264893	0.451904
864.0	2.796541	4.736526	7.121568	-0.025316	4.814704	-0.328653	-0.67749	0.251709	0.408936
865.0	3.434507	4.992564	6.784495	0.347732	4.885715	-0.830747	-0.720703	0.238525	0.352295
866.0	4.048161	5.432455	6.778653	0.440206	4.929607	-1.216758	-0.758789	0.214355	0.293701
867.0	4.886289	5.092212	7.094852	0.391423	4.964806	-1.452853	-0.781982	0.194824	0.230225
868.0	6.190882	4.10986	7.685113	0.366963	5.039114	-1.593616	-0.800537	0.170654	0.160156
869.0	7.172577	3.299605	8.271307	0.450982	5.14159	-1.688	-0.799805	0.153564	0.089844
870.0	7.987787	2.723959	8.750229	0.621108	5.235226	-1.74236	-0.79248	0.13623	0.030762
871.0	8.785579	2.745186	9.053276	0.811933	5.291909	-1.781614	-0.767578	0.114746	-0.018799
872.0	9.554498	2.336745	9.494839	0.939415	5.320663	-1.79776	-0.749268	0.095215	-0.05957
873.0	10.176542	2.377066	10.049717	1.126916	5.294382	-1.838218	-0.720459	0.089111	-0.100586
874.0	10.692762	2.023365	10.61235	1.2506	5.246991	-1.905405	-0.691895	0.082764	-0.132324
875.0	11.205371	1.62589	11.457683	1.431418	5.155014	-1.988143	-0.681152	0.084961	-0.166504
876.0	12.292613	1.711491	12.528368	1.606767	5.025951	-2.106952	-0.656982	0.080811	-0.193848
877.0	13.978771	1.568965	14.082924	1.677328	4.897662	-2.284494	-0.636963	0.072266	-0.211914
878.0	16.751558	1.187538	15.926926	1.719718	4.813185	-2.551627	-0.621338	0.063721	-0.236816
879.0	19.8912	0.389353	17.356671	1.658365	4.874314	-2.896183	-0.60791	0.055176	-0.250488
880.0	23.108755	-0.03651	18.105782	1.530886	5.020442	-3.222857	-0.592041	0.042236	-0.281982
881.0	25.628361	-0.929806	17.333121	1.155086	5.283465	-3.443252	-0.578369	0.029297	-0.306885
882.0	27.902227	-2.51306	15.946188	0.745287	5.484009	-3.454641	-0.560303	0.01416	-0.331787
883.0	29.040379	-4.961768	12.376811	0.356641	5.589129	-3.142041	-0.55127	0.007813	-0.358887
884.0	28.993192	-7.638675	7.602158	0.350053	5.364952	-2.539655	-0.537842	-0.000732	-0.388428
885.0	29.864064	-9.22194	2.39769	0.641066	4.701911	-1.662668	-0.522217	-0.00708	-0.408691
886.0	30.047236	-10.909821	-3.266372	0.876441	3.824906	-0.769823	-0.513184	-0.011475	-0.429199
887.0	30.292776	-12.344139	-9.332311	1.417181	2.70674	-0.050302	-0.506592	-0.013428	-0.438232
888.0	32.06107	-12.768928	-13.558338	2.324762	1.54222	0.279038	-0.501953	-0.022217	-0.44043
889.0	33.900489	-8.894846	-16.048317	2.78221	0.358773	0.177801	-0.512207	-0.0354	-0.444824
890.0	33.652737	-2.804369	-16.759044	1.456381	-0.055317	0.086488	-0.512451	-0.031006	-0.449463
891.0	29.656523	-1.358453	-14.617016	-0.935633	0.028201	0.371837	-0.515137	-0.02002	-0.449463
892.0	19.833961	-7.311519	-13.616013	-3.88709	-1.598232	1.064228	-0.529541	0.008057	-0.443359
893.0	-11.646824	-0.492194	-10.053268	-0.14175	0.270244	0.584349	-0.540527	0.010254	-0.42041
894.0	-11.215834	-1.248809	60.042205	3.401168	-9.213469	1.68188	-0.583984	0.009766	-0.379395
895.0	29.836378	10.346989	-7.66158	-3.122569	-5.86354	1.379495	-0.596191	0.035889	-0.357178
896.0	10.966677	-13.257613	23.187383	-2.815618	-1.593545	1.233322	-0.612061	0.048828	-0.345947
897.0	16.497108	-9.713212	14.860095	2.068886	-5.311871	0.286887	-0.635742	0.044189	-0.309326
898.0	14.839907	4.523899	19.898762	0.484695	-2.894455	1.034012	-0.640625	0.055176	-0.298096
899.0	8.141175	8.742882	9.32005	0.505725	-2.557576	0.691875	-0.653564	0.052734	-0.282227
900.0	20.912258	25.672223	20.543328	0.793015	-2.893555	0.411978	-0.6604	0.061523	-0.266357
901.0	7.911105	-0.127931	9.668385	-6.390092	0.81232	1.249166	-0.651123	0.094238	-0.271729
902.0	2.89075	-18.992551	8.213194	-3.361975	-0.320856	0.940664	-0.65332	0.096436	-0.262451
903.0	7.790899	-0.172391	5.286929	5.120948	-2.839234	0.409304	-0.665527	0.078857	-0.243896
904.0	10.862576	13.375052	22.25485	-0.452955	-0.670138	0.333005	-0.664307	0.096191	-0.248779
905.0	6.552858	-6.091095	7.441165	-3.912931	1.220567	0.736493	-0.6604	0.109375	-0.244629
906.0	-0.277201	-2.630583	6.025517	0.769174	-0.5534	0.221492	-0.666504	0.100586	-0.246582
907.0	6.395154	2.031165	13.542995	1.214717	-1.185306	0.115229	-0.671143	0.107178	-0.23999
908.0	5.680366	1.652107	9.702764	-0.907202	0.151893	0.138321	-0.666992	0.107178	-0.23999
909.0	3.032186	-0.902522	8.829872	-0.284771	-0.15986	0.082413	-0.671387	0.111572	-0.242188
910.0	5.064209	0.789545	10.071164	0.34934	-0.470138	0.007938	-0.668945	0.107178	-0.233154
911.0	4.404076	1.021141	9.657599	-0.114999	-0.220248	-0.007364	-0.668945	0.107178	-0.235352
912.0	4.466109	1.316249	9.262893	0.176788	-0.35516	-0.019194	-0.668945	0.10498	-0.235352
913.0	4.832597	1.605757	9.507159	-0.005558	-0.26578	0.002378	-0.669189	0.109375	-0.230957
914.0	4.434306	0.980315	9.218325	-0.027925	-0.233563	0.009942	-0.67334	0.107178	-0.228516
915.0	4.561851	0.836665	9.372599	0.038019	-0.269889	-0.003853	-0.669189	0.109375	-0.233154
916.0	4.324499	0.695658	9.439142	0.048367	-0.254554	-0.018526	-0.671387	0.109375	-0.224121
917.0	4.328559	0.574549	9.281001	0.176668	-0.312705	-0.059015	-0.671387	0.109375	-0.224121
918.0	4.404438	0.872441	9.416333	0.275322	-0.366423	-0.064924	-0.677734	0.104736	-0.217041
919.0	4.413827	1.127089	9.357081	0.213745	-0.366985	0.014267	-0.682129	0.106934	-0.228516
920.0	4.207567	1.513751	9.288617	0.185558	-0.400498	0.122017	-0.677979	0.109131	-0.214844
921.0	4.536647	1.089972	9.31401	0.03712	-0.457811	0.114606	-0.677734	0.104736	-0.214844
922.0	4.793484	0.763671	8.755667	0.090037	-0.431502	0.110075	-0.679932	0.109131	-0.214844
923.0	5.158192	0.962559	9.113898	0.09213	-0.431578	0.117496	-0.675537	0.106934	-0.210205
924.0	5.105321	0.882231	8.798272	0.058202	-0.359865	0.126966	-0.679932	0.106934	-0.203369
925.0	5.199369	1.084035	8.786181	0.090554	-0.321668	0.125913	-0.684326	0.106934	-0.205811
926.0	5.054086	1.108889	8.725996	0.052027	-0.251555	0.144064	-0.682373	0.111328	-0.205811
927.0	4.881633	1.223162	8.880826	0.083821	-0.234022	0.169174	-0.68042	0.115723	-0.201416
928.0	4.903649	0.821191	8.888214	0.061781	-0.210019	0.17702	-0.682373	0.113525	-0.203613
929.0	4.955447	0.693282	8.853416	0.119626	-0.220031	0.153037	-0.686768	0.115723	-0.198975
930.0	4.869907	0.923661	8.837516	0.123036	-0.219545	0.126553	-0.688965	0.115723	-0.196777
931.0	4.793589	0.776704	9.066972	0.103966	-0.227302	0.107053	-0.684814	0.11792	-0.199219
932.0	4.477903	0.833974	9.072682	0.161133	-0.277173	0.096286	-0.688965	0.111328	-0.192139
933.0	4.421527	1.344619	9.267594	0.187804	-0.383868	0.106371	-0.687012	0.120117	-0.19458
934.0	4.468198	1.517498	9.182009	0.164451	-0.455547	0.130638	-0.687012	0.11792	-0.192383
935.0	4.424018	1.748363	9.324411	0.177081	-0.575908	0.17793	-0.689209	0.119873	-0.185547
936.0	4.062556	1.653496	9.666401	0.120663	-0.695842	0.24581	-0.687256	0.124268	-0.176514
937.0	3.847719	1.144931	9.84791	0.133612	-0.947887	0.286801	-0.693604	0.12207	-0.171875
938.0	3.780076	0.85367	9.967548	0.195113	-1.246236	0.294332	-0.695801	0.119873	-0.162598
939.0	3.725968	0.349008	10.006581	0.184449	-1.559879	0.252263	-0.696289	0.128662	-0.146973
940.0	3.642777	0.121658	9.895468	0.239622	-1.93279	0.171293	-0.700684	0.130615	-0.144531
941.0	3.535865	0.557218	10.007608	0.324105	-2.352816	0.090292	-0.704834	0.126221	-0.119385
942.0	3.761946	1.419877	10.03607	0.283775	-2.761589	0.05605	-0.709229	0.128418	-0.101318
943.0	3.839304	1.789336	10.143168	0.063185	-3.118222	0.057282	-0.713623	0.128174	-0.083008
944.0	3.510647	1.575251	9.754774	-0.15069	-3.557483	0.062507	-0.720215	0.128174	-0.046631
945.0	2.846823	1.994475	9.99777	-0.211843	-4.14727	0.094187	-0.720215	0.130371	-0.023926
946.0	2.149827	2.964627	10.441077	-0.387118	-4.955426	0.274049	-0.727051	0.134521	0.01709
947.0	2.228152	3.640186	11.129105	-0.664644	-5.857176	0.486205	-0.714355	0.143311	0.057861
948.0	2.454518	3.491546	11.716288	-1.063137	-6.74965	0.678594	-0.71875	0.147461	0.110352
949.0	3.722393	1.737093	13.147103	-1.083646	-7.735568	0.882056	-0.712646	0.158203	0.169434
950.0	9.657548	0.56346	13.857287	-0.240866	-8.727392	1.110631	-0.695313	0.1604	0.230713
951.0	19.031282	2.000382	18.25859	0.754472	-9.367072	1.266144	-0.674316	0.175537	0.294189
952.0	20.288283	1.234817	17.217294	0.705033	-8.85287	1.604753	-0.655273	0.188721	0.351074
953.0	18.090533	6.017867	18.788961	1.457718	-9.096196	1.994307	-0.616699	0.208496	0.398438
954.0	17.755785	11.384069	12.786602	0.282358	-8.959664	2.589107	-0.580566	0.230469	0.454834
955.0	25.772863	7.695538	20.916276	-1.049761	-8.345298	3.42456	-0.537598	0.241455	0.495605
956.0	19.687447	2.033504	20.111967	-2.036599	-7.095312	3.927746	-0.505127	0.248047	0.541016
957.0	23.197061	-7.392612	38.269047	0.209225	-4.916352	3.731647	-0.480469	0.283203	0.556396
958.0	16.836329	-0.213314	45.657342	2.683446	-0.96902	3.713937	-0.470703	0.309326	0.549072
959.0	17.094137	5.562974	33.612509	1.79916	0.965781	4.137277	-0.474609	0.346436	0.532227
960.0	2.634563	13.492469	23.364126	1.349203	3.365243	3.782972	-0.486816	0.374756	0.506592
961.0	-5.601791	10.137219	13.358609	0.47553	3.461573	3.74251	-0.494385	0.396729	0.49707
962.0	-6.416939	9.71927	9.91521	0.553411	3.075804	3.245242	-0.506104	0.414063	0.480957
963.0	-4.090341	8.622922	8.725785	0.518831	2.847079	2.637041	-0.516113	0.442383	0.471191
964.0	-2.090661	9.365689	9.137056	0.805296	2.824103	1.863967	-0.529785	0.459961	0.445801
965.0	0.218167	10.204491	10.019802	0.852617	3.060512	0.952889	-0.55249	0.479492	0.42041
966.0	1.841433	10.619594	10.365304	0.743283	3.520275	-0.038612	-0.578857	0.479248	0.406738
967.0	2.597735	10.508259	10.077177	0.456042	3.981989	-0.958657	-0.609375	0.481445	0.372559
968.0	2.418591	8.652995	9.174157	0.050752	4.369109	-1.718555	-0.643799	0.470215	0.333984
969.0	2.93044	6.167096	8.551207	-0.150748	4.616265	-2.299144	-0.678223	0.461426	0.300049
970.0	3.595551	3.984739	8.259841	-0.143484	4.824242	-2.680704	-0.716553	0.437256	0.255127
971.0	3.948282	2.501307	8.257759	-0.015112	4.947608	-2.885925	-0.743652	0.41333	0.209961
972.0	4.524179	1.378491	8.673493	0.11721	5.07148	-2.869237	-0.775635	0.395752	0.160156
973.0	5.436562	-0.039449	9.671084	0.228727	5.224453	-2.688476	-0.783203	0.367432	0.108398
974.0	7.070871	-1.491015	10.441775	0.478718	5.418077	-2.39844	-0.801514	0.341309	0.052002
975.0	8.183608	-2.778231	10.892232	0.83034	5.694856	-2.035077	-0.807129	0.317383	0.0
976.0	8.494	-3.354465	11.009576	1.284064	5.895886	-1.621695	-0.806396	0.302246	-0.056641
977.0	9.02085	-3.095843	11.119006	1.746172	5.97818	-1.207921	-0.805664	0.282715	-0.111084
978.0	9.661034	-1.877015	11.275048	2.033798	6.007182	-0.867614	-0.796387	0.271973	-0.165527
979.0	10.262569	-0.660996	11.512548	2.197698	5.936242	-0.6765	-0.784668	0.252686	-0.217529
980.0	10.502298	0.359308	11.958603	2.188927	5.864591	-0.666377	-0.772949	0.235352	-0.269775
981.0	11.193843	1.068416	13.017386	2.291335	5.659188	-0.835942	-0.756592	0.21167	-0.319336
982.0	13.537823	2.415617	15.029658	2.357697	5.419835	-1.240367	-0.738037	0.187744	-0.359863
983.0	16.38688	2.172372	16.908016	2.169226	5.318219	-1.890275	-0.717529	0.164063	-0.402832
984.0	19.882076	-0.081137	17.967124	2.179752	5.277261	-2.685692	-0.700439	0.125	-0.436279
985.0	24.323267	-0.504473	18.731961	2.372751	5.317194	-3.462216	-0.676514	0.079346	-0.476318
986.0	29.071617	0.072241	19.088319	1.954783	5.590382	-3.975955	-0.650879	0.040283	-0.514404
987.0	31.632523	-0.893444	17.087616	1.103138	5.989854	-4.113259	-0.612305	0.005615	-0.547852
988.0	33.150192	-5.703371	13.692981	0.272659	6.196387	-3.848256	-0.573486	-0.028809	-0.576904
989.0	33.507438	-12.437673	7.457481	0.474373	6.043161	-3.394674	-0.53125	-0.048096	-0.604004
990.0	33.693279	-13.035101	-0.274631	1.847493	5.144422	-2.919214	-0.496826	-0.084961	-0.623779
991.0	34.823397	-9.846639	-6.731889	2.647131	3.770444	-2.346898	-0.467529	-0.111084	-0.630127
992.0	35.363473	-11.099906	-12.16816	1.76292	2.802493	-1.754266	-0.44458	-0.136963	-0.641113
993.0	36.054241	-15.643553	-18.71692	1.134239	2.049472	-1.4699	-0.439453	-0.152344	-0.638428
994.0	36.018377	-12.188052	-23.0015	2.621615	0.208264	-1.183078	-0.438232	-0.180664	-0.633301
995.0	34.569021	-2.668142	-19.089195	1.714731	-0.79469	-0.507944	-0.437744	-0.187256	-0.626465
996.0	26.198007	-6.593125	-14.35846	-3.893324	-1.329165	1.404851	-0.461426	-0.145996	-0.622559
997.0	-5.709639	-3.568982	-33.576029	-2.118598	-1.152063	1.616218	-0.466064	-0.143799	-0.622803
998.0	-23.543315	1.917672	64.980441	5.222311	-10.47876	4.045916	-0.548096	-0.159668	-0.553955
999.0	42.236732	17.875069	8.351594	-3.212248	-7.289862	2.968541	-0.587402	-0.112061	-0.527344
1000.0	24.164524	-6.899314	4.656677	-4.030024	-0.547748	2.12791	-0.590088	-0.09668	-0.532227
1001.0	4.232096	-7.284072	23.749722	-0.392227	-5.178048	0.101575	-0.625	-0.097168	-0.486572
1002.0	25.117049	0.62376	24.143122	2.316515	-4.320739	0.953507	-0.642578	-0.092773	-0.473145
1003.0	17.598224	7.621435	19.393374	-1.531883	-1.974101	1.278173	-0.654053	-0.082031	-0.466309
1004.0	13.726038	13.320427	7.720292	-0.376384	-1.623743	0.245751	-0.660645	-0.079834	-0.457275
1005.0	2.714213	-0.589263	13.180785	-3.939398	0.006783	1.044231	-0.659912	-0.051514	-0.458008
1006.0	5.489812	-9.724241	4.798736	-1.710113	-0.91468	0.945739	-0.666748	-0.045166	-0.448975
1007.0	6.728069	3.7578	11.716759	3.079813	-2.278578	0.601576	-0.677246	-0.051758	-0.439697
1008.0	9.206778	5.690819	15.47249	-1.473989	-0.605969	0.690511	-0.677734	-0.038574	-0.435303
1009.0	7.347927	-5.662116	9.899769	-1.723735	0.127779	0.515251	-0.68457	-0.034424	-0.437744
1010.0	2.844337	0.54514	9.270713	0.789345	-0.775233	0.294025	-0.68457	-0.032227	-0.435547
1011.0	5.809361	2.246877	11.754591	-0.265125	-0.630836	0.202103	-0.687256	-0.025635	-0.430908
1012.0	5.138774	-0.301461	9.54657	-0.576002	-0.153843	0.13271	-0.689209	-0.027832	-0.430908
1013.0	4.331959	0.110496	9.570308	0.047174	-0.400783	0.043566	-0.685059	-0.023438	-0.424316
1014.0	4.676521	0.773209	10.053606	0.016565	-0.372233	-0.012012	-0.684814	-0.030029	-0.419434
1015.0	4.599228	1.215563	9.43491	0.124554	-0.412192	-0.047748	-0.693604	-0.027832	-0.419678
1016.0	4.768915	1.939503	9.341131	0.079203	-0.361786	0.005245	-0.691162	-0.032227	-0.417236
1017.0	4.626592	1.783498	9.145776	0.079995	-0.367504	0.017733	-0.695557	-0.030029	-0.4104
1018.0	4.740359	1.876864	9.285439	0.017562	-0.339953	0.042979	-0.699951	-0.030029	-0.408203
1019.0	4.588474	1.402389	9.07401	-0.023367	-0.298058	0.056464	-0.702393	-0.027832	-0.412842
1020.0	4.596645	1.19754	9.229205	0.034442	-0.346215	0.077003	-0.704102	-0.034424	-0.401123
1021.0	4.513306	0.832329	9.45098	0.058792	-0.32221	0.105425	-0.704346	-0.030273	-0.405762
1022.0	4.479365	0.703423	9.121623	0.2483	-0.401161	0.127904	-0.704346	-0.030273	-0.403564
1023.0	4.561546	1.418961	9.381258	0.285169	-0.479816	0.114969	-0.710938	-0.028076	-0.39209
1024.0	4.998088	0.93644	9.226292	0.12369	-0.456091	0.064704	-0.710938	-0.028076	-0.394531
1025.0	5.034112	0.736699	8.77112	0.079648	-0.403507	0.016844	-0.706299	-0.034668	-0.389893
1026.0	5.2193	1.012821	8.745905	0.223493	-0.435936	-0.010997	-0.713135	-0.028076	-0.383057
1027.0	5.269663	1.469241	8.688983	0.162555	-0.351916	-0.003661	-0.717529	-0.028076	-0.383057
1028.0	5.366232	1.415403	8.546166	0.16742	-0.300358	0.0107	-0.715332	-0.030273	-0.385254
1029.0	5.488006	1.52961	8.63025	0.137079	-0.209168	0.028948	-0.719727	-0.028076	-0.378418
1030.0	5.459994	1.295297	8.484535	0.062212	-0.086744	0.057599	-0.717529	-0.028076	-0.376221
1031.0	5.3084	1.304188	8.434614	0.096809	-0.020387	0.086934	-0.715332	-0.028076	-0.380859
1032.0	5.209634	1.411146	8.524888	0.015873	0.0734	0.119656	-0.726318	-0.028076	-0.380859
1033.0	4.949441	1.310551	8.452358	0.020075	0.097959	0.135575	-0.717529	-0.030273	-0.383057
1034.0	4.840997	1.312817	8.789322	-0.020533	0.112795	0.135144	-0.717529	-0.030273	-0.383057
1035.0	4.577203	0.959818	8.942976	-0.059957	0.092029	0.115393	-0.715576	-0.023682	-0.376221
1036.0	4.188051	1.056303	9.251519	0.014088	-0.007703	0.102612	-0.719971	-0.023682	-0.376221
1037.0	4.196961	1.353371	9.419871	0.028151	-0.140874	0.109177	-0.715576	-0.025879	-0.376221
1038.0	4.274935	1.312321	9.06381	0.055108	-0.240291	0.124121	-0.721924	-0.028076	-0.383057
1039.0	4.215036	1.632098	9.397351	0.092033	-0.373236	0.152572	-0.721924	-0.025879	-0.374023
1040.0	4.409696	1.594983	9.302472	0.08782	-0.468078	0.190098	-0.724365	-0.023926	-0.371826
1041.0	4.207058	1.43316	9.498297	0.09051	-0.601458	0.221938	-0.724365	-0.021729	-0.360352
1042.0	4.189567	1.185309	9.629075	0.131109	-0.811059	0.226412	-0.733154	-0.021729	-0.362793
1043.0	3.898833	0.842166	9.97956	0.160042	-1.035001	0.197203	-0.733154	-0.021729	-0.355957
1044.0	3.681355	0.494943	9.925777	0.240858	-1.361883	0.14094	-0.741455	-0.02832	-0.342041
1045.0	3.804645	0.43126	9.99154	0.335143	-1.735765	0.070265	-0.748535	-0.019775	-0.328613
1046.0	3.779005	0.735727	9.882774	0.431982	-2.103818	0.007547	-0.761475	-0.019775	-0.307861
1047.0	3.669585	1.392005	10.049036	0.461527	-2.493332	-0.019004	-0.763672	-0.02002	-0.289795
1048.0	3.708585	1.805065	10.02118	0.391943	-2.893422	-0.014931	-0.774414	-0.022217	-0.262451
1049.0	3.766121	1.72519	9.860067	0.247318	-3.308044	-0.009316	-0.778809	-0.024414	-0.234863
1050.0	2.844572	2.195897	10.280829	0.237282	-3.855008	0.000489	-0.798096	-0.029053	-0.209717
1051.0	1.930498	2.785058	10.664855	0.083725	-4.628629	0.066546	-0.807129	-0.024902	-0.166504
1052.0	1.748785	3.636894	11.313028	-0.089929	-5.547547	0.208176	-0.815674	-0.025146	-0.12085
1053.0	2.158433	4.2083	11.513614	-0.38516	-6.482169	0.473438	-0.82251	-0.018799	-0.061768
1054.0	2.309047	3.654807	12.789624	-0.671434	-7.46292	0.712569	-0.829346	-0.016602	-0.000244
1055.0	6.720113	1.966491	13.649822	-0.319463	-8.461494	1.00192	-0.832031	-0.003906	0.07251
1056.0	15.652253	3.458372	16.036665	0.56698	-9.245227	1.353047	-0.81958	0.009277	0.147217
1057.0	21.91863	2.86311	16.610051	0.770607	-9.014007	1.637372	-0.807129	0.024414	0.224609
1058.0	19.167857	5.749635	16.748651	1.119036	-8.697207	2.220576	-0.790527	0.043945	0.290283
1059.0	15.383073	10.636333	11.747183	0.300995	-8.510487	2.641861	-0.760742	0.063477	0.351318
1060.0	19.160062	7.548746	17.864595	-0.465906	-8.358496	3.261603	-0.727051	0.087646	0.416992
1061.0	15.502477	5.885603	15.712891	-1.355383	-7.483315	3.650618	-0.695068	0.105225	0.471191
1062.0	14.680308	4.109566	19.451905	-1.239853	-7.298601	4.054054	-0.656738	0.127197	0.525391
1063.0	22.613763	1.318415	39.430953	0.253879	-4.724716	3.654571	-0.640381	0.148926	0.538574
1064.0	20.755834	-1.892078	39.839828	-0.565345	-0.785542	3.887645	-0.628174	0.173096	0.538086
1065.0	14.172432	7.386922	38.228385	1.541213	2.115803	3.506637	-0.640625	0.203613	0.510254
1066.0	3.90242	9.065983	21.505405	0.15834	4.330386	3.265486	-0.654297	0.218994	0.491699
1067.0	-2.836243	8.760029	13.047791	0.456991	4.604378	2.898508	-0.674805	0.240723	0.463867
1068.0	-5.516401	8.667041	8.913483	-0.100527	4.510777	2.629902	-0.681885	0.249512	0.429688
1069.0	-3.493583	6.295615	7.245795	-0.070873	4.114907	2.257491	-0.691162	0.262451	0.404297
1070.0	-1.748845	7.178447	7.550021	0.41555	4.01102	1.764506	-0.704834	0.277832	0.376709
1071.0	0.18798	7.819869	7.493926	0.460437	4.121456	1.224737	-0.716064	0.280029	0.346924
1072.0	1.352756	8.310998	7.725998	0.482828	4.26759	0.638573	-0.722412	0.280029	0.31958
1073.0	2.409895	8.244548	7.694756	0.321412	4.469909	0.037676	-0.73999	0.280029	0.281006
1074.0	2.777952	7.266299	7.45419	0.198686	4.639512	-0.545441	-0.761475	0.27124	0.249268
1075.0	3.332301	6.426721	7.223043	0.235358	4.725508	-1.103688	-0.769531	0.255859	0.213135
1076.0	4.156159	5.707605	7.266809	0.223216	4.801229	-1.576709	-0.781982	0.24292	0.176758
1077.0	4.544624	4.728514	7.366979	0.209053	4.859418	-1.921416	-0.792236	0.231934	0.138428
1078.0	5.123203	3.419546	7.826101	0.239912	4.889969	-2.121978	-0.800293	0.2146	0.102295
1079.0	6.210291	2.183702	8.831575	0.395085	4.929096	-2.16932	-0.80835	0.197266	0.063965
1080.0	7.70085	1.391998	9.941772	0.641439	5.046887	-2.139584	-0.813965	0.17749	0.018555
1081.0	8.973123	1.049498	10.334052	0.880271	5.224843	-2.056065	-0.817627	0.162354	-0.021973
1082.0	9.779593	1.201045	10.612958	1.024324	5.389118	-1.950071	-0.823242	0.142822	-0.073975
1083.0	10.170409	0.386171	10.835714	1.087079	5.532775	-1.820247	-0.820557	0.129883	-0.121582
1084.0	10.295132	0.462046	10.779878	1.361076	5.553142	-1.780528	-0.808838	0.112549	-0.173828
1085.0	10.545937	0.965875	11.154164	1.519789	5.503405	-1.788317	-0.80127	0.091064	-0.22583
1086.0	10.627073	1.101464	12.034851	1.593463	5.40253	-1.878905	-0.785156	0.069336	-0.270996
1087.0	11.675676	1.121223	13.421976	1.724171	5.233178	-2.029237	-0.770996	0.045654	-0.306885
1088.0	13.807355	1.248343	15.271828	1.801909	5.073721	-2.288211	-0.748047	0.019531	-0.349854
1089.0	16.525703	0.117937	17.119459	1.800068	5.006935	-2.661975	-0.729492	-0.00415	-0.383545
1090.0	20.643297	-1.490826	18.833877	1.900782	5.031903	-3.072995	-0.701416	-0.04541	-0.421387
1091.0	24.925555	-2.385073	19.441856	1.919856	5.28072	-3.40648	-0.674072	-0.071289	-0.450684
1092.0	28.38389	-1.904007	18.872517	1.579362	5.636742	-3.492042	-0.641846	-0.112549	-0.486328
1093.0	30.714933	-3.462143	15.799588	0.915229	6.012144	-3.25261	-0.608643	-0.123047	-0.529541
1094.0	31.210859	-6.64942	11.040236	0.689565	6.099491	-2.716168	-0.563965	-0.148926	-0.561035
1095.0	31.82889	-10.361669	5.402225	1.080454	5.738054	-2.09849	-0.52832	-0.163818	-0.590332
1096.0	32.489747	-12.137835	-1.676264	2.059371	4.915338	-1.503048	-0.494385	-0.191895	-0.598877
1097.0	32.963515	-11.622621	-8.843847	3.049324	3.673597	-1.051582	-0.467285	-0.211426	-0.609863
1098.0	33.516176	-11.389017	-14.519491	3.458563	2.509283	-0.84253	-0.455078	-0.239746	-0.609375
1099.0	34.677488	-9.912968	-18.304049	3.500563	1.304967	-1.030292	-0.445068	-0.270264	-0.608887
1100.0	34.726372	-3.679593	-20.131478	2.563117	0.182009	-1.181	-0.439697	-0.289795	-0.597168
1101.0	30.131571	1.152702	-18.988953	-0.379064	0.038328	-0.71143	-0.442383	-0.279053	-0.606445
1102.0	21.380598	-7.571875	-14.73106	-4.865904	-1.658196	0.880779	-0.463623	-0.244141	-0.609375
1103.0	-8.066279	-2.388237	-24.781499	-1.543889	-0.755353	0.957208	-0.483643	-0.235596	-0.593506
1104.0	-10.615039	-1.001763	67.305735	4.584903	-10.396396	2.908074	-0.552979	-0.244873	-0.538574
1105.0	34.633197	12.958352	0.538629	-4.060823	-5.988694	2.190928	-0.585205	-0.208008	-0.525635
1106.0	12.361247	-9.314606	13.587085	-4.390391	-0.648606	1.801879	-0.597168	-0.181885	-0.526123
1107.0	9.489813	-12.312743	14.004523	0.380323	-5.257691	0.242187	-0.627197	-0.193115	-0.491699
1108.0	19.390358	2.779512	25.25147	2.011849	-4.143485	1.008893	-0.638672	-0.18457	-0.478027
1109.0	15.385189	6.535378	16.446985	-1.295898	-1.967451	1.390805	-0.654053	-0.182373	-0.453125
1110.0	16.332599	17.139418	11.18323	0.153438	-2.151223	0.308147	-0.669434	-0.176025	-0.448486
1111.0	3.758054	1.939855	11.931601	-4.634059	0.283909	1.196278	-0.669189	-0.132324	-0.465332
1112.0	4.8288	-13.579484	6.708899	-3.048189	-0.50039	1.094363	-0.676025	-0.128174	-0.454102
1113.0	7.657274	0.365663	9.339944	3.850059	-2.590668	0.676878	-0.688721	-0.13916	-0.431152
1114.0	10.740256	10.570732	18.125038	-0.852057	-0.664363	0.534149	-0.682861	-0.123779	-0.438232
1115.0	6.093876	-6.150061	9.298017	-3.2627	0.92381	0.689455	-0.687744	-0.108398	-0.449951
1116.0	1.443076	-1.590242	6.3265	0.869252	-0.809301	0.269612	-0.689697	-0.11499	-0.438477
1117.0	6.035357	3.407618	13.843364	0.708852	-0.973373	0.211824	-0.691895	-0.115234	-0.433838
1118.0	5.665434	0.075539	8.968269	-1.034088	0.057883	0.20795	-0.692139	-0.11084	-0.431641
1119.0	3.805965	-0.600799	9.103405	0.014953	-0.317834	0.101197	-0.694336	-0.108643	-0.424805
1120.0	5.126669	1.281501	10.522094	0.205083	-0.410286	0.043466	-0.700928	-0.108643	-0.431641
1121.0	4.60493	0.410618	9.375971	-0.270304	-0.166458	0.028591	-0.696777	-0.102051	-0.427246
1122.0	4.198408	1.091524	9.387635	0.110316	-0.331189	-0.00956	-0.701172	-0.104248	-0.427246
1123.0	4.790937	1.816857	9.265682	0.099945	-0.33784	-0.02089	-0.703125	-0.106445	-0.42041
1124.0	4.529141	1.302308	9.25336	0.024065	-0.254986	0.00675	-0.703125	-0.108643	-0.41333
1125.0	4.692329	1.168915	9.184419	0.079873	-0.288218	0.013509	-0.702881	-0.11084	-0.417969
1126.0	4.530706	1.17324	9.306615	0.026424	-0.244068	0.039971	-0.707275	-0.113037	-0.415527
1127.0	4.64471	1.084854	9.344067	-0.028148	-0.262999	0.057665	-0.709717	-0.106445	-0.413574
1128.0	4.604321	1.02992	9.208186	-0.040291	-0.261596	0.075737	-0.709717	-0.106445	-0.415771
1129.0	4.545196	1.198935	9.359785	-0.023059	-0.26303	0.124383	-0.70752	-0.108643	-0.408936
1130.0	4.418057	0.979714	9.146609	-0.011484	-0.271786	0.190955	-0.711914	-0.104492	-0.408936
1131.0	4.244912	1.467885	9.709524	-0.047589	-0.371212	0.172969	-0.716309	-0.102295	-0.406738
1132.0	4.786512	0.398759	8.830322	-0.081752	-0.340468	0.154365	-0.71875	-0.0979	-0.399902
1133.0	5.109527	0.508995	9.163046	0.009171	-0.399181	0.114373	-0.716553	-0.100098	-0.4021
1134.0	5.147781	0.645844	8.926715	0.004838	-0.324998	0.078636	-0.716553	-0.0979	-0.395264
1135.0	5.299713	0.659218	8.737709	0.01067	-0.275896	0.049248	-0.723145	-0.0979	-0.393066
1136.0	5.278912	0.881173	8.632553	0.03895	-0.206556	0.037979	-0.71875	-0.100098	-0.397705
1137.0	4.835667	1.037005	8.793183	0.02691	-0.143309	0.045333	-0.718994	-0.095703	-0.388672
1138.0	4.696676	1.279991	8.972818	0.060986	-0.14889	0.072679	-0.723145	-0.095703	-0.393066
1139.0	4.678993	1.126215	9.009807	0.03784	-0.166793	0.107825	-0.720947	-0.100098	-0.38623
1140.0	4.746793	0.700067	8.962632	0.050272	-0.178516	0.107668	-0.725342	-0.0979	-0.393066
1141.0	4.743028	0.61566	9.053161	0.085291	-0.205961	0.083811	-0.723145	-0.100098	-0.390869
1142.0	4.670187	0.543597	9.092432	0.100771	-0.243889	0.051932	-0.725342	-0.0979	-0.381592
1143.0	4.628857	0.721356	9.036395	0.147809	-0.304198	0.029156	-0.731934	-0.098145	-0.384033
1144.0	4.661828	0.982059	9.082256	0.181883	-0.359583	0.025976	-0.731689	-0.100342	-0.379395
1145.0	4.710647	1.25922	9.038252	0.194594	-0.406676	0.033225	-0.733887	-0.100342	-0.377197
1146.0	4.625041	1.54675	9.065227	0.209773	-0.460456	0.051282	-0.736328	-0.098145	-0.377197
1147.0	4.592889	1.665713	9.322994	0.17822	-0.537379	0.0908	-0.736084	-0.102539	-0.365723
1148.0	4.214832	1.227977	9.471002	0.130489	-0.657869	0.118751	-0.738281	-0.102539	-0.363281
1149.0	4.004382	1.08244	9.775817	0.193636	-0.880346	0.123465	-0.74292	-0.095947	-0.358887
1150.0	3.868932	0.795279	10.015537	0.173844	-1.153409	0.112112	-0.742676	-0.100342	-0.342773
1151.0	3.830338	0.318129	9.839442	0.204278	-1.477643	0.073691	-0.757813	-0.102783	-0.338379
1152.0	3.562975	0.353154	10.024015	0.274555	-1.842021	0.017408	-0.76001	-0.102783	-0.320068
1153.0	3.576729	0.396971	9.901116	0.324763	-2.253799	-0.047352	-0.768799	-0.098389	-0.299561
1154.0	3.732999	0.931171	9.762053	0.386228	-2.678672	-0.088643	-0.779541	-0.103027	-0.28125
1155.0	3.839935	2.001069	9.765156	0.421603	-3.060526	-0.070359	-0.78833	-0.105225	-0.251465
1156.0	3.580273	2.468617	9.947883	0.164279	-3.45095	-0.018419	-0.796631	-0.109863	-0.226318
1157.0	2.847429	2.934768	10.028698	0.009436	-3.969631	0.074487	-0.807861	-0.105469	-0.192383
1158.0	2.502634	3.627074	10.606292	-0.253723	-4.72169	0.232302	-0.816895	-0.096924	-0.14917
1159.0	2.911637	3.1092	10.446355	-0.609182	-5.459085	0.47799	-0.83252	-0.090576	-0.105957
1160.0	2.609581	3.644596	11.299768	-0.709849	-6.341326	0.684943	-0.84375	-0.082031	-0.051514
1161.0	4.482705	2.024072	12.470139	-0.980773	-7.190508	0.922403	-0.843994	-0.075684	0.01001
1162.0	8.237238	1.342591	13.225884	-0.349721	-8.037037	1.167451	-0.844482	-0.067139	0.078125
1163.0	17.043756	2.579746	17.007375	0.443519	-8.64779	1.396054	-0.836182	-0.054199	0.144043
1164.0	19.455349	2.129578	15.712121	0.436426	-8.380136	1.663345	-0.828369	-0.032471	0.223389
1165.0	17.515154	4.326882	17.708435	1.086276	-8.406116	2.079806	-0.811768	-0.017334	0.286865
1166.0	15.026853	8.959199	11.793837	0.427989	-8.30539	2.470509	-0.790771	0.004395	0.352539
1167.0	21.148673	7.839561	17.96275	-0.20286	-8.207188	3.02072	-0.759033	0.026367	0.413574
1168.0	19.95673	3.426899	15.266505	-1.408031	-7.009476	3.549227	-0.734131	0.050293	0.460938
1169.0	18.782307	-2.152344	24.119208	-0.643476	-5.939043	3.803092	-0.708984	0.07666	0.508301
1170.0	22.586206	-2.58075	44.349344	2.284053	-2.95858	3.512192	-0.699463	0.109375	0.509766
1171.0	17.261818	2.703399	27.70146	0.260127	-0.384898	4.149662	-0.69458	0.144287	0.509277
1172.0	11.979866	9.139928	33.868712	1.877203	2.059184	3.972904	-0.702881	0.181396	0.490234
1173.0	2.053607	7.039383	15.587579	0.04708	3.41367	3.854917	-0.715088	0.209717	0.466797
1174.0	-3.646603	6.766108	10.671974	0.805029	3.341584	3.345886	-0.722656	0.236084	0.445801
1175.0	-4.522821	7.324505	7.195703	0.703171	3.041909	2.915402	-0.728271	0.262207	0.427002
1176.0	-3.491526	7.386895	6.291936	0.813424	2.806555	2.387285	-0.729004	0.281982	0.40625
1177.0	-2.271194	8.221048	6.214677	0.792701	2.701512	1.767497	-0.738525	0.299316	0.383057
1178.0	-1.126721	8.325111	6.725108	0.721688	2.74073	1.059901	-0.752197	0.310303	0.362305
1179.0	-0.08177	7.635853	7.228119	0.635736	2.913394	0.287735	-0.759033	0.316895	0.346436
1180.0	0.476316	7.234295	7.616832	0.686707	3.14632	-0.486919	-0.767578	0.310303	0.325928
1181.0	1.091585	6.371772	7.897948	0.618955	3.403664	-1.160085	-0.789307	0.312256	0.298584
1182.0	2.306214	5.005222	8.360521	0.570055	3.648736	-1.701538	-0.806641	0.305664	0.273682
1183.0	2.836455	3.330768	8.497356	0.577871	3.935815	-2.103578	-0.825684	0.294922	0.239746
1184.0	4.071824	2.208727	8.958333	0.678398	4.172308	-2.323381	-0.838135	0.281738	0.203613
1185.0	5.131987	1.262966	9.613817	0.688627	4.512085	-2.377596	-0.853271	0.275146	0.174072
1186.0	5.976489	0.390473	9.768213	0.744838	4.842296	-2.311272	-0.863281	0.26001	0.133301
1187.0	6.557682	-0.256882	9.970861	0.798011	5.141653	-2.173919	-0.874023	0.253418	0.092529
1188.0	6.672229	-1.49042	9.866973	0.86463	5.367644	-2.01603	-0.884521	0.242432	0.044922
1189.0	7.04881	-2.591764	9.510959	1.168865	5.463997	-1.846971	-0.884766	0.24707	0.006104
1190.0	7.699346	-2.358766	9.768332	1.645377	5.464144	-1.672219	-0.891113	0.242676	-0.037109
1191.0	8.41606	-1.298034	10.114966	1.861518	5.481962	-1.513612	-0.893555	0.251465	-0.076172
1192.0	8.986301	-0.302025	10.642677	1.914186	5.453867	-1.390711	-0.900146	0.253662	-0.11499
1193.0	9.684516	0.146243	11.22227	1.856198	5.414105	-1.375377	-0.90918	0.258301	-0.160645
1194.0	10.085218	0.508403	11.823773	1.898892	5.333297	-1.494329	-0.93335	0.262451	-0.199463
1195.0	11.34534	1.072017	13.245729	1.98581	5.167511	-1.720457	-0.959961	0.273438	-0.25415
1196.0	13.928066	1.833516	15.092235	2.055305	5.022043	-2.112924	-0.990967	0.28418	-0.332031
1197.0	17.464884	1.701633	16.936443	1.900122	5.0008	-2.599744	-1.015137	0.286621	-0.418457
1198.0	21.524495	0.541688	17.924731	1.884805	5.095631	-3.134901	-1.042969	0.273438	-0.530029
1199.0	25.67667	-0.658744	18.149903	1.843773	5.291125	-3.575798	-1.048584	0.251953	-0.641113
1200.0	29.223649	-0.852455	17.285475	1.738128	5.531972	-3.787101	-1.044678	0.215332	-0.772705
1201.0	32.237189	-1.767973	15.897818	1.226035	5.774831	-3.684552	-1.006104	0.180908	-0.908691
1202.0	33.447819	-6.550864	11.683891	0.85062	5.949893	-3.304116	-0.941162	0.142334	-1.021973
1203.0	33.302325	-9.88458	5.7727	1.422848	5.595669	-2.842862	-0.867188	0.094971	-1.130615
1204.0	33.174915	-9.467369	-1.829533	2.057043	4.694163	-2.35846	-0.780029	0.047852	-1.205078
1205.0	33.217979	-8.304275	-9.365295	2.055286	3.471957	-1.817925	-0.706055	0.006836	-1.26123
1206.0	32.79141	-10.336486	-15.926873	1.229979	2.456787	-1.256368	-0.648438	-0.018799	-1.301758
1207.0	33.875916	-14.519447	-20.69373	0.759039	1.51881	-0.924908	-0.614502	-0.04248	-1.328613
1208.0	33.520257	-12.474265	-22.911133	1.649284	0.032571	-0.74743	-0.599854	-0.077393	-1.346191
1209.0	30.892522	-4.659682	-17.382466	1.187188	-0.918356	-0.247037	-0.608398	-0.081543	-1.38501
1210.0	18.660888	-6.849689	-8.313274	-2.67244	-0.73563	0.996091	-0.606445	-0.029053	-1.424805
1211.0	-24.914233	-2.623795	15.730426	0.077988	-0.493569	1.513952	-0.673096	-0.05127	-1.444824
1212.0	-8.661942	11.420913	32.743063	2.157889	-8.545684	2.320374	-0.760498	-0.04541	-1.43335
1213.0	20.849786	7.021025	-7.194593	-5.187108	-5.34987	1.70038	-0.821289	0.045898	-1.444092
1214.0	14.513335	-13.993591	19.239939	-2.081257	-3.055266	1.36005	-0.876221	0.054443	-1.444336
1215.0	15.514728	-2.620569	16.417785	1.862802	-5.655313	0.144568	-0.942871	0.031982	-1.439209
1216.0	15.728797	1.486473	21.217561	-1.430843	-3.146523	1.324572	-0.98584	0.06665	-1.433105
1217.0	21.314011	9.412106	21.933502	0.963182	-3.467534	1.179561	-1.029053	0.059814	-1.426025
1218.0	16.401209	17.147553	5.954401	-1.558824	-1.193287	0.315737	-1.024902	0.110107	-1.433838
1219.0	1.966874	-9.372512	16.914911	-6.161968	0.921539	1.467513	-1.017822	0.19751	-1.435547
1220.0	5.354571	-10.775047	-1.901876	0.15467	-1.757147	0.874804	-1.064209	0.162109	-1.430176
1221.0	8.494467	9.180206	19.292024	4.702687	-2.799513	0.591163	-1.086914	0.133789	-1.422852
1222.0	11.754084	4.427641	14.553321	-3.985608	0.409576	0.888061	-1.072998	0.210205	-1.426514
1223.0	1.182613	-6.930086	6.392317	-2.113441	0.819747	0.482756	-1.075439	0.218994	-1.428955
1224.0	4.623843	-1.820913	9.257559	2.16297	-1.853286	0.248073	-1.102539	0.188232	-1.421631
1225.0	7.922301	5.201196	13.118558	0.16771	-0.52879	0.111213	-1.094238	0.199219	-1.419434
1226.0	4.650361	-0.590728	8.756471	-1.282076	0.368034	0.205139	-1.094971	0.216553	-1.41748
1227.0	3.880018	-0.435677	8.790232	0.240544	-0.439793	0.082507	-1.10791	0.209961	-1.412842
1228.0	5.649545	1.948339	10.324211	0.186236	-0.361987	0.047243	-1.105713	0.209961	-1.41748
1229.0	4.365292	0.651672	9.270734	-0.25879	-0.049876	0.03267	-1.105713	0.212158	-1.415283
1230.0	4.485688	1.677054	9.200845	0.128316	-0.303873	0.026863	-1.10791	0.212158	-1.412842
1231.0	4.689724	2.058802	9.238676	-0.153858	-0.172676	0.074867	-1.110107	0.212158	-1.408447
1232.0	4.366883	1.563967	8.987619	-0.142541	-0.180557	0.106872	-1.119141	0.216309	-1.403809
1233.0	4.838401	1.613835	9.274674	-0.196653	-0.173537	0.123316	-1.121582	0.2229	-1.40625
1234.0	4.65003	1.06563	9.148271	-0.213757	-0.119859	0.130132	-1.119385	0.225098	-1.399414
1235.0	4.688498	0.968747	9.332941	-0.166107	-0.143721	0.115663	-1.119629	0.227295	-1.40625
1236.0	4.723895	0.78167	9.271795	-0.144565	-0.141539	0.105602	-1.119629	0.231689	-1.397217
1237.0	4.652262	0.792752	9.281675	-0.091103	-0.149391	0.095288	-1.11792	0.240479	-1.4021
1238.0	4.647917	1.011477	9.229406	-0.052084	-0.167444	0.110272	-1.126221	0.231689	-1.399658
1239.0	4.596974	0.857224	9.285253	-0.065285	-0.174726	0.117551	-1.128662	0.238037	-1.395264
1240.0	4.30945	0.345843	9.082288	-0.046507	-0.21201	0.082913	-1.126465	0.23584	-1.39502
1241.0	4.746961	0.623996	9.104963	0.07307	-0.281433	0.048906	-1.133301	0.240234	-1.388428
1242.0	4.813153	0.593045	9.212361	-0.000107	-0.262143	0.029017	-1.137451	0.240234	-1.383789
1243.0	4.986579	0.438394	8.937298	0.080755	-0.272507	-0.005851	-1.139648	0.240234	-1.381592
1244.0	5.016505	0.69593	8.948716	0.086358	-0.23984	-0.042928	-1.139404	0.233643	-1.37915
1245.0	4.847668	0.931905	8.92386	0.115971	-0.226196	-0.051782	-1.14624	0.240234	-1.37915
1246.0	4.890002	1.113057	8.968595	0.113278	-0.213505	-0.040113	-1.143799	0.233643	-1.381348
1247.0	4.884036	0.985638	8.918961	0.115981	-0.20002	-0.027037	-1.150391	0.233643	-1.376709
1248.0	5.04793	0.777028	8.782451	0.148606	-0.172645	-0.042645	-1.152344	0.227051	-1.369873
1249.0	5.059609	0.85335	8.843497	0.199189	-0.143253	-0.070838	-1.1521	0.224854	-1.374268
1250.0	4.866302	1.117709	8.926378	0.232501	-0.126469	-0.084304	-1.154297	0.222656	-1.37207
1251.0	4.814118	1.336838	8.990819	0.198717	-0.118543	-0.066611	-1.156006	0.216064	-1.367432
1252.0	4.81083	1.343641	9.034253	0.147131	-0.126283	-0.038249	-1.1604	0.213867	-1.369629
1253.0	4.842039	1.158485	9.023255	0.119622	-0.124379	-0.027176	-1.158203	0.216064	-1.367432
1254.0	4.767225	1.202537	8.791514	0.165175	-0.148478	-0.008491	-1.162598	0.213867	-1.367188
1255.0	4.797397	1.654269	8.959563	0.180418	-0.175292	0.030497	-1.158203	0.21167	-1.36499
1256.0	4.750746	1.403173	8.981632	0.104074	-0.15241	0.064179	-1.162354	0.207275	-1.367188
1257.0	4.408608	1.317049	9.284858	0.143955	-0.229015	0.083406	-1.166992	0.216064	-1.362793
1258.0	4.333164	1.062171	9.442593	0.130506	-0.332665	0.091467	-1.175049	0.202881	-1.355713
1259.0	4.201087	0.757127	9.579691	0.15989	-0.484583	0.075341	-1.17749	0.207031	-1.355713
1260.0	4.285453	0.734899	9.518233	0.243279	-0.67468	0.048262	-1.181641	0.202637	-1.344238
1261.0	4.331136	0.826342	9.570645	0.262921	-0.856964	0.015784	-1.19458	0.200439	-1.332764
1262.0	4.212285	1.066917	9.362232	0.308666	-1.054827	0.004237	-1.20752	0.196045	-1.325928
1263.0	4.211286	1.651621	9.381984	0.331213	-1.274629	0.029592	-1.222656	0.193604	-1.307617
1264.0	4.332906	1.856426	9.283243	0.268973	-1.458049	0.081049	-1.238037	0.193604	-1.293945
1265.0	4.392383	1.784105	9.165834	0.25901	-1.652064	0.121867	-1.255371	0.191162	-1.26416
1266.0	4.218356	1.584845	9.483606	0.199305	-1.871589	0.155475	-1.272705	0.188721	-1.24585
1267.0	4.223525	1.663803	9.502323	0.208227	-2.148423	0.16566	-1.29248	0.192871	-1.220947
1268.0	3.723901	2.133644	10.176544	0.118683	-2.509999	0.196526	-1.320801	0.192627	-1.186768
1269.0	3.732356	2.202992	10.081574	-0.058871	-2.926104	0.230832	-1.342773	0.196777	-1.147949
1270.0	3.485387	1.721008	10.102311	-0.256538	-3.389329	0.224347	-1.373535	0.200928	-1.104736
1271.0	3.307684	1.524373	10.019352	-0.354752	-3.995383	0.211721	-1.406738	0.211426	-1.047852
1272.0	3.678104	1.366976	10.053742	-0.4324	-4.658783	0.238489	-1.448242	0.213135	-0.988525
1273.0	3.687779	2.195347	10.452894	-0.380964	-5.357392	0.307955	-1.490479	0.234619	-0.90918
1274.0	5.073847	2.083502	10.789491	-0.544743	-5.990125	0.428956	-1.523438	0.240723	-0.82959
1275.0	7.043835	1.205393	11.4331	-0.268995	-6.542943	0.541224	-1.559082	0.253418	-0.736328
1276.0	11.856198	0.879154	12.987714	0.394438	-6.952316	0.678857	-1.587158	0.250732	-0.640381
1277.0	15.630185	1.969324	13.239589	0.982443	-6.982175	0.750425	-1.594482	0.265625	-0.53833
1278.0	14.512401	2.402321	12.425708	1.025173	-6.781769	1.121357	-1.601074	0.267578	-0.440186
1279.0	13.62129	4.749622	12.833809	1.069138	-6.743783	1.401215	-1.588867	0.289307	-0.344971
1280.0	12.301766	6.292567	8.700366	0.601024	-6.659095	1.734417	-1.567871	0.306641	-0.258789
1281.0	18.854802	5.165522	13.659736	0.498119	-6.620747	2.037002	-1.527588	0.334961	-0.166016
1282.0	19.021002	2.964304	12.678479	-0.364976	-5.667499	2.636426	-1.483154	0.365723	-0.100586
1283.0	20.097576	-0.617002	23.221113	0.209361	-4.38261	3.001302	-1.414795	0.398682	-0.060303
1284.0	20.841702	1.962688	34.29713	1.747898	-1.826838	2.823939	-1.328857	0.427734	-0.067627
1285.0	5.708164	2.729345	27.274243	-0.198381	1.09938	3.346032	-1.232422	0.463135	-0.079834
1286.0	7.526269	-0.997156	19.802485	0.927156	1.363812	3.768544	-1.133301	0.490234	-0.098877
1287.0	0.151603	6.21126	13.834927	0.867593	2.336741	3.775432	-1.039063	0.527832	-0.111084
1288.0	-2.831383	4.247947	8.740844	0.418825	2.343711	3.971924	-0.944336	0.556885	-0.109375
1289.0	-1.792014	6.400137	7.662297	0.752556	2.035221	3.889374	-0.86084	0.590088	-0.094238
1290.0	-0.858095	7.479658	7.482786	0.087845	2.134056	3.651506	-0.791748	0.60791	-0.06958
1291.0	-0.411319	6.971427	7.417823	-0.176298	2.150886	3.191417	-0.736572	0.640869	-0.045166
1292.0	0.352499	6.786223	7.885781	-0.311715	2.301629	2.523929	-0.702637	0.662842	-0.016113
1293.0	0.584777	6.088226	7.60455	-0.170767	2.533676	1.717685	-0.681885	0.684814	0.003906
1294.0	0.62868	6.689267	7.309796	0.109278	2.716663	0.845526	-0.680176	0.697998	0.021973
1295.0	0.886887	7.085525	7.01953	0.185987	2.896471	0.000393	-0.685059	0.70874	0.023926
1296.0	1.332835	6.796515	6.749757	0.100707	3.050787	-0.749767	-0.702637	0.710938	0.026367
1297.0	1.801473	5.353723	6.697812	0.003098	3.166107	-1.367087	-0.731201	0.717285	0.012451
1298.0	2.890862	3.578425	7.104438	0.053481	3.270313	-1.811802	-0.75708	0.708252	-0.005615
1299.0	3.870055	2.151722	7.587998	0.246903	3.461984	-2.065813	-0.784668	0.695068	-0.025635
1300.0	4.999455	1.718862	8.416557	0.460778	3.65475	-2.155049	-0.810303	0.679688	-0.052734
1301.0	6.343771	1.428144	9.097659	0.523592	3.930858	-2.109861	-0.844482	0.664307	-0.082031
1302.0	7.422945	0.925083	9.507391	0.508665	4.23295	-1.984133	-0.869873	0.648926	-0.129639
1303.0	7.990684	0.090476	9.546171	0.535617	4.512686	-1.827377	-0.910645	0.631348	-0.183838
1304.0	8.400964	-0.722262	9.416522	0.701899	4.709245	-1.685222	-0.935791	0.607422	-0.263184
1305.0	8.7394	-0.513288	9.276316	0.983118	4.815865	-1.575234	-0.936279	0.568359	-0.353516
1306.0	8.770431	0.541348	9.140103	1.10843	4.868747	-1.509529	-0.911377	0.501221	-0.450195
1307.0	8.721883	1.271422	9.196407	1.108236	4.832286	-1.511973	-0.853516	0.42749	-0.519531
1308.0	9.006306	1.685433	9.745635	1.071694	4.732354	-1.62594	-0.780518	0.35376	-0.561523
1309.0	9.537171	2.227494	10.583278	1.092924	4.625457	-1.840649	-0.712158	0.288818	-0.564697
1310.0	10.471672	3.367052	11.811792	1.078545	4.481486	-2.11169	-0.654785	0.228027	-0.559082
1311.0	12.346473	4.365616	13.110596	0.972624	4.357266	-2.471247	-0.600098	0.173828	-0.537598
1312.0	14.851187	5.09465	14.434739	0.774435	4.300492	-2.917309	-0.554932	0.13916	-0.523193
1313.0	17.505215	4.414345	14.957088	0.530486	4.339392	-3.453229	-0.520752	0.108643	-0.497803
1314.0	19.548965	3.089508	14.317078	0.543124	4.353247	-4.020202	-0.489258	0.082764	-0.481201
1315.0	22.603606	3.307122	14.193537	0.657216	4.294721	-4.44996	-0.462402	0.067627	-0.465088
1316.0	26.583938	4.048418	14.195399	0.456222	4.366326	-4.613678	-0.446533	0.054443	-0.44873
1317.0	29.830257	3.0599	13.272293	-0.017742	4.628784	-4.496	-0.437744	0.05249	-0.446533
1318.0	31.23391	-0.196655	11.235332	-0.216033	4.859745	-4.239246	-0.424072	0.043701	-0.453125
1319.0	30.355982	-2.471999	-0.647642	-0.470316	3.23738	-4.298368	-0.424072	0.039551	-0.459961
