Acquisition frequency: 100 Hz
PacketCounter	Acc_X	Acc_Y	Acc_Z	Gyr_X	Gyr_Y	Gyr_Z	Mag_X	Mag_Y	Mag_Z
0.0	5.537564	-0.000403	8.880926	-0.003843	0.012717	-0.018245	-0.616455	0.099365	-0.467773
1.0	5.522268	-0.011263	8.852275	-0.007027	0.014477	-0.017248	-0.616699	0.10376	-0.465576
2.0	5.510206	0.018772	8.867038	-0.004706	0.014953	-0.013983	-0.612305	0.10376	-0.465576
3.0	5.540617	0.017256	8.853391	-0.006401	0.006945	-0.02131	-0.614014	0.097168	-0.465332
4.0	5.512525	-0.026311	8.88398	-0.008193	0.014231	-0.018889	-0.616699	0.10376	-0.465576
5.0	5.529841	0.024724	8.876541	-0.005408	0.012184	-0.014701	-0.614258	0.101563	-0.472412
6.0	5.531042	0.002134	8.884989	-0.006845	0.008527	-0.020202	-0.612061	0.097168	-0.463135
7.0	5.534668	0.041894	8.847906	-0.007267	0.009177	-0.017052	-0.614258	0.101563	-0.467773
8.0	5.53585	0.019076	8.856369	-0.009315	0.012111	-0.016459	-0.612061	0.099365	-0.463135
9.0	5.537009	-0.003849	8.864847	-0.007689	0.009826	-0.013903	-0.612305	0.10376	-0.467773
10.0	5.513247	-0.008519	8.857899	-0.00976	0.013694	-0.015348	-0.609863	0.097168	-0.469971
11.0	5.528473	-0.020099	8.895783	-0.009569	0.007754	-0.018294	-0.616455	0.099365	-0.469971
12.0	5.534126	-0.003608	8.866647	-0.008159	0.012343	-0.014831	-0.614502	0.105957	-0.470215
13.0	5.530888	0.019503	8.859467	-0.00816	0.012342	-0.014833	-0.607666	0.101563	-0.463135
14.0	5.540671	-0.009957	8.846162	-0.0089	0.011446	-0.019625	-0.616455	0.099365	-0.467773
15.0	5.508213	-0.007839	8.861031	-0.008162	0.012337	-0.014837	-0.614258	0.099365	-0.465576
16.0	5.538571	-0.009558	8.847478	-0.008902	0.011442	-0.01963	-0.614258	0.099365	-0.467773
17.0	5.505974	-0.007281	8.862423	-0.007073	0.015378	-0.01932	-0.618652	0.101563	-0.460938
18.0	5.556614	0.01895	8.848814	-0.007052	0.014441	-0.017284	-0.616211	0.097168	-0.469971
19.0	5.526167	-0.001675	8.87161	-0.005025	0.012442	-0.019918	-0.607666	0.099365	-0.467773
20.0	5.525112	-0.001325	8.872267	-0.012811	0.011357	-0.0214	-0.60791	0.10376	-0.463379
21.0	5.515102	0.005506	8.89489	-0.004045	0.017682	-0.0133	-0.612061	0.099365	-0.467773
22.0	5.576601	0.002159	8.867361	-0.007772	0.012603	-0.020047	-0.616455	0.101563	-0.467773
23.0	5.519186	0.022716	8.866755	-0.007773	0.0126	-0.02005	-0.614258	0.099365	-0.467773
24.0	5.528897	-0.006538	8.853529	-0.007061	0.014427	-0.017298	-0.614258	0.099365	-0.469971
25.0	5.539525	0.028158	8.875864	-0.008912	0.011419	-0.019654	-0.614502	0.10376	-0.472412
26.0	5.515764	0.023755	8.868881	-0.007777	0.012593	-0.020058	-0.612061	0.099365	-0.472412
27.0	5.509278	0.005999	8.818395	-0.009096	0.016415	-0.014674	-0.614258	0.101563	-0.463135
28.0	5.524109	-0.005707	8.856518	-0.008603	0.012961	-0.01171	-0.612061	0.097168	-0.463135
29.0	5.523027	-0.005492	8.857193	-0.005012	0.011489	-0.0179	-0.614258	0.101563	-0.463135
30.0	5.542274	0.022853	8.857794	-0.005957	0.016524	-0.019754	-0.612305	0.10376	-0.465576
31.0	5.549725	0.016648	8.836799	-0.009366	0.01299	-0.018555	-0.616699	0.10376	-0.463379
32.0	5.517083	0.018832	8.851691	-0.005488	0.014001	-0.018833	-0.611816	0.094971	-0.465332
33.0	5.518028	-0.003745	8.860308	-0.007073	0.014406	-0.01732	-0.618896	0.10376	-0.470215
34.0	5.537096	0.024401	8.861027	-0.006388	0.017166	-0.016607	-0.612061	0.101563	-0.472412
35.0	5.517636	-0.026044	8.86976	-0.007313	0.010055	-0.019155	-0.612061	0.101563	-0.460938
36.0	5.53689	0.002148	8.870366	-0.006391	0.017161	-0.016612	-0.609619	0.094971	-0.465332
37.0	5.535649	0.002704	8.871141	-0.004595	0.01082	-0.021076	-0.609863	0.101563	-0.467773
38.0	5.534611	0.003294	8.871788	-0.00779	0.012564	-0.02009	-0.614014	0.097168	-0.467773
39.0	5.540004	0.020237	8.842889	-0.005497	0.013984	-0.01885	-0.612061	0.101563	-0.472412
40.0	5.554784	0.009098	8.88104	-0.005949	0.015567	-0.017737	-0.618408	0.097168	-0.465332
41.0	5.528588	0.027804	8.866328	-0.006659	0.013733	-0.020498	-0.614502	0.10376	-0.467773
42.0	5.53848	-0.001176	8.853062	-0.00621	0.012146	-0.021617	-0.609863	0.099365	-0.469971
43.0	5.517247	0.035395	8.889704	-0.006856	0.018727	-0.015514	-0.618652	0.099365	-0.463135
44.0	5.510881	0.017866	8.839218	-0.005028	0.011458	-0.017935	-0.616455	0.101563	-0.467773
45.0	5.525898	0.006424	8.877216	-0.010945	0.012428	-0.015034	-0.614258	0.099365	-0.465576
46.0	5.547429	0.011401	8.885633	-0.006641	0.012791	-0.018467	-0.609863	0.097168	-0.465332
47.0	5.530203	0.023368	8.849014	-0.008228	0.013195	-0.016954	-0.612061	0.099365	-0.463135
48.0	5.551609	0.028366	8.857517	-0.008681	0.014776	-0.015841	-0.614502	0.10376	-0.470215
49.0	5.527731	0.023679	8.850558	-0.009389	0.012942	-0.018604	-0.607666	0.099365	-0.467773
50.0	5.544959	-0.010734	8.896393	-0.007779	0.011604	-0.018077	-0.612305	0.105957	-0.465576
51.0	5.514186	0.05376	8.866068	-0.006871	0.018708	-0.015532	-0.612061	0.099365	-0.467773
52.0	5.537217	-0.028066	8.846803	-0.008259	0.014113	-0.019012	-0.612305	0.10376	-0.467773
53.0	5.551994	-0.039497	8.884949	-0.008688	0.014764	-0.015853	-0.609863	0.101563	-0.465576
54.0	5.525841	-0.021014	8.870176	-0.007833	0.013454	-0.022178	-0.612061	0.099365	-0.465576
55.0	5.578819	-0.017442	8.864604	-0.010555	0.012678	-0.020267	-0.612061	0.099365	-0.465576
56.0	5.566302	-0.05148	8.843504	-0.008516	0.010688	-0.0229	-0.614258	0.099365	-0.465576
57.0	5.57664	-0.016596	8.865977	-0.007134	0.015278	-0.019425	-0.618408	0.097168	-0.469971
58.0	5.542317	-0.206335	8.773944	-0.001375	0.027721	-0.008459	-0.614014	0.097168	-0.463135
59.0	5.506621	0.010931	8.889182	0.034173	0.03575	0.030532	-0.616455	0.099365	-0.467773
60.0	5.331891	0.586397	9.031786	4.1e-05	0.02111	-0.007721	-0.614502	0.10376	-0.467773
61.0	5.475339	-0.032511	8.921469	-0.007716	0.019063	-0.00719	-0.612305	0.105957	-0.467773
62.0	5.525823	-0.006514	8.908295	-0.008617	0.011959	-0.009737	-0.614014	0.097168	-0.463135
63.0	5.51999	-0.02441	8.857573	-0.006599	0.0109	-0.014414	-0.614014	0.097168	-0.465332
64.0	5.564334	-0.014389	8.873709	-0.006144	0.009316	-0.01553	-0.612061	0.097168	-0.465332
65.0	5.529725	0.010556	8.880401	-0.00846	0.008815	-0.018827	-0.612305	0.10376	-0.463379
66.0	5.546567	-0.002062	8.837449	-0.004337	0.013251	-0.015217	-0.612061	0.101563	-0.469971
67.0	5.507415	-0.016442	8.881638	-0.006898	0.009335	-0.022393	-0.614014	0.094971	-0.469971
68.0	5.486133	-0.043751	8.882234	-0.000412	0.012417	-0.011389	-0.612061	0.101563	-0.465576
69.0	5.471921	0.073158	8.924728	-0.002195	0.00755	-0.009659	-0.614014	0.097168	-0.465332
70.0	5.428119	0.190189	8.900194	-0.002677	0.010059	-0.010593	-0.612061	0.099365	-0.460938
71.0	5.445725	0.15545	8.945783	-0.009926	0.00457	-0.007085	-0.612061	0.101563	-0.467773
72.0	5.46794	0.095588	8.91797	-0.014886	0.00051	-0.002327	-0.614014	0.097168	-0.465332
73.0	5.528849	-0.035097	8.899388	-0.011684	-0.001224	-0.003307	-0.616699	0.10376	-0.467773
74.0	5.526642	-0.012887	8.891539	-0.014024	-0.000798	-0.008654	-0.616455	0.101563	-0.463135
75.0	5.555597	0.007941	8.869955	-0.010411	0.007077	-0.00802	-0.60791	0.10376	-0.470215
76.0	5.534841	-0.020535	8.87021	-0.012218	0.003138	-0.008339	-0.609863	0.101563	-0.465576
77.0	5.581488	-0.012159	8.805177	-0.004513	0.007048	-0.01296	-0.614258	0.101563	-0.472412
78.0	5.488781	0.033463	8.891006	-0.009523	0.00484	-0.012301	-0.607666	0.101563	-0.460938
79.0	5.488206	0.033189	8.891362	-0.010439	0.008	-0.010072	-0.612061	0.099365	-0.460938
80.0	5.51916	0.031373	8.877762	-0.008367	0.005089	-0.010653	-0.612061	0.099365	-0.467773
81.0	5.520785	0.008205	8.885964	-0.008177	0.010356	-0.01087	-0.616699	0.10376	-0.463379
82.0	5.556118	-0.039471	8.888073	-0.008877	0.008523	-0.013638	-0.614502	0.10376	-0.465576
83.0	5.562012	-0.022811	8.85898	-0.007288	0.00812	-0.015152	-0.614258	0.099365	-0.467773
84.0	5.527396	0.002116	8.865635	-0.004568	0.008897	-0.017065	-0.609863	0.099365	-0.463135
85.0	5.560337	-0.021998	8.860034	-0.005486	0.012056	-0.014836	-0.609863	0.097168	-0.467773
86.0	5.534342	-0.003393	8.845109	-0.00508	0.012328	-0.020052	-0.612061	0.099365	-0.472412
87.0	5.517773	-0.012889	8.897045	-0.004596	0.009818	-0.01912	-0.612061	0.097168	-0.467773
88.0	5.557325	-0.020064	8.861928	-0.003493	0.011922	-0.02157	-0.614502	0.10376	-0.467773
89.0	5.542569	0.033257	8.868874	-0.00511	0.013247	-0.02211	-0.614258	0.101563	-0.465576
90.0	5.532582	-0.023409	8.855439	-0.005783	0.010484	-0.02283	-0.616211	0.097168	-0.472168
91.0	5.560552	-0.001018	8.834528	-0.000999	0.017687	-0.01849	-0.610107	0.10376	-0.463379
92.0	5.527527	0.001553	8.84937	-0.000107	0.01545	-0.022775	-0.616211	0.097168	-0.465332
93.0	5.523548	0.025613	8.842621	-0.004263	0.021258	-0.021623	-0.614258	0.099365	-0.467773
94.0	5.47887	0.057567	8.871634	0.001716	0.018458	-0.02041	-0.609619	0.094971	-0.463135
95.0	5.511037	0.097921	8.902364	-0.003753	0.017821	-0.018643	-0.607666	0.099365	-0.467773
96.0	5.511916	0.011635	8.875261	-0.003033	0.018727	-0.013825	-0.612061	0.099365	-0.469971
97.0	5.51254	0.053112	8.919874	-0.002138	0.016491	-0.01811	-0.616455	0.101563	-0.467773
98.0	5.497663	0.042348	8.891045	-0.005528	0.01295	-0.016919	-0.614502	0.10376	-0.465576
99.0	5.528028	0.041143	8.877912	-0.006399	0.014257	-0.010587	-0.612061	0.099365	-0.465576
100.0	5.528947	0.018087	8.886576	-0.007351	0.018338	-0.010411	-0.612061	0.099365	-0.467773
101.0	5.518782	0.024374	8.909049	-0.01002	0.007302	-0.013282	-0.609863	0.099365	-0.463135
102.0	5.535958	0.011422	8.866068	-0.010999	0.012307	-0.015159	-0.614258	0.099365	-0.469971
103.0	5.528249	-0.005277	8.896245	-0.00707	0.011493	-0.01131	-0.616699	0.105957	-0.465576
104.0	5.499976	0.035719	8.873436	-0.009355	0.010056	-0.012569	-0.609619	0.094971	-0.463135
105.0	5.499143	0.035513	8.873953	-0.011641	0.008619	-0.01383	-0.609863	0.101563	-0.463135
106.0	5.529966	0.033847	8.860572	-0.011642	0.008617	-0.013831	-0.609863	0.097168	-0.472168
107.0	5.499868	0.011948	8.882731	-0.010977	0.011374	-0.013115	-0.612061	0.097168	-0.474609
108.0	5.548156	0.061318	8.861969	-0.011442	0.01295	-0.012002	-0.612061	0.099365	-0.472412
109.0	5.495606	0.034411	8.876148	-0.009534	0.004788	-0.012357	-0.616211	0.097168	-0.463135
110.0	5.526658	0.032759	8.86264	-0.012774	0.00743	-0.013442	-0.609863	0.099365	-0.45874
111.0	5.530785	-0.013693	8.878528	-0.012775	0.007429	-0.013443	-0.612061	0.097168	-0.463135
112.0	5.550223	0.014015	8.879153	-0.011647	0.008607	-0.013842	-0.607666	0.097168	-0.467773
113.0	5.526913	0.008741	8.871712	-0.011648	0.008606	-0.013843	-0.614502	0.105957	-0.463379
114.0	5.503611	0.003339	8.864263	-0.015553	0.008487	-0.015649	-0.612061	0.099365	-0.467773
115.0	5.512015	-0.003406	8.842911	-0.010002	0.006358	-0.011251	-0.612061	0.101563	-0.474609
116.0	5.508778	0.01931	8.835704	-0.013763	0.012422	-0.01533	-0.607666	0.099365	-0.465576
117.0	5.51461	0.013841	8.895488	-0.007775	0.009641	-0.0141	-0.614014	0.097168	-0.465332
118.0	5.529639	0.024096	8.844682	-0.01116	0.006097	-0.012914	-0.611816	0.094971	-0.465332
119.0	5.542489	0.03513	8.874761	-0.011626	0.007672	-0.0118	-0.614258	0.101563	-0.465576
120.0	5.510134	0.036007	8.889051	-0.013248	0.00899	-0.012344	-0.612061	0.099365	-0.465576
121.0	5.543492	0.011275	8.883361	-0.011162	0.006093	-0.012919	-0.618896	0.10376	-0.467773
122.0	5.529289	-0.000509	8.854128	-0.01256	0.010821	-0.009572	-0.614258	0.099365	-0.469971
123.0	5.51949	0.00537	8.876335	-0.01463	0.005316	-0.017901	-0.614014	0.097168	-0.469971
124.0	5.528005	-0.001417	8.854929	-0.015535	0.007543	-0.013616	-0.611816	0.094971	-0.467773
125.0	5.518266	0.004627	8.877096	-0.007288	0.007132	-0.013171	-0.612061	0.097168	-0.463135
126.0	5.52418	0.021199	8.8481	-0.014438	0.009644	-0.01607	-0.609619	0.094971	-0.467773
127.0	5.49425	-0.000967	8.870069	-0.013944	0.007143	-0.015133	-0.614258	0.099365	-0.465576
128.0	5.522788	0.020413	8.848971	-0.01279	0.007399	-0.013475	-0.616211	0.097168	-0.467773
129.0	5.538018	0.008311	8.886778	-0.015102	0.00688	-0.016799	-0.609863	0.099365	-0.463135
130.0	5.523928	-0.003254	8.857473	-0.01007	0.008185	-0.015384	-0.614258	0.099365	-0.467773
131.0	5.511651	0.026037	8.872002	-0.010071	0.008183	-0.015386	-0.614258	0.101563	-0.463135
132.0	5.542617	0.024807	8.858616	-0.009605	0.006606	-0.016504	-0.612061	0.097168	-0.465332
133.0	5.512737	0.002942	8.880532	-0.012852	0.009236	-0.017596	-0.607666	0.097168	-0.465332
134.0	5.521112	-0.003618	8.859228	-0.012796	0.007387	-0.013486	-0.614014	0.097168	-0.467773
135.0	5.533711	0.007502	8.889461	-0.010572	0.010674	-0.016332	-0.607666	0.101563	-0.465576
136.0	5.528557	-0.010084	8.83851	-0.010105	0.009097	-0.017451	-0.609863	0.099365	-0.465576
137.0	5.566009	-0.01666	8.88447	-0.010603	0.011593	-0.018393	-0.612061	0.099365	-0.465576
138.0	5.526755	-0.009943	8.839637	-0.012418	0.008573	-0.020782	-0.614258	0.099365	-0.465576
139.0	5.53929	0.001512	8.869909	-0.007827	0.010534	-0.016189	-0.609863	0.099365	-0.465576
140.0	5.535855	0.02469	8.862844	-0.012919	0.011065	-0.021728	-0.607666	0.099365	-0.463135
141.0	5.51221	0.019694	8.855566	-0.008797	0.014602	-0.016016	-0.612305	0.10376	-0.465576
142.0	5.517697	0.01437	8.915495	-0.009484	0.012764	-0.0188	-0.609863	0.097168	-0.463135
143.0	5.487332	0.014849	8.849048	-0.009926	0.013414	-0.015627	-0.614258	0.101563	-0.465576
144.0	5.515422	0.014472	8.916902	-0.011768	0.011315	-0.020076	-0.609863	0.097168	-0.467773
145.0	5.519337	-0.009249	8.844271	-0.008303	0.012096	-0.015085	-0.612305	0.10376	-0.465576
146.0	5.531578	0.002225	8.874721	-0.009489	0.012755	-0.01881	-0.614502	0.10376	-0.465576
147.0	5.539588	-0.003917	8.853681	-0.011087	0.013143	-0.017302	-0.612061	0.101563	-0.467773
148.0	5.53839	-0.003767	8.85443	-0.008366	0.013934	-0.019208	-0.601318	0.101563	-0.463379
149.0	5.534675	0.019596	8.847541	-0.010678	0.013407	-0.022543	-0.616455	0.101563	-0.465576
150.0	5.549191	0.00814	8.885778	-0.006531	0.016027	-0.014764	-0.612061	0.101563	-0.463135
151.0	5.531878	0.020212	8.849289	-0.007747	0.017605	-0.020551	-0.612305	0.105957	-0.470215
152.0	5.535467	-0.025447	8.865471	-0.008402	0.014844	-0.021279	-0.614014	0.094971	-0.472168
153.0	5.556601	-0.019722	8.874347	-0.005682	0.015636	-0.023185	-0.612061	0.101563	-0.469971
154.0	5.523666	-0.017986	8.888854	-0.009088	0.013001	-0.024071	-0.614258	0.101563	-0.465576
155.0	5.48057	0.075871	8.872831	-0.008468	0.016676	-0.02541	-0.616455	0.099365	-0.467773
156.0	5.453193	0.157769	8.894271	-0.011131	0.014035	-0.019391	-0.612061	0.101563	-0.469971
157.0	5.481991	0.116014	8.837491	-0.009708	0.015864	-0.009702	-0.610107	0.10376	-0.467773
158.0	5.432963	0.106121	8.903225	-0.008585	0.017047	-0.010096	-0.612061	0.099365	-0.465576
159.0	5.472463	0.075851	8.95714	-0.01465	0.011774	-0.00496	-0.614258	0.101563	-0.465576
160.0	5.506894	-0.012904	8.91529	-0.014798	0.006524	-0.004743	-0.609863	0.099365	-0.465576
161.0	5.527291	-0.049094	8.879773	-0.012788	0.006404	-0.011493	-0.614502	0.105957	-0.470215
162.0	5.515103	-0.020381	8.894164	-0.014594	0.003382	-0.013889	-0.609863	0.099365	-0.465576
163.0	5.523897	-0.02695	8.87268	-0.010037	0.006279	-0.011335	-0.609863	0.101563	-0.465576
164.0	5.530128	-0.010526	8.843595	-0.019687	0.003892	-0.019453	-0.609863	0.097168	-0.467773
165.0	5.532188	-0.03399	8.851511	-0.01007	0.007196	-0.013399	-0.614258	0.099365	-0.469971
166.0	5.507979	0.024331	8.880196	-0.012411	0.007586	-0.018802	-0.609863	0.101563	-0.465576
167.0	5.519129	-0.005	8.866448	-0.012381	0.006663	-0.016743	-0.614502	0.10376	-0.467773
168.0	5.513299	0.040952	8.851685	-0.011733	0.009418	-0.016018	-0.611816	0.094971	-0.467773
169.0	5.468959	0.070989	8.880033	-0.01058	0.009681	-0.014349	-0.612305	0.10376	-0.470215
170.0	5.495764	0.029759	8.903791	-0.011673	0.007573	-0.011899	-0.611816	0.094971	-0.465332
171.0	5.535968	0.022324	8.868831	-0.01055	0.008758	-0.012291	-0.614502	0.10376	-0.463379
172.0	5.471981	0.024056	8.89653	-0.009569	0.004694	-0.012467	-0.609863	0.101563	-0.463135
173.0	5.53751	-0.001337	8.877066	-0.015077	0.004932	-0.012794	-0.612061	0.099365	-0.467773
174.0	5.526561	-0.036206	8.855016	-0.011817	0.00232	-0.011689	-0.605469	0.099365	-0.465576
175.0	5.523691	-0.013429	8.847613	-0.010726	0.004425	-0.014143	-0.614258	0.099365	-0.460938
176.0	5.536386	-0.002304	8.877766	-0.011234	0.006915	-0.015088	-0.616455	0.101563	-0.467773
177.0	5.54246	0.014596	8.848807	-0.009636	0.006529	-0.016598	-0.612061	0.101563	-0.465576
178.0	5.510112	0.015544	8.862867	-0.010113	0.008098	-0.015481	-0.614014	0.094971	-0.465332
179.0	5.51854	0.009398	8.841634	-0.010622	0.010586	-0.016427	-0.609863	0.099365	-0.463135
180.0	5.515029	0.032384	8.834633	-0.008282	0.010197	-0.01102	-0.612061	0.101563	-0.467773
181.0	5.486354	0.050549	8.90043	-0.010592	0.009663	-0.014368	-0.618652	0.099365	-0.465576
182.0	5.499927	-0.001703	8.894371	-0.00553	0.010078	-0.010858	-0.614014	0.097168	-0.465332
183.0	5.528264	0.020312	8.87364	-0.012839	0.007286	-0.013592	-0.612305	0.10376	-0.470215
184.0	5.535337	-0.049202	8.896795	-0.009408	0.009005	-0.010636	-0.612061	0.099365	-0.469971
185.0	5.524159	0.042804	8.867012	-0.011718	0.00847	-0.013985	-0.614502	0.10376	-0.467773
186.0	5.517805	-0.037917	8.860468	-0.009274	0.014248	-0.010853	-0.605713	0.101563	-0.463135
187.0	5.547426	0.024421	8.883798	-0.014163	0.002686	-0.017124	-0.60791	0.10376	-0.465576
188.0	5.511185	0.007609	8.846223	-0.013862	0.012255	-0.015491	-0.611816	0.094971	-0.465332
189.0	5.525967	-0.004446	8.884255	-0.010599	0.00965	-0.014382	-0.616455	0.099365	-0.469971
190.0	5.554194	0.017499	8.863627	-0.0122	0.01003	-0.012876	-0.609863	0.099365	-0.463135
191.0	5.501976	-0.010122	8.877098	-0.009612	0.00559	-0.01456	-0.614258	0.099365	-0.472412
192.0	5.521173	0.018106	8.878058	-0.010124	0.008076	-0.015507	-0.616455	0.101563	-0.463135
193.0	5.519263	-0.022334	8.834415	-0.011279	0.007806	-0.017184	-0.612305	0.10376	-0.465576
194.0	5.544763	0.000209	8.894645	-0.010158	0.008992	-0.017575	-0.614258	0.101563	-0.463135
195.0	5.533548	-0.034003	8.872756	-0.00968	0.007422	-0.018697	-0.612305	0.10376	-0.465576
196.0	5.505114	0.006935	8.850002	-0.010607	0.009637	-0.014395	-0.607666	0.101563	-0.465576
197.0	5.517418	0.018149	8.880392	-0.01247	0.008448	-0.020935	-0.605713	0.10376	-0.463379
198.0	5.516535	0.018169	8.88094	-0.007179	0.01136	-0.011433	-0.607666	0.101563	-0.463135
199.0	5.534261	0.006133	8.838012	-0.010163	0.008982	-0.017586	-0.609863	0.101563	-0.465576
200.0	5.492337	0.012989	8.873897	-0.00949	0.010818	-0.014791	-0.614014	0.094971	-0.460938
201.0	5.511258	0.041256	8.875044	-0.010132	0.00806	-0.015525	-0.612305	0.10376	-0.465576
202.0	5.531872	0.005922	8.839508	-0.012855	0.007249	-0.013631	-0.614258	0.099365	-0.45874
203.0	5.524306	-0.011219	8.869335	-0.008406	0.01292	-0.017249	-0.609863	0.101563	-0.465576
204.0	5.520767	0.012	8.862362	-0.007346	0.007027	-0.013294	-0.612061	0.099365	-0.460938
205.0	5.545017	-0.005515	8.878555	-0.005172	0.01124	-0.018202	-0.616699	0.10376	-0.45874
206.0	5.521691	-0.010559	8.870964	-0.010617	0.009618	-0.014414	-0.612061	0.101563	-0.463135
207.0	5.540537	0.017792	8.87217	-0.007896	0.010427	-0.016311	-0.609863	0.101563	-0.467773
208.0	5.517212	0.012743	8.864574	-0.007897	0.010425	-0.016313	-0.612061	0.101563	-0.465576
209.0	5.528251	-0.016071	8.850957	-0.006778	0.011612	-0.016702	-0.610107	0.10376	-0.465576
210.0	5.498361	-0.038046	8.872547	-0.00809	0.007016	-0.020237	-0.614258	0.099365	-0.463135
211.0	5.536859	0.018829	8.874463	-0.006556	0.014096	-0.010719	-0.612061	0.099365	-0.465576
212.0	5.491834	0.048785	8.90302	-0.008451	0.01382	-0.019335	-0.614258	0.099365	-0.465576
213.0	5.490793	0.049099	8.90366	-0.005112	0.009392	-0.014083	-0.612061	0.101563	-0.467773
214.0	5.524433	0.02545	8.898111	-0.008989	0.008307	-0.013871	-0.612061	0.099365	-0.465576
215.0	5.516047	-0.031988	8.883654	-0.008989	0.008306	-0.013872	-0.612061	0.101563	-0.467773
216.0	5.544387	-0.009653	8.863054	-0.010144	0.008032	-0.015555	-0.605469	0.099365	-0.467773
217.0	5.511928	-0.008876	8.877036	-0.007388	0.007926	-0.015383	-0.612305	0.10376	-0.463379
218.0	5.52447	0.025529	8.819062	-0.007907	0.010408	-0.016332	-0.612061	0.101563	-0.465576
219.0	5.542304	-0.009185	8.864358	-0.008662	0.002411	-0.016854	-0.614258	0.099365	-0.460938
220.0	5.516486	0.008974	8.849115	-0.003397	0.014246	-0.015813	-0.609863	0.101563	-0.467773
221.0	5.540411	-0.00836	8.865542	-0.005637	0.011865	-0.015042	-0.614258	0.101563	-0.45874
222.0	5.539291	-0.008079	8.866242	-0.006122	0.013429	-0.013923	-0.610107	0.10376	-0.467773
223.0	5.531695	-0.001865	8.807872	-0.003885	0.015807	-0.014698	-0.609863	0.097168	-0.467773
224.0	5.511582	0.010568	8.852169	-0.003401	0.014239	-0.015821	-0.614258	0.099365	-0.460938
225.0	5.541982	0.010609	8.839509	-0.001165	0.016616	-0.016596	-0.614258	0.099365	-0.460938
226.0	5.533756	-0.005751	8.8697	-0.001651	0.01818	-0.015478	-0.612061	0.099365	-0.460938
227.0	5.541582	-0.010882	8.848959	-0.001202	0.017528	-0.018671	-0.609863	0.101563	-0.465576
228.0	5.517612	-0.015086	8.841734	0.003825	0.018887	-0.017201	-0.614258	0.101563	-0.465576
229.0	5.525799	0.020442	8.865464	0.001812	0.026976	-0.016864	-0.611816	0.094971	-0.472168
230.0	5.513329	-0.012698	8.844409	0.003934	0.024116	-0.017425	-0.612061	0.099365	-0.467773
231.0	5.521267	0.022962	8.868282	0.004564	0.026867	-0.016696	-0.612305	0.105957	-0.470215
232.0	5.528372	0.018284	8.848015	0.003444	0.025673	-0.016314	-0.612061	0.101563	-0.463135
233.0	5.500464	0.014143	8.922097	0.002989	0.02632	-0.013127	-0.612061	0.099365	-0.460938
234.0	5.517718	0.043421	8.924308	0.00023	0.026417	-0.013309	-0.60791	0.10376	-0.465576
235.0	5.46825	0.056327	8.901524	-0.002568	0.019454	-0.009128	-0.614258	0.101563	-0.465576
236.0	5.513199	0.003738	8.882493	-0.008116	0.020566	-0.01156	-0.607666	0.099365	-0.465576
237.0	5.533933	0.009109	8.891768	-0.004317	0.015507	-0.009477	-0.607666	0.101563	-0.467773
238.0	5.507615	0.026963	8.876755	-0.006098	0.012477	-0.011895	-0.614258	0.099365	-0.465576
239.0	5.49963	0.009833	8.906737	-0.007076	0.015604	-0.00966	-0.611816	0.094971	-0.460938
240.0	5.530131	0.009201	8.894133	-0.007739	0.013763	-0.012466	-0.612061	0.099365	-0.472412
241.0	5.5161	-0.002132	8.864872	-0.007706	0.012848	-0.010395	-0.610107	0.10376	-0.465576
242.0	5.52782	0.009148	8.89557	-0.006101	0.012472	-0.011902	-0.610107	0.10376	-0.463379
243.0	5.517179	0.015241	8.917986	-0.006136	0.013383	-0.013976	-0.612061	0.101563	-0.469971
244.0	5.510039	0.021047	8.859437	-0.011093	0.010188	-0.011313	-0.614258	0.099365	-0.469971
245.0	5.521994	0.032188	8.889987	-0.007882	0.009438	-0.014325	-0.607666	0.101563	-0.467773
246.0	5.496032	0.049768	8.874737	-0.009944	0.010461	-0.00963	-0.605469	0.097168	-0.472168
247.0	5.498456	0.0667	8.927003	-0.01064	0.009533	-0.01451	-0.612061	0.097168	-0.469971
248.0	5.505965	-0.019966	8.817402	-0.011097	0.010182	-0.01132	-0.616455	0.101563	-0.465576
249.0	5.496164	0.025883	8.883853	-0.009457	0.008894	-0.010753	-0.605469	0.099365	-0.467773
250.0	5.507727	-0.003175	8.870076	-0.007361	0.006957	-0.013377	-0.607666	0.099365	-0.465576
251.0	5.506793	-0.003245	8.870656	-0.009357	0.01412	-0.010977	-0.610107	0.105957	-0.463379
252.0	5.537682	-0.003954	8.857868	-0.010119	0.00705	-0.013564	-0.612061	0.097168	-0.467773
253.0	5.514507	-0.009342	8.850079	-0.006111	0.012458	-0.011915	-0.612305	0.10376	-0.465576
254.0	5.516586	0.00792	8.902542	-0.008938	0.014377	-0.01625	-0.607666	0.101563	-0.465576
255.0	5.521621	-0.01495	8.829887	-0.006147	0.013368	-0.013993	-0.614502	0.10376	-0.465576
256.0	5.50857	0.054514	8.889122	-0.006183	0.014278	-0.01607	-0.609863	0.099365	-0.467773
257.0	5.510081	0.03161	8.897378	-0.006607	0.014014	-0.010804	-0.609863	0.101563	-0.465576
258.0	5.493293	0.043547	8.860638	-0.00385	0.013918	-0.01062	-0.612061	0.097168	-0.467773
259.0	5.494854	0.020587	8.868864	-0.008908	0.013455	-0.014186	-0.612061	0.101563	-0.463135
260.0	5.496883	0.037664	8.921329	-0.006575	0.013097	-0.008733	-0.607666	0.101563	-0.465576
261.0	5.495322	-0.002542	8.877767	-0.006118	0.012446	-0.011929	-0.614258	0.101563	-0.465576
262.0	5.516304	0.002807	8.886939	-0.007596	0.01713	-0.008575	-0.614502	0.10376	-0.463379
263.0	5.515083	0.002648	8.887697	-0.0072	0.010342	-0.009471	-0.612305	0.105957	-0.465576
264.0	5.501885	0.031404	8.902449	-0.009466	0.008872	-0.010778	-0.614258	0.099365	-0.463135
265.0	5.53569	0.007673	8.89711	-0.009501	0.009783	-0.012855	-0.612061	0.099365	-0.465576
266.0	5.509646	0.025172	8.881878	-0.007695	0.0119	-0.008356	-0.614258	0.099365	-0.463135
267.0	5.523774	-0.027073	8.875746	-0.011145	0.011062	-0.013431	-0.607422	0.094971	-0.460938
268.0	5.488325	-0.003749	8.882094	-0.010124	0.007027	-0.013593	-0.60791	0.105957	-0.468018
269.0	5.509766	0.001511	8.890994	-0.011181	0.01197	-0.01551	-0.614014	0.097168	-0.469971
270.0	5.508962	0.00131	8.891493	-0.010091	0.006113	-0.011521	-0.611816	0.094971	-0.467773
271.0	5.473595	0.024617	8.89778	-0.009505	0.009774	-0.012864	-0.609863	0.099365	-0.463135
272.0	5.517072	-0.004981	8.870719	-0.011736	0.007391	-0.012097	-0.614258	0.101563	-0.472412
273.0	5.506725	0.000479	8.892878	-0.012266	0.009862	-0.013057	-0.614502	0.10376	-0.463379
274.0	5.496511	0.006037	8.914952	-0.010748	0.004268	-0.014338	-0.616699	0.10376	-0.465576
275.0	5.51508	-0.006051	8.871957	-0.013842	0.009316	-0.00948	-0.614258	0.101563	-0.463135
276.0	5.536517	-0.001172	8.880873	-0.013418	0.009577	-0.014755	-0.614502	0.10376	-0.463379
277.0	5.49123	-0.012394	8.864537	-0.012889	0.007104	-0.013799	-0.609863	0.101563	-0.460938
278.0	5.504313	0.062016	8.851094	-0.010661	0.009485	-0.014568	-0.612061	0.099365	-0.465576
279.0	5.534222	-0.00212	8.882304	-0.012237	0.00894	-0.01099	-0.610107	0.10376	-0.467773
280.0	5.517845	0.009371	8.845337	-0.011158	0.011041	-0.013452	-0.610107	0.105957	-0.465576
281.0	5.497728	0.020778	8.889271	-0.010664	0.00948	-0.014573	-0.614258	0.101563	-0.472412
282.0	5.540973	-0.008651	8.8624	-0.008243	0.01435	-0.009331	-0.614502	0.10376	-0.467773
283.0	5.502455	0.037757	8.861438	-0.010169	0.007918	-0.015696	-0.609863	0.099365	-0.460938
284.0	5.516972	0.025718	8.899557	-0.007061	0.013716	-0.005561	-0.614502	0.10376	-0.465576
285.0	5.490926	0.043023	8.884308	-0.010596	0.007652	-0.010425	-0.612305	0.10376	-0.463379
286.0	5.480296	0.008239	8.86213	-0.011589	0.010769	-0.008188	-0.610107	0.10376	-0.470215
287.0	5.50164	0.013044	8.871123	-0.011555	0.009857	-0.006111	-0.610107	0.105957	-0.467773
288.0	5.503669	-0.010681	8.879036	-0.011059	0.008297	-0.007231	-0.612061	0.097168	-0.460938
289.0	5.493185	-0.005483	8.901247	-0.010442	0.011046	-0.006496	-0.610107	0.10376	-0.463379
290.0	5.511594	-0.017611	8.85841	-0.012209	0.008014	-0.00893	-0.610107	0.10376	-0.463379
291.0	5.526269	-0.030012	8.896421	-0.008798	0.009767	-0.005921	-0.614502	0.10376	-0.467773
292.0	5.51957	0.015655	8.882247	-0.012125	0.013231	-0.009155	-0.616211	0.097168	-0.465332
293.0	5.501958	-0.036554	8.889251	-0.013891	0.010198	-0.01159	-0.614258	0.099365	-0.463135
294.0	5.520524	-0.00844	8.89082	-0.009486	0.008836	-0.010819	-0.612061	0.101563	-0.465576
295.0	5.536192	0.002892	8.840547	-0.010635	0.008553	-0.012517	-0.609863	0.099365	-0.465576
296.0	5.509128	-0.043235	8.869101	-0.011169	0.01102	-0.013478	-0.609863	0.101563	-0.467773
297.0	5.486027	-0.008782	8.905658	-0.009558	0.010653	-0.014981	-0.612061	0.101563	-0.467773
298.0	5.516848	-0.009212	8.893101	-0.011705	0.013484	-0.014442	-0.611816	0.094971	-0.460938
299.0	5.525554	-0.015093	8.872013	-0.010175	0.0079	-0.015723	-0.607666	0.097168	-0.463135
300.0	5.515292	-0.009346	8.894066	-0.011975	0.005777	-0.020241	-0.603271	0.099365	-0.463135
301.0	5.514609	-0.009627	8.894489	-0.016198	0.009617	-0.015003	-0.616699	0.108154	-0.472412
302.0	5.508181	0.036009	8.880165	-0.012868	0.006155	-0.011768	-0.612061	0.101563	-0.460938
303.0	5.497829	0.001229	8.857797	-0.014552	0.008339	-0.014428	-0.614502	0.10376	-0.470215
304.0	5.516483	0.029245	8.859339	-0.013369	0.007709	-0.010651	-0.609863	0.099365	-0.465576
305.0	5.515781	0.028536	8.859779	-0.014982	0.008071	-0.009153	-0.610107	0.10376	-0.465576
306.0	5.511054	-0.012822	8.896688	-0.014334	0.009908	-0.006335	-0.614258	0.099365	-0.463135
307.0	5.519873	-0.019463	8.87554	-0.016632	0.009341	-0.009736	-0.612061	0.099365	-0.467773
308.0	5.516191	0.002767	8.868681	-0.011539	0.008914	-0.004059	-0.616211	0.097168	-0.463135
309.0	5.490242	0.019702	8.853362	-0.013908	0.010169	-0.01162	-0.612305	0.105957	-0.470215
310.0	5.524218	-0.004332	8.848034	-0.014986	0.008063	-0.009161	-0.60791	0.10376	-0.467773
311.0	5.472267	0.006394	8.90499	-0.014951	0.007151	-0.007083	-0.614502	0.10376	-0.470215
312.0	5.503508	0.005008	8.892221	-0.018178	0.007873	-0.004085	-0.605713	0.101563	-0.467773
313.0	5.512387	-0.002063	8.871046	-0.018716	0.010337	-0.005047	-0.610107	0.105957	-0.460938
314.0	5.536629	-0.021024	8.887421	-0.017068	0.009063	-0.004468	-0.605469	0.099365	-0.45874
315.0	5.536028	-0.022251	8.887792	-0.018328	0.004475	-0.008032	-0.609863	0.101563	-0.460938
316.0	5.522815	-0.034739	8.858032	-0.022665	0.011038	-0.009037	-0.605713	0.10376	-0.467773
317.0	5.512288	-0.030244	8.880222	-0.01614	0.007771	-0.010875	-0.60791	0.105957	-0.465576
318.0	5.492196	-0.05983	8.8795	-0.019405	0.009401	-0.00996	-0.607666	0.101563	-0.467773
319.0	5.472991	-0.025677	8.835228	-0.015566	0.011428	-0.012218	-0.614502	0.105957	-0.465576
320.0	5.497186	-0.043861	8.851625	-0.0146	0.009229	-0.016542	-0.60791	0.10376	-0.465576
321.0	5.501929	-0.050581	8.911401	-0.012842	0.012259	-0.014099	-0.610107	0.10376	-0.463379
322.0	5.513686	-0.079551	8.897558	-0.013634	0.007029	-0.020869	-0.612061	0.099365	-0.465576
323.0	5.52267	-0.085242	8.876333	-0.013025	0.009774	-0.02013	-0.610352	0.110352	-0.463379
324.0	5.503459	-0.010262	8.876581	-0.012525	0.008218	-0.021254	-0.60791	0.105957	-0.465576
325.0	5.525108	-0.004381	8.88546	-0.008292	0.004392	-0.026496	-0.612305	0.10376	-0.463379
326.0	5.527442	-0.026815	8.893122	-0.008187	0.008691	-0.024635	-0.60791	0.10376	-0.465576
327.0	5.523728	-0.003177	8.886319	-0.008655	0.00933	-0.021435	-0.605713	0.105957	-0.463379
328.0	5.526914	-0.001932	8.806	-0.007545	0.010523	-0.021816	-0.609863	0.099365	-0.465576
329.0	5.506418	0.010064	8.849996	-0.00256	0.012839	-0.022368	-0.612549	0.108154	-0.470215
330.0	5.49561	0.016729	8.872335	-0.002058	0.011283	-0.023492	-0.612061	0.101563	-0.465576
331.0	5.484565	0.023355	8.894812	0.000985	0.017991	-0.015393	-0.609863	0.101563	-0.463135
332.0	5.492771	0.018502	8.874089	-0.004039	0.016579	-0.01693	-0.609863	0.101563	-0.460938
333.0	5.526401	-0.003886	8.869044	0.00257	0.011509	-0.014594	-0.616455	0.101563	-0.469971
334.0	5.493169	-0.002714	8.882959	0.002596	0.017628	-0.016899	-0.607666	0.101563	-0.465576
335.0	5.488751	0.02144	8.87657	0.001521	0.015521	-0.01444	-0.609863	0.101563	-0.465576
336.0	5.512447	0.004853	8.89332	0.002631	0.016714	-0.01482	-0.612305	0.10376	-0.465576
337.0	5.511135	0.005837	8.894133	0.000914	0.012768	-0.015187	-0.614502	0.105957	-0.465576
338.0	5.484905	0.024149	8.87894	-0.001813	0.011929	-0.013312	-0.616699	0.10376	-0.460938
339.0	5.556555	-0.044647	8.875359	-0.000703	0.013123	-0.013692	-0.610107	0.10376	-0.460938
340.0	5.508372	-0.032121	8.851455	-0.004639	0.006787	-0.013303	-0.612061	0.101563	-0.463135
341.0	5.513129	-0.038172	8.911162	-0.005726	0.011707	-0.015232	-0.603271	0.099365	-0.467773
342.0	5.522084	-0.043269	8.890018	-0.004209	0.007048	-0.018596	-0.607666	0.099365	-0.469971
343.0	5.528202	-0.025143	8.861499	-0.003568	0.008887	-0.01577	-0.60791	0.10376	-0.467773
344.0	5.514564	0.004101	8.876409	-0.00526	0.011058	-0.018444	-0.605469	0.099365	-0.465576
345.0	5.504304	-0.029606	8.853994	-0.005865	0.008308	-0.019189	-0.605713	0.101563	-0.465576
346.0	5.515927	-0.018038	8.884707	-0.007482	0.008662	-0.017693	-0.614502	0.10376	-0.465576
347.0	5.512033	0.005556	8.87798	-0.005302	0.01196	-0.020536	-0.614258	0.101563	-0.472412
348.0	5.501206	0.011613	8.900272	-0.008029	0.011117	-0.018663	-0.607666	0.099365	-0.467773
349.0	5.490852	-0.022209	8.87792	-0.005267	0.011048	-0.018455	-0.616699	0.10376	-0.465576
350.0	5.512045	-0.016085	8.88712	-0.006415	0.010757	-0.020166	-0.60791	0.10376	-0.465576
351.0	5.508084	0.007567	8.88043	-0.005269	0.011044	-0.01846	-0.612061	0.099365	-0.465576
352.0	5.487961	-0.020585	8.879712	-0.006417	0.010752	-0.020172	-0.607666	0.101563	-0.463135
353.0	5.496323	0.014093	8.903284	-0.008035	0.011105	-0.018676	-0.612305	0.105957	-0.463379
354.0	5.515129	0.003363	8.860499	-0.004687	0.007673	-0.015412	-0.609863	0.099365	-0.460938
355.0	5.517512	-0.019207	8.868174	-0.006512	0.006447	-0.022043	-0.616699	0.10376	-0.465576
356.0	5.526041	0.015526	8.89164	-0.008039	0.011099	-0.018682	-0.609863	0.099365	-0.465576
357.0	5.515863	-0.01853	8.869201	-0.010257	0.008703	-0.017931	-0.609863	0.101563	-0.465576
358.0	5.511871	0.004612	8.862526	-0.009022	0.013291	-0.014356	-0.614258	0.101563	-0.467773
359.0	5.513306	0.021385	8.915088	-0.009151	0.009896	-0.018312	-0.612061	0.099365	-0.469971
360.0	5.509883	0.004855	8.863761	-0.008515	0.011736	-0.015482	-0.610107	0.10376	-0.463379
361.0	5.496022	0.033527	8.878748	-0.009623	0.010537	-0.015107	-0.614258	0.101563	-0.463135
362.0	5.475901	0.004841	8.878017	-0.006223	0.012315	-0.012062	-0.614258	0.101563	-0.460938
363.0	5.516199	-0.064345	8.887308	-0.009673	0.00533	-0.014888	-0.616699	0.10376	-0.465576
364.0	5.490558	-0.046737	8.871694	-0.009242	0.005589	-0.020189	-0.610107	0.10376	-0.465576
365.0	5.524555	-0.029788	8.910874	-0.009164	0.003776	-0.016013	-0.612061	0.101563	-0.465576
366.0	5.521675	-0.046198	8.859229	-0.008137	0.006782	-0.02057	-0.609863	0.101563	-0.465576
367.0	5.518088	-0.022735	8.852301	-0.009245	0.005583	-0.020196	-0.616211	0.097168	-0.463135
368.0	5.551942	-0.005718	8.891572	-0.012051	0.006546	-0.022504	-0.607666	0.099365	-0.463135
369.0	5.513844	0.00085	8.845781	-0.008652	0.008326	-0.019456	-0.614502	0.10376	-0.463379
370.0	5.525305	0.01224	8.876571	-0.010311	0.009581	-0.02005	-0.607666	0.099365	-0.460938
371.0	5.524559	0.012313	8.877036	-0.012526	0.007183	-0.0193	-0.609863	0.101563	-0.463135
372.0	5.516937	-0.00541	8.906443	-0.013591	0.011186	-0.01915	-0.607666	0.099365	-0.463135
373.0	5.500766	0.0064	8.869422	-0.015333	0.008141	-0.021614	-0.612061	0.099365	-0.467773
374.0	5.522076	0.011957	8.878581	-0.011935	0.009924	-0.018563	-0.614258	0.099365	-0.465576
375.0	5.527366	-0.034418	8.893612	-0.015849	0.009685	-0.020498	-0.618652	0.101563	-0.467773
376.0	5.50132	-0.017135	8.878232	-0.013085	0.009625	-0.020284	-0.614014	0.097168	-0.465332
377.0	5.554681	-0.011299	8.874388	-0.012533	0.007168	-0.019318	-0.612305	0.10376	-0.463379
378.0	5.508834	0.017012	8.902308	-0.012495	0.012367	-0.019543	-0.609863	0.101563	-0.469971
379.0	5.530877	-0.016929	8.866776	-0.012063	0.006518	-0.022539	-0.609863	0.101563	-0.460938
380.0	5.530097	-0.016913	8.867263	-0.013605	0.011163	-0.019174	-0.612305	0.10376	-0.460938
381.0	5.526031	0.006046	8.860634	-0.0159	0.01057	-0.022611	-0.609863	0.101563	-0.463135
382.0	5.489903	0.02881	8.867001	-0.012503	0.012356	-0.019555	-0.610107	0.10376	-0.472412
383.0	5.504208	0.016662	8.90517	-0.014715	0.009954	-0.018809	-0.610107	0.10376	-0.463379
384.0	5.520134	0.028652	8.855149	-0.014161	0.007499	-0.017842	-0.612061	0.101563	-0.469971
385.0	5.53238	-2.7e-05	8.841215	-0.010805	0.010192	-0.016876	-0.616455	0.099365	-0.465576
386.0	5.531492	-5.2e-05	8.84177	-0.011953	0.009894	-0.018597	-0.610107	0.10376	-0.463379
387.0	5.532876	0.016438	8.894292	-0.013101	0.009595	-0.020318	-0.607666	0.101563	-0.465576
388.0	5.513001	-0.012243	8.893371	-0.008084	0.011037	-0.018755	-0.612061	0.101563	-0.465576
389.0	5.522051	-0.017682	8.872274	-0.015828	0.008738	-0.018453	-0.609863	0.099365	-0.465576
390.0	5.51805	0.005279	8.865607	-0.012	0.010787	-0.020702	-0.614258	0.099365	-0.472412
391.0	5.520235	-0.017758	8.873404	-0.012002	0.010784	-0.020705	-0.607666	0.099365	-0.460938
392.0	5.480004	0.067717	8.917338	-0.012477	0.011426	-0.01749	-0.616455	0.099365	-0.467773
393.0	5.463796	0.079456	8.880354	-0.014687	0.009023	-0.016745	-0.616455	0.099365	-0.463135
394.0	5.543019	0.027997	8.84792	-0.012798	0.014554	-0.008214	-0.614258	0.101563	-0.463135
395.0	5.516179	-0.019163	8.875923	-0.014059	0.010863	-0.013906	-0.614502	0.10376	-0.467773
396.0	5.496345	-0.048427	8.874954	-0.011251	0.009909	-0.011589	-0.612305	0.10376	-0.467773
397.0	5.539389	-0.037446	8.89309	-0.015137	0.014856	-0.013758	-0.616455	0.101563	-0.465576
398.0	5.519334	-0.06666	8.892252	-0.013629	0.011117	-0.019227	-0.616211	0.097168	-0.465332
399.0	5.496379	-0.072377	8.884067	-0.011492	0.009222	-0.021851	-0.609619	0.092773	-0.460693
400.0	5.53652	-0.037484	8.894876	-0.00758	0.00947	-0.019906	-0.605713	0.101563	-0.463135
401.0	5.523605	-0.048149	8.86501	-0.008728	0.009169	-0.021631	-0.612061	0.101563	-0.465576
402.0	5.481388	-0.146502	8.898376	-0.005723	0.009803	-0.01115	-0.60791	0.10376	-0.467773
403.0	5.614001	-0.151285	8.906511	0.007291	0.008149	0.002706	-0.614502	0.10376	-0.467773
404.0	5.478057	0.229043	8.861432	-0.00187	0.017054	-0.013616	-0.611816	0.092773	-0.463135
405.0	5.513242	-0.000344	8.853161	-0.005809	0.011605	-0.015346	-0.614258	0.101563	-0.469971
406.0	5.482885	0.080073	8.875428	-0.00473	0.007609	-0.015499	-0.60791	0.10376	-0.463379
407.0	5.498413	0.028822	8.868652	-0.005768	0.010699	-0.013253	-0.612061	0.099365	-0.463135
408.0	5.506509	0.063068	8.892353	-0.010224	0.006795	-0.01386	-0.609863	0.099365	-0.472412
409.0	5.490212	0.010813	8.898321	-0.011846	0.007138	-0.012365	-0.609863	0.099365	-0.463135
410.0	5.521708	0.010919	8.88579	-0.013619	0.004992	-0.016939	-0.607666	0.101563	-0.463135
411.0	5.509063	-0.00043	8.855763	-0.010745	0.008336	-0.012741	-0.612305	0.10376	-0.465576
412.0	5.486484	-0.0064	8.847327	-0.011956	0.003743	-0.016343	-0.612061	0.099365	-0.460938
413.0	5.533305	-0.018136	8.872316	-0.010228	0.006788	-0.013868	-0.612305	0.105957	-0.460938
414.0	5.526326	0.028074	8.858356	-0.009752	0.006143	-0.017091	-0.610107	0.10376	-0.460938
415.0	5.493693	0.027466	8.871581	-0.011852	0.007128	-0.012375	-0.612061	0.099365	-0.467773
416.0	5.508191	0.015052	8.909603	-0.012416	0.009573	-0.01335	-0.605713	0.10376	-0.463379
417.0	5.514347	0.032384	8.881218	-0.014058	0.004721	-0.011635	-0.614258	0.101563	-0.460938
418.0	5.497977	-0.020282	8.887207	-0.011124	0.012359	-0.005554	-0.612061	0.101563	-0.463135
419.0	5.494089	0.002362	8.880477	-0.011916	0.002832	-0.014259	-0.612061	0.099365	-0.465576
420.0	5.502326	0.036117	8.9041	-0.014043	0.00991	-0.01186	-0.609863	0.097168	-0.467773
421.0	5.516083	-0.032358	8.845135	-0.010623	0.005617	-0.006462	-0.614258	0.101563	-0.465576
422.0	5.524249	0.001417	8.868807	-0.009609	0.008623	-0.01103	-0.612061	0.099365	-0.463135
423.0	5.513558	0.006337	8.890854	-0.010668	0.006517	-0.008563	-0.612061	0.101563	-0.463135
424.0	5.523012	0.000583	8.869577	-0.011814	0.006215	-0.010291	-0.609863	0.097168	-0.467773
425.0	5.52555	-0.023131	8.877136	-0.012857	0.009302	-0.008042	-0.60791	0.105957	-0.463379
426.0	5.512755	-0.034771	8.8472	-0.01238	0.008659	-0.011267	-0.612061	0.097168	-0.469971
427.0	5.54737	-0.057731	8.841914	-0.007901	0.006473	-0.008335	-0.612305	0.105957	-0.465576
428.0	5.536854	0.011358	8.821058	-0.011845	0.012304	-0.012614	-0.609863	0.101563	-0.467773
429.0	5.513443	-0.058562	8.855905	-0.00583	0.011582	-0.015375	-0.616455	0.101563	-0.463135
430.0	5.486013	-0.001754	8.885469	-0.009614	0.008613	-0.011041	-0.612061	0.099365	-0.460938
431.0	5.517348	-0.001236	8.873101	-0.007512	0.00763	-0.015762	-0.614502	0.10376	-0.470215
432.0	5.545498	0.022362	8.853589	-0.010717	0.007407	-0.010674	-0.612061	0.099365	-0.467773
433.0	5.505982	0.003684	8.895549	-0.007948	0.007368	-0.010441	-0.614258	0.101563	-0.469971
434.0	5.518807	-0.024769	8.881325	-0.008005	0.003078	-0.012323	-0.614502	0.10376	-0.467773
435.0	5.547226	-0.00122	8.861653	-0.010196	0.005861	-0.011803	-0.614502	0.105957	-0.465576
436.0	5.51772	-0.025102	8.882	-0.008517	0.009809	-0.011419	-0.612061	0.099365	-0.465576
437.0	5.548942	-0.024545	8.869722	-0.008039	0.009167	-0.014645	-0.614258	0.101563	-0.463135
438.0	5.53828	-0.019333	8.891727	-0.00853	0.004617	-0.011203	-0.612061	0.101563	-0.465576
439.0	5.525801	-0.03034	8.861602	-0.008663	0.007319	-0.017503	-0.609863	0.099365	-0.467773
440.0	5.531806	-0.012339	8.83337	-0.008565	0.010705	-0.013524	-0.612061	0.101563	-0.469971
441.0	5.512242	-0.041298	8.832152	-0.009143	0.007957	-0.014282	-0.612061	0.099365	-0.469971
442.0	5.545448	-0.024293	8.871908	-0.006419	0.008821	-0.016148	-0.614014	0.097168	-0.460938
443.0	5.53452	-0.018805	8.894069	-0.005798	0.010665	-0.013293	-0.614258	0.101563	-0.460938
444.0	5.520436	0.009685	8.909056	-0.009767	0.006107	-0.017144	-0.612061	0.097168	-0.465332
445.0	5.52142	-0.02961	8.864335	-0.009199	0.003663	-0.01617	-0.610107	0.10376	-0.467773
446.0	5.53089	-0.034671	8.84309	-0.008092	0.010054	-0.01676	-0.612305	0.10376	-0.472412
447.0	5.535401	0.02266	8.859905	-0.010818	0.009186	-0.014898	-0.605713	0.10376	-0.465576
448.0	5.519242	-0.029401	8.865692	-0.00867	0.007305	-0.017521	-0.614502	0.10376	-0.465576
449.0	5.550604	-0.028611	8.853367	-0.009196	0.008845	-0.016397	-0.614258	0.101563	-0.469971
450.0	5.54627	-0.069412	8.889681	-0.005326	0.010014	-0.016531	-0.612061	0.099365	-0.465576
451.0	5.506726	-0.0236	8.888824	-0.010868	0.010078	-0.017008	-0.612305	0.10376	-0.460938
452.0	5.505796	-0.023457	8.889401	-0.008144	0.010944	-0.018874	-0.609863	0.099365	-0.469971
453.0	5.508427	0.017823	8.854154	-0.010344	0.008532	-0.018139	-0.614502	0.10376	-0.463379
454.0	5.532872	0.000578	8.870622	-0.009726	0.010376	-0.015282	-0.610107	0.10376	-0.465576
455.0	5.499765	-7e-06	8.884011	-0.007528	0.012784	-0.016022	-0.609863	0.101563	-0.465576
456.0	5.563062	0.001526	8.859057	-0.007485	0.006696	-0.013702	-0.614258	0.101563	-0.463135
457.0	5.508356	-0.00499	8.863332	-0.009157	0.00793	-0.014311	-0.607666	0.101563	-0.465576
458.0	5.494162	0.023224	8.878354	-0.009685	0.00947	-0.013187	-0.605713	0.101563	-0.467773
459.0	5.528774	0.000722	8.873177	-0.008014	0.008233	-0.01258	-0.612549	0.108154	-0.463379
460.0	5.517863	0.005923	8.895288	-0.00577	0.009743	-0.011215	-0.610107	0.10376	-0.463379
461.0	5.527081	0.000533	8.874232	-0.011794	0.010442	-0.008468	-0.612305	0.10376	-0.460938
462.0	5.514603	-0.010899	8.844122	-0.008496	0.003686	-0.009135	-0.607666	0.099365	-0.463135
463.0	5.517387	-0.034275	8.851523	-0.009642	0.008564	-0.011091	-0.610107	0.105957	-0.467773
464.0	5.535206	-0.005451	8.853862	-0.007399	0.010075	-0.009725	-0.612061	0.097168	-0.465332
465.0	5.537589	-0.028641	8.861514	-0.006301	0.011279	-0.010094	-0.612549	0.108154	-0.468018
466.0	5.514711	-0.034465	8.853189	-0.006918	0.009432	-0.012957	-0.614502	0.10376	-0.465576
467.0	5.508834	0.027883	8.891763	-0.009073	0.011305	-0.010338	-0.614258	0.101563	-0.465576
468.0	5.524696	-0.023582	8.884847	-0.005775	0.009736	-0.011224	-0.609863	0.099365	-0.463135
469.0	5.54045	-0.01048	8.835311	-0.004727	0.017023	-0.013917	-0.616455	0.101563	-0.460938
470.0	5.547559	0.023962	8.85963	-0.002963	0.01399	-0.0091	-0.612061	0.099365	-0.463135
471.0	5.540983	-0.032956	8.844125	-0.002486	0.018532	-0.012552	-0.616455	0.099365	-0.465576
472.0	5.529174	-0.036871	9.006632	-0.015723	0.015328	-0.010687	-0.612061	0.101563	-0.465576
473.0	5.479452	0.011672	9.027302	-0.041663	0.002195	-0.007868	-0.616699	0.10376	-0.463379
474.0	5.441266	0.116909	8.98292	-0.064746	-0.012776	-0.000613	-0.610352	0.108154	-0.468018
475.0	5.507171	-0.061529	8.804651	-0.04749	-0.026649	0.004356	-0.605713	0.10376	-0.463379
476.0	5.528205	0.147866	8.817141	-0.02871	-0.023494	0.002981	-0.608154	0.108154	-0.470215
477.0	5.642933	0.160101	8.727876	-0.030653	-0.010582	0.015471	-0.612549	0.108154	-0.461182
478.0	5.636077	-0.045143	8.74433	-0.022879	0.006431	0.01669	-0.609619	0.094971	-0.460938
479.0	5.57395	-0.201454	8.862571	-0.021261	0.016466	0.014769	-0.612549	0.108154	-0.463379
480.0	5.567028	-0.325444	8.889559	-0.019818	0.01974	0.004861	-0.610107	0.10376	-0.465576
481.0	5.613012	-0.273568	8.872666	-0.009125	0.012207	-0.012443	-0.616699	0.108154	-0.461182
482.0	5.548372	-0.091026	8.910711	-0.008816	0.004811	-0.023663	-0.612305	0.10376	-0.465576
483.0	5.556486	0.007809	8.892016	-0.01212	0.006369	-0.022786	-0.610352	0.110352	-0.46582
484.0	5.576751	0.052334	8.946147	-0.023066	-0.006612	-0.017046	-0.612061	0.101563	-0.45874
485.0	5.533612	0.103222	8.885338	-0.036843	-0.008306	-0.014084	-0.614502	0.105957	-0.463379
486.0	5.546384	0.055979	8.817941	-0.044937	-0.012758	-0.00432	-0.610107	0.10376	-0.463379
487.0	5.557818	0.166502	8.85052	-0.043657	-0.015169	0.003719	-0.610352	0.108154	-0.463379
488.0	5.481467	0.123474	8.932271	-0.058361	-0.016519	0.015232	-0.612305	0.105957	-0.463379
489.0	5.51364	0.101617	8.866359	-0.071484	-0.02249	0.023344	-0.610352	0.108154	-0.463379
490.0	5.503687	0.018011	8.876999	-0.078451	-0.021492	0.034607	-0.608154	0.108154	-0.461182
491.0	5.493921	0.117024	8.900561	-0.084276	-0.020204	0.047599	-0.60791	0.105957	-0.461182
492.0	5.524499	-0.052984	8.866578	-0.084823	-0.029085	0.049077	-0.605713	0.105957	-0.461182
493.0	5.424252	-0.019618	8.889388	-0.080557	-0.030935	0.067615	-0.612549	0.108154	-0.463379
494.0	5.466143	0.043056	8.944172	-0.077097	-0.030993	0.074878	-0.610107	0.105957	-0.45874
495.0	5.424013	-0.281274	8.855168	-0.031434	-0.04232	0.11109	-0.612549	0.110352	-0.463379
496.0	5.406431	-0.175151	8.899439	0.060396	-0.04918	0.205555	-0.612793	0.114502	-0.458984
497.0	5.240046	0.147772	9.044293	0.152234	-0.059189	0.333837	-0.617188	0.114502	-0.461182
498.0	5.449176	0.039698	8.939045	0.273053	-0.069772	0.48802	-0.610596	0.116943	-0.463623
499.0	5.454424	0.087108	8.840447	0.394479	-0.067754	0.645954	-0.613037	0.123291	-0.463623
500.0	5.416618	0.258937	8.911153	0.498724	-0.06417	0.788909	-0.615234	0.121094	-0.463623
501.0	5.530591	0.16686	8.89671	0.578659	-0.052414	0.915574	-0.61084	0.123291	-0.466064
502.0	5.605165	0.040597	8.79248	0.67183	-0.052652	1.046368	-0.608643	0.123291	-0.461426
503.0	5.565497	0.031994	8.771999	0.770473	-0.049209	1.174293	-0.609131	0.134277	-0.46167
504.0	5.60739	0.136274	8.755584	0.847251	-0.046364	1.282249	-0.613525	0.13208	-0.466064
505.0	5.681262	0.064493	8.750003	0.885685	-0.033413	1.354516	-0.609131	0.134277	-0.463867
506.0	5.757412	-0.035048	8.673941	0.886393	-0.010428	1.362788	-0.603027	0.140869	-0.466309
507.0	5.882383	-0.225681	8.570112	0.80374	0.009307	1.267074	-0.603027	0.143066	-0.46875
508.0	5.918603	-0.556411	8.538337	0.635645	0.04052	1.059332	-0.603027	0.143066	-0.470947
509.0	5.776209	-1.173776	8.597115	0.39793	0.063659	0.725464	-0.598877	0.145264	-0.470947
510.0	5.595114	-1.963441	8.540131	0.158703	0.052119	0.319933	-0.596924	0.149658	-0.473389
511.0	5.485364	-3.027294	8.560121	0.072892	0.024376	-0.043295	-0.603271	0.147461	-0.46875
512.0	5.58959	-1.533109	8.871475	0.190115	-0.011751	-0.182973	-0.601074	0.147461	-0.470947
513.0	5.666724	-0.68441	8.963275	0.200729	-0.016732	-0.229238	-0.60083	0.143066	-0.466309
514.0	6.078601	-1.221922	8.682123	0.248467	0.004486	-0.27414	-0.598389	0.136475	-0.473145
515.0	6.212697	-0.685987	8.532071	0.327523	0.082538	-0.333532	-0.60498	0.134277	-0.470703
516.0	5.862848	0.299858	8.741266	0.356463	0.168935	-0.350951	-0.600342	0.13208	-0.470703
517.0	5.947221	1.13943	8.948018	0.32352	0.247211	-0.331073	-0.606934	0.13208	-0.477539
518.0	5.351005	1.516714	9.114304	0.248209	0.275715	-0.261186	-0.600342	0.12793	-0.475098
519.0	5.255538	1.134737	9.084988	0.167028	0.265412	-0.205118	-0.602051	0.121338	-0.477295
520.0	5.545829	0.253778	8.854154	0.137657	0.262586	-0.18151	-0.597656	0.119141	-0.475098
521.0	5.439046	0.119171	8.748343	0.144752	0.258412	-0.17028	-0.597656	0.121338	-0.475098
522.0	5.267569	0.21771	8.833385	0.140358	0.241742	-0.162272	-0.591064	0.119141	-0.479492
523.0	5.205689	0.139041	8.864315	0.129741	0.207809	-0.158702	-0.602295	0.123535	-0.481934
524.0	5.353526	0.004241	8.870277	0.128486	0.186081	-0.154995	-0.59082	0.112549	-0.481689
525.0	5.30863	0.137939	8.964197	0.145039	0.15978	-0.157437	-0.597168	0.110352	-0.479492
526.0	5.274279	0.286376	9.026325	0.135754	0.13896	-0.154079	-0.595215	0.112549	-0.481689
527.0	5.344764	0.331272	9.148608	0.127894	0.112579	-0.151599	-0.597656	0.119141	-0.481934
528.0	5.405489	0.42518	9.07208	0.119705	0.101375	-0.152233	-0.590576	0.108398	-0.486084
529.0	5.181043	0.699269	9.013428	0.097803	0.077925	-0.137527	-0.595215	0.112549	-0.486328
530.0	5.171587	0.780556	8.987846	0.063768	0.051074	-0.114628	-0.595215	0.112549	-0.483887
531.0	5.271116	0.533569	8.998973	0.036699	0.034201	-0.090789	-0.59082	0.110352	-0.481689
532.0	5.264619	0.564089	8.930878	0.020353	0.012909	-0.069889	-0.597168	0.110352	-0.483887
533.0	5.173644	0.726341	8.938681	-0.008006	-0.011786	-0.052754	-0.593018	0.112549	-0.483887
534.0	5.141349	0.708802	8.898921	-0.034971	-0.040415	-0.02877	-0.592773	0.108154	-0.486084
535.0	5.182079	0.545932	8.891296	-0.061697	-0.065629	-0.013103	-0.593018	0.110352	-0.477051
536.0	5.227111	0.467561	8.964064	-0.081681	-0.085202	0.00186	-0.594971	0.105957	-0.477051
537.0	5.234025	0.415578	8.918924	-0.091468	-0.093323	0.020448	-0.597168	0.110352	-0.479492
538.0	5.033741	0.569859	8.949017	-0.09899	-0.113645	0.032439	-0.59082	0.110352	-0.479492
539.0	5.251439	0.461538	8.879778	-0.11572	-0.131799	0.050064	-0.595215	0.112549	-0.486328
540.0	5.536484	0.149103	8.950147	-0.106428	-0.128221	0.053577	-0.594971	0.110352	-0.483887
541.0	5.547758	0.20363	8.975321	-0.087857	-0.113255	0.047278	-0.597656	0.116943	-0.481689
542.0	5.64797	0.167556	9.023807	-0.068205	-0.086175	0.042647	-0.599365	0.108154	-0.479248
543.0	5.564792	0.075695	8.952825	-0.047334	-0.057083	0.035545	-0.599854	0.119141	-0.477295
544.0	5.496542	0.192171	8.867911	-0.028344	-0.046975	0.024709	-0.597168	0.110352	-0.479492
545.0	5.490467	0.197089	8.886435	-0.016483	-0.037594	0.019175	-0.601807	0.114746	-0.479492
546.0	5.406033	0.308451	8.91286	-0.011811	-0.043318	0.013204	-0.601807	0.116943	-0.479492
547.0	5.559932	0.102707	8.975419	-0.004023	-0.039904	0.008466	-0.602051	0.119141	-0.479492
548.0	5.552461	0.044396	8.962516	0.001479	-0.026824	0.004664	-0.604248	0.119141	-0.477295
549.0	5.401471	0.188202	9.004639	0.010863	-0.025529	-0.009305	-0.601807	0.114746	-0.479492
550.0	5.466448	0.139204	8.937939	0.010809	-0.026407	-0.007243	-0.601807	0.114746	-0.481689
551.0	5.42212	0.176773	8.900444	0.013007	-0.02673	-0.013855	-0.602051	0.119141	-0.479492
552.0	5.392127	0.270752	8.933519	0.013909	-0.030776	-0.013822	-0.602051	0.119141	-0.477295
553.0	5.428586	0.246769	8.928645	0.01227	-0.043805	-0.020173	-0.608398	0.116943	-0.474854
554.0	5.422683	0.257019	8.947044	0.012214	-0.044689	-0.018118	-0.608398	0.116943	-0.474854
555.0	5.5031	0.199046	8.91786	0.010853	-0.051713	-0.027029	-0.601563	0.110352	-0.479492
556.0	5.494734	0.277227	8.907959	0.010797	-0.052601	-0.024978	-0.606201	0.116943	-0.472656
557.0	5.470006	0.30404	8.96757	0.015671	-0.052424	-0.02162	-0.604248	0.121338	-0.468262
558.0	5.50284	0.304719	8.892844	0.016229	-0.051498	-0.016939	-0.601807	0.114746	-0.474854
559.0	5.43193	0.278767	8.89396	0.017554	-0.058018	-0.015872	-0.602051	0.121338	-0.475098
560.0	5.436339	0.303644	8.881227	0.016603	-0.066742	-0.013903	-0.601807	0.116943	-0.474854
561.0	5.470125	0.286053	8.954854	0.010718	-0.076539	-0.01324	-0.60376	0.110352	-0.472656
562.0	5.49921	0.225755	8.927138	0.000851	-0.089805	-0.006072	-0.601807	0.116943	-0.474854
563.0	5.609133	0.208986	8.804735	0.000181	-0.091743	0.003175	-0.601807	0.114746	-0.472656
564.0	5.534754	0.297005	8.897629	-0.018037	-0.097502	0.010464	-0.612793	0.116699	-0.468018
565.0	5.572599	0.357922	8.851785	-0.031068	-0.108168	0.028341	-0.612793	0.114746	-0.474854
566.0	5.479496	0.326294	8.92213	-0.039944	-0.123016	0.041203	-0.608154	0.112549	-0.470215
567.0	5.565776	0.282441	8.878733	-0.044193	-0.131727	0.048101	-0.612549	0.112549	-0.470215
568.0	5.436741	0.387793	8.904622	-0.048287	-0.160019	0.05638	-0.612793	0.116943	-0.470459
569.0	5.360104	0.411029	8.983263	-0.051988	-0.190961	0.077524	-0.608398	0.116943	-0.468018
570.0	5.491743	0.243742	8.82843	-0.042677	-0.23266	0.08616	-0.61084	0.118896	-0.468262
571.0	5.393333	0.203816	8.943641	-0.012273	-0.263803	0.086987	-0.61499	0.118896	-0.46582
572.0	5.284872	0.088105	8.995699	0.007328	-0.323702	0.07235	-0.608643	0.123291	-0.463623
573.0	5.119559	0.098628	9.224415	0.047758	-0.39903	0.065397	-0.615234	0.123291	-0.456787
574.0	5.203117	0.165819	9.419094	0.064597	-0.525198	0.053122	-0.617188	0.118896	-0.461426
575.0	5.357129	-0.267129	9.205374	0.1069	-0.65054	0.017317	-0.624023	0.121094	-0.461426
576.0	5.476478	-0.341833	9.138887	0.172339	-0.787227	-0.024143	-0.621582	0.118896	-0.452148
577.0	5.431483	-0.002046	9.114557	0.231854	-0.928291	-0.064315	-0.630371	0.116699	-0.443115
578.0	5.399706	0.098075	9.317504	0.288749	-1.084809	-0.089223	-0.634521	0.114502	-0.438477
579.0	5.410579	0.099174	9.255668	0.319647	-1.26838	-0.111475	-0.645264	0.109863	-0.433838
580.0	5.49945	0.126121	9.226128	0.345566	-1.468254	-0.12986	-0.640625	0.105713	-0.422363
581.0	5.453333	0.28654	9.272285	0.374515	-1.674727	-0.142599	-0.64917	0.103271	-0.415283
582.0	5.581692	0.372059	9.280494	0.380229	-1.905919	-0.147862	-0.657959	0.103271	-0.404053
583.0	5.540481	0.427676	9.251673	0.36571	-2.146381	-0.144022	-0.670654	0.094482	-0.390137
584.0	5.416111	0.534184	9.433354	0.313383	-2.411986	-0.130278	-0.679688	0.098633	-0.381104
585.0	5.226436	0.857003	9.790579	0.20547	-2.733721	-0.082586	-0.692627	0.096436	-0.362793
586.0	5.116283	0.895113	9.880615	0.067122	-3.134852	-0.012602	-0.69458	0.092041	-0.344482
587.0	4.963182	1.411832	9.911044	-0.091096	-3.599461	0.091886	-0.705566	0.093994	-0.323975
588.0	4.950021	1.777748	9.923446	-0.294207	-4.16796	0.208057	-0.71875	0.093994	-0.296631
589.0	5.029343	1.917218	9.820976	-0.521507	-4.828117	0.336243	-0.736328	0.100342	-0.26709
590.0	5.161738	1.749347	9.884541	-0.736809	-5.492557	0.466467	-0.745361	0.106689	-0.230713
591.0	5.355286	2.24369	10.094622	-0.925383	-6.050539	0.609532	-0.760986	0.115234	-0.189941
592.0	5.744434	2.603451	9.91538	-1.036646	-6.477092	0.723978	-0.772217	0.119385	-0.153564
593.0	7.179239	2.326762	9.185285	-1.065485	-6.937596	0.76974	-0.781006	0.121338	-0.110107
594.0	11.036327	2.877348	8.537919	-1.018066	-7.28718	0.920326	-0.779053	0.12793	-0.071533
595.0	18.167782	2.368655	8.806737	-1.057218	-7.450623	1.230174	-0.779297	0.136475	-0.02832
596.0	23.437498	0.157687	8.440552	-0.771257	-7.05033	1.465801	-0.772949	0.140869	0.012451
597.0	22.061586	0.281258	9.564422	-0.099669	-6.53761	1.556489	-0.758789	0.162598	0.041748
598.0	17.013282	3.67826	9.379453	0.19495	-6.071911	1.706432	-0.73877	0.153809	0.071533
599.0	17.595261	5.305988	10.886194	-0.179361	-5.737813	2.091525	-0.717773	0.173584	0.096191
600.0	22.78055	2.992139	12.558236	-0.868062	-5.16358	2.672825	-0.685547	0.182617	0.10498
601.0	19.994682	-0.268472	12.845091	-1.016208	-4.681729	3.138297	-0.653564	0.202393	0.115967
602.0	15.737369	-1.882545	13.898998	-0.20971	-3.476234	2.57265	-0.616943	0.211426	0.113525
603.0	11.403002	1.073734	22.170364	1.193225	-1.407675	2.028977	-0.580078	0.216064	0.097412
604.0	11.200509	3.463018	12.215082	0.759695	-0.541155	2.243186	-0.54541	0.218506	0.081299
605.0	13.162237	7.162073	21.413519	0.586145	0.465837	1.945475	-0.499756	0.223145	0.053955
606.0	1.178821	7.072816	13.36419	-0.073915	1.501859	2.056384	-0.456055	0.221436	0.031006
607.0	0.459069	4.703035	11.454066	-0.522932	1.615642	1.913055	-0.412842	0.228271	0.012695
608.0	-1.312179	2.840117	9.902051	-0.398663	1.752433	1.64933	-0.35791	0.221924	-0.005615
609.0	-1.205869	2.213371	9.084192	-0.043565	1.793467	1.245469	-0.301025	0.220215	-0.01709
610.0	0.204548	2.912112	9.420623	0.327915	1.93313	0.82615	-0.248535	0.211914	-0.016846
611.0	1.573043	4.096833	9.745378	0.451788	2.208737	0.449476	-0.183105	0.214355	-0.01709
612.0	3.335527	4.834755	10.281535	0.36383	2.586554	0.114091	-0.117188	0.203857	-0.003174
613.0	4.32948	4.864072	10.307832	0.131246	3.038141	-0.17308	-0.060791	0.208496	0.028564
614.0	4.467273	4.142024	9.854171	-0.071019	3.471865	-0.452281	-0.008301	0.20874	0.076416
615.0	4.444751	3.049898	9.241632	-0.15125	3.831807	-0.740439	0.036865	0.221924	0.144287
616.0	4.796292	1.959837	8.518118	-0.08126	4.103	-0.991432	0.051758	0.230713	0.214844
617.0	5.098488	1.164572	7.97977	0.101643	4.278093	-1.18495	0.039795	0.252197	0.287354
618.0	5.871256	1.030988	7.701103	0.310712	4.398887	-1.269875	0.010986	0.26709	0.355469
619.0	6.694342	1.072603	7.429301	0.470089	4.487917	-1.250446	-0.046631	0.28418	0.405273
620.0	7.421911	0.990501	7.423564	0.576155	4.555865	-1.185869	-0.110596	0.301025	0.446045
621.0	8.108433	0.903404	7.49934	0.63901	4.588898	-1.148548	-0.1875	0.315918	0.457275
622.0	9.114224	0.742997	7.598773	0.687771	4.632499	-1.136392	-0.257813	0.328369	0.454834
623.0	9.881563	0.608822	7.712877	0.747672	4.691006	-1.154562	-0.336426	0.327881	0.436768
624.0	10.282945	0.938557	7.821816	0.811774	4.750218	-1.217937	-0.399902	0.332031	0.397949
625.0	10.29025	1.373051	8.007983	0.788225	4.770878	-1.326495	-0.454102	0.325195	0.359375
626.0	10.199045	1.400087	8.374084	0.705625	4.741271	-1.477527	-0.506104	0.318604	0.313965
627.0	10.318495	0.720576	8.803184	0.652968	4.666592	-1.674584	-0.540527	0.309814	0.252686
628.0	10.864189	-0.534634	9.422586	0.727748	4.559461	-1.867837	-0.572754	0.294434	0.202881
629.0	12.111148	-1.348349	10.084986	0.940334	4.477941	-2.001307	-0.593506	0.272461	0.148682
630.0	13.566449	-1.368706	10.553932	1.171859	4.406286	-2.054727	-0.605957	0.255127	0.094482
631.0	14.902018	-0.627361	10.952245	1.250593	4.345507	-2.066595	-0.618164	0.237793	0.044678
632.0	16.484881	0.002343	11.269883	1.142225	4.29869	-2.069919	-0.616943	0.21167	-0.005127
633.0	17.873462	-0.616113	11.047105	0.95024	4.276412	-2.092315	-0.622559	0.192139	-0.045654
634.0	19.265165	-1.975617	10.63264	0.834454	4.287774	-2.186137	-0.619629	0.17041	-0.086182
635.0	20.72189	-2.698421	10.017584	0.773986	4.359791	-2.305129	-0.618408	0.144287	-0.133545
636.0	21.862577	-3.031067	9.027639	0.627091	4.45883	-2.404162	-0.610596	0.118164	-0.174072
637.0	22.274603	-3.009044	7.612999	0.362036	4.537976	-2.429634	-0.607422	0.092285	-0.210205
638.0	22.417583	-3.079906	5.673554	0.010148	4.495521	-2.356003	-0.593506	0.074951	-0.248535
639.0	22.605071	-3.676559	3.21724	-0.285049	4.322416	-2.189867	-0.581787	0.059814	-0.282471
640.0	23.193796	-4.852911	0.206021	-0.364114	4.030928	-1.937428	-0.557129	0.04248	-0.302734
641.0	23.752365	-6.268318	-3.095636	-0.155477	3.653788	-1.618707	-0.545654	0.031738	-0.334229
642.0	24.039531	-8.01332	-6.569448	0.340083	3.173199	-1.243979	-0.529785	0.014404	-0.349854
643.0	23.762259	-8.776508	-9.930467	0.959172	2.568648	-0.848091	-0.516357	0.008057	-0.370361
644.0	22.850453	-6.838857	-12.393648	1.099226	1.723159	-0.404074	-0.511475	-0.004883	-0.376953
645.0	21.85913	-3.009412	-12.357292	0.234526	0.715162	0.223697	-0.511719	0.003662	-0.384033
646.0	22.394916	-2.84607	-11.316287	-1.184496	-0.157018	0.876444	-0.501221	0.012451	-0.379639
647.0	20.646732	-6.237361	-12.429469	-2.068991	-1.566378	1.431971	-0.517334	0.027588	-0.373047
648.0	5.646914	-8.222916	-17.186786	-1.624294	-2.618388	1.645768	-0.526123	0.031982	-0.361816
649.0	6.612604	-8.203965	19.929475	-0.310606	-4.138432	1.117761	-0.54834	0.042725	-0.332275
650.0	9.694584	-0.806675	25.917754	-0.750761	-3.313248	0.868661	-0.557129	0.044678	-0.327637
651.0	15.597926	5.654502	9.197495	-0.952776	-2.927683	0.827957	-0.564453	0.062256	-0.309814
652.0	14.516363	-2.60358	12.16548	-0.586409	-2.945553	0.087317	-0.572998	0.057617	-0.300537
653.0	13.15863	-2.325798	14.325675	-0.273105	-2.43284	-0.252204	-0.586426	0.062012	-0.284668
654.0	9.593775	-6.504377	11.342526	-0.18235	-2.051363	0.110163	-0.585938	0.053223	-0.273193
655.0	12.505915	1.254223	14.390005	-0.237412	-1.663861	0.31458	-0.588379	0.059814	-0.259521
656.0	11.812808	6.696207	10.061199	-0.27706	-1.084939	0.149404	-0.594971	0.061768	-0.26416
657.0	6.962633	3.874555	8.730142	-0.427002	-0.941349	-0.006394	-0.597168	0.061768	-0.255127
658.0	6.390155	-3.475352	9.266761	-0.306455	-0.865826	0.065637	-0.599365	0.05957	-0.248291
659.0	9.085249	-3.572195	10.554375	-0.026449	-0.702151	0.135066	-0.599854	0.070557	-0.248535
660.0	8.987437	-0.673708	9.670669	0.082134	-0.426802	0.097918	-0.599365	0.061768	-0.24585
661.0	5.810614	-0.417371	9.466161	0.092425	-0.318032	0.0398	-0.604004	0.066162	-0.239258
662.0	5.536677	-1.158795	9.292175	0.0872	-0.266702	0.008514	-0.60376	0.063965	-0.243652
663.0	6.003983	-0.278975	9.405003	0.107126	-0.199771	-0.035981	-0.606201	0.066162	-0.241455
664.0	5.765034	-0.235596	9.139597	0.086367	-0.187133	-0.042486	-0.612549	0.061768	-0.236816
665.0	5.828604	-0.309009	9.085583	0.053466	-0.179641	-0.016653	-0.601563	0.061768	-0.236816
666.0	5.843443	0.012204	9.097265	0.034603	-0.173313	-0.003478	-0.601807	0.068359	-0.241455
667.0	5.603647	0.270417	9.156233	0.018208	-0.161826	0.009557	-0.60376	0.061768	-0.241455
668.0	5.500769	0.525732	9.037328	-0.008431	-0.143412	0.018634	-0.608398	0.068359	-0.234619
669.0	5.450892	0.665743	8.941802	-0.02071	-0.131523	0.052717	-0.61084	0.07251	-0.232422
670.0	5.536307	0.6916	8.995488	-0.036237	-0.108542	0.071341	-0.608154	0.061768	-0.236816
671.0	5.374177	0.537189	9.042017	-0.033834	-0.086361	0.085583	-0.608398	0.068115	-0.232422
672.0	5.322718	0.256307	9.116085	-0.039713	-0.073786	0.090673	-0.608398	0.066162	-0.236816
673.0	5.545562	-0.396506	9.153217	-0.03424	-0.068419	0.078823	-0.608154	0.061768	-0.227783
674.0	5.508869	-0.416681	9.130038	-0.02248	-0.07036	0.062555	-0.601807	0.068359	-0.237061
675.0	5.47563	-0.091711	9.041961	-0.018159	-0.07221	0.046803	-0.608643	0.070313	-0.234619
676.0	5.551774	-0.006443	8.944311	-0.017521	-0.084907	0.041586	-0.608398	0.066162	-0.22998
677.0	5.55022	0.036068	8.926527	-0.012545	-0.074629	0.041306	-0.608643	0.070313	-0.225586
678.0	5.56553	-0.028719	8.883498	-0.012916	-0.066189	0.044843	-0.610596	0.068115	-0.232422
679.0	5.605686	0.011974	8.83322	-0.008402	-0.061461	0.062244	-0.61084	0.074707	-0.234863
680.0	5.580326	0.198671	8.888143	-0.009043	-0.059505	0.091936	-0.610596	0.065918	-0.232422
681.0	5.562171	0.113259	8.80541	-0.012267	-0.05134	0.107307	-0.61084	0.074707	-0.230225
682.0	5.596572	-0.085747	8.744486	-0.012405	-0.040265	0.111184	-0.606445	0.07251	-0.234863
683.0	5.427382	-0.085721	8.876314	-0.00189	-0.034179	0.109379	-0.611084	0.076904	-0.230225
684.0	5.387807	0.047254	8.9365	-0.001839	-0.041085	0.107388	-0.606689	0.079102	-0.22583
685.0	5.341552	-0.250575	8.938169	-0.008061	-0.051815	0.105723	-0.613037	0.074707	-0.228027
686.0	5.290241	0.032459	8.988137	0.005798	-0.077396	0.101021	-0.613281	0.076904	-0.22583
687.0	5.096476	0.090098	9.147495	0.01371	-0.100839	0.10736	-0.613281	0.079102	-0.22583
688.0	5.217295	0.023665	9.124631	0.027438	-0.151054	0.122889	-0.606445	0.074707	-0.225586
689.0	5.143763	-0.059518	9.251946	0.055063	-0.221975	0.146015	-0.61084	0.074707	-0.221191
690.0	4.87212	-0.236813	9.347433	0.086183	-0.344549	0.158484	-0.608887	0.076904	-0.223389
691.0	5.171127	-0.278593	9.460946	0.122319	-0.524309	0.140456	-0.615479	0.079102	-0.221191
692.0	5.058549	-0.263326	9.566774	0.147321	-0.693	0.117074	-0.613281	0.079102	-0.214355
693.0	5.069982	-0.135369	9.528685	0.173128	-0.869623	0.092742	-0.62207	0.079102	-0.20752
694.0	5.194266	-0.321711	9.479974	0.198724	-1.082617	0.051968	-0.617432	0.076904	-0.205322
695.0	4.843455	-0.685859	9.725749	0.2416	-1.334818	-0.0205	-0.62207	0.081055	-0.189453
696.0	4.724847	-0.631918	9.914907	0.289284	-1.654428	-0.106074	-0.628174	0.070068	-0.182373
697.0	4.596471	-0.735431	9.99975	0.325382	-2.040164	-0.198516	-0.630615	0.074463	-0.17334
698.0	4.620639	-0.772846	10.023268	0.348973	-2.467314	-0.303906	-0.641113	0.070068	-0.148193
699.0	4.512085	-0.196636	10.393744	0.33541	-2.905077	-0.368966	-0.638916	0.067871	-0.134277
700.0	4.41059	0.245402	10.526582	0.225864	-3.367837	-0.356942	-0.640869	0.061279	-0.11377
701.0	4.323465	0.217142	10.553117	0.105957	-3.896599	-0.290031	-0.647461	0.063232	-0.086426
702.0	3.921327	0.501751	10.725128	-0.034542	-4.511411	-0.22066	-0.6604	0.060791	-0.059082
703.0	3.38428	1.247272	11.036438	-0.221993	-5.354594	-0.150222	-0.651611	0.058594	-0.013428
704.0	2.926123	1.314738	11.621895	-0.470356	-6.445967	-0.089999	-0.656006	0.060791	0.025391
705.0	3.036586	2.543748	12.637219	-0.650096	-7.451314	-0.014286	-0.656006	0.05835	0.073242
706.0	3.140863	3.119085	13.176255	-0.750797	-8.238921	0.039362	-0.649414	0.05835	0.123291
707.0	5.972842	2.70726	12.862461	-0.625524	-9.094073	0.017343	-0.638184	0.051758	0.194092
708.0	15.046281	2.554559	12.772671	-0.413012	-9.877163	0.087897	-0.616455	0.053955	0.244141
709.0	29.868058	0.256441	13.538043	-0.188	-9.909654	0.386225	-0.592529	0.053955	0.30127
710.0	26.098141	0.66662	14.151824	0.567064	-9.406439	0.689497	-0.563965	0.053955	0.348877
711.0	19.639958	6.424757	14.25828	0.626938	-9.086565	1.255724	-0.529785	0.067139	0.398926
712.0	24.035977	8.296385	17.976007	0.003272	-8.670374	1.974826	-0.497559	0.075928	0.426025
713.0	25.353918	4.62489	19.334571	-0.794185	-7.536422	2.83781	-0.462646	0.080566	0.4646
714.0	22.087289	1.708162	20.273989	-1.003323	-7.021912	3.439801	-0.43457	0.084961	0.482666
715.0	18.691755	-0.406331	25.058002	-0.012063	-5.077135	2.666467	-0.408936	0.098145	0.493896
716.0	17.548708	-4.466463	29.155097	1.507537	-1.18557	3.021906	-0.403076	0.109131	0.486816
717.0	31.60492	3.894689	36.436294	1.968649	0.283834	2.748604	-0.405762	0.122314	0.479736
718.0	1.910733	7.559223	23.300487	1.674298	3.312208	3.068152	-0.412598	0.131104	0.454346
719.0	-1.250525	7.079258	15.954739	1.04654	3.555222	3.000399	-0.421875	0.144043	0.429199
720.0	-5.617309	6.3733	11.906957	0.740495	3.477783	2.771576	-0.424316	0.148438	0.419922
721.0	-6.77413	5.052957	8.984498	0.725794	3.150147	2.379556	-0.429199	0.157227	0.39917
722.0	-3.315639	4.26514	8.955495	1.025737	2.939038	1.790157	-0.426758	0.155029	0.381104
723.0	-0.470373	4.606541	9.168479	1.367937	3.078988	1.083369	-0.424805	0.159668	0.367188
724.0	1.954793	5.776401	10.038411	1.491172	3.445164	0.361421	-0.437988	0.159424	0.353516
725.0	3.23934	6.577145	10.371414	1.260676	3.989013	-0.29976	-0.437744	0.157471	0.339844
726.0	3.762551	6.202269	10.163382	0.832393	4.503425	-0.837068	-0.44873	0.155029	0.328613
727.0	4.668165	4.542802	9.499859	0.471766	4.94143	-1.286946	-0.457275	0.150635	0.314941
728.0	5.207064	2.609871	8.766833	0.295989	5.300741	-1.654942	-0.476318	0.141846	0.299316
729.0	5.770338	0.766943	8.376127	0.311672	5.54102	-1.903778	-0.491699	0.144043	0.276367
730.0	6.419814	-0.202855	8.04236	0.478264	5.72879	-1.970642	-0.513428	0.139648	0.260742
731.0	7.229246	-0.972668	8.20478	0.651847	5.865357	-1.887608	-0.53125	0.148438	0.224121
732.0	8.103037	-1.355089	8.162028	0.821459	5.965774	-1.732703	-0.541748	0.141846	0.180908
733.0	8.914457	-1.709979	8.286095	0.979731	6.009755	-1.538135	-0.546387	0.144043	0.114746
734.0	10.060576	-1.630932	8.58738	1.123563	6.00517	-1.378484	-0.511475	0.142334	0.057617
735.0	11.406113	-1.668178	9.020375	1.316462	5.992126	-1.249086	-0.437256	0.14502	0.02124
736.0	12.451926	-0.643927	9.810689	1.418808	5.988504	-1.194253	-0.350586	0.154297	0.030029
737.0	13.172557	-0.120346	10.605395	1.386791	5.968797	-1.241627	-0.285889	0.172119	0.088867
738.0	14.399052	-0.242203	11.486269	1.291759	5.947142	-1.41042	-0.265625	0.204834	0.151855
739.0	16.542185	-1.877081	12.300403	1.268157	5.902593	-1.746396	-0.282715	0.248291	0.203613
740.0	19.679443	-3.256861	12.569101	1.387111	5.934085	-2.169655	-0.319336	0.284912	0.225586
741.0	22.929608	-3.635338	12.684097	1.456032	6.017075	-2.61187	-0.357666	0.313232	0.220459
742.0	26.015233	-3.260775	12.195495	1.236883	6.141202	-2.9168	-0.400146	0.339111	0.204102
743.0	29.110031	-3.607744	10.938745	0.826374	6.242527	-3.037885	-0.45166	0.369385	0.169434
744.0	31.51143	-4.675352	8.748994	0.419847	6.280946	-2.938128	-0.500244	0.380127	0.121338
745.0	33.192138	-6.550145	5.419309	0.326477	6.179969	-2.623419	-0.546387	0.386475	0.071289
746.0	34.428294	-6.747869	0.866962	0.589722	5.928468	-2.144675	-0.587646	0.38208	-0.006104
747.0	34.190417	-6.279376	-5.173661	0.9243	5.480732	-1.585024	-0.613525	0.377686	-0.088135
748.0	32.896365	-6.614521	-11.56659	1.333382	4.746897	-1.161815	-0.628174	0.362549	-0.16748
749.0	31.258547	-8.691564	-17.275214	1.769917	3.701984	-1.020777	-0.63623	0.349609	-0.233398
750.0	31.691531	-9.984523	-21.338084	2.117999	2.475553	-1.193564	-0.639893	0.334473	-0.283203
751.0	32.280923	-5.936122	-22.490204	1.697055	1.154292	-1.269589	-0.650635	0.327881	-0.317139
752.0	30.937857	-0.456526	-19.767503	-0.024167	-0.220061	-0.778947	-0.653076	0.33667	-0.31958
753.0	20.189544	-2.553597	-13.761243	-1.979676	-1.58912	0.331766	-0.674072	0.364746	-0.313477
754.0	3.992832	-11.155606	-7.367335	-0.885601	-3.74844	1.597543	-0.686523	0.401855	-0.29126
755.0	-3.474089	2.62901	37.452438	-2.05651	-4.744305	2.687257	-0.70166	0.44751	-0.269287
756.0	14.945609	-1.682894	10.761644	-3.092455	-3.642668	2.301146	-0.716309	0.478027	-0.253906
757.0	18.617155	1.197016	7.447749	-1.590315	-4.325081	1.122367	-0.732666	0.506104	-0.238525
758.0	20.505817	0.942527	17.439016	-0.839236	-3.807636	-0.166387	-0.748047	0.510254	-0.218262
759.0	13.633164	-3.957501	14.247544	-0.987026	-3.17095	-0.430795	-0.768555	0.525391	-0.204834
760.0	7.65248	-13.294386	7.653507	-0.396829	-2.986496	-0.104177	-0.783936	0.529785	-0.186523
761.0	13.687789	-0.382224	14.684408	-0.329642	-2.843877	0.589989	-0.784912	0.551514	-0.168701
762.0	18.516547	7.012693	11.415832	-0.39162	-1.941273	0.508359	-0.798096	0.553467	-0.159668
763.0	11.047308	0.071118	10.736972	-0.441861	-1.572986	0.134895	-0.802979	0.56665	-0.153076
764.0	9.180355	-8.282794	11.328357	-0.117246	-1.180475	0.250271	-0.800781	0.56665	-0.148438
765.0	9.45744	-1.229892	10.099549	0.172948	-0.797686	0.241136	-0.807373	0.568604	-0.139404
766.0	5.232278	2.570038	9.74539	0.123089	-0.593054	0.117808	-0.802979	0.56665	-0.139404
767.0	5.069891	-1.4163	9.868935	0.020019	-0.45846	0.082005	-0.810059	0.575195	-0.139648
768.0	6.865977	-0.400222	9.699543	0.122098	-0.323862	0.077327	-0.807861	0.575195	-0.13501
769.0	5.814821	-0.108899	9.597237	0.0663	-0.231514	0.031973	-0.808105	0.581787	-0.14209
770.0	6.081665	-0.665493	9.414518	0.081871	-0.199141	0.012503	-0.810059	0.575195	-0.13501
771.0	6.12922	0.200079	9.306991	0.044677	-0.195172	-0.00789	-0.810059	0.57959	-0.132813
772.0	5.929009	0.68789	9.159666	0.027208	-0.181742	0.003836	-0.812012	0.575195	-0.137207
773.0	5.807502	0.407152	8.985777	0.01315	-0.152283	0.011297	-0.808105	0.581787	-0.135254
774.0	5.9301	0.229991	8.811663	0.003193	-0.156067	0.026167	-0.814209	0.575195	-0.137207
775.0	5.869795	0.052111	8.790977	-0.010557	-0.189253	0.068936	-0.805664	0.57959	-0.137451
776.0	5.742178	0.184054	8.931857	-0.041044	-0.210246	0.103933	-0.812012	0.572998	-0.132813
777.0	5.574874	0.184296	9.015596	-0.050929	-0.242135	0.134231	-0.810059	0.57959	-0.137451
778.0	5.565505	0.110581	8.994933	-0.063636	-0.266326	0.152053	-0.8125	0.581787	-0.137451
779.0	5.592964	-0.224533	8.839993	-0.044251	-0.282555	0.167634	-0.808105	0.583984	-0.137451
780.0	5.70804	-0.386323	8.671794	-0.002645	-0.308815	0.156559	-0.80835	0.586182	-0.135254
781.0	5.902458	-0.592991	8.356675	0.002411	-0.309593	0.127639	-0.814697	0.581787	-0.130615
782.0	6.007101	-0.169201	8.337037	0.01452	-0.259785	0.097313	-0.805908	0.583984	-0.132813
783.0	5.895304	0.213302	8.52499	0.016148	-0.2124	0.101296	-0.799561	0.586182	-0.123779
784.0	5.807535	0.271812	8.644123	0.008522	-0.180803	0.124751	-0.808105	0.583984	-0.130615
785.0	5.723184	0.055379	8.702899	0.008163	-0.163209	0.148904	-0.80835	0.590576	-0.128418
786.0	5.688202	-0.09989	8.857951	0.014253	-0.173834	0.168017	-0.806152	0.588379	-0.130615
787.0	5.732465	-0.26111	8.831779	0.019188	-0.190801	0.175057	-0.801758	0.588379	-0.124023
788.0	5.759363	-0.437423	8.662266	0.026059	-0.203928	0.15504	-0.806152	0.588379	-0.128418
789.0	5.77219	-0.419925	8.644081	0.029832	-0.217906	0.12426	-0.802002	0.592773	-0.124023
790.0	5.666151	-0.379264	8.701107	0.029392	-0.244495	0.082747	-0.799805	0.590576	-0.126221
791.0	5.781572	-0.426083	8.629293	0.070234	-0.264672	0.050686	-0.803955	0.586182	-0.123779
792.0	5.828737	-0.31352	8.607195	0.117172	-0.272062	0.010297	-0.80835	0.590576	-0.124023
793.0	5.773005	-0.186107	8.698523	0.155015	-0.279131	-0.033968	-0.806396	0.594971	-0.119385
794.0	5.484547	0.101985	8.980144	0.163521	-0.327004	-0.056193	-0.810547	0.590576	-0.119385
795.0	5.379508	0.06379	9.149665	0.166182	-0.443086	-0.043426	-0.806396	0.592773	-0.117188
796.0	5.189824	-0.22394	9.421212	0.15922	-0.598403	-0.072018	-0.805908	0.581787	-0.114746
797.0	4.908434	-1.029926	9.565943	0.187082	-0.842586	-0.139693	-0.805908	0.583984	-0.10791
798.0	4.686366	-1.11098	9.750831	0.256875	-1.190024	-0.250601	-0.807861	0.57959	-0.107666
799.0	4.596787	-1.189923	9.910519	0.319544	-1.585393	-0.369316	-0.809814	0.572998	-0.091797
800.0	4.683328	-0.966261	9.86973	0.379713	-2.000967	-0.472033	-0.818115	0.564209	-0.084717
801.0	4.84224	-0.673359	9.809616	0.400616	-2.406424	-0.565394	-0.822266	0.557617	-0.068604
802.0	4.833161	-0.403818	9.922209	0.381695	-2.817491	-0.619238	-0.823975	0.546631	-0.043213
803.0	4.83137	-0.093069	10.024877	0.33877	-3.262913	-0.671788	-0.819092	0.537842	-0.024902
804.0	4.37262	0.767133	10.516597	0.262767	-3.791852	-0.665228	-0.82959	0.528809	0.000488
805.0	4.042506	1.70126	10.812119	0.184618	-4.500363	-0.613176	-0.829102	0.517822	0.030273
806.0	3.12754	1.849472	11.661204	0.020968	-5.415449	-0.525775	-0.824219	0.504883	0.062256
807.0	3.094623	1.294685	12.071834	-0.10701	-6.463566	-0.494136	-0.817139	0.493896	0.103516
808.0	2.821591	2.201058	12.768935	-0.151337	-7.406545	-0.464582	-0.816895	0.487061	0.146973
809.0	4.029467	2.256118	13.139323	-0.048892	-8.313785	-0.477653	-0.800781	0.469727	0.192871
810.0	8.952629	2.878802	13.672639	0.143801	-9.260426	-0.475322	-0.785156	0.45874	0.236328
811.0	20.950462	2.842158	13.742743	0.307942	-9.859848	-0.263751	-0.758301	0.445801	0.282227
812.0	28.715963	0.367725	14.461319	0.846895	-9.520529	0.074431	-0.716309	0.435059	0.314209
813.0	25.249378	4.479077	17.970378	1.356029	-9.122976	0.595128	-0.665771	0.426514	0.332764
814.0	16.710524	9.14274	13.839498	0.968809	-8.738232	1.378445	-0.608643	0.418213	0.348633
815.0	28.326491	8.054376	19.303422	0.071834	-8.174336	2.372213	-0.53833	0.405518	0.362549
816.0	26.169858	3.622667	19.699992	-0.331684	-7.489901	3.294355	-0.468262	0.397217	0.374023
817.0	12.6124	0.16577	20.028762	-0.473679	-6.190655	3.434415	-0.397949	0.384521	0.381104
818.0	22.321791	-4.598782	35.032142	1.744977	-3.370847	3.097168	-0.336914	0.38501	0.371826
819.0	22.686795	-0.24388	25.844328	2.110083	-0.658712	4.040856	-0.273193	0.374512	0.374268
820.0	20.45708	4.122333	33.310047	2.06073	1.740513	4.159516	-0.237793	0.368164	0.381104
821.0	-1.190754	7.431737	18.222945	1.93743	3.441913	4.22471	-0.208984	0.35498	0.404053
822.0	-1.316118	7.932824	14.603163	1.347264	3.536696	3.945797	-0.206299	0.342041	0.434082
823.0	-5.775266	7.732052	10.684958	0.891458	3.451276	3.530318	-0.207764	0.331055	0.46167
824.0	-5.414092	6.271774	8.709267	0.732764	3.21316	2.868575	-0.227051	0.322021	0.486816
825.0	-1.647339	5.385519	8.844909	0.915082	3.168235	1.997986	-0.259277	0.308594	0.512207
826.0	0.083411	6.088966	8.959902	1.130653	3.42573	1.048454	-0.306885	0.299561	0.512451
827.0	1.208866	7.388346	9.338832	1.080289	3.801569	0.144645	-0.349854	0.28833	0.526367
828.0	1.571603	7.629456	9.125204	0.719133	4.188724	-0.605477	-0.398926	0.26416	0.515625
829.0	2.255471	6.121252	8.687221	0.3117	4.511228	-1.191457	-0.452393	0.239746	0.50708
830.0	3.625761	4.062508	8.419167	0.104142	4.793984	-1.629112	-0.51001	0.208984	0.487061
831.0	4.73324	2.09742	8.277923	0.074193	5.054465	-1.950688	-0.554688	0.18457	0.458008
832.0	5.807668	0.857427	8.332137	0.185903	5.306562	-2.078311	-0.603271	0.151611	0.429199
833.0	6.650282	0.144226	8.333626	0.321575	5.548541	-2.011835	-0.641602	0.127686	0.381836
834.0	7.534112	-0.348951	8.480892	0.469671	5.764015	-1.842434	-0.670898	0.103516	0.334473
835.0	8.040874	-0.84745	8.355502	0.58983	5.922054	-1.622743	-0.694092	0.085938	0.300537
836.0	8.526515	-1.200042	8.481398	0.722393	5.998714	-1.432762	-0.711182	0.072998	0.248535
837.0	9.445001	-1.922611	8.822871	0.889541	5.99971	-1.281124	-0.724609	0.081787	0.200439
838.0	10.935006	-2.136031	9.582312	1.196397	6.009364	-1.191208	-0.729004	0.086182	0.150146
839.0	11.893379	-0.940384	10.398152	1.383323	5.996909	-1.167844	-0.7229	0.090576	0.106934
840.0	13.169885	-0.374833	11.433033	1.388492	5.967579	-1.199725	-0.727539	0.097412	0.054443
841.0	15.087181	-0.731304	12.083895	1.369724	5.939636	-1.366499	-0.719482	0.112793	0.008545
842.0	17.572133	-1.563519	12.625036	1.386263	5.904116	-1.709772	-0.708496	0.11084	-0.043945
843.0	20.788755	-2.257168	12.84924	1.392518	5.905825	-2.193829	-0.697754	0.113037	-0.084961
844.0	24.870472	-2.1377	12.81963	1.27984	5.971292	-2.674555	-0.688232	0.0979	-0.128174
845.0	28.977972	-1.940145	11.787118	0.926492	6.106164	-2.972301	-0.674805	0.091553	-0.166748
846.0	32.484924	-2.121701	10.071372	0.455917	6.245925	-3.028071	-0.665283	0.074463	-0.202881
847.0	34.997689	-3.813131	7.184317	0.050224	6.329859	-2.819163	-0.645508	0.070313	-0.239258
848.0	35.374388	-6.715292	2.494411	0.211646	6.206069	-2.410824	-0.636475	0.063721	-0.280029
849.0	35.0209	-8.087179	-3.710176	0.911667	5.834477	-1.948301	-0.621094	0.057373	-0.302734
850.0	34.146559	-7.684702	-10.234404	1.781458	5.1501	-1.588283	-0.607422	0.044434	-0.33667
851.0	32.382778	-7.064	-15.738346	2.345861	4.152172	-1.348797	-0.593994	0.035889	-0.359375
852.0	30.952922	-8.121625	-19.460784	2.474971	2.885076	-1.295549	-0.586914	0.022949	-0.379639
853.0	32.351141	-7.240581	-21.225956	2.14501	1.602968	-1.342963	-0.588623	0.016357	-0.381836
854.0	32.028428	-2.75447	-20.390148	1.045491	0.38111	-1.073737	-0.585938	0.003174	-0.381592
855.0	29.686051	-0.264638	-16.946019	-0.589136	-0.867568	-0.36236	-0.594971	0.009766	-0.363525
856.0	18.16229	-5.141702	-13.316778	-1.475657	-2.725969	0.672448	-0.61084	0.022705	-0.345459
857.0	-10.839483	1.853245	19.27188	-1.276354	-3.755618	1.457975	-0.625	0.048828	-0.320801
858.0	-4.738216	2.971506	29.319194	-3.344677	-4.262501	2.056558	-0.643311	0.065918	-0.293945
859.0	15.832255	-7.979338	2.468782	-3.035966	-4.203766	1.358646	-0.659668	0.089844	-0.266846
860.0	22.516212	-12.095067	12.13464	-1.082389	-4.454768	0.363643	-0.67041	0.0896	-0.230469
861.0	19.512945	-9.521956	17.572712	-0.114855	-3.636365	0.128353	-0.677246	0.093994	-0.209961
862.0	14.763109	-7.416801	13.454446	0.153284	-3.056874	0.53532	-0.685791	0.091553	-0.187256
863.0	18.327599	9.025043	17.364796	-0.278499	-2.434332	0.855315	-0.693115	0.109131	-0.173828
864.0	11.237444	11.920428	9.058489	-0.588335	-1.72091	0.260086	-0.697266	0.102539	-0.169189
865.0	5.693949	-1.378798	8.630282	-0.690779	-1.623242	-0.01598	-0.695313	0.106689	-0.148682
866.0	9.685576	-6.964083	10.323923	-0.272254	-1.381329	0.226702	-0.699707	0.108887	-0.139648
867.0	12.909338	0.218275	11.350895	0.032802	-0.874808	0.253977	-0.697754	0.117676	-0.139893
868.0	6.385169	0.668492	9.754104	0.055901	-0.628321	0.211407	-0.699951	0.115479	-0.130615
869.0	5.426601	-1.611376	9.546259	-0.010266	-0.472551	0.204136	-0.697754	0.115479	-0.126221
870.0	6.262836	0.055618	9.710739	0.069353	-0.318223	0.146133	-0.706543	0.115234	-0.126221
871.0	5.94233	-0.882314	9.714421	0.026673	-0.264729	0.072202	-0.702148	0.117676	-0.126221
872.0	6.436774	-1.323871	9.375038	0.042238	-0.220238	0.024394	-0.706299	0.113281	-0.123779
873.0	5.911278	-0.908133	9.454659	0.018234	-0.213012	-0.035911	-0.70459	0.124023	-0.124023
874.0	5.955391	-0.400322	9.358009	0.02429	-0.195318	-0.069204	-0.702148	0.115479	-0.121582
875.0	5.807216	0.321147	9.073822	-0.010154	-0.179816	-0.055332	-0.70874	0.119629	-0.119385
876.0	5.8177	0.43018	8.990046	-0.020992	-0.168393	-0.003036	-0.706543	0.117432	-0.121582
877.0	5.58995	0.693759	9.037058	-0.041753	-0.158112	0.039217	-0.697998	0.119873	-0.121582
878.0	5.727007	0.305619	8.951522	-0.058854	-0.149945	0.076781	-0.700195	0.119629	-0.117188
879.0	5.630673	0.149893	8.987794	-0.069595	-0.155899	0.100724	-0.702393	0.124023	-0.117188
880.0	5.618948	0.066877	9.02979	-0.07026	-0.174571	0.110932	-0.702393	0.119629	-0.114746
881.0	5.536175	0.109935	9.125764	-0.064974	-0.202372	0.126015	-0.702637	0.126221	-0.103516
882.0	5.370753	0.075006	9.102446	-0.055961	-0.243625	0.137905	-0.70874	0.119629	-0.112549
883.0	5.461469	-0.243964	8.943308	-0.035192	-0.282297	0.148086	-0.702393	0.124023	-0.108154
884.0	5.545471	-0.324374	8.799362	0.013876	-0.336504	0.146768	-0.702393	0.124023	-0.105713
885.0	5.238473	-0.511482	8.796382	0.017058	-0.401116	0.135307	-0.711426	0.128418	-0.103516
886.0	5.928049	-0.151863	8.476585	0.026656	-0.41376	0.124838	-0.704834	0.128418	-0.099121
887.0	6.030033	-0.027455	8.386677	0.041006	-0.384445	0.116207	-0.709473	0.13501	-0.096924
888.0	6.078625	0.231996	8.365143	0.033844	-0.326446	0.118278	-0.713623	0.130615	-0.09668
889.0	6.017467	0.379637	8.419779	0.021486	-0.273199	0.148665	-0.711426	0.128418	-0.094482
890.0	5.980852	0.30957	8.522124	0.005467	-0.220415	0.183394	-0.709473	0.132813	-0.092285
891.0	5.973414	0.001658	8.485042	0.011093	-0.188292	0.208072	-0.711914	0.13916	-0.087891
892.0	5.972786	-0.296387	8.481009	0.008936	-0.157872	0.212313	-0.70752	0.136963	-0.087891
893.0	5.762816	-0.280834	8.578739	0.017469	-0.164686	0.217035	-0.70752	0.13916	-0.090088
894.0	5.851922	-0.471407	8.60327	0.028003	-0.188814	0.199717	-0.70752	0.136963	-0.083252
895.0	5.7954	-0.327813	8.643258	0.045136	-0.225242	0.171891	-0.711914	0.141357	-0.083252
896.0	5.538622	-0.207984	8.859789	0.070054	-0.291719	0.162773	-0.709717	0.141357	-0.081055
897.0	5.512496	-0.11341	8.963842	0.100727	-0.38731	0.16517	-0.705566	0.143555	-0.081055
898.0	5.431533	-0.037715	9.035994	0.122674	-0.485583	0.163996	-0.70752	0.141357	-0.072021
899.0	5.39092	-0.046857	9.2381	0.150057	-0.607049	0.16001	-0.709961	0.143555	-0.067383
900.0	5.078185	-0.148049	9.616172	0.176633	-0.776126	0.138651	-0.712402	0.150146	-0.067627
901.0	4.81572	-0.470876	9.981219	0.21125	-1.040348	0.075693	-0.714355	0.147949	-0.05835
902.0	4.715148	-0.580284	10.118716	0.231664	-1.371591	-0.027392	-0.712402	0.147949	-0.049316
903.0	4.720074	-0.518777	10.217626	0.250324	-1.75196	-0.124433	-0.7146	0.1521	-0.028809
904.0	4.711368	-0.672016	10.206434	0.217287	-2.163006	-0.222332	-0.714111	0.138916	-0.014893
905.0	4.699493	-0.567857	10.330141	0.159317	-2.61938	-0.308891	-0.720947	0.145508	0.007813
906.0	4.449138	-0.230498	10.561923	0.087963	-3.141623	-0.339408	-0.720703	0.138916	0.02832
907.0	4.140945	0.089988	11.036404	-0.010596	-3.755695	-0.297946	-0.724854	0.136719	0.053467
908.0	3.714845	0.515667	11.441227	-0.140769	-4.531691	-0.207738	-0.720703	0.143066	0.089844
909.0	2.666788	1.150606	11.9917	-0.344129	-5.537512	-0.110942	-0.716309	0.140869	0.135498
910.0	1.879717	1.628148	12.21322	-0.625954	-6.79542	-0.030399	-0.709473	0.13623	0.190186
911.0	1.442155	1.584215	13.161618	-0.848915	-7.989226	-0.016808	-0.692383	0.140625	0.244873
912.0	2.506164	2.077771	13.671162	-0.861164	-8.987527	-0.150233	-0.678955	0.13623	0.306396
913.0	7.247916	2.403515	12.974241	-0.611273	-9.9028	-0.269192	-0.644043	0.13623	0.379395
914.0	18.729747	1.030818	12.967658	-0.287584	-10.519465	-0.210829	-0.606689	0.129883	0.438721
915.0	33.486105	-0.619521	12.666094	0.280379	-10.194733	0.048622	-0.561279	0.138672	0.502197
916.0	29.623833	2.02349	13.758558	0.812039	-9.479048	0.635528	-0.520264	0.145264	0.554443
917.0	20.731159	6.762148	14.547321	0.470606	-9.225105	1.467305	-0.474854	0.156494	0.593018
918.0	29.532636	7.080228	20.520221	-0.370114	-7.845107	2.225062	-0.429688	0.169678	0.624512
919.0	21.90011	1.79953	22.113272	-0.655854	-7.581673	3.12225	-0.382324	0.183105	0.658447
920.0	19.91176	4.006587	23.476052	-0.952835	-6.353077	3.10463	-0.347656	0.191895	0.680908
921.0	19.736771	-8.498868	35.813423	0.886262	-2.602515	2.827046	-0.335693	0.216064	0.691895
922.0	27.815243	-1.485286	27.500689	1.776803	-0.475632	2.882174	-0.343262	0.23999	0.689209
923.0	11.689225	5.946024	30.107866	1.964784	2.701945	2.804017	-0.359863	0.270508	0.675049
924.0	-1.829636	9.735297	18.07345	1.243961	3.722538	2.790584	-0.382813	0.292236	0.663086
925.0	-4.11139	8.304757	14.229393	0.335588	3.723767	2.561595	-0.403564	0.318359	0.648926
926.0	-7.126491	6.029528	10.468637	-0.09441	3.556416	2.208721	-0.430176	0.326904	0.637451
927.0	-4.144401	3.429955	9.536574	0.154558	3.379024	1.606736	-0.448486	0.346436	0.630127
928.0	-1.081488	3.180531	9.702878	0.675944	3.561514	0.92706	-0.479736	0.361572	0.609375
929.0	0.081918	4.531455	9.799532	1.007262	3.911739	0.299175	-0.510986	0.381104	0.581787
930.0	0.922189	5.588579	9.895222	0.888864	4.288702	-0.188278	-0.546631	0.394043	0.547363
931.0	1.390138	5.176186	9.491145	0.527153	4.6237	-0.587884	-0.58374	0.395996	0.515381
932.0	2.52515	3.460739	8.98835	0.240521	4.895957	-0.912516	-0.627441	0.395996	0.474609
933.0	3.474367	1.43512	8.371963	0.163571	5.126049	-1.22015	-0.657715	0.391357	0.426758
934.0	4.512522	0.080843	8.02414	0.293851	5.287335	-1.438658	-0.696533	0.382568	0.37915
935.0	5.612019	-0.169863	7.968585	0.477052	5.460857	-1.471815	-0.72876	0.371582	0.320068
936.0	6.677157	-0.356107	8.483963	0.59517	5.597941	-1.355236	-0.749756	0.352051	0.270508
937.0	8.129196	-1.16824	8.714604	0.713843	5.75673	-1.157118	-0.764404	0.338867	0.211426
938.0	9.147832	-1.564007	8.791836	0.893812	5.901575	-0.945561	-0.785156	0.317139	0.143555
939.0	10.032295	-1.691255	8.918154	1.096636	6.007008	-0.775465	-0.793457	0.306396	0.093506
940.0	10.887313	-1.907393	9.107483	1.340279	6.040496	-0.645929	-0.794678	0.284668	0.034668
941.0	11.747565	-1.414041	9.613932	1.603334	6.043153	-0.618321	-0.800781	0.273682	-0.019775
942.0	12.515025	-1.599434	10.283234	1.791303	5.986925	-0.700134	-0.800049	0.254395	-0.06958
943.0	13.816943	-1.897028	11.022504	1.996947	5.911305	-0.877134	-0.796875	0.237061	-0.114746
944.0	16.205539	-1.461424	12.254524	2.117264	5.852607	-1.16422	-0.79126	0.20874	-0.171143
945.0	18.914872	-1.449659	13.202194	1.979799	5.847767	-1.590424	-0.78418	0.193604	-0.21875
946.0	21.923523	-2.078794	13.759538	1.711504	5.87898	-2.134435	-0.769775	0.16333	-0.270508
947.0	25.45274	-2.737551	13.23254	1.374311	5.952373	-2.665819	-0.753174	0.133057	-0.324707
948.0	29.517638	-3.262608	12.089334	1.001081	6.047855	-3.090262	-0.727539	0.098389	-0.360596
949.0	33.199053	-2.783309	10.348761	0.5149	6.198851	-3.231271	-0.706543	0.068115	-0.407715
950.0	36.314637	-3.591368	6.909422	0.025665	6.318213	-3.099641	-0.672852	0.044434	-0.452881
951.0	37.219658	-5.323285	1.322759	-0.069058	6.256807	-2.740303	-0.636963	0.020752	-0.491211
952.0	36.267794	-6.740582	-5.826835	0.350593	5.902674	-2.297458	-0.607422	-0.00293	-0.522705
953.0	34.189322	-7.551172	-13.357534	1.139792	5.11471	-1.926689	-0.573975	-0.022461	-0.547363
954.0	31.965175	-8.744546	-19.104789	1.927477	3.918339	-1.716042	-0.553223	-0.046143	-0.565186
955.0	32.855757	-10.062691	-23.068772	2.525413	2.554794	-1.706444	-0.532227	-0.074463	-0.571533
956.0	34.277401	-6.661106	-24.814374	2.435416	1.227909	-1.703882	-0.526611	-0.10498	-0.564209
957.0	30.84764	0.840494	-22.138231	1.0253	-0.222011	-1.316486	-0.530762	-0.107178	-0.557129
958.0	24.521675	0.219748	-25.31766	-0.779387	-3.101196	0.037695	-0.552734	-0.105225	-0.54126
959.0	-14.92119	1.32961	5.098576	-1.276995	-4.972949	1.715456	-0.581787	-0.087891	-0.518799
960.0	6.328903	-2.766185	38.882644	-3.208486	-5.372552	2.890364	-0.611572	-0.05542	-0.496582
961.0	23.647711	-7.350458	5.30666	-2.755793	-4.168978	2.412087	-0.634521	-0.029541	-0.460693
962.0	18.638187	-5.372424	11.953758	-0.980212	-4.387402	1.375257	-0.654297	-0.027588	-0.440186
963.0	19.791688	-4.875438	17.455453	-0.241906	-3.696063	0.640449	-0.667725	-0.019043	-0.419678
964.0	20.365314	1.650291	18.692545	-0.580525	-3.007762	1.004282	-0.68335	-0.010498	-0.401611
965.0	14.446925	5.285679	11.438848	-0.938456	-1.909302	0.939167	-0.683838	0.000488	-0.392822
966.0	5.777563	3.807158	9.366575	-0.826804	-1.760039	0.359993	-0.692627	-0.001709	-0.37915
967.0	8.356734	-3.690705	9.327452	-0.620435	-1.525037	0.276174	-0.697266	0.004639	-0.370117
968.0	11.007013	-1.601248	11.473393	-0.195933	-1.165503	0.236403	-0.701416	0.002441	-0.370117
969.0	10.466484	-0.922001	10.456027	-0.131068	-0.754464	0.072147	-0.706055	0.006836	-0.351807
970.0	7.518691	-2.441332	9.566274	0.050754	-0.510955	0.044463	-0.710205	0.004639	-0.356445
971.0	6.462543	-0.907271	9.546931	0.110995	-0.342502	0.040271	-0.708252	0.009033	-0.349609
972.0	6.018276	-1.457426	9.678567	0.089992	-0.254484	0.023928	-0.705811	0.004639	-0.349609
973.0	5.480185	-1.423583	9.429992	0.12488	-0.17165	-0.016701	-0.710205	0.002441	-0.351807
974.0	5.322002	-0.776199	9.542963	0.102143	-0.146397	-0.06787	-0.708008	0.000244	-0.351807
975.0	6.097211	-1.139011	9.497088	0.082439	-0.166659	-0.10541	-0.710205	0.000244	-0.349365
976.0	5.903032	-0.147998	9.355422	0.072376	-0.165653	-0.109464	-0.710205	0.000244	-0.347168
977.0	5.923688	0.298426	9.107992	0.02874	-0.169264	-0.075999	-0.710205	0.000244	-0.344971
978.0	5.918722	0.579113	8.975536	0.001807	-0.155662	-0.025574	-0.714355	-0.001953	-0.344971
979.0	5.727536	0.661148	8.900511	-0.026494	-0.13564	0.025324	-0.714355	0.000244	-0.344971
980.0	5.672721	0.61161	9.000275	-0.048815	-0.132376	0.067387	-0.712402	0.002441	-0.342773
981.0	5.588136	0.461972	9.064569	-0.07505	-0.141173	0.10804	-0.714844	0.006836	-0.340576
982.0	5.40682	0.213578	9.167067	-0.089141	-0.165208	0.12683	-0.718994	0.002441	-0.340332
983.0	5.416191	-0.06585	9.151257	-0.092308	-0.19624	0.139652	-0.712646	0.006836	-0.335938
984.0	5.298089	-0.445314	9.18281	-0.054312	-0.24998	0.142064	-0.710205	0.004639	-0.338135
985.0	5.296706	-0.486168	9.072411	-0.012001	-0.315143	0.124972	-0.721191	0.006592	-0.331299
986.0	5.491112	-0.608601	8.819784	0.016477	-0.375493	0.085459	-0.721436	0.008789	-0.331299
987.0	5.623507	-0.770162	8.670917	0.0289	-0.433635	0.023993	-0.721436	0.008789	-0.322266
988.0	5.924959	-0.38098	8.444304	0.044609	-0.410387	0.003344	-0.723389	0.006592	-0.319824
989.0	5.794308	-0.097773	8.47338	0.042968	-0.376631	0.007907	-0.725586	0.004395	-0.322266
990.0	5.99134	0.032988	8.360724	0.061286	-0.341848	0.030374	-0.725586	0.006592	-0.322266
991.0	5.973611	0.195696	8.302863	0.055982	-0.289297	0.057998	-0.726074	0.015381	-0.313232
992.0	5.922698	0.262816	8.325356	0.053546	-0.23907	0.098291	-0.725586	0.004395	-0.31543
993.0	5.960556	0.280659	8.375355	0.046866	-0.192209	0.135502	-0.72583	0.010986	-0.313232
994.0	5.882847	0.171259	8.466205	0.046322	-0.154106	0.15265	-0.72998	0.008789	-0.310791
995.0	5.850726	-0.047148	8.484729	0.049999	-0.137896	0.155838	-0.728271	0.015381	-0.313232
996.0	5.704225	0.020898	8.635517	0.052366	-0.154951	0.180657	-0.72998	0.006592	-0.312988
997.0	5.563095	0.311574	8.844229	0.067158	-0.201424	0.204008	-0.728027	0.013184	-0.306396
998.0	5.46363	0.521229	9.103671	0.087547	-0.262817	0.249272	-0.728027	0.013184	-0.304199
999.0	5.260941	0.258976	9.247018	0.089	-0.342323	0.275184	-0.732666	0.019531	-0.299561
1000.0	5.46674	-0.410631	9.083452	0.104175	-0.441879	0.269897	-0.730469	0.015137	-0.294922
1001.0	5.534431	-0.883353	9.013248	0.135369	-0.554821	0.195012	-0.739258	0.019531	-0.295166
1002.0	5.209308	-1.114906	9.47886	0.171482	-0.708748	0.059852	-0.737305	0.021729	-0.28833
1003.0	4.840043	-1.182892	9.780925	0.221726	-0.958347	-0.0871	-0.743652	0.019531	-0.283691
1004.0	4.682105	-0.871161	10.003979	0.290568	-1.310835	-0.214316	-0.743408	0.012939	-0.27002
1005.0	4.577464	-0.796623	10.140691	0.328987	-1.70991	-0.335426	-0.74292	0.00415	-0.251465
1006.0	4.546682	-0.897989	10.005268	0.358951	-2.130947	-0.451971	-0.749512	0.00415	-0.237793
1007.0	4.659978	-0.519531	10.075374	0.385663	-2.563385	-0.547015	-0.764648	-0.000488	-0.224121
1008.0	4.625271	-0.277584	10.225962	0.363525	-3.029635	-0.592007	-0.766357	-0.00708	-0.191895
1009.0	4.372042	0.031653	10.496183	0.293151	-3.551969	-0.599767	-0.775146	-0.009521	-0.157715
1010.0	3.926651	0.665626	10.931059	0.204306	-4.197182	-0.548164	-0.787842	-0.013916	-0.12793
1011.0	3.181823	0.671809	11.33999	0.018161	-5.035744	-0.51824	-0.787842	-0.01416	-0.086914
1012.0	2.623946	0.466559	11.791095	-0.150721	-6.164471	-0.551217	-0.795898	-0.029541	-0.03418
1013.0	2.804643	1.206071	12.283714	-0.269314	-7.23634	-0.615373	-0.79834	-0.025391	0.0271
1014.0	3.098756	1.943816	12.846991	-0.181274	-8.068726	-0.66596	-0.797852	-0.036377	0.093506
1015.0	5.854539	1.833275	13.22104	0.075076	-8.919241	-0.774042	-0.784424	-0.042969	0.164307
1016.0	14.495793	2.37197	13.063429	0.316976	-9.646657	-0.766969	-0.766602	-0.051758	0.23291
1017.0	28.947112	0.801801	13.736156	0.61955	-9.662657	-0.504809	-0.738281	-0.047363	0.314697
1018.0	26.073759	1.639501	14.637043	1.287986	-9.092948	-0.042848	-0.708008	-0.045166	0.378418
1019.0	19.220109	7.655453	13.652321	1.109627	-8.848187	0.71563	-0.666992	-0.03418	0.446533
1020.0	22.469119	6.656903	16.677855	0.639881	-8.628832	1.438359	-0.636963	-0.020996	0.494141
1021.0	22.130448	3.86709	18.370584	0.160592	-7.424967	2.094924	-0.593994	-0.005615	0.539307
1022.0	21.832112	3.147721	19.613384	0.06602	-7.199769	2.786124	-0.551025	0.007568	0.577881
1023.0	17.076455	2.144551	23.515404	-0.082661	-5.681717	2.710121	-0.525879	0.029541	0.606934
1024.0	18.835108	-6.865985	33.031495	1.308185	-1.876179	3.291729	-0.509521	0.053711	0.611084
1025.0	29.351381	-0.72467	28.456492	1.58357	-0.402937	3.539339	-0.510986	0.084229	0.610352
1026.0	7.162307	4.580954	26.295339	1.565794	2.665996	3.852455	-0.520752	0.108154	0.596191
1027.0	-1.077843	6.478217	16.591312	1.167888	3.432214	3.873078	-0.537109	0.136475	0.577393
1028.0	-2.831663	6.339311	13.253522	0.723485	3.551019	3.684229	-0.55127	0.158203	0.556641
1029.0	-5.365902	6.194259	10.040052	0.483338	3.451413	3.377535	-0.561279	0.184326	0.540039
1030.0	-3.774697	5.109018	8.839756	0.474569	3.27984	2.922402	-0.579102	0.195313	0.519531
1031.0	-1.295285	4.888102	8.732644	0.644276	3.285222	2.312864	-0.582031	0.210693	0.500977
1032.0	0.473104	5.407079	8.994805	0.804312	3.485464	1.610848	-0.597412	0.214844	0.478027
1033.0	2.111393	6.667602	9.297062	0.813483	3.846657	0.883805	-0.624023	0.223633	0.455078
1034.0	2.883441	7.350848	9.256168	0.564424	4.243814	0.2071	-0.636963	0.221436	0.430176
1035.0	3.785805	6.644518	8.985692	0.244023	4.612127	-0.424915	-0.658447	0.2146	0.400635
1036.0	4.975622	5.246144	8.745332	0.001291	4.967417	-0.982711	-0.682129	0.205811	0.366699
1037.0	5.84965	3.757376	8.452506	-0.090964	5.281462	-1.428449	-0.696777	0.190674	0.337402
1038.0	6.531257	2.374457	8.451076	-0.070859	5.538734	-1.706908	-0.722168	0.175293	0.296631
1039.0	6.858711	1.138444	8.368562	0.038232	5.75853	-1.785694	-0.73877	0.155518	0.258301
1040.0	7.472016	0.055955	8.446396	0.257782	5.91709	-1.716647	-0.761963	0.140381	0.215332
1041.0	8.131547	-0.44267	8.441888	0.49928	6.015282	-1.555766	-0.774902	0.133789	0.172119
1042.0	8.737884	-0.919606	8.690609	0.733536	6.054148	-1.353902	-0.791992	0.125	0.124512
1043.0	9.773258	-1.725019	9.129279	1.040248	6.036671	-1.158049	-0.806885	0.116455	0.076904
1044.0	11.081207	-1.914875	9.886018	1.402408	6.030704	-1.013654	-0.815186	0.109863	0.02002
1045.0	12.103344	-1.657341	10.777269	1.70559	6.008215	-0.924431	-0.817383	0.105713	-0.025391
1046.0	13.048269	-1.525426	11.9088	1.89524	5.991588	-0.923184	-0.814453	0.092773	-0.082275
1047.0	14.98341	-1.09859	13.515986	2.015809	5.957426	-0.995521	-0.813965	0.079834	-0.145752
1048.0	18.271815	-0.93538	14.966616	1.967929	5.966147	-1.214519	-0.795654	0.060303	-0.200195
1049.0	21.840831	-2.276657	15.523224	1.865821	6.044425	-1.627295	-0.786133	0.041016	-0.25
1050.0	25.691415	-3.919611	15.009043	1.849819	6.176113	-2.165783	-0.769775	0.019287	-0.302002
1051.0	29.998097	-4.671183	13.799902	1.843123	6.352754	-2.658905	-0.742188	-0.013184	-0.349121
1052.0	33.682161	-4.312756	11.754415	1.606568	6.566081	-2.922408	-0.712646	-0.041016	-0.401123
1053.0	36.905243	-4.623005	8.408411	1.219236	6.730414	-2.927113	-0.676758	-0.064697	-0.443848
1054.0	38.310468	-5.090831	3.105384	0.984151	6.644085	-2.613751	-0.649414	-0.09082	-0.486816
1055.0	38.612816	-6.35679	-5.387315	1.106417	6.27234	-2.161289	-0.609619	-0.103516	-0.520752
1056.0	37.661908	-6.58948	-15.53145	1.598063	5.425363	-1.753356	-0.577881	-0.127197	-0.547607
1057.0	36.691804	-9.840598	-25.417676	2.091005	4.037361	-1.547414	-0.551025	-0.144531	-0.558838
1058.0	36.50262	-12.706882	-31.839831	2.481815	2.277572	-1.742661	-0.538818	-0.172607	-0.56958
1059.0	35.911511	-7.081294	-31.729519	1.690408	0.405736	-1.923979	-0.531494	-0.187988	-0.564697
1060.0	30.856905	2.226668	-24.779978	-0.934784	-1.461317	-1.294232	-0.546875	-0.185791	-0.564697
1061.0	10.405366	-13.667299	-12.769134	-0.947431	-4.036229	0.403157	-0.573486	-0.175293	-0.5354
1062.0	-9.346801	-2.50693	34.02878	-1.064699	-4.357254	1.753434	-0.607422	-0.151367	-0.512939
1063.0	3.526233	4.001728	19.324707	-3.296069	-4.286546	2.703947	-0.632813	-0.121094	-0.490723
1064.0	13.911078	-5.98275	0.831464	-2.356374	-4.8223	2.082765	-0.659668	-0.101807	-0.466064
1065.0	22.209712	-5.936172	15.916373	-1.023817	-4.75561	0.744971	-0.679688	-0.093262	-0.436523
1066.0	18.606906	-3.263114	16.271251	-0.482449	-4.014563	0.328475	-0.70166	-0.089111	-0.416016
1067.0	23.559368	3.351112	20.743715	-1.210465	-3.282475	1.09191	-0.708984	-0.075928	-0.402588
1068.0	18.633782	4.090666	9.122509	-1.011576	-1.990506	0.633063	-0.717773	-0.06958	-0.386719
1069.0	8.089567	-1.729704	8.868258	-0.696162	-1.903964	0.237587	-0.726807	-0.067383	-0.373291
1070.0	10.84389	-5.725634	12.264896	-0.307534	-1.534586	0.290136	-0.730957	-0.067627	-0.361816
1071.0	14.538414	-3.199046	10.803523	0.006576	-0.822746	0.354744	-0.724854	-0.058838	-0.355225
1072.0	5.541766	-1.411236	9.607683	-0.009278	-0.566341	0.288086	-0.731445	-0.056641	-0.359619
1073.0	5.66945	-0.435228	10.030795	-0.026437	-0.378151	0.22941	-0.738281	-0.054443	-0.348389
1074.0	6.592013	-0.176601	8.814185	0.026335	-0.170149	0.134358	-0.738281	-0.052246	-0.350586
1075.0	5.669798	-1.805469	9.953219	-0.032591	-0.164875	0.188168	-0.740234	-0.054443	-0.350586
1076.0	5.973996	-0.381149	9.200628	0.014683	-0.14057	0.121983	-0.740234	-0.056641	-0.348389
1077.0	5.944165	-1.008624	9.025187	0.024331	-0.118483	0.07595	-0.74292	-0.045898	-0.348633
1078.0	5.673069	-0.405527	9.256595	0.032679	-0.133296	0.043196	-0.740479	-0.052246	-0.348389
1079.0	5.854369	-0.517257	9.1282	0.027728	-0.15784	0.010618	-0.742676	-0.050293	-0.348389
1080.0	5.706881	0.445255	9.0852	0.02397	-0.161195	0.014621	-0.740479	-0.050293	-0.348389
1081.0	5.730944	0.739783	8.999893	-0.009087	-0.15139	0.062976	-0.740479	-0.050293	-0.343994
1082.0	5.755516	0.609311	8.897009	-0.036764	-0.125521	0.107035	-0.74707	-0.05249	-0.34375
1083.0	5.65633	0.172907	8.977299	-0.0604	-0.121489	0.149084	-0.747314	-0.045898	-0.341553
1084.0	5.63844	-0.234708	8.98804	-0.076687	-0.130844	0.152797	-0.74707	-0.048096	-0.343994
1085.0	5.547663	-0.411637	8.964061	-0.0808	-0.163955	0.155196	-0.743164	-0.041504	-0.343994
1086.0	5.550633	-0.337277	9.022522	-0.094519	-0.201749	0.143186	-0.745117	-0.043701	-0.339355
1087.0	5.601107	-0.259889	8.935069	-0.106878	-0.23829	0.144244	-0.747314	-0.043701	-0.334961
1088.0	5.515529	-0.382375	8.926597	-0.099992	-0.268118	0.15462	-0.749512	-0.045898	-0.334717
1089.0	5.45183	-0.538964	8.735453	-0.047285	-0.303953	0.166141	-0.747803	-0.032715	-0.335205
1090.0	5.310442	-0.51346	8.623549	-0.016793	-0.346192	0.171902	-0.756104	-0.041504	-0.328125
1091.0	5.878649	-0.299651	8.511339	0.015099	-0.362851	0.184554	-0.756592	-0.030762	-0.332764
1092.0	5.740271	-0.138489	8.526028	0.016203	-0.32992	0.191456	-0.753906	-0.043701	-0.328125
1093.0	5.962129	-0.446085	8.33383	0.02657	-0.280057	0.196245	-0.756592	-0.032959	-0.321289
1094.0	6.05094	-0.554852	8.253458	0.044414	-0.22163	0.188905	-0.756592	-0.030762	-0.319092
1095.0	5.936822	-0.439559	8.35732	0.054071	-0.159821	0.160229	-0.758789	-0.032959	-0.314453
1096.0	5.859764	-0.439209	8.469066	0.053772	-0.11407	0.130599	-0.756592	-0.030762	-0.316895
1097.0	5.772054	-0.357875	8.599267	0.060568	-0.084899	0.113015	-0.759033	-0.026367	-0.314697
1098.0	5.615949	-0.539257	8.775342	0.072089	-0.099268	0.094986	-0.76123	-0.028564	-0.316895
1099.0	5.549292	-0.378173	8.989027	0.086442	-0.152947	0.086352	-0.759033	-0.028564	-0.316895
1100.0	5.528344	-0.35772	8.985167	0.090779	-0.231288	0.100887	-0.76123	-0.028564	-0.314697
1101.0	5.497323	-0.343606	9.079057	0.106182	-0.308585	0.098099	-0.754639	-0.026367	-0.305664
1102.0	5.335192	-0.071471	9.209558	0.098574	-0.404402	0.114643	-0.763184	-0.030762	-0.303223
1103.0	5.46043	-0.451842	8.992677	0.102819	-0.495544	0.113371	-0.765625	-0.02417	-0.301025
1104.0	5.454076	-0.612085	9.089998	0.128645	-0.596178	0.071693	-0.765381	-0.028564	-0.301025
1105.0	5.258225	-0.427704	9.429418	0.141287	-0.745723	0.025553	-0.771973	-0.028809	-0.289551
1106.0	5.088734	-0.095073	9.8297	0.129494	-0.96131	-0.005598	-0.77002	-0.026611	-0.285156
1107.0	5.001339	-0.363665	10.010282	0.101719	-1.244087	-0.037388	-0.778564	-0.028809	-0.27124
1108.0	5.031769	-0.863426	9.971819	0.072952	-1.572248	-0.101435	-0.783203	-0.024414	-0.26001
1109.0	5.036171	-1.18733	9.846807	0.038515	-1.924256	-0.210899	-0.787354	-0.026611	-0.246338
1110.0	4.936961	-1.020772	9.996276	0.007124	-2.301157	-0.321699	-0.795654	-0.037842	-0.227783
1111.0	4.877961	-0.800525	10.022301	0.008917	-2.70746	-0.378887	-0.800293	-0.03125	-0.202881
1112.0	4.537852	-0.514242	10.33429	0.003202	-3.162196	-0.381081	-0.806152	-0.044434	-0.173096
1113.0	4.238416	-0.301733	10.775923	-0.06504	-3.751741	-0.347278	-0.812744	-0.04248	-0.141113
1114.0	3.858579	0.716834	11.376029	-0.176045	-4.514148	-0.256476	-0.814941	-0.044678	-0.104492
1115.0	3.155496	2.480319	11.834666	-0.448166	-5.45962	-0.035697	-0.823975	-0.03833	-0.061523
1116.0	2.363999	2.539188	12.160899	-0.826689	-6.696905	0.190563	-0.828125	-0.040771	0.000244
1117.0	2.328891	2.140143	12.874178	-1.055116	-7.874619	0.289464	-0.830566	-0.036621	0.068359
1118.0	3.853006	2.957452	12.78644	-1.074525	-8.777617	0.286926	-0.82373	-0.041016	0.130127
1119.0	9.382667	2.49311	12.601963	-0.968668	-9.531596	0.319313	-0.804199	-0.038818	0.214355
1120.0	20.769066	1.088509	12.588795	-0.757037	-9.95544	0.485354	-0.784668	-0.034668	0.289551
1121.0	30.488527	-0.080491	12.19548	-0.381373	-9.460911	0.786857	-0.754395	-0.028076	0.366699
1122.0	25.543185	1.369121	13.227903	-0.135891	-8.836377	1.26968	-0.724121	-0.023682	0.421387
1123.0	18.598019	4.22258	13.627789	-0.282472	-8.481823	1.670386	-0.692139	-0.010498	0.480225
1124.0	24.647811	4.197582	17.509982	-0.717535	-7.446024	2.044325	-0.659424	-0.006104	0.525879
1125.0	21.162392	-1.074761	17.705038	-0.575569	-7.183757	2.614804	-0.618652	0.00708	0.568848
1126.0	19.059884	-3.567648	20.986902	0.397009	-5.859697	2.211693	-0.588867	0.022461	0.602539
1127.0	19.993976	-2.77815	33.495264	2.330388	-2.435504	1.854417	-0.581055	0.046631	0.608887
1128.0	15.94583	3.398104	23.173188	2.003816	-0.171246	2.461283	-0.582031	0.066162	0.604004
1129.0	14.117278	6.122138	28.851532	1.628714	1.733961	2.254552	-0.59375	0.08374	0.594482
1130.0	-2.06582	7.084094	16.864763	1.053251	3.019685	2.162763	-0.611572	0.092285	0.573975
1131.0	-2.736078	5.011911	12.645196	0.56422	2.961822	1.775661	-0.623047	0.107666	0.557617
1132.0	-4.758846	4.423389	10.368532	0.491326	2.894066	1.321454	-0.634277	0.114014	0.54834
1133.0	-3.575654	3.552217	8.976591	0.520931	2.776326	0.825445	-0.647705	0.118408	0.525635
1134.0	-0.386286	3.760481	9.620778	0.596071	2.86466	0.363462	-0.656494	0.120605	0.523193
1135.0	1.032733	3.920103	9.713003	0.516549	3.1558	-0.021345	-0.674072	0.124756	0.509521
1136.0	2.391186	3.520921	10.057391	0.325283	3.524574	-0.346035	-0.695557	0.118164	0.484619
1137.0	2.955522	2.64558	9.842263	0.153723	3.937795	-0.619879	-0.719482	0.115967	0.46875
1138.0	3.769619	1.736387	9.407203	0.060326	4.320208	-0.836039	-0.740967	0.107178	0.44165
1139.0	4.448616	0.769103	8.955295	0.055543	4.66101	-0.9993	-0.760254	0.100586	0.407471
1140.0	4.993711	-0.088974	8.593037	0.122263	4.949421	-1.080984	-0.790283	0.0896	0.378174
1141.0	5.467069	-0.661205	8.313865	0.264097	5.18012	-1.081489	-0.80542	0.087402	0.341797
1142.0	6.148104	-1.098106	8.254725	0.424909	5.383613	-0.988635	-0.829102	0.078613	0.307861
1143.0	7.052006	-1.730608	8.338151	0.647494	5.543003	-0.847903	-0.848389	0.069824	0.26001
1144.0	7.853254	-1.998486	8.363721	0.94241	5.686411	-0.695814	-0.869873	0.06543	0.226074
1145.0	8.746315	-1.785818	8.537914	1.221671	5.78822	-0.557096	-0.882813	0.058838	0.185059
1146.0	9.611502	-1.921407	8.862506	1.482642	5.849254	-0.446258	-0.908691	0.052246	0.14209
1147.0	10.654533	-1.827096	9.231308	1.811435	5.894621	-0.415119	-0.932373	0.047852	0.10791
1148.0	11.420787	-0.704173	9.874708	2.059078	5.912649	-0.475824	-0.960205	0.036865	0.06958
1149.0	12.265762	-0.390135	10.714115	2.174464	5.866158	-0.616222	-0.995361	0.038818	0.032959
1150.0	13.834055	-0.114038	12.189536	2.257126	5.800196	-0.852299	-1.044922	0.025635	-0.012207
1151.0	17.006936	0.073812	13.942882	2.282348	5.743301	-1.208812	-1.096924	0.018799	-0.073486
1152.0	21.008712	-0.792335	14.721324	2.255436	5.777054	-1.713953	-1.161377	-0.000977	-0.145996
1153.0	24.442468	-3.121143	14.293693	2.328696	5.87995	-2.34326	-1.199463	-0.0271	-0.239014
1154.0	27.627049	-4.457467	13.444205	2.482019	6.014544	-2.950272	-1.2146	-0.08374	-0.342529
1155.0	31.063437	-4.866985	12.301252	2.458923	6.129285	-3.35625	-1.196533	-0.142334	-0.439453
1156.0	34.965035	-5.381675	10.599903	2.090102	6.313645	-3.501478	-1.161621	-0.194336	-0.518311
1157.0	36.73109	-7.017425	6.298319	1.712568	6.460757	-3.398337	-1.115967	-0.237549	-0.585938
1158.0	37.612743	-7.513035	-0.676016	1.519812	6.416138	-3.20984	-1.068359	-0.280762	-0.6604
1159.0	37.571875	-5.501049	-10.306964	1.306978	5.952487	-2.804945	-1.018799	-0.312988	-0.705322
1160.0	37.378084	-11.605993	-22.429578	1.427898	4.928085	-2.276921	-0.982178	-0.356201	-0.747803
1161.0	36.377713	-19.522236	-32.261454	2.90949	3.406661	-2.175365	-0.955811	-0.40625	-0.771973
1162.0	33.726119	-14.49955	-33.434142	4.064441	1.436249	-2.431547	-0.939941	-0.467285	-0.772949
1163.0	23.357675	7.892102	-23.471285	1.932686	-0.972072	-1.761325	-0.962646	-0.49585	-0.749512
1164.0	-1.393532	14.259141	-24.225907	-2.549457	-4.162177	0.611235	-1.022217	-0.480957	-0.718018
1165.0	2.451577	3.853562	34.193104	-4.38308	-6.503207	3.142347	-1.085938	-0.424805	-0.682617
1166.0	20.465028	-15.18188	17.972957	-5.512532	-4.138001	2.645632	-1.133545	-0.383545	-0.667236
1167.0	18.923095	-12.207337	3.725543	-2.962299	-4.136797	1.510466	-1.173584	-0.366455	-0.631104
1168.0	15.523685	-14.639699	15.125465	-1.268956	-4.266735	0.673129	-1.212646	-0.369141	-0.590088
1169.0	27.120705	-2.639568	24.579823	-1.221071	-3.340217	1.063319	-1.241943	-0.347412	-0.569824
1170.0	22.062051	1.601249	12.620885	-1.145976	-1.731806	0.996869	-1.253174	-0.338867	-0.544922
1171.0	2.893082	3.797479	7.042798	-0.723025	-1.682382	0.46638	-1.268311	-0.341309	-0.526611
1172.0	2.467136	0.739083	8.815386	-0.702686	-1.839029	0.447587	-1.283936	-0.334717	-0.510742
1173.0	10.110434	-1.808062	9.029693	-0.561499	-1.617437	0.560079	-1.295166	-0.326172	-0.492676
1174.0	14.947232	-1.58413	12.392608	-0.244548	-1.06358	0.481229	-1.302002	-0.323975	-0.483643
1175.0	7.87455	-3.748452	10.17028	-0.064778	-0.669929	0.336407	-1.302002	-0.319824	-0.472412
1176.0	5.765766	-1.519892	9.687784	0.025565	-0.500779	0.264994	-1.3125	-0.330811	-0.465332
1177.0	6.256415	-0.265292	9.902081	-0.015076	-0.382202	0.200222	-1.310791	-0.319824	-0.463135
1178.0	5.455222	-1.849032	9.699793	-0.055672	-0.298905	0.15842	-1.315186	-0.317627	-0.460938
1179.0	6.522792	-0.579546	9.444295	-0.014316	-0.232153	0.114281	-1.313232	-0.31543	-0.456543
1180.0	5.892633	-0.957089	9.222104	-0.021974	-0.202343	0.071345	-1.317383	-0.319824	-0.451904
1181.0	5.925272	-0.699035	9.195107	-0.001231	-0.177363	0.026645	-1.323975	-0.315674	-0.447266
1182.0	5.717194	-0.558107	9.266928	0.005993	-0.172436	-0.012851	-1.321777	-0.319824	-0.451904
1183.0	5.498105	0.531014	9.271845	-0.00356	-0.168496	-0.002707	-1.323975	-0.317871	-0.445068
1184.0	5.654627	0.483524	9.037721	-0.036029	-0.157037	0.038663	-1.322021	-0.315674	-0.442871
1185.0	5.755745	0.375936	8.947724	-0.0376	-0.148715	0.073794	-1.319824	-0.315674	-0.44043
1186.0	5.723244	0.208842	8.984316	-0.049192	-0.146366	0.095456	-1.326172	-0.317871	-0.433594
1187.0	5.820699	0.142422	8.97312	-0.058907	-0.148461	0.119803	-1.323975	-0.315674	-0.438232
1188.0	5.692741	-0.169947	8.96788	-0.063054	-0.152994	0.105699	-1.324219	-0.313477	-0.440674
1189.0	5.6111	-0.167233	9.016097	-0.056469	-0.153969	0.099416	-1.328613	-0.311279	-0.431396
1190.0	5.56035	-0.267337	9.034068	-0.056732	-0.179441	0.087545	-1.333008	-0.309082	-0.431396
1191.0	5.322408	-0.493105	9.066122	-0.026463	-0.239439	0.078379	-1.331055	-0.304688	-0.420166
1192.0	5.103424	-0.396759	9.101073	0.006931	-0.317484	0.055304	-1.335449	-0.306885	-0.424805
1193.0	5.556945	-0.480025	8.903881	0.036151	-0.422761	0.013663	-1.333496	-0.300537	-0.41333
1194.0	5.608893	-0.281179	8.812127	0.044771	-0.457422	-0.005844	-1.337646	-0.307129	-0.406494
1195.0	5.840361	-0.196739	8.575928	0.045718	-0.465652	-0.018277	-1.333252	-0.306885	-0.404297
1196.0	6.064755	-0.055928	8.358682	0.041724	-0.435689	-0.024161	-1.344238	-0.304932	-0.392822
1197.0	6.181505	0.164888	8.163873	0.036534	-0.364894	-0.012743	-1.339844	-0.304932	-0.39502
1198.0	6.228758	0.252639	8.14756	0.018979	-0.267317	0.006662	-1.343994	-0.307129	-0.392822
1199.0	6.110893	0.505259	8.259374	0.006938	-0.17599	0.042915	-1.342041	-0.302734	-0.383789
1200.0	5.977876	0.349306	8.437732	-0.012026	-0.113666	0.077358	-1.346436	-0.300537	-0.388428
1201.0	5.904132	0.157075	8.517405	-0.025717	-0.076351	0.107212	-1.351074	-0.29834	-0.379395
1202.0	5.904094	-0.370353	8.422438	-0.021141	-0.047328	0.090468	-1.346436	-0.304932	-0.383789
1203.0	5.869314	-0.510781	8.551153	-0.004264	-0.03955	0.053815	-1.34668	-0.296143	-0.383789
1204.0	5.768261	-0.407382	8.676718	0.003479	-0.057427	0.03313	-1.346436	-0.302734	-0.383789
1205.0	5.632919	-0.406008	8.845768	0.014926	-0.11594	0.0205	-1.348877	-0.29834	-0.379395
1206.0	5.554148	-0.224244	8.937494	0.023544	-0.188841	0.008034	-1.342285	-0.29834	-0.379395
1207.0	5.649535	-0.269467	8.747938	0.046739	-0.261261	0.006651	-1.357666	-0.294189	-0.370361
1208.0	5.688339	-0.399063	8.696603	0.073787	-0.319938	-0.016328	-1.359863	-0.296387	-0.372559
1209.0	5.615025	-0.282942	8.806538	0.108556	-0.37301	-0.051301	-1.353271	-0.298584	-0.365723
1210.0	5.406064	-0.026709	9.102316	0.131616	-0.456728	-0.079331	-1.35083	-0.302979	-0.356445
1211.0	5.172155	-0.024127	9.454033	0.15778	-0.619299	-0.092335	-1.351074	-0.298584	-0.342773
1212.0	4.9978	-0.016378	9.652934	0.183206	-0.845435	-0.11175	-1.359375	-0.305176	-0.338135
1213.0	4.90933	-0.217829	9.647445	0.213515	-1.123422	-0.140243	-1.368164	-0.307373	-0.317627
1214.0	4.976025	-0.36379	9.685022	0.243559	-1.41764	-0.180519	-1.376709	-0.307617	-0.299316
1215.0	5.017655	-0.558499	9.55448	0.268156	-1.722527	-0.248233	-1.383301	-0.307617	-0.271973
1216.0	5.123042	-0.645231	9.574454	0.292114	-2.044956	-0.321066	-1.385254	-0.312012	-0.244385
1217.0	5.141408	-0.22969	9.740277	0.285892	-2.388691	-0.36153	-1.393799	-0.314453	-0.212646
1218.0	4.867383	-0.154853	10.166289	0.232406	-2.79057	-0.367046	-1.399902	-0.325439	-0.173584
1219.0	4.619505	0.307125	10.663914	0.136181	-3.288425	-0.352849	-1.410889	-0.325684	-0.121094
1220.0	4.140664	0.898508	11.149917	-0.003458	-3.95363	-0.302325	-1.417236	-0.325928	-0.068604
1221.0	3.670855	1.143665	11.30663	-0.18243	-4.786587	-0.255902	-1.423584	-0.33252	-0.000244
1222.0	3.397654	1.541022	11.618889	-0.362137	-5.787275	-0.198184	-1.430176	-0.332764	0.086426
1223.0	3.254303	1.500183	12.144305	-0.522841	-6.780233	-0.159799	-1.426025	-0.326416	0.175293
1224.0	3.748394	1.758893	12.012478	-0.503798	-7.598476	-0.171071	-1.421387	-0.331055	0.282471
1225.0	6.000398	1.729976	12.093125	-0.366537	-8.312023	-0.207427	-1.407959	-0.337891	0.396484
1226.0	13.43304	1.473826	11.683754	-0.113587	-8.922471	-0.196438	-1.379639	-0.335938	0.519531
1227.0	25.020578	1.185762	12.626755	0.164663	-8.876581	-0.020815	-1.345459	-0.322754	0.628662
1228.0	24.632228	0.066634	11.382124	0.724872	-8.119403	0.258634	-1.304932	-0.303223	0.723877
1229.0	19.404935	4.508332	11.035216	0.878697	-7.521563	0.733674	-1.262207	-0.279053	0.798584
1230.0	15.654529	5.343818	11.224142	0.436424	-7.315369	1.243756	-1.215576	-0.248291	0.875244
1231.0	21.118338	0.306747	13.447064	0.310644	-6.961245	1.768361	-1.163086	-0.206787	0.933594
1232.0	22.578663	0.759253	14.810633	0.547596	-6.354961	2.316372	-1.121338	-0.162842	0.969238
1233.0	13.516366	4.202901	16.397281	0.554879	-5.046508	2.460556	-1.091064	-0.108154	0.981934
1234.0	18.620998	-2.316344	28.389619	1.083674	-2.481414	2.842416	-1.091064	-0.057861	0.969482
1235.0	11.587786	-3.157633	18.785444	1.174817	-0.431472	3.814238	-1.096436	0.011963	0.929443
1236.0	15.83742	0.698235	24.43491	1.750698	1.287541	3.825745	-1.108398	0.081787	0.864258
1237.0	1.557538	2.755849	13.902751	1.781132	2.834976	4.117862	-1.124512	0.149658	0.778564
1238.0	-1.235276	4.869687	10.092742	1.70003	3.073213	3.937936	-1.134033	0.217529	0.695068
1239.0	-3.626465	5.537538	7.662148	1.495163	3.017698	3.684471	-1.123779	0.278809	0.62793
1240.0	-4.295105	5.977326	6.298363	1.252825	2.761776	3.259218	-1.119141	0.322754	0.558594
1241.0	-2.171844	5.51322	6.516054	1.101292	2.585485	2.635216	-1.099121	0.360107	0.487061
1242.0	0.500841	5.211973	7.175313	1.098631	2.694547	1.836104	-1.082764	0.386475	0.413818
1243.0	2.526351	5.532635	7.704335	1.157904	3.026919	0.919122	-1.059326	0.399902	0.338135
1244.0	3.758273	6.47568	8.16493	1.053677	3.465419	0.029328	-1.033447	0.402588	0.274414
1245.0	3.882595	6.544347	7.871629	0.730248	3.884409	-0.735117	-1.0	0.387695	0.208496
1246.0	3.785292	5.411872	7.409736	0.358772	4.170921	-1.326524	-0.958008	0.375	0.15625
1247.0	4.046202	3.078351	6.925068	0.170003	4.333862	-1.748776	-0.908936	0.351318	0.115723
1248.0	4.589234	0.706191	6.729734	0.28405	4.446865	-2.000987	-0.861816	0.323242	0.084229
1249.0	5.481764	-0.882869	7.031006	0.639993	4.517763	-2.091796	-0.821777	0.303955	0.080078
1250.0	7.074486	-1.647548	7.54872	1.015522	4.617394	-2.032493	-0.792725	0.286621	0.08252
1251.0	8.530239	-2.464986	7.940856	1.347069	4.741063	-1.852018	-0.790527	0.291016	0.093994
1252.0	9.235208	-3.207154	8.097673	1.700965	4.858281	-1.598512	-0.806396	0.301758	0.09375
1253.0	9.650075	-3.66832	8.234192	2.025928	4.925121	-1.328704	-0.839844	0.319092	0.061523
1254.0	10.242383	-4.143934	8.124883	2.337478	4.918466	-1.055882	-0.875	0.321289	0.01123
1255.0	10.672933	-4.139119	8.172736	2.616769	4.861082	-0.816589	-0.888184	0.325684	-0.059326
1256.0	11.033223	-3.573422	8.301185	2.789472	4.741372	-0.61711	-0.889404	0.306152	-0.138672
1257.0	11.395767	-2.637384	8.816618	2.771853	4.584075	-0.49572	-0.85791	0.284668	-0.183838
1258.0	11.691026	-2.28914	9.706127	2.592992	4.416299	-0.48091	-0.844238	0.269531	-0.201904
1259.0	12.253449	-2.523394	10.787731	2.459126	4.255157	-0.565775	-0.8396	0.265381	-0.224609
1260.0	13.612985	-3.342808	11.700124	2.455742	4.108234	-0.764753	-0.866455	0.280518	-0.256836
1261.0	15.638731	-4.422817	12.39259	2.641458	3.988253	-1.076456	-0.884521	0.291504	-0.318604
1262.0	18.086059	-4.96322	12.767515	2.871044	3.966952	-1.397852	-0.899658	0.289551	-0.421143
1263.0	20.267898	-5.213452	12.863201	2.977791	4.040282	-1.624877	-0.878906	0.263672	-0.525391
1264.0	21.993917	-6.69195	12.244832	2.951088	4.171431	-1.718186	-0.818115	0.218506	-0.599854
1265.0	23.076805	-9.551868	10.924641	2.974031	4.322498	-1.692887	-0.737305	0.168945	-0.653564
1266.0	23.386919	-12.580059	8.786191	3.200335	4.413338	-1.594304	-0.66333	0.125732	-0.666504
1267.0	24.493381	-13.342385	6.791742	3.441787	4.426811	-1.378061	-0.598633	0.093506	-0.656738
1268.0	25.414581	-11.770251	4.378885	3.333158	4.477689	-1.023571	-0.549805	0.073975	-0.64502
1269.0	25.018931	-9.073195	0.454878	2.623841	4.40649	-0.563529	-0.512695	0.072021	-0.638184
1270.0	24.886151	-8.588374	-5.236581	1.649725	4.019077	0.006998	-0.486328	0.070068	-0.635986
1271.0	26.222192	-13.282906	-12.660027	1.330508	3.334097	0.616499	-0.468994	0.072266	-0.631592
1272.0	26.736921	-19.151438	-19.38764	2.20087	2.341552	0.979902	-0.455566	0.063721	-0.626709
1273.0	24.08793	-15.412573	-20.947239	3.154217	1.104691	0.974974	-0.452637	0.046143	-0.61499
1274.0	16.586685	5.133249	-11.7435	1.433181	-0.405924	1.343744	-0.455322	0.057129	-0.60376
1275.0	5.344763	9.370891	-9.678476	-3.653842	-2.298916	2.538252	-0.472412	0.096191	-0.577148
1276.0	6.702159	-12.851344	24.319179	-3.887702	-2.805653	3.265763	-0.482422	0.124512	-0.557373
1277.0	0.014571	10.710096	19.837121	-4.104419	-2.184851	2.752738	-0.488525	0.165771	-0.530762
1278.0	-0.427454	-8.815171	-0.212477	-4.113083	-3.149089	2.337867	-0.504639	0.183105	-0.494629
1279.0	9.922471	-9.685906	10.768532	-1.880575	-3.75575	0.956797	-0.522461	0.193848	-0.465088
1280.0	25.665099	5.200449	25.118638	-2.210127	-2.931266	0.685616	-0.531982	0.208984	-0.437988
1281.0	20.413016	-2.853981	9.672183	-1.917135	-1.547039	0.177308	-0.538818	0.215332	-0.426758
1282.0	9.031781	-9.392761	9.264237	-1.022065	-1.475725	-0.145174	-0.549561	0.213135	-0.408447
1283.0	4.739945	-4.977303	8.573132	-0.370139	-1.348269	0.15015	-0.553955	0.215332	-0.397217
1284.0	5.127474	4.65552	9.211175	-0.315957	-1.371732	0.189976	-0.556152	0.215088	-0.388184
1285.0	6.174319	2.205745	9.419575	-0.572085	-1.337113	0.1827	-0.560791	0.219482	-0.383545
1286.0	10.236049	-4.202139	10.201812	-0.529799	-1.02286	0.32768	-0.569336	0.215088	-0.365234
1287.0	8.387541	-2.066328	9.875332	-0.299023	-0.694285	0.352406	-0.565186	0.223877	-0.36084
1288.0	6.908074	-1.376956	9.698083	-0.267678	-0.498849	0.270567	-0.569824	0.22583	-0.354004
1289.0	7.146599	-2.393961	9.46115	-0.164472	-0.342282	0.19797	-0.569824	0.228027	-0.354004
1290.0	6.88641	-1.09803	9.074196	-0.054841	-0.205747	0.11472	-0.567383	0.223877	-0.354004
1291.0	6.394355	-0.963173	9.122313	0.002698	-0.088038	0.054728	-0.567627	0.228027	-0.356445
1292.0	5.984078	-0.613372	8.950841	0.033426	-0.076116	0.022873	-0.571777	0.223633	-0.347168
1293.0	5.620969	0.094142	9.035382	0.033743	-0.066428	0.008127	-0.571777	0.22583	-0.347168
1294.0	5.546279	0.366642	9.11504	0.02858	-0.049535	0.019911	-0.580566	0.22583	-0.349609
1295.0	5.808211	0.474516	9.030094	0.007674	-0.047162	0.036083	-0.574219	0.230225	-0.351807
1296.0	5.882385	0.24732	8.821626	-0.006633	-0.043919	0.049929	-0.56958	0.22168	-0.354004
1297.0	5.973008	0.23257	8.808115	-0.01166	-0.042854	0.056202	-0.571777	0.223633	-0.354004
1298.0	5.87915	0.080066	8.777689	-0.016082	-0.042591	0.059526	-0.56958	0.223633	-0.351807
1299.0	5.91052	-0.018419	8.810686	-0.0251	-0.051409	0.054206	-0.571777	0.22583	-0.347168
1300.0	5.834462	-0.071043	8.762619	-0.034294	-0.050354	0.045732	-0.573975	0.221436	-0.349365
1301.0	5.778282	-0.162337	8.74668	-0.02601	-0.05529	0.031236	-0.569824	0.228027	-0.347168
1302.0	5.698105	-0.150702	8.814118	-0.022966	-0.061866	0.011123	-0.571777	0.22583	-0.340332
1303.0	5.656046	-0.076691	8.896217	-0.022578	-0.072037	-0.003833	-0.576172	0.22583	-0.344971
1304.0	5.683903	-0.078583	8.841327	-0.022656	-0.084666	-0.012626	-0.572021	0.228027	-0.347168
1305.0	5.680642	-0.072587	8.795998	-0.024629	-0.096821	-0.02656	-0.576416	0.228027	-0.342773
1306.0	5.696338	-0.109196	8.722685	-0.018177	-0.099384	-0.032252	-0.578613	0.232422	-0.347412
1307.0	5.697919	-0.201818	8.642968	-0.008409	-0.117595	-0.05701	-0.576416	0.228027	-0.344971
1308.0	5.77258	-0.064762	8.685809	0.003143	-0.109723	-0.076279	-0.580566	0.22583	-0.344971
1309.0	5.765632	0.026051	8.684484	-0.003654	-0.100762	-0.077107	-0.576416	0.228027	-0.342773
1310.0	5.888527	0.278591	8.689219	-0.006959	-0.08625	-0.074112	-0.580811	0.228027	-0.342773
1311.0	5.761478	0.280957	8.619175	-0.012365	-0.057642	-0.057903	-0.578613	0.228027	-0.342773
1312.0	5.796356	0.254182	8.617471	-0.011147	-0.034782	-0.04413	-0.582764	0.22583	-0.338135
1313.0	5.838098	0.1942	8.608867	-0.013284	-0.014052	-0.030827	-0.578125	0.221436	-0.338135
1314.0	5.800336	0.072725	8.687634	-0.011294	-0.0004	-0.027543	-0.584961	0.22583	-0.340332
1315.0	5.692177	0.062453	8.761717	-0.010716	0.001385	-0.025114	-0.578613	0.230225	-0.349609
1316.0	5.777088	0.009071	8.772307	-0.00992	-0.010804	-0.014295	-0.578369	0.223633	-0.347168
1317.0	5.741375	0.094555	8.827013	-0.023656	-0.015852	-0.001343	-0.580811	0.230225	-0.344971
1318.0	5.698003	0.06288	8.81883	-0.030134	-0.038202	0.011342	-0.580566	0.22583	-0.344971
1319.0	5.725787	0.084147	8.813633	-0.034705	-0.061042	0.02914	-0.580811	0.232422	-0.342773
1320.0	5.726858	0.011016	8.784305	-0.028635	-0.07677	0.034756	-0.580811	0.230225	-0.338135
