Acquisition frequency: 100 Hz
PacketCounter	Acc_X	Acc_Y	Acc_Z	Gyr_X	Gyr_Y	Gyr_Z	Mag_X	Mag_Y	Mag_Z
0.0	8.516915	1.49901	5.128685	0.011881	0.007441	0.015054	-0.352539	0.01123	-0.755371
1.0	8.516976	1.498302	5.12879	0.007171	-0.001607	0.01304	-0.35498	0.01123	-0.757813
2.0	8.54909	1.505688	5.101658	0.005925	-0.005559	0.013195	-0.354736	0.009033	-0.76001
3.0	8.58122	1.513064	5.074493	0.001288	-0.003331	0.009505	-0.35498	0.01123	-0.753174
4.0	8.589528	1.523296	5.042238	0.004618	-0.005048	0.004109	-0.35498	0.01123	-0.755371
5.0	8.585304	1.501291	5.05218	-0.004361	-0.003934	0.004174	-0.348389	0.015625	-0.755615
6.0	8.609202	1.498599	5.057083	0.003876	-0.001123	-0.000164	-0.350342	0.01123	-0.757813
7.0	8.648524	1.483379	5.099316	0.00216	0.005608	-0.006917	-0.352783	0.015625	-0.753174
8.0	8.620933	1.497711	5.116103	0.00138	0.003895	-0.010353	-0.348145	0.009033	-0.76001
9.0	8.666894	1.461231	5.115641	0.004299	0.008396	-0.013413	-0.350586	0.013428	-0.753174
10.0	8.674249	1.473108	5.084525	0.001415	0.009532	-0.011189	-0.35498	0.01123	-0.757813
11.0	8.638306	1.477075	5.133662	0.002874	0.011782	-0.012717	-0.352783	0.013428	-0.760254
12.0	8.633073	1.456369	5.144943	0.003185	0.011258	-0.005691	-0.352539	0.01123	-0.755371
13.0	8.584911	1.462344	5.13555	0.007742	0.010672	-0.010819	-0.352539	0.01123	-0.757813
14.0	8.559532	1.433174	5.120015	0.004393	0.009571	-0.005006	-0.352539	0.01123	-0.76001
15.0	8.579309	1.442423	5.147224	0.008252	0.00563	-0.00475	-0.35498	0.01123	-0.755371
16.0	8.567678	1.477822	5.100412	0.005152	0.008466	-0.001152	-0.352539	0.009033	-0.755371
17.0	8.586606	1.453921	5.116328	0.003677	0.003397	0.000796	-0.352783	0.013428	-0.757813
18.0	8.562638	1.45663	5.111513	0.005135	0.005647	-0.000733	-0.352539	0.009033	-0.755371
19.0	8.609923	1.451798	5.12207	0.003444	0.002279	0.002591	-0.357178	0.01123	-0.76001
20.0	8.617718	1.462718	5.090513	0.003149	0.005618	-0.004852	-0.350342	0.01123	-0.757813
21.0	8.617341	1.462918	5.091093	-0.006278	0.007311	-0.001624	-0.350586	0.015625	-0.760254
22.0	8.620626	1.451724	5.070019	-0.003876	0.001121	0.000162	-0.352539	0.01123	-0.753174
23.0	8.616924	1.462592	5.091894	-0.006062	0.005611	-0.002999	-0.354736	0.009033	-0.748291
24.0	8.573723	1.489043	5.071717	-0.008746	0.002228	-0.001736	-0.352539	0.009033	-0.757568
25.0	8.598352	1.518938	5.088295	-0.01219	-5.1e-05	-0.004326	-0.352539	0.009033	-0.764648
26.0	8.593871	1.497056	5.09865	-0.014426	-0.004016	-0.006233	-0.352539	0.009033	-0.755371
27.0	8.589567	1.475346	5.108655	-0.011559	-0.007969	-0.008037	-0.350342	0.009033	-0.750732
28.0	8.597846	1.486103	5.076341	-0.013996	-0.007417	-0.008983	-0.354736	0.006836	-0.75293
29.0	8.593433	1.465042	5.086345	-0.006523	-0.003498	-0.017165	-0.350342	0.009033	-0.755371
30.0	8.621706	1.485149	5.080828	-0.011875	-0.007448	-0.015055	-0.348145	0.01123	-0.762451
31.0	8.650121	1.505104	5.075105	-0.011661	-0.009149	-0.016429	-0.35498	0.015625	-0.755615
32.0	8.629207	1.464685	5.036535	-0.01312	-0.011402	-0.014898	-0.352783	0.013428	-0.760254
33.0	8.649799	1.473772	5.062401	-0.016784	-0.011985	-0.016107	-0.348145	0.013428	-0.755371
34.0	8.633449	1.454742	5.013455	-0.013571	-0.010824	-0.011724	-0.350586	0.013428	-0.760254
35.0	8.653053	1.43102	5.028194	-0.013342	-0.009706	-0.013515	-0.35498	0.013428	-0.755371
36.0	8.672531	1.407753	5.043027	-0.00045	-0.006288	-0.014581	-0.348145	0.01123	-0.762451
37.0	8.64455	1.389438	5.047568	-0.002585	-0.00908	-0.00809	-0.357178	0.01123	-0.750732
38.0	8.700115	1.396103	5.025554	0.005232	-3.9e-05	-0.010089	-0.350342	0.006836	-0.755127
39.0	8.712168	1.394943	5.084117	0.008463	0.003942	-0.006127	-0.359375	0.009033	-0.75293
40.0	8.667871	1.389904	5.052612	0.013351	0.005659	-0.004652	-0.35498	0.01123	-0.753174
41.0	8.667528	1.390833	5.052945	0.012905	0.006239	-0.001483	-0.35498	0.01123	-0.753174
42.0	8.64784	1.415729	5.037983	0.017576	0.009655	0.001369	-0.350342	0.009033	-0.757568
43.0	8.664145	1.435805	5.086692	0.014677	0.007968	0.004009	-0.359375	0.01123	-0.753174
44.0	8.648064	1.449344	5.05015	0.021769	0.008014	0.008226	-0.352539	0.01123	-0.755371
45.0	8.620482	1.463329	5.066927	0.023439	0.008564	0.005326	-0.350342	0.01123	-0.753174
46.0	8.608543	1.464383	5.120807	0.023451	0.011381	0.004912	-0.352539	0.01123	-0.755371
47.0	8.616018	1.475747	5.08963	0.022007	0.011946	0.006025	-0.348145	0.01123	-0.755371
48.0	8.639315	1.473881	5.095353	0.02199	0.009126	0.006446	-0.35498	0.01123	-0.753174
49.0	8.618695	1.46606	5.069178	0.02366	0.009675	0.003546	-0.359375	0.01123	-0.753174
50.0	8.633009	1.421132	5.095583	0.023441	0.011374	0.004925	-0.357178	0.009033	-0.757568
51.0	8.641472	1.46514	5.075519	0.024431	0.011388	0.006987	-0.35498	0.01123	-0.757813
52.0	8.664557	1.463618	5.081518	0.02757	0.017002	0.002143	-0.352539	0.01123	-0.76001
53.0	8.632245	1.456138	5.108968	0.024955	0.009169	0.012642	-0.354736	0.006836	-0.755127
54.0	8.690726	1.451269	5.066742	0.030324	0.018746	0.009705	-0.357178	0.009033	-0.76001
55.0	8.662652	1.465425	5.084244	0.034968	0.01934	0.012991	-0.354736	0.006836	-0.755127
56.0	8.666324	1.487646	5.0751	0.034743	0.021037	0.014374	-0.354736	0.009033	-0.750732
57.0	8.645265	1.479435	5.049818	0.03551	0.022751	0.017818	-0.350342	0.009033	-0.750732
58.0	8.616118	1.460499	5.05651	0.03307	0.023299	0.016874	-0.354736	0.009033	-0.755371
59.0	8.619735	1.482403	5.047559	0.033281	0.021593	0.015509	-0.350342	0.01123	-0.76001
60.0	8.642727	1.480035	5.053984	0.032576	0.018246	0.0209	-0.352539	0.009033	-0.755371
61.0	8.614654	1.493944	5.071491	0.037606	0.022686	0.011788	-0.350342	0.006836	-0.755127
62.0	8.624605	1.461372	5.008141	0.039533	0.014269	0.017186	-0.352539	0.009033	-0.76001
63.0	8.673457	1.52243	5.041389	0.038551	0.017062	0.014711	-0.348145	0.009033	-0.750732
64.0	8.700052	1.509679	5.026096	0.046079	0.019321	0.015383	-0.350342	0.006836	-0.76001
65.0	8.695619	1.522069	5.048656	0.05042	0.023227	0.01124	-0.350342	0.009033	-0.757568
66.0	8.66723	1.537277	5.066271	0.051644	0.027164	0.011103	-0.352783	0.013428	-0.760254
67.0	8.637552	1.519855	5.073383	0.050454	0.03447	0.009583	-0.35498	0.015625	-0.762451
68.0	8.583937	1.504695	5.075675	0.046118	0.036183	0.012909	-0.352539	0.009033	-0.757568
69.0	8.529406	1.456668	5.066934	0.045326	0.031638	0.00991	-0.35498	0.013428	-0.755371
70.0	8.496106	1.449928	5.095618	0.046827	0.032263	0.017227	-0.3479	0.004639	-0.755127
71.0	8.440251	1.47836	5.129627	0.048683	0.025458	0.013822	-0.345703	0.009033	-0.757568
72.0	8.458564	1.45528	5.14647	0.045275	0.015946	0.020902	-0.34375	0.01123	-0.76001
73.0	8.478238	1.46441	5.173744	0.044792	0.013723	0.024508	-0.345703	0.004639	-0.757568
74.0	8.493522	1.451559	5.211318	0.04043	0.009821	0.02867	-0.350098	0.006836	-0.74585
75.0	8.498016	1.47287	5.201034	0.04308	0.010366	0.027856	-0.350342	0.006836	-0.757568
76.0	8.591051	1.540075	5.153654	0.041629	0.010937	0.028968	-0.350342	0.006836	-0.755127
77.0	8.607407	1.559869	5.090181	0.029782	0.01042	0.031586	-0.354736	0.004639	-0.750488
78.0	8.636632	1.610609	5.096302	0.02783	0.013188	0.027026	-0.3479	0.002441	-0.755127
79.0	8.619785	1.589905	5.049061	0.027321	0.015377	0.021366	-0.352539	0.006836	-0.750488
80.0	8.633738	1.543853	5.076446	0.021257	0.015365	0.019152	-0.350098	0.004639	-0.755127
81.0	8.613191	1.534896	5.050597	0.024817	0.011898	0.012419	-0.359375	0.009033	-0.755371
82.0	8.632847	1.543976	5.077925	0.022856	0.011856	0.008278	-0.352539	0.006836	-0.76001
83.0	8.601491	1.569669	5.115898	0.025733	0.010694	0.006087	-0.350342	0.009033	-0.750732
84.0	8.596351	1.548733	5.127118	0.016795	0.011846	0.00606	-0.352295	0.004639	-0.759766
85.0	8.619473	1.546709	5.133258	0.016054	0.01293	0.00219	-0.343506	0.009033	-0.757568
86.0	8.579612	1.562793	5.091652	0.021385	0.01683	0.000119	-0.348145	0.009033	-0.757568
87.0	8.565814	1.531866	5.135391	0.01804	0.018592	0.005486	-0.352539	0.006836	-0.75293
88.0	8.532999	1.524625	5.163258	0.01682	0.017464	0.005215	-0.352295	0.004639	-0.757568
89.0	8.55486	1.48974	5.159025	0.018018	0.015778	0.00592	-0.354736	0.006836	-0.757568
90.0	8.52698	1.503949	5.175846	0.017982	0.010155	0.00678	-0.352295	0.004639	-0.755127
91.0	8.56234	1.500478	5.128279	0.0199	0.004575	0.011787	-0.350342	0.006836	-0.757568
92.0	8.558722	1.511731	5.149623	0.013831	0.001759	0.009986	-0.3479	0.004639	-0.755127
93.0	8.565793	1.489351	5.107173	0.020859	0.008988	0.004594	-0.350342	0.006836	-0.76001
94.0	8.565561	1.489837	5.107421	0.020359	0.003969	0.008624	-0.3479	0.004639	-0.759766
95.0	8.5382	1.504117	5.123349	0.019604	0.002239	0.005181	-0.354736	0.006836	-0.759766
96.0	8.549036	1.4706	5.05929	0.020578	0.00226	0.007259	-0.3479	0.004639	-0.755127
97.0	8.597426	1.498884	5.080631	0.020817	0.003362	0.005461	-0.3479	0.002441	-0.750488
98.0	8.593778	1.510865	5.101805	0.019823	0.000529	0.003818	-0.350098	0.004639	-0.755127
99.0	8.600997	1.489076	5.058948	0.020526	0.001025	-0.001151	-0.350342	0.006836	-0.755127
100.0	8.600905	1.490122	5.058797	0.024908	0.003318	0.003554	-0.352295	0.004639	-0.759766
101.0	8.612404	1.490139	5.117476	0.024653	0.0066	-0.00392	-0.352539	0.006836	-0.75293
102.0	8.577836	1.528314	5.064006	0.029444	-0.000143	-0.001089	-0.3479	0.004639	-0.75293
103.0	8.601504	1.527305	5.068947	0.028002	0.000439	8e-06	-0.352295	0.004639	-0.757568
104.0	8.573204	1.509779	5.073693	0.030396	-0.002934	0.001427	-0.345703	0.004639	-0.759766
105.0	8.606608	1.55145	5.056758	0.027703	-0.009096	0.003114	-0.3479	0.002441	-0.757324
106.0	8.625121	1.495622	5.060893	0.027218	-0.011299	0.00672	-0.3479	0.006836	-0.757568
107.0	8.622166	1.50765	5.080869	0.024338	-0.010132	0.008909	-0.348145	0.009033	-0.755371
108.0	8.613414	1.465461	5.100978	0.032055	-0.009617	0.008264	-0.343262	0.004639	-0.755127
109.0	8.622392	1.476185	5.067653	0.025529	-0.011821	0.009628	-0.357178	0.009033	-0.757568
110.0	8.638483	1.464327	5.103606	0.030832	-0.010747	0.007999	-0.345947	0.01123	-0.755371
111.0	8.639108	1.465061	5.102338	0.029168	-0.008453	0.010463	-0.3479	0.004639	-0.755127
112.0	8.643225	1.454206	5.080022	0.033784	-0.005059	0.013371	-0.352295	0.004639	-0.759766
113.0	8.624714	1.478913	5.062905	0.034464	-0.007384	0.008842	-0.350098	0.004639	-0.75293
114.0	8.640507	1.467488	5.09927	0.03932	-0.002893	0.009948	-0.354736	0.004639	-0.75293
115.0	8.659842	1.444791	5.114425	0.041946	-0.00517	0.009579	-0.352295	0.004639	-0.750488
116.0	8.641316	1.470109	5.097144	0.04457	-0.007449	0.009212	-0.345459	0.002441	-0.755127
117.0	8.611015	1.496731	5.133008	0.042422	-0.00735	0.015285	-0.352295	0.004639	-0.757568
118.0	8.584511	1.511404	5.147419	0.041912	-0.012359	0.019345	-0.352539	0.006836	-0.757568
119.0	8.588895	1.500547	5.124647	0.045789	-0.007898	0.018375	-0.350098	0.004639	-0.755127
120.0	8.621542	1.508592	5.09664	0.044344	-0.007314	0.019476	-0.3479	0.002441	-0.757324
121.0	8.596143	1.555787	5.121667	0.042196	-0.007209	0.025551	-0.350098	0.002441	-0.752686
122.0	8.600283	1.544349	5.099452	0.042473	-0.0005	0.02287	-0.352295	0.002441	-0.759766
123.0	8.585228	1.556956	5.061409	0.039086	3.4e-05	0.019807	-0.354736	0.004639	-0.757568
124.0	8.581872	1.568815	5.082178	0.040315	0.003961	0.019646	-0.354492	0.002441	-0.750488
125.0	8.62933	1.564055	5.092643	0.034282	0.003966	0.017392	-0.356934	0.004639	-0.755127
126.0	8.63398	1.585841	5.081816	0.034785	0.008961	0.013339	-0.361328	0.000244	-0.757324
127.0	8.676558	1.559715	5.103371	0.0222	0.001172	0.01332	-0.350098	0.004639	-0.755127
128.0	8.649414	1.574035	5.118982	0.022904	0.001645	0.008346	-0.345215	-0.00415	-0.75708
129.0	8.643572	1.520098	5.119243	0.01904	-6e-06	0.008885	-0.354736	0.004639	-0.75293
130.0	8.593923	1.570159	5.13977	0.023363	0.001021	0.005181	-0.345703	0.006836	-0.750488
131.0	8.552527	1.519794	5.076052	0.020714	0.000492	0.005995	-0.354736	0.004639	-0.75293
132.0	8.543162	1.477677	5.097402	0.024306	-0.001763	0.007717	-0.350098	0.002441	-0.755127
133.0	8.543287	1.478314	5.097009	0.027944	0.001599	0.008546	-0.350098	0.002441	-0.757324
134.0	8.511521	1.471655	5.123187	0.029833	-0.003966	0.013615	-0.354492	0.002441	-0.757324
135.0	8.528554	1.492931	5.169989	0.032915	-0.006873	0.010089	-0.352539	0.009033	-0.750732
136.0	8.570602	1.54353	5.120349	0.036282	-0.007416	0.013178	-0.352295	0.002441	-0.750488
137.0	8.598397	1.52992	5.103414	0.033411	-0.006228	0.015356	-0.352295	0.004639	-0.755127
138.0	8.608464	1.572762	5.080611	0.030541	-0.005039	0.017532	-0.3479	0.002441	-0.750488
139.0	8.604102	1.551397	5.090862	0.024327	-0.000501	0.01617	-0.354492	-0.001953	-0.754883
140.0	8.632912	1.57006	5.08472	0.025731	-0.003908	0.015541	-0.349854	-0.001953	-0.759521
141.0	8.657206	1.567172	5.089141	0.01437	-0.010557	0.01579	-0.359131	0.004639	-0.757568
142.0	8.626033	1.558101	5.00276	0.012404	-0.013424	0.012074	-0.356689	0.000244	-0.754883
143.0	8.604517	1.59347	5.006095	0.013302	-0.017485	0.006188	-0.361328	0.002441	-0.757324
144.0	8.600805	1.572298	5.015171	0.007477	-0.021994	0.003008	-0.350098	0.004639	-0.757568
145.0	8.597253	1.551209	5.023959	0.004296	-0.025982	-0.000982	-0.356689	0.002441	-0.74585
146.0	8.595037	1.563134	5.042823	0.000679	-0.026534	-0.002254	-0.3479	0.002441	-0.752686
147.0	8.643652	1.558432	5.051243	0.003565	-0.024922	-0.004873	-0.354736	0.006836	-0.75293
148.0	8.63987	1.537696	5.060343	0.001001	-0.017018	-0.005424	-0.352295	0.002441	-0.759766
149.0	8.686822	1.499996	5.059239	0.001726	-0.018081	-0.001524	-0.352295	0.004639	-0.757568
150.0	8.641134	1.427772	5.005703	-0.000621	-0.011894	-0.003434	-0.354248	-0.00415	-0.759521
151.0	8.665362	1.425554	5.009997	0.006609	-0.010791	-0.000887	-0.356934	0.004639	-0.755127
152.0	8.613709	1.409664	5.009401	0.008577	-0.007924	0.002828	-0.352295	0.000244	-0.759521
153.0	8.66636	1.426019	5.008138	0.016749	-0.009602	0.007916	-0.356689	0.002441	-0.752686
154.0	8.64326	1.428881	5.001715	0.025407	-0.009099	0.009381	-0.356689	0.000244	-0.757324
155.0	8.667572	1.42677	5.005827	0.032389	-0.00909	0.013746	-0.359131	0.004639	-0.750488
156.0	8.696524	1.446117	4.999113	0.041098	-0.002972	0.014303	-0.345459	0.000244	-0.752686
157.0	8.720612	1.444049	5.003592	0.038958	-0.002839	0.020379	-0.358887	0.000244	-0.754883
158.0	8.710331	1.477675	4.954379	0.043778	-0.001174	0.021937	-0.356689	0.000244	-0.759521
159.0	8.688347	1.513692	4.958345	0.044443	-0.003529	0.017423	-0.356934	0.006836	-0.755127
160.0	8.70911	1.523267	4.983715	0.041303	-0.006232	0.021875	-0.359131	0.002441	-0.759766
161.0	8.690785	1.547396	4.966262	0.040571	-0.005178	0.017982	-0.354492	0.002441	-0.755127
162.0	8.672442	1.571734	4.948767	0.040778	-0.006903	0.016637	-0.354492	0.002441	-0.750488
163.0	8.641126	1.565438	4.974342	0.038589	-0.008056	0.014286	-0.354492	-0.001953	-0.761963
164.0	8.614742	1.580252	4.98868	0.035665	-0.012474	0.017384	-0.354492	0.002441	-0.755127
165.0	8.634529	1.556982	5.003346	0.032968	-0.014291	0.009772	-0.361328	0.004639	-0.750488
166.0	8.662474	1.543237	4.985956	0.025318	-0.011944	0.009925	-0.354492	0.000244	-0.752686
167.0	8.653544	1.501337	5.0068	0.023411	-0.009198	0.005286	-0.358887	0.000244	-0.754883
168.0	8.67424	1.511494	5.032152	0.02293	-0.007056	-0.000436	-0.356689	-0.001953	-0.752686
169.0	8.698224	1.510261	5.036544	0.022205	-0.006002	-0.00434	-0.354248	-0.001953	-0.748047
170.0	8.75036	1.527896	5.035651	0.021118	0.004116	-0.006473	-0.356689	0.000244	-0.750244
171.0	8.774812	1.560154	5.051423	0.01688	0.013051	-0.013056	-0.358887	0.000244	-0.750244
172.0	8.770365	1.573963	5.073633	0.021517	0.019246	-0.010614	-0.354492	0.002441	-0.755127
173.0	8.765587	1.587614	5.096441	0.012721	0.026095	-0.011673	-0.358887	-0.001953	-0.748047
174.0	8.747094	1.567994	5.051463	0.011892	0.035793	-0.006727	-0.354492	-0.001953	-0.752686
175.0	8.711757	1.529539	5.071476	0.016012	0.041316	-0.009536	-0.356934	0.004639	-0.757568
176.0	8.661989	1.536017	5.064498	0.01275	0.048773	-0.005129	-0.354492	0.000244	-0.761963
177.0	8.640466	1.560845	5.052232	0.014948	0.052726	-0.003216	-0.352295	0.002441	-0.750488
178.0	8.676495	1.436192	5.048398	0.009414	0.050607	0.000221	-0.354736	0.004639	-0.75293
179.0	8.534269	1.518211	5.040613	0.016914	0.058393	6.9e-05	-0.356445	-0.00415	-0.752441
180.0	8.580938	1.46893	5.025091	0.007056	0.056778	-0.00169	-0.349854	-0.00415	-0.754883
181.0	8.534213	1.46294	4.997983	0.015923	0.058343	-0.001985	-0.358887	0.000244	-0.754883
182.0	8.56208	1.43781	4.96592	0.013957	0.055462	-0.00569	-0.352051	-0.001953	-0.757324
183.0	8.522544	1.410835	5.007999	0.013646	0.048761	-0.002938	-0.354492	0.000244	-0.752686
184.0	8.548571	1.430589	5.006238	0.016496	0.047546	-0.005077	-0.356689	-0.001953	-0.752686
185.0	8.613585	1.436073	5.047362	0.020061	0.045283	-0.003309	-0.3479	0.002441	-0.755127
186.0	8.585302	1.484909	5.076375	0.026265	0.043532	-0.002336	-0.352051	-0.006348	-0.761719
187.0	8.619884	1.514621	5.042106	0.033724	0.048505	-0.001999	-0.350098	0.002441	-0.755127
188.0	8.579769	1.563917	5.012642	0.037085	0.050766	0.000673	-0.352051	-0.00415	-0.754883
189.0	8.628419	1.54879	5.005945	0.045376	0.041753	0.005412	-0.352295	0.000244	-0.754883
190.0	8.653853	1.535929	4.993135	0.037652	0.035688	0.006908	-0.3479	0.002441	-0.757324
191.0	8.70357	1.51931	4.985153	0.025557	0.021554	0.02188	-0.356445	-0.00415	-0.747803
192.0	8.695708	1.54238	5.028426	0.02191	0.0154	0.021501	-0.356689	-0.001953	-0.754883
193.0	8.726092	1.51514	4.993136	0.019067	0.019413	0.023191	-0.345459	0.002441	-0.757324
194.0	8.682929	1.540289	4.972608	0.01768	0.025621	0.02335	-0.349854	-0.001953	-0.754883
195.0	8.653311	1.520901	4.980335	0.022266	0.030481	0.01741	-0.352295	0.000244	-0.752686
196.0	8.606177	1.558672	4.981153	0.017663	0.024294	0.01493	-0.347656	-0.001953	-0.757324
197.0	8.54954	1.554533	5.003585	0.02022	0.015073	0.007092	-0.352295	0.000244	-0.752686
198.0	8.518069	1.581562	5.04073	0.018735	0.008754	0.00065	-0.352051	-0.001953	-0.759521
199.0	8.514198	1.594188	5.061873	0.005499	-0.000709	-0.002928	-0.349854	-0.001953	-0.761963
200.0	8.529164	1.583123	5.099534	0.001454	0.00087	-0.009964	-0.349854	-0.001953	-0.754883
201.0	8.572635	1.59079	5.131628	-0.004549	-0.001903	-0.011841	-0.352295	0.000244	-0.752686
202.0	8.56348	1.546424	5.042091	-0.009323	-0.000761	-0.013894	-0.349854	-0.001953	-0.761963
203.0	8.59715	1.511484	5.09658	-0.011005	-0.001233	-0.011009	-0.352295	0.002441	-0.759766
204.0	8.629004	1.518589	5.07045	-0.008774	0.008323	-0.010005	-0.345703	0.004639	-0.762207
205.0	8.628591	1.518783	5.071095	-0.01289	0.002818	-0.007228	-0.345459	0.000244	-0.757324
206.0	8.628286	1.51879	5.071612	-0.01048	0.005049	-0.00666	-0.354492	0.002441	-0.759766
207.0	8.675424	1.513459	5.083037	-0.012459	-0.002106	-0.001045	-0.349854	-0.001953	-0.759521
208.0	8.645287	1.536551	5.007761	-0.012436	0.000695	-0.001503	-0.352051	-0.00415	-0.76416
209.0	8.664149	1.512373	5.024392	-0.012257	-0.00663	-0.001939	-0.352051	-0.001953	-0.752686
210.0	8.664449	1.511958	5.023999	-0.008664	-0.006086	-0.00063	-0.345459	-0.001953	-0.757324
211.0	8.63977	1.481129	5.008331	-0.003843	-0.001624	0.000504	-0.354492	-0.001953	-0.754883
212.0	8.632455	1.504882	5.050344	0.00025	0.00108	-0.001813	-0.349854	0.000244	-0.754883
213.0	8.650866	1.481803	5.067416	0.01205	0.009834	-0.005596	-0.352295	0.000244	-0.757324
214.0	8.651582	1.515627	5.077938	0.008687	0.008888	0.000172	-0.347656	0.000244	-0.761963
215.0	8.661794	1.480674	5.016059	0.017644	0.021655	-0.001924	-0.349854	0.000244	-0.754883
216.0	8.656956	1.493664	5.038749	0.020051	0.023884	-0.001352	-0.347656	0.000244	-0.759766
217.0	8.660581	1.51599	5.029451	0.022457	0.026112	-0.000778	-0.350098	0.004639	-0.757568
218.0	8.630728	1.498643	5.036898	0.023884	0.025502	-0.001842	-0.347656	0.000244	-0.754883
219.0	8.657834	1.518537	5.033411	0.025832	0.031174	0.001443	-0.349854	0.000244	-0.757324
220.0	8.601685	1.548503	5.066441	0.021987	0.029548	0.00195	-0.347656	0.000244	-0.754883
221.0	8.605098	1.570767	5.05749	0.023664	0.030015	-0.000925	-0.349854	-0.00415	-0.75708
222.0	8.598821	1.550488	5.070694	0.01548	0.024614	0.003699	-0.349854	0.000244	-0.757324
223.0	8.622525	1.58167	5.087842	0.019524	0.021712	0.00231	-0.352051	-0.001953	-0.759521
224.0	8.645211	1.579612	5.094907	0.011593	0.017391	0.005116	-0.354248	-0.00415	-0.759521
225.0	8.61707	1.594197	5.11157	0.008004	0.016846	0.003801	-0.350098	0.004639	-0.759766
226.0	8.643614	1.579771	5.097566	0.004415	0.016301	0.002484	-0.347656	-0.001953	-0.759521
227.0	8.646498	1.56784	5.078023	0.003232	0.017985	0.001742	-0.349854	0.000244	-0.754883
228.0	8.630669	1.579597	5.041725	-0.002511	0.016288	-0.001962	-0.345703	0.004639	-0.759766
229.0	8.668261	1.565401	5.086795	-0.003673	0.020771	-0.003161	-0.345459	0.000244	-0.754883
230.0	8.647215	1.556343	5.062062	-0.00748	0.020619	-0.011556	-0.345459	-0.001953	-0.757324
231.0	8.660792	1.545437	5.101909	-0.004575	0.025	-0.014599	-0.350098	0.002441	-0.759766
232.0	8.698989	1.5292	5.035959	-0.008377	0.028974	-0.015015	-0.349854	-0.00415	-0.761719
233.0	8.704509	1.542346	5.11861	-0.008093	0.035644	-0.017729	-0.350098	0.002441	-0.755127
234.0	8.714647	1.540654	5.069199	-0.010912	0.045249	-0.016949	-0.347656	-0.001953	-0.759521
235.0	8.735506	1.539223	5.079285	-0.007049	0.052461	-0.018331	-0.354492	0.002441	-0.752686
236.0	8.712667	1.530984	5.057471	-0.008478	0.055858	-0.017702	-0.343262	0.002441	-0.761963
237.0	8.708189	1.499008	5.053075	-0.000557	0.067093	-0.012935	-0.345459	0.000244	-0.757324
238.0	8.679705	1.469616	5.043649	0.004241	0.074336	-0.012197	-0.3479	0.002441	-0.761963
239.0	8.607182	1.469037	5.123682	0.002044	0.0745	-0.006131	-0.350098	0.002441	-0.757324
240.0	8.526431	1.422731	5.114128	0.00368	0.076285	-0.000546	-0.343262	0.000244	-0.757324
241.0	8.466548	1.418732	5.140996	0.004845	0.074591	0.000224	-0.343262	0.002441	-0.757324
242.0	8.416818	1.456875	5.145204	0.006691	0.069067	0.005344	-0.343018	-0.001953	-0.757324
243.0	8.423554	1.499216	5.128245	0.013095	0.060007	0.005908	-0.345703	0.004639	-0.755127
244.0	8.461171	1.55146	5.196079	0.009016	0.050388	0.00066	-0.343018	-0.00415	-0.768799
245.0	8.462719	1.539768	5.178942	0.012056	0.043192	0.006507	-0.347656	0.000244	-0.761963
246.0	8.517892	1.577411	5.171531	0.015402	0.035743	0.002113	-0.338623	0.000244	-0.764404
247.0	8.53447	1.554833	5.191454	0.021432	0.039974	-0.004823	-0.341064	0.002441	-0.761963
248.0	8.544184	1.520416	5.131765	0.018788	0.039464	-0.004049	-0.34082	0.000244	-0.757324
249.0	8.533247	1.512513	5.166698	0.019956	0.034987	-0.002854	-0.343262	0.000244	-0.757324
250.0	8.49787	1.473981	5.185636	0.01994	0.032191	-0.002403	-0.343262	0.002441	-0.761963
251.0	8.51427	1.493475	5.123824	0.01967	0.028323	-0.000149	-0.34082	-0.001953	-0.752686
252.0	8.507952	1.473369	5.136808	0.017511	0.021584	-0.001661	-0.34082	-0.001953	-0.761963
253.0	8.498951	1.498376	5.180031	0.023455	0.018769	0.001173	-0.338867	0.006836	-0.757568
254.0	8.464471	1.459862	5.197459	0.026323	0.014761	-0.000501	-0.34082	0.000244	-0.757324
255.0	8.477874	1.491419	5.154956	0.03057	0.011481	0.0052	-0.343262	0.000244	-0.755127
256.0	8.494788	1.435953	5.162857	0.034395	0.013095	0.004747	-0.338623	-0.001953	-0.759521
257.0	8.461675	1.430664	5.189482	0.034381	0.010301	0.005198	-0.345459	0.002441	-0.761963
258.0	8.479791	1.408343	5.206877	0.0365	0.00866	0.008054	-0.338623	-0.00415	-0.761719
259.0	8.517184	1.437252	5.169637	0.035291	0.004754	0.008205	-0.34082	-0.00415	-0.754883
260.0	8.536499	1.448166	5.196463	0.044135	0.009091	0.007601	-0.341064	0.002441	-0.759766
261.0	8.603063	1.454013	5.234944	0.041901	0.000905	0.014975	-0.34082	-0.00415	-0.759521
262.0	8.60408	1.488273	5.244358	0.044803	0.008054	0.01153	-0.341064	0.002441	-0.755127
263.0	8.632496	1.507935	5.239095	0.044974	0.007675	0.018616	-0.343018	-0.001953	-0.757324
264.0	8.62828	1.520544	5.260158	0.044226	0.012835	0.022702	-0.343018	-0.00415	-0.759521
265.0	8.612231	1.499076	5.213262	0.042295	0.019675	0.026039	-0.347656	-0.001953	-0.757324
266.0	8.560472	1.516186	5.223295	0.042542	0.020737	0.024247	-0.340576	-0.008545	-0.761719
267.0	8.522131	1.488533	5.261738	0.040577	0.019208	0.028929	-0.338867	0.004639	-0.757568
268.0	8.501946	1.47887	5.235996	0.036828	0.01903	0.020505	-0.34082	-0.00415	-0.75708
269.0	8.48412	1.535583	5.229115	0.037474	0.012423	0.025331	-0.345215	-0.00415	-0.759521
270.0	8.479642	1.547491	5.250775	0.030371	0.019707	0.021275	-0.345215	-0.006348	-0.759521
271.0	8.497283	1.565196	5.187569	0.032972	0.014621	0.021432	-0.3479	0.004639	-0.759766
272.0	8.54391	1.560006	5.200314	0.02703	0.014649	0.019023	-0.343262	0.000244	-0.757324
273.0	8.548528	1.580641	5.189979	0.021776	0.016446	0.02008	-0.343262	0.000244	-0.757324
274.0	8.569215	1.511311	5.178054	0.017536	0.016928	0.014804	-0.345215	-0.006348	-0.759521
275.0	8.625788	1.547822	5.168869	0.006611	0.019826	0.011628	-0.345215	-0.00415	-0.761719
276.0	8.643189	1.523995	5.187897	0.013582	0.024051	0.00682	-0.345215	-0.00415	-0.75708
277.0	8.652419	1.565897	5.167116	0.002372	0.020308	0.006349	-0.345459	0.000244	-0.759766
278.0	8.642115	1.556594	5.201246	-0.002346	0.027027	0.003332	-0.336182	-0.00415	-0.768799
279.0	8.64595	1.577128	5.192289	-0.002609	0.02596	0.005144	-0.34082	-0.001953	-0.754883
280.0	8.61085	1.537168	5.211082	-0.002102	0.0253	0.001981	-0.343018	-0.001953	-0.766602
281.0	8.567788	1.521691	5.271215	-0.001867	0.020788	0.001075	-0.333984	-0.006348	-0.768799
282.0	8.511535	1.550946	5.302617	-0.000417	0.02296	-0.000425	-0.341064	0.000244	-0.759766
283.0	8.48978	1.508191	5.268107	0.003131	0.020708	0.001392	-0.345215	-0.006348	-0.754639
284.0	8.455868	1.502095	5.295973	0.000352	0.023364	-0.005393	-0.338379	-0.006348	-0.76416
285.0	8.411703	1.495168	5.264913	0.000495	0.020213	0.002143	-0.34082	0.000244	-0.757324
286.0	8.396488	1.506664	5.228227	-0.000874	0.013893	-0.004352	-0.345459	0.000244	-0.761963
287.0	8.404994	1.515739	5.197252	0.002163	0.0123	0.00063	-0.341064	0.000244	-0.761963
288.0	8.40446	1.515908	5.198067	0.001473	0.007747	-0.002395	-0.34082	-0.00415	-0.766357
289.0	8.418504	1.504653	5.236546	0.00119	0.001108	0.000307	-0.34082	-0.001953	-0.757324
290.0	8.447125	1.523339	5.231378	0.001703	0.00045	-0.002859	-0.338623	-0.00415	-0.759521
291.0	8.503426	1.5274	5.211292	0.00143	-0.003402	-0.000605	-0.336426	-0.001953	-0.757324
292.0	8.51789	1.516082	5.249113	-0.00213	-0.003939	-0.001973	-0.343262	0.000244	-0.766602
293.0	8.532396	1.546201	5.205517	-0.002797	-0.002918	-0.005893	-0.341064	0.002441	-0.761963
294.0	8.597837	1.517959	5.23477	-0.002797	-0.002918	-0.005893	-0.34082	-0.001953	-0.761963
295.0	8.604195	1.572736	5.232691	-0.002035	-0.005299	-0.010417	-0.347656	0.000244	-0.759766
296.0	8.626736	1.537616	5.228853	-0.009668	-0.005716	-0.009986	-0.338623	-0.00415	-0.761719
297.0	8.641055	1.526462	5.266873	-0.01584	-0.001173	-0.011501	-0.343018	-0.00415	-0.754883
298.0	8.617345	1.529272	5.261049	-0.018881	0.000417	-0.016478	-0.343262	0.000244	-0.761963
299.0	8.598565	1.55307	5.244333	-0.026498	0.005571	-0.016936	-0.343018	-0.001953	-0.759521
300.0	8.564083	1.513896	5.261775	-0.024279	0.00815	-0.0234	-0.34082	-0.001953	-0.761963
301.0	8.563264	1.514404	5.262961	-0.033101	0.009405	-0.023713	-0.341064	0.002441	-0.766602
302.0	8.486638	1.501313	5.257416	-0.032587	0.011532	-0.027314	-0.341064	0.002441	-0.759766
303.0	8.51326	1.487083	5.244138	-0.041422	0.009994	-0.027175	-0.341064	0.000244	-0.761963
304.0	8.462237	1.537553	5.26388	-0.038799	0.010486	-0.02791	-0.34082	-0.001953	-0.757324
305.0	8.465301	1.525757	5.244629	-0.043555	0.011617	-0.030011	-0.34082	-0.00415	-0.759521
306.0	8.492877	1.544686	5.241099	-0.042123	0.011	-0.031051	-0.336426	0.002441	-0.764404
307.0	8.52062	1.56346	5.237358	-0.049787	0.004987	-0.029715	-0.341064	0.002441	-0.757324
308.0	8.546507	1.515524	5.214225	-0.056252	0.005656	-0.028951	-0.34082	-0.00415	-0.766357
309.0	8.569229	1.512889	5.221646	-0.05643	0.00602	-0.036004	-0.338623	0.000244	-0.761963
310.0	8.609321	1.453385	5.236784	-0.076494	0.006264	-0.037196	-0.338867	0.004639	-0.757568
311.0	8.603155	1.43153	5.249905	-0.082202	0.012911	-0.042245	-0.341064	0.002441	-0.759766
312.0	8.596732	1.40974	5.263412	-0.096001	0.012842	-0.051225	-0.336426	0.002441	-0.757324
313.0	8.591171	1.420981	5.286798	-0.110074	0.011693	-0.058383	-0.338867	0.002441	-0.761963
314.0	8.614315	1.450706	5.305015	-0.11728	0.004985	-0.060148	-0.341309	0.006836	-0.762207
315.0	8.549554	1.5021	5.378562	-0.119727	0.002722	-0.060678	-0.338867	0.004639	-0.764404
316.0	8.50657	1.5268	5.357326	-0.126946	-0.00121	-0.06286	-0.338867	0.004639	-0.762207
317.0	8.515002	1.534077	5.327192	-0.130251	-0.002593	-0.049999	-0.338867	0.006836	-0.757568
318.0	8.480122	1.500458	5.253661	-0.128948	-0.010282	-0.04127	-0.341309	0.006836	-0.766846
319.0	8.544592	1.477649	5.193213	-0.131059	-0.004987	-0.02896	-0.341309	0.006836	-0.762207
320.0	8.482181	1.413953	5.215823	-0.136251	0.004688	-0.021993	-0.338867	0.004639	-0.762207
321.0	8.45763	1.377737	5.20154	-0.146633	-0.007514	-0.018975	-0.339111	0.009033	-0.762207
322.0	8.47033	1.336288	5.13993	-0.15944	-0.008013	-0.018645	-0.332031	0.002441	-0.764404
323.0	8.461354	1.319873	5.173227	-0.165774	-0.009151	-0.01909	-0.341553	0.013428	-0.757813
324.0	8.429598	1.338596	5.210848	-0.174011	-0.007574	-0.024123	-0.339111	0.01123	-0.769287
325.0	8.45738	1.31846	5.197254	-0.165071	-0.011368	-0.040617	-0.339111	0.009033	-0.769287
326.0	8.480933	1.311211	5.204456	-0.159364	-0.010991	-0.04518	-0.343506	0.009033	-0.762207
327.0	8.495423	1.294737	5.243155	-0.153637	-0.016188	-0.04894	-0.341553	0.015625	-0.769531
328.0	8.518362	1.25633	5.239208	-0.137039	-0.01536	-0.057988	-0.339355	0.015625	-0.76709
329.0	8.56207	1.294188	5.283081	-0.122122	-0.017808	-0.063798	-0.341553	0.015625	-0.757813
330.0	8.576756	1.280983	5.320615	-0.110853	-0.022348	-0.062128	-0.341553	0.013428	-0.771729
331.0	8.611309	1.353845	5.315266	-0.105832	-0.027984	-0.061017	-0.339111	0.013428	-0.76709
332.0	8.643938	1.328178	5.277899	-0.098226	-0.026245	-0.053077	-0.341797	0.022461	-0.767334
333.0	8.686757	1.378396	5.230362	-0.089874	-0.018425	-0.050894	-0.343994	0.022217	-0.758057
334.0	8.672942	1.423715	5.203302	-0.087031	-0.011223	-0.054192	-0.334961	0.022461	-0.765137
335.0	8.681862	1.433543	5.171888	-0.08883	-0.010531	-0.042874	-0.3396	0.020264	-0.762695
336.0	8.639834	1.491928	5.161032	-0.085043	-0.000501	-0.044486	-0.3396	0.02002	-0.760498
337.0	8.587661	1.507326	5.171961	-0.083205	0.007914	-0.04146	-0.341553	0.017822	-0.753418
338.0	8.557358	1.454836	5.168071	-0.077016	0.020197	-0.042465	-0.341553	0.017822	-0.760254
339.0	8.481241	1.505761	5.185281	-0.070782	0.0241	-0.042299	-0.346191	0.02002	-0.762695
340.0	8.441975	1.476311	5.224457	-0.067888	0.02294	-0.044432	-0.341797	0.020264	-0.769775
341.0	8.402651	1.446995	5.26362	-0.064311	0.026296	-0.043489	-0.341797	0.02002	-0.765137
342.0	8.372279	1.428015	5.27122	-0.066756	0.026826	-0.04445	-0.337158	0.017822	-0.760254
343.0	8.393907	1.42613	5.280125	-0.059957	0.021764	-0.046295	-0.341797	0.022217	-0.758057
344.0	8.434553	1.400551	5.304942	-0.061162	0.017831	-0.046186	-0.337158	0.020264	-0.765137
345.0	8.484611	1.38544	5.297561	-0.059662	0.008867	-0.046097	-0.343994	0.017822	-0.758057
346.0	8.496885	1.385651	5.246137	-0.055798	0.007745	-0.046166	-0.3396	0.024658	-0.767578
347.0	8.538326	1.360619	5.2696	-0.046821	0.003849	-0.045653	-0.339355	0.017822	-0.758057
348.0	8.57925	1.380517	5.213207	-0.049984	0.001076	-0.041313	-0.337158	0.020264	-0.765137
349.0	8.554693	1.351265	5.196888	-0.041022	-1.8e-05	-0.041189	-0.342041	0.024414	-0.758301
350.0	8.521933	1.376956	5.234143	-0.041538	0.000565	-0.038015	-0.339355	0.015625	-0.760254
351.0	8.530363	1.355463	5.191685	-0.041499	-0.009415	-0.028103	-0.342041	0.029053	-0.758301
352.0	8.507296	1.390837	5.196468	-0.033991	-0.009934	-0.026906	-0.339355	0.017822	-0.760254
353.0	8.479565	1.404478	5.211493	-0.033539	-0.009326	-0.021668	-0.3396	0.020264	-0.762695
354.0	8.475892	1.448105	5.243459	-0.030634	-0.012049	-0.015073	-0.343994	0.02002	-0.765137
355.0	8.499776	1.445388	5.249022	-0.029965	-0.007542	-0.011982	-0.339844	0.026855	-0.760742
356.0	8.476488	1.446963	5.242811	-0.029244	-0.008624	-0.008141	-0.341553	0.017822	-0.760254
357.0	8.439006	1.383193	5.267678	-0.026698	0.001522	-0.001661	-0.341797	0.022217	-0.755859
358.0	8.414876	1.351592	5.251262	-0.021895	0.006034	-0.000444	-0.339355	0.015625	-0.76709
359.0	8.400452	1.28534	5.282894	-0.022425	0.009413	0.002342	-0.337158	0.020264	-0.765137
360.0	8.348061	1.267048	5.282413	-0.012525	0.013956	0.003754	-0.342041	0.024658	-0.765137
361.0	8.346669	1.200882	5.261436	-0.003801	0.014575	0.005236	-0.337402	0.024658	-0.760498
362.0	8.384044	1.184913	5.306266	0.005119	0.017493	0.013339	-0.335205	0.024658	-0.765137
363.0	8.415893	1.192297	5.282053	0.011633	0.018152	0.020837	-0.344238	0.024414	-0.762939
364.0	8.471395	1.197084	5.263759	0.025162	0.018883	0.032679	-0.343994	0.017822	-0.764893
365.0	8.504226	1.268639	5.261718	0.026282	0.019597	0.050148	-0.344238	0.026611	-0.756104
366.0	8.598357	1.289152	5.29824	0.032993	0.024143	0.05553	-0.339844	0.026855	-0.772217
367.0	8.659039	1.3457	5.281456	0.023405	0.029783	0.066639	-0.3396	0.022217	-0.755859
368.0	8.723618	1.357226	5.232726	0.020634	0.033192	0.075475	-0.337158	0.020264	-0.760498
369.0	8.789558	1.465871	5.217551	0.018121	0.034909	0.082925	-0.342041	0.024658	-0.765137
370.0	8.798507	1.502391	5.200047	0.006172	0.037109	0.085038	-0.342041	0.026855	-0.760742
371.0	8.817083	1.503998	5.230499	0.001827	0.034801	0.08031	-0.339844	0.026855	-0.762939
372.0	8.754466	1.482374	5.172822	-0.00202	0.034707	0.072034	-0.342041	0.024658	-0.760498
373.0	8.707247	1.513745	5.174758	-0.007041	0.030703	0.063813	-0.342041	0.026855	-0.767578
374.0	8.622016	1.483816	5.200867	-0.008772	0.0227	0.043588	-0.342041	0.024658	-0.760498
375.0	8.598792	1.514971	5.207466	-0.015879	0.009192	0.03407	-0.341797	0.022217	-0.760498
376.0	8.618204	1.520442	5.235401	-0.014719	-0.001538	0.020433	-0.337402	0.022461	-0.762695
377.0	8.57101	1.490647	5.212096	-0.014107	-0.006097	0.009217	-0.344238	0.024414	-0.762939
378.0	8.576261	1.511404	5.201531	-0.014213	-0.006773	-0.006222	-0.339355	0.015625	-0.762451
379.0	8.604402	1.498295	5.185639	-0.008508	-0.011322	-0.01723	-0.339844	0.029053	-0.762939
380.0	8.594774	1.456751	5.205359	-0.002855	-0.007493	-0.029351	-0.337402	0.026855	-0.765381
381.0	8.613305	1.435571	5.22101	0.004717	-0.006423	-0.036939	-0.337402	0.024658	-0.760498
382.0	8.561413	1.455148	5.230095	0.005157	0.004163	-0.041585	-0.341797	0.022217	-0.760498
383.0	8.579555	1.389685	5.326012	0.009728	0.004753	-0.038202	-0.341797	0.022217	-0.762695
384.0	8.563816	1.373944	5.277709	0.015998	0.008677	-0.038049	-0.337158	0.015625	-0.764893
385.0	8.534692	1.313912	5.361863	0.026157	0.011491	-0.037995	-0.339844	0.026855	-0.762939
386.0	8.552358	1.294854	5.378566	0.03782	0.008154	-0.038282	-0.341553	0.017822	-0.764893
387.0	8.495326	1.294374	5.397994	0.04605	0.00374	-0.03285	-0.342041	0.024658	-0.762939
388.0	8.522517	1.286461	5.38251	0.056196	0.006553	-0.032783	-0.341797	0.022217	-0.755859
389.0	8.479985	1.351282	5.370946	0.064131	0.006621	-0.026317	-0.341797	0.02002	-0.762695
390.0	8.442127	1.359746	5.417594	0.072726	0.011195	-0.016748	-0.337402	0.022461	-0.767334
391.0	8.4318	1.399244	5.369606	0.078672	0.012421	-0.006023	-0.341553	0.015625	-0.760254
392.0	8.384288	1.44135	5.368594	0.084127	0.018617	-0.001283	-0.3396	0.020264	-0.769775
393.0	8.401978	1.421856	5.385412	0.085736	0.02034	0.004302	-0.3396	0.024658	-0.765137
394.0	8.405827	1.447399	5.375525	0.0859	0.019843	0.011348	-0.343994	0.02002	-0.767334
395.0	8.390569	1.463617	5.338349	0.084137	0.022087	0.013857	-0.337158	0.020264	-0.762695
396.0	8.398768	1.47718	5.307451	0.085986	0.024912	0.017676	-0.334717	0.015869	-0.764893
397.0	8.411719	1.512266	5.266287	0.085251	0.025963	0.013864	-0.3396	0.020264	-0.767334
398.0	8.443244	1.523247	5.241875	0.081753	0.030478	0.018838	-0.330322	0.018066	-0.760254
399.0	8.44677	1.547657	5.232731	0.085847	0.030437	0.017032	-0.3396	0.020264	-0.767334
400.0	8.445762	1.583763	5.244842	0.086554	0.033699	0.011759	-0.339355	0.015625	-0.764893
401.0	8.519808	1.601714	5.253951	0.085127	0.025888	0.014026	-0.341553	0.013428	-0.762451
402.0	8.471278	1.576984	5.231629	0.083497	0.021327	0.008892	-0.337158	0.018066	-0.762695
403.0	8.48965	1.58975	5.258979	0.080724	0.010068	0.004213	-0.341553	0.017822	-0.762695
404.0	8.512456	1.558406	5.253763	0.07836	0.002235	0.004391	-0.341553	0.013428	-0.76709
405.0	8.517531	1.584022	5.241664	0.081172	-0.009634	-0.00319	-0.341797	0.02002	-0.762695
406.0	8.513256	1.566877	5.249947	0.078269	-0.014069	-0.000238	-0.341553	0.017822	-0.764893
407.0	8.522916	1.548646	5.204976	0.08463	-0.019796	-0.007258	-0.339111	0.013428	-0.762451
408.0	8.519592	1.521211	5.303181	0.083163	-0.022021	-0.005761	-0.33252	0.013672	-0.762451
409.0	8.529432	1.502896	5.258002	0.078487	-0.018597	-0.001137	-0.339111	0.013428	-0.762451
410.0	8.554261	1.537768	5.27201	0.079631	-0.014702	-0.001189	-0.339111	0.009033	-0.762207
411.0	8.554447	1.508914	5.259339	0.080938	-0.008454	0.00538	-0.34375	0.013428	-0.760254
412.0	8.498416	1.507319	5.277278	0.080578	0.001597	0.0056	-0.339111	0.009033	-0.766846
413.0	8.456665	1.526404	5.344255	0.081186	0.008897	0.008301	-0.339111	0.01123	-0.764648
414.0	8.475195	1.539749	5.371231	0.091706	0.016605	0.00452	-0.33667	0.004639	-0.764404
415.0	8.441405	1.536892	5.397067	0.097866	0.023269	0.004345	-0.336914	0.01123	-0.764648
416.0	8.492332	1.59171	5.409775	0.101349	0.03218	0.004529	-0.338867	0.004639	-0.766846
417.0	8.471923	1.620225	5.394173	0.1005	0.037273	0.008709	-0.339111	0.009033	-0.762207
418.0	8.479226	1.634573	5.364143	0.097768	0.042286	0.008706	-0.332031	0.004639	-0.766846
419.0	8.467345	1.639073	5.307231	0.094297	0.044065	0.014033	-0.33667	0.004639	-0.762207
420.0	8.487722	1.574575	5.295489	0.090381	0.04796	0.013707	-0.338867	0.006836	-0.766846
421.0	8.447617	1.559069	5.243286	0.086338	0.03686	0.017178	-0.339111	0.009033	-0.764648
422.0	8.492389	1.524655	5.247581	0.083888	0.040171	0.015779	-0.338867	0.002441	-0.759766
423.0	8.51422	1.52529	5.255689	0.076501	0.032369	0.015705	-0.338623	0.000244	-0.764404
424.0	8.570055	1.599114	5.258106	0.076474	0.032353	0.015738	-0.334229	0.002441	-0.77124
425.0	8.573606	1.62285	5.248721	0.069986	0.030169	0.016932	-0.334473	0.004639	-0.762207
426.0	8.50633	1.610571	5.301512	0.065409	0.035106	0.012689	-0.338867	0.004639	-0.759766
427.0	8.443306	1.586521	5.333693	0.057971	0.035664	0.011365	-0.338867	0.002441	-0.761963
428.0	8.408737	1.581731	5.361104	0.056906	0.030431	0.003082	-0.334229	0.002441	-0.759766
429.0	8.472628	1.556373	5.392696	0.05041	0.03104	0.003842	-0.338867	0.002441	-0.766602
430.0	8.48929	1.535485	5.412125	0.050847	0.038735	-0.000521	-0.336426	0.002441	-0.761963
431.0	8.505793	1.523347	5.34105	0.038057	0.036806	0.008408	-0.334229	0.000244	-0.759766
432.0	8.563768	1.45192	5.284012	0.044451	0.044521	0.006457	-0.338867	0.004639	-0.766846
433.0	8.598363	1.415835	5.231268	0.047152	0.052996	0.011544	-0.338867	0.004639	-0.766846
434.0	8.647092	1.401185	5.227186	0.054489	0.057969	0.01212	-0.331787	-0.001953	-0.768799
435.0	8.643314	1.33665	5.21177	0.05961	0.060332	0.019094	-0.336426	0.000244	-0.766602
436.0	8.630263	1.295561	5.238445	0.067054	0.067702	0.026311	-0.338623	-0.001953	-0.766602
437.0	8.627012	1.296652	5.243528	0.065284	0.069992	0.028773	-0.33667	0.004639	-0.764404
438.0	8.590548	1.290447	5.274312	0.069427	0.075076	0.033264	-0.333984	-0.001953	-0.768799
439.0	8.630556	1.373838	5.242365	0.074093	0.079508	0.034615	-0.334229	0.000244	-0.77124
440.0	8.651052	1.438516	5.274534	0.069621	0.086832	0.036989	-0.327148	-0.00415	-0.768799
441.0	8.610147	1.485705	5.246267	0.070157	0.094118	0.03971	-0.334229	0.002441	-0.764404
442.0	8.512548	1.528008	5.237048	0.061795	0.094624	0.036259	-0.333984	-0.00415	-0.775635
443.0	8.391726	1.572522	5.220863	0.064173	0.088495	0.038211	-0.332031	0.000244	-0.766602
444.0	8.354766	1.565725	5.25212	0.057393	0.077311	0.035336	-0.336182	-0.00415	-0.770996
445.0	8.253318	1.586681	5.251603	0.049194	0.063964	0.033891	-0.333984	-0.001953	-0.76416
446.0	8.217309	1.546598	5.270791	0.045725	0.041558	0.02876	-0.327393	0.000488	-0.773682
447.0	8.215164	1.513447	5.263738	0.036557	0.036496	0.02394	-0.334229	0.000244	-0.77124
448.0	8.227421	1.502249	5.304096	0.034199	0.02353	0.017889	-0.329346	-0.006348	-0.768799
449.0	8.234252	1.436975	5.345469	0.026191	0.022359	0.012973	-0.331787	-0.001953	-0.768799
450.0	8.303912	1.406005	5.266265	0.02517	0.022655	0.003821	-0.331787	-0.001953	-0.77124
451.0	8.291706	1.331726	5.280678	0.016203	0.026979	-0.004037	-0.334229	0.002441	-0.769043
452.0	8.275001	1.302738	5.325827	0.003433	0.029687	-0.011524	-0.32959	-0.001953	-0.761963
453.0	8.225648	1.275352	5.30591	-0.006787	0.041214	-0.020946	-0.324951	-0.00415	-0.766357
454.0	8.171283	1.260231	5.307083	-0.008589	0.038333	-0.024752	-0.325195	-0.001709	-0.77124
455.0	8.191894	1.226811	5.307228	-0.00575	0.034697	-0.033449	-0.334229	-0.001953	-0.773438
456.0	8.237101	1.258262	5.332596	-0.00074	0.023911	-0.038472	-0.333984	-0.00415	-0.778076
457.0	8.244623	1.295581	5.403001	0.002782	0.0165	-0.042868	-0.32959	-0.001953	-0.77124
458.0	8.357639	1.374524	5.386341	-0.002685	0.008882	-0.038861	-0.324951	-0.00415	-0.770996
459.0	8.38111	1.441364	5.412618	-0.006035	-0.000342	-0.032005	-0.327393	0.000488	-0.77124
460.0	8.476006	1.475693	5.357953	-0.014086	-0.003272	-0.021082	-0.336182	-0.006348	-0.773438
461.0	8.557107	1.453114	5.245433	-0.035548	-0.009804	-0.004873	-0.32959	0.000244	-0.766602
462.0	8.576285	1.369375	5.152876	-0.053022	-0.008124	0.008384	-0.336426	0.002441	-0.773682
463.0	8.580379	1.220036	5.093303	-0.073269	-0.019106	0.025765	-0.329834	0.002441	-0.77124
464.0	8.613756	1.178963	5.148097	-0.081037	-0.034509	0.02994	-0.32959	0.000244	-0.77124
465.0	8.676111	1.122671	5.187519	-0.085823	-0.048706	0.038683	-0.327637	0.004883	-0.773682
466.0	8.863606	1.183166	5.186463	-0.097839	-0.052947	0.043015	-0.329834	0.002686	-0.775879
467.0	8.900192	1.213968	5.168317	-0.108894	-0.036672	0.04487	-0.332031	0.002441	-0.77124
468.0	8.869634	1.263325	5.212351	-0.125703	-0.011025	0.041293	-0.32959	-0.001953	-0.773438
469.0	8.82975	1.344611	5.209245	-0.142968	0.004166	0.042518	-0.332275	0.00708	-0.771484
470.0	8.780981	1.458538	5.158314	-0.140226	0.014022	0.038931	-0.332275	0.006836	-0.766846
471.0	8.755165	1.604389	5.125743	-0.134806	0.03972	0.023821	-0.334473	0.009033	-0.769287
472.0	8.777357	1.716232	5.269386	-0.135113	0.053938	0.014899	-0.327637	0.00708	-0.771484
473.0	8.878596	1.831247	5.402681	-0.117696	0.068563	0.006298	-0.329834	0.00708	-0.771484
474.0	8.793976	1.879918	5.534181	-0.07994	0.089672	-0.003495	-0.327881	0.009277	-0.769287
475.0	8.720513	1.796846	5.574054	-0.035896	0.114238	-0.005944	-0.329834	0.00708	-0.771484
476.0	8.634811	1.583834	5.516205	0.004312	0.153002	0.003814	-0.325439	0.004883	-0.77832
477.0	8.440689	1.39402	5.395403	0.063085	0.192172	0.016137	-0.325439	0.004883	-0.771484
478.0	8.162362	1.224067	5.217388	0.096008	0.216774	0.040751	-0.325195	0.002686	-0.77832
479.0	7.958269	1.187763	5.008766	0.121479	0.213164	0.069639	-0.321045	0.00708	-0.766846
480.0	7.905084	1.234011	4.929091	0.118119	0.199438	0.105282	-0.322998	0.000488	-0.769043
481.0	7.856763	1.322034	4.938353	0.105775	0.192463	0.13977	-0.323242	0.00708	-0.771484
482.0	7.864418	1.435049	5.029977	0.080418	0.181658	0.169283	-0.316406	0.004883	-0.776123
483.0	8.220772	1.558198	4.99447	0.04876	0.149811	0.195381	-0.320801	0.004883	-0.773682
484.0	8.46614	1.731252	4.843159	0.003094	0.153913	0.207252	-0.318604	0.004883	-0.773682
485.0	8.736929	1.811467	4.750006	-0.029365	0.133031	0.199971	-0.320801	0.004883	-0.773682
486.0	8.954468	1.898342	4.753672	-0.061194	0.111967	0.182356	-0.316406	0.004883	-0.776123
487.0	9.180184	1.9858	4.815999	-0.069982	0.09579	0.149276	-0.314209	0.00708	-0.776123
488.0	9.104065	1.849044	4.936334	-0.083904	0.105009	0.105286	-0.314453	0.011475	-0.778564
489.0	9.201658	1.758428	4.841367	-0.054292	0.037615	0.0599	-0.309814	0.009277	-0.771729
490.0	9.409397	1.745734	4.668578	-0.057527	0.017046	0.025928	-0.30957	0.00708	-0.778564
491.0	9.342716	1.584891	4.658455	-0.047909	0.008112	0.00302	-0.321045	0.009277	-0.776367
492.0	9.231684	1.498314	4.65224	-0.020221	-0.01096	-0.012585	-0.316406	0.009277	-0.776367
493.0	9.207684	1.468583	4.634876	0.000304	0.004247	-0.009233	-0.312256	0.013672	-0.778809
494.0	9.161426	1.508531	4.631534	0.032012	0.023148	-0.005069	-0.316406	0.00708	-0.780762
495.0	9.206825	1.537763	4.658836	0.048797	0.053571	0.008852	-0.316406	0.004883	-0.780762
496.0	9.101673	1.607296	4.687219	0.068171	0.09317	0.01394	-0.312012	0.011475	-0.776367
497.0	8.971963	1.67979	4.710708	0.077602	0.116344	0.020439	-0.313965	0.000488	-0.77124
498.0	8.916363	1.765527	4.747013	0.088471	0.144825	0.01812	-0.313965	0.002686	-0.776123
499.0	8.755934	1.853513	4.787359	0.078457	0.165311	0.013103	-0.311768	0.004883	-0.776123
500.0	8.582515	1.95306	4.790026	0.064902	0.179348	0.01445	-0.307129	0.002686	-0.77832
501.0	8.442077	2.025634	4.759181	0.050071	0.183756	0.004082	-0.302979	0.00708	-0.773926
502.0	8.261683	2.07063	4.762258	0.031346	0.166236	-0.001744	-0.307373	0.00708	-0.778564
503.0	8.13863	2.086251	4.737278	0.016053	0.146232	-0.018215	-0.305176	0.004883	-0.776123
504.0	8.11267	2.012841	4.700181	-0.008022	0.118848	-0.027102	-0.302734	0.002686	-0.77832
505.0	8.076465	1.930217	4.692817	-0.024163	0.098445	-0.038721	-0.305176	0.00708	-0.778564
506.0	8.099409	1.884357	4.677349	-0.037302	0.070941	-0.044642	-0.29834	0.00708	-0.783203
507.0	8.234363	1.923441	4.668234	-0.058569	0.049836	-0.042586	-0.30542	0.011475	-0.771729
508.0	8.408282	1.835662	4.654647	-0.082975	0.040938	-0.039865	-0.302734	0.004883	-0.77832
509.0	8.531251	1.817445	4.586854	-0.10645	0.052242	-0.019684	-0.302979	0.009277	-0.773926
510.0	8.695892	1.869467	4.576493	-0.114182	0.071569	0.002997	-0.302979	0.00708	-0.776123
511.0	8.800888	1.761035	4.613872	-0.142502	0.074882	0.036241	-0.305176	0.009277	-0.778564
512.0	8.831133	1.690432	4.580105	-0.149771	0.093104	0.062941	-0.305176	0.009277	-0.771729
513.0	8.856281	1.661883	4.578565	-0.155348	0.10858	0.094339	-0.300781	0.009277	-0.781006
514.0	8.799822	1.596461	4.576811	-0.159612	0.131661	0.123783	-0.298584	0.009277	-0.776367
515.0	8.766685	1.537284	4.663554	-0.157818	0.129665	0.146454	-0.294189	0.015869	-0.776611
516.0	8.788285	1.60153	4.634418	-0.148098	0.103109	0.159429	-0.298584	0.013672	-0.776367
517.0	8.891545	1.654946	4.515421	-0.142228	0.086422	0.164228	-0.30127	0.020264	-0.78125
518.0	8.925872	1.673752	4.512241	-0.145085	0.080167	0.153312	-0.296387	0.013672	-0.77417
519.0	8.950386	1.750055	4.560298	-0.13095	0.071388	0.1412	-0.296875	0.022461	-0.781494
520.0	9.067472	1.827447	4.488306	-0.120564	0.055426	0.117441	-0.294189	0.015869	-0.778809
521.0	9.045989	1.881495	4.508282	-0.121102	0.04519	0.089943	-0.292236	0.022705	-0.779053
522.0	9.07694	1.942673	4.451698	-0.116554	0.017791	0.059336	-0.292236	0.020508	-0.776611
523.0	9.18353	2.008169	4.325687	-0.118215	-0.007806	0.027532	-0.294678	0.0271	-0.774658
524.0	9.237688	2.049387	4.342645	-0.131893	-0.025422	-0.003267	-0.290039	0.024902	-0.774414
525.0	9.181368	2.052066	4.438017	-0.137024	-0.042637	-0.032125	-0.292725	0.033691	-0.772461
526.0	9.171804	2.073043	4.477948	-0.144058	-0.057592	-0.058446	-0.299072	0.022461	-0.774414
527.0	9.093467	2.105585	4.493721	-0.138219	-0.066153	-0.079803	-0.290283	0.029297	-0.772461
528.0	9.187383	2.105027	4.600328	-0.130339	-0.096229	-0.101543	-0.29248	0.029297	-0.779297
529.0	9.305936	2.139375	4.491908	-0.129698	-0.130569	-0.118779	-0.294678	0.026855	-0.77002
530.0	9.430673	2.186709	4.290778	-0.157785	-0.147349	-0.130537	-0.299316	0.026855	-0.772217
531.0	9.481619	2.03374	4.150448	-0.200722	-0.156786	-0.140361	-0.299316	0.029053	-0.767822
532.0	9.426351	1.993182	4.063386	-0.217565	-0.174988	-0.157483	-0.294922	0.031494	-0.77002
533.0	9.33644	2.026974	4.351351	-0.215131	-0.208346	-0.159424	-0.297363	0.035889	-0.760986
534.0	9.277578	2.184004	5.399056	-0.153042	-0.257403	-0.180665	-0.301514	0.03125	-0.763184
535.0	9.506554	1.977152	5.573863	-0.081923	-0.309857	-0.20837	-0.306152	0.029053	-0.765381
536.0	9.846997	1.624499	5.172856	-0.009964	-0.309854	-0.249932	-0.299316	0.03125	-0.756104
537.0	10.447145	1.140935	5.276776	0.07613	-0.272373	-0.305392	-0.303711	0.026855	-0.760742
538.0	10.38631	0.943061	5.467517	0.149674	-0.28511	-0.355154	-0.301514	0.029053	-0.758545
539.0	10.418841	0.782532	5.292323	0.202993	-0.364129	-0.375709	-0.303711	0.026855	-0.758301
540.0	10.384691	0.579479	4.98296	0.2523	-0.300138	-0.367853	-0.305664	0.018066	-0.755615
541.0	10.282888	0.634602	4.560865	0.253836	-0.139109	-0.335088	-0.310303	0.024658	-0.758301
542.0	9.968062	0.907655	4.576245	0.259722	-0.04865	-0.289788	-0.30542	0.015869	-0.748535
543.0	10.027047	1.510783	4.73236	0.27156	-0.084155	-0.264405	-0.30542	0.013672	-0.755615
544.0	10.050622	2.007591	4.192483	0.180022	-0.097664	-0.223276	-0.302979	0.009277	-0.750732
545.0	9.761636	1.930187	4.169821	0.153166	-0.007295	-0.18031	-0.305176	0.009277	-0.746094
546.0	9.460564	2.033845	4.932865	0.171401	0.04387	-0.166387	-0.302979	0.009277	-0.750732
547.0	8.765108	2.22965	5.581059	0.195842	0.085955	-0.16435	-0.298584	0.009277	-0.750732
548.0	7.752986	2.268038	6.036255	0.205249	0.061316	-0.169253	-0.305176	0.009277	-0.75293
549.0	7.369237	1.58067	5.814264	0.175396	-0.058664	-0.194685	-0.305176	0.009277	-0.743652
550.0	7.233299	0.938281	5.566978	0.226294	-0.125529	-0.206612	-0.302734	0.000488	-0.752686
551.0	6.873314	0.795841	6.38902	0.272863	-0.084445	-0.224233	-0.304932	0.000488	-0.74585
552.0	6.713259	0.789172	6.50006	0.27762	-0.19883	-0.236837	-0.30249	-0.001709	-0.745605
553.0	6.559544	1.038055	6.062165	0.26095	-0.256497	-0.237367	-0.300049	-0.008301	-0.745361
554.0	6.589135	1.114808	5.647832	0.213576	-0.255612	-0.223532	-0.302246	-0.006104	-0.743164
555.0	6.528697	1.205292	5.891425	0.204619	-0.208056	-0.201639	-0.304688	-0.003906	-0.736328
556.0	6.803652	1.280106	6.027787	0.215423	-0.215404	-0.181877	-0.311035	-0.015137	-0.740479
557.0	7.116085	1.206104	5.998858	0.200137	-0.183103	-0.154234	-0.306396	-0.015137	-0.731201
558.0	7.636115	1.080981	5.850736	0.20536	-0.150869	-0.135363	-0.303955	-0.019531	-0.73584
559.0	8.118987	1.087541	5.67719	0.210201	-0.108776	-0.092613	-0.313232	-0.015137	-0.73584
560.0	8.26403	1.020997	5.780643	0.152263	-0.038245	-0.054324	-0.303955	-0.019531	-0.73584
561.0	8.415868	1.026097	5.8741	0.157333	-0.049122	-0.018335	-0.308594	-0.017334	-0.731201
562.0	8.607528	1.067012	5.837479	0.179648	-0.092035	0.0071	-0.306152	-0.021729	-0.735596
563.0	8.89803	0.976253	5.696044	0.160971	-0.09422	0.013463	-0.308838	-0.015137	-0.729004
564.0	8.847286	1.000273	5.433574	0.135753	-0.058428	0.008403	-0.304199	-0.015137	-0.731201
565.0	8.887562	1.049572	5.210025	0.083975	-0.02459	0.012843	-0.304199	-0.015137	-0.729004
566.0	8.808452	1.01339	5.212593	0.052807	0.029985	0.016062	-0.303955	-0.019531	-0.72876
567.0	8.467965	1.041091	5.345684	0.062698	0.013	0.048071	-0.301514	-0.023926	-0.730957
568.0	8.411057	0.96852	5.08237	0.082506	-0.039903	0.060412	-0.297363	-0.017334	-0.726563
569.0	8.399054	0.838241	4.831381	0.089298	-0.055628	0.070647	-0.308594	-0.017334	-0.726563
570.0	8.015463	0.753487	5.102353	0.081588	0.013187	0.064516	-0.306152	-0.021729	-0.730957
571.0	7.903511	0.906341	5.447079	0.093814	-0.016529	0.060328	-0.308838	-0.015137	-0.726563
572.0	8.007355	1.08305	5.391106	0.074927	-0.082207	0.065339	-0.301758	-0.019531	-0.72876
573.0	8.293336	1.306633	4.968244	0.088815	-0.119448	0.093697	-0.302002	-0.015137	-0.724365
574.0	8.340532	1.505899	4.67168	0.06885	-0.124967	0.110168	-0.303955	-0.023926	-0.723877
575.0	8.176795	1.573586	4.837883	0.036168	-0.086618	0.121669	-0.302002	-0.015137	-0.731201
576.0	8.084054	1.602624	5.015864	0.03447	-0.099229	0.128088	-0.306396	-0.017334	-0.731201
577.0	8.176172	1.625766	4.890332	0.0123	-0.13949	0.128423	-0.304199	-0.015137	-0.721924
578.0	8.367554	1.576403	4.568596	-0.018065	-0.123006	0.123686	-0.301514	-0.023926	-0.723877
579.0	8.449564	1.481349	4.541624	-0.055683	-0.064283	0.1129	-0.311035	-0.012939	-0.721924
580.0	8.388095	1.454405	4.589742	-0.082328	-0.040527	0.106845	-0.304199	-0.012939	-0.719727
581.0	8.340967	1.309684	4.741943	-0.112291	-0.027167	0.09247	-0.304443	-0.008545	-0.717529
582.0	8.272141	1.308941	4.631591	-0.12105	-0.018191	0.080755	-0.308594	-0.019531	-0.719482
583.0	8.296945	1.387553	4.757782	-0.154508	0.00396	0.061958	-0.304443	-0.010742	-0.722168
584.0	8.359635	1.287685	4.883611	-0.182658	-0.002819	0.032697	-0.306396	-0.015137	-0.721924
585.0	8.43986	1.396543	4.716067	-0.14867	-0.054544	0.013612	-0.302246	-0.006348	-0.712891
586.0	8.721903	1.540909	4.371036	-0.123478	-0.05361	-0.003399	-0.304688	-0.006348	-0.717529
587.0	8.772749	1.544867	4.089818	-0.096878	0.014643	-0.014565	-0.30249	-0.00415	-0.715332
588.0	8.636349	1.226653	4.133348	-0.074192	0.063837	-0.027912	-0.297607	-0.008545	-0.717529
589.0	8.639391	0.967138	4.235482	-0.010063	0.08541	-0.032121	-0.299805	-0.010742	-0.722168
590.0	8.663823	0.724475	4.164197	0.036683	0.130441	-0.036595	-0.302246	-0.008545	-0.717529
591.0	8.850959	0.539117	4.159973	0.100723	0.174941	-0.038843	-0.300049	-0.008545	-0.717529
592.0	9.154138	0.555213	4.154248	0.179391	0.146816	-0.025929	-0.295654	-0.006104	-0.717529
593.0	9.38441	0.512886	3.846244	0.239158	0.107609	-0.010458	-0.297607	-0.008545	-0.722168
594.0	9.648939	0.529609	3.710308	0.284282	0.074531	-0.008598	-0.290771	-0.012695	-0.719727
595.0	9.800915	0.702511	3.654823	0.332468	0.038456	-0.0099	-0.295166	-0.015137	-0.717285
596.0	9.813664	0.832317	3.357247	0.358802	0.038404	-0.003246	-0.28833	-0.017334	-0.717285
597.0	9.706207	1.175874	3.453305	0.389901	0.051909	0.008701	-0.297363	-0.017334	-0.712646
598.0	10.206976	1.375524	3.426822	0.383339	0.014172	0.043377	-0.29248	-0.023926	-0.7146
599.0	10.527221	1.40899	3.191543	0.388888	0.036744	0.079149	-0.294922	-0.019531	-0.714844
600.0	10.341475	1.466741	3.322546	0.344239	0.145157	0.10556	-0.290283	-0.026123	-0.721436
601.0	9.74923	1.283298	3.486588	0.291264	0.227207	0.104796	-0.29248	-0.026123	-0.712158
602.0	9.243121	1.31387	3.658874	0.235287	0.2166	0.079272	-0.290283	-0.02832	-0.719238
603.0	9.42914	1.593229	3.777424	0.230352	0.0923	0.050849	-0.283691	-0.023926	-0.717041
604.0	9.691274	2.254994	4.074212	0.219915	0.00678	0.046433	-0.285645	-0.02832	-0.719238
605.0	9.542757	2.938263	4.481774	0.148505	-0.078306	0.056234	-0.283203	-0.032715	-0.714355
606.0	10.270762	3.194221	5.837555	0.053366	-0.168087	0.114944	-0.288086	-0.026123	-0.712158
607.0	10.661151	3.807308	7.785276	-0.074352	-0.169879	0.203758	-0.288086	-0.023926	-0.717041
608.0	10.841181	3.465525	7.052477	-0.11399	-0.281563	0.286488	-0.29248	-0.026123	-0.712158
609.0	10.892343	2.857091	5.784429	-0.141316	-0.043799	0.315092	-0.294922	-0.021729	-0.717041
610.0	10.204493	1.356278	6.239853	-0.303471	0.199542	0.335513	-0.28833	-0.019531	-0.714844
611.0	9.674137	0.175075	6.265366	-0.127733	0.051778	0.317073	-0.286377	-0.012695	-0.715088
612.0	9.216746	0.05063	5.513148	0.027136	-0.04349	0.292237	-0.283691	-0.021729	-0.712402
613.0	8.16514	0.086798	5.561185	0.088327	0.03971	0.288434	-0.292969	-0.012939	-0.708008
614.0	6.995877	0.478131	5.953775	0.206742	0.001057	0.320111	-0.286133	-0.017334	-0.712646
615.0	6.282497	1.050031	5.977057	0.359643	-0.12851	0.355418	-0.28833	-0.017334	-0.708008
616.0	6.078769	1.906786	6.035758	0.403761	-0.273785	0.412928	-0.292725	-0.019531	-0.707764
617.0	6.249068	1.846252	6.668929	0.222762	-0.335991	0.464675	-0.297363	-0.017334	-0.710205
618.0	6.189546	1.873858	7.748035	0.087516	-0.416577	0.505726	-0.295166	-0.012939	-0.708008
619.0	6.809048	3.368487	7.623485	0.087075	-0.644258	0.544773	-0.302246	-0.010742	-0.708252
620.0	8.166497	4.401252	6.406262	-0.166868	-0.578078	0.589306	-0.302002	-0.012939	-0.708008
621.0	9.11708	3.794227	5.802914	-0.425026	-0.319138	0.608679	-0.304688	-0.001953	-0.696777
622.0	9.205764	3.187219	5.918213	-0.399723	-0.090865	0.552667	-0.307129	0.000244	-0.703857
623.0	9.483656	2.445371	5.847774	-0.339699	-0.008291	0.39372	-0.302734	0.004639	-0.699463
624.0	9.872411	1.169785	5.889665	-0.270414	0.043654	0.175632	-0.302734	0.006836	-0.701904
625.0	10.470761	0.388836	6.127505	-0.079181	-0.029197	-0.019486	-0.307373	0.004639	-0.70874
626.0	10.229254	0.153435	5.447822	0.042377	-0.05793	-0.130691	-0.307373	0.004639	-0.704102
627.0	9.515307	0.189763	5.372313	0.157092	-0.04517	-0.161933	-0.311523	0.000244	-0.706299
628.0	9.147475	0.67461	5.567694	0.269779	-0.06081	-0.157756	-0.302734	0.002441	-0.697021
629.0	8.322603	1.208975	5.775634	0.313711	0.036421	-0.132642	-0.30249	-0.001953	-0.699219
630.0	7.690198	1.540033	5.50265	0.319134	0.090025	-0.076342	-0.30249	-0.00415	-0.701416
631.0	7.357959	1.875288	5.245496	0.306957	0.152727	-0.011828	-0.306885	-0.001953	-0.703857
632.0	7.176931	2.029282	5.305414	0.269069	0.150319	0.075856	-0.30249	0.000244	-0.70166
633.0	7.416647	2.095468	5.280739	0.26241	0.08659	0.164904	-0.300293	0.000244	-0.699219
634.0	7.414707	2.392487	5.141763	0.262718	0.091476	0.237914	-0.295654	-0.00415	-0.708496
635.0	7.363079	2.41561	5.262953	0.199292	0.111211	0.274114	-0.295898	0.002686	-0.70166
636.0	7.427747	2.423465	5.324122	0.186355	0.088287	0.268424	-0.304688	-0.001953	-0.706299
637.0	7.442451	2.491384	5.125691	0.117147	0.060728	0.243431	-0.297852	-0.00415	-0.701416
638.0	7.237921	2.401948	4.907046	0.064618	0.082954	0.229678	-0.300293	-0.001953	-0.70166
639.0	7.185236	2.425035	4.847032	0.043609	0.055902	0.20635	-0.300293	0.002441	-0.699463
640.0	7.311969	2.456707	4.599838	0.039799	-0.002159	0.199167	-0.295898	0.000488	-0.706299
641.0	7.389785	2.197508	4.480009	0.023417	-0.023461	0.192767	-0.302734	0.006836	-0.701904
642.0	7.591257	1.98714	4.495026	0.051888	-0.06077	0.17005	-0.300293	0.000244	-0.703857
643.0	7.752372	1.985629	4.3894	0.05882	-0.073384	0.142903	-0.301025	0.015869	-0.699951
644.0	7.802173	1.795791	4.306168	0.051657	-0.063915	0.111582	-0.293945	0.00708	-0.704102
645.0	7.779287	1.627286	4.408418	0.0579	-0.042295	0.096703	-0.29834	0.004639	-0.694824
646.0	7.678482	1.500796	4.440487	0.070963	-0.073813	0.076941	-0.300293	-0.001953	-0.703857
647.0	7.565328	1.431302	4.551173	0.068556	-0.077602	0.054066	-0.300781	0.011475	-0.702148
648.0	7.791252	1.497575	4.711571	0.054165	-0.100081	0.043054	-0.29834	0.009277	-0.701904
649.0	8.293179	1.766424	4.714301	0.032801	-0.101597	0.029952	-0.298584	0.011475	-0.704346
650.0	8.469333	2.163861	4.669353	-0.055032	-0.028811	0.017418	-0.302979	0.009277	-0.706543
651.0	8.612008	2.351955	4.530657	-0.181469	0.032868	-0.001598	-0.300781	0.013672	-0.704346
652.0	8.496324	2.621463	4.451338	-0.27612	0.069674	-0.027502	-0.296387	0.013672	-0.702148
653.0	8.495484	2.921838	4.342032	-0.341005	0.033859	-0.049842	-0.296631	0.022461	-0.697754
654.0	8.65992	3.194095	4.368284	-0.42115	0.012494	-0.078012	-0.296631	0.022461	-0.700195
655.0	8.874717	3.253942	4.37051	-0.517537	0.008457	-0.121707	-0.296631	0.018066	-0.707031
656.0	8.864685	3.118767	4.235864	-0.602438	0.049302	-0.160875	-0.296875	0.029053	-0.697998
657.0	8.823261	2.782484	3.998643	-0.689789	0.095023	-0.210649	-0.294678	0.03125	-0.700439
658.0	8.798129	2.426474	3.780286	-0.775579	0.117913	-0.25918	-0.295166	0.042236	-0.700928
659.0	8.81431	2.047342	3.583643	-0.857869	0.123519	-0.30315	-0.297607	0.042236	-0.700928
660.0	8.623687	1.60624	3.361421	-0.939175	0.149593	-0.349585	-0.290771	0.044434	-0.705566
661.0	8.524964	1.251536	3.328271	-0.97109	0.146008	-0.372388	-0.288818	0.053223	-0.696533
662.0	8.533743	0.970591	3.319135	-0.988654	0.119448	-0.377161	-0.286865	0.05542	-0.701416
663.0	8.562677	0.875285	3.341705	-0.976656	0.11122	-0.355082	-0.289551	0.06665	-0.697021
664.0	8.65501	0.791786	3.423326	-0.971976	0.136827	-0.334729	-0.287109	0.062256	-0.70166
665.0	8.746046	0.740063	3.627415	-0.943897	0.146643	-0.323992	-0.2854	0.075439	-0.702148
666.0	8.788144	0.838068	3.710358	-0.870274	0.090227	-0.321552	-0.287598	0.077637	-0.69751
667.0	9.26312	0.889286	3.864882	-0.746858	0.013397	-0.335667	-0.283691	0.09082	-0.705078
668.0	9.857674	0.841933	4.090815	-0.620885	-0.010558	-0.354567	-0.28125	0.086426	-0.704834
669.0	10.038379	0.613766	4.745293	-0.49319	-0.096975	-0.376238	-0.283936	0.097412	-0.702881
670.0	10.692412	0.167424	5.333349	-0.297627	-0.222601	-0.389713	-0.283691	0.09082	-0.700439
671.0	11.640312	0.119356	7.209736	-0.027616	-0.196854	-0.408923	-0.28833	0.095215	-0.695801
672.0	12.198029	-1.030742	8.2684	0.086677	-0.244207	-0.439401	-0.283691	0.093018	-0.695801
673.0	13.277831	-2.403364	6.516394	0.17618	-0.353135	-0.480594	-0.288086	0.09082	-0.695801
674.0	13.509245	-2.484296	4.511045	0.372282	-0.071477	-0.479136	-0.29248	0.086426	-0.697754
675.0	12.000004	-0.916951	5.218928	0.678576	0.196815	-0.415957	-0.285645	0.086426	-0.697754
676.0	11.05373	0.534638	5.246352	0.822016	0.039907	-0.306636	-0.2854	0.075439	-0.695068
677.0	10.532292	1.821944	3.638264	0.881522	0.027069	-0.164701	-0.287354	0.071045	-0.697266
678.0	10.117633	2.58573	3.221957	0.846072	0.156672	-0.068486	-0.289795	0.073242	-0.697266
679.0	9.35701	2.720816	4.147206	0.820706	0.282347	-0.030357	-0.285156	0.068848	-0.699463
680.0	8.422711	2.968284	5.466592	0.785813	0.274443	-0.064395	-0.282471	0.062256	-0.706299
681.0	8.077348	2.311587	5.910526	0.636791	0.179641	-0.135296	-0.287109	0.062256	-0.697021
682.0	8.055936	1.139814	5.724241	0.60648	0.147406	-0.212241	-0.281982	0.051025	-0.701172
683.0	7.792229	0.516046	5.989439	0.683981	0.212005	-0.28911	-0.284424	0.055664	-0.708252
684.0	7.989574	-0.0131	6.658686	0.652863	0.164656	-0.358156	-0.275391	0.05127	-0.703613
685.0	7.947063	-0.111993	6.651116	0.69628	0.122594	-0.38828	-0.277344	0.046875	-0.708008
686.0	7.871096	0.666632	6.153571	0.737462	0.005021	-0.341694	-0.2771	0.037842	-0.700684
687.0	7.419787	1.607713	5.854392	0.72251	-0.030362	-0.251491	-0.281494	0.035645	-0.698242
688.0	7.041065	2.140894	6.127346	0.686673	-0.070748	-0.142558	-0.281494	0.037842	-0.700684
689.0	7.939084	2.651508	5.984635	0.699712	-0.200752	-0.047232	-0.281494	0.035645	-0.705322
690.0	8.833337	3.407484	5.337438	0.599719	-0.150084	0.033037	-0.28125	0.033447	-0.700439
691.0	8.63769	3.370346	5.011613	0.375192	0.090706	0.128091	-0.279297	0.037842	-0.693848
692.0	8.372522	3.101916	4.713264	0.321903	0.200496	0.217854	-0.274658	0.033447	-0.702881
693.0	8.505083	2.875061	4.271179	0.280334	0.222133	0.313321	-0.274414	0.03125	-0.702881
694.0	8.42704	2.10146	4.411434	0.100869	0.243205	0.392092	-0.276855	0.035645	-0.70752
695.0	7.784412	0.959964	4.665521	-0.060026	0.192993	0.392024	-0.274658	0.035645	-0.702881
696.0	7.298912	0.142552	4.309128	-0.135155	-0.002325	0.373771	-0.268066	0.040283	-0.707764
697.0	6.745781	-0.263109	4.104128	-0.12702	-0.004315	0.350949	-0.2771	0.040039	-0.698486
698.0	6.613837	-0.353211	4.473006	-0.121422	-0.034119	0.319739	-0.275146	0.046875	-0.703369
699.0	6.707277	0.041695	4.807125	-0.06113	-0.074379	0.274909	-0.277588	0.049072	-0.703369
700.0	6.878672	0.828502	4.985382	0.037622	-0.143162	0.236779	-0.272949	0.046875	-0.708008
701.0	7.096081	1.502045	4.886491	0.044062	-0.216742	0.201553	-0.284424	0.051025	-0.703613
702.0	7.631229	1.910253	4.759412	0.048797	-0.257988	0.145678	-0.275146	0.049072	-0.69873
703.0	8.163771	2.217334	4.699188	0.028996	-0.203015	0.084882	-0.279785	0.048828	-0.69873
704.0	8.183494	2.176528	4.535032	-0.021	-0.110079	-0.003983	-0.281982	0.051025	-0.698975
705.0	8.937819	1.974968	3.921249	0.00883	-0.178363	-0.097742	-0.280029	0.055664	-0.696777
706.0	9.671441	1.846482	3.974634	-0.055295	-0.085636	-0.159657	-0.279785	0.051025	-0.691895
707.0	9.523008	1.344974	4.080468	-0.138283	0.067767	-0.199667	-0.280029	0.053467	-0.698975
708.0	9.585895	1.076555	4.320657	-0.112898	0.062357	-0.220028	-0.277832	0.060059	-0.701416
709.0	9.666846	0.929362	4.336601	-0.145765	0.095203	-0.216075	-0.275879	0.064453	-0.699463
710.0	9.46858	0.54016	4.189064	-0.175868	0.154234	-0.212168	-0.273682	0.064453	-0.697021
711.0	9.376288	0.49627	4.222244	-0.131578	0.138071	-0.182189	-0.278076	0.064453	-0.699463
712.0	9.404396	0.747269	4.265621	-0.11843	0.181581	-0.14065	-0.27124	0.062256	-0.70166
713.0	9.213203	0.95989	4.168947	-0.062611	0.20472	-0.088673	-0.269287	0.068848	-0.704102
714.0	8.858728	1.208442	4.217939	-0.013777	0.200817	-0.033222	-0.27124	0.064453	-0.70166
715.0	8.864762	1.101882	4.15663	0.018762	0.125743	0.032775	-0.271484	0.06665	-0.701904
716.0	9.040168	0.767175	3.978699	0.078157	0.122325	0.108399	-0.27124	0.064453	-0.699463
717.0	8.72363	0.279759	3.702678	0.135184	0.22818	0.170916	-0.266846	0.064453	-0.699463
718.0	9.043164	-0.042499	3.284117	0.272838	0.135088	0.218579	-0.269287	0.068848	-0.701904
719.0	9.074946	-0.191203	3.038012	0.305586	0.137222	0.24432	-0.266846	0.06665	-0.706543
720.0	8.333458	-0.346361	3.188524	0.309437	0.173074	0.263336	-0.264404	0.062256	-0.706299
721.0	7.942627	-0.337842	3.309606	0.371104	0.0936	0.249568	-0.260254	0.06665	-0.701904
722.0	8.664507	0.017974	3.200453	0.432395	-0.058453	0.230143	-0.260254	0.068848	-0.706543
723.0	8.852654	0.450228	2.935861	0.390285	-0.05332	0.202173	-0.262451	0.06665	-0.704102
724.0	9.152594	1.15058	2.805633	0.423035	-0.114549	0.161874	-0.266602	0.060059	-0.708496
725.0	9.68919	1.916638	2.486145	0.434801	-0.218901	0.129251	-0.266846	0.06665	-0.706543
726.0	10.043977	2.465266	1.925588	0.458734	-0.302543	0.130595	-0.262207	0.062256	-0.710938
727.0	10.474833	2.837837	2.49822	0.376953	-0.277027	0.178257	-0.266846	0.062256	-0.70166
728.0	10.382063	2.627948	3.710754	0.242751	-0.225845	0.251634	-0.266846	0.064453	-0.70874
729.0	10.64292	2.399165	6.725436	0.085697	-0.18995	0.334662	-0.269043	0.062256	-0.703857
730.0	10.527721	2.713413	9.572313	-0.031546	-0.104599	0.438668	-0.273682	0.068848	-0.699463
731.0	10.568013	3.818208	9.1954	0.115022	-0.430379	0.565834	-0.269287	0.071045	-0.704346
732.0	11.392953	4.251734	6.346645	0.058978	-0.283656	0.693157	-0.269287	0.06665	-0.699463
733.0	10.688007	3.298462	6.583529	-0.283097	0.051467	0.788057	-0.271973	0.077637	-0.70459
734.0	8.520084	1.812617	6.588817	-0.357375	-0.14381	0.808626	-0.274414	0.082031	-0.702393
735.0	7.323947	2.016496	5.369511	-0.27765	-0.325969	0.735843	-0.267822	0.09082	-0.702637
736.0	6.843965	1.913624	5.933309	-0.378808	-0.246204	0.664104	-0.272217	0.086426	-0.700195
737.0	6.584514	1.105094	7.224984	-0.305195	-0.191638	0.626437	-0.274902	0.095215	-0.700439
738.0	7.263515	1.221892	7.545776	-0.031281	-0.360134	0.578949	-0.279297	0.093018	-0.695801
739.0	7.980695	2.361014	6.836274	0.041359	-0.392279	0.531676	-0.281738	0.099609	-0.696045
740.0	8.469232	3.008184	6.651973	-0.081844	-0.2607	0.491312	-0.277344	0.099609	-0.703125
741.0	9.625563	2.722523	6.878136	-0.289987	-0.31027	0.449985	-0.277344	0.104004	-0.696289
742.0	10.833142	2.213969	6.620613	-0.293656	-0.32768	0.357455	-0.279785	0.106201	-0.696289
743.0	11.817716	1.844634	5.848008	-0.222684	-0.299085	0.214301	-0.282227	0.112793	-0.696533
744.0	11.743777	1.087148	4.776741	-0.233528	-0.038114	0.050554	-0.286621	0.108398	-0.69165
745.0	9.762945	0.810259	4.552258	-0.197006	0.312691	-0.077237	-0.280029	0.112793	-0.691895
746.0	8.234648	1.00246	4.666651	-0.128319	0.307317	-0.146664	-0.277832	0.110596	-0.69873
747.0	7.522116	1.774295	4.762817	0.013958	0.162753	-0.131915	-0.280029	0.110596	-0.69873
748.0	6.992478	2.311052	4.67353	-0.025309	0.113666	-0.079932	-0.277832	0.113037	-0.703613
749.0	6.83291	2.419747	4.441218	0.003899	0.111853	-0.024459	-0.27124	0.117432	-0.698975
750.0	6.211389	3.267776	4.746759	0.095549	0.2594	0.038232	-0.280273	0.119629	-0.706055
751.0	6.33851	2.439531	5.288173	-0.196726	0.218822	0.065449	-0.275635	0.117432	-0.703613
752.0	7.110562	1.21418	4.80448	-0.117716	0.073489	0.047493	-0.273438	0.117432	-0.708252
753.0	7.338025	1.788682	4.706137	-0.072335	0.00126	0.025846	-0.273682	0.124023	-0.70166
754.0	7.700485	1.325835	4.469988	-0.222435	-0.016108	0.017946	-0.273682	0.119629	-0.701416
755.0	8.159926	0.854051	4.456232	-0.180889	-0.054793	0.000807	-0.273926	0.128418	-0.70874
756.0	8.66123	0.699419	4.28867	-0.120555	-0.091934	-0.024593	-0.276123	0.124023	-0.708496
757.0	8.650413	0.841928	4.127092	-0.063385	0.001029	-0.036112	-0.278076	0.121826	-0.703857
758.0	8.226665	0.651208	3.943432	-0.089344	0.131933	-0.057149	-0.26709	0.124023	-0.713135
759.0	8.083171	0.644261	3.677884	0.005714	0.149106	-0.060461	-0.273926	0.126221	-0.710938
760.0	8.012383	1.044174	3.713345	0.040492	0.20685	-0.046967	-0.26709	0.124023	-0.710938
761.0	7.901354	1.262099	3.779857	0.026693	0.248744	0.00228	-0.262695	0.126221	-0.715576
762.0	7.721349	1.426688	3.782344	0.004299	0.252358	0.060723	-0.266602	0.117432	-0.710693
763.0	7.564959	1.682289	3.662457	-0.033916	0.233024	0.107079	-0.262695	0.128418	-0.718018
764.0	7.700854	1.78194	3.50515	-0.100574	0.201806	0.151121	-0.264893	0.128418	-0.715576
765.0	7.693651	1.878839	3.416096	-0.148705	0.207189	0.177363	-0.264893	0.130615	-0.718018
766.0	7.703019	1.901886	3.318192	-0.173051	0.188403	0.199282	-0.258301	0.132813	-0.718262
767.0	7.936238	2.142465	3.308777	-0.169553	0.135474	0.221242	-0.260498	0.130615	-0.720459
768.0	8.182151	2.225658	3.34437	-0.204201	0.116396	0.223501	-0.256104	0.132813	-0.7229
769.0	8.731531	2.248777	3.458364	-0.248053	0.053126	0.222776	-0.256348	0.141602	-0.706787
770.0	9.303799	2.324498	3.62565	-0.311475	0.038526	0.184023	-0.256348	0.139404	-0.720703
771.0	9.658106	2.424726	3.954483	-0.404284	0.033704	0.115371	-0.258789	0.14624	-0.71875
772.0	9.932485	2.478636	4.157807	-0.462354	-0.008745	0.021042	-0.256592	0.144043	-0.720947
773.0	10.20128	2.187036	4.114209	-0.509588	-0.092365	-0.071223	-0.25708	0.155029	-0.718994
774.0	10.255604	1.819137	3.73787	-0.488498	-0.125981	-0.15504	-0.26123	0.148438	-0.721191
775.0	10.496181	1.204397	3.427814	-0.489722	-0.130149	-0.229694	-0.259277	0.157227	-0.716797
776.0	10.307571	0.740934	2.99575	-0.432332	-0.117154	-0.272631	-0.261719	0.159424	-0.7146
777.0	10.412323	0.80789	2.617822	-0.370973	-0.211043	-0.282055	-0.26416	0.163818	-0.717041
778.0	10.895193	1.044382	2.178862	-0.382397	-0.292512	-0.261669	-0.261719	0.159424	-0.7146
779.0	11.128122	2.116626	4.109536	-0.248472	-0.116956	-0.244155	-0.268555	0.161621	-0.7146
780.0	10.844378	2.702515	8.382267	-0.160295	0.061246	-0.294942	-0.263916	0.161621	-0.719238
781.0	10.519397	0.85891	11.814809	-0.038576	-0.148711	-0.365592	-0.273193	0.166016	-0.72168
782.0	12.509442	-2.166345	9.316832	-0.070436	-0.573015	-0.457856	-0.270752	0.159424	-0.723877
783.0	14.603931	-3.54374	6.525582	0.195731	-0.026922	-0.599445	-0.272949	0.15918	-0.712158
784.0	11.285573	-1.41629	7.771337	0.325213	0.16115	-0.726039	-0.270508	0.152588	-0.721191
785.0	8.484692	-1.408252	5.668877	0.169872	-0.363054	-0.712604	-0.279541	0.154785	-0.716553
786.0	7.908631	-0.488031	4.441922	0.359975	-0.243709	-0.640739	-0.274658	0.145996	-0.723389
787.0	6.211617	1.392988	6.134561	0.297845	0.089283	-0.565773	-0.281494	0.150391	-0.723389
788.0	4.399753	2.511186	7.980396	0.381342	-0.088054	-0.518486	-0.28125	0.141602	-0.718506
789.0	4.778356	2.092324	6.766963	0.286835	-0.583916	-0.479696	-0.285645	0.139404	-0.727783
790.0	6.255399	1.600619	4.815149	0.428161	-0.579643	-0.451113	-0.283203	0.132813	-0.720459
791.0	7.903465	1.999283	5.572466	0.396492	-0.497083	-0.426267	-0.298828	0.132568	-0.711182
792.0	10.496879	1.861655	6.788473	0.390886	-0.619921	-0.379783	-0.296387	0.123779	-0.720215
793.0	12.847658	2.053799	7.120608	0.338676	-0.677156	-0.292225	-0.296631	0.130615	-0.71582
794.0	13.765379	2.222904	6.090495	0.217484	-0.465864	-0.158032	-0.300537	0.119385	-0.717773
795.0	12.115456	1.712288	5.566133	0.011392	0.026351	-0.011672	-0.303223	0.125977	-0.715576
796.0	8.802718	0.898335	5.636964	-0.103666	0.317511	0.067503	-0.298584	0.125977	-0.715576
797.0	6.911842	0.254774	5.808412	-0.065468	0.099179	0.033668	-0.296631	0.132813	-0.720459
798.0	7.197941	-0.075658	5.469028	0.003133	-0.203455	-0.011675	-0.307373	0.121582	-0.717773
799.0	7.708993	-0.46792	4.751164	0.005199	-0.245906	-0.076062	-0.307861	0.130371	-0.725098
800.0	8.240054	-0.437965	4.146405	0.08513	-0.242136	-0.129537	-0.302979	0.123779	-0.715576
801.0	8.007609	-0.143641	4.359732	0.060345	-0.102162	-0.142384	-0.30542	0.128174	-0.710938
802.0	7.914664	-0.174846	4.571829	0.074173	-0.12929	-0.173946	-0.307373	0.121582	-0.717773
803.0	7.969453	0.303289	4.561449	0.191983	-0.237268	-0.173316	-0.307617	0.125977	-0.718018
804.0	7.734783	0.512091	4.480049	0.140205	-0.172615	-0.149096	-0.30957	0.119385	-0.717773
805.0	7.808629	0.398251	4.563368	0.190612	-0.078081	-0.129157	-0.312012	0.119385	-0.717529
806.0	7.75205	0.416208	4.729209	0.222888	0.036152	-0.0934	-0.309326	0.112793	-0.719727
807.0	7.754762	0.242478	4.476595	0.231392	0.085212	-0.054128	-0.316406	0.119385	-0.717529
808.0	7.448909	0.232807	4.345406	0.270636	0.188508	-0.016406	-0.311768	0.11499	-0.724365
809.0	7.426813	0.183637	4.398224	0.287254	0.217482	0.025922	-0.311768	0.117188	-0.722168
810.0	7.239294	0.271966	4.338565	0.302345	0.247111	0.069424	-0.30249	0.110596	-0.721924
811.0	7.36017	0.350763	4.235817	0.311845	0.217587	0.11048	-0.307129	0.11499	-0.724365
812.0	7.339395	0.439277	4.103302	0.291077	0.225116	0.144401	-0.304688	0.110596	-0.726563
813.0	7.30254	0.661762	3.994539	0.305099	0.242042	0.175174	-0.307129	0.112793	-0.724365
814.0	7.392998	0.719071	4.043848	0.308208	0.236467	0.185823	-0.302734	0.112793	-0.729004
815.0	7.669904	0.582516	3.953322	0.336051	0.202645	0.187479	-0.30249	0.108398	-0.73584
816.0	7.862659	0.604046	3.981122	0.372017	0.200197	0.162729	-0.300049	0.106201	-0.72876
817.0	8.403349	0.75723	3.969563	0.393251	0.180036	0.120098	-0.30249	0.108398	-0.731201
818.0	8.824065	0.864297	3.795695	0.415604	0.207212	0.0668	-0.29541	0.104004	-0.733398
819.0	9.459513	0.837233	3.724928	0.403566	0.23638	0.013672	-0.29541	0.104004	-0.738037
820.0	9.648569	0.873049	3.764129	0.3991	0.32898	-0.01783	-0.295166	0.093018	-0.730713
821.0	9.503283	1.090769	3.90435	0.407205	0.396681	-0.060326	-0.292725	0.093018	-0.737549
822.0	9.236912	1.259909	3.882141	0.371134	0.416887	-0.090242	-0.290527	0.09082	-0.739746
823.0	9.205826	1.324789	3.883487	0.345448	0.422892	-0.11397	-0.292725	0.088623	-0.744385
824.0	9.497236	1.337874	3.886827	0.332462	0.403077	-0.120576	-0.285889	0.086426	-0.744385
825.0	9.479709	1.428414	3.842396	0.368783	0.445849	-0.111798	-0.285889	0.086426	-0.739746
826.0	9.548394	1.456051	3.833593	0.392414	0.499509	-0.08628	-0.278564	0.075439	-0.743896
827.0	9.325797	1.159462	3.959505	0.39375	0.593893	-0.050259	-0.281006	0.082031	-0.744141
828.0	9.106007	1.131309	4.254888	0.411698	0.564946	-0.003452	-0.278809	0.079834	-0.753418
829.0	8.866722	1.172951	4.077197	0.418908	0.493254	0.04081	-0.264893	0.073486	-0.748535
830.0	8.71111	1.282638	3.723345	0.435886	0.415991	0.094509	-0.271729	0.071045	-0.757568
831.0	8.648442	1.528366	3.550043	0.421723	0.349971	0.151203	-0.267334	0.077881	-0.755615
832.0	8.379329	1.74639	3.212101	0.382737	0.265784	0.199281	-0.264893	0.069092	-0.757568
833.0	8.388539	1.639793	2.797465	0.356861	0.150648	0.239587	-0.26709	0.071289	-0.76001
834.0	9.171711	1.524801	2.094619	0.416825	-0.006331	0.266147	-0.262451	0.066895	-0.755127
835.0	10.100286	1.700277	1.422068	0.476505	-0.065785	0.277196	-0.26709	0.071289	-0.75293
836.0	10.503561	2.035542	1.294935	0.478086	-0.013436	0.292318	-0.264648	0.064453	-0.755127
837.0	10.734454	1.86496	1.518882	0.449619	0.000881	0.304504	-0.27124	0.062256	-0.761963
838.0	10.992128	1.662206	1.551748	0.501034	0.012124	0.309166	-0.259766	0.053467	-0.759277
839.0	11.032145	1.44126	1.886772	0.516045	0.096839	0.304926	-0.262207	0.0625	-0.761963
840.0	11.013751	0.73208	3.993014	0.364949	0.289263	0.315715	-0.259766	0.053467	-0.75708
841.0	10.792778	0.203091	7.305528	0.24691	0.311658	0.358858	-0.262207	0.060303	-0.761963
842.0	10.753785	2.023942	9.751401	0.402283	0.046334	0.376379	-0.259521	0.049072	-0.761475
843.0	11.338224	4.369474	8.500045	0.45433	-0.121997	0.435637	-0.26416	0.053467	-0.766357
844.0	10.527459	6.317985	7.450737	0.331124	0.214982	0.530932	-0.255127	0.051514	-0.770996
845.0	9.340324	5.172936	8.496789	-0.077383	0.008139	0.575749	-0.264404	0.055664	-0.766357
846.0	8.814261	3.589015	7.290403	0.002443	-0.429162	0.509766	-0.266602	0.058105	-0.773438
847.0	8.802071	3.523717	7.099171	-0.254766	-0.320954	0.425341	-0.275635	0.057861	-0.76416
848.0	7.888843	2.450227	6.874241	-0.404724	-0.060046	0.379977	-0.264648	0.066895	-0.766846
849.0	7.516317	1.599347	7.026846	-0.427481	0.083885	0.381372	-0.269287	0.06665	-0.762207
850.0	7.689474	0.627407	6.887094	-0.426342	0.077922	0.418319	-0.264893	0.069092	-0.762207
851.0	8.179066	1.308277	6.652824	-0.209337	-0.094116	0.458084	-0.271729	0.075684	-0.762451
852.0	8.067746	1.720912	5.995949	-0.354948	-0.029033	0.468416	-0.271729	0.073486	-0.769287
853.0	8.098989	1.163442	6.009176	-0.530106	-0.005999	0.45169	-0.27002	0.084473	-0.767578
854.0	8.801766	0.960764	6.554397	-0.537995	-0.1298	0.387235	-0.267578	0.082275	-0.767334
855.0	9.87603	1.203169	6.179397	-0.500897	-0.29916	0.269438	-0.272461	0.088867	-0.767578
856.0	11.074618	1.097464	5.600241	-0.516156	-0.293807	0.106898	-0.274658	0.091064	-0.762939
857.0	11.428412	0.941151	5.385231	-0.440163	-0.094626	-0.050744	-0.274902	0.095459	-0.760986
858.0	10.284165	0.989611	5.467734	-0.365477	0.056107	-0.177383	-0.274902	0.093262	-0.760742
859.0	9.221494	0.969425	5.28798	-0.256323	0.09969	-0.25621	-0.274902	0.097656	-0.765625
860.0	8.187442	1.351568	5.143646	-0.176066	0.21064	-0.309534	-0.270264	0.093262	-0.767822
861.0	8.083328	1.560057	4.774262	-0.136922	0.187069	-0.34937	-0.275146	0.102051	-0.768066
862.0	6.822249	1.904716	4.473921	-0.173092	0.372067	-0.368105	-0.272949	0.102051	-0.763428
863.0	5.900699	2.314079	4.358216	-0.177404	0.325459	-0.391574	-0.268311	0.097656	-0.765625
864.0	5.436492	2.457728	4.203275	-0.239789	0.266896	-0.38985	-0.270264	0.093262	-0.77002
865.0	5.678399	2.300481	3.862162	-0.268105	0.096851	-0.39033	-0.268066	0.095459	-0.774902
866.0	5.512942	2.193254	3.720914	-0.335517	0.079496	-0.406032	-0.265869	0.095459	-0.770264
867.0	5.357931	2.049843	4.232051	-0.398274	0.01597	-0.415004	-0.270752	0.102051	-0.772705
868.0	5.975608	2.028095	4.462992	-0.362182	-0.163732	-0.409497	-0.270752	0.104248	-0.765869
869.0	6.810084	2.069209	4.520397	-0.402508	-0.247599	-0.400339	-0.272949	0.104248	-0.768311
870.0	7.330739	2.115111	4.422591	-0.437795	-0.212422	-0.372625	-0.272949	0.099854	-0.772705
871.0	7.952454	2.25452	4.551551	-0.455561	-0.210772	-0.339279	-0.280029	0.108643	-0.766113
872.0	8.19483	2.191669	4.206552	-0.49769	-0.216329	-0.270746	-0.280029	0.108643	-0.766113
873.0	8.328624	1.840509	3.838057	-0.494924	-0.187932	-0.191923	-0.282227	0.11084	-0.766113
874.0	8.754559	1.505088	3.901522	-0.445289	-0.197293	-0.111442	-0.284668	0.113037	-0.759277
875.0	8.845518	1.298417	4.139556	-0.423488	-0.162968	-0.025795	-0.280762	0.126221	-0.769043
876.0	8.800034	0.993195	4.085206	-0.440356	-0.13921	0.041826	-0.280273	0.117432	-0.763916
877.0	8.757149	0.574074	3.96017	-0.4527	-0.061231	0.074269	-0.289795	0.128418	-0.759766
878.0	8.761533	0.452917	3.996123	-0.438328	-0.038781	0.088177	-0.285156	0.124023	-0.766602
879.0	9.030843	0.434437	3.855488	-0.424516	-0.025332	0.091096	-0.2854	0.132813	-0.764648
880.0	9.020756	0.629812	3.91704	-0.395795	0.085066	0.079291	-0.287598	0.130615	-0.764404
881.0	9.00432	0.792937	3.981012	-0.387855	0.157817	0.066355	-0.2854	0.132813	-0.76001
882.0	8.898503	0.988939	4.10626	-0.342466	0.228848	0.052162	-0.283203	0.132813	-0.764648
883.0	8.60253	1.083485	4.213621	-0.321024	0.237674	0.047572	-0.279053	0.141602	-0.760254
884.0	8.533667	1.359584	4.147758	-0.258967	0.189216	0.038571	-0.283203	0.13501	-0.76709
885.0	8.367968	1.862891	3.911729	-0.269443	0.153569	0.047061	-0.283447	0.141602	-0.764893
886.0	8.503068	2.159327	3.686884	-0.30607	0.121698	0.055433	-0.278809	0.137207	-0.771729
887.0	8.896159	2.403939	3.806012	-0.3499	0.073895	0.047449	-0.279297	0.148438	-0.765137
888.0	8.553548	2.532276	3.931906	-0.371482	0.073153	0.03326	-0.281494	0.148438	-0.765137
889.0	8.729364	2.576775	3.991081	-0.373746	-0.063811	0.02152	-0.283936	0.152832	-0.765381
890.0	9.092305	2.297484	3.841244	-0.390628	-0.127786	0.028952	-0.281738	0.150635	-0.77002
891.0	9.240301	1.709439	3.64001	-0.39367	-0.152584	0.028837	-0.281982	0.157227	-0.763184
892.0	10.060825	0.822013	3.32006	-0.40175	-0.30246	0.003991	-0.28418	0.155029	-0.760742
893.0	10.772598	-0.185801	2.543713	-0.412796	-0.384634	-0.047479	-0.29126	0.163818	-0.763428
894.0	11.290924	-0.958082	1.931187	-0.366562	-0.381462	-0.14592	-0.293457	0.161621	-0.765625
895.0	11.779739	-0.39631	2.645111	-0.116701	-0.283915	-0.271258	-0.29126	0.163818	-0.758789
896.0	11.905622	0.587487	4.24802	-0.062791	-0.224965	-0.383649	-0.293213	0.15918	-0.756348
897.0	12.32568	1.294942	6.116039	0.054632	-0.100348	-0.470633	-0.302246	0.156982	-0.758545
898.0	12.490982	1.313755	8.451832	0.178425	0.020931	-0.562297	-0.295166	0.148193	-0.758301
899.0	12.864744	0.068119	7.910001	0.129156	-0.091601	-0.667893	-0.304199	0.150391	-0.760498
900.0	12.722906	-1.053847	5.689822	0.171498	0.137023	-0.76648	-0.297119	0.141602	-0.760254
901.0	10.825928	-0.143799	5.97043	0.374459	0.286313	-0.84211	-0.303711	0.139404	-0.760254
902.0	8.459284	1.224971	7.948925	0.560487	0.004884	-0.857148	-0.303467	0.132813	-0.762207
903.0	7.575665	0.703313	8.185247	0.518171	-0.458351	-0.842849	-0.303223	0.128418	-0.757568
904.0	7.613216	-0.701323	5.822636	0.520323	-0.563059	-0.832558	-0.30957	0.117188	-0.752441
905.0	6.787533	0.329416	5.179791	0.72844	-0.368193	-0.820608	-0.318359	0.112793	-0.759277
906.0	6.174423	1.946355	5.723825	0.630066	-0.313584	-0.77442	-0.322754	0.106201	-0.759033
907.0	6.080904	2.701457	5.438104	0.498867	-0.304896	-0.670272	-0.32251	0.101807	-0.751709
908.0	6.534569	3.333986	5.211312	0.390713	-0.221972	-0.542605	-0.319824	0.093018	-0.758545
909.0	7.422506	3.912292	5.993859	0.279636	-0.110683	-0.401943	-0.322021	0.09082	-0.756104
910.0	8.835912	3.806534	6.648393	0.174004	-0.156693	-0.242911	-0.324219	0.086426	-0.753662
911.0	10.756652	3.342605	6.377041	0.158364	-0.245886	-0.093628	-0.328613	0.088623	-0.753662
912.0	11.482049	2.549851	5.576001	0.05954	-0.066368	0.028554	-0.331055	0.09082	-0.749023
913.0	10.437119	1.330519	5.294872	-0.079573	0.179913	0.097784	-0.323975	0.084229	-0.751221
914.0	9.218104	0.498232	5.830918	-0.053204	0.21019	0.123588	-0.330811	0.086426	-0.755859
915.0	8.743787	0.09547	5.503058	-0.095318	0.05481	0.140454	-0.32666	0.09082	-0.753662
916.0	8.615187	-0.342754	4.659764	-0.166357	0.012686	0.156231	-0.331055	0.093018	-0.756104
917.0	8.085153	-0.739784	4.362591	-0.213461	0.070768	0.148732	-0.331055	0.09082	-0.756104
918.0	7.12708	-0.703558	4.055841	-0.111533	0.081572	0.122104	-0.330811	0.086426	-0.755859
919.0	6.408552	-0.335232	4.203631	0.009642	0.044807	0.104359	-0.329102	0.097412	-0.760986
920.0	6.3514	-0.115025	4.07335	0.165073	-0.087776	0.096373	-0.328613	0.084229	-0.755859
921.0	6.615192	0.133869	3.982754	0.273849	-0.137425	0.089958	-0.326416	0.086426	-0.755859
922.0	6.818241	0.305256	4.023365	0.338173	-0.04161	0.081607	-0.330811	0.084229	-0.751221
923.0	6.783472	0.616723	4.351853	0.347898	0.131627	0.054471	-0.330811	0.084229	-0.755859
924.0	7.38289	1.021407	4.985136	0.340835	0.124211	0.079395	-0.328369	0.079834	-0.762695
925.0	8.02376	1.054507	4.496596	0.337476	0.000335	0.087247	-0.332764	0.07959	-0.755615
926.0	8.203311	1.298276	4.003315	0.308425	-0.022514	0.086818	-0.330322	0.070801	-0.76001
927.0	8.28926	1.379164	3.871573	0.237124	-0.000867	0.078822	-0.334961	0.075195	-0.76001
928.0	8.074085	1.435117	4.156026	0.189885	0.10661	0.054292	-0.328125	0.070801	-0.757568
929.0	8.155201	1.659413	4.387297	0.180024	0.10984	0.015152	-0.336914	0.068604	-0.759766
930.0	8.460837	1.776528	4.168166	0.136359	0.159798	-0.02158	-0.334473	0.064209	-0.757324
931.0	8.3538	1.611246	3.711266	0.077061	0.257764	-0.054912	-0.332275	0.064209	-0.761963
932.0	8.185711	1.586675	3.542328	0.057261	0.285806	-0.08132	-0.330078	0.064209	-0.764404
933.0	8.628722	1.407	3.518024	0.0365	0.256304	-0.094279	-0.330078	0.064209	-0.766602
934.0	8.945387	1.194302	3.492993	0.027852	0.27128	-0.090557	-0.325195	0.05542	-0.766357
935.0	9.241102	1.085819	3.576231	0.051319	0.300209	-0.092297	-0.325439	0.062012	-0.773682
936.0	9.616511	0.830714	3.5137	0.067811	0.349055	-0.085606	-0.322998	0.057617	-0.766357
937.0	9.693229	0.579218	3.634819	0.084992	0.420074	-0.074155	-0.325439	0.059814	-0.768799
938.0	9.678901	0.50456	4.321256	0.044045	0.546171	-0.062082	-0.320557	0.051025	-0.773193
939.0	9.005265	0.858022	4.217966	0.095973	0.513529	-0.067715	-0.313721	0.051025	-0.768555
940.0	9.482031	1.607805	3.780875	0.197997	0.283638	-0.082116	-0.306641	0.044678	-0.768311
941.0	10.009047	2.234852	3.244565	0.237233	0.197459	-0.080558	-0.313477	0.046631	-0.770752
942.0	9.623693	2.642522	3.403175	0.209936	0.182419	-0.058913	-0.313232	0.042236	-0.770508
943.0	9.600201	2.569659	3.189514	0.207029	0.077009	-0.021913	-0.313477	0.046631	-0.772949
944.0	10.157837	2.592424	2.916896	0.23254	0.047527	0.013662	-0.308594	0.037842	-0.777344
945.0	10.159534	2.047885	2.734593	0.154286	0.106595	0.064991	-0.31543	0.037842	-0.774902
946.0	10.093073	1.528721	2.982467	0.126269	0.126718	0.1135	-0.30835	0.03125	-0.7771
947.0	9.956766	1.274098	3.695966	0.057411	0.111356	0.184048	-0.310791	0.035645	-0.781982
948.0	10.579344	1.431967	4.402936	0.048971	-0.048689	0.274708	-0.315186	0.033447	-0.772461
949.0	11.174534	2.16655	5.328855	0.011075	-0.175186	0.376299	-0.320068	0.040039	-0.775146
950.0	11.239616	2.617221	6.683824	-0.12103	-0.1615	0.495314	-0.315186	0.033447	-0.774902
951.0	11.347108	3.385047	8.195416	-0.175929	-0.223042	0.624879	-0.329102	0.040039	-0.777344
952.0	11.700875	4.048232	7.7083	-0.168538	-0.375676	0.765187	-0.320068	0.042236	-0.777588
953.0	11.361516	3.37856	8.963838	-0.494775	-0.094241	0.919516	-0.324707	0.044434	-0.772949
954.0	10.273409	1.900474	10.178849	-0.601336	-0.219559	1.045829	-0.327393	0.05542	-0.773438
955.0	8.719675	2.47979	6.957564	-0.27024	-0.509848	1.006176	-0.329834	0.062012	-0.775879
956.0	7.049155	2.629992	5.000166	-0.502657	-0.236928	0.942187	-0.329834	0.062012	-0.773682
957.0	5.662962	1.133456	6.66122	-0.576799	-0.180755	0.851884	-0.339355	0.070801	-0.771484
958.0	6.132198	0.318621	5.947549	-0.230119	-0.46825	0.742975	-0.339111	0.068604	-0.769043
959.0	6.541873	0.309539	4.83699	-0.099359	-0.363922	0.653917	-0.343994	0.075195	-0.771729
960.0	6.164286	0.438132	4.854433	-0.074288	-0.068771	0.536703	-0.350586	0.072998	-0.773926
961.0	6.961318	1.010187	6.012	-0.102895	-0.070799	0.427035	-0.35083	0.075195	-0.76709
962.0	8.943998	1.543106	6.210292	-0.211289	-0.2484	0.33616	-0.344238	0.07959	-0.767334
963.0	11.095103	2.063646	5.961835	-0.368579	-0.359557	0.2357	-0.35083	0.07959	-0.764893
964.0	12.029649	2.387857	5.561102	-0.497348	-0.251637	0.127339	-0.35083	0.07959	-0.764893
965.0	10.83373	2.498459	5.48544	-0.597738	0.086371	0.018831	-0.351074	0.083984	-0.767334
966.0	9.037665	2.299397	5.638995	-0.6139	0.291423	-0.066559	-0.353271	0.07959	-0.767334
967.0	7.714142	2.076078	5.463151	-0.523018	0.342907	-0.147451	-0.351563	0.094971	-0.77002
968.0	6.781006	2.261687	5.299998	-0.366554	0.275454	-0.211926	-0.34668	0.088379	-0.767578
969.0	6.271669	2.443458	5.369655	-0.23096	0.216239	-0.242998	-0.346924	0.09082	-0.772217
970.0	5.854389	2.240425	5.228641	-0.15751	0.163979	-0.226347	-0.344238	0.083984	-0.769775
971.0	5.696251	1.964253	5.137081	-0.075372	0.105866	-0.185702	-0.346924	0.090576	-0.767578
972.0	5.761072	1.670668	5.173234	-0.047485	0.082903	-0.137828	-0.348877	0.083984	-0.769775
973.0	5.981585	1.265588	5.446633	-0.092029	0.018555	-0.090656	-0.34668	0.083984	-0.769775
974.0	6.737469	0.843082	5.422113	-0.116383	-0.094138	-0.084848	-0.344482	0.086182	-0.772217
975.0	7.619109	0.745207	5.10973	-0.143746	-0.16222	-0.074047	-0.353516	0.086182	-0.772217
976.0	8.263306	0.78129	4.704085	-0.14271	-0.065645	-0.045831	-0.353516	0.086182	-0.774414
977.0	8.741562	0.841909	4.764552	-0.180304	0.090243	-0.007059	-0.353516	0.086182	-0.772217
978.0	8.846368	0.8782	4.76704	-0.173072	0.22552	0.045766	-0.348877	0.083984	-0.769775
979.0	8.861028	0.939153	4.631171	-0.131845	0.2815	0.077007	-0.351074	0.083984	-0.771973
980.0	8.57319	1.179233	4.395159	-0.081995	0.277483	0.105971	-0.34668	0.086426	-0.781494
981.0	8.441355	1.15656	4.289824	-0.067783	0.272127	0.131088	-0.346924	0.09082	-0.776855
982.0	8.420486	1.280457	4.341121	-0.025662	0.266531	0.13174	-0.344482	0.088623	-0.776855
983.0	8.485951	1.42122	4.366318	-0.042239	0.267765	0.132121	-0.351563	0.093018	-0.786377
984.0	8.381166	1.660611	4.41981	-0.058473	0.292748	0.116972	-0.34668	0.086426	-0.783691
985.0	8.336181	1.898489	4.250648	-0.085559	0.261234	0.104458	-0.337646	0.088623	-0.781494
986.0	8.224002	1.956986	4.037146	-0.15795	0.258975	0.087231	-0.339844	0.086426	-0.781494
987.0	8.032481	1.916036	3.961706	-0.206173	0.2668	0.054088	-0.340088	0.093018	-0.783936
988.0	7.966476	2.002853	3.973039	-0.237076	0.241854	0.021068	-0.342285	0.088623	-0.788574
989.0	8.035677	2.11207	3.789061	-0.261499	0.206157	-0.006344	-0.340088	0.088623	-0.783936
990.0	8.134338	2.160549	3.558758	-0.28433	0.137736	-0.022674	-0.337891	0.09082	-0.781494
991.0	8.339219	2.367021	3.507565	-0.320712	0.076643	-0.053996	-0.340088	0.093018	-0.786377
992.0	8.663764	2.482086	3.617391	-0.392709	-0.009788	-0.084714	-0.344727	0.095215	-0.781738
993.0	8.583184	2.334331	3.638878	-0.501305	-0.061478	-0.122819	-0.342773	0.101807	-0.789063
994.0	8.210983	2.185002	3.693128	-0.558036	-0.10292	-0.163623	-0.344727	0.095215	-0.788818
995.0	8.320176	1.915405	3.696856	-0.575399	-0.159575	-0.193677	-0.342773	0.101807	-0.781982
996.0	8.649644	1.615855	3.436447	-0.568139	-0.183196	-0.219765	-0.347412	0.101807	-0.784424
997.0	9.357885	1.168456	3.094271	-0.534847	-0.229569	-0.250436	-0.347656	0.108398	-0.780029
998.0	10.203923	0.953561	2.751881	-0.485082	-0.259137	-0.294528	-0.354248	0.104004	-0.784424
999.0	10.912593	0.619563	2.450452	-0.497616	-0.285161	-0.324725	-0.354248	0.104004	-0.779785
1000.0	11.639037	0.115228	1.958582	-0.507973	-0.320247	-0.33974	-0.356445	0.106201	-0.784424
1001.0	11.897669	-0.004302	1.43382	-0.475107	-0.210956	-0.342999	-0.356689	0.108398	-0.779785
1002.0	11.526693	0.540985	1.503449	-0.438883	-0.027099	-0.34071	-0.356445	0.106201	-0.786865
1003.0	11.168135	1.614228	3.275208	-0.328478	0.132277	-0.346383	-0.356689	0.112793	-0.784668
1004.0	10.861299	2.164252	7.108044	-0.225209	0.220821	-0.386106	-0.356689	0.108398	-0.782227
1005.0	10.538188	1.079377	10.372242	0.027246	0.08291	-0.427212	-0.363281	0.106201	-0.779785
1006.0	11.339928	-0.974663	9.427501	0.027185	-0.334073	-0.481666	-0.365234	0.097168	-0.779541
1007.0	12.807061	-3.709556	6.436329	-0.019884	-0.09474	-0.583251	-0.363281	0.10376	-0.779785
1008.0	11.29733	-3.501921	6.748569	0.293608	0.125344	-0.696419	-0.367188	0.092773	-0.783936
1009.0	8.95719	-0.808644	7.277887	0.57892	-0.231653	-0.731046	-0.36499	0.090576	-0.781494
1010.0	8.012029	0.598964	8.296932	0.72114	-0.225182	-0.722044	-0.368652	0.072998	-0.781006
1011.0	7.422814	-0.00917	7.448164	0.561904	-0.335706	-0.686515	-0.373291	0.077393	-0.776367
1012.0	7.183546	-0.1526	5.078124	0.694758	-0.313549	-0.662445	-0.375	0.059814	-0.775879
1013.0	6.896505	1.806271	5.857241	0.80044	-0.172287	-0.623732	-0.374756	0.052979	-0.780273
1014.0	7.108077	2.798818	6.634755	0.591203	-0.227931	-0.530567	-0.381348	0.048584	-0.777588
1015.0	7.818644	3.542361	6.176381	0.512234	-0.384124	-0.415066	-0.378906	0.046387	-0.777588
1016.0	8.520647	4.139287	6.351035	0.33256	-0.339718	-0.263955	-0.376465	0.044189	-0.775146
1017.0	10.003594	3.916461	6.618988	0.196475	-0.392111	-0.11518	-0.383301	0.041992	-0.772705
1018.0	11.007177	3.605176	6.574514	0.152785	-0.360931	0.014361	-0.38501	0.033203	-0.7771
1019.0	10.624739	2.360358	6.505021	-0.064293	-0.193184	0.094888	-0.387695	0.041992	-0.768066
1020.0	9.569369	0.906343	6.219415	-0.040616	-0.125518	0.109472	-0.387451	0.033203	-0.7771
1021.0	8.855179	0.202761	6.081742	0.00141	-0.123748	0.084855	-0.389893	0.041992	-0.775146
1022.0	8.630155	-0.542236	5.516267	-0.04925	-0.122031	0.027872	-0.39209	0.039795	-0.768066
1023.0	8.314177	-0.894669	4.910972	-0.032132	-0.091143	-0.00479	-0.387939	0.046387	-0.770508
1024.0	8.224969	-0.904444	4.751565	0.024095	-0.057643	0.000752	-0.394287	0.0354	-0.767822
1025.0	7.93459	-0.907595	4.589161	0.101046	0.027261	0.020401	-0.392334	0.041992	-0.772705
1026.0	7.441192	-1.103417	4.367638	0.200781	0.053308	0.040705	-0.394287	0.039795	-0.765625
1027.0	7.245648	-0.846463	4.193007	0.365139	-0.001919	0.07203	-0.389893	0.039795	-0.765625
1028.0	6.92475	-0.465207	4.293791	0.441834	-0.00017	0.116026	-0.389648	0.031006	-0.77002
1029.0	6.539424	-0.542435	4.309699	0.52488	-0.018716	0.180501	-0.39624	0.031006	-0.77002
1030.0	6.364816	-0.374591	4.474947	0.641084	-0.023805	0.243059	-0.400635	0.028809	-0.772217
1031.0	6.389132	-0.056996	4.813428	0.620046	-0.013975	0.278083	-0.398438	0.031006	-0.772461
1032.0	7.011584	0.152579	4.676444	0.674403	-0.083123	0.312864	-0.400391	0.019775	-0.77417
1033.0	7.334457	0.617838	4.287488	0.691485	-0.072594	0.339857	-0.400146	0.017578	-0.769531
1034.0	7.524113	1.093003	3.829513	0.696341	-0.039014	0.360799	-0.402344	0.010986	-0.764648
1035.0	7.648584	1.399601	4.079008	0.621915	-0.009121	0.392382	-0.402344	0.013184	-0.76709
1036.0	7.501185	1.642336	4.176951	0.597855	0.009492	0.383062	-0.397461	0.006592	-0.771484
1037.0	7.64608	2.11244	4.406416	0.531449	0.017384	0.341979	-0.399902	0.006592	-0.780762
1038.0	7.990925	2.026788	4.302103	0.427613	0.08521	0.291432	-0.4021	0.004395	-0.769043
1039.0	8.414826	1.754724	4.318318	0.376994	0.185364	0.220732	-0.4021	0.004395	-0.776123
1040.0	8.636136	1.448894	4.310155	0.353025	0.265758	0.148076	-0.399658	0.002197	-0.77124
1041.0	8.774496	1.406678	4.538296	0.348776	0.313235	0.070351	-0.399902	0.008789	-0.778564
1042.0	9.229409	1.096292	4.474246	0.300126	0.309168	0.000199	-0.396973	-0.006592	-0.780273
1043.0	9.555163	0.944977	4.377624	0.326952	0.376563	-0.054392	-0.397217	0.0	-0.778076
1044.0	9.463213	1.020775	4.423274	0.359032	0.460773	-0.080065	-0.385742	-0.006592	-0.777832
1045.0	9.240366	0.993076	4.131942	0.418028	0.499204	-0.101643	-0.385986	-0.004395	-0.782715
1046.0	8.856692	1.232066	3.772155	0.492284	0.567433	-0.125404	-0.39209	-0.015381	-0.784668
1047.0	8.378477	1.361061	3.748044	0.469374	0.624694	-0.122591	-0.374268	-0.012939	-0.789307
1048.0	8.158779	1.496665	3.607467	0.48189	0.529384	-0.109588	-0.375977	-0.02417	-0.781982
1049.0	8.526083	1.794953	3.699385	0.450027	0.41183	-0.062625	-0.371826	-0.019531	-0.791504
1050.0	8.528726	1.81983	3.569621	0.379087	0.403391	0.005553	-0.375977	-0.028564	-0.793457
1051.0	8.805677	2.164305	3.742748	0.401635	0.286781	0.075989	-0.369141	-0.026123	-0.793457
1052.0	8.454631	1.639468	3.74863	0.283324	0.299979	0.139548	-0.369141	-0.028564	-0.793457
1053.0	9.121074	1.294518	3.808454	0.351601	0.230623	0.158421	-0.373291	-0.035156	-0.790771
1054.0	9.469452	1.082547	3.507206	0.357731	0.314909	0.175898	-0.366699	-0.030518	-0.795654
1055.0	9.079876	0.543414	3.117216	0.421216	0.439421	0.167784	-0.360107	-0.030518	-0.802734
1056.0	9.272234	0.503027	2.626828	0.533621	0.367749	0.165783	-0.359375	-0.043701	-0.802002
1057.0	9.516901	0.728888	1.790919	0.612038	0.198257	0.152978	-0.362061	-0.037109	-0.800049
1058.0	9.801055	1.537701	1.067523	0.71274	0.023736	0.145042	-0.359375	-0.046143	-0.799805
1059.0	10.467388	2.612294	0.914697	0.727442	-0.173869	0.197201	-0.365967	-0.04834	-0.799561
1060.0	10.888811	3.016347	0.971301	0.681487	-0.230042	0.279635	-0.363525	-0.054932	-0.797119
1061.0	10.972814	2.509202	1.328506	0.642618	-0.126951	0.348511	-0.365723	-0.057129	-0.799316
1062.0	11.487615	1.450062	3.863551	0.484291	0.067179	0.418978	-0.372559	-0.057129	-0.796875
1063.0	11.935281	0.420643	8.211929	0.318149	0.224573	0.524202	-0.368164	-0.052734	-0.799561
1064.0	11.264942	2.5291	10.779927	0.538702	0.02492	0.560531	-0.365479	-0.061523	-0.801514
1065.0	12.16742	4.491079	7.883064	0.450039	-0.143082	0.595611	-0.370117	-0.057129	-0.799316
1066.0	11.640688	6.340391	7.01299	0.151691	0.401319	0.645017	-0.368164	-0.054932	-0.794678
1067.0	9.050011	5.765936	8.961497	-0.38989	-0.054855	0.700522	-0.375	-0.050537	-0.79248
1068.0	9.142385	4.692701	6.833825	-0.260684	-0.949672	0.614066	-0.377441	-0.046143	-0.788086
1069.0	9.799833	4.003335	5.782544	-0.605338	-0.582773	0.508504	-0.384277	-0.041748	-0.792969
1070.0	8.514524	2.053299	5.90192	-0.685743	-0.162965	0.40695	-0.382324	-0.035156	-0.790771
1071.0	8.069231	1.724224	5.692198	-0.468263	-0.112386	0.359467	-0.38501	-0.02417	-0.795898
1072.0	7.789181	0.979486	5.563635	-0.512525	0.111403	0.353262	-0.378174	-0.026367	-0.793457
1073.0	7.872621	0.416725	6.899428	-0.471982	0.110667	0.357862	-0.387451	-0.019775	-0.800781
1074.0	7.552499	0.702457	8.012574	-0.39535	-0.024532	0.367701	-0.383301	-0.015381	-0.796143
1075.0	7.817431	1.677397	7.045842	-0.310667	-0.266758	0.367817	-0.390381	-0.001953	-0.796631
1076.0	8.704234	2.395792	6.413541	-0.539986	-0.311059	0.3773	-0.388428	0.004639	-0.794678
1077.0	9.398734	2.265708	6.737354	-0.730588	-0.274905	0.345961	-0.390869	0.006836	-0.790039
1078.0	9.76149	2.156177	6.888989	-0.754954	-0.378695	0.256666	-0.392822	0.002197	-0.792236
1079.0	10.084296	1.812071	6.178119	-0.685797	-0.43787	0.169885	-0.397949	0.017822	-0.795166
1080.0	10.448278	1.385218	5.297861	-0.571077	-0.392837	0.079294	-0.400146	0.013428	-0.792725
1081.0	10.079746	1.025628	4.55462	-0.459079	-0.136314	-0.020428	-0.400635	0.026611	-0.786133
1082.0	8.704153	0.694436	4.515543	-0.376522	0.137293	-0.105959	-0.398193	0.02002	-0.792969
1083.0	7.823613	0.639274	4.804231	-0.294655	0.181246	-0.153451	-0.400635	0.026611	-0.786133
1084.0	7.371736	0.890837	4.724423	-0.195821	0.11438	-0.177705	-0.398438	0.026611	-0.800049
1085.0	7.123433	1.275356	4.443093	-0.204809	0.069086	-0.196446	-0.400879	0.031006	-0.795654
1086.0	6.444992	1.411872	4.173064	-0.30324	0.150872	-0.199289	-0.400635	0.024414	-0.790771
1087.0	5.833732	1.407476	4.234878	-0.345845	0.222058	-0.180897	-0.398682	0.0354	-0.791016
1088.0	5.807732	1.222406	4.384886	-0.329726	0.192499	-0.16642	-0.394043	0.031006	-0.783936
1089.0	6.356722	1.169898	4.387714	-0.249923	0.098103	-0.135366	-0.398682	0.0354	-0.795654
1090.0	6.792593	1.297026	4.360879	-0.204576	0.056938	-0.089991	-0.391846	0.031006	-0.797852
1091.0	7.005584	1.275611	4.410067	-0.254741	0.057577	-0.04906	-0.394531	0.039795	-0.793701
1092.0	7.877391	1.082909	4.092936	-0.234878	-0.063647	-0.047993	-0.389893	0.037598	-0.79126
1093.0	8.441169	1.193335	3.781074	-0.265134	-0.062367	-0.066031	-0.401367	0.041992	-0.79126
1094.0	8.752587	1.191335	3.670751	-0.284488	-0.029831	-0.080555	-0.394531	0.039795	-0.795898
1095.0	8.363059	1.164581	3.483645	-0.278825	0.001084	-0.076133	-0.401367	0.041992	-0.795898
1096.0	8.016361	1.26687	3.605562	-0.224234	0.032322	-0.054966	-0.401367	0.041992	-0.793701
1097.0	8.17322	1.371879	3.857196	-0.172258	0.036818	-0.020394	-0.39917	0.048584	-0.796143
1098.0	8.351543	1.50682	3.757114	-0.184073	0.042853	0.034159	-0.388184	0.050781	-0.796387
1099.0	8.513997	1.503461	3.632513	-0.188682	0.09092	0.071907	-0.39502	0.055176	-0.798828
1100.0	8.467833	1.590461	3.778702	-0.232523	0.152567	0.094529	-0.397217	0.052979	-0.798828
1101.0	8.413913	1.498017	3.838886	-0.273116	0.110832	0.102397	-0.397461	0.061768	-0.799072
1102.0	8.573336	1.503349	3.645164	-0.264789	0.033972	0.102634	-0.392822	0.057373	-0.794189
1103.0	8.902524	1.455818	3.357937	-0.278278	-0.019862	0.081174	-0.388428	0.061768	-0.791992
1104.0	8.969136	1.38709	3.078118	-0.273866	-0.001902	0.070742	-0.397949	0.068359	-0.799316
1105.0	9.056736	1.442056	3.286023	-0.261176	0.022959	0.056437	-0.395752	0.072998	-0.794922
1106.0	8.885612	1.49889	3.309231	-0.273099	0.022866	0.052552	-0.400146	0.070557	-0.79248
1107.0	8.65845	1.507903	3.415752	-0.280861	-0.000628	0.050501	-0.391357	0.072998	-0.797119
1108.0	8.554908	1.515389	3.539098	-0.265604	-0.006254	0.046688	-0.395752	0.075195	-0.790283
1109.0	8.638615	1.536429	3.738737	-0.250457	-0.005028	0.023394	-0.402832	0.079346	-0.788086
1110.0	9.035966	1.500097	3.872218	-0.239809	-0.030344	-0.012611	-0.395996	0.07959	-0.792725
1111.0	8.64086	1.460086	3.990724	-0.252423	0.040253	-0.018206	-0.39624	0.083984	-0.78833
1112.0	8.766508	1.121235	3.963518	-0.297479	-0.066146	-0.03808	-0.402832	0.081787	-0.795166
1113.0	8.801317	1.176754	3.980402	-0.217365	-0.122287	-0.04101	-0.394043	0.088379	-0.792969
1114.0	9.086804	1.119386	4.039648	-0.210461	-0.214766	-0.036298	-0.400635	0.081787	-0.792725
1115.0	9.944016	0.796783	3.572232	-0.198541	-0.355634	-0.039045	-0.403076	0.088379	-0.78833
1116.0	10.77711	0.645028	3.004663	-0.201313	-0.442523	-0.059714	-0.40332	0.092773	-0.788574
1117.0	11.502876	0.609529	3.041231	-0.1713	-0.453221	-0.102087	-0.40332	0.094971	-0.788574
1118.0	11.607662	0.985366	3.849903	-0.111699	-0.378683	-0.16668	-0.409912	0.090332	-0.779297
1119.0	11.689923	1.372718	5.097341	0.019295	-0.329586	-0.229272	-0.414795	0.096924	-0.779541
1120.0	11.620008	1.569991	7.39905	0.198714	-0.198413	-0.309255	-0.414551	0.092529	-0.779297
1121.0	11.687842	0.14355	8.208145	0.292323	-0.334588	-0.404497	-0.416748	0.090332	-0.779297
1122.0	12.57659	-1.048882	6.316809	0.414086	-0.364202	-0.533068	-0.423096	0.079346	-0.776367
1123.0	12.650885	-1.097613	5.260007	0.531815	-0.036412	-0.641737	-0.423096	0.081543	-0.776611
1124.0	10.872842	-0.133648	5.687775	0.589117	-0.010094	-0.68598	-0.413818	0.072754	-0.778564
1125.0	9.375464	0.476702	5.270299	0.636772	-0.173122	-0.662071	-0.42041	0.068359	-0.776123
1126.0	8.775878	1.231874	5.648776	0.669211	-0.088004	-0.64046	-0.424316	0.055176	-0.777832
1127.0	7.962581	0.950857	6.105806	0.459037	-0.047737	-0.633604	-0.428955	0.057373	-0.775635
1128.0	7.49235	0.395767	5.47983	0.393774	-0.143324	-0.656574	-0.428467	0.04834	-0.775391
1129.0	7.138213	0.933352	5.394926	0.457707	-0.111699	-0.694294	-0.423584	0.039551	-0.770264
1130.0	6.907905	1.567734	6.007637	0.40833	-0.09495	-0.706725	-0.428223	0.037354	-0.777344
1131.0	7.019465	1.778989	6.33233	0.37388	-0.182324	-0.706075	-0.425781	0.035156	-0.767822
1132.0	7.625464	2.185566	6.437743	0.434772	-0.267589	-0.672627	-0.43457	0.028564	-0.774658
1133.0	8.787466	2.505717	6.713267	0.417264	-0.340505	-0.610233	-0.427734	0.026367	-0.769775
1134.0	10.250903	2.382436	6.587805	0.368078	-0.373317	-0.519839	-0.436768	0.026367	-0.765137
1135.0	11.133212	2.363069	6.290799	0.343389	-0.309379	-0.417125	-0.440918	0.021973	-0.767334
1136.0	11.030375	2.104499	5.589698	0.287733	-0.162043	-0.318627	-0.442871	0.010742	-0.766846
1137.0	9.373239	1.554734	5.539205	0.171264	0.124915	-0.242625	-0.440918	0.017578	-0.76709
1138.0	8.472716	0.861119	5.413738	0.187755	0.090365	-0.21263	-0.436035	0.010986	-0.764648
1139.0	8.147961	0.556289	4.93721	0.216089	0.051374	-0.1781	-0.438477	0.015381	-0.76709
1140.0	7.983796	0.258078	4.783641	0.192661	0.076056	-0.120225	-0.438232	0.010986	-0.769287
1141.0	8.383141	-0.299142	4.388394	0.219968	-0.027826	-0.051517	-0.436035	0.010986	-0.766846
1142.0	8.279708	-0.451115	4.125456	0.268525	0.007251	-0.017489	-0.442627	0.00415	-0.764404
1143.0	7.773611	-0.58617	4.119722	0.238672	0.001325	0.019076	-0.436035	0.010986	-0.762207
1144.0	7.672659	-0.662362	4.226806	0.29467	-0.065245	0.052549	-0.436035	0.010986	-0.764648
1145.0	8.046798	-0.311897	4.332086	0.389704	-0.167068	0.090653	-0.442627	0.008545	-0.766846
1146.0	8.233549	-0.13595	4.097203	0.392476	-0.163758	0.13518	-0.44458	-0.000244	-0.761963
1147.0	8.333724	0.182847	3.829628	0.467459	-0.099496	0.16091	-0.444824	0.00415	-0.761963
1148.0	8.181751	0.775541	4.246676	0.419677	0.061747	0.212352	-0.449219	0.001953	-0.766602
1149.0	8.297647	0.980897	4.104109	0.413277	0.059322	0.273588	-0.449463	0.006348	-0.762207
1150.0	8.622334	1.529997	3.904421	0.450283	0.055109	0.303786	-0.446777	-0.002441	-0.759521
1151.0	8.582405	1.821332	3.593808	0.38239	0.105307	0.312257	-0.444824	0.006348	-0.755127
1152.0	8.363462	1.886205	3.596637	0.334197	0.187167	0.303579	-0.442383	-0.002441	-0.754883
1153.0	8.018775	1.894393	3.696003	0.300506	0.250624	0.278575	-0.442383	-0.002441	-0.76416
1154.0	7.806541	1.901813	3.633439	0.252289	0.308952	0.246043	-0.439941	-0.004639	-0.761719
1155.0	7.628228	1.790014	3.712788	0.225487	0.36829	0.197005	-0.442383	0.001953	-0.764404
1156.0	7.457887	1.658932	3.848366	0.21918	0.389637	0.134839	-0.437744	-0.002441	-0.761719
1157.0	7.509393	1.432554	3.848892	0.213475	0.3902	0.090847	-0.431152	0.0	-0.76416
1158.0	7.549423	1.161014	3.98742	0.217938	0.416717	0.030527	-0.430908	-0.004395	-0.770996
1159.0	7.625148	0.948831	4.089863	0.243945	0.431137	-0.008614	-0.428955	0.002197	-0.769043
1160.0	7.705317	0.878623	4.209394	0.284007	0.454896	-0.046539	-0.426514	-0.004395	-0.775635
1161.0	7.964709	0.857477	4.326096	0.313978	0.437726	-0.074588	-0.433105	-0.006836	-0.773193
1162.0	8.473492	0.847205	4.256845	0.317355	0.390173	-0.095568	-0.421875	-0.006592	-0.770996
1163.0	8.729526	0.873239	4.304966	0.314544	0.383593	-0.104369	-0.421631	-0.008789	-0.777832
1164.0	8.835162	0.933132	4.066044	0.308585	0.369139	-0.114533	-0.419434	-0.010986	-0.780029
1165.0	9.30879	1.007376	3.691053	0.323518	0.321058	-0.120838	-0.419189	-0.013184	-0.772949
1166.0	9.682225	1.381549	3.488659	0.338251	0.292302	-0.104058	-0.412354	-0.015381	-0.780029
1167.0	9.852615	1.650166	3.362714	0.310047	0.251939	-0.085737	-0.417236	-0.010986	-0.775391
1168.0	10.052414	1.89881	3.220584	0.332032	0.212558	-0.065986	-0.421143	-0.024414	-0.772705
1169.0	9.964728	2.213833	3.217267	0.337378	0.255614	-0.041621	-0.416992	-0.015381	-0.777588
1170.0	9.464991	2.081306	3.328032	0.27614	0.372848	-0.01431	-0.416504	-0.026367	-0.78418
1171.0	9.503507	1.952466	3.330021	0.293287	0.41699	0.016731	-0.412109	-0.021973	-0.784424
1172.0	9.484522	1.90678	3.109316	0.273815	0.455195	0.052796	-0.409912	-0.021973	-0.779785
1173.0	9.275895	1.990786	2.787496	0.253594	0.458798	0.078098	-0.407715	-0.02417	-0.779541
1174.0	9.461224	2.297871	2.479023	0.266786	0.347374	0.109533	-0.402832	-0.032959	-0.783936
1175.0	9.782678	2.452092	1.956027	0.294523	0.223211	0.136087	-0.405273	-0.02417	-0.777344
1176.0	10.000752	2.584762	1.444104	0.332504	0.165195	0.186876	-0.409668	-0.028564	-0.78418
1177.0	10.017314	2.305283	1.191409	0.349764	0.149666	0.229162	-0.405273	-0.026367	-0.791016
1178.0	9.912771	1.750709	1.617028	0.395674	0.186279	0.250625	-0.400635	-0.030762	-0.788574
1179.0	10.284096	0.914716	3.58364	0.337484	0.211801	0.291177	-0.402832	-0.030762	-0.783936
1180.0	10.442494	0.196959	6.712436	0.255435	0.211807	0.366603	-0.405029	-0.030762	-0.786377
1181.0	10.142177	1.965774	8.755092	0.442297	0.023953	0.417683	-0.407227	-0.030762	-0.774658
1182.0	10.59842	3.620494	7.444734	0.395431	-0.112097	0.493032	-0.407227	-0.032959	-0.781494
1183.0	11.150493	4.566651	6.69282	0.293257	0.167186	0.569333	-0.400635	-0.026367	-0.781738
1184.0	10.534202	4.448852	8.216058	-0.067241	0.025825	0.690307	-0.407715	-0.021973	-0.781982
1185.0	9.825075	3.785751	7.02535	-0.09269	-0.545955	0.730441	-0.414795	-0.015381	-0.780029
1186.0	9.759499	2.931563	5.418534	-0.33324	-0.500817	0.683847	-0.412598	-0.010986	-0.780029
1187.0	8.886587	1.72395	6.158134	-0.395671	-0.11816	0.579131	-0.41748	0.0	-0.775879
1188.0	8.037444	1.149808	8.41366	-0.485713	-0.088177	0.568522	-0.415283	-0.002197	-0.775879
1189.0	8.187939	0.802238	7.621906	-0.195642	-0.361873	0.556956	-0.422119	0.002197	-0.77832
1190.0	8.208405	2.518126	6.17602	0.035875	-0.25929	0.543661	-0.422119	0.002197	-0.773682
1191.0	8.19213	2.11701	5.540316	-0.260628	0.000856	0.537752	-0.422363	0.004395	-0.77124
1192.0	8.431517	1.214385	6.649876	-0.253005	0.054231	0.502989	-0.424805	0.013184	-0.776367
1193.0	8.258252	1.537908	7.177687	-0.230107	-0.125812	0.418828	-0.429688	0.019775	-0.769531
1194.0	8.394052	1.506678	6.247774	-0.306005	-0.233341	0.27289	-0.425049	0.019775	-0.767334
1195.0	9.57582	1.631026	5.747482	-0.236089	-0.250562	0.106348	-0.434326	0.021973	-0.771973
1196.0	10.319421	2.209793	5.542106	-0.217717	-0.164745	0.002457	-0.434082	0.017578	-0.769531
1197.0	10.311371	2.630238	5.357349	-0.263319	-0.136513	-0.058126	-0.436768	0.026367	-0.767578
1198.0	9.551541	2.633612	5.337179	-0.344419	0.005382	-0.107551	-0.43457	0.030762	-0.77002
1199.0	8.498488	2.844517	5.360812	-0.363599	0.091068	-0.125186	-0.432373	0.032959	-0.772461
1200.0	7.850198	2.994261	5.003554	-0.404033	0.128591	-0.154711	-0.432617	0.035156	-0.772461
1201.0	7.048843	3.045814	4.587207	-0.468403	0.227839	-0.182442	-0.430176	0.035156	-0.772461
1202.0	5.929314	3.061057	4.892728	-0.534801	0.316734	-0.229215	-0.432373	0.030762	-0.7771
1203.0	5.568822	2.938049	5.069296	-0.534419	0.180867	-0.283206	-0.432861	0.041748	-0.770508
1204.0	5.66689	2.909604	4.960446	-0.540823	0.012267	-0.339163	-0.432617	0.035156	-0.772461
1205.0	5.931355	2.760958	4.849316	-0.624076	-0.081479	-0.38737	-0.432861	0.041748	-0.768066
1206.0	6.144487	2.418876	4.830026	-0.692359	-0.129296	-0.433323	-0.432861	0.043945	-0.768066
1207.0	6.514887	2.012245	4.95262	-0.726304	-0.159604	-0.477869	-0.430664	0.046143	-0.770508
1208.0	7.142157	1.720976	4.950503	-0.70728	-0.213445	-0.515738	-0.435303	0.04834	-0.768311
1209.0	7.542076	1.595665	4.833405	-0.704335	-0.222607	-0.530542	-0.440186	0.054932	-0.770996
1210.0	7.756978	1.478587	4.553104	-0.691587	-0.172239	-0.502968	-0.435303	0.04834	-0.775391
1211.0	8.264226	1.04395	4.26775	-0.690506	-0.111151	-0.455349	-0.435791	0.059326	-0.76416
1212.0	8.576599	0.739047	4.194512	-0.644086	-0.011106	-0.395265	-0.446777	0.052734	-0.768555
1213.0	8.62188	0.613579	4.341717	-0.611395	0.033234	-0.328772	-0.435791	0.061523	-0.768799
1214.0	8.747318	0.613249	4.059438	-0.575921	0.039567	-0.23782	-0.442871	0.065918	-0.761963
1215.0	8.47807	0.775203	3.801789	-0.569991	0.13981	-0.157514	-0.442871	0.068115	-0.773682
1216.0	8.21988	1.077214	3.940406	-0.573022	0.200176	-0.095332	-0.438477	0.070313	-0.771484
1217.0	8.060374	1.331829	4.072054	-0.613742	0.224881	-0.040996	-0.443359	0.079346	-0.76709
1218.0	8.436505	1.432138	4.046989	-0.63779	0.175908	-0.017278	-0.436523	0.077148	-0.76709
1219.0	8.754184	1.544639	3.876905	-0.664171	0.110267	-0.01621	-0.43457	0.08374	-0.767334
1220.0	8.993289	1.580502	3.778138	-0.673447	0.101306	-0.033822	-0.43457	0.088135	-0.772217
1221.0	8.945362	1.550488	3.674574	-0.679266	0.115391	-0.029518	-0.432617	0.092529	-0.774658
1222.0	8.84955	1.362644	3.581882	-0.66521	0.119054	-0.002911	-0.43042	0.094727	-0.767822
1223.0	8.92729	1.291695	3.467683	-0.591626	0.08476	0.01927	-0.435059	0.099121	-0.770264
1224.0	8.978439	1.37652	3.06083	-0.542017	0.074052	0.058873	-0.430664	0.101318	-0.772705
1225.0	9.154094	1.415674	2.832239	-0.48644	0.153065	0.095465	-0.43335	0.110107	-0.772949
1226.0	9.15054	1.545456	3.112626	-0.476899	0.273824	0.129998	-0.431152	0.114502	-0.773193
1227.0	8.940372	1.452536	3.475454	-0.515092	0.299197	0.14941	-0.429199	0.121094	-0.778076
1228.0	9.357899	1.223804	3.537341	-0.521885	0.176792	0.132003	-0.429199	0.121094	-0.773438
1229.0	9.484658	0.966881	3.434232	-0.493844	0.097956	0.0927	-0.431396	0.121094	-0.778076
1230.0	9.334702	0.676743	3.560323	-0.430476	0.076669	0.029253	-0.424561	0.119141	-0.773193
1231.0	9.436967	0.530099	3.49512	-0.364385	0.021179	-0.01124	-0.434082	0.132324	-0.77832
1232.0	9.113537	0.423622	3.411524	-0.319574	0.048148	-0.040359	-0.42749	0.132324	-0.77832
1233.0	9.145121	0.291268	3.414686	-0.266181	0.034254	-0.06589	-0.436523	0.134521	-0.776123
1234.0	9.787669	0.601468	3.024085	-0.175431	-0.083756	-0.09129	-0.42749	0.134521	-0.771484
1235.0	10.553788	0.954107	2.390967	-0.17076	-0.186634	-0.106963	-0.432129	0.134521	-0.771484
1236.0	11.072378	0.690282	1.853234	-0.224035	-0.19018	-0.105734	-0.434082	0.132324	-0.771484
1237.0	11.167612	0.961855	2.098742	-0.15735	-0.148251	-0.12298	-0.438965	0.138916	-0.776367
1238.0	10.787986	1.695946	4.123968	-0.04439	-0.082055	-0.153354	-0.434082	0.132324	-0.776123
1239.0	10.554485	2.074032	6.921628	0.157922	-0.090059	-0.202204	-0.434082	0.132324	-0.773682
1240.0	10.698638	1.574331	9.20339	0.423661	-0.184516	-0.252481	-0.434082	0.127686	-0.775879
1241.0	11.690697	0.091103	7.924238	0.438626	-0.404093	-0.333552	-0.44751	0.127686	-0.773682
1242.0	12.688886	-1.952188	5.607577	0.401147	-0.189364	-0.452922	-0.449463	0.116699	-0.768555
1243.0	11.350477	-1.576221	5.752849	0.603658	-0.003283	-0.55695	-0.44458	0.110107	-0.772949
1244.0	9.420743	-0.208785	5.677289	0.626048	-0.288766	-0.579234	-0.44873	0.101318	-0.770264
1245.0	8.384326	1.201643	6.131102	0.802114	-0.233445	-0.570526	-0.453125	0.101318	-0.772705
1246.0	7.332335	2.48847	8.162984	0.748338	-0.150881	-0.589804	-0.452637	0.083496	-0.77417
1247.0	6.974082	1.52295	6.91737	0.477484	-0.345657	-0.614923	-0.450439	0.085693	-0.769775
1248.0	7.000084	1.218145	5.034691	0.604316	-0.290103	-0.665951	-0.454346	0.074707	-0.771729
1249.0	6.805267	2.324397	5.591011	0.653131	-0.183872	-0.691038	-0.454346	0.070313	-0.780762
1250.0	6.95116	2.819661	6.178114	0.533444	-0.269876	-0.654836	-0.458496	0.061523	-0.77124
1251.0	7.646449	3.201667	6.164007	0.555958	-0.382887	-0.545488	-0.460449	0.057129	-0.763916
1252.0	9.180642	3.555773	6.325898	0.524139	-0.418405	-0.351264	-0.464844	0.052734	-0.768555
1253.0	10.947534	3.379068	6.160906	0.436314	-0.370125	-0.130607	-0.467041	0.054932	-0.768555
1254.0	11.429921	2.811169	5.726642	0.329858	-0.143978	0.066558	-0.469238	0.04834	-0.766113
1255.0	10.449052	1.63721	5.924111	0.258742	0.100452	0.199063	-0.469238	0.050537	-0.768311
1256.0	9.654873	0.705945	6.213676	0.316236	0.054719	0.257819	-0.466553	0.039307	-0.765625
1257.0	9.597655	0.395491	5.657339	0.346543	-0.026316	0.307354	-0.464844	0.052734	-0.770752
1258.0	9.66052	-0.232924	4.949953	0.255932	-0.021101	0.357377	-0.466797	0.04834	-0.766113
1259.0	8.660478	-0.790596	4.68609	0.221999	0.088262	0.387692	-0.462402	0.050537	-0.766113
1260.0	7.613356	-1.067395	4.770029	0.246025	0.086504	0.369166	-0.468994	0.043701	-0.765869
1261.0	6.895381	-0.818336	4.565695	0.327386	-0.022078	0.321573	-0.468994	0.043945	-0.772705
1262.0	6.966096	-0.595766	4.129628	0.375132	-0.146567	0.262387	-0.466309	0.037109	-0.763184
1263.0	7.010076	-0.253359	3.842956	0.466461	-0.119378	0.190396	-0.466797	0.043945	-0.772705
1264.0	7.15422	0.164905	4.203531	0.493901	-0.051966	0.131283	-0.470947	0.034912	-0.772461
1265.0	7.628186	0.616227	4.45131	0.542486	-0.025691	0.067485	-0.464111	0.034912	-0.767822
1266.0	7.827869	1.58663	4.716865	0.605109	0.049214	0.059952	-0.4729	0.032715	-0.77002
1267.0	8.042573	1.99485	4.132374	0.586862	0.023247	0.094698	-0.470703	0.030518	-0.772217
1268.0	8.194367	2.257453	3.670008	0.64662	0.023235	0.120611	-0.463623	0.023926	-0.771973
1269.0	7.675868	2.357652	3.647903	0.543218	0.068083	0.145146	-0.470459	0.026123	-0.779053
1270.0	7.134964	2.117996	3.835025	0.496086	0.05966	0.150442	-0.46582	0.021729	-0.78125
1271.0	7.473733	2.061036	3.976893	0.440811	0.004523	0.137032	-0.46582	0.019531	-0.77417
1272.0	7.82816	1.987366	3.946004	0.34858	0.090085	0.104787	-0.46582	0.019531	-0.78125
1273.0	8.003486	1.802326	3.887848	0.31926	0.196058	0.068124	-0.465576	0.017334	-0.778809
1274.0	7.842882	1.663769	3.866368	0.307982	0.282606	0.035047	-0.463135	0.010742	-0.776123
1275.0	7.844725	1.398298	3.861919	0.299805	0.293703	-0.006431	-0.461182	0.017334	-0.783447
1276.0	8.04008	1.228854	3.718705	0.31466	0.228186	-0.042405	-0.460693	0.00415	-0.780518
1277.0	8.475632	1.201907	3.468868	0.331436	0.192326	-0.080015	-0.45874	0.012939	-0.783203
1278.0	8.680501	1.268898	3.451689	0.339257	0.18722	-0.119774	-0.462891	0.001953	-0.792236
1279.0	8.75968	1.353234	3.528732	0.34449	0.210314	-0.155895	-0.456055	0.001953	-0.785156
1280.0	8.752492	1.329984	3.521873	0.348637	0.221575	-0.1822	-0.453369	-0.009033	-0.791748
1281.0	8.658044	1.375954	3.56996	0.318289	0.241662	-0.204239	-0.453369	-0.004639	-0.787354
1282.0	8.697654	1.515827	3.698706	0.264254	0.245402	-0.224047	-0.450928	-0.01123	-0.796387
1283.0	8.682085	1.758994	3.856797	0.21311	0.258325	-0.232599	-0.451172	-0.009033	-0.798828
1284.0	9.044506	2.187765	3.497627	0.25815	0.121554	-0.227945	-0.443848	-0.017822	-0.800781
1285.0	9.462877	2.581215	3.573361	0.196386	0.076895	-0.195711	-0.446289	-0.017822	-0.793701
1286.0	9.058419	2.252866	3.767415	0.124889	0.112985	-0.176316	-0.448486	-0.015625	-0.800781
1287.0	9.050993	2.260209	3.953012	0.133978	0.098019	-0.152953	-0.450928	-0.013428	-0.798584
1288.0	9.173122	1.957595	3.546926	0.099058	0.154673	-0.128242	-0.450439	-0.026611	-0.795654
1289.0	9.262365	1.873091	3.203431	0.12783	0.170084	-0.093308	-0.443848	-0.02002	-0.800537
1290.0	9.701906	2.056505	3.098057	0.135971	0.070361	-0.020015	-0.443604	-0.026611	-0.800293
1291.0	10.058254	1.983597	2.817602	0.108877	-0.023992	0.080247	-0.443604	-0.024414	-0.805176
1292.0	10.39388	1.76221	2.509699	0.129327	-0.168989	0.181329	-0.447998	-0.028809	-0.800293
1293.0	10.811974	1.447583	2.890049	0.074978	-0.258585	0.29289	-0.452881	-0.02002	-0.79834
1294.0	11.0599	0.597089	3.904271	-0.015858	-0.282395	0.395986	-0.450195	-0.028809	-0.800293
1295.0	11.513484	0.211492	6.00047	-0.007677	-0.337646	0.514947	-0.455322	-0.017822	-0.802979
1296.0	11.978968	1.48158	7.186926	0.169973	-0.407537	0.593028	-0.459717	-0.02002	-0.795898
1297.0	12.44549	3.456542	6.617739	0.165254	-0.388249	0.67051	-0.466309	-0.02002	-0.800537
1298.0	12.623502	4.192498	5.780491	0.025185	-0.118818	0.769061	-0.45752	-0.017822	-0.802979
1299.0	11.704942	4.70176	6.495701	-0.136097	0.00689	0.880286	-0.457764	-0.013428	-0.800781
1300.0	10.113645	4.233593	5.975097	-0.294854	-0.131824	0.937139	-0.462402	-0.006836	-0.796387
1301.0	9.069049	3.560407	4.623692	-0.349112	-0.128247	0.894077	-0.460693	0.006348	-0.799316
1302.0	8.352964	2.89894	4.660011	-0.416656	0.070252	0.839614	-0.463135	0.008545	-0.806396
1303.0	7.250971	1.764947	6.287054	-0.59181	0.241791	0.815895	-0.463135	0.012939	-0.804199
1304.0	6.320426	0.875893	7.177849	-0.543912	0.071699	0.810544	-0.463623	0.021973	-0.809082
1305.0	6.777626	2.117676	6.42052	-0.246638	-0.192376	0.822497	-0.46167	0.030762	-0.811768
1306.0	7.03738	3.154343	5.524933	-0.408363	-0.014711	0.841378	-0.463867	0.030762	-0.811768
1307.0	6.838283	2.41249	5.536883	-0.651669	0.13164	0.851824	-0.459961	0.041748	-0.809814
1308.0	7.527424	2.19655	6.427791	-0.640858	-0.066227	0.816285	-0.4646	0.04834	-0.810059
1309.0	8.687866	1.945867	6.494025	-0.701603	-0.244536	0.730835	-0.469727	0.059326	-0.805908
1310.0	9.675275	1.552314	5.9335	-0.705752	-0.252706	0.58023	-0.47168	0.054932	-0.808105
1311.0	10.793338	1.20566	5.640446	-0.682474	-0.172313	0.39928	-0.472412	0.070313	-0.808594
1312.0	10.935768	0.850873	5.503915	-0.606018	-0.049525	0.202562	-0.477051	0.074707	-0.813477
1313.0	9.979858	0.463297	5.386722	-0.545541	0.081615	0.020869	-0.474854	0.074707	-0.806396
1314.0	9.279118	0.705844	5.309481	-0.391555	0.117019	-0.121181	-0.474854	0.074707	-0.811035
1315.0	8.809916	1.182152	5.17807	-0.370887	0.185655	-0.226407	-0.46582	0.079102	-0.811279
1316.0	8.090792	1.612877	5.070345	-0.337238	0.208818	-0.288321	-0.472412	0.074707	-0.818115
1317.0	7.329606	2.198148	4.92923	-0.275976	0.1364	-0.315278	-0.468018	0.076904	-0.818115
1318.0	7.024374	2.480047	4.478443	-0.2387	0.071883	-0.319606	-0.467773	0.068115	-0.820068
1319.0	6.842729	2.703014	4.304586	-0.206183	0.081527	-0.296365	-0.46582	0.079346	-0.815918
1320.0	7.015677	2.493474	4.541343	-0.281108	0.115481	-0.296662	-0.463135	0.068115	-0.813232
1321.0	7.184866	2.358047	4.749236	-0.262883	0.06754	-0.291566	-0.468018	0.076904	-0.818115
1322.0	8.056914	2.174255	4.884484	-0.325139	-0.058422	-0.304655	-0.465576	0.070313	-0.827148
1323.0	8.515946	2.00089	4.649358	-0.387799	-0.04173	-0.295772	-0.468262	0.079102	-0.818115
1324.0	8.816534	1.65436	4.622505	-0.490861	0.032299	-0.287466	-0.472656	0.076904	-0.822754
1325.0	9.055197	1.006887	4.539746	-0.527119	0.069345	-0.29818	-0.46582	0.079346	-0.825195
1326.0	8.738247	0.86913	4.373252	-0.455457	0.083952	-0.290621	-0.477051	0.076904	-0.825195
1327.0	8.653843	0.707588	4.282642	-0.449323	0.066134	-0.274785	-0.472656	0.081543	-0.827637
1328.0	8.580873	0.550894	4.154976	-0.379441	0.029644	-0.236993	-0.468018	0.074951	-0.827393
1329.0	8.418419	0.614137	4.12536	-0.352513	0.036081	-0.186072	-0.468262	0.081543	-0.829834
1330.0	8.233908	0.456448	4.040848	-0.365001	0.129314	-0.126069	-0.468262	0.08374	-0.822998
1331.0	8.161762	0.350423	4.148718	-0.348484	0.211616	-0.071909	-0.463867	0.08374	-0.832275
1332.0	7.89087	0.469713	4.374225	-0.338576	0.297276	-0.037953	-0.463867	0.08374	-0.830078
1333.0	7.642223	0.617414	4.523764	-0.331186	0.289235	-0.034291	-0.466064	0.08374	-0.830078
1334.0	7.869097	0.818976	4.250765	-0.310477	0.21225	-0.03378	-0.46167	0.08374	-0.832275
1335.0	8.041605	0.977062	3.971136	-0.327243	0.227353	-0.03828	-0.461914	0.092529	-0.832764
