Acquisition frequency: 100 Hz
PacketCounter	Acc_X	Acc_Y	Acc_Z	Gyr_X	Gyr_Y	Gyr_Z	Mag_X	Mag_Y	Mag_Z
0.0	6.558	-2.025927	7.125963	0.057472	0.035289	-0.036339	-0.643555	0.056641	-0.311768
1.0	6.528478	-2.021461	7.149783	0.049706	0.033693	-0.032031	-0.643555	0.058838	-0.322754
2.0	6.542656	-1.998742	7.146502	0.040368	0.030192	-0.029611	-0.643311	0.054443	-0.318359
3.0	6.545859	-1.974663	7.215155	0.035739	0.025423	-0.026534	-0.643311	0.054443	-0.318359
4.0	6.534495	-2.047634	7.168451	0.018801	0.023029	-0.022403	-0.643555	0.056641	-0.318359
5.0	6.555481	-1.983864	7.20492	0.026657	0.018606	-0.022959	-0.638916	0.054443	-0.311768
6.0	6.54438	-1.941752	7.195331	0.014204	0.01162	-0.011826	-0.638916	0.05249	-0.32251
7.0	6.544126	-2.056649	7.158366	-0.000293	0.009948	-0.008661	-0.636963	0.058838	-0.313965
8.0	6.567278	-1.971167	7.168575	0.014903	0.007724	-0.012087	-0.643311	0.054443	-0.313965
9.0	6.547242	-2.021091	7.167554	-0.004345	0.006713	-0.005821	-0.641113	0.052246	-0.318359
10.0	6.531111	-2.038192	7.174224	0.003253	0.005602	-0.007534	-0.641357	0.056641	-0.318359
11.0	6.572144	-2.028454	7.114882	-0.002922	0.006488	-0.005126	-0.640869	0.047852	-0.313965
12.0	6.544019	-2.029724	7.135721	0.001389	0.006412	-0.006808	-0.641113	0.050049	-0.311768
13.0	6.573788	-2.017986	7.14868	-0.002081	0.00472	-0.0042	-0.638916	0.052246	-0.316162
14.0	6.543501	-2.029082	7.136379	0.000807	0.004869	-0.006576	-0.645508	0.050049	-0.316162
15.0	6.546999	-1.995234	7.144714	0.000108	0.008766	-0.006313	-0.638916	0.05249	-0.32251
16.0	6.568899	-2.050005	7.142143	0.00059	0.00878	-0.011501	-0.641113	0.054443	-0.316162
17.0	6.544615	-2.017675	7.170915	-0.001057	0.005679	-0.005851	-0.636963	0.056641	-0.313965
18.0	6.557857	-2.009473	7.132048	0.00099	0.007597	-0.009153	-0.638916	0.050293	-0.320313
19.0	6.559092	-1.985146	7.107428	0.003837	0.007148	-0.007762	-0.641113	0.054443	-0.316162
20.0	6.541309	-2.02571	7.139345	-0.001897	0.007448	-0.006777	-0.643311	0.054443	-0.311768
21.0	6.58287	-2.029663	7.138385	0.003979	0.009278	-0.006572	-0.643311	0.050049	-0.313965
22.0	6.52464	-2.042104	7.146711	-0.002437	0.006502	-0.010313	-0.641113	0.050293	-0.320313
23.0	6.558109	-1.996759	7.167724	-0.00029	0.009952	-0.008659	-0.641113	0.054443	-0.313965
24.0	6.567362	-2.022072	7.121111	-0.002338	0.008034	-0.005356	-0.641357	0.056641	-0.318359
25.0	6.553226	-2.029369	7.161032	0.001716	0.011273	-0.008193	-0.638916	0.054443	-0.318359
26.0	6.584176	-1.993709	7.149309	0.002697	0.011634	-0.006077	-0.643311	0.052246	-0.318359
27.0	6.539272	-1.998554	7.118529	-0.000731	0.010538	-0.007238	-0.643066	0.048096	-0.316162
28.0	6.564795	-2.020071	7.124045	0.002256	0.01222	-0.004656	-0.641113	0.054443	-0.318359
29.0	6.536239	-2.021183	7.145269	0.002698	0.011636	-0.006075	-0.636963	0.054443	-0.313965
30.0	6.549099	-2.012991	7.106799	-0.00059	0.012669	-0.006047	-0.643311	0.052246	-0.320557
31.0	6.53686	-2.010474	7.180005	0.002839	0.013766	-0.004885	-0.636963	0.054443	-0.316162
32.0	6.561594	-2.018164	7.127534	-6e-06	0.014214	-0.006277	-0.645508	0.052246	-0.313965
33.0	6.550988	-1.99216	7.17551	-0.002594	0.011349	-0.006513	-0.641113	0.050293	-0.320313
34.0	6.546422	-2.025353	7.168389	-0.002453	0.013479	-0.005323	-0.641113	0.052246	-0.318359
35.0	6.557656	-2.040846	7.155086	0.0027	0.011638	-0.006073	-0.638916	0.050293	-0.320313
36.0	6.546554	-2.000899	7.144831	0.000252	0.010902	-0.005119	-0.641357	0.056641	-0.318359
37.0	6.545824	-2.000518	7.145606	0.000835	0.012448	-0.005349	-0.640869	0.048096	-0.316162
38.0	6.529213	-2.017601	7.152702	-0.000984	0.013856	-0.008392	-0.641113	0.054443	-0.32251
39.0	6.556286	-2.015383	7.133203	0.004124	0.011417	-0.005374	-0.638916	0.054443	-0.316162
40.0	6.527648	-2.016512	7.154437	-4e-06	0.014218	-0.006275	-0.641113	0.052246	-0.320557
41.0	6.556915	-2.00467	7.167897	0.001094	0.009135	-0.004191	-0.640869	0.048096	-0.318359
42.0	6.542049	-1.998248	7.149697	-0.000586	0.012673	-0.006045	-0.643311	0.054443	-0.320557
43.0	6.557142	-1.98021	7.144264	0.001724	0.011281	-0.008186	-0.636475	0.045898	-0.313965
44.0	6.554857	-2.003302	7.170161	0.000254	0.010905	-0.005117	-0.645508	0.052246	-0.320557
45.0	6.554179	-2.00292	7.170888	0.001677	0.010682	-0.00442	-0.634521	0.050293	-0.318359
46.0	6.563362	-2.028211	7.124517	-0.000585	0.012675	-0.006044	-0.638916	0.054443	-0.318359
47.0	6.56274	-2.027941	7.125167	-0.002332	0.008038	-0.005356	-0.643311	0.052246	-0.316162
48.0	6.537907	-1.996152	7.15407	-0.003339	0.014653	-0.002482	-0.63916	0.054443	-0.320557
49.0	6.549158	-2.011818	7.140754	0.0007	0.010322	-0.006535	-0.636719	0.052246	-0.320313
50.0	6.552195	-1.978151	7.149371	-0.002055	0.0123	-0.002974	-0.641113	0.050049	-0.316162
51.0	6.53562	-1.995698	7.156286	-0.004059	0.010978	-0.003443	-0.645264	0.047852	-0.316162
52.0	6.546876	-2.011661	7.14289	-0.00392	0.013109	-0.002252	-0.63916	0.056641	-0.318359
53.0	6.548211	-2.00187	7.17663	-0.002192	0.01017	-0.004164	-0.641113	0.052246	-0.318359
54.0	6.549281	-1.978214	7.152023	-0.000958	0.007216	-0.000891	-0.643311	0.054443	-0.316162
55.0	6.562926	-1.984497	7.171376	-0.005273	0.007286	0.00078	-0.641357	0.056641	-0.320557
56.0	6.562297	-1.985045	7.1718	-0.0094	0.010088	-0.000122	-0.63916	0.056641	-0.316162
57.0	6.55587	-2.028752	7.131257	-0.00625	0.006926	-0.001337	-0.643311	0.052246	-0.320557
58.0	6.54535	-2.003642	7.178746	-0.009982	0.008542	0.000106	-0.640869	0.048096	-0.316162
59.0	6.558317	-1.996616	7.139994	-0.009261	0.012219	0.00107	-0.643311	0.052246	-0.316162
60.0	6.53171	-1.989217	7.193878	-0.009399	0.010089	-0.000121	-0.643311	0.050049	-0.318359
61.0	6.552792	-1.929339	7.228917	-0.012174	0.004489	0.002211	-0.638916	0.052246	-0.313965
62.0	6.58555	-2.026146	7.236437	-0.034745	-0.003098	0.007219	-0.636963	0.056641	-0.318359
63.0	6.581099	-1.947022	7.265321	-0.040326	-0.007321	0.016878	-0.638916	0.050293	-0.320313
64.0	6.533501	-1.991343	7.223915	-0.080301	-0.010089	0.019897	-0.641113	0.054443	-0.316162
65.0	6.553612	-1.94846	7.223043	-0.104668	-0.016233	0.021879	-0.645752	0.056641	-0.316162
66.0	6.536486	-1.985794	7.192641	-0.136826	-0.017326	0.020659	-0.643311	0.054443	-0.318359
67.0	6.571361	-2.053921	7.113158	-0.132535	-0.017965	0.022778	-0.636719	0.052246	-0.318359
68.0	6.563648	-2.015489	7.131876	-0.125333	-0.010883	0.023769	-0.641357	0.058838	-0.316162
69.0	6.533961	-2.037847	7.115657	-0.138767	-0.011553	0.02529	-0.641113	0.054443	-0.318359
70.0	6.538583	-2.130832	7.08179	-0.115941	-0.007289	0.02144	-0.638916	0.054443	-0.316162
71.0	6.534257	-2.057704	7.109668	-0.103096	-0.008723	0.023948	-0.63916	0.056396	-0.30957
72.0	6.552495	-2.140358	7.03709	-0.097698	-0.007191	0.016874	-0.643555	0.060791	-0.316162
73.0	6.540426	-2.131643	7.0493	-0.070499	-0.001539	0.016286	-0.645752	0.058594	-0.311768
74.0	6.512407	-2.138635	7.068194	-0.049013	-0.002539	0.011644	-0.641357	0.060791	-0.311768
75.0	6.526451	-2.148798	7.085993	-0.038839	-0.0008	0.010179	-0.639404	0.062988	-0.313965
76.0	6.546054	-2.10079	7.087564	-0.025528	-0.002232	0.00747	-0.645752	0.058838	-0.316162
77.0	6.544382	-2.126877	7.11173	-0.024061	-0.001841	0.004401	-0.641357	0.056641	-0.313965
78.0	6.569952	-2.135869	7.057932	-0.010329	0.00309	0.005305	-0.645752	0.058594	-0.311768
79.0	6.541864	-2.138616	7.078179	-0.007584	0.001124	0.001723	-0.641357	0.060791	-0.311768
80.0	6.555737	-2.145106	7.097248	0.003357	0.007146	-0.002523	-0.63916	0.058838	-0.316162
81.0	6.582978	-2.142617	7.077713	0.007551	0.012514	-0.004133	-0.641113	0.054443	-0.311768
82.0	6.544049	-2.103753	7.088536	0.013717	0.011625	-0.006548	-0.645752	0.060791	-0.316162
83.0	6.541149	-2.111375	7.056586	0.022027	0.01417	-0.007282	-0.643555	0.056641	-0.316162
84.0	6.55437	-2.11538	7.077003	0.030337	0.016717	-0.008015	-0.643555	0.056641	-0.313965
85.0	6.525381	-2.114089	7.099257	0.043931	0.019532	-0.008309	-0.643555	0.056641	-0.320557
86.0	6.566239	-2.114209	7.100212	0.056462	0.020507	-0.015686	-0.641357	0.058594	-0.311768
87.0	6.552938	-2.093373	7.117185	0.061448	0.023487	-0.012612	-0.641357	0.058594	-0.313965
88.0	6.549923	-2.112112	7.14477	0.060288	0.020406	-0.012164	-0.645752	0.060791	-0.318359
89.0	6.550572	-2.083216	7.122341	0.055314	0.01744	-0.015225	-0.643555	0.058838	-0.316162
90.0	6.551723	-2.068875	7.157761	0.052482	0.01791	-0.01661	-0.643311	0.054443	-0.311768
91.0	6.562821	-2.080012	7.14573	0.046758	0.018223	-0.015625	-0.636719	0.052246	-0.318359
92.0	6.561986	-2.07561	7.147777	0.047459	0.014327	-0.015904	-0.641357	0.056641	-0.311768
93.0	6.531392	-2.08273	7.136693	0.040175	0.012741	-0.016819	-0.636963	0.056641	-0.318359
94.0	6.560826	-2.067449	7.151205	0.036365	0.012855	-0.020327	-0.643555	0.058594	-0.313965
95.0	6.560172	-2.063319	7.152999	0.043795	0.016581	-0.018204	-0.641113	0.054443	-0.313965
96.0	6.547433	-2.043696	7.168912	0.032452	0.01174	-0.016306	-0.63916	0.054443	-0.32251
97.0	6.542788	-2.058999	7.104295	0.039406	0.01515	-0.021488	-0.641113	0.052246	-0.311768
98.0	6.526678	-2.086783	7.170144	0.035933	0.013451	-0.018893	-0.643311	0.054443	-0.313965
99.0	6.539839	-2.074944	7.132687	0.033289	0.016653	-0.022849	-0.641113	0.050293	-0.32251
100.0	6.557015	-2.043545	7.161564	0.04231	0.015322	-0.023845	-0.643311	0.050049	-0.318359
101.0	6.556342	-2.039419	7.163356	0.027618	0.01757	-0.025634	-0.643311	0.050049	-0.316162
102.0	6.525597	-2.04705	7.152301	0.036273	0.01834	-0.020246	-0.643311	0.052246	-0.318359
103.0	6.533901	-1.952686	7.145268	0.030909	0.016542	-0.025654	-0.638916	0.054443	-0.318359
104.0	6.537203	-1.930127	7.212955	0.023452	0.013104	-0.015288	-0.641113	0.054443	-0.316162
105.0	6.573083	-1.97549	7.171542	0.006369	0.008537	-0.012431	-0.641113	0.052246	-0.30957
106.0	6.574494	-1.950473	7.147134	0.011854	0.004893	-0.00707	-0.641113	0.054443	-0.313965
107.0	6.554834	-2.000797	7.145485	-0.005485	0.003644	-0.005361	-0.641113	0.054443	-0.318359
108.0	6.538811	-2.018143	7.151823	0.004643	0.004802	-0.003037	-0.638916	0.054443	-0.318359
109.0	6.542174	-1.984533	7.160231	-0.00393	0.005547	-0.003465	-0.636719	0.048096	-0.318359
110.0	6.566039	-2.016071	7.132352	0.001882	0.006773	0.000526	-0.645508	0.052246	-0.311768
111.0	6.553525	-2.000205	7.146851	-0.003483	0.004966	-0.004886	-0.638916	0.052246	-0.316162
112.0	6.563621	-2.039587	7.158097	0.00091	0.006417	-0.001593	-0.649902	0.056396	-0.311768
113.0	6.552716	-2.000117	7.147618	-0.006633	0.008128	-0.003666	-0.638916	0.050049	-0.316162
114.0	6.534382	-2.02736	7.121111	0.000656	0.009739	-0.002738	-0.645508	0.052246	-0.313965
115.0	6.5358	-2.017572	7.154735	-0.001928	0.00687	-0.00299	-0.638916	0.054443	-0.313965
116.0	6.547429	-2.033054	7.141166	0.002134	0.010125	-0.005801	-0.647705	0.052246	-0.316162
117.0	6.564588	-2.005426	7.168853	-0.001734	0.00961	-0.005556	-0.638916	0.050049	-0.316162
118.0	6.54609	-2.032497	7.142552	-0.001465	0.01387	-0.003161	-0.641357	0.056641	-0.318359
119.0	6.562992	-2.004818	7.170484	0.003747	0.012641	-0.007666	-0.641113	0.052246	-0.316162
120.0	6.572519	-2.029768	7.12404	-0.000762	0.009967	-0.003436	-0.647461	0.047852	-0.316162
121.0	6.519667	-1.999749	7.173061	0.000134	0.008804	-0.006276	-0.641113	0.054443	-0.318359
122.0	6.573318	-2.019429	7.15837	-0.002121	0.010805	-0.007897	-0.638916	0.052246	-0.316162
123.0	6.546457	-1.99711	7.154191	0.000717	0.010353	-0.006498	-0.640869	0.048096	-0.320313
124.0	6.542178	-2.030041	7.146833	0.001687	0.010709	-0.004379	-0.638916	0.05249	-0.324707
125.0	6.547131	-1.986334	7.188733	0.004064	0.009933	-0.010281	-0.638916	0.052246	-0.313965
126.0	6.526848	-2.02246	7.129409	0.001882	0.013451	-0.006943	-0.643311	0.054443	-0.320557
127.0	6.543733	-1.994833	7.157317	0.00079	0.011873	-0.001538	-0.643311	0.054443	-0.318359
128.0	6.542943	-1.994481	7.158138	-0.001924	0.013548	-0.010462	-0.640869	0.048096	-0.316162
129.0	6.55442	-2.009646	7.144841	0.00175	0.011323	-0.008139	-0.634521	0.050049	-0.316162
130.0	6.541607	-1.993339	7.159676	-0.0007	0.010581	-0.007196	-0.641113	0.050293	-0.320313
131.0	6.553145	-2.00872	7.146271	0.00027	0.010937	-0.005077	-0.643066	0.048096	-0.320313
132.0	6.55243	-2.008458	7.147	-0.001598	0.011744	-0.004357	-0.645508	0.052246	-0.318359
133.0	6.536039	-2.026009	7.153591	-0.004763	0.007323	-0.00439	-0.636475	0.045898	-0.320313
134.0	6.537338	-2.016337	7.18722	0.000208	0.010326	-0.001314	-0.638672	0.048096	-0.318359
135.0	6.534926	-2.026199	7.154554	-0.009662	0.005838	-0.002506	-0.641113	0.050049	-0.318359
136.0	6.537899	-1.992829	7.163205	0.002854	0.013812	-0.004819	-0.643311	0.050049	-0.311768
137.0	6.531876	-2.049965	7.180762	-0.011916	0.007838	-0.004129	-0.641357	0.058594	-0.313965
138.0	6.524435	-1.977134	7.178441	0.004526	0.010264	-0.002973	-0.63916	0.054443	-0.320557
139.0	6.532426	-2.026363	7.15679	-0.012365	0.00842	-0.00271	-0.636963	0.054443	-0.320557
140.0	6.561633	-2.014749	7.170399	0.008008	0.011976	-0.005554	-0.647705	0.052246	-0.316162
141.0	6.550506	-1.974998	7.160161	-0.008497	0.008937	-0.002951	-0.636719	0.052246	-0.318359
142.0	6.542785	-2.041472	7.144564	0.004073	0.009942	-0.010272	-0.636963	0.056641	-0.316162
143.0	6.549507	-1.974331	7.161259	-0.004375	0.006131	-0.002047	-0.636963	0.058838	-0.320557
144.0	6.533239	-1.991767	7.16775	-0.000245	0.010006	-0.008612	-0.641113	0.050049	-0.318359
145.0	6.548488	-1.9739	7.16231	-0.005596	0.0091	-0.005311	-0.636719	0.05249	-0.32251
146.0	6.530388	-2.001033	7.13568	-0.001859	0.007488	-0.006749	-0.643555	0.056641	-0.313965
147.0	6.575703	-1.985963	7.201176	-0.005793	0.006356	-0.002748	-0.643311	0.050049	-0.318359
148.0	6.543726	-2.007254	7.155308	-0.003089	0.003776	-0.002545	-0.643311	0.052246	-0.318359
149.0	6.545292	-1.997848	7.188585	-0.00921	0.005258	-0.003928	-0.636719	0.052246	-0.318359
150.0	6.543352	-2.007677	7.155531	-0.002385	-0.00013	-0.002821	-0.641113	0.054443	-0.318359
151.0	6.562655	-1.956816	7.157649	-0.005539	0.003032	-0.001605	-0.641113	0.052246	-0.320557
152.0	6.573034	-1.996534	7.168584	-0.004253	0.000676	-0.002102	-0.640869	0.048096	-0.318359
153.0	6.543136	-2.00851	7.155495	-0.01044	0.001545	0.000275	-0.63916	0.054443	-0.320557
154.0	6.557009	-2.001118	7.116313	-0.008956	0.001934	-0.002785	-0.641113	0.052246	-0.318359
155.0	6.544774	-1.99996	7.18847	-0.008956	0.001934	-0.002785	-0.638916	0.054443	-0.316162
156.0	6.541141	-2.03391	7.180255	-0.011406	0.00119	-0.001845	-0.643311	0.052246	-0.320557
157.0	6.558477	-1.978763	7.091182	-0.003089	0.003777	-0.002543	-0.641113	0.054443	-0.320557
158.0	6.554723	-2.026526	7.141337	-0.010627	0.005486	-0.004627	-0.641357	0.056641	-0.316162
159.0	6.55794	-1.993419	7.1497	-0.00154	0.005681	-0.000643	-0.638916	0.050049	-0.316162
160.0	6.5454	-1.977856	7.16404	-0.008758	0.00468	-0.005346	-0.641113	0.054443	-0.313965
161.0	6.52933	-1.995684	7.170222	-0.005341	0.005779	-0.004165	-0.643311	0.054443	-0.318359
162.0	6.556947	-1.994101	7.150421	-0.010495	0.007616	-0.003427	-0.641113	0.050049	-0.316162
163.0	6.558365	-1.984963	7.183762	-0.009208	0.005261	-0.003926	-0.645508	0.052246	-0.320557
164.0	6.552673	-2.028422	7.142681	-0.011076	0.006067	-0.003206	-0.645508	0.052246	-0.316162
165.0	6.555842	-1.995464	7.151055	-0.005791	0.00636	-0.002744	-0.641113	0.052246	-0.320557
166.0	6.527377	-1.99773	7.17143	-0.009077	0.007392	-0.002725	-0.645508	0.054443	-0.316162
167.0	6.551436	-2.029623	7.143474	-0.006824	0.00539	-0.001104	-0.636719	0.050293	-0.320313
168.0	6.554673	-1.996486	7.151841	-0.006306	0.005427	-0.006284	-0.643311	0.054443	-0.318359
169.0	6.538677	-2.01444	7.157904	-0.009405	0.002516	-0.001365	-0.645508	0.052246	-0.316162
170.0	6.524439	-2.008859	7.138923	-0.008823	0.004066	-0.001584	-0.645508	0.052246	-0.316162
171.0	6.564486	-2.037408	7.162919	-0.01024	0.004293	-0.002285	-0.641113	0.052246	-0.320557
172.0	6.567754	-2.004428	7.17122	-0.003538	0.004359	-0.001121	-0.643311	0.050049	-0.318359
173.0	6.523769	-2.010224	7.139151	-0.013786	0.001066	-0.004668	-0.641113	0.050049	-0.316162
174.0	6.583252	-1.987497	7.165335	0.000329	0.004877	-0.001359	-0.645508	0.050049	-0.316162
175.0	6.551357	-2.009189	7.119244	-0.019842	0.004062	-0.00109	-0.641113	0.050049	-0.318359
176.0	6.540827	-1.984486	7.166384	-0.000514	-0.000932	-0.003541	-0.645508	0.052246	-0.313965
177.0	6.579305	-2.022391	7.157112	-0.014106	0.003775	-0.002046	-0.636719	0.052246	-0.320313
178.0	6.556326	-1.967469	7.160528	0.002197	0.004072	-0.002077	-0.643066	0.048096	-0.320313
179.0	6.550753	-2.010587	7.119405	-0.013072	0.004747	-0.003685	-0.640869	0.047852	-0.313965
180.0	6.566263	-1.993098	7.113674	0.000397	0.005497	-0.005117	-0.643311	0.050293	-0.32251
181.0	6.549993	-2.010691	7.120075	-0.005078	0.010042	-0.001758	-0.645508	0.052246	-0.316162
182.0	6.551309	-2.001124	7.153626	-0.004818	0.005825	-0.00934	-0.643311	0.052246	-0.318359
183.0	6.552842	-1.97727	7.1289	-0.00592	0.004234	-0.003941	-0.643311	0.054443	-0.316162
184.0	6.549006	-2.010798	7.120953	-0.004373	0.006137	-0.002039	-0.641357	0.056641	-0.313965
185.0	6.550194	-2.001278	7.154604	-0.003011	0.011987	-0.005034	-0.636719	0.050293	-0.318359
186.0	6.561806	-2.016891	7.141108	-0.002758	0.008659	-0.003896	-0.641113	0.054443	-0.316162
187.0	6.549091	-2.001099	7.155664	-0.002887	0.00653	-0.005097	-0.643066	0.048096	-0.32251
188.0	6.576738	-1.9991	7.136003	-0.004756	0.007336	-0.004378	-0.641113	0.050293	-0.320313
189.0	6.53415	-1.994947	7.137491	-0.001793	0.009012	-0.001774	-0.638916	0.050293	-0.318359
190.0	6.575728	-1.999127	7.136926	-0.005719	0.006984	-0.006499	-0.641113	0.054443	-0.316162
191.0	6.547223	-2.0013	7.157317	-0.005277	0.007294	0.000801	-0.641113	0.050049	-0.318359
192.0	6.560794	-1.993541	7.118595	-0.007205	0.006591	-0.003441	-0.647705	0.054443	-0.316162
193.0	6.530551	-2.019468	7.163903	-0.003338	0.00711	-0.003676	-0.638916	0.052246	-0.313965
194.0	6.561609	-1.984293	7.152499	-0.005659	0.008494	-0.001537	-0.641113	0.050049	-0.318359
195.0	6.541724	-2.035552	7.150684	-0.006041	0.009693	-0.003876	-0.641113	0.052246	-0.313965
196.0	6.572728	-2.000427	7.139326	-0.006623	0.008143	-0.003658	-0.645508	0.050049	-0.318359
197.0	6.544035	-2.002709	7.159838	-0.00553	0.010624	-0.000334	-0.641113	0.052246	-0.318359
198.0	6.569652	-2.024672	7.16533	-0.004553	0.010089	-0.006933	-0.641357	0.056641	-0.320557
199.0	6.555068	-2.018661	7.146794	-0.008491	0.008949	-0.002939	-0.641113	0.050049	-0.318359
200.0	6.542097	-2.003281	7.161449	-0.004495	0.011597	-0.001971	-0.645752	0.058838	-0.320557
201.0	6.525718	-2.006774	7.109852	-0.005587	0.009117	-0.005295	-0.636719	0.050293	-0.318359
202.0	6.553171	-2.019138	7.148398	-0.005586	0.009118	-0.005295	-0.638916	0.054443	-0.30957
203.0	6.554325	-1.995369	7.124039	-0.004042	0.01102	-0.00339	-0.638916	0.052246	-0.318359
204.0	6.551873	-2.019293	7.149545	-0.004623	0.009469	-0.003173	-0.638916	0.050293	-0.318359
205.0	6.538893	-2.003891	7.164204	-0.006945	0.010852	-0.001034	-0.641113	0.05249	-0.324707
206.0	6.534738	-2.037393	7.156545	-0.00455	0.010093	-0.006931	-0.643555	0.056641	-0.318359
207.0	6.553423	-1.986456	7.1594	-0.005658	0.008497	-0.001535	-0.636963	0.054443	-0.318359
208.0	6.565271	-2.002608	7.145573	-0.009272	0.004647	-0.000167	-0.645508	0.050293	-0.324707
209.0	6.536733	-2.005118	7.165832	-0.007073	0.008724	-0.002237	-0.636719	0.052246	-0.320313
210.0	6.560813	-2.036848	7.137983	-0.007654	0.007173	-0.00202	-0.645508	0.052246	-0.320557
211.0	6.537478	-1.982025	7.141674	-0.005657	0.008498	-0.001534	-0.641113	0.05249	-0.32251
212.0	6.559871	-2.037676	7.138612	-0.011648	0.004525	-0.002991	-0.643311	0.050049	-0.316162
213.0	6.520962	-2.000402	7.148016	-0.001465	0.006311	-0.00439	-0.636963	0.054443	-0.32251
214.0	6.529396	-2.049677	7.125948	-0.01152	0.006654	-0.001787	-0.641113	0.050049	-0.316162
215.0	6.549938	-1.989232	7.161818	0.001439	0.006481	-0.006744	-0.641113	0.052246	-0.320557
216.0	6.574215	-2.020495	7.133931	-0.00682	0.005395	-0.001101	-0.645508	0.050049	-0.316162
217.0	6.547507	-1.99878	7.129351	-0.002298	0.008091	-0.005307	-0.636963	0.054443	-0.318359
218.0	6.559244	-2.028852	7.173678	-0.0072	0.006597	-0.003439	-0.641113	0.050293	-0.320313
219.0	6.548347	-1.98942	7.163221	-0.00288	0.00654	-0.005091	-0.638916	0.054443	-0.311768
220.0	6.544446	-2.022819	7.155347	-0.006618	0.008149	-0.003655	-0.647461	0.050049	-0.320557
221.0	6.559719	-2.005311	7.149912	-0.003788	0.007694	-0.002251	-0.641113	0.052246	-0.318359
222.0	6.52953	-2.016883	7.137099	-0.005709	0.006995	-0.006495	-0.643311	0.052246	-0.311768
223.0	6.542959	-2.037506	7.214522	-0.004369	0.006143	-0.002035	-0.643066	0.048096	-0.318359
224.0	6.542805	-2.023361	7.156695	-0.008741	0.004696	-0.005346	-0.643555	0.058838	-0.316162
225.0	6.545911	-1.989981	7.165291	0.001948	0.007411	-0.003199	-0.641113	0.052246	-0.318359
226.0	6.545527	-1.990008	7.165634	-0.009195	0.005273	-0.003926	-0.641113	0.052246	-0.313965
227.0	6.554056	-2.039048	7.14356	-0.001842	0.007517	-0.006725	-0.641113	0.050049	-0.30957
228.0	6.560513	-1.972415	7.160494	-0.007653	0.007175	-0.002018	-0.636963	0.054443	-0.318359
229.0	6.567398	-2.031108	7.105222	-0.006289	0.005445	-0.006279	-0.645508	0.052246	-0.316162
230.0	6.559739	-1.972605	7.161151	-0.001336	0.008444	-0.003182	-0.643555	0.056641	-0.313965
231.0	6.568199	-2.021807	7.139098	-0.006441	0.004193	0.001236	-0.643311	0.052246	-0.316162
232.0	6.54152	-2.000286	7.134422	-0.004747	0.007347	-0.004371	-0.643066	0.048096	-0.316162
233.0	6.567295	-2.022191	7.139822	-0.00462	0.009476	-0.003165	-0.641113	0.05249	-0.32251
234.0	6.540437	-2.000496	7.135356	-0.003787	0.007697	-0.002248	-0.641113	0.050049	-0.318359
235.0	6.582025	-2.004583	7.134936	-0.002295	0.008096	-0.005303	-0.641113	0.050049	-0.318359
236.0	6.551804	-2.016077	7.122159	-0.003787	0.007697	-0.002248	-0.645508	0.054443	-0.318359
237.0	6.554717	-1.982714	7.130932	7.9e-05	0.008218	-0.002477	-0.641113	0.050049	-0.318359
238.0	6.552496	-2.006795	7.156116	-0.01023	0.004299	-0.002292	-0.647705	0.054443	-0.318359
239.0	6.550523	-2.016457	7.12323	-0.002295	0.008097	-0.005302	-0.636719	0.052246	-0.316162
240.0	6.551621	-2.007173	7.156811	-0.008107	0.007753	-0.000598	-0.645508	0.052246	-0.318359
241.0	6.577292	-2.029236	7.16227	-0.001209	0.010575	-0.001973	-0.638916	0.052246	-0.320313
242.0	6.578415	-2.00554	7.137996	-0.009317	0.010738	-0.003852	-0.636963	0.058838	-0.320557
243.0	6.551242	-1.998596	7.191539	-0.009898	0.009186	-0.003637	-0.638916	0.054443	-0.318359
244.0	6.540203	-1.959615	7.181101	-0.008688	0.006201	-0.000384	-0.645508	0.052246	-0.316162
245.0	6.538037	-1.98457	7.205975	-0.020865	0.003087	0.000516	-0.647461	0.050049	-0.320557
246.0	6.567616	-1.974825	7.218882	-0.024934	-0.00019	0.003295	-0.643311	0.052246	-0.32251
247.0	6.55051	-2.004699	7.190506	-0.046505	-0.008371	0.001538	-0.636963	0.056641	-0.316162
248.0	6.537047	-2.002545	7.169881	-0.055675	-0.008307	0.010018	-0.643311	0.050049	-0.318359
249.0	6.539497	-1.983655	7.143088	-0.068929	-0.013883	0.007595	-0.638916	0.050049	-0.313965
250.0	6.536723	-2.022597	7.132528	-0.075737	-0.008469	0.006511	-0.641357	0.056641	-0.313965
251.0	6.561854	-2.059312	7.102225	-0.068001	-0.007421	0.006059	-0.636963	0.056641	-0.320557
252.0	6.562158	-2.063724	7.100664	-0.047644	-0.003848	0.003278	-0.641357	0.058838	-0.316162
253.0	6.537624	-2.036144	7.127847	-0.047059	-0.002291	0.00307	-0.641357	0.056641	-0.316162
254.0	6.546692	-2.073417	7.046391	-0.037132	0.002829	0.000556	-0.641357	0.056641	-0.316162
255.0	6.579347	-2.045693	7.125732	-0.025998	0.004954	0.001286	-0.640869	0.047852	-0.311768
256.0	6.561601	-2.0741	7.098154	-0.014914	0.005588	-0.002951	-0.641113	0.052246	-0.313965
257.0	6.550491	-2.050144	7.145656	-0.012542	0.005698	-0.000127	-0.647461	0.050049	-0.316162
258.0	6.545034	-2.093415	7.104124	-0.007267	0.005983	0.000343	-0.641113	0.054443	-0.320557
259.0	6.549654	-2.051247	7.146107	-0.005776	0.006389	-0.002712	-0.63916	0.056641	-0.318359
260.0	6.573881	-2.082422	7.118126	-0.001332	0.008458	-0.003153	-0.643555	0.058838	-0.320557
261.0	6.564463	-2.033346	7.141344	0.001949	0.007421	-0.003173	-0.638916	0.054443	-0.318359
262.0	6.534305	-2.044433	7.128517	-0.000422	0.007312	-0.005997	-0.645508	0.054443	-0.311768
263.0	6.563351	-2.032261	7.142676	0.010586	0.014896	-0.005174	-0.641113	0.054443	-0.318359
264.0	6.545135	-2.058225	7.116233	0.009423	0.011792	-0.004754	-0.643555	0.058594	-0.313965
265.0	6.547726	-2.023715	7.125834	0.013491	0.015073	-0.007526	-0.636719	0.052246	-0.318359
266.0	6.573084	-2.044009	7.131992	0.014529	0.016053	-0.009157	-0.649902	0.054443	-0.318359
267.0	6.558161	-2.035832	7.114409	0.020842	0.01732	-0.010315	-0.641113	0.054443	-0.311768
268.0	6.541431	-2.051527	7.121571	0.019225	0.014789	-0.008472	-0.645508	0.054443	-0.318359
269.0	6.570327	-2.038007	7.13625	0.020138	0.013644	-0.011315	-0.636963	0.058838	-0.313965
270.0	6.541397	-2.03798	7.157457	0.023921	0.013527	-0.007786	-0.638916	0.054443	-0.316162
271.0	6.553126	-2.051463	7.144488	0.019352	0.00933	-0.008559	-0.636963	0.058838	-0.318359
272.0	6.543732	-2.000582	7.16803	0.020641	0.006974	-0.009067	-0.63916	0.056641	-0.316162
273.0	6.552372	-2.04756	7.146299	0.014534	0.00847	-0.010454	-0.641113	0.052246	-0.311768
274.0	6.580076	-2.043414	7.127427	0.023218	0.009854	-0.008783	-0.641357	0.056641	-0.316162
275.0	6.567296	-2.026064	7.142437	0.008678	0.006627	-0.010718	-0.638916	0.050049	-0.311768
276.0	6.554596	-2.009057	7.157265	0.013498	0.007492	-0.008821	-0.643311	0.054443	-0.32251
277.0	6.541963	-1.992141	7.171995	0.008473	0.003865	-0.008173	-0.638916	0.052246	-0.313965
278.0	6.566555	-2.022235	7.144204	0.005771	0.006452	-0.008368	-0.645508	0.054443	-0.318359
279.0	6.54148	-1.989919	7.173052	0.010092	0.0064	-0.010014	-0.638916	0.050049	-0.316162
280.0	6.550209	-2.037674	7.151106	0.006728	0.006797	-0.006244	-0.643311	0.054443	-0.318359
281.0	6.539326	-1.99724	7.141001	0.004359	0.006682	-0.00907	-0.645752	0.056641	-0.318359
282.0	6.561928	-2.051541	7.138094	0.004858	0.007601	-0.005526	-0.638916	0.050049	-0.316162
283.0	6.538562	-1.995718	7.142127	0.00249	0.007486	-0.008352	-0.641113	0.050049	-0.313965
284.0	6.562999	-2.02602	7.114466	0.004941	0.008237	-0.00928	-0.643311	0.054443	-0.318359
285.0	6.562459	-2.025094	7.115228	0.004233	0.012149	-0.008984	-0.638916	0.054443	-0.318359
286.0	6.549427	-2.008534	7.130196	0.003736	0.01123	-0.012527	-0.643311	0.052246	-0.316162
287.0	6.552094	-1.974169	7.139511	0.006227	0.013475	-0.00849	-0.638916	0.050293	-0.318359
288.0	6.548054	-2.006483	7.132035	0.004692	0.011576	-0.010403	-0.645508	0.052246	-0.316162
289.0	6.564758	-1.978637	7.160214	-0.002204	0.008748	-0.009041	-0.638916	0.054443	-0.313965
290.0	6.576727	-1.993868	7.146616	-0.000875	0.007884	-0.004583	-0.641113	0.054443	-0.320557
291.0	6.534147	-1.989825	7.147809	-0.005197	0.007935	-0.002939	-0.641357	0.056641	-0.316162
292.0	6.530299	-2.023208	7.139865	-0.002746	0.008687	-0.003866	-0.645508	0.052246	-0.318359
293.0	6.559552	-2.011644	7.153621	-0.006274	0.005462	-0.006273	-0.641113	0.052246	-0.316162
294.0	6.560721	-2.002246	7.187102	0.00033	0.004892	-0.001334	-0.645752	0.056641	-0.316162
295.0	6.544963	-2.0058	7.135063	-0.010185	0.005795	0.002669	-0.638916	0.052246	-0.318359
296.0	6.528739	-2.023919	7.141091	-0.002287	0.008114	-0.005285	-0.643555	0.056641	-0.318359
297.0	6.573832	-1.994803	7.149018	-0.00939	0.00252	-0.001382	-0.638916	0.054443	-0.316162
298.0	6.54394	-2.006675	7.135755	-0.003907	0.005579	-0.003445	-0.641113	0.052246	-0.316162
299.0	6.560889	-1.979788	7.163441	-0.008351	0.003501	-0.003012	-0.634521	0.050049	-0.313965
300.0	6.527582	-2.024869	7.141878	-0.00096	0.00725	-0.000826	-0.641113	0.054443	-0.313965
301.0	6.542918	-2.007223	7.136539	-0.008143	0.006266	-0.005555	-0.643066	0.048096	-0.318359
302.0	6.556322	-2.013673	7.15601	-0.001878	0.008397	0.002015	-0.645508	0.054443	-0.318359
303.0	6.555782	-2.013833	7.15646	-0.004737	0.007364	-0.004357	-0.638916	0.050049	-0.313965
304.0	6.567756	-2.029204	7.142834	0.000166	0.008869	-0.006209	-0.645264	0.047852	-0.316162
305.0	6.558189	-1.980177	7.165806	-0.005318	0.005809	-0.004148	-0.638916	0.052246	-0.311768
306.0	6.540596	-2.00725	7.138659	-0.002285	0.008117	-0.005283	-0.63916	0.056641	-0.311768
307.0	6.555981	-1.989355	7.133353	-0.003446	0.005007	-0.004864	-0.636719	0.050293	-0.320313
308.0	6.553803	-2.013204	7.15845	-0.001454	0.006333	-0.004369	-0.645508	0.054443	-0.316162
309.0	6.555388	-1.989091	7.133971	-0.005811	0.004892	-0.007692	-0.641113	0.054443	-0.316162
310.0	6.551728	-2.022308	7.125901	-0.001332	0.008462	-0.003158	-0.643311	0.052246	-0.318359
311.0	6.526322	-1.991131	7.154592	-0.001913	0.006907	-0.002949	-0.643311	0.050049	-0.318359
312.0	6.56789	-1.99512	7.154389	-0.003203	0.009264	-0.002442	-0.645508	0.054443	-0.318359
313.0	6.567399	-1.99509	7.154848	-0.002865	0.006563	-0.005073	-0.641113	0.054443	-0.313965
314.0	6.54985	-2.022252	7.127643	-0.005776	0.006383	-0.002727	-0.643555	0.056641	-0.320557
315.0	6.550845	-2.013006	7.161212	-0.001913	0.006908	-0.002948	-0.634521	0.050049	-0.313965
316.0	6.57859	-2.010835	7.141855	-0.005195	0.007939	-0.002936	-0.645508	0.052246	-0.318359
317.0	6.535885	-2.006901	7.143071	0.000201	0.010363	-0.001241	-0.638916	0.054443	-0.316162
318.0	6.535448	-2.0069	7.143471	-0.006848	0.003911	-0.006063	-0.641357	0.056641	-0.316162
319.0	6.566598	-1.971608	7.1324	-0.005284	0.0073	0.000817	-0.63916	0.056641	-0.318359
320.0	6.548464	-2.013551	7.163236	-0.005106	0.008578	-0.006689	-0.634766	0.056641	-0.318359
321.0	6.563807	-1.995763	7.157956	-0.003904	0.005582	-0.003443	-0.632324	0.052246	-0.316162
322.0	6.575844	-2.011352	7.144238	-0.005565	0.009151	-0.005268	-0.643311	0.052246	-0.318359
323.0	6.533184	-2.007293	7.145431	-0.001702	0.009676	-0.005488	-0.641113	0.050293	-0.320313
324.0	6.53594	-1.973887	7.154381	-0.004734	0.007367	-0.004355	-0.641357	0.056641	-0.313965
325.0	6.560445	-2.004942	7.126594	-0.005105	0.008579	-0.006688	-0.63916	0.056641	-0.316162
326.0	6.573694	-2.011004	7.146314	-0.00017	0.011577	-0.00357	-0.641113	0.054443	-0.316162
327.0	6.588736	-1.99308	7.14136	-0.003573	0.010479	-0.004771	-0.640869	0.048096	-0.318359
328.0	6.545988	-1.989011	7.14262	-0.00075	0.010022	-0.003362	-0.641113	0.054443	-0.313965
329.0	6.557828	-2.004456	7.12914	-0.004983	0.010709	-0.005476	-0.641113	0.052246	-0.318359
330.0	6.542704	-2.01293	7.168672	-0.003452	0.012609	-0.003558	-0.63916	0.056641	-0.316162
331.0	6.556366	-2.00423	7.130548	0.000752	0.010434	-0.006408	-0.636719	0.048096	-0.320313
332.0	6.543231	-1.988465	7.145297	-0.004982	0.01071	-0.005475	-0.641113	0.050049	-0.313965
333.0	6.553166	-2.027869	7.1566	-0.00253	0.011465	-0.006398	-0.643555	0.056641	-0.313965
334.0	6.5557	-1.994443	7.165749	-0.002621	0.010825	-0.002645	-0.645508	0.050049	-0.318359
335.0	6.512805	-1.990426	7.167094	-0.00241	0.013594	-0.005184	-0.641113	0.052246	-0.318359
336.0	6.55287	-2.003495	7.133966	-0.005469	0.009795	-0.00902	-0.641113	0.054443	-0.316162
337.0	6.56613	-2.009548	7.153674	-0.00216	0.010254	-0.004064	-0.641113	0.050049	-0.318359
338.0	6.551671	-2.003164	7.135161	-0.001698	0.009682	-0.005484	-0.647461	0.050049	-0.311768
339.0	6.549207	-2.02702	7.160463	-0.00274	0.008698	-0.003857	-0.643311	0.050049	-0.316162
340.0	6.550565	-2.002959	7.136234	-0.00274	0.008698	-0.003856	-0.645264	0.050049	-0.311768
341.0	6.551305	-1.993684	7.169978	-0.004612	0.009499	-0.003142	-0.641113	0.052246	-0.318359
342.0	6.536884	-1.987537	7.151362	-0.00415	0.008927	-0.004562	-0.641113	0.050049	-0.318359
343.0	6.548915	-2.003023	7.13773	-0.001909	0.006913	-0.002944	-0.641113	0.054443	-0.311768
344.0	6.552918	-1.960412	7.179916	-0.003201	0.009271	-0.002436	-0.645508	0.052246	-0.313965
345.0	6.559772	-2.03349	7.182512	-0.007644	0.007188	-0.002014	-0.640869	0.048096	-0.32251
346.0	6.547286	-2.003449	7.139105	-0.003569	0.010485	-0.004767	-0.645508	0.052246	-0.318359
347.0	6.574941	-2.000983	7.120032	-0.000286	0.009455	-0.004776	-0.638916	0.054443	-0.316162
348.0	6.542826	-2.036321	7.131886	-0.002526	0.011471	-0.006393	-0.641113	0.054443	-0.316162
349.0	6.540915	-2.044986	7.09941	0.002357	0.011496	-0.013199	-0.634766	0.054443	-0.316162
350.0	6.567753	-2.055877	7.138879	0.013448	0.019765	-0.016077	-0.645752	0.056641	-0.318359
351.0	6.55609	-2.013885	7.129878	0.017966	0.021007	-0.025212	-0.638916	0.05249	-0.32251
352.0	6.543835	-1.986138	7.178888	0.021155	0.019339	-0.021466	-0.643311	0.054443	-0.318359
353.0	6.533575	-1.934679	7.202951	0.01426	0.016498	-0.020126	-0.640869	0.048096	-0.318359
354.0	6.55787	-1.963712	7.176111	0.008428	0.016129	-0.015448	-0.643066	0.048096	-0.318359
355.0	6.530723	-1.940376	7.172163	0.008312	0.014	-0.01666	-0.643311	0.050293	-0.320313
356.0	6.55521	-1.96971	7.145102	0.011499	0.012332	-0.012914	-0.643311	0.050049	-0.316162
357.0	6.542044	-1.952773	7.160092	0.006592	0.010817	-0.011077	-0.640869	0.048096	-0.32251
358.0	6.541396	-1.951639	7.160993	0.005299	0.013175	-0.01057	-0.636719	0.050293	-0.318359
359.0	6.551379	-1.990142	7.172598	0.0019	0.012072	-0.011778	-0.640869	0.043701	-0.318115
360.0	6.553793	-1.955915	7.181963	0.003426	0.013975	-0.009858	-0.645508	0.052246	-0.318359
361.0	6.536067	-1.98201	7.155351	0.006344	0.014163	-0.012193	-0.638916	0.050049	-0.316162
362.0	6.554138	-1.929873	7.159195	0.002382	0.01299	-0.008232	-0.649902	0.054443	-0.32251
363.0	6.553349	-1.929371	7.160052	-0.001946	0.01303	-0.006603	-0.638672	0.048096	-0.318359
364.0	6.561325	-1.992641	7.196305	-0.00299	0.012044	-0.004979	-0.643311	0.050293	-0.320313
365.0	6.564277	-1.944626	7.147611	-0.00193	0.014519	-0.00164	-0.636963	0.054443	-0.320557
366.0	6.519309	-1.964939	7.173616	-0.003554	0.011975	0.000191	-0.643066	0.047852	-0.313965
367.0	6.54673	-1.963017	7.154712	-0.008247	0.013228	-0.000513	-0.647705	0.052246	-0.320557
368.0	6.575192	-1.951791	7.169157	-0.004268	0.015892	0.000491	-0.645508	0.052246	-0.320557
369.0	6.541542	-1.997455	7.14784	-0.009392	0.0116	0.004861	-0.638916	0.050049	-0.316162
370.0	6.571896	-1.962672	7.137462	-0.006243	0.016049	0.004953	-0.643311	0.050293	-0.320313
371.0	6.55599	-1.97189	7.177289	-0.005082	0.019167	0.004544	-0.638916	0.052246	-0.318359
372.0	6.565994	-1.997546	7.131129	-0.010354	0.018864	0.004044	-0.647461	0.050049	-0.316162
373.0	6.581239	-1.971123	7.160101	0.000422	0.023735	0.007474	-0.638672	0.045898	-0.320313
374.0	6.580086	-1.95709	7.10377	-0.004155	0.027121	0.007983	-0.641113	0.052246	-0.316162
375.0	6.60536	-1.970118	7.144059	0.000406	0.031345	0.008787	-0.643311	0.050049	-0.318359
376.0	6.604613	-1.946452	7.121751	0.006709	0.040246	0.00898	-0.638672	0.048096	-0.318359
377.0	6.589692	-1.9163	7.080735	0.013042	0.04303	0.01283	-0.634521	0.050293	-0.32251
378.0	6.526341	-1.96	7.205808	0.002133	0.052741	0.015766	-0.645264	0.045898	-0.320313
379.0	6.513826	-2.045932	7.125968	0.011635	0.052368	0.018407	-0.634521	0.05249	-0.320313
380.0	6.588345	-1.961269	7.19382	0.046537	0.059288	0.017815	-0.643311	0.050049	-0.318359
381.0	6.511051	-1.98276	7.242848	0.006691	0.063113	0.012924	-0.636719	0.052246	-0.320313
382.0	6.51688	-2.016637	7.166832	0.023918	0.062312	0.010214	-0.645508	0.052246	-0.316162
383.0	6.514348	-1.996707	7.237738	0.027092	0.059159	0.009012	-0.636719	0.050293	-0.320313
384.0	6.455965	-1.966422	7.289591	0.027909	0.063504	0.00628	-0.645508	0.050293	-0.320313
385.0	6.467233	-1.947223	7.288477	0.023124	0.056514	0.008006	-0.634521	0.050293	-0.32251
386.0	6.508985	-2.061244	7.161523	-0.002758	0.048305	0.007651	-0.638672	0.048096	-0.318359
387.0	6.474501	-1.937762	7.256794	0.035096	0.047791	0.003501	-0.632324	0.05249	-0.324707
388.0	6.466939	-1.979356	7.218618	0.004867	0.047244	0.006051	-0.641113	0.054443	-0.32251
389.0	6.46129	-2.003099	7.24655	0.011435	0.04519	0.006078	-0.636719	0.050293	-0.32251
390.0	6.468443	-1.888	7.217053	0.016242	0.046074	0.008024	-0.641113	0.052246	-0.316162
391.0	6.504195	-1.925032	7.211599	0.007108	0.039119	0.011344	-0.636719	0.048096	-0.324707
392.0	6.450127	-1.862997	7.269935	0.012964	0.042488	0.016638	-0.638672	0.045898	-0.32251
393.0	6.528479	-1.899939	7.173065	0.003701	0.036395	0.028671	-0.638916	0.048096	-0.324707
394.0	6.53031	-1.997592	7.203096	0.028544	0.037507	0.034359	-0.636719	0.048096	-0.320313
395.0	6.484671	-1.843874	7.253695	0.064406	0.032527	0.043356	-0.636719	0.05249	-0.324707
396.0	6.487903	-1.926536	7.225858	0.008728	0.032341	0.050293	-0.643311	0.050293	-0.324707
397.0	6.502817	-2.035234	7.15092	0.046125	0.033885	0.052616	-0.634521	0.050293	-0.329102
398.0	6.449021	-1.96249	7.24305	0.073454	0.041882	0.053776	-0.643311	0.05249	-0.326904
399.0	6.470328	-1.993149	7.219258	0.038998	0.04206	0.054102	-0.632324	0.05249	-0.326904
400.0	6.442326	-2.096499	7.14542	0.055084	0.044236	0.04822	-0.636719	0.05249	-0.32251
401.0	6.448152	-1.984615	7.208293	0.090541	0.056683	0.04275	-0.636719	0.048096	-0.324707
402.0	6.366635	-1.897179	7.262499	0.061822	0.047446	0.035904	-0.634766	0.054688	-0.326904
403.0	6.373687	-1.926075	7.310553	0.027111	0.043344	0.033755	-0.634521	0.05249	-0.32251
404.0	6.268333	-1.949746	7.376687	0.022671	0.038225	0.024206	-0.634521	0.050293	-0.320313
405.0	6.376923	-1.826108	7.340906	0.01947	0.027654	0.027766	-0.634521	0.05249	-0.32251
406.0	6.415905	-1.841686	7.309598	-0.020658	0.022629	0.028797	-0.638916	0.05249	-0.32251
407.0	6.451919	-1.892354	7.269372	-0.023373	0.019113	0.032238	-0.632568	0.054688	-0.326904
408.0	6.481848	-1.860818	7.259244	-0.02022	0.017456	0.036024	-0.63501	0.061035	-0.324707
409.0	6.450472	-1.877172	7.245774	-0.044272	0.017634	0.041117	-0.634521	0.050293	-0.324707
410.0	6.436599	-1.997602	7.279303	-0.0493	0.021639	0.043004	-0.636719	0.05249	-0.324707
411.0	6.43627	-2.129183	7.20784	-0.053374	0.022962	0.037091	-0.632568	0.054688	-0.324707
412.0	6.415008	-2.036138	7.252713	-0.022514	0.024983	0.034495	-0.638916	0.05249	-0.324707
413.0	6.416667	-1.99786	7.295052	-0.046544	0.022149	0.029644	-0.632324	0.05249	-0.324707
414.0	6.439018	-2.044177	7.234906	-0.05203	0.025224	0.027978	-0.636963	0.054688	-0.326904
415.0	6.41462	-1.984231	7.271528	-0.033722	0.02532	0.023766	-0.634766	0.056885	-0.329102
416.0	6.399712	-1.973222	7.285965	-0.051672	0.022515	0.025353	-0.636963	0.054688	-0.329102
417.0	6.396254	-1.997443	7.219928	-0.054934	0.022054	0.020358	-0.634766	0.058838	-0.32251
418.0	6.418331	-1.898784	7.298395	-0.032891	0.022026	0.019731	-0.636963	0.058838	-0.329102
419.0	6.37585	-1.880354	7.364805	-0.056034	0.014965	0.025635	-0.634766	0.058838	-0.32251
420.0	6.36708	-1.962493	7.314289	-0.065554	0.009266	0.026577	-0.632568	0.058838	-0.320557
421.0	6.344219	-1.904196	7.349397	-0.056834	-0.00098	0.031927	-0.636719	0.05249	-0.32251
422.0	6.286123	-1.924514	7.3525	-0.080806	-0.015377	0.030611	-0.637207	0.063232	-0.326904
423.0	6.239748	-1.976262	7.39852	-0.085816	-0.030618	0.034726	-0.632568	0.054688	-0.326904
424.0	6.236178	-2.042967	7.409989	-0.108337	-0.056846	0.037676	-0.63916	0.058838	-0.320557
425.0	6.354852	-2.045929	7.32719	-0.119072	-0.071749	0.042674	-0.63916	0.058838	-0.322754
426.0	6.283683	-2.246538	7.248115	-0.136207	-0.085389	0.038906	-0.636963	0.058838	-0.324707
427.0	6.409069	-2.197786	7.238381	-0.106341	-0.092924	0.027823	-0.628418	0.058838	-0.320557
428.0	6.464017	-2.287877	7.107557	-0.114853	-0.095071	0.017343	-0.639404	0.063232	-0.329102
429.0	6.47288	-2.268122	7.199322	-0.0786	-0.087622	0.002843	-0.634766	0.056641	-0.320557
430.0	6.472792	-2.333351	7.083657	-0.067859	-0.077142	-0.017058	-0.639404	0.063232	-0.324707
431.0	6.502219	-2.241521	7.123816	-0.015211	-0.061251	-0.033848	-0.634766	0.056641	-0.32251
432.0	6.443704	-2.171623	7.156267	-0.026186	-0.058018	-0.047063	-0.643555	0.058838	-0.318359
433.0	6.475116	-2.324215	7.050761	0.001002	-0.050694	-0.065728	-0.636963	0.058838	-0.32251
434.0	6.389779	-2.233058	7.171039	0.044107	-0.041924	-0.08658	-0.639404	0.062988	-0.313965
435.0	6.491691	-2.108839	7.170972	0.04704	-0.043214	-0.093869	-0.643555	0.058838	-0.320557
436.0	6.461464	-2.028753	7.186657	0.046942	-0.043833	-0.090095	-0.641357	0.060791	-0.316162
437.0	6.478778	-2.041511	7.261574	0.035002	-0.05024	-0.088197	-0.641357	0.061035	-0.318359
438.0	6.459837	-2.136412	7.179976	0.017331	-0.056352	-0.085394	-0.645752	0.056641	-0.318359
439.0	6.46427	-2.004436	7.250185	0.046365	-0.063693	-0.078955	-0.636963	0.054443	-0.320557
440.0	6.502118	-1.968056	7.326857	0.007521	-0.070091	-0.069477	-0.647949	0.058594	-0.313965
441.0	6.513079	-2.064425	7.223697	-0.020804	-0.085046	-0.065273	-0.645508	0.054443	-0.318359
442.0	6.568271	-2.007746	7.201672	0.0031	-0.090501	-0.058151	-0.641357	0.060791	-0.316162
443.0	6.535078	-1.991596	7.228894	-0.023564	-0.095309	-0.054398	-0.641357	0.056641	-0.318359
444.0	6.610349	-2.024999	7.193594	-0.026692	-0.098239	-0.049517	-0.645752	0.056641	-0.318359
445.0	6.554412	-1.955926	7.223683	-0.034966	-0.099325	-0.043915	-0.643555	0.058594	-0.313965
446.0	6.590461	-2.102804	7.147612	-0.068423	-0.10019	-0.046181	-0.647949	0.058838	-0.318359
447.0	6.547187	-2.050677	7.163233	-0.031183	-0.100865	-0.045319	-0.645264	0.050049	-0.313965
448.0	6.610252	-1.922007	7.190244	-0.048654	-0.101942	-0.031265	-0.647705	0.056396	-0.311768
449.0	6.573943	-2.093031	7.157971	-0.081298	-0.106071	-0.037537	-0.641113	0.052246	-0.313965
450.0	6.487562	-2.350884	7.132756	-0.070471	-0.104958	-0.052751	-0.645996	0.062988	-0.30957
451.0	6.409569	-2.092088	7.274112	0.046195	-0.120029	-0.058754	-0.643311	0.052246	-0.311768
452.0	6.34598	-1.727451	7.565141	0.018093	-0.171474	-0.05608	-0.647705	0.056641	-0.313965
453.0	5.557373	-1.703896	8.241865	-0.057096	-0.276431	-0.065739	-0.641113	0.054199	-0.307373
454.0	6.542021	-2.06648	7.396238	-0.146319	-0.420963	-0.091235	-0.649902	0.056396	-0.301025
455.0	6.187157	-2.065967	7.561299	-0.112694	-0.496936	-0.114459	-0.649902	0.056396	-0.303223
456.0	6.198874	-1.995415	7.668626	-0.145243	-0.579729	-0.134295	-0.654297	0.054199	-0.298828
457.0	6.144359	-2.240412	7.62451	-0.206725	-0.688548	-0.158776	-0.654053	0.052002	-0.296631
458.0	6.081351	-2.348179	7.538382	-0.176338	-0.807834	-0.191713	-0.658447	0.053955	-0.288086
459.0	6.179054	-2.062512	7.816839	-0.115884	-0.925268	-0.213903	-0.660889	0.056152	-0.281494
460.0	6.141393	-2.058218	7.654278	-0.187453	-1.059865	-0.233299	-0.662842	0.053711	-0.2771
461.0	6.148391	-2.09953	7.635566	-0.178172	-1.202376	-0.254853	-0.662598	0.047363	-0.270508
462.0	6.1714	-2.155174	7.66633	-0.186985	-1.343601	-0.294186	-0.666992	0.051514	-0.259766
463.0	6.264832	-2.339986	7.355829	-0.199767	-1.506074	-0.354442	-0.669189	0.049072	-0.249023
464.0	6.2188	-2.341858	7.368185	-0.127976	-1.690555	-0.424869	-0.675537	0.048828	-0.23584
465.0	6.276626	-2.11219	7.374292	-0.096925	-1.896021	-0.488255	-0.682129	0.048828	-0.225098
466.0	6.306691	-1.931637	7.39214	-0.070224	-2.051533	-0.564818	-0.688721	0.048584	-0.207764
467.0	5.741863	-1.754451	7.19531	-0.027166	-2.274857	-0.598954	-0.692627	0.039551	-0.19043
468.0	6.333463	-1.886048	7.367648	-0.142505	-2.686142	-0.640261	-0.698975	0.037354	-0.181641
469.0	5.940787	-2.640112	6.934285	-0.184919	-2.968512	-0.755164	-0.70752	0.034912	-0.157959
470.0	6.207046	-2.998693	6.467824	-0.151529	-3.271586	-0.914545	-0.713867	0.032227	-0.13623
471.0	6.242858	-2.681445	6.50714	0.008696	-3.549999	-1.0721	-0.711426	0.023438	-0.112305
472.0	6.612383	-2.491844	6.257821	-0.034836	-3.896673	-1.192187	-0.730713	0.016602	-0.084229
473.0	7.540461	-2.414479	5.748374	-0.085429	-4.190297	-1.308529	-0.723877	0.011963	-0.058105
474.0	9.192253	-2.580183	5.45379	-0.115575	-4.426788	-1.399785	-0.734619	0.00708	-0.027832
475.0	9.386138	-2.490296	4.785426	-0.122766	-4.480304	-1.489825	-0.731934	-0.001953	-0.001709
476.0	11.479033	-2.082441	5.135418	-0.181147	-4.663738	-1.506127	-0.731689	-0.004395	0.030762
477.0	13.140676	-2.031552	4.621982	-0.484465	-4.615687	-1.477677	-0.731201	-0.015625	0.063477
478.0	12.135152	-1.175035	6.179001	-0.475035	-4.713881	-1.367167	-0.726807	-0.020264	0.09375
479.0	12.097759	-2.094046	5.132374	-1.24396	-4.829711	-1.408244	-0.715576	-0.0271	0.115479
480.0	13.815736	-2.000502	5.415998	-1.13385	-4.786212	-1.388207	-0.712891	-0.033936	0.147949
481.0	13.8344	-0.193838	7.239804	-1.36677	-4.742913	-1.383862	-0.708496	-0.038574	0.174072
482.0	12.438266	-2.383728	5.670326	-3.029853	-4.337728	-1.424384	-0.699463	-0.041016	0.200195
483.0	10.768438	-2.338785	2.15412	-2.150254	-4.897122	-1.730667	-0.675049	-0.054199	0.228516
484.0	20.808408	-2.573801	9.299815	-3.71269	-4.533651	-1.570345	-0.667969	-0.069336	0.241455
485.0	12.759224	-7.999154	2.442571	-4.565223	-3.351315	-1.850283	-0.649902	-0.082275	0.243652
486.0	12.75069	-12.043417	1.478523	-2.060606	-3.106743	-2.474387	-0.638672	-0.093262	0.26123
487.0	19.21493	-19.230544	14.187318	-1.498302	-1.937207	-2.089124	-0.619141	-0.09082	0.250244
488.0	19.623695	-24.967084	8.570556	2.112604	0.658518	-0.48627	-0.606934	-0.069092	0.235107
489.0	9.050967	-10.32084	14.634015	4.979266	2.55322	0.366901	-0.594971	-0.045166	0.211182
490.0	0.291032	-2.960279	12.944581	4.166342	2.985343	0.390175	-0.583008	-0.016846	0.187256
491.0	-1.416519	0.864539	12.134707	3.428945	3.071101	0.489187	-0.557861	0.007568	0.154541
492.0	-1.213236	1.997415	12.80018	1.212697	2.931083	0.547858	-0.538818	0.022949	0.13501
493.0	1.493827	-1.853384	11.744834	-1.686408	3.001543	0.665488	-0.509033	0.038574	0.102539
494.0	4.315057	-8.295942	8.458183	-1.798653	3.476548	0.853592	-0.486084	0.0625	0.083008
495.0	5.464123	-8.749637	8.014808	0.782905	4.206915	1.13336	-0.443359	0.082275	0.069824
496.0	5.55828	-4.825011	9.295717	0.938591	4.749643	1.374093	-0.413574	0.101807	0.056885
497.0	5.755285	-5.239266	7.332909	0.414388	5.126918	1.673315	-0.37085	0.123535	0.056885
498.0	5.943517	-4.457611	6.453817	0.905072	5.366968	1.995811	-0.332275	0.138672	0.06543
499.0	5.815514	-3.575582	5.805511	0.764852	5.415209	2.220514	-0.297852	0.14917	0.082764
500.0	6.299172	-3.813969	5.344943	0.712332	5.327267	2.381596	-0.271973	0.157471	0.115234
501.0	7.237789	-3.244474	5.446628	0.861932	5.143709	2.480562	-0.248047	0.159424	0.150146
502.0	7.810137	-2.738262	5.6696	0.815164	4.973095	2.53244	-0.247803	0.156494	0.197754
503.0	8.706794	-2.611444	6.062828	0.643834	4.76384	2.510757	-0.260986	0.160156	0.234619
504.0	9.369134	-3.129171	6.314834	0.44569	4.602218	2.424065	-0.29126	0.155273	0.275635
505.0	10.157041	-3.745353	6.755476	0.414676	4.468564	2.298834	-0.323486	0.150391	0.301758
506.0	10.925193	-3.39873	7.585638	0.403725	4.377943	2.170851	-0.369141	0.147949	0.3125
507.0	11.626794	-2.732217	8.325557	0.258652	4.309611	2.042333	-0.407959	0.13916	0.314697
508.0	11.993367	-2.31424	8.699889	-0.080712	4.260239	1.884378	-0.462158	0.132813	0.301514
509.0	11.899753	-2.269955	8.726773	-0.455012	4.168275	1.679782	-0.501465	0.130859	0.273193
510.0	12.202673	-2.273747	8.663423	-0.73132	4.044127	1.455774	-0.547119	0.128662	0.255859
511.0	12.337686	-2.480705	8.22148	-0.928426	3.890005	1.224021	-0.573242	0.129395	0.208252
512.0	12.362615	-1.999086	7.702216	-0.935649	3.65272	1.024125	-0.61084	0.138184	0.166748
513.0	12.672793	-1.942577	7.078585	-1.067733	3.331351	0.853225	-0.636719	0.134521	0.123535
514.0	12.68471	-2.661753	6.036999	-0.983094	2.936426	0.701642	-0.650635	0.1521	0.088623
515.0	12.260711	-3.167332	5.735996	-0.588421	2.540634	0.573317	-0.661621	0.152588	0.047363
516.0	12.217896	-5.815939	0.801644	-0.372485	1.803453	0.065984	-0.666504	0.164063	0.00415
517.0	11.195724	-1.414325	5.115232	2.287846	1.408421	0.123524	-0.662598	0.175049	-0.021973
518.0	20.165438	4.078138	10.174412	2.106379	1.557449	0.36694	-0.65625	0.177734	-0.058838
519.0	12.991799	2.587263	7.927493	-1.069519	1.739763	0.737703	-0.647949	0.187012	-0.093506
520.0	13.526501	-3.57466	3.399521	-2.339503	1.733769	0.858648	-0.641846	0.195801	-0.121826
521.0	12.689356	-5.501238	1.57731	0.003205	1.608356	0.865561	-0.624512	0.196289	-0.149902
522.0	13.102255	-0.654939	3.746751	1.310616	1.545448	0.985302	-0.605225	0.201172	-0.176025
523.0	13.473796	2.290012	4.62201	0.256003	1.515168	1.26917	-0.587891	0.199219	-0.195313
524.0	13.439281	1.092353	3.199573	-0.70338	1.440759	1.601622	-0.577148	0.206055	-0.210449
525.0	13.408764	-0.053015	1.888645	-0.34767	1.427708	1.818567	-0.564209	0.206299	-0.232178
526.0	13.624944	0.966137	1.596331	0.037521	1.342022	1.903563	-0.549072	0.20874	-0.24292
527.0	14.144922	1.588837	0.099558	0.127007	1.2382	1.903711	-0.538086	0.206787	-0.258057
528.0	12.826344	2.888759	-2.27209	0.555832	1.034765	1.809158	-0.529541	0.211182	-0.266846
529.0	11.28321	4.967639	-4.325073	0.636936	0.434708	1.526392	-0.518799	0.215576	-0.273438
530.0	11.720842	5.018528	-4.477343	-0.565149	-0.491286	0.983771	-0.527588	0.217773	-0.27124
531.0	13.848181	2.504655	-4.256092	-1.377164	-1.045346	0.422996	-0.52124	0.221924	-0.264648
532.0	15.443472	0.45048	-2.591974	-1.343817	-1.203188	-0.060676	-0.52124	0.219727	-0.260498
533.0	15.280581	-1.590276	-1.078194	-1.53301	-1.050621	-0.455072	-0.525635	0.22168	-0.249512
534.0	6.147053	-17.817914	-3.607042	-4.006133	-1.678155	-1.690298	-0.540283	0.208496	-0.22998
535.0	-6.246135	-9.65122	-3.045483	6.860751	-2.657116	-2.29004	-0.549805	0.171875	-0.225586
536.0	17.877501	4.07789	24.221699	5.786554	-2.886313	-2.002441	-0.564209	0.154297	-0.210205
537.0	1.404955	3.086743	8.237296	-0.909489	-1.737801	-0.850406	-0.563965	0.147949	-0.205811
538.0	10.560489	1.046052	7.141217	1.077184	-3.250394	-0.650386	-0.57251	0.145264	-0.182129
539.0	17.053726	3.338182	13.115918	1.29353	-2.160657	-0.111073	-0.572266	0.136719	-0.175537
540.0	7.427573	4.442668	10.172546	0.49977	-1.832242	-0.299054	-0.580811	0.134277	-0.162598
541.0	8.586436	3.932347	10.566019	-0.346078	-2.06324	-0.379597	-0.583008	0.131836	-0.147461
542.0	8.9145	0.8484	9.313502	-1.096811	-1.835284	-0.306194	-0.591553	0.131836	-0.140869
543.0	5.893902	0.368092	7.776176	-0.513614	-1.762646	-0.23649	-0.589355	0.133789	-0.12793
544.0	5.393832	0.576714	9.044536	-0.888133	-1.937177	-0.129591	-0.59375	0.131348	-0.112793
545.0	20.754812	-5.441527	10.225468	-2.869259	-1.861089	-0.51331	-0.591553	0.131348	-0.108398
546.0	11.07113	-16.788515	0.704739	-2.622937	-0.673806	-0.264252	-0.595703	0.131104	-0.093262
547.0	8.344557	-9.44411	3.448218	3.072298	-0.274709	-0.137328	-0.5979	0.12915	-0.101807
548.0	8.724387	3.563952	10.852921	4.470088	-0.372855	-0.443923	-0.600098	0.126953	-0.101807
549.0	5.561183	2.839896	11.366028	-1.424333	-0.239645	-0.155503	-0.599854	0.120361	-0.095215
550.0	7.385426	-6.289129	5.634286	-3.777669	-0.38147	-0.279389	-0.600098	0.126953	-0.097412
551.0	6.255429	-9.280305	2.549036	0.962389	-0.192372	-0.303988	-0.599609	0.118164	-0.093018
552.0	6.878283	-0.819938	8.760443	2.893918	-0.182385	-0.30431	-0.599609	0.118164	-0.093018
553.0	6.484184	1.417839	9.840969	0.1661	-0.26253	-0.256449	-0.599609	0.118164	-0.088867
554.0	7.043582	-2.398391	7.492211	-1.492795	-0.244779	-0.175469	-0.604004	0.115967	-0.093018
555.0	6.83561	-4.838848	5.715485	-0.193645	-0.255044	-0.170292	-0.605957	0.111816	-0.088867
556.0	6.778523	-1.646411	7.401955	0.962504	-0.211566	-0.100493	-0.605957	0.11377	-0.088867
557.0	6.861024	-0.009507	8.723184	0.084084	-0.20525	-0.017186	-0.603516	0.107422	-0.088623
558.0	6.620727	-2.508461	7.254046	-0.900982	-0.229236	0.013307	-0.605957	0.111572	-0.084473
559.0	6.28743	-4.128032	6.29823	-0.243157	-0.202475	-0.015865	-0.605957	0.109619	-0.08667
560.0	6.374962	-2.973685	6.951257	0.102557	-0.197022	-0.062382	-0.610352	0.111572	-0.082275
561.0	6.489564	-2.892261	6.836955	-0.184048	-0.181946	-0.104157	-0.606201	0.118164	-0.084473
562.0	6.430292	-3.373368	6.490225	-0.094421	-0.16824	-0.151784	-0.601807	0.115967	-0.077881
563.0	6.535384	-2.877594	6.771241	0.029929	-0.149501	-0.178802	-0.605957	0.111572	-0.082275
564.0	6.502301	-2.817463	6.752473	-0.049693	-0.143795	-0.200337	-0.603516	0.109375	-0.075684
565.0	6.643561	-3.012798	6.536363	-0.004788	-0.135952	-0.221664	-0.603516	0.109375	-0.075684
566.0	6.529858	-2.671506	6.847736	0.08634	-0.122982	-0.232044	-0.60791	0.10498	-0.073486
567.0	6.744935	-2.650828	6.823257	0.011886	-0.11971	-0.237698	-0.603271	0.103027	-0.077881
568.0	6.664572	-2.459636	6.922652	0.085706	-0.090203	-0.228192	-0.607666	0.10083	-0.073486
569.0	6.852798	-2.36132	7.042988	0.038438	-0.085424	-0.215413	-0.605469	0.098633	-0.077881
570.0	6.715681	-2.357414	6.982568	0.020486	-0.076024	-0.195216	-0.607666	0.10083	-0.073486
571.0	6.669477	-2.358469	7.076568	0.01802	-0.078862	-0.178951	-0.607422	0.094238	-0.075684
572.0	6.75336	-2.24691	7.055857	0.02091	-0.09096	-0.157409	-0.60498	0.090088	-0.073486
573.0	6.751819	-2.079333	7.15152	0.002451	-0.101275	-0.131102	-0.609375	0.092041	-0.073486
574.0	6.752067	-1.989401	7.247567	-0.04211	-0.115007	-0.093122	-0.609375	0.092041	-0.073486
575.0	6.681555	-2.048483	7.242794	-0.110147	-0.142242	-0.066225	-0.603027	0.094238	-0.071289
576.0	6.637226	-2.121787	7.1815	-0.136043	-0.171396	-0.033387	-0.607422	0.092041	-0.069092
577.0	6.496337	-2.164814	7.332463	-0.190183	-0.208075	-0.020939	-0.607422	0.094238	-0.062744
578.0	6.559006	-2.162056	7.285344	-0.217105	-0.282465	-0.001039	-0.616211	0.096191	-0.064941
579.0	6.453708	-2.20095	7.348609	-0.345367	-0.319538	0.007735	-0.607178	0.092041	-0.062744
580.0	5.626702	-3.19804	7.509516	-0.546137	-0.409242	-0.025363	-0.614014	0.098389	-0.060547
581.0	6.709625	-2.970092	6.830355	-0.132242	-0.515647	-0.051894	-0.609375	0.089844	-0.060547
582.0	6.408748	-2.546039	7.235694	-0.257922	-0.577858	-0.081514	-0.611816	0.096191	-0.051758
583.0	6.562993	-2.809591	6.899415	-0.274561	-0.639927	-0.100292	-0.609375	0.0896	-0.047363
584.0	6.486408	-2.587508	6.949841	-0.224125	-0.684925	-0.106195	-0.615967	0.093994	-0.047607
585.0	6.510063	-2.948533	6.73548	-0.319349	-0.74779	-0.152039	-0.609375	0.09375	-0.043213
586.0	6.470139	-3.331695	6.459445	-0.235056	-0.796367	-0.214936	-0.61377	0.09375	-0.036621
587.0	6.511563	-3.449807	6.396676	-0.149373	-0.840959	-0.310665	-0.609131	0.087158	-0.025879
588.0	6.721466	-3.385937	6.267553	-0.048849	-0.881004	-0.400284	-0.611328	0.087158	-0.021484
589.0	6.904255	-3.051995	6.276033	0.032832	-0.908232	-0.45318	-0.608887	0.080566	-0.014893
590.0	7.113562	-2.684506	6.23508	0.071413	-0.9249	-0.467217	-0.617432	0.078369	-0.008301
591.0	7.224185	-2.546854	6.246458	0.092575	-0.963028	-0.466957	-0.615234	0.073975	-0.008301
592.0	7.234485	-2.357954	6.477759	0.129483	-1.014111	-0.448075	-0.61499	0.071777	-0.001953
593.0	7.057217	-2.367837	6.557925	0.110077	-1.086877	-0.426889	-0.610596	0.06958	0.004639
594.0	7.054012	-2.189402	6.699213	0.16883	-1.196047	-0.413532	-0.619141	0.067139	0.015381
595.0	6.892518	-2.152427	6.870241	0.157195	-1.353381	-0.407542	-0.616699	0.060791	0.019775
596.0	6.639421	-2.404605	7.024279	0.051731	-1.542366	-0.455683	-0.616699	0.056152	0.035156
597.0	6.436267	-2.941431	6.909848	0.029901	-1.777792	-0.533783	-0.614258	0.051758	0.041504
598.0	6.368521	-3.044645	6.813607	0.199486	-2.033409	-0.631196	-0.618408	0.047363	0.056641
599.0	6.123016	-2.624683	7.130048	0.275049	-2.345776	-0.745739	-0.616211	0.047119	0.072021
600.0	5.81219	-2.457641	7.61918	0.210992	-2.754237	-0.849922	-0.615723	0.033936	0.089355
601.0	5.293484	-2.435511	8.068594	0.211455	-3.321264	-0.943392	-0.613037	0.025146	0.106689
602.0	5.231949	-2.506871	8.486187	0.151323	-3.969889	-1.075656	-0.612793	0.020508	0.130615
603.0	5.566416	-3.156907	7.773703	-0.161388	-4.588996	-1.264865	-0.603516	0.005127	0.158936
604.0	6.47407	-3.114626	7.416143	-0.064553	-5.135088	-1.434386	-0.598877	0.000244	0.197998
605.0	8.700947	-2.256773	7.305165	-0.070928	-5.66113	-1.517208	-0.587402	-0.012939	0.224121
606.0	11.150554	-1.72726	6.668356	-0.533548	-6.094222	-1.49524	-0.575928	-0.026367	0.269531
607.0	13.755878	-1.672907	6.360206	-1.089454	-6.372767	-1.343011	-0.555664	-0.039551	0.295654
608.0	13.625704	-2.068336	7.050895	-1.623217	-6.450429	-1.203016	-0.540039	-0.050781	0.330566
609.0	14.302452	-0.383298	7.292765	-2.036335	-6.611718	-0.99804	-0.519287	-0.074707	0.358887
610.0	18.001344	-1.091217	8.377861	-3.556169	-6.420596	-0.995305	-0.496582	-0.098633	0.387207
611.0	14.833358	-2.336426	5.380662	-3.878698	-5.99962	-1.014783	-0.476318	-0.118164	0.404541
612.0	17.818286	-2.367798	6.8913	-4.639357	-5.716155	-1.40368	-0.459961	-0.146484	0.419922
613.0	13.968226	-4.406459	5.172149	-5.126328	-5.908394	-1.632709	-0.430176	-0.180908	0.439697
614.0	23.204735	-10.985512	8.799091	-6.482614	-4.510459	-1.83134	-0.415771	-0.219482	0.43335
615.0	11.183897	-26.088217	0.591754	-3.686986	-3.773123	-2.509825	-0.397217	-0.243164	0.437988
616.0	25.210471	-36.284364	5.343378	1.799815	-1.94674	-1.338465	-0.391113	-0.234863	0.457275
617.0	24.033814	-15.870501	16.22255	7.322264	0.483239	0.033582	-0.403076	-0.207031	0.46582
618.0	9.010262	-4.663521	11.588904	6.602036	2.52933	0.776649	-0.41748	-0.172607	0.461426
619.0	0.14093	4.200754	10.574333	8.072813	2.905456	0.208754	-0.442871	-0.13623	0.465576
620.0	-2.880383	16.471675	15.755322	6.355346	2.831449	-0.107446	-0.449951	-0.116699	0.45874
621.0	0.357155	15.846097	16.263181	-2.03895	2.130471	-1.010386	-0.462158	-0.144531	0.435059
622.0	5.62615	-0.015665	12.902615	-6.593852	2.471257	-1.402217	-0.47998	-0.187256	0.407227
623.0	7.244606	-13.985737	5.550224	-3.755276	3.978288	-1.615534	-0.488525	-0.19751	0.370361
624.0	5.979901	-9.147678	8.553495	2.714196	5.163738	-1.55294	-0.514893	-0.192871	0.348633
625.0	5.027441	-2.809351	11.696304	1.670024	5.655378	-1.452988	-0.530029	-0.19458	0.305176
626.0	6.011383	-5.798949	9.241854	-1.356483	5.999772	-0.932675	-0.547363	-0.200439	0.257568
627.0	7.200179	-11.976464	4.370241	-0.683558	6.317454	-0.087575	-0.560791	-0.195557	0.20752
628.0	7.571128	-10.525826	5.027229	1.140265	6.632563	0.859746	-0.572021	-0.19043	0.155518
629.0	7.195855	-10.402039	3.87708	0.596372	6.616067	1.665191	-0.576904	-0.177002	0.103516
630.0	7.27637	-11.161151	2.308397	1.320312	6.489748	2.461535	-0.575439	-0.158936	0.053467
631.0	7.469018	-8.686787	3.260345	1.693932	6.230044	3.100916	-0.567383	-0.149658	0.005859
632.0	8.059579	-7.733853	3.400148	1.602476	5.93656	3.572555	-0.555176	-0.127686	-0.037598
633.0	8.127497	-6.29355	3.931987	1.795919	5.691652	3.847609	-0.535889	-0.125	-0.070068
634.0	8.337736	-5.276854	5.151073	1.524799	5.415521	3.748087	-0.520752	-0.11792	-0.100342
635.0	9.340299	-5.206478	5.591081	1.225337	5.222139	3.328454	-0.501221	-0.121826	-0.12207
636.0	11.127995	-3.94879	6.891866	1.368816	5.117627	2.787822	-0.48584	-0.124023	-0.128662
637.0	12.830834	-2.314872	8.228705	0.985976	5.112481	2.308088	-0.479004	-0.132324	-0.143555
638.0	13.856315	-2.247712	8.355341	-0.387497	5.071682	1.980865	-0.467773	-0.142822	-0.160889
639.0	14.424131	-4.080792	6.649943	-1.197135	4.874875	1.794742	-0.458984	-0.146729	-0.178223
640.0	15.328172	-4.069744	6.468548	-1.002588	4.612544	1.696374	-0.465332	-0.151123	-0.184814
641.0	16.040064	-3.686679	6.889694	-1.323707	4.350059	1.620493	-0.471924	-0.153076	-0.195557
642.0	16.298947	-3.901818	6.538833	-1.225789	4.162527	1.544244	-0.476563	-0.142334	-0.197754
643.0	16.317401	-2.387766	6.934664	-0.944866	4.034741	1.40519	-0.483398	-0.137695	-0.217285
644.0	16.733909	-0.919278	7.029562	-0.938328	3.939991	1.202949	-0.492676	-0.124756	-0.230469
645.0	17.348862	0.449735	7.063077	-1.091552	3.950327	0.973411	-0.493408	-0.10498	-0.25
646.0	17.133428	1.21783	6.697616	-1.657646	4.021925	0.77137	-0.494385	-0.083252	-0.269531
647.0	15.880667	1.080939	4.578312	-2.080961	3.990766	0.637789	-0.484131	-0.065674	-0.291504
648.0	13.4098	1.524399	2.738081	-1.953726	3.61279	0.50193	-0.478271	-0.04834	-0.308838
649.0	14.759839	1.286807	1.760307	-2.300311	2.931921	0.306948	-0.461914	-0.024414	-0.323975
650.0	17.091959	0.248187	-0.448289	-2.28502	2.42655	0.216586	-0.456299	0.001465	-0.326416
651.0	18.994094	0.969059	-2.565335	-1.489821	1.969839	0.216159	-0.441406	0.010254	-0.330811
652.0	20.813763	2.043033	-5.719176	-1.217409	1.431549	0.252305	-0.436035	0.038086	-0.328613
653.0	21.543141	2.377656	-8.22678	-1.110831	0.763773	0.407534	-0.42334	0.051025	-0.320068
654.0	21.079976	2.004717	-8.637528	-0.67682	-0.034459	0.577939	-0.419434	0.063721	-0.307129
655.0	20.248135	2.221012	-6.700932	0.01371	-0.622358	0.663451	-0.406738	0.070313	-0.300537
656.0	16.918667	3.130892	-2.723166	0.673361	-0.905899	0.625096	-0.406982	0.078613	-0.291992
657.0	6.673355	-12.536695	-11.909533	-2.009348	-2.162992	-0.827609	-0.400146	0.072021	-0.279053
658.0	2.328653	2.083123	-16.062608	11.53267	-3.801642	-2.099391	-0.396484	0.033203	-0.259277
659.0	21.321441	23.538705	40.593406	9.826683	-3.405002	-2.909374	-0.386963	0.011475	-0.248291
660.0	0.575999	19.557442	14.149767	-0.711013	-1.73635	-2.057324	-0.384766	0.013428	-0.230957
661.0	11.409993	7.237468	6.139908	-1.317132	-3.946648	-2.101569	-0.380371	0.015381	-0.21582
662.0	18.256319	-0.237106	13.69832	-1.903469	-2.727923	-1.021056	-0.380371	0.017334	-0.196289
663.0	6.335115	-5.276259	6.352657	-1.752743	-2.729284	-0.6987	-0.375977	0.014893	-0.18335
664.0	12.812509	-3.203373	8.119734	1.386929	-2.876916	-0.387678	-0.378174	0.019043	-0.167969
665.0	11.778717	4.488594	10.254306	2.888167	-2.323351	-0.3576	-0.367188	0.012451	-0.159424
666.0	7.509673	7.601756	12.181672	0.265537	-2.072371	-0.396559	-0.367188	0.012207	-0.139893
667.0	7.39733	1.108353	9.303063	-3.218985	-2.273867	-0.267338	-0.369873	0.0271	-0.135498
668.0	17.216843	-9.065968	8.075978	-3.91665	-2.401853	-0.494396	-0.367676	0.0271	-0.120361
669.0	13.071308	-13.70563	1.802272	0.005037	-0.821943	-0.210173	-0.356689	0.0271	-0.122559
670.0	9.6151	-2.302778	8.645486	3.098632	-0.99076	-0.173709	-0.361084	0.0271	-0.120361
671.0	10.642616	2.194034	10.629217	1.319512	-0.366219	-0.141882	-0.36499	0.018311	-0.120361
672.0	6.562926	-1.774195	8.825424	-1.825455	-0.507004	-0.015331	-0.356689	0.024902	-0.114014
673.0	6.71332	-6.267545	5.203937	-1.145755	-0.187115	-0.070851	-0.356445	0.020508	-0.107422
674.0	7.208407	-3.526705	6.700587	1.289274	-0.252224	-0.078341	-0.361084	0.024902	-0.115967
675.0	6.209501	-0.423362	8.720691	0.696323	-0.164137	-0.056921	-0.358887	0.024902	-0.114014
676.0	6.794941	-1.378531	7.86897	-0.579093	-0.23533	-0.04701	-0.363281	0.026855	-0.115967
677.0	6.427584	-2.974168	6.974709	-0.190782	-0.181208	-0.012374	-0.358643	0.020508	-0.118164
678.0	6.214156	-2.25547	7.559091	0.060194	-0.179261	-0.01886	-0.354492	0.026855	-0.109619
679.0	6.590993	-2.149928	7.347907	-0.152115	-0.184757	-0.038717	-0.356445	0.022705	-0.109619
680.0	6.366948	-2.325102	7.152595	-0.102151	-0.161972	-0.026244	-0.356445	0.022461	-0.107422
681.0	6.450218	-2.236549	7.219742	-0.104422	-0.172351	-0.033147	-0.354492	0.024658	-0.107422
682.0	6.451721	-2.606108	7.016511	-0.165618	-0.155705	-0.049924	-0.36084	0.022461	-0.107422
683.0	6.423682	-2.785954	6.872389	-0.09104	-0.138214	-0.079442	-0.356689	0.024658	-0.109619
684.0	6.286166	-2.821326	6.948447	-0.03792	-0.116044	-0.11845	-0.358643	0.020508	-0.107422
685.0	6.242018	-3.195445	6.650193	-0.01117	-0.099335	-0.187879	-0.358643	0.022705	-0.109619
686.0	6.155461	-3.379755	6.453149	0.143381	-0.092279	-0.285184	-0.356689	0.024658	-0.105225
687.0	6.19882	-3.153476	6.600529	0.298886	-0.06518	-0.377029	-0.354004	0.016113	-0.098633
688.0	6.598666	-2.695431	6.896713	0.395863	-0.034087	-0.429158	-0.356445	0.022461	-0.107422
689.0	6.304701	-2.380861	7.113973	0.43256	-0.017707	-0.444078	-0.349854	0.016113	-0.105225
690.0	6.512317	-2.664905	7.08593	0.293681	0.031127	-0.500565	-0.350098	0.024658	-0.10083
691.0	6.439298	-2.718143	6.810261	0.474223	0.054125	-0.514777	-0.351563	0.009766	-0.105225
692.0	6.366881	-2.353555	7.196249	0.58268	0.110418	-0.537565	-0.347412	0.011963	-0.109375
693.0	6.561042	-2.234499	7.16288	0.525268	0.126519	-0.533716	-0.347168	0.003174	-0.107178
694.0	6.699774	-1.965848	7.120846	0.569494	0.108682	-0.479197	-0.344971	0.005371	-0.111572
695.0	6.515176	-1.45389	7.54909	0.583674	0.104166	-0.413769	-0.34082	0.007568	-0.111572
696.0	6.660785	-1.173555	7.708696	0.38014	0.095717	-0.34988	-0.344971	0.003174	-0.10498
697.0	6.664147	-1.243213	7.589754	0.230833	0.038872	-0.283769	-0.338135	-0.000977	-0.109375
698.0	6.488948	-1.113079	7.710192	0.204057	0.001299	-0.205963	-0.340576	0.005371	-0.109375
699.0	6.639185	-0.713586	7.897294	0.238367	-0.076797	-0.126294	-0.340088	-0.005371	-0.107178
700.0	6.423989	-1.312077	7.691056	-0.127774	-0.129263	-0.095932	-0.340332	-0.000977	-0.109375
701.0	6.676131	-1.346575	7.507974	0.072833	-0.169084	-0.053437	-0.336182	0.001221	-0.10498
702.0	6.633622	-1.15469	7.799141	-0.037765	-0.20544	-0.035919	-0.342773	0.003174	-0.107178
703.0	6.132113	-1.735408	7.704885	-0.170634	-0.247873	-0.025023	-0.340332	-0.003174	-0.10498
704.0	6.113339	-1.722859	7.932428	-0.07363	-0.353093	-0.021972	-0.344727	0.000977	-0.10083
705.0	6.088292	-1.441692	7.996701	-0.113597	-0.487039	-0.032228	-0.344727	0.000977	-0.098633
706.0	4.585987	-0.919881	9.725453	-0.23348	-0.586375	-0.006927	-0.342773	0.007324	-0.094238
707.0	6.146244	-0.955803	8.681686	-0.444877	-1.187553	-0.047816	-0.342529	0.000977	-0.092041
708.0	4.735775	-1.729515	8.848049	-0.6673	-1.300695	-0.028823	-0.347168	0.005127	-0.079102
709.0	5.45182	-1.914454	8.878516	-0.459106	-1.612826	-0.0667	-0.338379	0.004883	-0.070313
710.0	5.073699	-1.511136	9.336959	-0.453727	-1.956957	-0.098626	-0.346924	0.004639	-0.057373
711.0	4.729537	-1.546773	9.509209	-0.593079	-2.308407	-0.140568	-0.346924	0.004395	-0.042236
712.0	4.338344	-1.919581	9.587077	-0.705336	-2.714078	-0.211969	-0.344971	0.008545	-0.022705
713.0	4.028759	-1.985059	10.06512	-0.65901	-3.287092	-0.338345	-0.346924	0.008301	0.003174
714.0	2.699386	-1.995961	10.733773	-0.601143	-4.023774	-0.480786	-0.340332	0.005859	0.0271
715.0	2.143036	-2.72272	10.583177	-0.735406	-4.975561	-0.676218	-0.329346	0.007568	0.05957
716.0	2.521719	-3.77904	10.12658	-0.900515	-5.981277	-0.938508	-0.327148	0.004883	0.098633
717.0	2.838322	-4.401587	9.439142	-0.836616	-6.953956	-1.239973	-0.307373	0.004395	0.14209
718.0	6.646787	-4.253477	8.814258	-0.926708	-7.901789	-1.449398	-0.287842	0.008057	0.194092
719.0	14.303771	-4.995494	9.469287	-1.379833	-8.433404	-1.609606	-0.260986	-0.007568	0.229004
720.0	20.523313	-6.852036	8.799677	-2.10724	-8.28717	-1.713148	-0.239014	-0.010254	0.274414
721.0	21.625026	-5.028926	10.166894	-1.840262	-7.766567	-1.7341	-0.2146	-0.023682	0.317871
722.0	20.502354	-3.632679	11.593049	-3.277345	-6.918651	-2.043736	-0.183594	-0.032471	0.354736
723.0	13.910441	-8.385246	9.926188	-4.796076	-6.746565	-2.580023	-0.156494	-0.056396	0.381104
724.0	7.066736	-9.742969	7.436521	-3.983992	-6.177704	-3.097431	-0.135742	-0.082764	0.417969
725.0	11.682142	-12.68643	16.252665	-5.571301	-6.555034	-3.914722	-0.099854	-0.11084	0.442139
726.0	6.768732	-28.532231	6.544614	-4.742712	-5.752015	-4.250558	-0.068604	-0.128418	0.474854
727.0	30.079388	-29.403633	10.137142	1.01014	-4.568108	-3.013002	-0.046631	-0.130859	0.496582
728.0	32.315933	-23.57077	20.851568	2.212672	-0.073339	-0.143537	-0.055908	-0.116211	0.528809
729.0	16.658756	-17.298685	19.433926	3.697987	3.044041	1.703673	-0.084717	-0.099365	0.55249
730.0	-1.002238	-10.325442	13.293747	4.71699	4.315021	2.08819	-0.123047	-0.067627	0.580566
731.0	-11.980655	-0.750172	10.121767	6.191912	4.629244	1.657075	-0.145996	-0.031494	0.604248
732.0	-14.199179	6.946367	12.420677	5.611709	3.168603	0.56779	-0.171631	0.009033	0.621338
733.0	2.044613	9.292582	18.18538	-0.648316	2.306845	0.077194	-0.206055	0.0	0.640869
734.0	6.353009	-2.115907	14.211809	-5.588508	3.713601	0.508629	-0.248535	-0.026123	0.653809
735.0	8.54098	-16.662244	5.383056	-3.186643	4.831985	0.787575	-0.311768	-0.022217	0.657959
736.0	4.97673	-10.275472	7.62717	3.029503	6.065419	1.267436	-0.376465	0.018555	0.655518
737.0	3.792595	-4.131424	9.174701	1.611657	6.221016	1.171561	-0.466309	0.033447	0.644531
738.0	5.422051	-7.25144	5.457638	0.282977	6.259645	1.322955	-0.560791	0.054932	0.607422
739.0	7.036415	-6.512151	4.948295	2.210757	6.387327	1.607513	-0.649414	0.087891	0.544189
740.0	8.098472	-2.574979	6.781718	2.199569	6.435931	1.789935	-0.718506	0.125488	0.448486
741.0	9.018009	-1.828022	6.839946	1.135455	6.463411	1.955607	-0.774414	0.156738	0.339844
742.0	9.639269	-2.404088	6.398022	0.73103	6.397357	2.073837	-0.798584	0.210205	0.207275
743.0	10.418333	-2.197394	6.753811	0.514684	6.303568	2.093563	-0.759033	0.254883	0.085693
744.0	10.994976	-2.777135	6.851551	0.118453	6.192446	1.996539	-0.676025	0.297363	0.005615
745.0	12.307713	-3.01729	7.458329	0.053923	6.085272	1.850736	-0.572266	0.31543	-0.024658
746.0	13.38332	-2.7712	8.389869	-0.199984	6.056219	1.698617	-0.498047	0.306641	-0.005127
747.0	14.124139	-2.577877	9.111489	-0.496767	6.02839	1.591365	-0.466064	0.27417	0.03418
748.0	14.250189	-2.722129	9.430101	-0.926548	5.997741	1.526132	-0.481689	0.226318	0.060547
749.0	13.065688	-3.575379	8.672531	-1.26797	5.864834	1.41669	-0.511963	0.164063	0.049805
750.0	11.420381	-3.220677	8.208326	-1.234143	5.474902	1.25283	-0.545166	0.119385	0.002441
751.0	10.59296	-2.024811	8.58487	-1.460229	4.820107	1.085003	-0.566895	0.061768	-0.047363
752.0	12.15078	-0.81688	9.10102	-1.725854	4.039653	1.066693	-0.567871	0.030273	-0.101318
753.0	10.609778	-8.902285	2.486466	-3.487943	2.384598	0.365842	-0.572754	-0.016357	-0.148682
754.0	13.628531	-4.994037	0.404932	2.132088	1.413807	0.393853	-0.580322	-0.04834	-0.174561
755.0	41.034961	11.165152	13.830574	5.075738	1.565548	0.948676	-0.581299	-0.080322	-0.204834
756.0	33.868559	15.867254	16.185447	-1.774532	3.508893	2.756791	-0.570801	-0.072998	-0.252441
757.0	22.464627	0.13969	-1.075844	-8.816808	3.757573	3.360286	-0.563232	-0.046631	-0.295898
758.0	18.055296	-17.307836	-15.22083	-3.455355	2.964681	2.886766	-0.56543	-0.046387	-0.324219
759.0	25.3697	-3.459962	-20.496998	6.416589	1.880435	1.983768	-0.564453	-0.073975	-0.339111
760.0	41.232543	15.536346	-13.031956	7.39352	0.896855	1.655243	-0.561768	-0.084717	-0.3479
761.0	24.69086	13.945859	-10.32019	-0.856611	2.008814	1.909335	-0.560303	-0.071533	-0.365234
762.0	12.755114	0.005239	-34.526265	-3.557756	-0.974439	0.976859	-0.573242	-0.071533	-0.363037
763.0	10.971954	5.865623	-31.136901	8.192027	-5.75255	-1.026657	-0.605713	-0.132568	-0.315186
764.0	8.074594	26.21182	10.3354	8.477555	-6.375987	-1.967757	-0.624023	-0.161377	-0.262939
765.0	38.569759	21.82509	36.54304	-5.583378	-7.100671	-1.498992	-0.634766	-0.163574	-0.258545
766.0	11.152194	-3.028409	-4.193461	-6.387306	-2.368403	-1.116247	-0.645508	-0.166016	-0.25
767.0	2.357519	-12.454519	1.983394	-0.6224	-6.691537	-1.525736	-0.657959	-0.183838	-0.204346
768.0	28.517349	-6.138196	10.649953	1.70976	-3.775776	-0.373095	-0.668213	-0.194824	-0.184814
769.0	1.504273	0.152388	5.61721	3.957114	-4.142845	-0.544829	-0.674316	-0.208252	-0.143555
770.0	61.452918	5.531483	25.814255	0.743984	-3.771735	-1.994378	-0.677979	-0.223389	-0.145752
771.0	13.449001	-7.035415	-1.471962	-4.880942	2.384208	-0.308841	-0.673828	-0.21875	-0.16748
772.0	-5.084783	-10.61283	5.63196	1.302429	-1.532009	-1.133319	-0.679688	-0.234131	-0.1521
773.0	17.121123	3.163782	7.76724	5.975139	0.056545	-0.410786	-0.674805	-0.24707	-0.136963
774.0	3.205145	7.24392	13.817766	1.053199	-0.056299	-0.17469	-0.675049	-0.24292	-0.13916
775.0	8.688807	1.208317	9.396527	-3.419173	-0.596972	-0.022866	-0.679443	-0.242676	-0.143555
776.0	6.504202	-5.549462	4.720686	-2.38837	-0.234028	0.193633	-0.668701	-0.240479	-0.147705
777.0	6.623367	-5.917906	5.540319	0.783491	-0.307934	0.044772	-0.675049	-0.240723	-0.143555
778.0	6.984661	-0.885529	7.9962	1.61811	-0.222508	0.043839	-0.679443	-0.24292	-0.134766
779.0	6.314786	-0.493454	8.778074	-0.437879	-0.250226	0.03511	-0.677246	-0.240723	-0.13916
780.0	6.795116	-3.392014	6.402354	-0.995337	-0.207957	0.024538	-0.679443	-0.238525	-0.136963
781.0	6.343204	-4.671557	5.976718	0.001699	-0.170053	-0.058205	-0.675049	-0.24292	-0.136963
782.0	6.483113	-2.683012	7.00357	0.527289	-0.123861	-0.127025	-0.677246	-0.24292	-0.128174
783.0	6.597179	-2.120061	7.269743	0.07653	-0.106979	-0.169247	-0.677246	-0.24292	-0.128174
784.0	6.633751	-2.898076	6.638614	0.015726	-0.072056	-0.193886	-0.677246	-0.24292	-0.130371
785.0	6.594209	-2.480612	6.990273	0.281934	-0.055721	-0.215277	-0.677002	-0.249512	-0.128174
786.0	6.640551	-2.123592	7.106373	0.161188	-0.037931	-0.237646	-0.677002	-0.245117	-0.132568
787.0	6.538218	-2.345069	7.008962	0.128412	-0.038699	-0.23025	-0.674561	-0.251465	-0.130371
788.0	6.571289	-2.151964	7.047531	0.197759	-0.024462	-0.227016	-0.678955	-0.253662	-0.128174
789.0	6.685108	-1.886215	7.11395	0.181522	-0.028625	-0.218261	-0.674561	-0.251465	-0.128174
790.0	6.513798	-1.907262	7.284483	0.130087	-0.01602	-0.200194	-0.677002	-0.249512	-0.119629
791.0	6.724984	-1.745035	7.156299	0.143478	-0.062381	-0.16741	-0.674316	-0.260254	-0.121582
792.0	6.704803	-1.619038	7.176128	0.115952	-0.060975	-0.142028	-0.676758	-0.256104	-0.119629
793.0	6.70936	-1.818367	7.169143	0.012265	-0.059875	-0.122216	-0.672119	-0.260254	-0.125977
794.0	6.707613	-1.958338	7.032464	0.018702	-0.050968	-0.1058	-0.669922	-0.258057	-0.119629
795.0	6.602623	-1.830913	7.051322	0.065474	-0.076473	-0.086747	-0.674316	-0.262451	-0.125977
796.0	6.731798	-1.567971	7.194315	0.041542	-0.082904	-0.05898	-0.674316	-0.262451	-0.128174
797.0	6.701559	-1.633098	7.285605	-0.050524	-0.082901	-0.057216	-0.672119	-0.262451	-0.128174
798.0	6.578168	-2.362518	7.174702	-0.207432	-0.058429	-0.111456	-0.678711	-0.260254	-0.130371
799.0	6.600222	-2.758578	7.003199	-0.099756	-0.0346	-0.174252	-0.674072	-0.264648	-0.123779
800.0	5.783307	-2.387876	7.600997	0.072399	-0.083771	-0.223345	-0.678711	-0.260254	-0.123779
801.0	6.336571	-1.961771	7.43248	0.050115	-0.236334	-0.271654	-0.674072	-0.266846	-0.121582
802.0	6.089813	-1.989259	7.719304	-0.033032	-0.274854	-0.299961	-0.67627	-0.266602	-0.123779
803.0	6.472054	-2.291959	7.379735	-0.124079	-0.348077	-0.331016	-0.673828	-0.273438	-0.11084
804.0	6.249221	-2.194165	7.379372	-0.019222	-0.430962	-0.355681	-0.676025	-0.27124	-0.108643
805.0	6.401617	-1.864026	7.425203	0.007385	-0.513536	-0.362997	-0.673828	-0.273193	-0.115234
806.0	6.286908	-1.745444	7.696049	-0.06102	-0.610306	-0.373464	-0.673584	-0.275635	-0.106445
807.0	6.227511	-1.645867	7.671338	-0.077658	-0.744647	-0.37895	-0.671387	-0.277832	-0.095703
808.0	6.130546	-1.776143	7.733473	-0.115578	-0.905909	-0.389905	-0.671143	-0.282227	-0.093506
809.0	6.033764	-1.572815	7.90088	-0.051373	-1.079624	-0.402262	-0.671143	-0.284424	-0.084717
810.0	5.962784	-1.594213	8.276106	-0.126491	-1.300879	-0.429362	-0.673096	-0.288818	-0.08252
811.0	5.820374	-1.736805	8.232038	-0.186721	-1.549912	-0.468144	-0.666504	-0.291016	-0.067383
812.0	5.577852	-1.455425	8.680721	-0.109623	-1.832462	-0.512473	-0.675049	-0.295654	-0.050049
813.0	5.413888	-1.236453	8.972783	-0.170817	-2.213758	-0.551892	-0.668213	-0.300049	-0.04126
814.0	4.963231	-1.481217	9.051458	-0.314995	-2.647195	-0.604526	-0.672363	-0.304688	-0.023926
815.0	4.666135	-1.981998	9.061911	-0.351606	-3.150601	-0.712853	-0.669922	-0.311523	0.002197
816.0	3.689202	-2.793686	8.707828	-0.463016	-3.753009	-0.925766	-0.662842	-0.320313	0.032471
817.0	2.889313	-3.316311	7.944578	-0.307362	-4.511223	-1.185582	-0.656006	-0.327148	0.060791
818.0	3.447825	-2.913368	8.573249	0.007081	-5.382635	-1.413216	-0.649414	-0.332031	0.093262
819.0	4.04911	-2.323523	8.894898	0.254361	-6.304481	-1.519063	-0.633301	-0.347656	0.141113
820.0	8.247434	-1.225755	8.367563	0.491803	-7.177153	-1.472534	-0.620117	-0.352539	0.186523
821.0	10.019021	-0.881244	8.313444	-0.173946	-7.496155	-1.404794	-0.595459	-0.36792	0.230225
822.0	16.128685	-2.114564	8.863342	-1.594673	-8.141049	-1.327346	-0.570801	-0.381592	0.277832
823.0	17.505746	-4.599029	7.561432	-2.378459	-7.785785	-1.237218	-0.541992	-0.390381	0.314941
824.0	16.865712	-2.245311	8.519868	-1.790428	-7.733064	-1.159248	-0.517822	-0.397217	0.349609
825.0	19.531535	-0.057052	12.557015	-3.555248	-7.451649	-1.183744	-0.484619	-0.412598	0.36499
826.0	15.946345	-3.782657	8.861418	-6.525029	-6.959173	-1.550778	-0.446533	-0.438232	0.375977
827.0	13.406093	-7.964638	7.819789	-6.35806	-7.385386	-2.405548	-0.40625	-0.463867	0.376221
828.0	27.330214	-15.409669	13.286077	-7.505177	-6.016742	-2.962111	-0.370117	-0.500488	0.378662
829.0	12.288399	-33.494282	5.092739	-4.310314	-4.901748	-3.733237	-0.339111	-0.513184	0.385254
830.0	27.933497	-41.500182	5.72718	2.096846	-2.494371	-1.861941	-0.33374	-0.483643	0.419678
831.0	30.158572	-17.810659	23.827045	6.059355	0.5981	0.451084	-0.350342	-0.443359	0.451904
832.0	9.347172	-9.750369	15.379281	5.436926	2.577775	1.977523	-0.375977	-0.400635	0.468994
833.0	0.893083	-2.817143	11.795861	6.143477	3.134618	2.177092	-0.395264	-0.347168	0.490479
834.0	-6.860724	4.384874	10.536219	7.199779	3.072423	1.620274	-0.417236	-0.287109	0.503174
835.0	-3.11313	12.695843	14.207571	4.514303	2.134636	0.768253	-0.431396	-0.259277	0.500732
836.0	2.444528	8.731508	15.092427	-2.149216	2.315084	0.27308	-0.444336	-0.263428	0.481201
837.0	6.042193	-0.931381	11.910328	-4.348032	2.837385	-0.036243	-0.463379	-0.275879	0.45752
838.0	7.547379	-7.879642	6.98204	-1.494376	4.154414	-0.244779	-0.477051	-0.262939	0.444336
839.0	6.335787	-2.470086	9.163704	2.578644	5.067089	-0.199669	-0.49292	-0.245605	0.427002
840.0	5.509193	0.721693	10.784286	1.282815	5.619675	-0.139231	-0.517578	-0.230225	0.400879
841.0	5.687782	-2.042041	8.73714	-2.049049	5.882789	0.104316	-0.534912	-0.236328	0.366211
842.0	5.916657	-8.868243	3.143358	-2.076771	6.16032	0.461478	-0.555176	-0.21875	0.335693
843.0	6.91357	-8.738539	3.522964	1.570329	6.302449	0.795481	-0.573242	-0.205566	0.305176
844.0	8.01275	-3.488311	6.576388	1.682461	6.316455	1.067004	-0.591553	-0.185791	0.276855
845.0	10.165266	-4.042478	6.41141	0.139329	6.333192	1.449627	-0.605225	-0.168213	0.237793
846.0	12.008492	-5.786012	5.551572	0.294039	6.417918	1.867752	-0.623535	-0.150635	0.207275
847.0	12.686973	-4.468176	6.461183	0.628508	6.606204	2.212377	-0.637451	-0.128662	0.178955
848.0	12.977494	-4.091409	6.365744	0.178709	6.716588	2.405118	-0.659912	-0.108887	0.139893
849.0	12.997826	-4.316176	5.730536	0.154271	6.738366	2.433646	-0.669434	-0.095459	0.102783
850.0	12.656574	-3.468197	6.237251	0.128432	6.649983	2.304932	-0.689941	-0.069336	0.061523
851.0	13.406786	-2.862636	6.980289	-0.15113	6.501255	2.123469	-0.699463	-0.055664	0.015869
852.0	14.198156	-2.717213	7.95343	-0.560241	6.349293	2.002768	-0.711182	-0.031494	-0.023193
853.0	15.432576	-3.431679	8.589289	-1.069969	6.216902	1.970468	-0.718506	-0.013672	-0.071045
854.0	15.598665	-4.7529	8.52233	-1.348652	6.106052	1.986675	-0.72168	0.006348	-0.118896
855.0	14.698528	-4.423662	8.061208	-1.104212	5.852469	1.971062	-0.718506	0.034668	-0.151367
856.0	13.238719	-2.139642	7.871231	-1.043534	5.342254	1.958327	-0.719482	0.061035	-0.190674
857.0	11.801401	0.364459	7.445701	-0.949812	4.568079	1.980266	-0.716309	0.085205	-0.220947
858.0	13.507234	2.153539	8.578056	-1.143426	3.580178	1.952448	-0.717529	0.117676	-0.249268
859.0	19.937405	1.911329	9.582253	-2.386642	2.89476	1.969886	-0.712158	0.144043	-0.279785
860.0	22.595763	-1.772823	6.03231	-2.727375	2.854497	2.00095	-0.711426	0.180908	-0.301758
861.0	21.081692	-3.925028	1.212816	-0.563164	2.734623	1.714597	-0.701172	0.196289	-0.321289
862.0	22.213818	-0.249527	-1.270161	1.744203	2.309965	1.351397	-0.693115	0.213867	-0.347412
863.0	29.869961	4.130744	-5.360888	2.080886	1.981877	1.070604	-0.677979	0.216553	-0.379883
864.0	37.266247	8.678011	-10.870607	1.859544	2.047733	1.219007	-0.669678	0.223389	-0.405762
865.0	30.656732	11.243631	-15.689027	0.200986	2.168662	1.397848	-0.650879	0.24292	-0.421143
866.0	21.095278	8.973016	-16.951046	-2.174502	0.950093	1.360278	-0.649658	0.264404	-0.416992
867.0	17.983642	3.334734	-15.400939	-2.414872	-1.093903	0.945206	-0.647949	0.277344	-0.408203
868.0	21.07625	0.73247	-7.81216	-0.525468	-1.709119	0.59597	-0.650391	0.287842	-0.397461
869.0	13.756398	-1.044249	-0.036557	0.38061	-1.405356	0.261725	-0.660889	0.279053	-0.390869
870.0	-4.033608	-6.490197	-17.21888	-0.420134	-3.144343	-2.588151	-0.681641	0.250977	-0.384277
871.0	-28.205751	-8.166582	20.447772	5.567208	-5.434053	-3.850035	-0.718994	0.204834	-0.327881
872.0	37.599805	4.546277	20.917167	3.147295	-6.695436	-3.492994	-0.746094	0.180664	-0.301758
873.0	24.708363	8.692575	-0.799448	3.484344	-3.036394	-0.759191	-0.756592	0.169678	-0.275635
874.0	14.737683	7.994016	18.250751	-0.284756	-5.225913	-0.264091	-0.769531	0.171143	-0.239014
875.0	14.192155	3.490691	9.969769	-1.430324	-3.413359	-1.031116	-0.782227	0.160156	-0.215088
876.0	14.600727	3.147067	9.06191	0.20668	-3.361381	-1.139457	-0.786377	0.155273	-0.186768
877.0	14.896333	-0.724981	12.864592	-1.724462	-3.213192	-0.861632	-0.797119	0.152832	-0.158691
878.0	28.702596	-9.798283	6.562805	-3.993677	-1.589281	-1.043726	-0.80127	0.152588	-0.145752
879.0	14.701026	-17.606202	2.730271	-0.231398	-0.833498	-0.946028	-0.802979	0.137695	-0.149902
880.0	7.69183	-0.91184	6.34931	5.923202	0.227672	-0.563781	-0.807129	0.131104	-0.156494
881.0	8.818645	7.451265	13.355219	3.413701	-0.239972	-0.676564	-0.804688	0.126953	-0.156494
882.0	6.250626	3.092789	10.940642	-2.918764	-0.313623	-0.119088	-0.804932	0.131104	-0.145508
883.0	8.639592	-4.170764	4.948731	-3.182966	-0.284255	0.05108	-0.802734	0.128906	-0.143311
884.0	6.014121	-5.283559	5.598893	0.897094	-0.230581	0.12638	-0.804932	0.131104	-0.141113
885.0	6.431101	-1.645558	9.049818	1.400916	-0.162159	0.099419	-0.804688	0.124512	-0.138916
886.0	5.91971	-1.73472	7.947612	-0.624564	-0.283368	0.023483	-0.802734	0.130859	-0.136963
887.0	7.103753	-2.717161	6.515361	-0.131532	-0.19346	0.108521	-0.807129	0.130859	-0.136963
888.0	6.150053	-1.905205	7.771787	0.215615	-0.199377	0.126809	-0.804932	0.13501	-0.125977
889.0	6.360734	-1.87414	7.586667	-0.167617	-0.2281	0.132012	-0.800537	0.128662	-0.134766
890.0	6.116033	-2.551037	7.192842	-0.191126	-0.211317	0.12876	-0.804932	0.133057	-0.128174
891.0	6.158954	-2.76522	7.083864	-0.123433	-0.235776	0.091293	-0.804932	0.13501	-0.124023
892.0	5.937158	-2.719636	7.179791	-0.100092	-0.231965	0.040742	-0.804932	0.133057	-0.132568
893.0	6.048666	-3.288472	6.770115	-0.236196	-0.236366	-0.043301	-0.807129	0.132813	-0.121826
894.0	6.011109	-3.698754	6.483196	-0.07165	-0.225816	-0.152713	-0.807373	0.137207	-0.117432
895.0	6.179389	-3.662749	6.443775	0.097447	-0.208511	-0.271266	-0.804688	0.128662	-0.119629
896.0	6.445829	-3.011785	6.752056	0.268102	-0.179497	-0.34505	-0.809082	0.130615	-0.115234
897.0	6.429043	-2.609776	7.029462	0.23553	-0.129735	-0.35852	-0.806885	0.124268	-0.121582
898.0	6.875514	-2.446625	7.092572	0.253121	-0.103015	-0.360022	-0.811035	0.124268	-0.115234
899.0	6.504916	-2.409797	7.103759	0.26362	-0.06152	-0.351114	-0.808594	0.115723	-0.117432
900.0	6.674705	-2.252711	7.071908	0.284398	-0.03982	-0.347797	-0.810791	0.117676	-0.115234
901.0	6.686041	-1.958255	7.222777	0.351597	-0.019608	-0.327908	-0.810791	0.113525	-0.119385
902.0	6.752902	-1.65264	7.367875	0.285206	-0.022137	-0.292096	-0.810547	0.109131	-0.115234
903.0	6.823056	-1.565791	7.283049	0.207038	-0.019298	-0.250844	-0.810547	0.109131	-0.119385
904.0	6.756252	-1.527412	7.42738	0.188425	-0.024712	-0.206703	-0.810303	0.104736	-0.11084
905.0	6.671818	-1.531235	7.509365	0.127749	-0.039485	-0.161158	-0.812256	0.098389	-0.123779
906.0	6.661147	-1.667621	7.407984	0.039828	-0.05693	-0.1294	-0.812256	0.098389	-0.117188
907.0	6.584398	-1.772695	7.331719	0.034452	-0.070234	-0.107729	-0.812256	0.096191	-0.119385
908.0	6.565222	-1.872578	7.340623	0.000206	-0.087112	-0.092977	-0.8125	0.102539	-0.113037
909.0	6.561031	-1.98675	7.243314	-0.020911	-0.096644	-0.081652	-0.805664	0.098389	-0.121582
910.0	6.553849	-2.000556	7.241531	-0.028855	-0.107397	-0.083811	-0.814453	0.100586	-0.117188
911.0	6.586423	-2.299434	7.21224	-0.089373	-0.095447	-0.121065	-0.81665	0.098389	-0.117188
912.0	6.502234	-2.512363	7.106875	-0.083071	-0.087765	-0.160414	-0.814453	0.096191	-0.11084
913.0	5.959368	-2.221546	7.571601	0.008484	-0.095258	-0.206345	-0.812012	0.089844	-0.117188
914.0	4.487375	-2.458317	8.725207	-0.240177	-0.274057	-0.29543	-0.820801	0.093994	-0.108643
915.0	6.681447	-2.896052	7.151856	-0.0832	-0.489424	-0.368713	-0.814209	0.0896	-0.104248
916.0	6.0438	-2.804357	7.406654	0.019532	-0.546429	-0.43377	-0.820557	0.0896	-0.104248
917.0	5.846464	-2.209704	7.796175	0.118386	-0.650962	-0.47159	-0.811523	0.083008	-0.088867
918.0	5.979893	-1.713033	8.320908	0.075988	-0.830266	-0.49451	-0.822266	0.076416	-0.084717
919.0	5.729464	-1.655892	8.273033	-0.116586	-1.050057	-0.515877	-0.820068	0.076416	-0.080322
920.0	5.492456	-1.615729	8.471608	-0.070017	-1.289682	-0.527793	-0.822021	0.069824	-0.069336
921.0	5.503279	-1.539428	8.725995	-0.081975	-1.601184	-0.560345	-0.82373	0.061035	-0.056396
922.0	5.338117	-1.555835	9.045292	-0.140918	-1.921236	-0.619014	-0.819336	0.062744	-0.034668
923.0	5.016711	-1.749292	9.243377	-0.240476	-2.326413	-0.713523	-0.825684	0.056152	-0.015137
924.0	4.847522	-1.883505	9.133705	-0.263681	-2.785317	-0.819862	-0.829834	0.049316	0.006592
925.0	4.514413	-2.016952	8.940392	-0.246552	-3.31002	-0.945338	-0.827148	0.04248	0.034668
926.0	3.736417	-2.275048	9.048023	-0.268148	-3.92455	-1.116305	-0.826904	0.033447	0.06958
927.0	2.127791	-2.560004	9.649421	-0.079569	-4.79671	-1.276473	-0.826172	0.017822	0.112793
928.0	2.658414	-3.342988	9.183378	-0.082895	-5.860984	-1.479074	-0.816895	0.010742	0.158447
929.0	4.205758	-4.597366	7.760992	-0.250061	-6.716486	-1.897663	-0.802979	-0.011475	0.214844
930.0	8.838326	-3.87373	8.025756	0.378178	-7.487558	-2.176954	-0.789307	-0.025146	0.275635
931.0	10.446435	-1.71867	8.708247	0.459961	-7.783256	-2.230551	-0.768799	-0.041016	0.336426
932.0	19.243806	-1.365286	8.572894	-0.666777	-8.273372	-2.052889	-0.739746	-0.058838	0.390869
933.0	17.735897	-1.843194	9.347875	-1.851839	-7.927529	-1.768258	-0.708252	-0.081055	0.443115
934.0	18.987344	-0.465197	8.996647	-2.237812	-7.843917	-1.638111	-0.672852	-0.09668	0.495117
935.0	19.431828	-0.28929	12.830485	-4.131435	-7.109925	-1.403327	-0.642822	-0.135742	0.530029
936.0	8.724362	-0.954964	5.085458	-5.186515	-7.315068	-1.733357	-0.595947	-0.168213	0.562988
937.0	27.496689	-5.237049	17.035309	-8.194476	-7.085005	-1.887934	-0.569336	-0.234863	0.56543
938.0	11.411255	-15.805461	3.766215	-8.09215	-5.144793	-2.14447	-0.54126	-0.282227	0.574463
939.0	20.932304	-39.585184	4.071295	-4.752127	-4.828218	-2.470306	-0.514404	-0.305664	0.57251
940.0	28.357379	-34.652098	9.164559	4.008703	-1.71302	-0.563395	-0.515137	-0.284424	0.5896
941.0	15.641249	-17.668532	14.600568	5.04642	1.13779	1.00344	-0.525146	-0.247803	0.585205
942.0	9.266015	-8.829166	13.071278	6.707936	2.309315	1.354562	-0.54248	-0.198486	0.591309
943.0	0.504663	-0.267444	10.290459	7.568879	3.1188	1.399944	-0.55957	-0.148926	0.571533
944.0	-4.602217	7.642288	12.003138	8.0842	3.258031	0.851626	-0.583008	-0.10791	0.5625
945.0	-5.934275	16.487029	14.392886	2.818123	2.678742	0.693481	-0.602539	-0.109863	0.542969
946.0	0.027771	6.481764	12.436751	-3.054414	2.071861	-0.158658	-0.612305	-0.139648	0.515137
947.0	3.830828	-1.889469	9.473734	-4.336615	2.700591	-0.166086	-0.626465	-0.167236	0.487061
948.0	5.738643	-8.649108	6.096381	-1.690312	3.591189	-0.577008	-0.641602	-0.17334	0.454346
949.0	6.479081	-5.05517	8.387958	1.84182	4.50146	-0.563946	-0.656982	-0.172852	0.41748
950.0	8.115266	-1.891591	10.44506	1.008315	5.079661	-0.456992	-0.67627	-0.18335	0.382813
951.0	8.378572	-3.717728	8.429133	-0.87525	5.635936	-0.037101	-0.695801	-0.189209	0.337402
952.0	9.706412	-6.939375	5.775068	-0.579338	6.026649	0.563185	-0.719971	-0.184326	0.289551
953.0	10.35225	-6.699616	5.748043	0.308455	6.38703	1.243086	-0.733398	-0.179199	0.229004
954.0	10.6314	-6.947391	5.262937	-0.004818	6.561239	1.863887	-0.751465	-0.163574	0.176758
955.0	10.882275	-7.954996	4.027391	0.398156	6.608347	2.450876	-0.762939	-0.147705	0.124756
956.0	10.979593	-6.746501	4.197751	0.884274	6.581662	2.919665	-0.770508	-0.125488	0.068115
957.0	11.32662	-5.610396	4.793106	1.080689	6.517319	3.251016	-0.773682	-0.101074	0.013916
958.0	11.609842	-4.155811	5.670234	1.270753	6.429656	3.443915	-0.776855	-0.078857	-0.03833
959.0	12.440677	-2.575367	6.598218	1.263189	6.338004	3.479813	-0.77124	-0.058838	-0.101318
960.0	12.623363	-1.753196	7.592691	0.82939	6.327217	3.301604	-0.759277	-0.036377	-0.151123
961.0	13.366301	-1.380638	8.147861	0.49713	6.296223	2.910198	-0.744629	-0.024902	-0.203125
962.0	13.825664	-0.816522	8.972304	0.323743	6.309485	2.390698	-0.725342	-0.015625	-0.253174
963.0	14.461554	-0.560962	9.767803	-0.289958	6.297937	1.828192	-0.703857	-0.010498	-0.298584
964.0	14.285352	-0.797214	9.117112	-0.917985	6.162269	1.362786	-0.678223	-0.003418	-0.337646
965.0	13.244235	-0.035012	8.166297	-1.0929	5.737558	1.014464	-0.648193	0.005859	-0.376465
966.0	12.101784	1.042323	7.010027	-1.479404	4.989269	0.786002	-0.626709	0.010498	-0.406982
967.0	12.386911	0.786939	7.021972	-2.40172	3.939532	0.707417	-0.609375	0.012939	-0.42627
968.0	17.355372	-2.166466	6.754086	-3.547132	3.023406	0.803846	-0.592529	0.030518	-0.432861
969.0	22.933339	-6.378305	4.665967	-3.14798	2.755227	1.074644	-0.582764	0.054443	-0.452637
970.0	23.955499	-8.084145	1.975113	-1.109227	2.814239	1.340484	-0.567627	0.056641	-0.461182
971.0	22.170266	-5.160615	-0.055343	0.428517	2.729161	1.48752	-0.556885	0.059082	-0.476318
972.0	21.267413	-1.770003	-3.149861	1.189791	2.352798	1.550495	-0.550537	0.065674	-0.48291
973.0	27.233091	3.655708	-6.275908	2.138193	1.95215	1.592316	-0.535156	0.061523	-0.493652
974.0	29.68517	9.115401	-8.0385	1.311965	1.961817	1.769772	-0.524414	0.066162	-0.506592
975.0	24.136515	8.550298	-10.748348	-1.78303	1.55885	1.717685	-0.516846	0.089844	-0.509033
976.0	19.989753	3.642277	-13.246179	-2.315653	0.530481	1.43812	-0.519531	0.10498	-0.509033
977.0	19.326152	2.992292	-9.07177	-0.100687	-0.224219	1.071408	-0.514893	0.100586	-0.502441
978.0	18.926445	5.042349	-3.430592	0.137415	-0.387329	0.842191	-0.521973	0.113281	-0.502686
979.0	14.201094	3.077907	0.373715	-0.607893	-0.387846	0.792961	-0.517822	0.117676	-0.500488
980.0	2.174469	-15.676716	-21.631818	-3.914116	-2.180584	-1.006706	-0.54126	0.106689	-0.489502
981.0	-24.746082	-2.874523	-2.382348	12.284183	-3.21325	-1.827193	-0.564209	0.028564	-0.452393
982.0	25.856011	17.293503	43.771209	4.788264	-8.15415	-2.187453	-0.592041	0.017334	-0.428467
983.0	21.315188	7.438535	-3.670403	-2.547763	-3.001041	-0.420536	-0.609619	0.019287	-0.406982
984.0	13.0856	-1.007292	9.366229	-0.789839	-5.3466	-0.187316	-0.633301	0.018555	-0.36792
985.0	16.927647	2.105837	12.221519	2.045629	-3.135219	-0.324888	-0.639404	0.007568	-0.35498
986.0	9.616913	8.944827	10.450127	2.683636	-3.490687	-0.861953	-0.6521	-0.003418	-0.328857
987.0	12.528431	8.173888	13.659349	-1.580494	-3.002088	-0.705963	-0.667236	-0.001709	-0.307129
988.0	7.003643	-1.188086	6.568616	-3.470187	-2.86707	-0.620465	-0.66748	0.002197	-0.285645
989.0	24.686083	-10.408665	10.391909	-3.01497	-3.08887	-1.135445	-0.678223	-0.002197	-0.274658
990.0	16.056856	-15.750157	1.744757	-0.32243	-0.694972	-0.842791	-0.682129	-0.013184	-0.263916
991.0	16.345665	-7.356609	6.807754	2.324459	-0.258292	-0.713345	-0.675049	-0.026123	-0.263672
992.0	4.440248	1.823331	9.196081	4.000016	-0.260333	-0.785724	-0.680908	-0.041016	-0.263672
993.0	9.035605	2.838869	10.857843	-0.22181	-0.138838	-0.558987	-0.678711	-0.043213	-0.263672
994.0	6.732529	-3.80911	6.425294	-2.299648	-0.125908	-0.445756	-0.681396	-0.032471	-0.272461
995.0	7.662073	-6.213167	5.265588	0.470235	-0.040248	-0.411895	-0.667969	-0.041016	-0.261475
996.0	6.357508	-1.570313	7.939914	1.914043	0.012097	-0.351261	-0.685059	-0.047607	-0.261475
997.0	6.677865	-0.745595	8.566218	0.115932	0.011713	-0.352693	-0.680664	-0.049805	-0.259277
998.0	6.414239	-3.207395	6.809907	-0.242187	0.049962	-0.344402	-0.678223	-0.053955	-0.259277
999.0	5.968963	-2.603375	7.046712	0.751623	0.048171	-0.324886	-0.676025	-0.05835	-0.261475
1000.0	5.889093	-0.815191	8.196079	0.71243	0.063079	-0.292277	-0.677979	-0.060547	-0.259277
1001.0	6.095017	-0.537229	7.875829	0.231754	-0.046303	-0.226396	-0.673584	-0.062744	-0.259277
1002.0	5.979419	-1.767372	7.565491	0.012418	-0.074266	-0.206143	-0.680176	-0.062744	-0.261475
1003.0	5.998813	-2.358164	7.01552	0.18659	-0.057209	-0.202132	-0.671387	-0.064697	-0.25708
1004.0	6.311149	-1.758447	7.414717	0.352588	-0.087241	-0.199342	-0.67749	-0.075684	-0.25708
1005.0	6.29038	-2.185799	7.327182	0.118553	-0.060356	-0.215701	-0.681641	-0.077637	-0.25708
1006.0	6.585942	-2.040786	7.034396	0.294377	-0.102516	-0.21871	-0.675293	-0.075684	-0.250488
1007.0	6.598964	-1.650441	7.372462	0.301711	-0.051714	-0.220703	-0.679443	-0.080078	-0.252686
1008.0	6.355951	-1.693116	7.360379	0.166658	-0.066995	-0.204216	-0.675293	-0.073486	-0.26123
1009.0	6.66528	-1.777976	7.287632	0.147906	-0.034552	-0.203857	-0.679443	-0.082031	-0.25708
1010.0	6.35468	-1.757106	7.396758	0.160383	-0.073925	-0.188115	-0.681641	-0.080078	-0.252686
1011.0	6.766161	-1.460232	7.39428	0.159821	-0.06258	-0.182853	-0.679199	-0.084229	-0.25708
1012.0	6.401907	-1.152124	7.585808	0.138756	-0.069708	-0.137198	-0.678955	-0.088623	-0.254883
1013.0	6.613301	-1.338424	7.576277	-0.029802	-0.093253	-0.125491	-0.678955	-0.088623	-0.252686
1014.0	6.656967	-1.545179	7.460593	-0.038239	-0.0626	-0.114058	-0.681152	-0.090576	-0.254883
1015.0	6.462527	-1.425118	7.525151	0.017471	-0.111091	-0.083297	-0.677002	-0.088623	-0.250488
1016.0	6.340888	-1.614813	7.400371	-0.091364	-0.120472	-0.085624	-0.679199	-0.086426	-0.252686
1017.0	6.57391	-1.958418	7.215353	-0.076099	-0.128709	-0.084552	-0.681152	-0.093018	-0.246094
1018.0	6.232889	-1.902612	7.297483	-0.045404	-0.129813	-0.08017	-0.681396	-0.084229	-0.252686
1019.0	6.409595	-1.920195	7.384894	-0.048568	-0.152465	-0.096205	-0.68335	-0.09082	-0.246094
1020.0	6.384172	-2.008962	7.403779	-0.08156	-0.179555	-0.110558	-0.685547	-0.088623	-0.246094
1021.0	6.054034	-2.156498	7.514661	-0.096672	-0.210295	-0.118626	-0.681152	-0.088623	-0.243896
1022.0	6.386719	-1.704798	7.746553	-0.010474	-0.263343	-0.134423	-0.683594	-0.086426	-0.243896
1023.0	6.154437	-0.750762	8.065416	-0.075186	-0.376576	-0.1133	-0.678955	-0.091064	-0.233154
1024.0	4.771103	-0.760382	9.584439	-0.454475	-0.531514	-0.097281	-0.685303	-0.093018	-0.235352
1025.0	6.14698	-2.389886	8.092399	-0.607816	-0.84493	-0.170374	-0.685303	-0.095215	-0.235352
1026.0	5.459198	-2.56643	8.114743	-0.314412	-1.008221	-0.249096	-0.689697	-0.095459	-0.226563
1027.0	5.632607	-1.739445	8.665699	-0.239515	-1.217764	-0.300606	-0.693848	-0.095459	-0.218018
1028.0	5.484622	-1.493402	8.700322	-0.295974	-1.485588	-0.323737	-0.696045	-0.095703	-0.200684
1029.0	5.249906	-1.620815	8.921804	-0.341539	-1.792296	-0.360066	-0.695801	-0.102539	-0.185303
1030.0	5.068172	-2.151968	9.004043	-0.386972	-2.1352	-0.443277	-0.702393	-0.100586	-0.172363
1031.0	4.882875	-2.477719	9.146115	-0.331858	-2.485811	-0.579927	-0.704346	-0.103027	-0.148438
1032.0	4.435621	-2.393587	9.21945	-0.273104	-2.939336	-0.723383	-0.710693	-0.109619	-0.131104
1033.0	4.305767	-2.434935	9.501246	-0.320442	-3.446852	-0.897063	-0.706055	-0.112305	-0.10083
1034.0	2.872896	-2.808426	9.585214	-0.308476	-4.116312	-1.127243	-0.716553	-0.123535	-0.070313
1035.0	1.458548	-3.758151	9.246157	-0.263	-5.031119	-1.418338	-0.71582	-0.141113	-0.035645
1036.0	2.387081	-4.93131	8.126684	-0.186726	-6.046944	-1.76935	-0.719727	-0.150635	0.020752
1037.0	4.447539	-5.240123	7.220819	0.201695	-6.934379	-2.229868	-0.712402	-0.168457	0.066406
1038.0	9.67713	-3.009489	7.625988	0.797513	-7.627666	-2.438128	-0.698486	-0.184326	0.131592
1039.0	11.995863	-0.056933	8.625878	0.726445	-7.862023	-2.400519	-0.68457	-0.202148	0.187988
1040.0	19.759886	0.714624	8.359139	-0.656411	-8.066257	-1.96738	-0.666748	-0.213623	0.23999
1041.0	17.943082	-1.301607	9.627365	-2.234164	-7.728809	-1.704982	-0.64624	-0.233398	0.287842
1042.0	18.851678	-1.531513	9.09833	-2.478799	-7.598194	-1.610452	-0.623779	-0.246826	0.329102
1043.0	16.915065	-0.515098	10.486073	-3.756529	-6.691309	-1.501674	-0.594238	-0.279297	0.355469
1044.0	12.298622	-0.852201	8.624146	-4.860608	-7.518002	-1.686085	-0.562988	-0.299072	0.385986
1045.0	24.194201	-7.725248	13.360231	-8.594432	-5.867316	-1.663684	-0.537354	-0.341797	0.379639
1046.0	13.915906	-19.8623	5.652126	-5.775535	-5.002759	-2.5204	-0.51416	-0.374268	0.38623
1047.0	28.086533	-37.130556	10.530435	-2.763309	-2.514926	-1.320181	-0.507324	-0.386963	0.388672
1048.0	23.797284	-27.557638	19.749812	3.049417	1.383847	0.560453	-0.523193	-0.36792	0.399414
1049.0	0.272393	-16.044636	13.363061	4.683127	2.390776	0.915813	-0.537354	-0.340088	0.405518
1050.0	-2.9532	-5.586508	11.856766	5.713846	2.581501	0.976116	-0.546875	-0.318848	0.41626
1051.0	-4.464876	2.473126	12.937985	6.182193	2.216504	0.909173	-0.558838	-0.291016	0.427002
1052.0	2.073091	8.153505	16.673045	3.03589	2.163572	1.03731	-0.572266	-0.282227	0.418213
1053.0	2.665558	3.166971	15.541691	-2.593804	2.66152	1.355835	-0.587158	-0.290527	0.385742
1054.0	4.423133	-6.39494	10.607474	-4.658993	3.232652	1.327263	-0.608887	-0.296631	0.353271
1055.0	5.090511	-13.612556	4.893287	0.248425	4.048791	1.137846	-0.626465	-0.290039	0.33374
1056.0	4.967347	-3.96129	9.444625	3.112159	4.757793	1.001285	-0.642334	-0.272705	0.316162
1057.0	6.633906	-1.153416	9.736493	1.176404	5.172223	0.945849	-0.664551	-0.267822	0.274902
1058.0	6.943312	-3.006503	6.873516	0.171098	5.511894	1.155173	-0.688965	-0.258789	0.23584
1059.0	7.468551	-3.489237	5.817374	0.958691	5.771128	1.390675	-0.706787	-0.249756	0.19458
1060.0	8.530624	-2.251088	6.542257	0.842475	5.879167	1.581794	-0.725098	-0.229736	0.151123
1061.0	9.883033	-3.161648	6.074369	0.306341	5.923174	1.810461	-0.74292	-0.220703	0.103516
1062.0	10.869458	-3.73112	5.730268	0.506915	5.965939	2.075339	-0.752441	-0.198486	0.057861
1063.0	11.275685	-3.633693	5.866498	0.494731	5.981423	2.283853	-0.761963	-0.180664	0.007813
1064.0	11.377767	-4.326265	5.332545	0.515871	5.929154	2.401481	-0.773682	-0.162842	-0.037842
1065.0	11.809986	-3.893596	5.487973	0.836517	5.818061	2.415716	-0.77002	-0.146973	-0.089844
1066.0	12.329972	-3.2567	6.058021	0.830196	5.666453	2.312398	-0.762451	-0.124756	-0.14209
1067.0	13.475794	-3.036872	6.886562	0.76076	5.521008	2.137111	-0.75415	-0.113525	-0.178955
1068.0	14.793704	-2.711306	7.776347	0.557043	5.450657	1.927906	-0.748291	-0.099854	-0.226563
1069.0	15.778073	-2.794022	8.278701	0.15484	5.478123	1.706918	-0.733643	-0.086426	-0.267822
1070.0	15.575409	-3.23218	8.237461	-0.186484	5.506406	1.504201	-0.7146	-0.072754	-0.317871
1071.0	15.083437	-3.356465	8.00232	-0.416933	5.450542	1.311526	-0.697754	-0.063477	-0.354736
1072.0	14.274183	-3.306525	7.38455	-0.704499	5.253932	1.182864	-0.676514	-0.047852	-0.389404
1073.0	13.489361	-2.767844	6.71673	-0.937982	4.884554	1.125665	-0.659668	-0.036621	-0.432617
1074.0	12.900999	-2.30931	6.278637	-1.228895	4.374291	1.151373	-0.63623	-0.023193	-0.45874
1075.0	13.498592	-1.486874	6.082311	-1.41252	3.772321	1.303996	-0.619385	-0.009766	-0.484863
1076.0	15.318344	-1.41635	6.021624	-1.786345	3.223674	1.550949	-0.607178	0.009766	-0.497803
1077.0	16.922376	-3.445844	5.141992	-2.118165	2.904389	1.765792	-0.586182	0.029541	-0.526123
1078.0	17.930556	-4.781356	3.539092	-1.365363	2.748736	1.88733	-0.573975	0.049072	-0.54126
1079.0	17.05078	-3.283913	2.963268	-0.316964	2.620612	1.91729	-0.559082	0.055908	-0.556641
1080.0	18.493623	-2.233655	1.391397	-0.018221	2.454908	1.795415	-0.544434	0.071045	-0.567383
1081.0	22.716667	-0.905865	-1.768386	0.60889	2.357501	1.633592	-0.526855	0.067139	-0.584717
1082.0	27.137162	2.938857	-5.487346	1.407176	2.42121	1.626986	-0.509766	0.071777	-0.595459
1083.0	25.036829	6.516531	-9.278829	0.403454	2.301174	1.694324	-0.499023	0.078369	-0.613037
1084.0	20.231586	5.400624	-11.835928	-0.743662	1.354929	1.621133	-0.495117	0.091309	-0.613037
1085.0	16.942097	3.750785	-11.789769	-0.105101	0.147523	1.423531	-0.493164	0.091309	-0.613037
1086.0	17.588286	4.651552	-6.661814	0.566603	-0.802683	1.161889	-0.499756	0.093506	-0.608643
1087.0	18.415973	4.275574	-1.918089	0.499597	-1.098137	0.984548	-0.503906	0.093262	-0.600098
1088.0	16.589063	4.061526	0.708049	0.785295	-0.806021	0.865139	-0.512695	0.091064	-0.602051
1089.0	5.697421	0.240981	6.981095	0.417316	-0.398382	0.617443	-0.515137	0.099609	-0.595703
1090.0	-21.867909	-6.254363	-9.787388	-0.657232	-1.676436	-1.837052	-0.529297	0.07373	-0.593506
1091.0	-33.666672	-5.503546	17.618217	6.057603	-6.32783	-2.623386	-0.588135	0.020996	-0.536865
1092.0	39.121241	6.264963	15.024542	2.091969	-8.247453	-2.953091	-0.624268	0.003174	-0.5
1093.0	31.916213	5.503372	3.188944	0.78492	-3.113511	0.023913	-0.63501	0.000732	-0.478271
1094.0	5.197407	2.309774	15.286118	-0.671899	-4.913806	-0.292376	-0.654785	0.006592	-0.447998
1095.0	11.805271	4.570053	8.039611	1.262775	-3.889545	-0.887322	-0.673584	-0.015381	-0.419922
1096.0	13.181926	6.925147	12.268354	0.469394	-4.031555	-0.906957	-0.693115	-0.017822	-0.393799
1097.0	8.369228	1.928537	8.910951	-2.502104	-3.579943	-0.875937	-0.708496	-0.011719	-0.370117
1098.0	9.846328	-4.578505	7.353332	-2.911199	-3.863123	-0.917418	-0.727783	-0.014404	-0.342041
1099.0	38.286998	-15.507008	6.873786	-3.082205	-2.596651	-1.636502	-0.72998	-0.016602	-0.333252
1100.0	17.598959	-21.2707	1.072162	1.095852	-0.369055	-1.06754	-0.729004	-0.038086	-0.331055
1101.0	5.780133	1.060766	7.442655	7.570747	0.255716	-1.092657	-0.731934	-0.074951	-0.324219
1102.0	8.604331	8.414748	13.15834	3.591962	-0.314209	-1.017098	-0.729736	-0.074951	-0.313477
1103.0	8.618398	3.474067	11.644097	-3.357742	-0.169338	-0.630133	-0.721191	-0.074951	-0.324219
1104.0	7.257555	-5.262561	4.709291	-3.277025	0.018327	-0.371041	-0.732422	-0.066162	-0.328613
1105.0	6.863015	-6.514105	4.805026	1.458663	0.054902	-0.384793	-0.725586	-0.072754	-0.326416
1106.0	6.605396	-0.837072	8.604863	2.524657	0.073894	-0.380452	-0.725098	-0.085693	-0.326416
1107.0	6.476374	0.886988	9.236817	0.404265	0.087853	-0.340798	-0.722656	-0.089844	-0.324219
1108.0	6.650897	-1.4643	7.309667	-0.655273	0.059537	-0.266481	-0.725098	-0.085693	-0.324219
1109.0	6.093985	-2.393837	6.850484	0.198763	0.050108	-0.187702	-0.724854	-0.092041	-0.324219
1110.0	6.129989	-0.729727	7.915911	0.685419	-0.006957	-0.128464	-0.729248	-0.092041	-0.326416
1111.0	5.993347	-0.865259	8.159625	-0.081339	-0.057739	-0.105986	-0.724854	-0.092041	-0.319824
1112.0	6.275812	-2.321797	6.965861	-0.215678	-0.090916	-0.095759	-0.727051	-0.092041	-0.317627
1113.0	6.208032	-2.317551	7.035578	0.243045	-0.075233	-0.098658	-0.724609	-0.098633	-0.322021
1114.0	6.214195	-1.436221	7.478922	0.240538	-0.107893	-0.09377	-0.729004	-0.094238	-0.319824
1115.0	6.146229	-1.373217	7.475189	0.066817	-0.14447	-0.062651	-0.724609	-0.098633	-0.322021
1116.0	6.277303	-1.343683	7.458052	0.109663	-0.193718	-0.044223	-0.731201	-0.096436	-0.322021
1117.0	6.146862	-1.522126	7.514858	0.043993	-0.224025	-0.015553	-0.722412	-0.096436	-0.319824
1118.0	6.350389	-1.661738	7.347094	-0.018019	-0.268661	-0.007821	-0.731201	-0.094482	-0.309082
1119.0	6.371483	-1.459045	7.384199	0.034173	-0.294381	0.027284	-0.726807	-0.096436	-0.31543
1120.0	6.53668	-0.98948	7.463064	-0.07792	-0.372155	0.09146	-0.735352	-0.098877	-0.306885
1121.0	6.678224	-1.374729	7.470887	-0.367597	-0.415904	0.151848	-0.733398	-0.092285	-0.306885
1122.0	6.77305	-2.114819	7.226804	-0.433706	-0.40575	0.181748	-0.735596	-0.092285	-0.306885
1123.0	6.765531	-2.079077	7.204793	-0.276587	-0.361642	0.184795	-0.731201	-0.094482	-0.30249
1124.0	6.824952	-2.034757	7.293227	-0.332134	-0.315719	0.164549	-0.731445	-0.085938	-0.30249
1125.0	6.747483	-2.313685	7.135634	-0.338539	-0.248818	0.141899	-0.735596	-0.092285	-0.304688
1126.0	6.712624	-2.379869	7.073506	-0.226251	-0.215098	0.105739	-0.740234	-0.085938	-0.296143
1127.0	6.676604	-2.342776	7.074388	-0.190078	-0.177042	0.065199	-0.738281	-0.081787	-0.29834
1128.0	6.649531	-2.413193	7.006805	-0.163912	-0.139994	0.033184	-0.740479	-0.081787	-0.296143
1129.0	6.627044	-2.266378	7.034376	-0.104304	-0.123443	0.012908	-0.738281	-0.081787	-0.291748
1130.0	6.655813	-2.319815	7.056783	-0.12268	-0.104751	-0.020623	-0.744629	-0.083984	-0.293945
1131.0	6.569932	-2.54624	6.980057	-0.126876	-0.081541	-0.069364	-0.744629	-0.083984	-0.293945
1132.0	6.574712	-2.652325	6.880649	-0.075332	-0.058151	-0.130877	-0.740479	-0.081787	-0.296143
1133.0	6.605816	-2.67071	6.973921	-0.069446	-0.022454	-0.192073	-0.742432	-0.086182	-0.289551
1134.0	6.163207	-2.342027	7.433757	-0.000144	-0.048677	-0.257437	-0.740234	-0.088135	-0.296143
1135.0	5.475089	-2.769105	8.005355	-0.243783	-0.075999	-0.366541	-0.73999	-0.090332	-0.289551
1136.0	5.385735	-2.887189	7.907175	-0.143049	-0.378883	-0.465078	-0.742188	-0.088379	-0.289551
1137.0	6.006985	-2.354041	8.014574	0.050534	-0.426732	-0.512662	-0.739746	-0.094727	-0.282959
1138.0	5.762467	-1.948633	8.275532	-0.100043	-0.640626	-0.577511	-0.741943	-0.097168	-0.274414
1139.0	5.576956	-1.878709	8.52018	-0.183681	-0.872717	-0.606513	-0.743652	-0.10791	-0.272217
1140.0	5.524963	-1.607291	8.552568	-0.130156	-1.156203	-0.617183	-0.75	-0.110352	-0.254883
1141.0	5.359093	-1.255126	8.793695	-0.123181	-1.47374	-0.619968	-0.75415	-0.116699	-0.252686
1142.0	5.224195	-1.36745	9.171727	-0.238307	-1.844949	-0.638291	-0.756104	-0.121338	-0.235352
1143.0	5.149714	-1.908137	9.140046	-0.329471	-2.219628	-0.711953	-0.764648	-0.123779	-0.211426
1144.0	4.837813	-1.823429	9.002744	-0.206029	-2.681351	-0.792486	-0.770996	-0.128418	-0.191895
1145.0	4.426748	-1.457366	9.66021	-0.258611	-3.205719	-0.878117	-0.772705	-0.139648	-0.167969
1146.0	3.482368	-2.130671	10.482193	-0.427018	-3.910935	-0.996637	-0.779053	-0.142334	-0.128906
1147.0	2.204291	-3.782926	9.044211	-0.496086	-4.751881	-1.213896	-0.782715	-0.155762	-0.087646
1148.0	2.247562	-5.039162	7.681713	-0.199222	-5.664998	-1.60262	-0.782227	-0.169189	-0.044189
1149.0	3.644107	-4.836132	7.356816	0.292585	-6.54975	-1.998465	-0.779053	-0.19165	0.014404
1150.0	7.483895	-2.798293	7.915619	0.908896	-7.347812	-2.22219	-0.77832	-0.205322	0.075195
1151.0	11.262124	-0.635679	7.744146	0.477175	-7.57985	-2.250607	-0.764404	-0.225342	0.135986
1152.0	16.913509	0.205272	8.351725	-0.467822	-7.986817	-1.981321	-0.75293	-0.237061	0.200928
1153.0	18.938424	0.015105	8.932122	-1.887536	-7.502981	-1.522727	-0.734619	-0.259033	0.248779
1154.0	15.231748	-0.345007	6.100073	-2.779997	-7.185659	-1.296496	-0.712158	-0.270508	0.296631
1155.0	17.306543	0.060542	8.630493	-3.90546	-6.751857	-1.150479	-0.687256	-0.292236	0.329346
1156.0	12.589368	-0.107543	4.711409	-5.078433	-6.512447	-1.3498	-0.662354	-0.318604	0.364014
1157.0	12.69038	-0.928991	7.752769	-6.07979	-6.792292	-1.473529	-0.634766	-0.353027	0.375244
1158.0	17.933852	-5.711301	8.650339	-8.546603	-5.662872	-1.613267	-0.606689	-0.402344	0.377686
1159.0	11.826809	-13.567385	-0.989873	-6.933985	-4.494936	-2.260201	-0.585938	-0.43457	0.384277
1160.0	19.37259	-24.690688	9.054637	-4.307724	-3.61526	-2.171021	-0.56543	-0.460449	0.382324
1161.0	21.982712	-37.468868	5.938094	0.038113	-0.951091	-0.383589	-0.565674	-0.454102	0.395264
1162.0	19.550618	-20.059205	13.989784	5.453048	1.260543	0.876991	-0.579834	-0.424316	0.414551
1163.0	7.637116	-9.619143	11.527254	6.085057	2.6352	1.522367	-0.593994	-0.392334	0.429688
1164.0	6.138857	-3.953718	10.093582	6.479048	3.448797	1.531354	-0.612793	-0.355713	0.433838
1165.0	-0.462277	2.015155	8.041844	7.34737	3.976275	1.129574	-0.635986	-0.319336	0.435791
1166.0	-3.129859	9.643568	10.609306	7.738302	3.774465	0.628087	-0.652344	-0.289307	0.442139
1167.0	2.899613	17.062414	14.675496	2.257974	3.498977	0.47933	-0.672119	-0.287109	0.424561
1168.0	4.736486	6.48572	12.783394	-4.37377	3.961336	0.188349	-0.68457	-0.305908	0.37915
1169.0	8.012606	-3.586129	7.743416	-5.220871	4.628589	0.260627	-0.705566	-0.326904	0.329346
1170.0	7.722214	-10.25747	4.823639	-0.598919	5.556673	0.101623	-0.725586	-0.320068	0.294678
1171.0	7.252169	-2.848206	7.9882	2.448657	6.174361	0.105635	-0.743164	-0.317383	0.262207
1172.0	7.076171	-0.115987	9.011471	0.653334	6.495484	0.173325	-0.760498	-0.319092	0.216553
1173.0	7.312666	-2.507603	6.907923	-1.479784	6.572852	0.53171	-0.775879	-0.322754	0.162354
1174.0	7.691943	-6.328928	4.161845	-1.184564	6.610398	1.000319	-0.795898	-0.313477	0.114502
1175.0	7.895684	-6.326521	4.299167	0.321005	6.481388	1.415547	-0.811523	-0.304443	0.073242
1176.0	8.097128	-4.801038	5.11493	0.222627	6.281285	1.757643	-0.825195	-0.288574	0.025635
1177.0	8.415915	-5.562122	4.458746	0.187632	6.016969	2.080989	-0.83667	-0.275391	-0.009277
1178.0	8.577288	-3.971713	5.165612	0.677064	5.729786	2.341818	-0.859619	-0.251221	-0.050537
1179.0	9.163003	-2.862428	6.388279	0.353255	5.424567	2.452586	-0.873535	-0.231445	-0.0896
1180.0	10.7058	-3.079578	7.100339	0.016933	5.181152	2.427258	-0.890137	-0.196777	-0.11377
1181.0	11.792834	-2.916161	7.951168	-0.03972	5.066411	2.293897	-0.899658	-0.176758	-0.150635
1182.0	12.439061	-2.656727	8.713025	-0.332742	4.991381	2.057641	-0.92041	-0.150635	-0.189941
1183.0	12.648518	-3.330254	8.614052	-0.738556	4.885161	1.797671	-0.93042	-0.117676	-0.231201
1184.0	12.375946	-3.821431	8.418144	-0.833992	4.68214	1.596918	-0.942627	-0.085205	-0.266113
1185.0	11.798026	-3.540554	8.037715	-0.979422	4.324987	1.474011	-0.960938	-0.063232	-0.302979
1186.0	11.069279	-3.72026	7.689893	-1.227753	3.793537	1.402776	-0.981445	-0.039307	-0.327148
1187.0	12.832077	-4.20235	7.70308	-1.333095	3.152169	1.425392	-1.002197	-0.017334	-0.370605
1188.0	16.360278	-3.988429	8.473453	-1.372058	2.717299	1.665166	-1.025391	0.021973	-0.412109
1189.0	21.053224	-4.220634	8.877039	-1.389387	2.664342	2.090575	-1.0354	0.050537	-0.461914
1190.0	20.818332	-4.838419	7.014034	-1.053547	3.012747	2.462216	-1.043701	0.092285	-0.518555
1191.0	18.017648	-4.029187	4.464473	-0.224862	3.164798	2.562427	-1.036377	0.125244	-0.566406
1192.0	15.218921	-2.735153	2.488528	0.47643	2.967616	2.333225	-1.0354	0.15625	-0.631592
1193.0	14.743169	-1.163224	1.438346	1.087989	2.610508	1.984854	-1.025146	0.169922	-0.683594
1194.0	17.511585	0.688747	1.037653	1.338773	2.409936	1.619728	-1.017334	0.189941	-0.738037
1195.0	20.834005	3.06909	-0.19832	1.226518	2.489267	1.338495	-1.000732	0.208008	-0.790039
1196.0	21.755448	5.052082	-3.089359	0.333429	2.594794	1.123163	-0.980225	0.234375	-0.835693
1197.0	20.228249	5.206171	-6.702276	-1.073528	2.316943	0.910048	-0.955322	0.265137	-0.874756
1198.0	18.344278	3.560146	-9.074251	-1.754959	1.641693	0.652147	-0.956543	0.295654	-0.905273
1199.0	17.055908	2.17392	-8.424148	-1.310655	0.849589	0.379381	-0.953125	0.31958	-0.920654
1200.0	16.975545	2.327246	-5.285817	-0.753827	0.238929	0.177006	-0.953857	0.337158	-0.935791
1201.0	16.277304	1.419256	-2.501249	-0.759012	-0.05638	0.036038	-0.957031	0.358643	-0.948975
1202.0	13.922645	0.783281	-1.12334	-0.155311	-0.181073	0.010654	-0.970459	0.371826	-0.959961
1203.0	3.493204	-7.312032	5.943443	-0.761709	-0.154082	-0.094316	-0.98877	0.390869	-0.953369
1204.0	-16.420182	-13.68573	-22.386906	1.961643	-2.258773	-2.141506	-1.035889	0.315674	-0.970459
1205.0	-10.820367	2.42301	28.166886	10.68095	-6.537822	-1.822892	-1.119873	0.237305	-0.93335
1206.0	22.44565	11.292571	11.589927	1.138526	-4.523497	-1.247728	-1.178467	0.234619	-0.911865
1207.0	21.538217	6.611527	9.786572	-0.083494	-4.30871	0.171265	-1.231445	0.257813	-0.881592
1208.0	13.750182	0.62756	12.650813	-1.071375	-3.939163	0.625111	-1.271729	0.282959	-0.844971
1209.0	9.058801	1.864002	7.821745	1.28858	-3.453759	-0.166072	-1.318848	0.267578	-0.829834
1210.0	13.606844	7.499213	11.648997	2.276938	-3.258392	-0.417044	-1.359863	0.258301	-0.799561
1211.0	10.554109	6.523835	12.916555	-1.074432	-2.795767	-0.603145	-1.388184	0.262207	-0.771484
1212.0	9.481981	-0.151467	8.101094	-2.736036	-2.570352	-0.697207	-1.43457	0.280762	-0.739014
1213.0	6.172714	-4.782076	5.689236	-2.059043	-2.396207	-0.710183	-1.458496	0.282471	-0.710938
1214.0	6.568495	-5.690867	6.155617	-0.218471	-2.58528	-0.807744	-1.49707	0.269043	-0.680664
1215.0	23.21809	-6.018097	9.816179	-0.098883	-2.231219	-1.245186	-1.511719	0.255859	-0.665527
1216.0	9.762272	-9.422274	4.750552	-0.769806	-1.072901	-0.909129	-1.531006	0.249023	-0.648193
1217.0	17.584339	-7.055283	7.244618	1.227207	-0.310325	-0.763109	-1.530273	0.225586	-0.658936
1218.0	4.67932	-0.170662	8.459771	3.338064	-0.248565	-0.722187	-1.546631	0.199707	-0.660889
1219.0	8.535885	1.004153	10.302415	0.212466	-0.036106	-0.544227	-1.542236	0.195557	-0.658691
1220.0	7.148105	-2.748134	6.882669	-1.439579	-0.136003	-0.479384	-1.542236	0.195313	-0.656494
1221.0	6.727098	-4.030443	5.989537	0.52024	-0.018349	-0.400188	-1.545898	0.182617	-0.662842
1222.0	6.650064	-0.483539	8.048021	1.52659	-0.042926	-0.30366	-1.552002	0.169678	-0.658691
1223.0	6.357945	0.321759	8.977546	0.28247	-0.077577	-0.230889	-1.552002	0.169678	-0.662842
1224.0	6.404029	-1.861408	7.536873	-0.458269	-0.110992	-0.173469	-1.554199	0.171631	-0.656494
1225.0	6.53518	-2.756434	6.794342	0.21916	-0.123197	-0.16245	-1.551758	0.165283	-0.658447
1226.0	6.393005	-1.624903	7.607566	0.43775	-0.107392	-0.166126	-1.553955	0.163086	-0.6521
1227.0	6.42305	-1.628221	7.435471	0.125188	-0.108714	-0.156024	-1.560303	0.156494	-0.649902
1228.0	6.425792	-2.315186	7.165595	0.088798	-0.08149	-0.168073	-1.560303	0.156738	-0.660645
1229.0	6.812276	-2.148093	7.124408	0.260031	-0.073946	-0.198215	-1.557861	0.152344	-0.65625
1230.0	6.273545	-1.69421	7.436269	0.276107	-0.036217	-0.1857	-1.562012	0.147949	-0.654053
1231.0	6.523603	-1.874614	7.434664	0.073331	-0.024863	-0.186582	-1.566162	0.141357	-0.651855
1232.0	6.757401	-2.196233	7.167627	0.090859	-0.016241	-0.204645	-1.563965	0.143799	-0.65625
1233.0	6.360093	-1.931849	7.249605	0.206115	0.014502	-0.196021	-1.568115	0.137207	-0.651855
1234.0	6.564442	-1.558669	7.43431	0.156692	0.027721	-0.184205	-1.561523	0.133057	-0.65625
1235.0	6.720222	-1.736348	7.287981	0.057028	0.046726	-0.171722	-1.568115	0.132813	-0.65625
1236.0	6.620513	-1.843798	7.26038	0.1138	0.081574	-0.154687	-1.563477	0.130859	-0.658447
1237.0	6.700305	-1.58758	7.282422	0.170669	0.0814	-0.120514	-1.563477	0.126709	-0.664795
1238.0	6.576957	-1.409946	7.435743	0.150628	0.099913	-0.090333	-1.567871	0.126465	-0.660645
1239.0	6.634753	-1.456322	7.447313	0.083352	0.098122	-0.068026	-1.561035	0.122314	-0.664795
1240.0	6.65499	-1.489022	7.398056	0.109968	0.107571	-0.052129	-1.56543	0.120117	-0.666992
1241.0	6.644337	-1.512389	7.399749	0.086741	0.108751	-0.038284	-1.561035	0.122314	-0.671387
1242.0	6.615136	-1.610074	7.334737	0.083058	0.11993	-0.041943	-1.558838	0.118164	-0.669189
1243.0	6.48655	-1.659034	7.342937	0.104622	0.131361	-0.04771	-1.558594	0.11377	-0.669189
1244.0	5.727678	-1.930975	7.262539	0.042814	0.144879	-0.063132	-1.561035	0.118164	-0.675781
1245.0	5.514285	-2.172321	7.620193	-0.012405	0.07	-0.086893	-1.564941	0.111572	-0.675537
1246.0	6.301751	-1.557645	7.425756	0.192096	0.030079	-0.088162	-1.562744	0.111572	-0.673584
1247.0	6.15507	-1.279184	7.497361	0.025171	0.002193	-0.080616	-1.560791	0.11377	-0.671387
1248.0	6.150309	-1.426072	7.5492	-0.009087	0.000312	-0.047397	-1.562988	0.11377	-0.673584
1249.0	6.240824	-0.872061	7.577978	0.036948	-0.141096	-0.00316	-1.562744	0.109619	-0.67334
1250.0	5.984256	-0.692541	7.659482	-0.083777	-0.240344	0.064585	-1.56958	0.118164	-0.671387
1251.0	6.026852	-0.356315	7.720115	-0.187874	-0.400602	0.159387	-1.56958	0.115723	-0.658447
1252.0	6.465019	-0.662032	8.047073	-0.36832	-0.504037	0.241808	-1.576416	0.126465	-0.654053
1253.0	6.737582	-2.19734	7.667897	-0.745525	-0.462737	0.204933	-1.578857	0.132813	-0.645508
1254.0	6.525754	-3.563117	6.814932	-0.489969	-0.336016	0.106804	-1.579102	0.13916	-0.636719
1255.0	6.573343	-2.539469	7.215593	0.120296	-0.253096	0.023419	-1.57666	0.132568	-0.634521
1256.0	6.415585	-1.624133	7.809983	-0.125753	-0.24658	-0.025727	-1.587646	0.134766	-0.632568
1257.0	6.372259	-2.496963	7.285046	-0.314457	-0.276023	-0.088026	-1.583252	0.134766	-0.634521
1258.0	6.009587	-2.584369	7.486745	-0.091494	-0.289743	-0.154851	-1.587646	0.136719	-0.625977
1259.0	4.456634	-1.358889	9.38333	0.094002	-0.480172	-0.188616	-1.587402	0.132324	-0.619385
1260.0	6.315515	-1.012004	8.48142	-0.235808	-0.931679	-0.221293	-1.595947	0.125732	-0.602051
1261.0	5.269814	-2.072491	8.506895	-0.566029	-1.102066	-0.245004	-1.604736	0.131836	-0.584717
1262.0	5.558434	-2.266318	8.40952	-0.24099	-1.327727	-0.274804	-1.615479	0.129395	-0.565186
1263.0	5.373994	-1.823005	8.99281	-0.286904	-1.605652	-0.321906	-1.617432	0.124756	-0.545654
1264.0	5.336184	-2.091858	8.710229	-0.395191	-1.897304	-0.386923	-1.630371	0.12207	-0.510986
1265.0	5.226074	-2.076809	8.862134	-0.300504	-2.1888	-0.465886	-1.638916	0.119629	-0.485107
1266.0	4.891688	-1.757437	8.928233	-0.226187	-2.544619	-0.540524	-1.653809	0.112549	-0.450439
1267.0	4.675301	-1.774469	9.322933	-0.335636	-2.995294	-0.61695	-1.668457	0.098877	-0.402588
1268.0	4.011589	-2.521621	9.205448	-0.464033	-3.524643	-0.757321	-1.685547	0.093994	-0.352783
1269.0	3.100259	-3.66067	8.372046	-0.470286	-4.124103	-1.006081	-1.697998	0.080078	-0.287842
1270.0	3.151543	-4.33179	7.704283	-0.21902	-4.944739	-1.324528	-1.717041	0.070313	-0.211914
1271.0	4.196435	-3.807972	7.732585	0.103679	-5.706606	-1.573283	-1.735352	0.04126	-0.129395
1272.0	6.711391	-2.222047	7.344177	0.36175	-6.370215	-1.705828	-1.747314	0.022705	-0.031738
1273.0	10.499844	-0.365023	7.241618	0.338247	-6.733442	-1.669886	-1.75293	0.001953	0.068115
1274.0	12.413018	0.13888	8.500373	-0.248942	-7.053576	-1.503852	-1.747803	-0.012451	0.174316
1275.0	17.782441	-1.835856	6.434829	-1.436746	-6.870082	-1.224469	-1.731445	-0.033203	0.27417
1276.0	15.497033	-2.524947	6.840677	-1.124467	-6.683355	-1.067725	-1.71167	-0.038574	0.365234
1277.0	15.77475	-0.299145	8.38438	-1.103367	-6.485897	-1.137105	-1.673584	-0.058838	0.443359
1278.0	8.805422	-1.106206	4.819781	-2.244212	-6.078096	-1.102309	-1.639893	-0.081543	0.525879
1279.0	11.286937	-2.460476	6.580794	-3.171782	-6.42791	-1.43514	-1.601807	-0.10791	0.589111
1280.0	6.142376	-2.853203	3.550074	-3.057985	-6.312156	-1.593542	-1.550293	-0.13916	0.676025
1281.0	11.276821	-4.090102	6.809625	-4.256477	-6.794485	-1.659171	-1.498291	-0.184814	0.730469
1282.0	23.275629	-7.931104	3.577606	-5.105169	-5.445477	-1.824173	-1.455322	-0.22583	0.763184
1283.0	28.74384	-18.191992	14.360132	-4.536791	-2.495147	-1.402019	-1.423828	-0.251221	0.733154
1284.0	27.898414	-30.341814	12.378528	-0.988926	1.715826	0.139932	-1.41748	-0.196533	0.663574
1285.0	17.831446	-18.804629	15.81004	3.518993	4.803085	1.041735	-1.411621	-0.12793	0.537354
1286.0	1.118061	-10.455589	8.084908	4.229981	5.998633	1.002955	-1.390625	-0.057617	0.424316
1287.0	-2.208808	-1.262892	5.97849	5.613345	6.107573	0.544519	-1.355957	-0.00415	0.304932
1288.0	-6.767134	5.772198	5.623744	5.999115	5.543324	0.416542	-1.310059	0.04248	0.202881
1289.0	2.177667	13.917932	10.735941	2.114755	4.268535	0.739907	-1.256836	0.069824	0.122803
1290.0	2.118257	6.414928	8.75648	-5.017886	4.641855	1.132765	-1.192383	0.08374	0.055664
1291.0	3.310065	-3.809483	4.628137	-6.697897	4.261052	1.607022	-1.121338	0.104248	0.003662
1292.0	5.67046	-14.372933	0.252135	-1.557124	4.719932	1.44905	-1.050049	0.115479	-0.026611
1293.0	4.663157	-3.875253	5.174694	3.647097	5.208583	1.47545	-0.982422	0.111816	-0.05249
1294.0	5.544062	2.109356	8.163827	2.965672	5.333559	1.236099	-0.940674	0.097168	-0.06543
1295.0	5.11739	4.399469	7.745329	0.849496	5.34472	1.387245	-0.911621	0.080322	-0.076172
1296.0	4.855488	3.133304	6.171074	-0.607633	5.147704	1.551315	-0.897949	0.06543	-0.084717
1297.0	4.553284	1.489242	4.885707	-0.74306	4.849517	1.618916	-0.89502	0.046143	-0.099854
1298.0	5.014981	0.394205	4.700381	-0.62042	4.438023	1.50506	-0.905518	0.033447	-0.110596
1299.0	6.163104	-0.220186	4.694432	-0.475387	3.984367	1.250375	-0.909424	0.016602	-0.143066
1300.0	8.128975	-0.384081	5.139085	-0.256419	3.665226	0.972611	-0.92627	0.001709	-0.164551
1301.0	9.403808	-0.123413	5.784289	-0.192924	3.450495	0.811522	-0.928223	-0.006348	-0.192871
1302.0	9.627797	-0.989599	6.044255	-0.729008	3.255542	0.734744	-0.939209	0.000244	-0.2146
1303.0	9.883002	-2.780633	5.752733	-1.253352	3.024627	0.696517	-0.943848	0.002686	-0.242676
1304.0	10.724388	-3.692986	5.440151	-0.921414	2.876497	0.731398	-0.948486	0.011719	-0.275146
1305.0	10.746831	-2.097309	6.085363	-0.388425	2.716664	0.896099	-0.953125	0.014404	-0.314209
1306.0	10.397216	-1.382643	6.308963	-1.241108	2.439366	1.084713	-0.945313	0.036377	-0.342529
1307.0	9.874476	-3.144697	4.83911	-1.940299	2.058169	1.241269	-0.94165	0.052002	-0.381592
1308.0	10.687624	-3.635271	4.713976	-1.408345	1.651508	1.30204	-0.933838	0.073975	-0.407715
1309.0	13.623291	-3.588226	5.950353	-1.335536	1.278967	1.252586	-0.910645	0.089355	-0.427246
1310.0	27.366527	-8.427063	6.226911	-2.202965	1.52045	0.079272	-0.895752	0.098389	-0.457764
1311.0	10.211113	-0.65513	1.350036	3.796289	2.667832	0.334585	-0.86499	0.090332	-0.479248
