Acquisition frequency: 100 Hz
PacketCounter	Acc_X	Acc_Y	Acc_Z	Gyr_X	Gyr_Y	Gyr_Z	Mag_X	Mag_Y	Mag_Z
1.0	5.985434	1.309891	8.326585	-0.004162	0.016856	-0.017519	-0.376465	0.000244	-0.329346
2.0	5.985055	1.285502	8.321044	-0.005649	0.016997	-0.016924	-0.378662	0.002197	-0.327148
3.0	5.962367	1.291465	8.349041	0.00198	0.017829	-0.018918	-0.374268	0.002197	-0.324951
4.0	5.96062	1.292734	8.350091	0.000371	0.017936	-0.020361	-0.376709	0.004395	-0.333984
5.0	5.98688	1.313839	8.34714	0.003588	0.017722	-0.017473	-0.376465	0.000244	-0.329346
6.0	5.957265	1.295798	8.35201	0.012478	0.015378	-0.019468	-0.374023	-0.00415	-0.331543
7.0	5.979855	1.293948	8.349892	0.018345	0.010332	-0.016626	-0.378662	0.0	-0.324707
8.0	5.959102	1.324836	8.351532	0.021125	0.007023	-0.016712	-0.376465	0.002197	-0.327148
9.0	5.928572	1.330028	8.305973	0.016519	0.008889	-0.019557	-0.376221	-0.001953	-0.329346
10.0	5.977009	1.301839	8.350703	0.016429	0.008863	-0.021086	-0.378662	0.0	-0.331543
11.0	5.956236	1.332308	8.352388	0.010497	0.007947	-0.016122	-0.376465	0.002197	-0.331787
12.0	5.949718	1.33258	8.304186	0.013406	0.006161	-0.016248	-0.378662	0.000244	-0.336182
13.0	5.947672	1.31106	8.330067	0.002816	0.008579	-0.017231	-0.374268	0.002197	-0.32251
14.0	5.943684	1.311425	8.306455	0.001681	0.013277	-0.017271	-0.380859	0.0	-0.324707
15.0	5.994271	1.328064	8.300573	-0.003001	0.012149	-0.016978	-0.376465	0.000244	-0.331543
16.0	5.926926	1.342977	8.357862	-0.006	0.013908	-0.018381	-0.374023	-0.00415	-0.324707
17.0	5.948335	1.316054	8.381596	-0.009291	0.011125	-0.018131	-0.371826	-0.001953	-0.329346
18.0	5.965199	1.310623	8.331377	-0.00748	0.015534	-0.019866	-0.378662	0.002197	-0.329346
19.0	5.963761	1.310867	8.332368	-0.013719	0.013039	-0.017922	-0.376465	0.0	-0.324707
20.0	5.989274	1.307516	8.354838	-0.010631	0.011308	-0.01499	-0.376465	0.002197	-0.333984
21.0	5.94134	1.339088	8.335528	-0.013769	0.014509	-0.021019	-0.374268	0.000244	-0.331543
22.0	5.959948	1.310785	8.335109	-0.015401	0.01015	-0.016228	-0.374268	0.002441	-0.331787
23.0	5.992322	1.332064	8.380554	-0.016844	0.013273	-0.019283	-0.376221	-0.001953	-0.329346
24.0	5.95471	1.309384	8.312691	-0.015401	0.01015	-0.016227	-0.374512	0.006592	-0.327148
25.0	5.957588	1.333208	8.312256	-0.015452	0.01162	-0.019324	-0.378662	0.002197	-0.329346
26.0	5.955089	1.309657	8.338758	-0.019881	0.013532	-0.019116	-0.371826	-0.001953	-0.331543
27.0	5.976026	1.327731	8.287383	-0.013895	0.012987	-0.020975	-0.376221	-0.001953	-0.329346
28.0	5.954996	1.310283	8.365096	-0.013341	0.017606	-0.018038	-0.376221	-0.001953	-0.324707
29.0	5.977347	1.306593	8.36352	-0.004658	0.013733	-0.02151	-0.376709	0.004395	-0.329346
30.0	5.97718	1.330961	8.338808	-0.000316	0.011797	-0.023246	-0.376465	0.000244	-0.329346
31.0	5.974797	1.309258	8.364925	0.005809	0.00981	-0.020479	-0.376465	0.002197	-0.324951
32.0	5.973722	1.311166	8.365394	0.010365	0.009423	-0.020725	-0.376465	0.000244	-0.331543
33.0	5.999541	1.310272	8.387285	0.017795	0.00576	-0.019528	-0.374023	-0.001953	-0.329346
34.0	5.996246	1.312685	8.362899	0.031088	3.4e-05	-0.020147	-0.374023	-0.00415	-0.324707
35.0	5.977412	1.367642	8.338174	0.029458	-0.004327	-0.015358	-0.37207	0.002441	-0.327148
36.0	5.96798	1.34499	8.290397	0.021778	-0.003712	-0.016475	-0.376221	-0.001953	-0.329346
37.0	5.925667	1.357649	8.343678	0.022027	-0.000667	-0.016557	-0.378662	0.002197	-0.324951
38.0	5.963795	1.326288	8.290994	0.015952	-0.000154	-0.016228	-0.380859	0.0	-0.331543
39.0	5.946339	1.357161	8.316433	0.008659	0.002062	-0.012802	-0.380615	-0.002197	-0.326904
40.0	5.96971	1.354435	8.314002	0.004387	0.006987	-0.014207	-0.376221	-0.001953	-0.326904
41.0	5.967736	1.332032	8.340004	-0.006331	0.007855	-0.015161	-0.376709	0.008789	-0.331787
42.0	5.966746	1.332182	8.340688	-0.010552	0.01131	-0.013469	-0.374512	0.004395	-0.333984
43.0	5.969646	1.356248	8.34013	-0.00755	0.009559	-0.012063	-0.376221	-0.001953	-0.331543
44.0	5.965598	1.355308	8.316811	-0.014911	0.016207	-0.016402	-0.376709	0.004395	-0.333984
45.0	5.985235	1.350114	8.291109	-0.016641	0.014784	-0.017808	-0.37207	0.002441	-0.329346
46.0	5.962761	1.354382	8.318996	-0.019577	0.0121	-0.01145	-0.376465	0.0	-0.327148
47.0	5.981458	1.32536	8.318774	-0.021023	0.015219	-0.014505	-0.374023	-0.001953	-0.331543
48.0	5.963978	1.376704	8.31994	-0.019627	0.013569	-0.014546	-0.372314	0.004395	-0.327148
49.0	5.95479	1.327722	8.323592	-0.022751	0.013796	-0.015911	-0.378418	-0.002197	-0.324707
50.0	5.957243	1.350834	8.323525	-0.020813	0.016767	-0.013015	-0.376465	0.002197	-0.327148
51.0	5.979656	1.345579	8.322232	-0.027011	0.01575	-0.012651	-0.378662	0.002197	-0.327148
52.0	5.977888	1.344173	8.323729	-0.028297	0.02189	-0.017312	-0.374268	0.000244	-0.329346
53.0	5.951941	1.346842	8.327964	-0.030025	0.020468	-0.018719	-0.376465	0.0	-0.327148
54.0	5.970044	1.317635	8.328195	-0.02395	0.019963	-0.019042	-0.376221	-0.00415	-0.329346
55.0	5.968008	1.316682	8.329805	-0.025137	0.023159	-0.01751	-0.374268	0.002197	-0.327148
56.0	5.995207	1.313481	8.37744	-0.018939	0.024178	-0.01787	-0.378418	-0.00415	-0.329346
57.0	5.963705	1.315705	8.333041	-0.011589	0.020504	-0.018195	-0.378418	-0.001953	-0.329346
58.0	5.955358	1.291317	8.311181	-0.004446	0.015283	-0.02001	-0.378662	0.0	-0.329346
59.0	5.969832	1.342753	8.382381	0.000159	0.013433	-0.017156	-0.378662	0.004395	-0.329346
60.0	5.95923	1.31835	8.335823	0.002905	0.01161	-0.020334	-0.37207	0.000244	-0.329346
61.0	5.985778	1.339711	8.332774	0.001763	0.013332	-0.015707	-0.380615	-0.004395	-0.32251
62.0	5.935469	1.325901	8.363973	0.01067	0.011035	-0.017676	-0.376465	0.002197	-0.329346
63.0	5.955631	1.32296	8.337665	0.009115	0.009661	-0.01603	-0.378662	0.002197	-0.329346
64.0	5.955838	1.347947	8.312603	0.008994	0.008138	-0.015991	-0.374268	0.002441	-0.331787
65.0	5.929707	1.330069	8.341106	0.004848	0.011608	-0.012772	-0.376221	-0.001953	-0.338379
66.0	5.931282	1.331887	8.365992	-0.001603	0.010508	-0.017001	-0.374268	0.000244	-0.331543
67.0	5.948781	1.326968	8.315617	-0.002783	0.010733	-0.010808	-0.376221	-0.001953	-0.333984
68.0	5.945045	1.326564	8.29205	-0.009488	0.009557	-0.019622	-0.374023	-0.00415	-0.326904
69.0	5.973254	1.324345	8.338814	-0.008739	0.012752	-0.010528	-0.376709	0.004395	-0.324951
70.0	5.972001	1.324217	8.339732	-0.013634	0.013025	-0.016403	-0.378662	0.002197	-0.331787
71.0	5.945575	1.30465	8.368687	-0.015153	0.013148	-0.016324	-0.369873	0.002441	-0.331787
72.0	5.945427	1.327776	8.344179	-0.012115	0.012901	-0.016482	-0.374268	0.000244	-0.331543
73.0	5.962651	1.322131	8.294169	-0.01672	0.014745	-0.019339	-0.374268	0.002441	-0.329346
74.0	5.966581	1.32352	8.343721	-0.015321	0.013098	-0.01938	-0.378662	0.0	-0.327148
75.0	5.938545	1.326337	8.323031	-0.018071	0.014917	-0.016203	-0.376465	0.000244	-0.333984
76.0	5.940873	1.349593	8.323038	-0.025751	0.015508	-0.017337	-0.374023	-0.001953	-0.331543
77.0	5.959521	1.320739	8.322928	-0.019674	0.015015	-0.017651	-0.376709	0.004395	-0.329346
78.0	5.957883	1.319945	8.324227	-0.025595	0.018529	-0.018939	-0.376465	0.000244	-0.331543
79.0	5.926943	1.321257	8.279574	-0.027353	0.015605	-0.018786	-0.372314	0.004639	-0.331787
80.0	5.933343	1.32236	8.353636	-0.027353	0.015605	-0.018786	-0.37207	0.002441	-0.329346
81.0	5.956966	1.340434	8.327015	-0.03203	0.014449	-0.018514	-0.374268	0.000244	-0.331543
82.0	5.954495	1.31557	8.353607	-0.030748	0.01128	-0.018519	-0.374268	0.002441	-0.329346
83.0	5.956964	1.337968	8.353676	-0.034985	0.014715	-0.016828	-0.376709	0.004395	-0.32251
84.0	5.945587	1.287271	8.332797	-0.03082	0.00828	-0.015391	-0.374268	0.000244	-0.329346
85.0	5.972396	1.306079	8.330083	-0.026226	0.009414	-0.017188	-0.37207	0.002441	-0.331787
86.0	5.953811	1.333358	8.35666	-0.030701	0.009801	-0.015425	-0.374023	-0.001953	-0.331543
87.0	5.970383	1.303307	8.331959	-0.024624	0.009315	-0.015737	-0.378662	0.004395	-0.329346
88.0	5.945501	1.30625	8.335233	-0.020184	0.007428	-0.015936	-0.37207	0.000244	-0.331543
89.0	5.968662	1.301613	8.333457	-0.020102	0.007449	-0.014407	-0.374268	0.000244	-0.331543
90.0	5.965156	1.300264	8.309931	-0.018629	0.008808	-0.017576	-0.376709	0.004395	-0.329346
91.0	5.966772	1.300437	8.334994	-0.016827	0.010253	-0.014631	-0.374512	0.004395	-0.327148
92.0	5.98698	1.29576	8.309106	-0.009076	0.012673	-0.016616	-0.376465	0.002197	-0.333984
93.0	5.967963	1.324983	8.335674	-0.002927	0.015194	-0.020051	-0.376709	0.004395	-0.327148
94.0	5.935103	1.281302	8.341187	-0.005956	0.012453	-0.015243	-0.372314	0.004639	-0.333984
95.0	5.934869	1.305185	8.316748	-0.005802	0.015477	-0.016839	-0.376465	0.000244	-0.333984
96.0	5.966424	1.327279	8.362646	-0.005955	0.012452	-0.015243	-0.372314	0.006592	-0.331787
97.0	5.982689	1.299179	8.337903	-0.005884	0.015456	-0.018366	-0.374512	0.006592	-0.322754
98.0	5.929529	1.283105	8.344873	-0.008877	0.014215	-0.015122	-0.37207	0.000244	-0.327148
99.0	5.955923	1.303822	8.342221	-0.004598	0.01229	-0.018376	-0.369873	0.000244	-0.331543
100.0	5.977422	1.276901	8.366021	-0.013598	0.014531	-0.017947	-0.369873	-0.001953	-0.327148
101.0	5.950573	1.303585	8.31986	-0.007358	0.014095	-0.015198	-0.378662	0.004395	-0.333984
102.0	5.951947	1.304483	8.344955	-0.010909	0.009722	-0.018001	-0.371826	-0.001953	-0.329346
103.0	5.95712	1.329359	8.368945	-0.012312	0.011365	-0.017957	-0.378662	0.004395	-0.331787
104.0	5.947143	1.303846	8.322271	-0.013867	0.009981	-0.016319	-0.378662	0.004395	-0.329346
105.0	5.972657	1.300576	8.344875	-0.013948	0.00996	-0.017847	-0.371826	-0.001953	-0.329346
106.0	5.969101	1.299836	8.321324	-0.012463	0.008339	-0.016362	-0.374512	0.004395	-0.333984
107.0	5.944248	1.303529	8.324389	-0.01418	0.006914	-0.01778	-0.37207	0.002441	-0.329346
108.0	5.945885	1.303962	8.349357	-0.015387	0.010099	-0.016241	-0.37207	0.002441	-0.327148
109.0	5.942393	1.302982	8.325799	-0.015618	0.007053	-0.016176	-0.376709	0.004395	-0.329346
110.0	5.969076	1.322872	8.323119	-0.018311	0.011859	-0.01612	-0.374268	0.002441	-0.329346
111.0	5.939146	1.278724	8.352738	-0.013948	0.00996	-0.017844	-0.369873	0.002441	-0.327148
112.0	5.965706	1.298936	8.350101	-0.013752	0.011504	-0.016348	-0.376465	0.000244	-0.333984
113.0	5.986035	1.294407	8.324223	-0.013947	0.00996	-0.017844	-0.372314	0.004639	-0.331787
114.0	5.963419	1.298692	8.351772	-0.012037	0.012929	-0.014928	-0.374268	0.000244	-0.324707
115.0	5.935581	1.301842	8.330835	-0.010677	0.012771	-0.01806	-0.376709	0.004395	-0.331787
116.0	5.960648	1.29906	8.353693	-0.007293	0.017106	-0.018307	-0.374268	0.002441	-0.331787
117.0	5.979263	1.2718	8.353432	-0.005739	0.018491	-0.019942	-0.376709	0.004395	-0.331787
118.0	5.964497	1.348991	8.353877	0.003265	0.016265	-0.020364	-0.37207	0.002441	-0.336182
119.0	5.929109	1.305115	8.33493	0.00027	0.015015	-0.017125	-0.372314	0.008789	-0.324951
120.0	5.933793	1.330946	8.359086	0.000191	0.014995	-0.018653	-0.376465	0.0	-0.327148
121.0	5.926213	1.307227	8.336659	0.000235	0.013511	-0.015565	-0.374023	-0.001953	-0.331543
122.0	5.948926	1.304334	8.335056	-0.004596	0.012298	-0.018364	-0.378418	-0.00415	-0.331543
123.0	5.947738	1.305061	8.33579	-0.003111	0.010678	-0.016879	-0.378418	-0.002197	-0.326904
124.0	5.950289	1.329876	8.335446	-0.006423	0.009348	-0.019753	-0.374268	0.002197	-0.324951
125.0	5.966038	1.278482	8.335697	-0.006265	0.009387	-0.016697	-0.37207	0.000244	-0.329346
126.0	5.945656	1.330169	8.312538	-0.010868	0.01122	-0.01956	-0.376465	0.002441	-0.336182
127.0	5.973565	1.327937	8.359474	-0.010903	0.009716	-0.018	-0.374268	0.002441	-0.331787
128.0	5.963842	1.302866	8.312654	-0.00775	0.011007	-0.018181	-0.372314	0.004639	-0.331787
129.0	5.967708	1.304399	8.36198	-0.009113	0.011162	-0.01505	-0.376221	-0.001953	-0.329346
130.0	5.964079	1.304088	8.33846	-0.006151	0.010911	-0.016727	-0.37207	0.000244	-0.331543
131.0	5.991901	1.302381	8.385376	-0.001557	0.012069	-0.018509	-0.376465	0.002197	-0.333984
132.0	5.956907	1.258423	8.366176	0.004635	0.013131	-0.018838	-0.376465	0.000244	-0.329346
133.0	5.956857	1.284	8.341414	0.019766	0.008971	-0.016464	-0.374512	0.006592	-0.322754
134.0	5.981004	1.306508	8.314056	0.019688	0.008951	-0.017992	-0.376465	0.002197	-0.327148
135.0	5.983753	1.333493	8.313207	0.024101	0.00558	-0.016624	-0.372314	0.006592	-0.324951
136.0	5.940027	1.345035	8.366483	0.020793	0.004246	-0.0195	-0.376221	-0.001953	-0.326904
137.0	5.954914	1.318772	8.316545	0.020949	0.004286	-0.016443	-0.376465	0.000244	-0.329346
138.0	5.980855	1.318801	8.33839	0.026951	0.003807	-0.018267	-0.374512	0.006592	-0.331787
139.0	5.92982	1.328636	8.318679	0.023799	0.002512	-0.018087	-0.376709	0.006592	-0.327148
140.0	5.932875	1.35561	8.317558	0.021026	0.004306	-0.014915	-0.378418	-0.00415	-0.331543
141.0	5.952711	1.330109	8.316317	0.013616	0.006421	-0.01305	-0.380859	0.0	-0.336182
142.0	5.948209	1.307637	8.317763	0.004597	0.011613	-0.017287	-0.376221	-0.001953	-0.329346
143.0	5.950678	1.3328	8.317341	-0.003149	0.009157	-0.015326	-0.376221	-0.001953	-0.329346
144.0	5.949636	1.333259	8.318013	-0.007598	0.011022	-0.015137	-0.37207	0.000244	-0.331543
145.0	5.948445	1.333403	8.318841	-0.010527	0.012773	-0.015022	-0.378418	-0.001953	-0.331543
146.0	5.946162	1.309924	8.345013	-0.012235	0.011342	-0.016444	-0.371826	-0.001953	-0.331543
147.0	5.944933	1.309648	8.345932	-0.016607	0.013227	-0.014728	-0.376221	-0.00415	-0.331543
148.0	5.965186	1.305056	8.320306	-0.015319	0.013051	-0.019385	-0.378418	-0.001953	-0.331543
149.0	5.945695	1.333051	8.347005	-0.017829	0.016407	-0.01319	-0.376465	0.000244	-0.333984
150.0	5.94532	1.355773	8.322869	-0.021244	0.013545	-0.016036	-0.37207	0.002441	-0.336182
151.0	5.964551	1.32715	8.322602	-0.022875	0.012134	-0.015931	-0.376221	-0.001953	-0.331543
152.0	5.93824	1.306144	8.351244	-0.024241	0.012287	-0.012802	-0.374512	0.004395	-0.331787
153.0	5.94054	1.328931	8.35133	-0.027358	0.012492	-0.014184	-0.374512	0.004395	-0.329346
154.0	5.960889	1.323182	8.325857	-0.030475	0.012697	-0.015565	-0.376709	0.006592	-0.331787
155.0	5.933016	1.324412	8.305168	-0.033296	0.015969	-0.01548	-0.378662	0.0	-0.327148
156.0	5.936532	1.323647	8.355019	-0.036665	0.011623	-0.015243	-0.370117	0.004639	-0.331787
157.0	5.952259	1.269723	8.355872	-0.036598	0.014631	-0.018359	-0.376709	0.004395	-0.324951
158.0	5.976039	1.287726	8.329576	-0.036817	0.011584	-0.018298	-0.374268	0.000244	-0.331543
159.0	5.953219	1.289904	8.35734	-0.036817	0.011583	-0.018298	-0.372314	0.006592	-0.331787
160.0	5.976203	1.284437	8.356078	-0.033919	0.008331	-0.016856	-0.376465	0.002197	-0.327148
161.0	5.951247	1.286336	8.359295	-0.030955	0.008089	-0.018528	-0.374512	0.008789	-0.331787
162.0	5.971914	1.280831	8.333596	-0.027729	0.009408	-0.017174	-0.371826	-0.001953	-0.331543
163.0	5.949398	1.28368	8.361019	-0.028023	0.006342	-0.018644	-0.37207	0.002441	-0.333984
164.0	5.946219	1.282131	8.337429	-0.023538	0.005992	-0.020389	-0.378906	0.006592	-0.327148
165.0	5.951299	1.306025	8.361516	-0.021682	0.007456	-0.015905	-0.372314	0.006592	-0.32959
166.0	5.944505	1.280529	8.338897	-0.02332	0.009039	-0.020444	-0.374512	0.004395	-0.331787
167.0	5.949427	1.30451	8.363085	-0.021833	0.007421	-0.018961	-0.378662	0.004395	-0.329346
168.0	5.969231	1.276267	8.362311	-0.0189	0.005677	-0.019077	-0.374512	0.004395	-0.331787
169.0	5.948948	1.327115	8.339166	-0.0189	0.005676	-0.019077	-0.378662	0.004395	-0.32251
170.0	5.965351	1.275016	8.339186	-0.014156	0.006886	-0.017793	-0.376709	0.006592	-0.331787
171.0	5.994421	1.295811	8.360959	-0.020237	0.007326	-0.017504	-0.372314	0.006592	-0.327148
172.0	5.964755	1.297782	8.315339	-0.015601	0.007013	-0.016192	-0.374268	0.000244	-0.329346
173.0	5.960415	1.273434	8.316875	-0.012345	0.00984	-0.01639	-0.374268	0.002441	-0.331787
174.0	5.987029	1.293991	8.314366	-0.015858	0.005456	-0.019221	-0.378418	-0.002197	-0.326904
175.0	5.965664	1.321475	8.316367	-0.012485	0.006809	-0.014808	-0.378662	0.004395	-0.333984
176.0	5.96032	1.273497	8.343015	-0.013866	0.009949	-0.016317	-0.37207	0.002441	-0.329346
177.0	5.947985	1.349895	8.36774	-0.011039	0.006684	-0.016408	-0.374268	0.000244	-0.324707
178.0	5.995172	1.217326	8.292699	-0.009593	0.006559	-0.018007	-0.376221	-0.00415	-0.329346
179.0	5.985183	1.294247	8.341741	-0.016982	0.01015	-0.0177	-0.380859	0.0	-0.331543
180.0	5.93846	1.301701	8.371313	-0.007966	0.007974	-0.018105	-0.376221	-0.001953	-0.331543
181.0	5.980712	1.294193	8.31888	-0.009241	0.012638	-0.019638	-0.374512	0.006592	-0.32959
182.0	5.979657	1.294512	8.319589	-0.011187	0.006652	-0.019463	-0.374512	0.008789	-0.32959
183.0	5.959294	1.299156	8.371179	-0.010688	0.012762	-0.018038	-0.378662	0.002197	-0.327148
184.0	5.977251	1.294983	8.321244	-0.009061	0.014177	-0.018135	-0.376709	0.004395	-0.327148
185.0	5.974588	1.271918	8.347445	-0.002555	0.01984	-0.018523	-0.376465	0.002197	-0.324951
186.0	5.97154	1.249229	8.373861	-0.002491	0.022857	-0.021629	-0.37207	0.000244	-0.331543
187.0	5.979568	1.323183	8.372681	0.008195	0.02061	-0.019046	-0.376465	0.002197	-0.333984
188.0	5.99037	1.225902	8.399162	0.017487	0.024505	-0.022603	-0.374268	0.000244	-0.331543
189.0	5.950089	1.308747	8.402271	0.034182	0.021816	-0.021827	-0.376709	0.004395	-0.32251
190.0	5.944727	1.335424	8.329122	0.035365	0.012629	-0.015631	-0.376709	0.004395	-0.329346
191.0	5.964388	1.312071	8.327794	0.04258	0.007506	-0.017432	-0.378662	0.004395	-0.329346
192.0	5.960355	1.292253	8.328449	0.036109	0.003346	-0.018598	-0.378662	0.004395	-0.32251
193.0	5.962194	1.296887	8.352464	0.037777	0.003272	-0.015612	-0.37207	0.000244	-0.329346
194.0	5.985912	1.297667	8.349828	0.039015	0.0001	-0.017156	-0.371826	-0.001953	-0.324707
195.0	5.965727	1.353407	8.325624	0.04215	0.004405	-0.02196	-0.376221	-0.001953	-0.326904
196.0	5.953826	1.308313	8.278503	0.036256	0.003378	-0.015541	-0.376221	-0.001953	-0.326904
197.0	5.942999	1.365387	8.351551	0.026777	0.000933	-0.01812	-0.374512	0.006592	-0.331787
198.0	5.964184	1.364729	8.32488	0.028861	0.006958	-0.015247	-0.376465	0.0	-0.327148
199.0	5.960111	1.343515	8.325843	0.019559	0.006053	-0.016326	-0.374512	0.006592	-0.327148
200.0	5.954604	1.344936	8.277439	0.019767	0.0091	-0.016383	-0.376465	0.000244	-0.331543
201.0	5.980004	1.344486	8.299855	0.01209	0.009612	-0.017562	-0.369873	0.000244	-0.333984
202.0	5.981245	1.346996	8.324622	0.010819	0.011279	-0.014466	-0.378662	0.0	-0.329346
203.0	5.934292	1.356201	8.353851	0.013933	0.011086	-0.013077	-0.376465	0.002197	-0.329346
204.0	5.954708	1.353739	8.328052	0.001932	0.016465	-0.015663	-0.374268	0.000244	-0.324707
205.0	5.947652	1.33017	8.305513	0.004767	0.013206	-0.015744	-0.374268	0.000244	-0.327148
206.0	5.930152	1.359866	8.356194	-0.004358	0.013839	-0.015328	-0.374268	0.000244	-0.331543
207.0	5.921733	1.358464	8.284298	-0.007194	0.017097	-0.015248	-0.376709	0.004395	-0.331787
208.0	5.919176	1.334937	8.31063	-0.01338	0.015994	-0.014943	-0.374268	0.000244	-0.331543
209.0	5.944092	1.331958	8.333814	-0.013483	0.01447	-0.014914	-0.376709	0.004395	-0.324951
210.0	5.964461	1.327513	8.308416	-0.019566	0.01489	-0.014639	-0.376465	0.000244	-0.331543
211.0	5.959752	1.302691	8.310452	-0.018117	0.014766	-0.016235	-0.37207	0.000244	-0.327148
212.0	5.961519	1.326335	8.310716	-0.018015	0.01629	-0.016262	-0.374268	0.000244	-0.329346
213.0	5.966918	1.327428	8.384763	-0.021261	0.013451	-0.016069	-0.378662	0.002197	-0.324951
214.0	5.958782	1.324937	8.312902	-0.021507	0.011891	-0.019096	-0.37207	0.000244	-0.327148
215.0	5.959737	1.324781	8.338267	-0.024518	0.013605	-0.020514	-0.376465	0.002441	-0.336182
216.0	5.935294	1.350666	8.316386	-0.027519	0.012325	-0.017295	-0.37207	0.000244	-0.333984
217.0	5.930632	1.324948	8.318509	-0.034991	0.015874	-0.018535	-0.376221	-0.001953	-0.329346
218.0	5.928968	1.322964	8.320011	-0.041116	0.017778	-0.021344	-0.374023	-0.00415	-0.331543
219.0	5.954412	1.341527	8.318712	-0.043883	0.021049	-0.019733	-0.369873	0.000244	-0.331543
220.0	5.95236	1.338637	8.320646	-0.054601	0.021756	-0.020784	-0.376465	0.002197	-0.329346
221.0	5.973534	1.30828	8.345543	-0.054662	0.01874	-0.017676	-0.381104	0.006592	-0.32959
222.0	5.947655	1.308255	8.349495	-0.050099	0.01843	-0.017878	-0.374268	0.000244	-0.329346
223.0	5.970259	1.302055	8.348859	-0.044348	0.011938	-0.01652	-0.37207	0.000244	-0.331543
224.0	5.950346	1.327359	8.37586	-0.042726	0.013359	-0.016611	-0.374268	0.000244	-0.331543
225.0	5.965437	1.296443	8.3272	-0.039613	0.013168	-0.015218	-0.374023	-0.00415	-0.331543
226.0	5.969582	1.319058	8.351992	-0.033669	0.012728	-0.018543	-0.37207	0.002441	-0.327148
227.0	5.970651	1.317719	8.377414	-0.03373	0.009709	-0.015439	-0.374268	0.002441	-0.329346
228.0	5.94003	1.294646	8.357041	-0.030727	0.011	-0.018652	-0.374268	0.000244	-0.327148
229.0	5.96714	1.337873	8.330163	-0.030727	0.011	-0.018652	-0.376709	0.006592	-0.32959
230.0	5.937797	1.29194	8.359046	-0.024673	0.009082	-0.01737	-0.372314	0.006592	-0.324951
231.0	5.960984	1.287728	8.357704	-0.023252	0.007456	-0.017414	-0.374268	0.002197	-0.324951
232.0	5.960967	1.31064	8.333509	-0.023122	0.01049	-0.018986	-0.376709	0.004395	-0.333984
233.0	5.954462	1.285247	8.310827	-0.021531	0.010402	-0.017526	-0.376709	0.006592	-0.327148
234.0	5.933641	1.288595	8.362513	-0.019841	0.011838	-0.016087	-0.37207	0.002441	-0.329346
235.0	5.954333	1.284534	8.336987	-0.015416	0.011508	-0.019343	-0.374512	0.006592	-0.327148
236.0	5.953284	1.284328	8.337768	-0.013886	0.008398	-0.014783	-0.378662	0.0	-0.329346
237.0	5.97644	1.281081	8.33632	-0.009292	0.009607	-0.016533	-0.378662	0.004395	-0.327148
238.0	5.951289	1.284392	8.339182	-0.013994	0.009883	-0.019387	-0.378662	0.002197	-0.331787
239.0	5.944946	1.259922	8.316245	-0.00946	0.00807	-0.018038	-0.376221	-0.001953	-0.326904
240.0	5.949396	1.284812	8.340468	-0.00946	0.00807	-0.018038	-0.37207	0.002441	-0.331787
241.0	5.950698	1.285695	8.365344	-0.004897	0.007769	-0.018238	-0.378662	0.004395	-0.324951
242.0	5.969343	1.282326	8.315269	-0.006122	0.012441	-0.018236	-0.378662	0.004395	-0.331787
243.0	5.970192	1.283353	8.340447	-0.006092	0.013953	-0.019784	-0.374512	0.006592	-0.331787
244.0	5.970981	1.28458	8.365633	-0.00146	0.013666	-0.018456	-0.374512	0.008789	-0.327148
245.0	5.968159	1.308954	8.31731	-0.002755	0.018325	-0.019981	-0.372314	0.006592	-0.32959
246.0	5.963457	1.285787	8.318957	6.2e-05	0.013566	-0.018521	-0.376465	0.000244	-0.329346
247.0	5.969479	1.311818	8.367786	-0.002951	0.015276	-0.019938	-0.374512	0.004639	-0.336182
248.0	5.962653	1.288156	8.345098	-0.002951	0.015276	-0.019938	-0.372314	0.006592	-0.331787
249.0	5.981935	1.261684	8.344772	-0.00418	0.019947	-0.019935	-0.374268	0.002197	-0.324951
250.0	5.961319	1.290496	8.371611	0.001779	0.016516	-0.018628	-0.374268	0.000244	-0.324707
251.0	5.962643	1.316165	8.371976	0.003291	0.019428	-0.023318	-0.36792	0.006836	-0.327148
252.0	5.953441	1.292702	8.325057	0.001644	0.01649	-0.021683	-0.376709	0.006592	-0.333984
253.0	5.956772	1.318759	8.349838	0.002031	0.022587	-0.021767	-0.37207	0.002441	-0.329346
254.0	5.952746	1.319805	8.326635	0.004889	0.016331	-0.01723	-0.372314	0.004639	-0.333984
255.0	5.931389	1.325369	8.378163	0.009357	0.014513	-0.017403	-0.37207	0.000244	-0.331543
256.0	5.922703	1.302061	8.33088	0.006054	0.011648	-0.018759	-0.374512	0.008789	-0.32959
257.0	5.95076	1.325247	8.353097	0.007672	0.013074	-0.018844	-0.374023	-0.001953	-0.333984
258.0	5.942138	1.301708	8.305824	0.001489	0.01194	-0.018564	-0.374023	-0.001953	-0.329346
259.0	5.967229	1.300124	8.328742	-6.1e-05	0.010527	-0.016951	-0.369873	0.000244	-0.333984
260.0	5.920845	1.331515	8.332875	-0.003142	0.01222	-0.019898	-0.37207	0.000244	-0.333984
261.0	5.940717	1.304788	8.332258	-0.007602	0.011026	-0.015101	-0.374512	0.004395	-0.329346
262.0	5.939704	1.305236	8.33291	-0.006472	0.007842	-0.019705	-0.376465	0.0	-0.327148
263.0	5.96505	1.302901	8.355768	-0.010903	0.008159	-0.016457	-0.372314	0.006836	-0.336426
264.0	5.942988	1.330256	8.357833	-0.012396	0.009767	-0.017942	-0.376709	0.006592	-0.331787
265.0	5.939022	1.306062	8.359154	-0.012586	0.006718	-0.0179	-0.374268	0.002441	-0.329346
266.0	5.958002	1.302071	8.30915	-0.015439	0.00996	-0.017813	-0.378662	0.004395	-0.331787
267.0	5.93703	1.305784	8.360613	-0.013918	0.009863	-0.017877	-0.372314	0.004639	-0.331787
268.0	5.958191	1.302203	8.334885	-0.014202	0.00529	-0.017815	-0.372314	0.004639	-0.331787
269.0	5.931213	1.304522	8.313189	-0.018606	0.007115	-0.016116	-0.374268	0.000244	-0.336182
270.0	5.930389	1.303951	8.313866	-0.02026	0.007187	-0.019106	-0.37207	0.002441	-0.329346
271.0	5.954951	1.276797	8.361755	-0.020222	0.005687	-0.016031	-0.374512	0.006592	-0.32959
272.0	5.955104	1.299886	8.337453	-0.021715	0.007294	-0.017514	-0.376709	0.004395	-0.331787
273.0	5.934397	1.302796	8.388816	-0.023265	0.005877	-0.015903	-0.376221	-0.001953	-0.331543
274.0	5.953828	1.297933	8.338668	-0.025069	0.0014	-0.01578	-0.372314	0.004395	-0.327148
275.0	5.980396	1.318352	8.336539	-0.017151	0.007009	-0.017704	-0.370117	0.004639	-0.327148
276.0	5.930451	1.299919	8.366194	-0.023331	0.005865	-0.01743	-0.378662	0.0	-0.32251
277.0	5.972888	1.268524	8.33907	-0.018607	0.007115	-0.016112	-0.374268	0.000244	-0.333984
278.0	5.976026	1.316137	8.314145	-0.017244	0.005485	-0.017684	-0.371826	-0.001953	-0.329346
279.0	5.929025	1.322286	8.343149	-0.014014	0.008344	-0.017849	-0.380859	0.004395	-0.329346
280.0	5.952295	1.319089	8.341768	-0.015629	0.006914	-0.017767	-0.374512	0.006592	-0.336426
281.0	5.974741	1.291943	8.36527	-0.015629	0.006914	-0.017766	-0.372314	0.006592	-0.32959
282.0	5.945624	1.294101	8.319255	-0.014107	0.006819	-0.01783	-0.374268	0.002441	-0.333984
283.0	5.96897	1.290985	8.317816	-0.014107	0.006819	-0.01783	-0.370117	0.006836	-0.331787
284.0	5.948203	1.294553	8.369064	-0.01252	0.006736	-0.016366	-0.374023	-0.006348	-0.324707
285.0	5.969563	1.291046	8.343247	-0.014069	0.005315	-0.014757	-0.376465	0.002197	-0.329346
286.0	5.947576	1.318043	8.345298	-0.015601	0.008427	-0.019311	-0.378662	0.002197	-0.329346
287.0	5.96282	1.266172	8.320774	-0.012428	0.00826	-0.016383	-0.380615	-0.002197	-0.331543
288.0	5.966873	1.290774	8.345213	-0.010879	0.009681	-0.017991	-0.374268	0.002441	-0.333984
289.0	5.965893	1.29087	8.345899	-0.012493	0.00825	-0.01791	-0.376709	0.004395	-0.331787
290.0	5.987944	1.311575	8.295302	-0.009319	0.008083	-0.014982	-0.376465	0.002197	-0.331787
291.0	5.939896	1.294049	8.349201	-0.010879	0.00968	-0.017991	-0.376709	0.006592	-0.322754
292.0	5.941718	1.318445	8.349407	-0.010787	0.011205	-0.018008	-0.376465	0.002197	-0.331787
293.0	5.959711	1.291118	8.324432	-0.010787	0.011205	-0.018008	-0.374512	0.006592	-0.32959
294.0	5.960483	1.291496	8.349667	-0.012061	0.014355	-0.016452	-0.374268	0.002441	-0.331787
295.0	5.979118	1.287984	8.30001	-0.010539	0.014263	-0.016514	-0.374268	0.002197	-0.327148
296.0	5.955636	1.291428	8.3273	-0.007431	0.014087	-0.015112	-0.37207	0.002441	-0.327148
297.0	5.976289	1.288733	8.301931	-0.004489	0.015399	-0.019836	-0.37207	0.002441	-0.327148
298.0	5.976421	1.290172	8.327456	0.00208	0.024168	-0.021715	-0.372314	0.004639	-0.331787
299.0	5.950169	1.294454	8.330738	0.00035	0.019695	-0.020074	-0.376709	0.006592	-0.32959
300.0	5.945382	1.271333	8.332457	-0.001108	0.019796	-0.018485	-0.374268	0.000244	-0.329346
301.0	5.972565	1.294301	8.355409	0.004852	0.019411	-0.021787	-0.37207	0.002441	-0.324951
302.0	5.963598	1.271456	8.308442	0.009472	0.022166	-0.025061	-0.376465	0.000244	-0.336182
303.0	5.946303	1.30156	8.384021	0.008113	0.020771	-0.018873	-0.374512	0.004395	-0.327148
304.0	5.942365	1.303225	8.360751	0.011004	0.019055	-0.020506	-0.376465	0.002197	-0.333984
305.0	5.96479	1.302387	8.359706	0.009302	0.016097	-0.02041	-0.37207	0.002441	-0.329346
306.0	5.937209	1.307084	8.338009	0.012077	0.011341	-0.020481	-0.376709	0.004395	-0.333984
307.0	5.960159	1.306176	8.336611	0.007574	0.011623	-0.01877	-0.374268	0.002441	-0.333984
308.0	5.936811	1.31107	8.36347	0.009284	0.011562	-0.014249	-0.378418	-0.002197	-0.326904
309.0	5.957654	1.309535	8.337875	0.006168	0.014752	-0.020271	-0.374268	0.000244	-0.327148
310.0	5.929415	1.289901	8.340977	0.007396	0.008574	-0.018735	-0.376465	0.000244	-0.336182
311.0	5.955414	1.313021	8.338926	0.009069	0.010018	-0.017286	-0.376465	0.002197	-0.329346
312.0	5.97941	1.335693	8.312572	0.004352	0.008754	-0.018613	-0.37207	0.000244	-0.331543
313.0	5.929246	1.318858	8.341821	0.001308	0.008933	-0.018492	-0.376465	0.0	-0.327148
314.0	5.953282	1.340899	8.315537	-0.001612	0.009133	-0.015316	-0.374268	0.000244	-0.331543
315.0	5.951372	1.317698	8.341074	-0.006276	0.010896	-0.019734	-0.376465	0.002197	-0.329346
316.0	5.950158	1.318267	8.34185	-0.006064	0.012441	-0.016697	-0.372314	0.004639	-0.336182
317.0	5.973128	1.316009	8.340688	-0.004692	0.010817	-0.018267	-0.372314	0.004395	-0.327148
318.0	5.942951	1.2949	8.319607	-0.00771	0.012509	-0.01969	-0.380859	0.004395	-0.327148
319.0	5.968666	1.31677	8.31797	-0.006002	0.012451	-0.015169	-0.376709	0.004395	-0.331787
320.0	5.943315	1.320356	8.320613	-0.000125	0.01055	-0.018446	-0.374512	0.004395	-0.331787
321.0	5.919853	1.32454	8.347589	-0.001472	0.013688	-0.01842	-0.380859	0.002197	-0.329346
322.0	5.939978	1.298489	8.346954	-0.000124	0.01055	-0.018446	-0.374512	0.006592	-0.320313
323.0	5.94165	1.323649	8.347061	-0.003107	0.010737	-0.016799	-0.376709	0.004395	-0.333984
324.0	5.941221	1.348299	8.322963	-0.004516	0.013864	-0.018301	-0.371826	-0.001953	-0.327148
325.0	5.958556	1.297559	8.322969	-0.007735	0.010992	-0.018147	-0.369873	0.000244	-0.327148
326.0	5.935944	1.324888	8.325153	-0.010631	0.012702	-0.016518	-0.374268	0.000244	-0.327148
327.0	5.933959	1.301084	8.35083	-0.010866	0.009643	-0.018011	-0.371826	-0.001953	-0.329346
328.0	5.959809	1.32259	8.349171	-0.012241	0.011265	-0.016441	-0.378662	0.002197	-0.331787
329.0	5.934535	1.325342	8.351852	-0.012327	0.009741	-0.016424	-0.376465	0.000244	-0.329346
330.0	5.959676	1.322602	8.375031	-0.016981	0.008479	-0.01623	-0.37207	0.000244	-0.331543
331.0	5.954862	1.321688	8.327078	-0.01558	0.008372	-0.019343	-0.376465	0.002197	-0.333984
332.0	5.931676	1.324651	8.353993	-0.013997	0.008294	-0.017875	-0.376221	-0.001953	-0.333984
333.0	5.928081	1.29996	8.355179	-0.018468	0.007059	-0.0131	-0.374268	0.002441	-0.329346
334.0	5.952215	1.320552	8.329151	-0.018624	0.008546	-0.019224	-0.376709	0.004395	-0.331787
335.0	5.951259	1.320102	8.329905	-0.018564	0.008555	-0.017697	-0.378662	0.0	-0.331543
336.0	5.954169	1.320006	8.379357	-0.021548	0.008738	-0.016051	-0.370117	0.004639	-0.331787
337.0	5.976213	1.340006	8.329183	-0.024567	0.010426	-0.017476	-0.374512	0.004395	-0.331787
338.0	5.925944	1.320494	8.358718	-0.024507	0.010435	-0.015949	-0.376465	0.0	-0.327148
339.0	5.947192	1.316364	8.333401	-0.024592	0.00891	-0.015933	-0.376709	0.006592	-0.32959
340.0	5.974297	1.312991	8.381034	-0.027842	0.007541	-0.018854	-0.378662	0.0	-0.327148
341.0	5.921259	1.316717	8.336898	-0.024557	0.007401	-0.012863	-0.36792	0.006836	-0.32959
342.0	5.966965	1.309759	8.309544	-0.026345	0.005939	-0.017371	-0.36792	0.004639	-0.331787
343.0	5.941286	1.287372	8.336885	-0.02318	0.005782	-0.014434	-0.376221	-0.001953	-0.32251
344.0	5.940675	1.286401	8.33747	-0.021802	0.004164	-0.016005	-0.37207	0.002441	-0.327148
345.0	5.942833	1.309751	8.337551	-0.021742	0.004172	-0.014478	-0.374268	0.000244	-0.327148
346.0	5.94143	1.284988	8.362883	-0.018733	0.005511	-0.017663	-0.372314	0.004639	-0.331787
347.0	5.938787	1.284098	8.33917	-0.020051	0.007135	-0.014564	-0.376709	0.006592	-0.331787
348.0	5.965007	1.304938	8.337449	-0.018757	0.003993	-0.016122	-0.372314	0.006592	-0.333984
349.0	5.939555	1.283236	8.364484	-0.014334	0.002207	-0.017811	-0.378662	0.002197	-0.331787
350.0	5.961181	1.280082	8.338784	-0.01546	0.008397	-0.016279	-0.372314	0.006592	-0.32959
351.0	5.938821	1.306724	8.340884	-0.015544	0.006872	-0.016265	-0.378662	0.002197	-0.329346
352.0	5.964125	1.303838	8.363982	-0.017067	0.006957	-0.016207	-0.372314	0.004639	-0.329346
353.0	5.938281	1.282034	8.391291	-0.018624	0.008553	-0.019215	-0.371826	-0.00415	-0.331543
354.0	5.957716	1.27846	8.341508	-0.020147	0.008637	-0.019157	-0.374512	0.004395	-0.327148
355.0	5.961461	1.302005	8.366166	-0.024643	0.005864	-0.012848	-0.378662	0.002197	-0.331787
356.0	5.95419	1.276355	8.318629	-0.023251	0.0088	-0.020566	-0.372314	0.006592	-0.327148
357.0	5.983854	1.297779	8.365833	-0.017042	0.008476	-0.017745	-0.376465	0.002197	-0.329346
358.0	5.978351	1.272858	8.342643	-0.021728	0.008715	-0.020624	-0.378662	0.002197	-0.333984
359.0	5.953877	1.299192	8.320584	-0.017019	0.009995	-0.019283	-0.374268	0.002441	-0.331787
360.0	5.952737	1.299057	8.32142	-0.013891	0.011353	-0.019411	-0.374756	0.010986	-0.32959
361.0	5.977683	1.296567	8.344721	-0.013974	0.009828	-0.019399	-0.372314	0.004395	-0.327148
362.0	5.974666	1.296572	8.321169	-0.010905	0.011181	-0.021053	-0.372314	0.004639	-0.331787
363.0	5.969918	1.248471	8.347185	-0.010541	0.015766	-0.018034	-0.376709	0.004395	-0.327148
364.0	5.971796	1.29726	8.323122	-0.007695	0.014065	-0.021191	-0.380859	0.004395	-0.329346
365.0	5.947888	1.300687	8.350333	-0.007531	0.017114	-0.021214	-0.367676	0.002441	-0.329346
366.0	5.969716	1.274597	8.374257	-0.006032	0.015512	-0.019733	-0.374023	-0.001953	-0.331543
367.0	5.942915	1.301911	8.327992	-0.004591	0.013905	-0.019779	-0.376709	0.006592	-0.32959
368.0	5.940752	1.278523	8.353589	-0.006113	0.013987	-0.019722	-0.380859	0.0	-0.324707
369.0	5.961757	1.276367	8.328284	-0.006137	0.012467	-0.018183	-0.378662	0.0	-0.32251
370.0	5.963068	1.301257	8.328755	-0.006195	0.012462	-0.01971	-0.372314	0.004395	-0.327148
371.0	5.968187	1.326382	8.377838	-0.007821	0.009499	-0.018104	-0.376709	0.004395	-0.329346
372.0	5.938581	1.304977	8.356285	-0.007902	0.007974	-0.018093	-0.374512	0.006592	-0.322754
373.0	5.935709	1.305248	8.332608	-0.007741	0.011023	-0.018115	-0.374268	0.0	-0.320313
374.0	5.958829	1.303148	8.331492	-0.006299	0.009417	-0.018161	-0.374512	0.006592	-0.32959
375.0	5.952547	1.254987	8.332932	-0.009125	0.012634	-0.016541	-0.378662	0.002197	-0.32251
376.0	5.955742	1.279738	8.357747	-0.007741	0.011023	-0.018114	-0.378418	-0.002197	-0.326904
377.0	5.95284	1.279935	8.334113	-0.007706	0.009507	-0.01505	-0.376709	0.004395	-0.324951
378.0	5.927431	1.283034	8.336692	-0.004592	0.013907	-0.019775	-0.376465	0.000244	-0.329346
379.0	5.952473	1.281136	8.359862	-0.006366	0.004856	-0.013548	-0.378662	0.004395	-0.320313
380.0	5.954212	1.305872	8.360037	-0.006355	0.009413	-0.019687	-0.376465	0.002197	-0.331787
381.0	5.976672	1.279595	8.383581	-0.009286	0.009582	-0.01652	-0.376709	0.006592	-0.327148
382.0	5.947788	1.282238	8.337365	-0.007878	0.009493	-0.01963	-0.372314	0.004639	-0.329346
383.0	5.95297	1.3071	8.38639	-0.012525	0.008208	-0.019451	-0.374512	0.006592	-0.327148
384.0	5.945942	1.28268	8.338614	-0.011025	0.006608	-0.01797	-0.378662	0.0	-0.329346
385.0	5.94509	1.282941	8.339181	-0.00948	0.008049	-0.019563	-0.378662	0.0	-0.331543
386.0	5.948576	1.307438	8.363804	-0.014014	0.006771	-0.016331	-0.376709	0.004395	-0.329346
387.0	5.945758	1.30736	8.340166	-0.012481	0.01125	-0.022524	-0.376709	0.008789	-0.324951
388.0	5.94407	1.283229	8.365518	-0.012377	0.006698	-0.013333	-0.374512	0.006592	-0.327148
389.0	5.96822	1.304797	8.339639	-0.012604	0.006683	-0.019441	-0.372314	0.004639	-0.333984
390.0	5.971741	1.329286	8.364234	-0.010968	0.006611	-0.016443	-0.374268	0.002441	-0.331787
391.0	5.964109	1.280563	8.341084	-0.012356	0.008219	-0.014869	-0.374512	0.004395	-0.331787
392.0	5.965646	1.304793	8.341481	-0.01239	0.009736	-0.017932	-0.376465	0.002197	-0.327148
393.0	5.936099	1.282899	8.319946	-0.012334	0.00974	-0.016405	-0.374268	0.002441	-0.331787
394.0	5.959315	1.280192	8.318919	-0.013744	0.009825	-0.013296	-0.376465	0.000244	-0.331543
395.0	5.984325	1.277835	8.342207	-0.007821	0.009502	-0.018098	-0.374512	0.006592	-0.331787
396.0	5.961504	1.304703	8.344456	-0.013723	0.011346	-0.014831	-0.376465	0.0	-0.32251
397.0	5.957803	1.280484	8.345601	-0.009245	0.012627	-0.019587	-0.376709	0.004395	-0.331787
398.0	5.981558	1.302555	8.319976	-0.007765	0.009505	-0.016571	-0.376465	0.002197	-0.329346
399.0	5.95378	1.281011	8.322755	-0.010789	0.011182	-0.017996	-0.372559	0.010986	-0.324951
400.0	5.952641	1.281163	8.323546	-0.009155	0.011111	-0.014997	-0.374268	0.000244	-0.329346
401.0	5.955682	1.305828	8.348437	-0.007666	0.012552	-0.018114	-0.370361	0.008789	-0.327148
402.0	5.950358	1.281878	8.325069	-0.007897	0.007977	-0.018089	-0.376709	0.004395	-0.329346
403.0	5.970918	1.25556	8.324382	-0.007513	0.015602	-0.018131	-0.371826	-0.001953	-0.329346
404.0	5.971781	1.28044	8.325164	-0.00439	0.016972	-0.018249	-0.374512	0.004395	-0.324951
405.0	5.971822	1.281232	8.350642	-0.005892	0.018572	-0.019729	-0.378662	0.004395	-0.327148
406.0	5.96834	1.28222	8.327358	0.00317	0.016586	-0.020048	-0.372314	0.004639	-0.329346
407.0	5.970199	1.283833	8.377021	0.001592	0.016659	-0.02152	-0.376465	0.000244	-0.336182
408.0	5.942619	1.287557	8.355332	0.00157	0.015137	-0.019985	-0.374268	0.002441	-0.333984
409.0	5.963533	1.286203	8.330187	0.000233	0.016744	-0.016885	-0.374512	0.006592	-0.327148
410.0	5.939473	1.290006	8.357191	0.003039	0.015058	-0.021565	-0.376465	0.002197	-0.333984
411.0	5.940418	1.315657	8.357763	-2.8e-05	0.013688	-0.019922	-0.378662	0.004395	-0.329346
412.0	5.960797	1.29017	8.35714	0.003202	0.015067	-0.016984	-0.374512	0.004395	-0.333984
413.0	5.957637	1.291333	8.333612	0.00155	0.013614	-0.018449	-0.376465	0.002197	-0.331787
414.0	5.956255	1.292366	8.334439	-0.003019	0.013841	-0.018288	-0.376465	0.0	-0.327148
415.0	5.934906	1.320036	8.360988	-1.5e-05	0.010646	-0.015325	-0.372314	0.004639	-0.329346
416.0	5.931334	1.296673	8.361939	-0.001571	0.012241	-0.018333	-0.37207	0.000244	-0.336182
417.0	5.952713	1.295065	8.336551	-0.003244	0.009266	-0.018263	-0.376709	0.006592	-0.333984
418.0	5.949999	1.295574	8.312815	-0.006183	0.009422	-0.015103	-0.374512	0.006592	-0.331787
419.0	5.948947	1.296005	8.3135	-0.006162	0.010944	-0.016638	-0.374512	0.004395	-0.329346
420.0	5.947222	1.272271	8.338795	-0.006236	0.009419	-0.01663	-0.376465	0.002197	-0.324951
421.0	5.948592	1.296907	8.339205	-0.009283	0.009568	-0.016524	-0.374268	0.002441	-0.329346
422.0	5.949355	1.297262	8.364192	-0.007834	0.007968	-0.016569	-0.376709	0.006592	-0.327148
423.0	5.970937	1.295007	8.338791	-0.010806	0.009642	-0.01647	-0.376465	0.002197	-0.327148
424.0	5.944963	1.273311	8.365829	-0.009209	0.011093	-0.016531	-0.376709	0.006592	-0.32959
425.0	5.945453	1.273649	8.391005	-0.009188	0.012615	-0.018065	-0.378662	0.002197	-0.331787
426.0	5.943182	1.298094	8.342877	-0.009262	0.01109	-0.018057	-0.378662	0.0	-0.329346
427.0	5.964488	1.296116	8.317654	-0.007771	0.012536	-0.021171	-0.374512	0.006592	-0.331787
428.0	5.93987	1.274744	8.369227	-0.008989	0.015667	-0.016553	-0.374512	0.004395	-0.333984
429.0	5.963354	1.297065	8.343896	-0.006195	0.012465	-0.019696	-0.37207	0.000244	-0.336182
430.0	5.962002	1.297617	8.344777	-0.007592	0.014066	-0.018124	-0.369873	0.000244	-0.327148
431.0	5.936415	1.300465	8.347325	-0.006142	0.012467	-0.018169	-0.374268	0.000244	-0.329346
432.0	5.957698	1.298498	8.322147	-0.009188	0.012613	-0.018065	-0.374512	0.004395	-0.327148
433.0	5.956355	1.298943	8.323039	-0.006069	0.013992	-0.018176	-0.376465	0.002197	-0.331787
434.0	5.952626	1.275196	8.324187	-0.007645	0.014063	-0.019651	-0.378662	0.0	-0.331543
435.0	5.953589	1.299986	8.324855	-0.007665	0.01254	-0.018117	-0.376709	0.006592	-0.331787
436.0	5.952359	1.300639	8.325632	-0.004795	0.010866	-0.021267	-0.37207	0.000244	-0.329346
437.0	5.948834	1.27688	8.326639	-0.009136	0.012614	-0.016538	-0.378662	0.002197	-0.329346
438.0	5.95549	1.32583	8.375791	-0.009136	0.012614	-0.016538	-0.369873	0.000244	-0.327148
439.0	5.952617	1.325924	8.352273	-0.010731	0.011161	-0.01648	-0.372314	0.006592	-0.32959
440.0	5.922636	1.279697	8.355141	-0.010731	0.011161	-0.01648	-0.374512	0.004395	-0.32251
441.0	5.923897	1.304119	8.355644	-0.010926	0.008109	-0.017993	-0.374268	0.000244	-0.329346
442.0	5.947237	1.301743	8.354664	-0.015445	0.008325	-0.016312	-0.376465	0.002197	-0.329346
443.0	5.919673	1.279408	8.357286	-0.015302	0.011375	-0.016325	-0.376709	0.006592	-0.32959
444.0	5.945287	1.301216	8.356134	-0.014115	0.005202	-0.017878	-0.376465	0.000244	-0.331543
445.0	5.938948	1.276505	8.308214	-0.016917	0.008397	-0.014734	-0.374512	0.006592	-0.336426
446.0	5.965657	1.273875	8.355958	-0.015516	0.0068	-0.016306	-0.369873	0.000244	-0.331543
447.0	5.94351	1.324406	8.333466	-0.015516	0.0068	-0.016306	-0.374268	0.002197	-0.324951
448.0	5.966233	1.297477	8.357086	-0.016897	0.009921	-0.016266	-0.374023	-0.001953	-0.333984
449.0	5.937118	1.274852	8.335308	-0.01844	0.008467	-0.014683	-0.380859	0.002197	-0.327148
450.0	5.964324	1.29624	8.358641	-0.016744	0.009923	-0.011686	-0.374023	-0.001953	-0.327148
451.0	5.961819	1.295602	8.335001	-0.016987	0.006872	-0.014728	-0.378906	0.008789	-0.327148
452.0	5.96085	1.29529	8.335742	-0.013831	0.011305	-0.017898	-0.376465	0.002197	-0.331787
453.0	5.959134	1.270791	8.36108	-0.015374	0.00985	-0.016316	-0.374268	0.000244	-0.329346
454.0	5.936151	1.297157	8.363257	-0.012397	0.008185	-0.016412	-0.376465	0.002197	-0.329346
455.0	5.978293	1.268368	8.312091	-0.010874	0.008115	-0.016463	-0.376709	0.004395	-0.333984
456.0	5.93497	1.321538	8.340005	-0.010874	0.008115	-0.016463	-0.374512	0.004395	-0.329346
457.0	5.928009	1.272985	8.316562	-0.010874	0.008114	-0.016462	-0.376709	0.008789	-0.32959
458.0	5.956762	1.295118	8.364205	-0.012378	0.009709	-0.017943	-0.374268	0.000244	-0.329346
459.0	5.978385	1.292916	8.338962	-0.010754	0.009639	-0.01494	-0.37207	0.002441	-0.331787
460.0	5.9267	1.273115	8.342984	-0.010924	0.008115	-0.017989	-0.374023	-0.001953	-0.331543
461.0	5.978495	1.3174	8.340304	-0.010546	0.014214	-0.014953	-0.376465	0.002197	-0.327148
462.0	5.976574	1.292953	8.365764	-0.013662	0.012828	-0.014848	-0.376709	0.004395	-0.333984
463.0	5.975797	1.317379	8.342241	-0.010798	0.014217	-0.022585	-0.380859	0.002197	-0.331543
464.0	5.993398	1.242849	8.366487	-0.007595	0.018655	-0.024223	-0.376465	0.002441	-0.336182
465.0	5.971252	1.343503	8.29565	2.3e-05	0.018311	-0.024472	-0.374512	0.008789	-0.32959
466.0	5.994501	1.318174	8.344164	-0.002669	0.023022	-0.019804	-0.374268	0.002197	-0.32251
467.0	5.966444	1.321406	8.322804	0.002119	0.02434	-0.015377	-0.378906	0.006592	-0.32959
468.0	5.96844	1.370901	8.32411	-0.002266	0.027594	-0.01371	-0.371826	-0.001953	-0.331543
469.0	5.963864	1.347362	8.325826	0.002286	0.025864	-0.012327	-0.374512	0.006592	-0.324951
470.0	5.962998	1.347754	8.351864	-0.006573	0.029321	-0.007461	-0.374512	0.006592	-0.327148
471.0	5.933962	1.325225	8.355453	-0.010978	0.031048	-0.004265	-0.374512	0.004395	-0.329346
472.0	5.927617	1.299942	8.333225	-0.015403	0.03125	0.000461	-0.374512	0.004395	-0.333984
473.0	5.975144	1.293804	8.356603	-0.026136	0.0302	0.000803	-0.378662	0.004395	-0.333984
474.0	5.893901	1.24981	8.339164	-0.01845	0.031385	0.000559	-0.376465	0.000244	-0.331543
475.0	5.94368	1.268103	8.362366	-0.023368	0.027017	-0.003867	-0.372314	0.006592	-0.333984
476.0	5.937506	1.241898	8.340148	-0.026117	0.031725	-0.000727	-0.376221	-0.001953	-0.333984
477.0	5.956459	1.189442	8.365187	-0.018939	0.026818	-0.008589	-0.369873	0.002441	-0.338623
478.0	5.935017	1.214675	8.417183	-0.020463	0.026886	-0.008542	-0.372314	0.006592	-0.32959
479.0	5.933488	1.238286	8.394396	-0.013189	0.021977	-0.01335	-0.374268	0.002441	-0.331787
480.0	5.907978	1.264352	8.372866	-0.017942	0.019131	-0.014731	-0.374512	0.008789	-0.331787
481.0	5.926893	1.237333	8.348371	-0.016439	0.017537	-0.013249	-0.372314	0.008789	-0.32959
482.0	5.932648	1.285257	8.398153	-0.01819	0.014558	-0.016251	-0.374512	0.006592	-0.331787
483.0	5.900399	1.262851	8.327629	-0.016781	0.012968	-0.017823	-0.370117	0.004639	-0.329346
484.0	5.905067	1.310841	8.352761	-0.019936	0.008522	-0.014671	-0.376709	0.008789	-0.331787
485.0	5.94972	1.257289	8.375125	-0.015211	0.012899	-0.016341	-0.376953	0.010986	-0.331787
486.0	5.945544	1.257094	8.327311	-0.016801	0.01144	-0.016294	-0.374512	0.008789	-0.333984
487.0	5.950888	1.329772	8.327988	-0.015503	0.008329	-0.01939	-0.370117	0.006836	-0.333984
488.0	5.936929	1.183783	8.329063	-0.013713	0.014363	-0.019441	-0.372314	0.006592	-0.32959
489.0	5.923182	1.307388	8.355854	-0.013534	0.01741	-0.017916	-0.369873	0.002441	-0.329346
490.0	5.919437	1.283231	8.357009	-0.009075	0.015689	-0.01958	-0.370117	0.006836	-0.331787
491.0	5.917882	1.283523	8.358066	-0.010553	0.015752	-0.018007	-0.376709	0.008789	-0.32959
492.0	5.938366	1.257262	8.357798	-0.011991	0.018871	-0.019489	-0.372314	0.006592	-0.331787
493.0	5.912334	1.259406	8.36049	-0.013535	0.017408	-0.017916	-0.372314	0.006836	-0.336426
494.0	5.959273	1.255313	8.358721	-0.010598	0.015755	-0.019533	-0.370117	0.004639	-0.331787
495.0	5.908372	1.235407	8.387148	-0.008943	0.01874	-0.019579	-0.376953	0.010986	-0.334229
496.0	5.927358	1.209601	8.362517	-0.009099	0.017222	-0.022632	-0.370117	0.004639	-0.327148
497.0	5.929145	1.234542	8.388002	-0.007665	0.017163	-0.02573	-0.374512	0.006592	-0.333984
498.0	5.926087	1.235601	8.364641	-0.006271	0.014048	-0.025774	-0.37207	0.002441	-0.333984
499.0	5.902754	1.287668	8.34276	-0.003053	0.020026	-0.028917	-0.368164	0.008789	-0.32959
500.0	5.898268	1.24023	8.368191	-0.004791	0.013986	-0.027345	-0.372314	0.006592	-0.324951
501.0	5.945225	1.237143	8.366331	-0.01248	0.015844	-0.031702	-0.370361	0.008789	-0.32959
502.0	5.919665	1.265157	8.344509	0.001339	0.01985	-0.035155	-0.372314	0.008789	-0.327148
503.0	5.964022	1.238866	8.342905	-0.001689	0.021507	-0.036593	-0.372314	0.008789	-0.333984
504.0	5.938889	1.243117	8.369945	0.004363	0.021256	-0.038295	-0.376709	0.004395	-0.333984
505.0	5.909409	1.248058	8.323899	0.004446	0.02431	-0.039821	-0.374512	0.006592	-0.331787
506.0	5.908977	1.274893	8.325259	0.001422	0.022903	-0.03668	-0.37207	0.002441	-0.331787
507.0	5.860637	1.281144	8.378204	0.002941	0.025901	-0.041303	-0.372314	0.004639	-0.333984
508.0	5.923728	1.204973	8.35096	0.004259	0.019734	-0.03982	-0.36792	0.004639	-0.327148
509.0	5.973448	1.227888	8.37377	-0.000381	0.021456	-0.044269	-0.374512	0.004395	-0.329346
510.0	5.945038	1.233896	8.352149	0.024117	0.02964	-0.054117	-0.372314	0.004639	-0.331787
511.0	5.949773	1.336207	8.353588	0.017959	0.02836	-0.053945	-0.365967	0.009033	-0.32959
512.0	5.901995	1.393449	8.357721	0.019568	0.028292	-0.050933	-0.374512	0.004395	-0.329346
513.0	5.899473	1.422458	8.334758	0.02128	0.029747	-0.046396	-0.370117	0.006592	-0.324951
514.0	5.893911	1.377921	8.360615	0.016731	0.028396	-0.043215	-0.370117	0.006592	-0.327148
515.0	5.916364	1.356616	8.409056	0.043866	0.019692	-0.043967	-0.378906	0.006592	-0.324951
516.0	5.875562	1.217585	8.362737	0.011937	0.023995	-0.044617	-0.36792	0.006836	-0.336426
517.0	5.901947	1.244671	8.411161	0.037746	0.021464	-0.046849	-0.37207	0.000244	-0.331543
518.0	5.871636	1.20412	8.413227	0.038846	0.01684	-0.056044	-0.365723	0.006836	-0.331787
519.0	5.874712	1.259619	8.43788	0.044784	0.013557	-0.057732	-0.363525	0.006836	-0.333984
520.0	5.776975	1.323076	8.39424	0.045936	0.005874	-0.060815	-0.365967	0.009033	-0.32959
521.0	5.800896	1.279876	8.465513	0.045319	-0.00938	-0.062317	-0.36792	0.004639	-0.329346
522.0	5.873078	1.306986	8.411429	0.055586	-0.012828	-0.073283	-0.368164	0.009033	-0.331787
523.0	5.900467	1.313662	8.457244	0.044675	-0.02006	-0.071452	-0.365723	0.004639	-0.324951
524.0	5.925321	1.3689	8.38058	0.053653	-0.024974	-0.071688	-0.365723	0.006836	-0.32959
525.0	5.922906	1.328336	8.378715	0.041542	-0.024529	-0.068302	-0.359375	0.009033	-0.324951
526.0	5.927401	1.360072	8.400792	0.038315	-0.03052	-0.066675	-0.365967	0.013184	-0.327393
527.0	5.901607	1.344534	8.375616	0.038412	-0.028994	-0.065152	-0.361816	0.013428	-0.331787
528.0	5.883529	1.377613	8.423175	0.03519	-0.034987	-0.063521	-0.359619	0.015625	-0.336426
529.0	5.865574	1.483332	8.372409	0.038163	-0.039668	-0.060537	-0.360107	0.02417	-0.332031
530.0	5.86647	1.464788	8.369741	0.021504	-0.042123	-0.052426	-0.366699	0.028564	-0.339111
531.0	5.939067	1.415682	8.363059	0.015153	-0.048017	-0.053758	-0.373291	0.026367	-0.33667
532.0	5.899071	1.520815	8.337556	0.021459	-0.049737	-0.044767	-0.377686	0.026367	-0.332031
533.0	5.91914	1.449696	8.284791	0.007732	-0.050792	-0.042842	-0.390869	0.02832	-0.329834
534.0	5.893926	1.72325	8.306687	-0.004226	-0.056451	-0.027205	-0.393066	0.030518	-0.329834
535.0	5.869558	1.675437	8.280943	-0.03111	-0.061576	-0.000437	-0.396973	0.023926	-0.322998
536.0	5.922145	1.668363	8.250598	-0.04116	-0.064224	0.024307	-0.394775	0.021729	-0.322998
537.0	5.95078	1.636174	8.246264	-0.058961	-0.066625	0.044703	-0.396729	0.017334	-0.322754
538.0	5.982681	1.578036	8.315107	-0.058649	-0.069661	0.058449	-0.396729	0.015137	-0.320557
539.0	5.981478	1.49623	8.263518	-0.059992	-0.071129	0.066133	-0.396729	0.015137	-0.322754
540.0	6.010649	1.388302	8.332096	-0.057007	-0.075812	0.069106	-0.396484	0.010986	-0.320313
541.0	5.991839	1.332496	8.354368	-0.057209	-0.078866	0.066064	-0.400879	0.010742	-0.311279
542.0	5.994317	1.227327	8.374778	-0.039483	-0.088669	0.057877	-0.39209	0.008789	-0.315918
543.0	6.004737	1.269948	8.344999	-0.031062	-0.099675	0.046925	-0.400879	0.008789	-0.318115
544.0	5.984269	1.413857	8.463394	-0.036284	-0.116296	0.045584	-0.391846	0.006592	-0.311279
545.0	5.942232	1.460719	8.33767	-0.027642	-0.133413	0.048367	-0.400879	0.010742	-0.318115
546.0	5.940567	1.113169	8.4767	-0.059437	-0.164349	0.044884	-0.398438	0.006592	-0.318115
547.0	5.736595	1.271034	8.653307	-0.012064	-0.205808	0.044781	-0.400635	0.004395	-0.315674
548.0	5.871653	0.967179	8.483388	0.035157	-0.280894	0.032422	-0.398193	0.002197	-0.311035
549.0	5.708333	1.010889	8.502969	0.127161	-0.354596	0.032106	-0.398438	0.004395	-0.313477
550.0	5.898501	1.352899	8.588849	0.154699	-0.433587	0.029627	-0.400635	0.006348	-0.306641
551.0	5.736219	1.379477	8.747416	0.115961	-0.526951	0.026867	-0.400879	0.008545	-0.311279
552.0	5.986632	0.955439	8.303542	0.162625	-0.60982	0.011354	-0.407227	0.00415	-0.306641
553.0	5.967962	1.04898	8.465943	0.133978	-0.691483	-0.012917	-0.406982	-0.000244	-0.308838
554.0	6.034212	1.089212	8.443943	0.201108	-0.781409	-0.040247	-0.408936	-0.002441	-0.299561
555.0	6.032795	1.138937	8.399108	0.201099	-0.879574	-0.057916	-0.411133	-0.002441	-0.297363
556.0	6.048583	1.240262	8.396051	0.237857	-0.979199	-0.07299	-0.415283	-0.009033	-0.290283
557.0	6.020929	1.468355	8.293221	0.252308	-1.08719	-0.072819	-0.415283	-0.006836	-0.288086
558.0	6.080642	1.546857	8.297819	0.261297	-1.211805	-0.055149	-0.426025	-0.009033	-0.283447
559.0	6.100194	1.676202	8.25145	0.26255	-1.351595	-0.033465	-0.428223	-0.01123	-0.28125
560.0	6.001313	2.009706	8.214629	0.281482	-1.494987	0.016224	-0.43042	-0.013428	-0.274414
561.0	6.099135	2.086362	8.31714	0.221845	-1.66799	0.068951	-0.439209	-0.009277	-0.262939
562.0	6.185122	1.801534	8.025597	0.210626	-1.817154	0.117464	-0.443359	-0.011475	-0.258301
563.0	6.280741	1.923618	8.163419	0.215938	-1.976975	0.147965	-0.449951	-0.011475	-0.24707
564.0	6.398083	1.2677	7.935184	0.176876	-2.142436	0.153325	-0.458496	-0.015869	-0.235596
565.0	6.522834	1.634755	8.044023	0.269374	-2.313721	0.165919	-0.461182	-0.007324	-0.22876
566.0	6.549708	1.758237	8.054947	0.120134	-2.508918	0.18587	-0.467285	-0.013916	-0.210449
567.0	6.757895	1.350124	7.662236	0.114994	-2.729852	0.205375	-0.471924	-0.009521	-0.203613
568.0	6.662005	1.767914	7.642143	0.079926	-2.940155	0.245679	-0.478516	-0.007324	-0.185547
569.0	6.842117	1.655385	7.379703	0.010324	-3.213066	0.304215	-0.493896	-0.007568	-0.167236
570.0	6.82851	1.704785	7.578008	-0.001533	-3.449471	0.367838	-0.489502	-0.005371	-0.153564
571.0	6.861262	1.732072	7.496003	-0.001173	-3.707893	0.408499	-0.498291	-0.005615	-0.139893
572.0	6.783557	1.781909	7.610119	-0.035015	-4.051478	0.444621	-0.504883	-0.003418	-0.110352
573.0	8.480298	1.508667	7.230084	0.000869	-4.497914	0.524214	-0.515869	0.000732	-0.094482
574.0	8.127957	1.33886	8.381841	0.154366	-4.674588	0.865974	-0.520508	0.005127	-0.064941
575.0	6.390647	2.826461	9.691326	-0.266623	-4.616187	0.651051	-0.518555	0.009521	-0.046875
576.0	9.264891	0.033845	3.906152	-0.358817	-5.455671	0.257447	-0.527344	0.011475	-0.01709
577.0	14.600486	1.401756	7.808089	0.802371	-6.009735	0.410006	-0.522949	0.011475	0.014648
578.0	14.08177	0.754508	6.464042	0.847586	-6.171232	0.32662	-0.523193	0.017822	0.053467
579.0	15.415965	1.455965	7.423184	1.282523	-6.110974	0.050065	-0.514404	0.017822	0.080811
580.0	17.60794	3.095092	7.569685	1.393185	-6.004702	0.114342	-0.508057	0.022217	0.10791
581.0	21.497692	4.948664	6.643686	1.463118	-5.353027	0.368583	-0.490967	0.028809	0.139648
582.0	18.726667	5.774417	8.741765	2.055759	-5.413084	0.522402	-0.476318	0.039795	0.162354
583.0	18.985557	7.033156	11.945714	0.573195	-3.75584	0.99645	-0.455322	0.057373	0.175537
584.0	11.246566	4.336162	8.326926	0.52161	-3.453296	1.640455	-0.429932	0.074951	0.188965
585.0	11.950748	5.789861	14.669329	0.378499	-2.744246	1.744825	-0.400146	0.092529	0.190674
586.0	17.086203	-0.634679	22.68239	0.148944	-1.035432	1.407526	-0.368164	0.110107	0.181152
587.0	14.051524	3.90741	26.049201	0.941751	2.376651	1.462429	-0.325439	0.12793	0.146729
588.0	-3.693644	3.172432	14.732294	0.653621	2.858304	1.586447	-0.278076	0.143555	0.13501
589.0	-4.091631	5.073754	13.708339	0.888223	2.795932	1.68299	-0.218018	0.166016	0.107178
590.0	-2.286238	5.905765	12.788518	0.747827	2.702839	1.5714	-0.166504	0.186035	0.08374
591.0	2.04474	7.30136	14.349641	0.521311	3.142143	1.193444	-0.09082	0.199463	0.074219
592.0	4.214764	8.122518	14.332669	0.213932	3.975748	0.673177	-0.030518	0.217285	0.076172
593.0	4.489039	8.036457	13.392037	-0.278933	4.775303	0.132717	0.053223	0.248535	0.091553
594.0	4.423509	6.642911	11.878139	-0.653188	5.361107	-0.372823	0.121582	0.2771	0.138672
595.0	5.212242	5.057807	10.609851	-0.852267	5.765501	-0.796689	0.176758	0.312256	0.204102
596.0	6.249265	3.44395	9.657733	-0.88386	6.06015	-1.112795	0.197266	0.340576	0.2854
597.0	6.853596	2.22099	8.572433	-0.766132	6.254183	-1.303894	0.183105	0.366455	0.366943
598.0	6.509528	1.727789	7.623647	-0.650406	6.288106	-1.361123	0.147217	0.387939	0.439453
599.0	6.280605	1.028629	6.76961	-0.544894	6.08114	-1.308722	0.088135	0.393799	0.505615
600.0	6.847628	0.756885	6.824104	-0.402458	5.776943	-1.171981	0.011719	0.393311	0.544434
601.0	7.952781	0.391419	7.588952	-0.244171	5.494155	-1.017424	-0.068359	0.384033	0.569824
602.0	8.891418	-0.112848	8.176544	-0.046231	5.306067	-0.872887	-0.150635	0.368164	0.567871
603.0	9.32811	-0.380834	7.992842	0.255059	5.115473	-0.735629	-0.223877	0.350342	0.55249
604.0	9.503429	0.658214	8.066664	0.568539	4.859636	-0.590662	-0.295166	0.334717	0.509521
605.0	9.893295	1.354497	8.304185	0.697024	4.560454	-0.511213	-0.347168	0.325684	0.473389
606.0	9.544442	1.363885	7.929834	0.80681	4.245379	-0.546551	-0.390137	0.310303	0.423584
607.0	9.128918	1.470312	7.937328	0.9333	3.806513	-0.698592	-0.422363	0.297119	0.373535
608.0	9.778733	1.640644	8.500547	0.987434	3.375822	-0.918057	-0.438965	0.277344	0.323975
609.0	9.236932	0.622116	7.512872	0.944167	2.92076	-1.111182	-0.455566	0.26001	0.276367
610.0	10.472541	1.805735	7.010565	0.944331	2.328134	-1.155903	-0.461182	0.238281	0.244873
611.0	12.773301	3.030389	7.337382	0.437286	1.834279	-0.987836	-0.469238	0.2229	0.211182
612.0	15.160207	1.692218	7.852921	-0.235091	1.526388	-0.779436	-0.4729	0.207764	0.179443
613.0	18.507095	-1.383471	8.848543	-0.409236	1.507455	-0.741769	-0.467529	0.186035	0.161621
614.0	22.053162	-4.444409	8.900343	0.072497	1.961174	-0.958474	-0.462646	0.175293	0.123047
615.0	23.25977	-3.967899	7.841071	1.070938	2.709461	-1.288151	-0.468262	0.155518	0.10083
616.0	21.632336	1.474997	6.764475	1.350821	3.348894	-1.43923	-0.460938	0.135986	0.064697
617.0	19.695885	3.815816	4.385563	0.54832	3.660554	-1.387457	-0.453613	0.12085	0.039795
618.0	17.773859	2.742434	2.191368	-0.44345	3.675341	-1.312331	-0.444336	0.10791	-0.000977
619.0	16.946944	-0.20901	-0.421802	-0.849359	3.466082	-1.357822	-0.435059	0.094971	-0.02124
620.0	16.669382	-1.711497	-2.425982	-0.829045	3.163164	-1.47327	-0.423584	0.079834	-0.050537
621.0	16.144283	-2.925028	-4.844111	-0.584666	2.709162	-1.516579	-0.414551	0.075684	-0.066406
622.0	15.415862	-4.177215	-7.841144	-0.137867	1.956407	-1.390368	-0.416016	0.060303	-0.091064
623.0	16.709525	-3.563874	-9.264244	0.489386	0.978536	-1.051169	-0.409424	0.056152	-0.08667
624.0	18.27976	0.431718	-10.177191	0.871029	0.154186	-0.546974	-0.40918	0.051758	-0.093262
625.0	15.880822	7.706109	-11.024458	-1.391355	-1.246881	0.338963	-0.418213	0.055908	-0.084229
626.0	24.043515	-4.442083	-17.783717	-2.384461	-3.106989	0.837596	-0.431641	0.064697	-0.070801
627.0	1.505569	-12.332569	-6.480838	-1.066189	-3.36458	0.678218	-0.447021	0.071045	-0.052734
628.0	15.540305	-1.088621	23.65524	2.740171	-5.060161	-0.096883	-0.451416	0.068604	-0.029785
629.0	15.616056	5.123364	16.105361	-1.896723	-3.126534	0.117661	-0.460205	0.068604	-0.013916
630.0	9.669742	-6.990177	0.032692	0.163798	-3.156676	0.178495	-0.470947	0.068604	0.009033
631.0	19.136126	5.622003	16.804747	0.401465	-3.269053	0.154784	-0.477783	0.072754	0.029541
632.0	20.269068	2.941041	13.232934	-0.385572	-2.160993	0.320123	-0.482422	0.079346	0.040771
633.0	19.828057	1.939315	12.678165	-1.753737	-1.009584	0.403767	-0.486816	0.081299	0.049805
634.0	5.858112	-5.45002	6.45041	-0.415522	-0.92049	0.2984	-0.478271	0.085693	0.065674
635.0	9.000617	2.490443	11.502973	-0.011851	-0.613661	0.175715	-0.486816	0.081299	0.070313
636.0	5.714276	1.333138	6.827404	-0.457376	-0.642451	0.208703	-0.484863	0.083496	0.077148
637.0	13.601657	4.843384	11.907917	-0.526033	-0.41602	0.252804	-0.482666	0.087891	0.076904
638.0	4.16653	-0.432609	6.184927	-0.86058	-0.053783	0.301786	-0.482666	0.087891	0.081543
639.0	6.842284	3.61677	9.465773	-0.236086	-0.05835	0.246146	-0.485352	0.094482	0.08374
640.0	6.591364	1.188253	8.085487	-0.512271	-0.071593	0.265224	-0.480713	0.092285	0.081543
641.0	6.222845	1.32244	8.677695	-0.306871	-0.047204	0.275718	-0.485352	0.094482	0.085938
642.0	6.04978	0.834864	8.445308	-0.292916	-0.021246	0.262262	-0.479004	0.101074	0.083496
643.0	5.943134	0.303814	8.645121	-0.233135	-0.022975	0.214828	-0.480957	0.09668	0.090576
644.0	5.877486	0.094197	8.466385	-0.138349	-0.011351	0.150008	-0.47876	0.094482	0.079102
645.0	5.93531	0.195442	8.493965	-0.097779	-0.019468	0.075382	-0.481201	0.101074	0.081299
646.0	5.907009	0.040851	8.509864	-0.050073	-0.039776	-0.005905	-0.474365	0.09668	0.092773
647.0	5.865145	-0.138785	8.278211	0.011386	-0.063592	-0.083096	-0.483643	0.105225	0.085693
648.0	6.014484	0.509755	8.524255	0.050955	-0.078523	-0.130429	-0.483154	0.09668	0.090576
649.0	5.984976	0.923251	8.421581	0.089876	-0.081824	-0.156037	-0.47876	0.09668	0.085938
650.0	6.030801	1.871682	8.368078	0.124061	-0.084836	-0.132637	-0.485352	0.094482	0.095215
651.0	6.090446	1.540182	8.31558	-0.01018	-0.069219	-0.085608	-0.48291	0.092285	0.095215
652.0	6.149821	1.253512	8.243783	0.046319	-0.029851	-0.06478	-0.483154	0.09668	0.097412
653.0	6.11647	0.532821	8.20342	0.071647	-0.01267	-0.100181	-0.48291	0.092285	0.092773
654.0	6.061744	0.817496	8.342341	0.227903	0.014392	-0.157464	-0.478516	0.090088	0.099854
655.0	5.985447	1.06021	8.600648	0.28168	0.006486	-0.192819	-0.48291	0.090088	0.097412
656.0	6.125604	1.017494	8.561022	0.262853	-0.019141	-0.191351	-0.484863	0.085693	0.097656
657.0	6.158386	0.809668	8.421418	0.219781	-0.044425	-0.184555	-0.478027	0.076904	0.102295
658.0	6.189594	1.011161	8.373007	0.217978	-0.067433	-0.178883	-0.47998	0.076904	0.104492
659.0	6.080682	1.237197	8.405668	0.190557	-0.079369	-0.169145	-0.468994	0.070557	0.095459
660.0	6.034571	1.215155	8.374727	0.154029	-0.105083	-0.150218	-0.462402	0.072754	0.100098
661.0	5.959171	1.146691	8.244773	0.167529	-0.137563	-0.140543	-0.456543	0.088135	0.088379
662.0	6.058089	1.677994	8.222288	0.148218	-0.163775	-0.109861	-0.446289	0.103516	0.07666
663.0	6.062045	1.451784	8.176868	0.117981	-0.195817	-0.085	-0.469482	0.131592	0.07373
664.0	6.084313	1.708986	8.171118	0.105371	-0.191592	-0.052441	-0.482178	0.122803	0.085449
665.0	6.140089	1.597273	8.102727	0.08697	-0.168949	-0.019383	-0.495361	0.124756	0.092285
666.0	6.193714	1.38335	8.057141	0.05748	-0.161308	0.007726	-0.499023	0.109619	0.097168
667.0	6.370931	1.435236	7.938493	0.084103	-0.140474	0.017785	-0.496338	0.098633	0.104248
668.0	6.130448	1.391442	8.190617	0.080585	-0.125497	0.041043	-0.494141	0.096436	0.106445
669.0	6.107347	1.079026	8.174854	0.080601	-0.131653	0.044011	-0.496338	0.098633	0.106445
670.0	6.038087	1.10646	8.367469	0.122789	-0.164345	0.041973	-0.496094	0.092041	0.106445
671.0	5.949092	0.800792	8.378429	0.132729	-0.22514	0.007187	-0.489502	0.089844	0.108887
672.0	5.497082	1.526015	8.882494	0.196765	-0.32848	0.006416	-0.485107	0.090088	0.111084
673.0	5.653213	0.976487	8.735788	0.117668	-0.493743	0.003189	-0.485107	0.092041	0.11792
674.0	5.589449	1.159218	9.009847	0.203383	-0.657017	-0.00384	-0.486816	0.083496	0.113525
675.0	5.642797	0.838355	8.93536	0.223687	-0.832897	-0.032459	-0.48291	0.089844	0.124756
676.0	5.620895	0.40262	8.957203	0.284877	-1.021536	-0.092165	-0.480469	0.087891	0.122559
677.0	5.608243	0.493559	8.758509	0.386028	-1.23237	-0.164979	-0.489014	0.083252	0.131836
678.0	5.388081	1.694261	9.030378	0.447818	-1.515426	-0.136484	-0.486816	0.081055	0.138672
679.0	5.390428	1.886012	8.931155	0.329156	-1.793312	-0.092025	-0.486816	0.083252	0.152344
680.0	5.553964	1.503268	8.69506	0.314275	-2.096262	-0.052588	-0.482422	0.081055	0.161377
681.0	5.623482	1.977462	8.760874	0.345408	-2.38701	-0.002687	-0.484619	0.078857	0.170654
682.0	5.779072	1.661715	8.60151	0.228968	-2.621742	0.014808	-0.486328	0.072266	0.191162
683.0	5.808214	1.322247	8.463221	0.279853	-2.874199	0.00592	-0.486816	0.078857	0.204834
684.0	5.895616	1.376262	8.326879	0.307646	-3.126759	-0.003293	-0.484375	0.074463	0.223145
685.0	5.895613	2.053836	8.662725	0.31329	-3.436696	0.04215	-0.484375	0.076416	0.248047
686.0	5.648826	1.622481	8.514047	0.163124	-3.82691	0.081992	-0.477783	0.076416	0.266357
687.0	5.438361	1.2535	9.029902	0.239298	-4.293075	0.091212	-0.477783	0.072021	0.291504
688.0	5.449967	1.495762	9.347975	0.289472	-4.884574	0.070871	-0.471191	0.074219	0.325684
689.0	6.648369	2.485589	9.97333	0.319343	-5.550074	0.150435	-0.462646	0.076416	0.353027
690.0	7.407853	1.967955	11.942256	0.349768	-5.854858	0.678395	-0.447266	0.074219	0.382568
691.0	3.292421	3.512076	8.992982	-0.261999	-6.043132	0.163818	-0.436279	0.076416	0.421387
692.0	11.371366	0.435901	9.215915	0.764101	-8.158311	0.291309	-0.42334	0.076416	0.471436
693.0	17.748906	2.717244	10.200415	1.40239	-8.401844	0.291249	-0.392822	0.078613	0.516846
694.0	17.07858	0.015363	9.633195	1.912923	-8.59643	0.041788	-0.369141	0.085205	0.557861
695.0	20.598625	4.5153	10.28488	2.985323	-8.264975	-0.288162	-0.339111	0.093994	0.598633
696.0	28.391972	9.131924	10.619849	2.944968	-7.436225	0.198737	-0.313721	0.111572	0.62793
697.0	21.479735	8.648632	12.384238	3.866418	-6.785647	0.589461	-0.290527	0.131348	0.659424
698.0	25.508183	6.63614	20.567939	2.816287	-4.944076	1.426368	-0.275879	0.146729	0.665771
699.0	11.919201	5.145653	14.87436	3.856818	-3.522987	2.094412	-0.257568	0.177246	0.681152
700.0	10.197243	17.188015	20.819038	3.931389	-2.106486	1.615729	-0.249756	0.197021	0.680908
701.0	28.553066	24.866795	41.145914	0.668571	1.77744	0.854431	-0.266846	0.186035	0.66748
702.0	-10.293046	7.097746	17.818599	-2.497676	3.281408	0.598794	-0.28833	0.179443	0.649414
703.0	-8.581549	0.292019	17.096726	-0.604591	2.821641	0.363003	-0.294678	0.175049	0.635742
704.0	-3.55428	-0.041344	16.502166	0.295673	2.769427	0.182832	-0.314453	0.179199	0.615234
705.0	0.989568	5.856829	19.261291	0.580378	3.42492	0.133567	-0.331787	0.177002	0.596924
706.0	3.750994	6.410518	19.028797	-0.353342	4.558806	0.224363	-0.357666	0.17041	0.565186
707.0	4.079738	4.071315	16.750828	-0.945825	5.548825	0.238302	-0.379395	0.168213	0.531006
708.0	4.302292	2.627346	13.744256	-0.957229	6.293228	0.125607	-0.402832	0.155029	0.483643
709.0	4.333506	3.741857	11.518951	-0.94239	6.787188	-0.044836	-0.413818	0.157227	0.444824
710.0	5.303292	4.478976	9.856292	-1.291804	7.066694	-0.20782	-0.421875	0.144287	0.387939
711.0	6.237509	3.531366	8.327283	-1.579319	7.200189	-0.371754	-0.421631	0.135742	0.333496
712.0	7.207781	2.193305	7.081818	-1.557534	7.14581	-0.520443	-0.421631	0.133545	0.29248
713.0	7.883506	2.095549	6.594083	-1.304464	6.965385	-0.628682	-0.403564	0.120605	0.247314
714.0	8.756432	2.57721	6.394728	-1.079099	6.684857	-0.677314	-0.389893	0.109863	0.213135
715.0	8.835664	2.121718	6.237117	-0.936615	6.34314	-0.716569	-0.37207	0.099121	0.195068
716.0	9.400738	1.222367	6.266728	-0.543077	5.880601	-0.740199	-0.351807	0.088379	0.186279
717.0	11.30743	1.617236	7.309137	-0.048005	5.459845	-0.710461	-0.345947	0.10376	0.169922
718.0	13.103461	3.208694	8.608065	0.284306	5.210824	-0.590897	-0.335449	0.112549	0.153809
719.0	13.001591	3.573206	8.027094	0.411213	5.001449	-0.430513	-0.325439	0.12793	0.148926
720.0	11.987779	3.906175	7.450604	0.525047	4.615746	-0.267255	-0.321289	0.134521	0.14209
721.0	12.454337	4.277662	7.245158	0.70464	4.1544	-0.189423	-0.317871	0.158691	0.125488
722.0	11.462634	5.170353	6.854235	0.719935	3.69536	-0.181873	-0.320801	0.171875	0.104736
723.0	10.502219	5.249584	6.653481	0.503446	3.10152	-0.222747	-0.32373	0.187012	0.081787
724.0	11.631695	3.566839	6.701533	0.303061	2.469057	-0.322756	-0.321777	0.193848	0.052002
725.0	16.490339	2.247454	8.664904	0.369053	2.032497	-0.480306	-0.290771	0.183105	0.020264
726.0	25.145163	-0.062146	10.838457	0.558588	2.282067	-0.819654	-0.241943	0.163818	0.006836
727.0	30.967371	-2.683414	10.567226	1.14039	3.36326	-1.336172	-0.179443	0.133545	0.023438
728.0	29.373541	-2.419492	6.384879	1.870077	4.560089	-1.829161	-0.136963	0.112061	0.0625
729.0	23.100132	0.331325	0.700132	1.863454	4.91204	-2.094456	-0.112549	0.101074	0.117432
730.0	18.773044	0.641036	-4.310744	1.049687	4.243831	-2.048949	-0.125	0.087891	0.165527
731.0	20.592309	-1.757029	-7.858379	0.398981	3.115412	-1.821402	-0.138184	0.089844	0.210938
732.0	25.244384	-4.773351	-9.917745	0.098038	2.170739	-1.614236	-0.164063	0.083008	0.229492
733.0	30.098597	-6.439442	-12.971558	0.392306	1.642904	-1.447083	-0.185791	0.082764	0.245361
734.0	29.381691	-4.444983	-14.795374	0.667566	1.238091	-1.200203	-0.196533	0.078369	0.256836
735.0	23.31185	5.639325	-17.888802	0.738158	0.495678	-0.692269	-0.2146	0.089111	0.272705
736.0	18.048185	11.186645	-18.788052	-4.952946	-2.039606	0.283172	-0.224854	0.078125	0.291016
737.0	25.723966	-21.399684	-29.024795	-5.885608	-3.735183	0.342322	-0.225342	0.084473	0.311523
738.0	-6.422467	-27.670178	15.56276	1.545453	-5.995798	-0.58595	-0.217041	0.097656	0.352295
739.0	24.082812	-3.599766	29.385498	-1.158076	-4.458573	0.481739	-0.217285	0.099854	0.377197
740.0	19.421332	-17.721397	-4.454445	0.086852	-4.40402	0.983257	-0.204346	0.106201	0.408936
741.0	29.529308	19.769307	22.934795	2.62616	-3.905927	0.403722	-0.196045	0.11499	0.433838
742.0	21.908119	7.326082	15.551449	-2.908516	-2.475208	0.437765	-0.191162	0.106201	0.452393
743.0	13.593168	-13.426498	6.404594	-1.972753	-1.363103	0.566695	-0.187256	0.112793	0.463623
744.0	7.760568	-1.455936	9.893431	0.840743	-1.368023	0.469575	-0.182861	0.11499	0.484131
745.0	23.904628	3.853216	13.375554	-0.659876	-0.989953	0.206937	-0.180664	0.112793	0.475098
746.0	-0.952402	1.329034	6.05473	-0.47677	0.171578	0.406395	-0.175781	0.101807	0.491211
747.0	7.488654	2.205956	9.98066	-0.53323	-0.116725	0.136608	-0.176025	0.104004	0.491211
748.0	6.535372	2.300283	8.746761	-0.10391	-0.187735	0.167034	-0.173828	0.106201	0.493408
749.0	6.572927	1.155057	8.236908	-0.45291	-0.171093	0.178895	-0.173828	0.104004	0.495605
750.0	6.096576	2.16473	8.608413	-0.030646	-0.095836	0.192829	-0.169434	0.104004	0.493408
751.0	6.146383	0.802054	8.379392	-0.234618	-0.118919	0.183036	-0.176025	0.104004	0.498047
752.0	6.128096	0.838731	8.744782	-0.084409	-0.091	0.171124	-0.169189	0.102051	0.493408
753.0	6.251478	0.04301	8.481065	-0.069904	-0.125445	0.115133	-0.169678	0.108398	0.500244
754.0	6.093298	1.26942	8.483442	0.051875	-0.13519	0.1106	-0.165283	0.108398	0.500244
755.0	6.040728	1.388058	8.483838	-0.054158	-0.126296	0.136213	-0.171631	0.108398	0.500244
756.0	6.22003	0.738674	8.221763	-0.030956	-0.117898	0.137351	-0.173828	0.108398	0.504639
757.0	6.113419	1.415287	8.39622	0.01362	-0.121201	0.152979	-0.167725	0.11499	0.509033
758.0	6.156723	1.2117	8.280772	-0.013903	-0.132801	0.1672	-0.16748	0.108398	0.502441
759.0	6.234641	1.124291	8.217502	-0.011896	-0.122279	0.171954	-0.169678	0.112793	0.509277
760.0	6.280105	0.889823	8.223436	0.002285	-0.107441	0.168831	-0.167725	0.11499	0.506836
761.0	6.259591	0.863689	8.144247	0.077185	-0.089831	0.147294	-0.167725	0.11499	0.504639
762.0	6.300515	0.610905	8.175184	0.040552	-0.075926	0.130263	-0.169678	0.110596	0.509277
763.0	6.181377	1.027389	8.414085	0.139344	-0.08405	0.122747	-0.163086	0.110596	0.513672
764.0	6.054934	1.23895	8.324899	0.103654	-0.113651	0.143063	-0.160645	0.106201	0.516113
765.0	5.622081	1.746038	8.776345	0.085511	-0.191985	0.201719	-0.154297	0.108643	0.516113
766.0	5.831327	0.869496	8.497354	-0.099304	-0.289109	0.23147	-0.140869	0.099854	0.513916
767.0	5.809273	-0.85441	8.28926	-0.060042	-0.41521	0.186639	-0.126221	0.113037	0.502197
768.0	6.256063	0.605442	8.857166	0.188961	-0.50306	0.156818	-0.114258	0.139404	0.483398
769.0	6.147541	-0.093437	8.194399	0.0574	-0.571518	0.108409	-0.126221	0.16333	0.483154
770.0	6.313364	0.017351	8.275233	0.119033	-0.616093	0.053337	-0.150635	0.174072	0.496582
771.0	6.210287	0.058959	8.371108	0.098378	-0.690892	0.004105	-0.156982	0.169678	0.503418
772.0	6.253021	0.490105	8.268498	0.148211	-0.773689	-0.029961	-0.15625	0.154297	0.508301
773.0	6.229926	0.802347	8.285342	0.099258	-0.854461	-0.019475	-0.157959	0.143555	0.508545
774.0	6.230678	1.013315	8.291739	0.118372	-0.958223	-0.005012	-0.159668	0.132568	0.517822
775.0	6.237211	1.323986	8.197515	0.116421	-1.044574	0.027785	-0.148926	0.134766	0.52002
776.0	6.367452	1.129216	8.189541	0.086331	-1.149373	0.03777	-0.14209	0.128174	0.517822
777.0	6.166221	1.233254	8.207115	0.122875	-1.240738	0.072708	-0.137939	0.130371	0.515625
778.0	6.41676	1.271559	8.227081	0.109258	-1.354484	0.103437	-0.133057	0.121826	0.524902
779.0	6.37687	1.067477	8.056337	0.095043	-1.465238	0.123795	-0.124512	0.126221	0.524902
780.0	6.680784	0.901217	8.067759	0.095371	-1.586101	0.139972	-0.119873	0.121826	0.531738
781.0	6.42906	0.983215	8.111447	0.095824	-1.713666	0.176237	-0.11792	0.121826	0.524902
782.0	6.623362	0.851777	7.929994	0.10034	-1.860218	0.199882	-0.111328	0.124023	0.531738
783.0	6.588794	1.035499	7.975401	0.096549	-2.044008	0.233713	-0.10498	0.126221	0.540771
784.0	6.692526	0.884824	7.820702	0.059375	-2.242383	0.264412	-0.098145	0.121826	0.538574
785.0	6.822449	0.926005	7.805655	0.065431	-2.442603	0.296212	-0.091797	0.124023	0.552246
786.0	6.778494	0.884737	7.680287	-0.004196	-2.661823	0.324249	-0.080566	0.119873	0.559082
787.0	6.749738	0.838889	7.469166	-0.007606	-2.92534	0.356706	-0.072266	0.126465	0.561279
788.0	6.606559	1.156725	7.752944	-0.001401	-3.212439	0.416105	-0.063232	0.119873	0.568115
789.0	6.302867	1.495243	7.964243	-0.02501	-3.543604	0.510151	-0.054443	0.117676	0.581787
790.0	5.991087	1.914598	8.351036	-0.060896	-4.053286	0.647368	-0.034668	0.115723	0.584229
791.0	7.556056	2.184339	8.603025	-0.072992	-4.743228	0.953188	-0.019531	0.11792	0.597656
792.0	5.785507	2.377872	10.586224	-0.01907	-5.150157	1.620695	0.000244	0.115723	0.602295
793.0	3.868611	4.554447	12.554504	-1.159932	-5.199669	1.186736	0.018311	0.102783	0.616211
794.0	7.421668	-2.286133	5.242542	-0.21285	-7.321685	1.530179	0.048584	0.109619	0.618408
795.0	12.181654	0.461963	9.577116	1.491545	-7.027339	1.915866	0.078369	0.122803	0.627197
796.0	17.062986	1.900878	9.302285	1.122175	-8.468011	1.937155	0.115967	0.114258	0.627197
797.0	20.381627	-0.057218	7.890517	1.458288	-8.73094	1.492901	0.143555	0.127686	0.640625
798.0	23.025361	3.921319	10.668997	1.892353	-8.834687	1.116005	0.176025	0.136475	0.64502
799.0	26.524753	6.840979	12.856649	0.964196	-8.575838	1.300345	0.204346	0.136719	0.64502
800.0	29.845016	5.822439	10.786328	2.554601	-7.195283	1.485285	0.214111	0.160889	0.637695
801.0	27.140251	12.825376	22.150524	4.060038	-6.190487	1.967531	0.232422	0.189209	0.636963
802.0	24.413417	11.7667	17.321139	0.004259	-2.644522	3.04451	0.228027	0.191406	0.639404
803.0	9.81935	10.827055	23.064252	1.21016	-0.975819	1.629276	0.225098	0.20874	0.648193
804.0	26.16182	30.139044	37.623424	1.035217	2.518476	-0.456299	0.193848	0.223877	0.661621
805.0	-18.266095	16.467512	16.333232	-4.408016	2.630081	-1.06218	0.17627	0.228027	0.666016
806.0	1.212817	-1.493752	16.792293	-2.283942	1.825406	-1.872964	0.147217	0.240967	0.686279
807.0	1.086199	0.510819	19.253364	-0.337134	2.848337	-2.276169	0.115234	0.273438	0.694824
808.0	2.042493	3.339938	19.533414	0.053842	3.833945	-2.126739	0.063965	0.301514	0.696533
809.0	3.175362	2.642581	17.929324	-0.441127	4.678444	-1.679984	0.006104	0.327393	0.703125
810.0	5.639909	0.116268	15.560972	-0.46621	5.530563	-1.385191	-0.077881	0.353027	0.682129
811.0	7.053918	-0.329105	13.617015	-0.162574	6.341364	-1.214913	-0.165771	0.36792	0.63623
812.0	8.455299	0.713187	11.584653	0.075009	7.005632	-1.135113	-0.249023	0.374023	0.567871
813.0	9.491702	2.21098	9.511879	0.010663	7.552983	-1.129026	-0.274658	0.363281	0.449707
814.0	9.410081	2.745862	7.218288	-0.265424	7.83882	-1.173208	-0.247314	0.335449	0.349854
815.0	9.475331	1.953744	5.5765	-0.530269	7.787696	-1.252367	-0.152588	0.312012	0.297852
816.0	10.015915	0.942489	4.479424	-0.524981	7.50946	-1.319247	-0.055908	0.297363	0.332275
817.0	10.136604	0.724916	4.696933	-0.348507	7.132012	-1.371663	-0.014648	0.301758	0.43457
818.0	11.010516	0.659663	5.679788	-0.25111	6.72533	-1.374837	-0.056641	0.314209	0.550537
819.0	12.09374	-0.051929	6.073029	-0.090558	6.418239	-1.343472	-0.176758	0.319824	0.632813
820.0	12.530511	0.532153	6.69782	0.065259	6.175989	-1.142125	-0.317871	0.305664	0.644531
821.0	12.474709	0.418404	7.455286	0.2634	5.916106	-0.881423	-0.447998	0.2854	0.592773
822.0	12.756829	1.027723	7.98433	0.524789	5.64745	-0.638639	-0.55127	0.256592	0.509033
823.0	13.018344	2.055592	8.404686	0.74875	5.417888	-0.477735	-0.615479	0.22583	0.418701
824.0	11.220633	2.476118	7.620011	0.867752	5.080755	-0.437582	-0.656982	0.182129	0.32373
825.0	9.934579	2.866207	6.858707	1.102791	4.44264	-0.524742	-0.679688	0.151611	0.244629
826.0	10.383097	3.324623	6.472881	1.191747	3.696184	-0.728295	-0.686768	0.116943	0.181396
827.0	11.009091	3.398147	6.406748	1.227689	2.918911	-1.008107	-0.682861	0.077881	0.111572
828.0	13.621585	2.933497	6.972816	1.050565	2.154638	-1.33403	-0.679443	0.047363	0.068848
829.0	19.964024	1.016539	8.804939	0.916905	1.70595	-1.736638	-0.6604	0.012695	0.026367
830.0	28.012866	-1.325006	10.041309	1.024595	1.962085	-2.267832	-0.641113	-0.028564	-0.009277
831.0	33.739353	-2.003112	8.344417	1.331204	2.966425	-2.809674	-0.609375	-0.056641	-0.052246
832.0	32.508893	1.59077	3.659455	1.196972	4.02245	-3.070386	-0.568359	-0.095459	-0.085693
833.0	27.184969	2.479442	-3.454954	-0.142767	4.308013	-2.947126	-0.539307	-0.110596	-0.119629
834.0	23.808055	-1.148656	-10.520025	-1.212822	3.618187	-2.554966	-0.506104	-0.123291	-0.144531
835.0	26.190069	-6.817019	-15.681686	-1.283776	2.51381	-2.183267	-0.48584	-0.134033	-0.157959
836.0	30.538539	-8.493459	-18.108427	-0.063814	1.663721	-1.884894	-0.463379	-0.14917	-0.162109
837.0	30.745953	-5.55192	-17.267916	0.56733	1.028623	-1.569988	-0.452393	-0.153564	-0.155273
838.0	25.735235	-3.305488	-15.658785	0.388673	0.267719	-1.24589	-0.44751	-0.164551	-0.164307
839.0	19.461843	5.032919	-15.918254	0.336553	-0.572314	-0.744535	-0.447998	-0.155762	-0.157471
840.0	9.318071	5.670603	-16.168539	-5.88998	-3.012218	0.721292	-0.463867	-0.138428	-0.15332
841.0	-8.757543	-23.713669	11.203283	-0.836063	-5.368971	1.453618	-0.479736	-0.125488	-0.119385
842.0	6.469236	4.393593	36.058408	-2.40051	-4.354823	1.279546	-0.504639	-0.10376	-0.117432
843.0	14.871267	-33.796714	-19.002253	-2.257077	-4.927166	0.698172	-0.52002	-0.101807	-0.074219
844.0	28.571092	11.879554	25.476966	3.753445	-5.465715	1.070922	-0.524658	-0.095459	-0.037842
845.0	20.048433	9.437148	9.032974	-1.299966	-3.925989	1.046751	-0.533936	-0.084717	0.000732
846.0	30.407262	9.035669	19.811287	-2.242405	-3.113438	0.890964	-0.536621	-0.071533	0.023193
847.0	14.816187	-17.397601	7.315576	-2.999473	-1.868773	0.864193	-0.534424	-0.07373	0.036865
848.0	20.909982	3.220597	14.484224	1.832346	0.313858	0.116866	-0.537109	-0.065186	0.032227
849.0	5.428252	0.885414	9.050407	-1.377727	-0.706903	-0.006132	-0.536865	-0.06958	0.039063
850.0	4.710108	1.221057	7.394654	0.470242	-0.039591	-0.125446	-0.536621	-0.073975	0.039307
851.0	7.244488	2.856193	9.255355	-0.362239	-0.11202	-0.11604	-0.538818	-0.073975	0.043701
852.0	6.017863	1.909526	8.089844	0.172398	-0.069957	-0.069434	-0.54126	-0.06958	0.036865
853.0	6.311324	2.325714	8.293991	-0.105039	-0.093881	0.018948	-0.536865	-0.067383	0.039063
854.0	6.06441	2.221447	8.562484	0.04279	-0.081635	0.094407	-0.539063	-0.065186	0.04126
855.0	6.292018	1.067704	8.184951	-0.082932	-0.100029	0.13292	-0.539063	-0.06958	0.041504
856.0	6.26031	0.726606	8.723063	-0.020372	-0.119955	0.11579	-0.54126	-0.065186	0.045898
857.0	6.25651	0.144357	8.508624	-0.022598	-0.144357	0.064679	-0.537109	-0.062988	0.045898
858.0	6.121739	0.724875	8.859908	-0.020067	-0.173499	0.020953	-0.536865	-0.067383	0.050537
859.0	6.22892	0.57119	8.590143	-0.010095	-0.196331	-0.0258	-0.534912	-0.062988	0.048096
860.0	6.109978	0.964596	8.510171	-0.021063	-0.226097	-0.055505	-0.539063	-0.065186	0.052734
861.0	5.956476	1.294385	8.647311	-0.028425	-0.261064	-0.064073	-0.534668	-0.06958	0.057373
862.0	6.203656	1.165413	8.144598	0.045014	-0.303727	-0.082571	-0.539063	-0.067383	0.057373
863.0	6.02778	0.864201	8.287473	0.026921	-0.350843	-0.098852	-0.536865	-0.06958	0.062012
864.0	6.159391	1.607911	8.353503	0.123139	-0.344935	-0.095328	-0.54541	-0.073975	0.06665
865.0	6.274199	1.538754	8.124391	0.070132	-0.332704	-0.07349	-0.539063	-0.06958	0.066406
866.0	6.368837	1.507218	8.02235	0.090357	-0.307182	-0.04893	-0.540771	-0.076172	0.068848
867.0	6.452207	1.625094	7.882385	0.127105	-0.247965	-0.017843	-0.536133	-0.082764	0.071289
868.0	6.67226	1.510348	7.576244	0.077426	-0.156164	0.001865	-0.53833	-0.084961	0.078125
869.0	6.571717	1.281682	7.318416	0.043377	-0.032975	0.002076	-0.520508	-0.091309	0.071533
870.0	6.261156	1.982555	7.772592	0.043926	0.050766	0.012109	-0.503418	-0.086914	0.064453
871.0	6.164941	1.35724	7.576276	0.034485	0.099101	0.026049	-0.493652	-0.060547	0.048096
872.0	6.111949	1.618303	8.115	0.011965	0.110498	0.04244	-0.506104	-0.025635	0.033691
873.0	6.316937	1.368418	7.896471	0.06745	0.115474	0.058992	-0.530762	-0.010498	0.04248
874.0	6.313328	1.363579	7.976443	0.017375	0.124998	0.07318	-0.550049	-0.015137	0.053955
875.0	6.248481	1.153768	8.147771	0.02389	0.117211	0.081908	-0.560547	-0.02832	0.058838
876.0	6.22354	0.954403	8.168704	0.034628	0.087146	0.070026	-0.553223	-0.045654	0.063721
877.0	6.127767	1.159267	8.385925	0.040836	0.056966	0.059825	-0.550781	-0.050049	0.061523
878.0	6.04598	0.783016	8.494765	0.007683	-0.001228	0.048596	-0.54834	-0.056641	0.068604
879.0	5.955366	0.754835	8.520661	0.047794	-0.100665	0.018617	-0.548096	-0.061035	0.068604
880.0	5.851002	0.801058	8.594236	0.079324	-0.220375	-0.000942	-0.543701	-0.058594	0.068604
881.0	5.740225	0.942839	8.788439	0.142044	-0.371958	-0.013236	-0.541748	-0.056396	0.068604
882.0	5.156483	1.623933	8.864647	0.252041	-0.539164	0.010547	-0.543701	-0.058838	0.075439
883.0	5.583067	1.558361	9.087677	0.065234	-0.815009	0.064245	-0.543457	-0.065186	0.080078
884.0	5.282881	1.60272	9.118905	0.233623	-1.04038	0.114145	-0.541504	-0.061035	0.09375
885.0	5.268802	1.709063	9.0695	0.188447	-1.318889	0.157003	-0.539551	-0.056641	0.095947
886.0	5.344294	1.638678	9.089803	0.218552	-1.613755	0.205092	-0.535156	-0.058838	0.107422
887.0	5.472629	1.35047	9.057055	0.223401	-1.900974	0.218241	-0.539551	-0.056641	0.116455
888.0	5.653871	0.437325	8.779979	0.21986	-2.223117	0.179444	-0.541504	-0.058838	0.132324
889.0	5.559258	0.726812	9.054115	0.339715	-2.53908	0.12623	-0.543945	-0.054443	0.145996
890.0	5.762435	-0.062778	9.003286	0.219563	-2.866594	0.025666	-0.546143	-0.05249	0.166504
891.0	5.590184	0.128592	8.987064	0.406705	-3.160696	-0.067919	-0.539551	-0.054688	0.189209
892.0	5.476734	1.273883	9.394991	0.451697	-3.49498	-0.085258	-0.5354	-0.05249	0.214355
893.0	4.809352	1.734079	9.561369	0.285395	-3.953962	-0.03081	-0.5354	-0.05249	0.243896
894.0	4.574127	1.601472	9.649728	0.251476	-4.595185	0.050083	-0.528809	-0.05249	0.273438
895.0	4.079901	1.845787	10.137368	0.239639	-5.308737	0.109142	-0.5271	-0.041748	0.309814
896.0	5.395554	2.683684	10.406858	0.23352	-6.177801	0.190148	-0.507324	-0.043945	0.35083
897.0	7.388785	2.436459	12.450241	0.248577	-6.607511	0.800022	-0.496826	-0.037354	0.382568
898.0	1.976503	1.844533	9.200377	-0.452204	-6.773304	0.144287	-0.479248	-0.039551	0.435059
899.0	10.978695	0.422566	9.560054	1.129709	-9.013253	0.336858	-0.455566	-0.030762	0.494141
900.0	19.661936	2.184374	9.918777	1.634612	-9.342555	0.223872	-0.423584	-0.015625	0.54834
901.0	19.012098	-0.781289	10.219698	2.15983	-9.38262	-0.098287	-0.380615	-0.002197	0.605225
902.0	24.760783	4.450769	12.765922	3.148248	-8.8951	-0.664716	-0.346191	0.010986	0.652588
903.0	30.70032	11.911987	13.01361	3.524504	-7.606185	-0.165333	-0.310303	0.039551	0.684082
904.0	22.523344	8.169932	15.292768	3.935731	-6.895388	0.625315	-0.276367	0.061523	0.713135
905.0	26.308815	3.327655	21.325854	3.226334	-5.054889	1.6012	-0.249512	0.092041	0.73291
906.0	4.083225	11.101549	22.340928	5.920486	-2.388055	1.61303	-0.234375	0.142334	0.734375
907.0	33.120495	31.965616	40.597384	2.644378	-0.930096	0.63513	-0.235107	0.159912	0.729492
908.0	-7.398387	19.370243	24.698364	-2.662354	3.903033	0.414517	-0.247803	0.151123	0.718262
909.0	-12.710364	5.3582	15.241637	-1.271888	2.377996	-0.340178	-0.260986	0.153076	0.706787
910.0	-6.71084	4.916724	15.739386	-0.680666	2.207183	-0.92775	-0.265381	0.153076	0.699951
911.0	-1.880774	7.989857	17.828157	-0.4183	2.582317	-1.160753	-0.278564	0.157471	0.686279
912.0	2.318051	6.261986	18.853477	-1.41518	3.576239	-1.042484	-0.29126	0.148682	0.661377
913.0	3.915375	2.187098	16.773607	-1.788901	4.588935	-0.800643	-0.306885	0.155273	0.649902
914.0	5.357474	-0.702278	14.326036	-1.699681	5.415341	-0.450781	-0.337402	0.157227	0.631592
915.0	7.086555	-0.970275	12.248537	-1.138864	6.137138	-0.095789	-0.36377	0.161621	0.594971
916.0	8.822616	1.395769	11.10871	-0.969885	6.787032	0.236148	-0.392822	0.174561	0.562988
917.0	9.017866	2.449489	9.112864	-1.150067	7.284748	0.55182	-0.413086	0.1875	0.528564
918.0	9.327253	2.281591	7.641247	-1.300045	7.463335	0.750887	-0.444336	0.205078	0.47583
919.0	10.280503	2.138828	6.66387	-1.128246	7.488828	0.789698	-0.459961	0.213623	0.43457
920.0	11.124303	3.337995	6.379557	-0.893401	7.386116	0.731548	-0.4729	0.207275	0.398193
921.0	11.165718	3.844129	6.355506	-0.79643	7.195636	0.607751	-0.486084	0.211426	0.364014
922.0	11.502769	3.851507	6.673138	-0.625914	6.901763	0.413362	-0.505615	0.211426	0.33667
923.0	12.193342	2.917004	6.985697	-0.416168	6.60754	0.181209	-0.525879	0.224609	0.300049
924.0	12.630875	3.089598	7.297273	0.009359	6.27518	0.041884	-0.541504	0.229004	0.26123
925.0	13.013811	3.148249	7.883551	0.433815	5.934035	-0.048166	-0.556885	0.235352	0.224609
926.0	13.490525	4.223244	8.355321	0.819578	5.607164	-0.131219	-0.568359	0.246338	0.181152
927.0	13.049054	4.941902	8.023675	0.916234	5.243673	-0.198402	-0.577393	0.25293	0.133057
928.0	12.896309	4.364672	7.590383	0.971108	4.68916	-0.326034	-0.586426	0.257324	0.089844
929.0	13.282177	3.748542	6.885882	1.084149	4.070266	-0.555729	-0.597168	0.255371	0.060059
930.0	13.303704	3.651438	6.043192	1.075855	3.344588	-0.872724	-0.605469	0.246582	0.021729
931.0	14.765345	3.55618	5.695188	0.829761	2.585177	-1.20756	-0.614014	0.244385	-0.005615
932.0	18.169388	3.142669	6.239582	0.388144	2.015372	-1.506033	-0.617188	0.218262	-0.041748
933.0	22.186195	0.864351	7.205713	-0.197767	1.8232	-1.760117	-0.623535	0.209473	-0.071045
934.0	26.801208	-3.397096	6.774998	-0.410981	2.063617	-2.071693	-0.628906	0.187744	-0.100342
935.0	29.611668	-5.208832	4.393231	0.077201	2.784323	-2.314838	-0.616943	0.161865	-0.138428
936.0	27.19905	-2.825109	1.05633	0.278175	3.382658	-2.289517	-0.609131	0.133545	-0.176758
937.0	23.976163	-1.602516	-2.841164	-0.214457	3.471413	-1.999135	-0.588867	0.120605	-0.212891
938.0	22.735819	-3.211468	-5.896724	-0.68996	3.152237	-1.611468	-0.579834	0.109863	-0.23999
939.0	24.202304	-6.100219	-7.851531	-0.577851	2.778321	-1.331241	-0.555176	0.096924	-0.269531
940.0	25.509833	-7.077794	-10.010655	0.083561	2.569408	-1.189546	-0.545898	0.081787	-0.291992
941.0	22.285255	-5.559379	-12.120858	0.545969	2.175376	-1.002849	-0.534668	0.075439	-0.307861
942.0	19.283879	-3.452723	-13.059984	0.430846	1.262795	-0.689427	-0.523193	0.064697	-0.314453
943.0	15.502588	6.584407	-12.843589	-0.085699	0.098204	0.094913	-0.534668	0.077637	-0.316895
944.0	15.464718	-2.934083	-24.405418	-6.523968	-2.917151	1.170171	-0.5625	0.112305	-0.299316
945.0	-15.43447	-45.203587	-17.573131	-1.972329	-4.597237	1.118521	-0.592773	0.109863	-0.258301
946.0	27.737166	-3.224076	34.401324	6.466164	-7.387584	1.114822	-0.610107	0.105225	-0.228516
947.0	25.462669	4.403794	4.604572	-1.840749	-4.159296	1.502427	-0.634766	0.120361	-0.199219
948.0	18.215771	17.26138	8.875039	3.553919	-4.817418	0.648641	-0.645508	0.115723	-0.155762
949.0	27.604836	14.059343	22.04654	-3.031521	-3.844539	-0.007794	-0.658936	0.124268	-0.121826
950.0	26.844006	-13.642639	11.220892	-1.737605	-2.865914	0.503826	-0.668213	0.135254	-0.101563
951.0	9.737759	-2.770083	8.485728	0.103684	-0.85809	0.52494	-0.668213	0.137207	-0.081055
952.0	18.357908	2.330773	17.707283	3.1e-05	-1.482447	-0.064896	-0.677002	0.141602	-0.072021
953.0	3.752557	-0.216361	2.952532	-0.629639	0.47424	0.037603	-0.672607	0.139404	-0.06958
954.0	9.917847	4.521686	11.056816	0.301044	-0.33088	-0.169077	-0.672119	0.126221	-0.064941
955.0	6.811834	1.169425	7.679675	-0.407178	-0.180208	-0.071497	-0.674561	0.132813	-0.064941
956.0	6.526671	2.356122	8.446907	0.113018	-0.078331	-0.039921	-0.67041	0.139404	-0.065186
957.0	6.237958	2.383993	8.494132	0.03218	-0.022969	0.011695	-0.672607	0.137207	-0.058105
958.0	6.419384	0.947732	8.298688	-0.025523	-0.024135	0.072989	-0.672607	0.139404	-0.060547
959.0	6.274897	1.617174	8.637237	0.079842	-0.019503	0.089347	-0.675049	0.143799	-0.065186
960.0	6.231557	0.765445	8.38925	-0.042153	-0.035246	0.100377	-0.67041	0.139404	-0.055908
961.0	6.191271	0.576693	8.723336	-0.004165	-0.054373	0.060205	-0.672852	0.143799	-0.05835
962.0	6.147402	0.454382	8.64315	-0.004432	-0.064209	0.006638	-0.672852	0.141602	-0.05835
963.0	6.104437	0.722158	8.672018	-0.003059	-0.08656	-0.027298	-0.675049	0.143799	-0.056152
964.0	6.087123	0.314549	8.482729	-0.03084	-0.099474	-0.082275	-0.67041	0.137207	-0.058105
965.0	6.069864	0.830157	8.541681	0.004088	-0.118714	-0.114861	-0.672363	0.13501	-0.058105
966.0	6.050769	1.183454	8.399106	-0.009719	-0.129216	-0.128665	-0.67041	0.137207	-0.053711
967.0	5.88042	2.096865	8.276686	0.016434	-0.125012	-0.099806	-0.668457	0.141602	-0.051514
968.0	5.814478	2.316949	8.327375	-0.050267	-0.106422	-0.037901	-0.670166	0.132813	-0.049072
969.0	5.96958	1.735687	8.105895	-0.057667	-0.088689	-0.003972	-0.670166	0.130615	-0.049072
970.0	6.076382	1.462866	8.164786	-0.018136	-0.051903	-0.003738	-0.683105	0.128418	-0.046631
971.0	6.030321	1.391213	8.112115	0.016806	-0.02724	-0.009772	-0.672363	0.132813	-0.049072
972.0	5.957448	1.586896	8.118393	0.0155	-0.018519	0.01633	-0.674072	0.124023	-0.041992
973.0	5.961498	1.701556	8.267799	-0.025328	-0.017794	0.054901	-0.667725	0.126221	-0.041992
974.0	6.039464	1.451279	8.257378	-0.038722	-0.027507	0.085398	-0.663086	0.119873	-0.039551
975.0	6.185729	0.94134	7.943853	-0.044963	-0.009093	0.078138	-0.654053	0.115479	-0.048584
976.0	6.066369	1.462539	8.184276	-0.008222	0.004496	0.093257	-0.634766	0.12207	-0.051025
977.0	6.064826	1.143152	8.003622	-0.041716	0.016429	0.104483	-0.631592	0.148438	-0.062988
978.0	6.016735	1.27769	8.10899	-0.009729	0.031808	0.101375	-0.639648	0.181152	-0.074951
979.0	5.969581	1.362164	8.286296	-0.001944	0.039159	0.118213	-0.659668	0.189697	-0.070557
980.0	5.922761	1.178424	8.429651	-0.012572	0.02381	0.122628	-0.678955	0.185303	-0.061523
981.0	5.925161	1.387213	8.535563	0.021178	0.002147	0.140244	-0.680908	0.176514	-0.052246
982.0	5.949144	1.237329	8.383201	-0.016855	-0.016392	0.154021	-0.682373	0.16333	-0.051758
983.0	5.978402	1.201653	8.404628	-0.007679	-0.043971	0.159559	-0.675781	0.158936	-0.047119
984.0	5.9647	0.912532	8.636252	-0.064334	-0.083354	0.148745	-0.677979	0.158936	-0.038086
985.0	6.019602	1.00638	8.438037	0.017844	-0.107704	0.132212	-0.675781	0.161133	-0.040527
986.0	6.009264	0.848514	8.547311	-0.022319	-0.160493	0.104239	-0.673096	0.150391	-0.04248
987.0	6.052482	0.76556	8.630245	0.002994	-0.222576	0.070794	-0.669189	0.161133	-0.038086
988.0	5.430134	0.309316	9.200629	0.018538	-0.346809	0.014973	-0.671387	0.158936	-0.040283
989.0	5.207092	-0.217624	8.626864	0.263754	-0.590951	-0.050855	-0.666748	0.154541	-0.033447
990.0	4.688577	2.85112	10.540763	0.234614	-0.90648	0.020827	-0.675537	0.154541	-0.028809
991.0	5.399124	0.241829	8.275546	0.137328	-1.148901	0.022359	-0.675293	0.150146	-0.02417
992.0	5.3668	1.226491	9.366098	0.229262	-1.439778	0.032457	-0.675293	0.152344	-0.012939
993.0	5.438387	0.57091	8.995765	0.226381	-1.74669	-0.001988	-0.675293	0.152344	0.00293
994.0	5.388005	0.814687	9.136926	0.366373	-2.029151	-0.011402	-0.681641	0.145752	0.023682
995.0	5.372885	1.068604	9.068816	0.330153	-2.328136	-0.026136	-0.688477	0.154297	0.030273
996.0	5.464342	0.660347	9.063984	0.321304	-2.660212	-0.060324	-0.686035	0.145508	0.060059
997.0	5.373667	0.941083	9.338324	0.429253	-2.976226	-0.064638	-0.696777	0.145508	0.07373
998.0	5.129301	1.868012	9.552288	0.470511	-3.290931	-0.02983	-0.69458	0.143311	0.105713
999.0	5.003963	2.544738	9.724029	0.361876	-3.702882	0.11979	-0.698975	0.145264	0.139893
1000.0	4.681308	2.25246	9.535441	0.174509	-4.213677	0.278197	-0.696777	0.143066	0.165039
1001.0	4.483655	1.822123	9.521507	0.146638	-4.840233	0.442505	-0.697021	0.147217	0.210449
1002.0	4.162628	2.295277	9.964438	0.084969	-5.546928	0.581029	-0.688721	0.156006	0.260498
1003.0	6.010226	3.262443	10.039041	-0.004828	-6.449272	0.785257	-0.679932	0.157959	0.30835
1004.0	6.033165	2.947481	12.236397	-0.039752	-6.805009	1.507001	-0.671631	0.166748	0.360596
1005.0	3.026772	3.946319	10.250183	-0.955122	-6.990969	0.847562	-0.6521	0.171143	0.428711
1006.0	11.567518	0.753768	9.180145	0.619608	-9.305558	1.313937	-0.630859	0.181885	0.499268
1007.0	18.987485	1.910221	9.645191	1.376334	-8.965365	1.362309	-0.596924	0.203857	0.564941
1008.0	20.429149	0.306737	9.151818	1.810689	-9.755376	1.131001	-0.557861	0.210449	0.630859
1009.0	26.177642	7.099467	12.853449	2.080963	-9.673093	0.62587	-0.512939	0.22583	0.689697
1010.0	27.214282	7.014681	12.295362	2.392635	-8.607632	1.05772	-0.468018	0.25	0.737061
1011.0	26.679364	8.395811	14.120549	3.955075	-7.596189	1.482744	-0.424072	0.291748	0.772705
1012.0	25.744457	14.977525	26.207894	2.774611	-5.306894	2.383487	-0.396729	0.311523	0.790527
1013.0	11.03768	5.158235	17.936028	1.587973	-3.146439	2.807137	-0.375977	0.335449	0.803467
1014.0	26.507139	9.387342	24.276296	2.255245	-2.495492	1.81415	-0.359619	0.361816	0.802979
1015.0	17.930168	21.733322	31.904852	0.695755	3.243438	1.103915	-0.383301	0.353027	0.782715
1016.0	-6.694384	11.075002	17.594053	-2.140936	3.265571	0.797953	-0.400146	0.342041	0.769287
1017.0	-8.78601	1.759048	13.836975	-1.939778	3.054735	0.45543	-0.419678	0.335449	0.76709
1018.0	-4.30663	-1.650696	12.553979	-0.378744	2.89586	-0.006958	-0.438965	0.328613	0.744629
1019.0	-0.680135	3.355916	15.250878	0.327422	3.413517	-0.319096	-0.456543	0.335205	0.712402
1020.0	0.35743	6.097691	15.809831	-0.10179	4.209924	-0.334576	-0.486572	0.322021	0.699219
1021.0	1.808984	5.003723	14.522494	-0.843009	4.894383	-0.306499	-0.512451	0.31543	0.66748
1022.0	3.71438	2.505405	12.604438	-0.955582	5.560544	-0.432332	-0.546875	0.302246	0.635742
1023.0	5.459192	2.415333	10.96436	-0.602943	6.160708	-0.682655	-0.572754	0.299805	0.583496
1024.0	7.013127	4.557576	9.993662	-0.505943	6.656563	-0.901831	-0.60498	0.284424	0.540527
1025.0	8.25839	5.058535	8.646678	-0.776074	7.00291	-1.05274	-0.637451	0.280029	0.476807
1026.0	9.141394	4.085102	7.492941	-1.002921	7.182432	-1.168642	-0.6604	0.258301	0.415771
1027.0	9.815117	2.730976	6.546286	-0.922226	7.20945	-1.274576	-0.672607	0.23877	0.352295
1028.0	10.417369	2.377443	6.216759	-0.633786	7.075034	-1.343784	-0.677979	0.208252	0.29126
1029.0	11.383911	1.939847	6.363598	-0.373407	6.825877	-1.344526	-0.681152	0.182129	0.237305
1030.0	12.844505	1.313089	7.170449	-0.003308	6.550286	-1.309578	-0.679688	0.151855	0.201416
1031.0	14.438874	0.857592	7.607732	0.353718	6.347049	-1.239959	-0.678711	0.130127	0.153809
1032.0	15.26633	0.759934	7.880098	0.746131	6.133978	-1.073259	-0.687012	0.116943	0.108643
1033.0	15.057235	0.126525	7.67431	1.081076	5.872292	-0.873714	-0.67749	0.099854	0.065674
1034.0	14.292037	0.142421	7.246556	1.520367	5.460636	-0.694648	-0.672363	0.086914	0.022461
1035.0	13.624188	1.313403	6.835572	1.905128	4.896557	-0.551072	-0.654541	0.078369	-0.013672
1036.0	13.934733	3.2695	7.459863	1.874844	4.211173	-0.432012	-0.651611	0.056641	-0.040771
1037.0	14.403006	3.995557	7.386141	1.454456	3.563725	-0.303864	-0.640381	0.054443	-0.065674
1038.0	15.270768	2.879182	7.401121	0.956399	2.924431	-0.25865	-0.631104	0.039307	-0.085938
1039.0	17.185425	0.702011	7.05478	0.639926	2.40873	-0.371423	-0.617676	0.030762	-0.099365
1040.0	20.166491	-1.287851	6.709736	0.661031	2.106717	-0.622101	-0.606201	0.017822	-0.112793
1041.0	24.159512	-1.845134	6.678312	0.921255	2.12139	-0.934874	-0.601318	0.004639	-0.121826
1042.0	28.27162	-1.106702	6.056681	0.890858	2.525895	-1.253103	-0.589844	-0.008301	-0.139648
1043.0	30.327601	-0.275784	4.168816	0.595533	3.31692	-1.548841	-0.56958	-0.02124	-0.166992
1044.0	28.73651	-0.22954	0.96104	0.023251	4.103648	-1.815001	-0.55127	-0.03833	-0.193848
1045.0	24.502106	-1.215357	-3.545813	-0.535131	4.477112	-2.033553	-0.526611	-0.055664	-0.220947
1046.0	20.731659	-3.095683	-7.76155	-0.823773	4.223143	-2.188583	-0.506348	-0.066406	-0.243652
1047.0	19.571341	-4.775114	-11.701364	-0.686139	3.490336	-2.295765	-0.490723	-0.079346	-0.268311
1048.0	19.505794	-5.736434	-13.963771	-0.443839	2.478624	-2.244748	-0.474854	-0.092285	-0.279541
1049.0	21.324366	-6.008867	-13.34518	-0.334156	1.422657	-1.994452	-0.467773	-0.101074	-0.283936
1050.0	22.459988	-6.273438	-11.936323	-0.764137	0.67931	-1.572489	-0.458984	-0.105225	-0.295166
1051.0	21.465039	-7.857719	-9.579549	-1.385453	0.141902	-1.056355	-0.465576	-0.103027	-0.290771
1052.0	19.774969	-10.177027	-8.380476	-1.475287	-0.283961	-0.658181	-0.461182	-0.103027	-0.29541
1053.0	11.80841	-5.092187	-5.310234	-0.897983	-0.807677	-0.044774	-0.4729	-0.085693	-0.281982
1054.0	-25.535149	-10.443434	-5.300912	-1.715716	-2.44718	1.104994	-0.499023	-0.088135	-0.259033
1055.0	-9.181469	3.488044	28.620819	2.171859	-7.359896	1.383041	-0.530029	-0.077393	-0.227295
1056.0	32.80431	-0.076087	-1.601671	-2.324938	-6.162161	-0.071758	-0.555908	-0.079834	-0.188477
1057.0	29.052045	9.741062	17.824552	1.328571	-4.310029	-0.258514	-0.571289	-0.077881	-0.1521
1058.0	18.850496	-2.801079	14.285191	-2.582923	-3.979827	-0.113968	-0.584717	-0.071533	-0.127197
1059.0	16.094855	-9.790232	8.491739	-0.332995	-3.389443	-0.020014	-0.59375	-0.062988	-0.099854
1060.0	24.212456	-1.153325	17.696525	0.004807	-2.791707	0.299557	-0.604736	-0.060791	-0.077148
1061.0	12.803707	1.301464	9.016881	-1.397629	-0.461799	0.634037	-0.60498	-0.056641	-0.068115
1062.0	9.457098	-2.311111	11.487816	-0.358937	-1.61623	0.267303	-0.60498	-0.054443	-0.054443
1063.0	13.722523	-1.084457	6.278757	-0.29264	0.154219	0.194157	-0.60498	-0.054443	-0.052246
1064.0	8.613955	7.885496	11.864177	0.346037	-0.264574	0.042799	-0.607178	-0.054443	-0.050049
1065.0	6.3966	-1.960903	5.994669	-1.277964	-0.194504	0.149105	-0.605469	-0.047852	-0.050049
1066.0	6.200578	3.798598	9.694352	0.31089	-0.073095	0.170116	-0.605225	-0.052246	-0.047607
1067.0	6.39598	0.844149	7.914864	-0.706327	-0.082403	0.204773	-0.605469	-0.045654	-0.045654
1068.0	6.2545	1.45074	8.736608	-0.114423	-0.043274	0.216855	-0.607666	-0.047852	-0.047852
1069.0	5.941711	0.858105	8.317876	-0.271798	-0.047362	0.197325	-0.60791	-0.039307	-0.041016
1070.0	6.17498	0.664483	8.569064	-0.20785	-0.041778	0.172909	-0.603516	-0.043457	-0.041016
1071.0	6.054599	0.103104	8.490375	-0.137503	-0.054629	0.121582	-0.601318	-0.04126	-0.041016
1072.0	5.869291	0.592544	8.539369	-0.039715	-0.062831	0.079525	-0.605713	-0.04126	-0.036621
1073.0	5.960737	0.870677	8.392512	-0.088692	-0.061641	0.067566	-0.603271	-0.045654	-0.038818
1074.0	5.900567	1.315579	8.485901	-0.030885	-0.044472	0.081929	-0.607666	-0.045654	-0.043213
1075.0	5.916033	1.625005	8.270835	-0.021921	-0.029762	0.096388	-0.60791	-0.041504	-0.03418
1076.0	5.858186	1.940087	8.205978	-0.020772	0.001846	0.136197	-0.60791	-0.039307	-0.038818
1077.0	6.034763	1.739377	7.941528	-0.057944	0.047007	0.19675	-0.605957	-0.034912	-0.036621
1078.0	5.958174	1.099074	8.274622	-0.000198	0.070113	0.211428	-0.608154	-0.034912	-0.036621
1079.0	6.205742	0.777979	8.024113	0.037669	0.090665	0.20927	-0.608398	-0.030518	-0.027588
1080.0	6.042005	0.422246	8.534112	0.144748	0.077665	0.194464	-0.612305	-0.039307	-0.027344
1081.0	6.081625	0.527491	8.253315	0.154014	0.062409	0.166157	-0.605957	-0.032715	-0.029785
1082.0	5.96218	0.356664	8.754463	0.174009	0.046727	0.14851	-0.605713	-0.039307	-0.027344
1083.0	6.198319	0.550829	8.404514	0.177297	0.019222	0.118127	-0.59668	-0.045654	-0.025146
1084.0	6.123309	0.549476	8.23277	0.189394	0.027417	0.109321	-0.583496	-0.047852	-0.025146
1085.0	5.929155	0.542576	8.624456	0.182003	-0.000836	0.091203	-0.568848	-0.036865	-0.043457
1086.0	6.12076	0.712822	8.244722	0.148439	-0.008308	0.08024	-0.561523	-0.003906	-0.057861
1087.0	6.101893	0.542571	8.300363	0.134831	-0.024933	0.073406	-0.577881	0.022217	-0.060547
1088.0	5.979033	0.876989	8.719413	0.132005	-0.049487	0.075369	-0.595703	0.030762	-0.056152
1089.0	6.066271	0.388393	8.474752	0.049804	-0.083501	0.067979	-0.612793	0.017578	-0.046875
1090.0	5.949636	0.685664	8.71541	0.094407	-0.123874	0.056909	-0.616699	0.008789	-0.035156
1091.0	6.038167	0.489672	8.46735	0.044484	-0.183751	0.054497	-0.614258	0.002197	-0.030518
1092.0	5.759255	0.818835	8.58375	0.078531	-0.237227	0.061198	-0.611572	-0.006592	-0.023438
1093.0	5.482678	1.87863	9.003767	0.009577	-0.374277	0.110719	-0.611328	-0.010986	-0.028076
1094.0	5.548348	0.103085	8.926651	-0.232383	-0.5118	0.108207	-0.613525	-0.010986	-0.023438
1095.0	5.301742	-0.133793	8.414126	0.225199	-0.710821	0.079547	-0.613525	-0.010986	-0.016602
1096.0	5.625606	0.954549	9.216074	0.030481	-0.876894	0.078141	-0.615479	-0.015381	-0.011963
1097.0	5.611964	0.493039	8.879525	0.191768	-1.070385	0.083753	-0.613525	-0.013184	-0.00293
1098.0	5.59427	0.839627	8.895804	0.175755	-1.263488	0.092839	-0.615723	-0.013184	0.006104
1099.0	5.665583	0.731206	8.786431	0.208183	-1.454647	0.093188	-0.620117	-0.010986	0.022217
1100.0	5.791453	0.925398	8.882973	0.217706	-1.652492	0.100184	-0.61792	-0.010986	0.029053
1101.0	5.90288	0.879436	8.58161	0.196225	-1.839846	0.10301	-0.620117	-0.013428	0.047363
1102.0	6.011061	1.07447	8.608293	0.19057	-2.02813	0.120618	-0.626709	-0.01123	0.056396
1103.0	6.042518	1.047218	8.618787	0.161131	-2.240401	0.151371	-0.622314	-0.009033	0.070068
1104.0	5.912479	0.904189	8.838555	0.146594	-2.510753	0.199339	-0.635254	-0.01123	0.085938
1105.0	5.948372	0.814836	8.933144	0.146224	-2.811702	0.253103	-0.633301	-0.009277	0.113281
1106.0	5.671518	1.018522	9.111952	0.208785	-3.168146	0.340294	-0.630859	-0.015869	0.13623
1107.0	5.19804	1.650725	9.565256	0.201656	-3.61741	0.504538	-0.635742	-0.000732	0.167725
1108.0	4.695797	2.477242	9.677272	0.188897	-4.219206	0.756671	-0.638184	0.005859	0.199707
1109.0	4.39812	2.128557	10.756145	-0.054496	-5.047301	1.009254	-0.63208	0.012207	0.240479
1110.0	3.348541	3.348223	11.314875	-0.023253	-5.823593	1.328426	-0.628174	0.025391	0.290283
1111.0	4.944072	4.028545	10.803455	-0.345123	-6.945332	1.767834	-0.624512	0.03833	0.344727
1112.0	5.412436	3.066845	12.322551	-0.063393	-7.900283	2.984244	-0.612305	0.060059	0.401367
1113.0	4.081057	5.7783	15.293172	-1.354565	-7.714664	2.282509	-0.597412	0.068604	0.462646
1114.0	16.623114	-3.309466	4.581939	-0.036048	-10.089668	2.671067	-0.561279	0.088379	0.537354
1115.0	23.118961	2.048106	9.443999	1.911528	-9.616382	2.511521	-0.527344	0.112549	0.605225
1116.0	26.735308	2.551955	9.177677	1.16294	-9.973506	1.878232	-0.484619	0.130127	0.668701
1117.0	27.967479	3.040701	12.112187	1.421287	-9.273639	1.691422	-0.446533	0.158447	0.720459
1118.0	22.907508	5.075827	10.636089	4.074742	-7.892071	1.950383	-0.397949	0.193604	0.767578
1119.0	26.680264	14.698867	26.093444	3.747072	-6.997743	2.198073	-0.360352	0.22876	0.789795
1120.0	19.068012	6.126648	17.660353	0.610906	-3.287131	2.746939	-0.34375	0.250732	0.807373
1121.0	17.282359	6.53294	27.320237	2.325601	-1.858395	1.367544	-0.340576	0.274658	0.811523
1122.0	27.251765	30.440778	37.865481	2.372878	3.837107	-0.309439	-0.384277	0.278809	0.786377
1123.0	-16.488347	21.407862	16.334471	-3.8973	4.09168	-0.963964	-0.404541	0.241699	0.773438
1124.0	-5.284863	1.858777	11.683423	-3.390125	2.968544	-1.888442	-0.422852	0.213135	0.765137
1125.0	-0.325609	-0.404415	13.285702	-1.169774	3.254567	-2.47857	-0.448486	0.199951	0.738037
1126.0	1.870669	3.035198	15.407586	-0.338028	3.982873	-2.662461	-0.478027	0.177979	0.720215
1127.0	3.486376	4.157559	16.162194	-0.960291	4.755897	-2.385961	-0.511719	0.153809	0.688721
1128.0	5.788247	0.494602	14.40248	-1.327113	5.558187	-2.087665	-0.545898	0.13623	0.650391
1129.0	6.666269	-1.754249	12.13288	-1.129526	6.309441	-1.87466	-0.57373	0.123047	0.600586
1130.0	6.763347	-1.132348	10.223707	-0.620479	6.81874	-1.679417	-0.609863	0.105469	0.546387
1131.0	7.310584	0.439159	8.874779	-0.563481	7.096846	-1.458521	-0.633545	0.09668	0.484863
1132.0	8.029315	0.53007	7.803855	-0.66202	7.223083	-1.278107	-0.65918	0.085938	0.414551
1133.0	8.862988	0.143166	6.942849	-0.638529	7.214281	-1.209974	-0.669922	0.081543	0.346191
1134.0	9.573593	0.271499	6.649622	-0.503312	7.070049	-1.228113	-0.671143	0.060059	0.280518
1135.0	10.597659	0.436111	6.581137	-0.382895	6.825571	-1.263095	-0.667969	0.036133	0.221924
1136.0	11.591092	0.77361	7.200218	-0.292398	6.559771	-1.276651	-0.662109	0.003662	0.179199
1137.0	12.607605	1.633559	7.95177	-0.199673	6.35771	-1.263149	-0.652832	-0.009277	0.135986
1138.0	13.837001	0.659157	8.492609	-0.270667	6.170251	-1.171433	-0.654541	-0.020264	0.099854
1139.0	13.226531	-0.668469	8.956775	-0.029867	5.987506	-1.060488	-0.66333	-0.022217	0.054199
1140.0	12.300384	-2.883213	8.453749	0.508956	5.696104	-0.966504	-0.654053	-0.032959	0.01123
1141.0	11.95141	-3.359268	7.37727	1.459905	5.196477	-0.842559	-0.634033	-0.041504	-0.025146
1142.0	13.189521	-0.193467	7.358709	2.084732	4.534263	-0.598226	-0.631348	-0.05249	-0.063721
1143.0	14.657919	1.639977	6.61191	2.119604	3.895466	-0.348067	-0.622559	-0.056641	-0.088623
1144.0	15.48012	2.16231	6.437845	1.750562	3.255257	-0.277725	-0.615479	-0.067383	-0.113525
1145.0	17.030012	0.998943	6.17968	1.325673	2.626934	-0.450946	-0.606445	-0.073975	-0.126953
1146.0	20.403408	-1.063548	6.674311	0.966223	2.183198	-0.82115	-0.599365	-0.084717	-0.140625
1147.0	25.899825	-2.879786	7.274612	0.849016	2.171464	-1.314903	-0.591797	-0.106445	-0.160645
1148.0	29.692643	-2.459872	6.288466	0.825158	2.791392	-1.717617	-0.576172	-0.11499	-0.176514
1149.0	28.936456	1.124558	3.783741	0.283061	3.475707	-1.827273	-0.560303	-0.12793	-0.203613
1150.0	25.667246	2.162437	-0.553705	-0.974008	3.80707	-1.687173	-0.540283	-0.138672	-0.237549
1151.0	22.315223	-0.617845	-5.340133	-1.814227	3.631842	-1.520335	-0.522949	-0.138428	-0.262695
1152.0	21.355453	-3.884462	-8.726218	-1.630155	3.131704	-1.464356	-0.509277	-0.146973	-0.282959
1153.0	21.556154	-5.806283	-10.586416	-0.752818	2.55374	-1.483369	-0.498291	-0.14917	-0.294434
1154.0	20.742995	-5.159989	-10.924605	0.171235	1.953096	-1.442863	-0.484619	-0.164307	-0.30542
1155.0	19.150518	-4.578092	-11.065611	0.564178	1.197509	-1.292461	-0.482422	-0.164307	-0.314697
1156.0	18.707287	-3.358428	-10.254108	0.64331	0.340474	-1.018025	-0.475098	-0.181641	-0.312012
1157.0	19.262966	-2.340393	-8.10416	0.344348	-0.4271	-0.720148	-0.479492	-0.181641	-0.307373
1158.0	17.787339	-0.973173	-5.852612	0.115151	-0.839989	-0.524968	-0.48999	-0.188477	-0.300537
1159.0	14.251546	9.872349	-6.003109	-2.074291	-2.117847	0.628132	-0.508789	-0.162354	-0.291748
1160.0	-10.587985	-13.408068	-2.432776	-1.828967	-3.722536	1.241908	-0.530762	-0.156006	-0.262207
1161.0	4.920878	3.814712	32.118779	1.13489	-4.309901	0.890815	-0.55957	-0.145264	-0.241943
1162.0	15.387943	-11.754981	-1.792635	-2.961534	-4.188325	0.088164	-0.574707	-0.149902	-0.216797
1163.0	20.335764	-1.576176	13.195306	2.396532	-3.929494	0.5043	-0.59668	-0.145752	-0.187256
1164.0	20.031744	3.41749	14.98336	-0.565977	-3.167346	0.564485	-0.612305	-0.137207	-0.164551
1165.0	10.913935	5.241051	10.036759	-0.031996	-2.688767	0.326387	-0.619141	-0.132813	-0.139648
1166.0	25.548038	6.705042	18.267856	-1.541053	-2.189993	0.339986	-0.628174	-0.126465	-0.123779
1167.0	7.473416	-9.400689	3.843131	-1.555984	-0.939695	0.355913	-0.634521	-0.126465	-0.110107
1168.0	10.422687	2.043512	11.811142	1.015669	-1.081311	0.195326	-0.634766	-0.124268	-0.094238
1169.0	10.798099	5.218447	9.148966	-0.510879	-0.962208	0.214818	-0.63916	-0.122314	-0.084961
1170.0	8.471047	0.732766	9.37766	-1.003403	-0.162192	0.116447	-0.634766	-0.12207	-0.084961
1171.0	8.122333	-0.832004	8.196498	-2.5e-05	-0.307928	0.012572	-0.633057	-0.113525	-0.085205
1172.0	5.494036	4.669885	9.412328	-0.162223	-0.132468	0.117262	-0.637451	-0.113525	-0.080566
1173.0	6.509954	0.640085	7.783187	-0.540323	-0.13041	0.169146	-0.641602	-0.113525	-0.07373
1174.0	6.092533	2.396736	8.927387	-0.137311	-0.151099	0.209481	-0.637451	-0.111328	-0.080811
1175.0	6.278441	1.400873	8.536275	-0.425951	-0.163992	0.258337	-0.637939	-0.102539	-0.06958
1176.0	6.272619	1.054324	8.574275	-0.234543	-0.136956	0.260149	-0.640137	-0.100342	-0.071777
1177.0	6.193089	0.687673	8.583059	-0.251441	-0.13508	0.238767	-0.640137	-0.100342	-0.078613
1178.0	6.212536	0.296713	8.489031	-0.161567	-0.125912	0.196538	-0.642334	-0.100342	-0.06958
1179.0	6.256309	0.470999	8.502634	-0.135308	-0.131349	0.147317	-0.644531	-0.098389	-0.064941
1180.0	6.111173	1.172332	8.352832	-0.030502	-0.114075	0.134518	-0.644531	-0.098389	-0.067383
1181.0	6.1672	1.207581	8.376424	-0.113073	-0.114713	0.140605	-0.640381	-0.091797	-0.072021
1182.0	6.153123	0.882096	8.263521	-0.043952	-0.084254	0.137636	-0.640381	-0.091797	-0.06958
1183.0	6.148887	1.020275	8.226884	-0.047726	-0.066189	0.14016	-0.646729	-0.096191	-0.060547
1184.0	6.204267	0.679165	8.113691	-0.047405	-0.035261	0.13422	-0.648926	-0.098389	-0.062744
1185.0	6.1289	0.731345	8.389764	0.013119	-0.018653	0.124348	-0.644775	-0.093994	-0.060547
1186.0	6.11785	0.906655	8.310397	0.051113	-0.012494	0.121571	-0.642578	-0.093994	-0.05835
1187.0	6.200528	0.806681	8.12602	0.047966	-0.010579	0.112503	-0.64502	-0.0896	-0.05835
1188.0	6.094032	0.942747	8.141164	0.075088	0.000736	0.119197	-0.644287	-0.102783	-0.053467
1189.0	5.784976	1.160253	8.436779	0.121708	0.02246	0.115721	-0.635498	-0.106934	-0.053467
1190.0	5.83509	0.784429	8.567323	0.12324	0.021649	0.103438	-0.61792	-0.109131	-0.048828
1191.0	6.006904	0.772536	8.392427	0.164617	0.017951	0.084833	-0.60083	-0.102295	-0.064941
1192.0	6.068752	0.57232	8.321164	0.153541	0.027284	0.045582	-0.591309	-0.06958	-0.08374
1193.0	6.064057	0.62291	8.423897	0.179603	0.023804	0.011734	-0.604004	-0.028076	-0.091553
1194.0	6.092828	0.922998	8.280774	0.142127	0.001428	0.006041	-0.637207	-0.017578	-0.080322
1195.0	6.018313	0.968679	8.356335	0.097459	-0.033928	0.010424	-0.647461	-0.032959	-0.063965
1196.0	6.033878	0.811173	8.507911	0.039267	-0.076061	0.019098	-0.655518	-0.050293	-0.059082
1197.0	6.112411	0.857314	8.603961	0.047993	-0.108168	0.025134	-0.659424	-0.059082	-0.056641
1198.0	6.178867	0.758221	8.413711	0.032391	-0.145061	0.018758	-0.652344	-0.070068	-0.054199
1199.0	6.16483	0.807248	8.40843	0.045557	-0.173595	0.017312	-0.650146	-0.072266	-0.056396
1200.0	6.104762	0.863673	8.549667	0.048152	-0.205756	0.020306	-0.647705	-0.074463	-0.051758
1201.0	5.760368	0.494084	8.822826	0.025623	-0.265751	0.012891	-0.647949	-0.070068	-0.047363
1202.0	5.374526	0.778059	8.247321	0.233554	-0.412234	-0.009293	-0.649902	-0.074463	-0.042725
1203.0	5.854816	1.294179	8.848339	-0.048111	-0.534336	0.017732	-0.6521	-0.07666	-0.044922
1204.0	5.738381	0.873076	8.753117	0.124034	-0.653518	0.037603	-0.645508	-0.07666	-0.035889
1205.0	5.52914	1.018565	8.879947	0.087651	-0.806383	0.044536	-0.654053	-0.078857	-0.035645
1206.0	5.521783	0.872249	8.842888	0.149995	-0.989837	0.05297	-0.647705	-0.074463	-0.024414
1207.0	5.501542	0.914227	8.911954	0.196492	-1.2148	0.053459	-0.654053	-0.078857	-0.017578
1208.0	5.431085	1.024177	9.028827	0.236007	-1.464846	0.058925	-0.660645	-0.078857	-0.001465
1209.0	5.494985	0.81388	8.974317	0.243555	-1.744624	0.05183	-0.663086	-0.074707	0.007568
1210.0	5.478277	0.400704	8.947819	0.279007	-2.044214	0.016654	-0.665039	-0.079102	0.028076
1211.0	5.466715	0.392248	9.117971	0.354739	-2.384812	-0.016633	-0.664795	-0.083496	0.044189
1212.0	5.503474	0.472997	9.180197	0.370801	-2.739316	-0.04253	-0.673584	-0.081299	0.069092
1213.0	5.469584	0.952197	9.449777	0.43198	-3.070725	-0.042025	-0.673828	-0.077148	0.087402
1214.0	5.477555	1.578246	9.694598	0.343958	-3.415863	0.034739	-0.673828	-0.077148	0.119141
1215.0	5.299937	1.5379	9.388079	0.227366	-3.796004	0.13219	-0.68457	-0.081543	0.151123
1216.0	5.125195	1.452345	9.167719	0.175765	-4.308516	0.238486	-0.677979	-0.08374	0.180908
1217.0	4.887414	1.573815	9.287336	0.129271	-4.860089	0.340658	-0.673828	-0.07959	0.22876
1218.0	4.55544	2.53192	9.55046	0.075263	-5.515735	0.460124	-0.676025	-0.075439	0.27417
1219.0	7.272521	2.829852	9.484724	0.0001	-6.324697	0.77637	-0.669922	-0.068848	0.321777
1220.0	4.623367	3.23812	13.215833	0.007485	-6.46664	1.33383	-0.667969	-0.060303	0.378662
1221.0	5.739848	2.21957	8.227127	-0.830164	-7.221942	0.575907	-0.650635	-0.055908	0.44458
1222.0	14.239423	1.239827	9.892446	1.029903	-8.888172	1.124946	-0.629639	-0.040771	0.510498
1223.0	21.076938	0.098272	8.456837	1.189225	-8.889374	1.000396	-0.599609	-0.029785	0.583252
1224.0	23.081799	1.027607	11.225002	2.148241	-8.876306	0.262446	-0.565186	-0.016602	0.648926
1225.0	27.658494	7.753318	11.661617	2.6322	-7.742369	0.428682	-0.535645	0.00293	0.707764
1226.0	23.491066	7.715761	12.660306	2.80522	-6.788007	0.993938	-0.506348	0.031494	0.752686
1227.0	21.964789	9.758062	20.971164	2.300222	-6.482315	1.712349	-0.472656	0.057861	0.79541
1228.0	12.947275	1.126301	13.768861	0.87905	-4.11741	2.338175	-0.454102	0.083984	0.81543
1229.0	7.543925	-1.268556	21.02593	3.134369	-3.007695	1.899169	-0.431885	0.121094	0.842041
1230.0	37.345316	8.562386	33.662381	4.239176	-0.243213	1.807449	-0.44458	0.164795	0.83667
1231.0	-2.379419	17.539536	21.770253	1.676756	3.029759	2.071855	-0.465088	0.184326	0.818115
1232.0	-5.138694	11.054529	15.888272	0.07465	2.918124	2.004691	-0.47876	0.195313	0.804199
1233.0	-6.452962	4.74118	11.803154	-0.04	2.46417	1.410196	-0.494873	0.212646	0.790283
1234.0	-1.547068	6.535359	13.643159	0.730839	2.588015	0.402074	-0.506348	0.225586	0.771729
1235.0	0.418919	9.467665	14.957458	0.473296	3.228381	-0.486501	-0.528076	0.225586	0.755859
1236.0	1.185999	9.651502	14.702899	-0.422024	3.875668	-1.140899	-0.556396	0.223145	0.730713
1237.0	3.098116	6.324213	13.58581	-1.189569	4.492216	-1.610454	-0.586426	0.214355	0.703613
1238.0	4.542488	2.016017	12.153279	-1.483004	5.097042	-1.949742	-0.614258	0.203369	0.672119
1239.0	5.669051	-0.282188	10.955894	-1.221415	5.628125	-2.100613	-0.650879	0.192383	0.631348
1240.0	6.852028	-0.662651	10.121463	-1.068046	6.060368	-2.021794	-0.683594	0.189941	0.597168
1241.0	7.917913	-1.391264	9.172328	-1.051123	6.37944	-1.773869	-0.713867	0.187744	0.544922
1242.0	8.709105	-2.430494	8.202353	-0.945606	6.580741	-1.441715	-0.731689	0.194336	0.487793
1243.0	9.221879	-2.608355	7.56911	-0.650405	6.625648	-1.071182	-0.753906	0.200928	0.439697
1244.0	9.966097	-2.566443	7.44512	-0.412839	6.555096	-0.725076	-0.777344	0.192139	0.39209
1245.0	10.918386	-2.48765	7.534907	-0.07269	6.389611	-0.428483	-0.802246	0.207275	0.355469
1246.0	12.801754	-2.117971	7.934958	0.217097	6.245508	-0.120975	-0.842041	0.220215	0.323242
1247.0	14.039336	-1.275097	7.937989	0.605635	6.12541	0.185486	-0.893799	0.254883	0.272461
1248.0	14.803668	-0.110198	7.584744	0.921825	5.95011	0.427359	-0.943115	0.287598	0.194336
1249.0	15.236167	1.546974	7.206588	1.180201	5.728945	0.555185	-0.98877	0.333252	0.11377
1250.0	13.891561	3.317603	6.385516	1.266576	5.390101	0.530827	-1.038574	0.370361	0.019775
1251.0	11.872907	3.627833	6.290652	1.1695	4.793223	0.335819	-1.079102	0.398682	-0.085693
1252.0	11.777151	2.337599	6.221812	1.221763	4.058566	-0.018355	-1.112793	0.420654	-0.197754
1253.0	12.862909	2.117823	6.377344	1.545752	3.336631	-0.426858	-1.148193	0.433838	-0.307373
1254.0	15.157823	2.905979	7.385659	1.659008	2.691574	-0.760256	-1.178711	0.431885	-0.437256
1255.0	20.157718	2.178808	8.980761	1.521329	2.377481	-1.07816	-1.184326	0.410156	-0.571289
1256.0	24.755901	0.305396	9.193006	1.510239	2.646702	-1.450957	-1.160889	0.375732	-0.71875
1257.0	25.724723	-0.707701	7.751993	1.693874	3.26128	-1.868209	-1.083984	0.311279	-0.856445
1258.0	23.635279	-0.309992	5.088614	1.756857	3.69667	-2.228504	-0.989258	0.242188	-0.957764
1259.0	20.658394	1.125734	2.319445	1.359881	3.780536	-2.377031	-0.877441	0.179932	-1.027344
1260.0	18.387765	0.417191	-0.694108	0.693141	3.406788	-2.290232	-0.773438	0.143555	-1.067871
1261.0	18.971568	-0.840629	-2.006669	0.189653	2.90146	-2.114896	-0.675781	0.109375	-1.085449
1262.0	21.39367	-2.299633	-2.33819	-0.002954	2.621556	-1.938422	-0.583496	0.090332	-1.089844
1263.0	22.63588	-3.430154	-2.911594	0.042172	2.60654	-1.770741	-0.499512	0.068848	-1.080322
1264.0	21.927684	-3.439435	-4.244486	0.193221	2.606369	-1.553587	-0.429443	0.060547	-1.071289
1265.0	19.558706	-3.595144	-6.679472	0.266106	2.347232	-1.304727	-0.365234	0.04126	-1.057129
1266.0	16.858683	-4.370594	-9.50206	0.364958	1.685427	-1.122892	-0.325439	0.030762	-1.043457
1267.0	16.795466	-4.009084	-10.388613	0.619646	0.600222	-1.041291	-0.291992	0.013428	-1.0271
1268.0	19.845931	-2.650441	-8.181348	0.435783	-0.259652	-1.025954	-0.276367	0.002441	-1.010986
1269.0	19.775871	-1.962781	-5.471972	-0.112485	-0.648531	-1.103522	-0.265381	0.004639	-1.013184
1270.0	11.272334	16.668069	-2.952282	-2.278206	-1.593929	-0.213713	-0.27417	0.054932	-1.005127
1271.0	-11.276342	-21.767943	-6.270504	-5.720644	-3.750012	0.246337	-0.299316	0.078613	-0.991943
1272.0	-2.525288	3.455947	34.728415	2.081239	-3.794708	0.699881	-0.326172	0.091553	-0.980713
1273.0	12.50453	-25.25191	0.022269	-7.414466	-4.428185	-0.186324	-0.354492	0.139404	-0.954346
1274.0	15.769328	-17.481438	3.667703	4.817157	-4.544229	0.832846	-0.374268	0.097656	-0.932861
1275.0	17.815666	9.262728	17.545526	-0.332302	-4.187285	1.024094	-0.392822	0.119385	-0.901367
1276.0	11.287886	9.873772	7.718993	0.439019	-3.969677	0.639171	-0.410156	0.121338	-0.876465
1277.0	25.898178	11.135926	19.066125	-1.751222	-4.028425	0.702726	-0.425049	0.158203	-0.849854
1278.0	15.68347	-11.321176	7.481013	-3.094247	-1.408117	0.887159	-0.434326	0.17334	-0.82959
1279.0	15.845941	0.820425	9.123859	1.798177	-1.967929	0.559843	-0.442627	0.164551	-0.820313
1280.0	13.790421	7.919308	16.83513	-2.119535	0.354844	0.273319	-0.439697	0.193115	-0.813965
1281.0	8.528297	-8.745759	1.741418	-0.267687	-0.495026	0.099123	-0.438965	0.179932	-0.811523
1282.0	5.963402	8.752994	13.719011	0.718316	-0.137721	0.105804	-0.439209	0.182129	-0.809082
1283.0	6.467725	-1.641897	5.388552	-0.913104	-0.080372	0.162088	-0.437012	0.184326	-0.804688
1284.0	6.331667	3.174223	9.986637	0.354935	-0.051749	0.168122	-0.439209	0.184326	-0.806885
1285.0	6.30815	0.432942	7.724052	-0.253646	-0.030531	0.197692	-0.439453	0.186523	-0.806885
1286.0	6.100682	1.665296	9.000361	0.097691	-0.039219	0.200267	-0.433105	0.190918	-0.807129
1287.0	6.30271	0.292582	8.447032	-0.127599	-0.05902	0.180268	-0.435303	0.195313	-0.80249
1288.0	6.196333	0.480915	8.695062	0.00459	-0.071724	0.128084	-0.435059	0.190918	-0.80249
1289.0	6.152359	0.652148	8.478121	-0.042037	-0.080752	0.08305	-0.439697	0.195068	-0.804932
1290.0	6.095852	0.898536	8.704575	-0.059904	-0.091265	0.061218	-0.437744	0.199463	-0.802734
1291.0	6.161853	0.167945	8.516878	-0.06516	-0.113307	0.022444	-0.435303	0.195068	-0.798096
1292.0	6.116941	0.306012	8.564315	-0.02752	-0.137204	-0.029687	-0.441895	0.197266	-0.800293
1293.0	6.115368	0.673515	8.549141	-0.020504	-0.16673	-0.06396	-0.439941	0.197266	-0.795898
1294.0	6.060291	1.242934	8.419641	0.004398	-0.185793	-0.074921	-0.443848	0.190674	-0.793457
1295.0	6.139059	1.524109	8.277008	-0.036928	-0.18706	-0.05848	-0.443848	0.190674	-0.797852
1296.0	6.169377	1.191261	8.102566	-0.026541	-0.176438	-0.047454	-0.446533	0.199463	-0.79126
1297.0	6.122185	1.486359	8.033584	-0.002541	-0.162795	-0.024064	-0.448242	0.192871	-0.788818
1298.0	6.183839	1.39984	8.313646	-0.019875	-0.144033	0.003812	-0.448242	0.190674	-0.791016
1299.0	6.075519	1.377394	8.132415	-0.002039	-0.125943	0.027257	-0.450684	0.197266	-0.782227
1300.0	6.275272	1.56784	7.867313	0.018856	-0.109675	0.064397	-0.450439	0.190674	-0.781982
1301.0	6.139603	1.471482	8.076114	-0.035321	-0.079735	0.103168	-0.448486	0.195068	-0.777588
1302.0	6.145558	1.454937	8.19493	-0.036249	-0.03779	0.133265	-0.448486	0.195068	-0.779785
1303.0	6.109026	1.254416	8.036979	-0.027615	-0.013773	0.155289	-0.443604	0.186279	-0.777344
1304.0	6.131604	1.373088	7.921651	0.007045	0.009634	0.160572	-0.437012	0.184326	-0.781982
1305.0	6.140305	1.078341	8.201505	-0.043698	0.030172	0.157926	-0.423828	0.179932	-0.788574
1306.0	6.185466	1.146656	8.159174	0.052268	0.04433	0.146353	-0.413574	0.195313	-0.795898
1307.0	6.144467	0.818384	8.217711	0.011089	0.043983	0.134005	-0.408203	0.223877	-0.807861
1308.0	6.142661	0.787947	8.243104	0.055508	0.039173	0.111123	-0.417725	0.239014	-0.8125
1309.0	6.239232	0.736528	8.340342	0.074146	0.024989	0.080286	-0.437988	0.25415	-0.810547
1310.0	6.08818	0.824346	8.466703	0.05303	0.011341	0.064595	-0.452881	0.243164	-0.799072
1311.0	6.171401	0.540704	8.330008	0.032222	-0.020259	0.034715	-0.458984	0.234375	-0.798828
1312.0	6.295585	0.549323	8.280625	0.059844	-0.022076	0.001184	-0.454102	0.225586	-0.791748
1313.0	6.198375	0.51142	8.618316	0.049373	-0.02391	-0.053853	-0.453857	0.218994	-0.796143
1314.0	6.204505	0.441627	8.319052	0.136587	-0.022491	-0.122224	-0.453369	0.208252	-0.786865
1315.0	6.308307	0.322119	8.213418	0.095521	-0.020157	-0.181835	-0.446533	0.203857	-0.786865
1316.0	6.075113	0.744365	8.375797	0.133752	-0.018796	-0.213747	-0.448486	0.197266	-0.789063
1317.0	5.860353	1.401047	8.301342	0.177361	-0.073466	-0.193501	-0.450684	0.195068	-0.79126
1318.0	5.821591	1.982818	8.293147	0.107936	-0.12826	-0.118556	-0.446045	0.192871	-0.781982
1319.0	5.921363	1.580777	8.338126	0.078283	-0.182123	-0.052601	-0.454834	0.192871	-0.781982
1320.0	6.02724	1.813796	8.382027	0.166096	-0.227206	-0.007679	-0.457031	0.190674	-0.786621
1321.0	5.988462	1.45922	8.2769	0.107317	-0.267139	0.025103	-0.457275	0.195068	-0.786621
1322.0	5.778896	1.906455	8.618123	0.091717	-0.327782	0.066664	-0.456787	0.188477	-0.786377
1323.0	6.08082	1.103157	8.147988	0.030073	-0.376573	0.084228	-0.461426	0.190674	-0.775146
1324.0	6.142768	1.114366	8.415858	0.026806	-0.449965	0.087402	-0.463623	0.190674	-0.770508
1325.0	6.021161	0.912575	8.380196	0.074069	-0.540523	0.076149	-0.469971	0.19043	-0.768311
1326.0	5.88491	0.872416	8.639323	0.063785	-0.665586	0.060139	-0.474609	0.192627	-0.763672
1327.0	5.762354	0.792211	8.743367	0.124636	-0.844636	0.054441	-0.480957	0.19043	-0.761475
1328.0	5.615304	0.829917	9.039306	0.141917	-1.079341	0.043744	-0.493896	0.188232	-0.745361
1329.0	5.569592	0.540531	9.089878	0.180462	-1.344059	0.015253	-0.505127	0.192383	-0.729492
1330.0	5.562368	0.084911	9.220395	0.237444	-1.62325	-0.058419	-0.52002	0.185791	-0.720215
