Acquisition frequency: 100 Hz
PacketCounter	Acc_X	Acc_Y	Acc_Z	Gyr_X	Gyr_Y	Gyr_Z	Mag_X	Mag_Y	Mag_Z
0.0	6.86645	-1.180669	6.988601	-0.006477	0.008315	-0.00557	-0.66626	-0.031494	-0.328613
1.0	6.862807	-1.20494	6.989444	-0.011131	0.009672	-0.010684	-0.668457	-0.031494	-0.324463
2.0	6.85962	-1.180307	6.965952	-0.004707	0.009585	-0.005625	-0.666016	-0.033691	-0.324463
3.0	6.861591	-1.204956	6.990635	-0.009175	0.011096	-0.00785	-0.668213	-0.038086	-0.326416
4.0	6.864017	-1.180715	6.990983	-0.004543	0.010877	-0.006945	-0.670654	-0.029297	-0.330811
5.0	6.860288	-1.204715	6.991955	-0.003289	0.009411	-0.00725	-0.666016	-0.033691	-0.333008
6.0	6.857052	-1.180001	6.968531	-0.009178	0.011099	-0.007853	-0.668213	-0.033691	-0.324463
7.0	6.876748	-1.207316	6.963858	-0.004194	0.012324	-0.005376	-0.668457	-0.031494	-0.328613
8.0	6.855607	-1.179815	6.969984	-0.006339	0.01075	-0.011103	-0.668457	-0.029297	-0.328857
9.0	6.854988	-1.179745	6.970605	-0.00774	0.009787	-0.005271	-0.66626	-0.031494	-0.333008
10.0	6.854312	-1.179586	6.971297	-0.001356	0.011976	-0.008625	-0.672607	-0.037842	-0.333008
11.0	6.859327	-1.179587	6.995775	-0.004735	0.01073	-0.009839	-0.668213	-0.035889	-0.32666
12.0	6.849972	-1.203256	6.972927	-0.008093	0.008345	-0.006844	-0.66626	-0.029541	-0.320068
13.0	6.849431	-1.203158	6.973476	-0.001688	0.009395	-0.005988	-0.67041	-0.033691	-0.32666
14.0	6.884289	-1.158112	6.991457	-0.006488	0.008323	-0.005579	-0.667969	-0.040039	-0.330811
15.0	6.851328	-1.178853	6.974353	-0.007415	0.012375	-0.007914	-0.670654	-0.031494	-0.333008
16.0	6.841919	-1.202808	6.951516	-0.012731	0.008567	-0.007758	-0.665771	-0.040039	-0.333008
17.0	6.879548	-1.182802	6.993312	-0.008776	0.004318	-0.00578	-0.67041	-0.033691	-0.32666
18.0	6.864859	-1.20623	6.946353	-0.002535	0.004076	-0.003602	-0.672607	-0.035889	-0.324463
19.0	6.849583	-1.179344	6.975983	-0.009026	0.012402	-0.009183	-0.67041	-0.035889	-0.324463
20.0	6.852032	-1.155175	6.976299	-0.008099	0.00835	-0.006849	-0.666016	-0.033691	-0.328613
21.0	6.866327	-1.181995	6.947653	-0.005071	0.008153	-0.007205	-0.664063	-0.033691	-0.328613
22.0	6.862629	-1.206128	6.948574	-0.007423	0.012382	-0.007918	-0.668213	-0.038086	-0.330811
23.0	6.870633	-1.182345	6.97276	-0.004374	0.011043	-0.004064	-0.67041	-0.035889	-0.330811
24.0	6.843433	-1.20349	6.979305	-0.009894	0.008226	-0.011012	-0.668457	-0.031494	-0.333008
25.0	6.842902	-1.203548	6.979815	-0.007754	0.009797	-0.005282	-0.668457	-0.031494	-0.328613
26.0	6.87144	-1.20688	6.998573	-0.001369	0.011992	-0.00863	-0.668457	-0.031494	-0.335205
27.0	6.868082	-1.181946	6.975341	-0.005821	0.012363	-0.006654	-0.670654	-0.031494	-0.330811
28.0	6.858634	-1.205632	6.952604	-0.006171	0.01092	-0.008226	-0.666016	-0.033691	-0.330811
29.0	6.872276	-1.182309	7.000541	-0.007246	0.012538	-0.005033	-0.668213	-0.035645	-0.337402
30.0	6.871608	-1.182426	7.001176	-0.0065	0.008333	-0.005588	-0.663818	-0.033691	-0.32666
31.0	6.836229	-1.178697	6.959824	-0.011137	0.008554	-0.006505	-0.668213	-0.033691	-0.324463
32.0	6.867878	-1.158152	6.978207	-0.00599	0.011073	-0.005337	-0.666016	-0.033691	-0.32666
33.0	6.855472	-1.206167	6.955629	-0.007946	0.009654	-0.008179	-0.670654	-0.031494	-0.330811
34.0	6.848808	-1.155661	7.008742	-0.005059	0.007017	-0.003001	-0.66626	-0.031494	-0.32666
35.0	6.860055	-1.206705	6.980409	-0.007784	0.010951	-0.0095	-0.672363	-0.040283	-0.326416
36.0	6.862538	-1.18249	6.980703	-0.009719	0.008385	-0.008132	-0.66626	-0.031494	-0.330811
37.0	6.885636	-1.185676	6.975474	-0.008275	0.007066	-0.005543	-0.67041	-0.033691	-0.32666
38.0	6.87957	-1.185415	6.952113	-0.008276	0.007067	-0.005543	-0.664063	-0.033691	-0.335205
39.0	6.861283	-1.183002	6.98185	-0.008624	0.005625	-0.007116	-0.67041	-0.033691	-0.32666
40.0	6.855143	-1.182768	6.958557	-0.012243	0.011324	-0.00753	-0.672363	-0.038086	-0.328613
41.0	6.860213	-1.183496	6.982817	-0.008279	0.007069	-0.005545	-0.672607	-0.033691	-0.32666
42.0	6.88899	-1.1872	7.001293	-0.011495	0.00712	-0.008087	-0.668213	-0.035889	-0.333008
43.0	6.850691	-1.207791	6.960057	-0.008096	0.007217	-0.002653	-0.672607	-0.033691	-0.322266
44.0	6.84398	-1.157506	7.013152	-0.008118	0.008367	-0.006866	-0.666016	-0.033691	-0.330811
45.0	6.852738	-1.183889	6.960735	-0.006511	0.008343	-0.005596	-0.668213	-0.033691	-0.328613
46.0	6.854817	-1.208665	6.985213	-0.008119	0.008369	-0.006867	-0.663818	-0.035889	-0.326416
47.0	6.857397	-1.184471	6.985417	-0.005251	0.006876	-0.005898	-0.670654	-0.031494	-0.328857
48.0	6.848099	-1.208245	6.962528	-0.008711	0.013874	-0.007633	-0.668457	-0.029541	-0.32666
49.0	6.858587	-1.209326	7.010748	-0.007776	0.009814	-0.005296	-0.668213	-0.033691	-0.324463
50.0	6.879059	-1.187582	6.981636	-0.002221	0.006682	-0.006249	-0.666016	-0.035889	-0.333008
51.0	6.825822	-1.180952	6.969649	-0.006353	0.009644	-0.006919	-0.67041	-0.038086	-0.330811
52.0	6.869345	-1.211156	6.959199	-0.007962	0.00967	-0.008191	-0.666016	-0.035889	-0.324463
53.0	6.856841	-1.160274	6.988701	-0.007779	0.009816	-0.005299	-0.672607	-0.035889	-0.333008
54.0	6.823926	-1.181208	6.971462	-0.00888	0.012583	-0.006318	-0.666016	-0.033691	-0.330811
55.0	6.85244	-1.184813	6.990222	-0.006518	0.008349	-0.005601	-0.67041	-0.038086	-0.324463
56.0	6.8699	-1.187274	6.961352	-0.003486	0.008154	-0.00595	-0.666016	-0.035889	-0.333008
57.0	6.845793	-1.184198	6.967513	-0.007966	0.009674	-0.008195	-0.672363	-0.038086	-0.32666
58.0	6.850716	-1.184669	6.991937	-0.00746	0.012416	-0.007942	-0.666016	-0.035889	-0.330811
59.0	6.850026	-1.18463	6.992619	-0.004751	0.009624	-0.00565	-0.670654	-0.031494	-0.330811
60.0	6.843818	-1.184206	6.969451	-0.007785	0.009821	-0.005304	-0.672363	-0.038086	-0.324463
61.0	6.869799	-1.163035	6.964216	-0.006361	0.009652	-0.006925	-0.668457	-0.031494	-0.324463
62.0	6.8482	-1.184858	6.994368	-0.009395	0.009848	-0.006579	-0.668213	-0.033691	-0.32666
63.0	6.850646	-1.16077	6.994691	-0.006524	0.008354	-0.005606	-0.672607	-0.033691	-0.328613
64.0	6.865101	-1.187669	6.966017	-0.009558	0.008551	-0.00526	-0.663818	-0.035889	-0.333008
65.0	6.840939	-1.185055	6.972134	-0.010823	0.01002	-0.004961	-0.67041	-0.035889	-0.328613
66.0	6.875127	-1.189303	7.01455	-0.005079	0.007031	-0.003013	-0.668213	-0.035889	-0.330811
67.0	6.842476	-1.210303	6.99702	-0.011169	0.00858	-0.006537	-0.668457	-0.029297	-0.328857
68.0	6.839385	-1.185778	6.973534	-0.006527	0.008358	-0.005608	-0.666016	-0.033691	-0.328613
69.0	6.867997	-1.189542	6.992186	-0.010988	0.008724	-0.003644	-0.666016	-0.033691	-0.333008
70.0	6.838295	-1.186485	6.974484	-0.009563	0.008556	-0.005264	-0.66626	-0.029297	-0.32666
71.0	6.884824	-1.19271	6.963874	-0.00906	0.011298	-0.00501	-0.668457	-0.029541	-0.324463
72.0	6.840107	-1.162954	6.975345	-0.009887	0.005957	-0.002626	-0.668213	-0.033691	-0.330811
73.0	6.883841	-1.193551	6.964701	-0.008118	0.007231	-0.002671	-0.674805	-0.031494	-0.328857
74.0	6.880847	-1.169005	6.941144	-0.008483	0.006948	-0.008461	-0.67041	-0.033691	-0.328613
75.0	6.85631	-1.215204	6.971336	-0.007615	0.009973	-0.002417	-0.670654	-0.031494	-0.32666
76.0	6.843672	-1.164629	7.000874	-0.007959	0.008532	-0.003993	-0.664063	-0.033691	-0.330811
77.0	6.860738	-1.216233	6.996126	-0.008142	0.008392	-0.006888	-0.67041	-0.038086	-0.326416
78.0	6.866167	-1.167926	6.996304	-0.009409	0.009862	-0.006589	-0.668457	-0.029297	-0.328857
79.0	6.862594	-1.1924	6.997002	-0.007961	0.008534	-0.003994	-0.67041	-0.035889	-0.330811
80.0	6.838443	-1.189838	7.003064	-0.009389	0.008703	-0.002376	-0.668213	-0.038086	-0.326416
81.0	6.858888	-1.168278	6.974085	-0.007984	0.009697	-0.00821	-0.67041	-0.035889	-0.335205
82.0	6.855386	-1.192722	6.974716	-0.011342	0.007291	-0.005229	-0.666016	-0.035889	-0.32666
83.0	6.857929	-1.168794	6.974942	-0.006698	0.007067	-0.004295	-0.668213	-0.035889	-0.32666
84.0	6.836357	-1.190906	7.004919	-0.010841	0.010035	-0.004975	-0.668213	-0.038086	-0.328613
85.0	6.862393	-1.169926	6.999672	-0.008308	0.007097	-0.005573	-0.668213	-0.037842	-0.333008
86.0	6.868354	-1.220504	6.947399	-0.009074	0.01131	-0.005019	-0.666016	-0.037842	-0.330811
87.0	6.85016	-1.169357	6.95318	-0.009919	0.007127	-0.006852	-0.67041	-0.033691	-0.330811
88.0	6.872837	-1.22153	6.972126	-0.006359	0.008511	-0.002722	-0.672607	-0.031494	-0.32666
89.0	6.846106	-1.194185	6.954282	-0.014065	0.010097	-0.007533	-0.668457	-0.031494	-0.328613
90.0	6.848392	-1.170173	6.954784	-0.00749	0.012448	-0.007959	-0.666016	-0.035889	-0.330811
91.0	6.829758	-1.167911	6.984651	-0.006863	0.00577	-0.00298	-0.668213	-0.035889	-0.324463
92.0	6.849835	-1.195237	6.979738	-0.006043	0.011118	-0.005363	-0.668457	-0.031494	-0.3396
93.0	6.849121	-1.195422	6.980407	-0.010691	0.011345	-0.006302	-0.670654	-0.027344	-0.328857
94.0	6.85143	-1.17145	6.980882	-0.009423	0.009876	-0.006601	-0.668213	-0.033691	-0.32666
95.0	6.895031	-1.20172	6.970496	-0.007815	0.009848	-0.005323	-0.67041	-0.033691	-0.324463
96.0	6.87087	-1.199065	6.976552	-0.012804	0.008634	-0.00784	-0.668213	-0.033691	-0.330811
97.0	6.826153	-1.169364	6.987931	-0.008136	0.007243	-0.002685	-0.663818	-0.035889	-0.333008
98.0	6.86721	-1.174825	6.953656	-0.007498	0.012457	-0.007964	-0.672607	-0.033691	-0.328613
99.0	6.845541	-1.19689	6.983666	-0.009747	0.007274	-0.003965	-0.674805	-0.033691	-0.32666
100.0	6.850567	-1.197703	7.007874	-0.008159	0.008412	-0.006903	-0.668213	-0.035889	-0.330811
101.0	6.871047	-1.176079	6.978966	-0.010859	0.010049	-0.004989	-0.67041	-0.033691	-0.333008
102.0	6.84139	-1.173017	6.961193	-0.00975	0.007276	-0.003967	-0.665771	-0.040039	-0.330811
103.0	6.864522	-1.17645	6.956035	-0.01279	0.007473	-0.00363	-0.666016	-0.038086	-0.326416
104.0	6.863439	-1.225872	6.980616	-0.011995	0.013995	-0.010229	-0.67041	-0.033691	-0.322266
105.0	6.860245	-1.20121	6.95735	-0.005103	0.007051	-0.003027	-0.664063	-0.031494	-0.328613
106.0	6.839224	-1.174464	6.963077	-0.011681	0.0047	-0.002611	-0.67041	-0.033691	-0.32666
107.0	6.870452	-1.203231	7.005533	-0.011205	0.008615	-0.00657	-0.67041	-0.035889	-0.32666
108.0	6.882539	-1.205298	6.952914	-0.009596	0.008585	-0.005291	-0.670654	-0.031494	-0.32666
109.0	6.840703	-1.151337	6.964246	-0.009597	0.008585	-0.005292	-0.672363	-0.038086	-0.324463
110.0	6.863403	-1.203522	6.983131	-0.006716	0.007084	-0.004309	-0.668213	-0.035889	-0.333008
111.0	6.839264	-1.200805	6.989142	-0.007829	0.009861	-0.005332	-0.668213	-0.033691	-0.328613
112.0	6.859797	-1.178938	6.960273	-0.009959	0.00832	-0.011089	-0.666016	-0.033691	-0.333008
113.0	6.858935	-1.228034	6.984662	-0.005108	0.007054	-0.003029	-0.670654	-0.031494	-0.328857
114.0	6.8643	-1.179753	6.984983	-0.011053	0.009926	-0.007896	-0.668457	-0.031494	-0.333008
115.0	6.860699	-1.204131	6.985683	-0.006064	0.011137	-0.005372	-0.668213	-0.038086	-0.330811
116.0	6.860089	-1.204207	6.986269	-0.008172	0.008425	-0.006913	-0.668213	-0.035889	-0.32666
117.0	6.857037	-1.179452	6.962905	-0.004952	0.008362	-0.00435	-0.674805	-0.031494	-0.330811
118.0	6.856482	-1.179472	6.963449	-0.008015	0.009733	-0.008234	-0.664063	-0.033691	-0.328613
119.0	6.861447	-1.180161	6.987716	-0.008333	0.007121	-0.005595	-0.663818	-0.033691	-0.32666
120.0	6.860819	-1.180093	6.988344	-0.005932	0.013621	-0.010912	-0.66626	-0.031494	-0.333008
121.0	6.851766	-1.203617	6.965286	-0.001891	0.006994	-0.000468	-0.67041	-0.035889	-0.328613
122.0	6.851333	-1.203673	6.965702	-0.008514	0.00699	-0.008496	-0.666016	-0.035889	-0.32666
123.0	6.845239	-1.203123	6.942527	-0.008797	0.013953	-0.007683	-0.668213	-0.033691	-0.328613
124.0	6.82937	-1.17664	6.972375	-0.005294	0.006927	-0.005932	-0.67041	-0.033691	-0.32666
125.0	6.873123	-1.206645	6.96199	-0.009294	0.011209	-0.007943	-0.67041	-0.035889	-0.330811
126.0	6.851832	-1.179628	6.967997	-0.006569	0.0084	-0.005637	-0.67041	-0.038086	-0.326416
127.0	6.848344	-1.203875	6.968606	-0.004801	0.009675	-0.005675	-0.67041	-0.033691	-0.328613
128.0	6.874328	-1.182648	6.96359	-0.012835	0.008663	-0.007873	-0.668213	-0.033691	-0.328613
129.0	6.850218	-1.180157	6.969495	-0.00816	0.007258	-0.002704	-0.668457	-0.029297	-0.330811
130.0	6.870481	-1.207309	6.964482	-0.002255	0.006735	-0.006267	-0.668213	-0.035645	-0.335205
131.0	6.857599	-1.156486	6.994211	-0.007689	0.011182	-0.006664	-0.670654	-0.031494	-0.324463
132.0	6.851165	-1.204936	6.994895	-0.005141	0.00824	-0.007256	-0.668213	-0.038086	-0.330811
133.0	6.845167	-1.204347	6.971645	-0.007848	0.009875	-0.005346	-0.672852	-0.031494	-0.328857
134.0	6.871148	-1.18298	6.966672	-0.005142	0.008241	-0.007257	-0.664063	-0.033691	-0.330811
135.0	6.870703	-1.182902	6.967123	-0.006911	0.006967	-0.007222	-0.670654	-0.029297	-0.330811
136.0	6.849038	-1.205048	6.996959	-0.009126	0.011349	-0.005052	-0.666016	-0.033691	-0.333008
137.0	6.874989	-1.183899	6.991983	-0.008345	0.007131	-0.005608	-0.668213	-0.035889	-0.330811
138.0	6.845427	-1.180534	6.974137	-0.008032	0.009749	-0.008248	-0.66626	-0.031494	-0.328613
139.0	6.868538	-1.183459	6.969163	-0.006735	0.007099	-0.004324	-0.672607	-0.033691	-0.32666
140.0	6.865233	-1.207935	6.969547	-0.008504	0.005824	-0.00429	-0.666016	-0.035889	-0.32666
141.0	6.84114	-1.205244	6.975442	-0.008034	0.009752	-0.00825	-0.666016	-0.033691	-0.328613
142.0	6.870023	-1.159631	6.970465	-0.00658	0.00841	-0.005646	-0.668213	-0.038086	-0.330811
143.0	6.8666	-1.183943	6.970991	-0.006581	0.00841	-0.005646	-0.668213	-0.033691	-0.333008
144.0	6.839575	-1.205331	6.976961	-0.00676	0.008283	-0.008547	-0.664063	-0.029297	-0.32666
145.0	6.84202	-1.181132	6.977378	-0.008351	0.007136	-0.005613	-0.668213	-0.035889	-0.324463
146.0	6.859824	-1.183435	6.948513	-0.00853	0.007009	-0.008513	-0.66626	-0.031494	-0.333008
147.0	6.838246	-1.205628	6.978213	-0.008017	0.008575	-0.004034	-0.668457	-0.031494	-0.328613
148.0	6.869707	-1.184979	6.996991	-0.00692	0.006976	-0.007229	-0.666016	-0.033691	-0.335205
149.0	6.834794	-1.180919	6.955289	-0.006585	0.008414	-0.005649	-0.67041	-0.033691	-0.324463
150.0	6.868735	-1.185106	6.997922	-0.00981	0.008483	-0.008222	-0.666016	-0.033691	-0.333008
151.0	6.891805	-1.188076	6.993005	-0.007864	0.009887	-0.005356	-0.674561	-0.038086	-0.330811
152.0	6.859404	-1.208998	6.975099	-0.007078	0.005668	-0.005911	-0.666016	-0.037842	-0.333008
153.0	6.861891	-1.184991	6.975448	-0.008178	0.007268	-0.002717	-0.668457	-0.029541	-0.32666
154.0	6.835012	-1.206578	6.981215	-0.002578	0.004128	-0.003633	-0.668213	-0.035645	-0.335205
155.0	6.861147	-1.185279	6.976131	-0.011247	0.008649	-0.006611	-0.670654	-0.031494	-0.330811
156.0	6.860646	-1.185388	6.976606	-0.006768	0.008292	-0.008553	-0.663818	-0.035889	-0.328613
157.0	6.886669	-1.163942	6.971662	-0.008203	0.008454	-0.00694	-0.663818	-0.033691	-0.32666
158.0	6.856676	-1.209723	6.977655	-0.009327	0.011238	-0.007967	-0.668213	-0.033691	-0.328613
159.0	6.861729	-1.161315	6.97835	-0.006104	0.011169	-0.005393	-0.672607	-0.035889	-0.32666
160.0	6.881902	-1.188213	6.973515	-0.003725	0.0081	-0.008882	-0.666016	-0.033691	-0.333008
161.0	6.878485	-1.212372	6.974052	-0.007873	0.009894	-0.005361	-0.670654	-0.031494	-0.330811
162.0	6.880648	-1.188324	6.974733	-0.01061	0.012714	-0.007677	-0.672363	-0.038086	-0.328613
163.0	6.853451	-1.209747	6.980819	-0.003394	0.009539	-0.007302	-0.674805	-0.033691	-0.324463
164.0	6.884759	-1.188816	6.999817	-0.008054	0.009771	-0.008265	-0.66626	-0.031494	-0.330811
165.0	6.855111	-1.185301	6.982059	-0.006287	0.011049	-0.008298	-0.666016	-0.038086	-0.324463
166.0	6.878065	-1.188065	6.977325	-0.007723	0.01121	-0.006686	-0.672607	-0.035889	-0.328613
167.0	6.848438	-1.184694	6.95952	-0.006599	0.008426	-0.005659	-0.666016	-0.033691	-0.32666
168.0	6.847737	-1.184774	6.960197	-0.00885	0.013997	-0.007714	-0.663818	-0.035889	-0.330811
169.0	6.855133	-1.161223	6.984845	-0.007571	0.012525	-0.008008	-0.67041	-0.038086	-0.330811
170.0	6.848796	-1.209781	6.98538	-0.005144	0.007079	-0.003052	-0.668213	-0.033691	-0.335205
171.0	6.845815	-1.185006	6.962048	-0.009827	0.008501	-0.00824	-0.672607	-0.033691	-0.328613
172.0	6.853438	-1.161538	6.986456	-0.009342	0.011251	-0.007979	-0.668213	-0.035889	-0.328613
173.0	6.891899	-1.19086	6.952389	-0.008039	0.00859	-0.00405	-0.67041	-0.038086	-0.326416
174.0	6.849431	-1.186171	6.987484	-0.008217	0.008467	-0.006953	-0.668213	-0.035889	-0.333008
175.0	6.85429	-1.186835	7.01178	-0.006783	0.008309	-0.008566	-0.67041	-0.035889	-0.32666
176.0	6.84833	-1.186254	6.988549	-0.009169	0.011378	-0.00508	-0.668213	-0.033691	-0.32666
177.0	6.850602	-1.162135	6.989138	-0.005326	0.00696	-0.005957	-0.672852	-0.031494	-0.330811
178.0	6.865549	-1.188569	6.960372	-0.011115	0.00998	-0.007954	-0.664063	-0.033691	-0.333008
179.0	6.870289	-1.189333	6.984765	-0.004842	0.009712	-0.005696	-0.672607	-0.038086	-0.330811
180.0	6.84608	-1.186464	6.990717	-0.00356	0.008239	-0.005988	-0.666016	-0.037842	-0.330811
181.0	6.863787	-1.188505	6.96212	-0.007738	0.011223	-0.006696	-0.668213	-0.033691	-0.330811
182.0	6.8631	-1.188479	6.962801	-0.006303	0.011065	-0.008309	-0.666016	-0.035889	-0.328613
183.0	6.862542	-1.1885	6.963348	-0.006765	0.007122	-0.004348	-0.666016	-0.033691	-0.330811
184.0	6.843641	-1.186543	6.993091	-0.006128	0.011188	-0.005407	-0.668213	-0.035889	-0.330811
185.0	6.861314	-1.188639	6.964535	-0.008072	0.00979	-0.008282	-0.674561	-0.040039	-0.330811
186.0	6.88429	-1.191374	6.959836	-0.007589	0.012542	-0.00802	-0.672607	-0.035889	-0.32666
187.0	6.833846	-1.160861	6.947466	-0.005178	0.008281	-0.007283	-0.674805	-0.035889	-0.328613
188.0	6.859493	-1.188511	6.96635	-0.006615	0.00844	-0.005672	-0.66626	-0.031494	-0.32666
189.0	6.845455	-1.21152	6.91918	-0.009513	0.009951	-0.006673	-0.668213	-0.038086	-0.328613
190.0	6.866505	-1.165229	6.991309	-0.006617	0.008441	-0.005673	-0.666016	-0.033691	-0.330811
191.0	6.83954	-1.186875	6.997045	-0.008384	0.007164	-0.005645	-0.67041	-0.033691	-0.322266
192.0	6.852098	-1.188246	6.944505	-0.003568	0.008247	-0.005993	-0.668213	-0.033691	-0.330811
193.0	6.856849	-1.188949	6.968877	-0.007903	0.009916	-0.005384	-0.666016	-0.033691	-0.32666
194.0	6.856244	-1.189038	6.969458	-0.00808	0.009798	-0.008288	-0.668213	-0.035889	-0.324463
195.0	6.855691	-1.189071	6.969996	-0.00662	0.008444	-0.005676	-0.672607	-0.033691	-0.328613
196.0	6.855161	-1.189261	6.970485	-0.009672	0.00864	-0.005358	-0.666016	-0.033691	-0.330811
197.0	6.886423	-1.168641	6.989521	-0.008235	0.008484	-0.00697	-0.668213	-0.037842	-0.335205
198.0	6.848804	-1.188949	6.947633	-0.00806	0.008604	-0.004066	-0.667969	-0.040039	-0.330811
199.0	6.85366	-1.189955	6.971842	-0.010156	0.00589	-0.005623	-0.67041	-0.033691	-0.32666
200.0	6.858863	-1.141674	6.972405	-0.009851	0.008525	-0.008265	-0.67041	-0.037842	-0.333008
201.0	6.876429	-1.193033	6.967318	-0.005164	0.007093	-0.003064	-0.67041	-0.033691	-0.328613
202.0	6.85752	-1.191329	6.996962	-0.01419	0.010195	-0.007659	-0.666016	-0.033691	-0.328613
203.0	6.857069	-1.191764	6.997331	-0.008698	0.004537	-0.003011	-0.67041	-0.033691	-0.328613
204.0	6.851477	-1.191308	6.973757	-0.008721	0.005737	-0.007237	-0.666016	-0.033691	-0.330811
205.0	6.848154	-1.215774	6.974123	-0.010813	0.011438	-0.006394	-0.666016	-0.035889	-0.328613
206.0	6.887441	-1.171557	7.017182	-0.005343	0.006979	-0.005971	-0.666016	-0.033691	-0.333008
207.0	6.873498	-1.194524	6.969955	-0.01243	0.011479	-0.00769	-0.670654	-0.029297	-0.328857
208.0	6.849298	-1.192004	6.975778	-0.003882	0.005623	-0.003356	-0.67041	-0.035889	-0.324463
209.0	6.856996	-1.168476	7.000094	-0.005344	0.00698	-0.005972	-0.663818	-0.033691	-0.32666
210.0	6.851193	-1.167968	6.976744	-0.014199	0.010203	-0.007667	-0.664063	-0.033691	-0.328613
211.0	6.84783	-1.192503	6.977133	-0.008247	0.008495	-0.006978	-0.666016	-0.035889	-0.322266
212.0	6.842066	-1.192028	6.953742	-0.009838	0.007333	-0.004048	-0.668213	-0.035645	-0.335205
213.0	6.87056	-1.195876	6.972619	-0.011453	0.007374	-0.005344	-0.674805	-0.033691	-0.32666
214.0	6.846413	-1.193455	6.978361	-0.009863	0.008538	-0.008275	-0.67041	-0.033691	-0.324463
215.0	6.869666	-1.196372	6.973414	-0.010168	0.005901	-0.005635	-0.666016	-0.035889	-0.333008
216.0	6.871928	-1.172449	6.97401	-0.012441	0.011488	-0.007698	-0.672363	-0.038086	-0.328613
217.0	6.844796	-1.194273	6.979808	-0.007925	0.009935	-0.005397	-0.67041	-0.033691	-0.335205
218.0	6.868047	-1.197043	6.974895	-0.005828	0.004234	-0.00624	-0.668457	-0.027344	-0.32666
219.0	6.87045	-1.172931	6.975385	-0.009693	0.008657	-0.005373	-0.674805	-0.033691	-0.328613
220.0	6.838178	-1.194181	6.957196	-0.012748	0.008853	-0.005061	-0.661865	-0.031494	-0.32666
221.0	6.845726	-1.171042	6.981593	-0.008406	0.007185	-0.005664	-0.67041	-0.033936	-0.320068
222.0	6.821259	-1.217873	7.010871	-0.009696	0.00866	-0.005375	-0.666016	-0.035889	-0.333008
223.0	6.865748	-1.198492	6.976909	-0.008885	0.004432	-0.00593	-0.668457	-0.031494	-0.324463
224.0	6.867974	-1.174412	6.977574	-0.012148	0.014137	-0.010346	-0.666016	-0.038086	-0.324463
225.0	6.840856	-1.196136	6.98335	-0.00518	0.007105	-0.003072	-0.668213	-0.035645	-0.335205
226.0	6.848426	-1.17293	7.007735	-0.011465	0.007383	-0.005355	-0.666016	-0.035889	-0.32666
227.0	6.866365	-1.175229	6.97902	-0.011315	0.008705	-0.006676	-0.666016	-0.033691	-0.32666
228.0	6.857909	-1.199051	6.9554	-0.010178	0.00591	-0.005645	-0.668213	-0.033691	-0.328613
229.0	6.86272	-1.200139	6.979604	-0.011318	0.008707	-0.006678	-0.668213	-0.038086	-0.326416
230.0	6.833289	-1.196818	6.961545	-0.006822	0.008359	-0.008598	-0.67041	-0.035889	-0.330811
231.0	6.840711	-1.173325	6.986124	-0.009403	0.011309	-0.008022	-0.668457	-0.029297	-0.330811
232.0	6.855773	-1.199683	6.957396	-0.009705	0.008667	-0.005382	-0.668213	-0.038086	-0.322266
233.0	6.858059	-1.175561	6.958019	-0.00536	0.006998	-0.005982	-0.67041	-0.035889	-0.32666
234.0	6.859947	-1.200584	6.982253	-0.010872	0.012676	-0.010644	-0.665771	-0.040039	-0.335205
235.0	6.856796	-1.175426	6.959285	-0.00183	0.009559	-0.006026	-0.668213	-0.033691	-0.333008
236.0	6.858712	-1.20035	6.983507	-0.006653	0.008475	-0.005695	-0.666016	-0.035889	-0.32666
237.0	6.832033	-1.172753	6.965631	-0.008269	0.008518	-0.006995	-0.668213	-0.035889	-0.330811
238.0	6.857645	-1.200483	6.984531	-0.00812	0.00984	-0.008316	-0.67041	-0.035889	-0.333008
239.0	6.859924	-1.176373	6.985158	-0.008571	0.005875	-0.004355	-0.661865	-0.033691	-0.32666
240.0	6.846307	-1.199167	6.937693	-0.00683	0.008367	-0.008605	-0.666016	-0.033691	-0.328613
241.0	6.856295	-1.200768	6.985807	-0.008422	0.007198	-0.005677	-0.666016	-0.033691	-0.324463
242.0	6.855826	-1.201037	6.986221	-0.005017	0.007223	-0.00017	-0.668457	-0.029297	-0.328857
243.0	6.85039	-1.151195	6.939383	-0.011505	0.008607	-0.009598	-0.665771	-0.040039	-0.333008
244.0	6.854848	-1.201296	6.987136	-0.006833	0.008371	-0.008607	-0.668213	-0.033691	-0.337402
245.0	6.85705	-1.176968	6.98788	-0.00651	0.009804	-0.00702	-0.666016	-0.035889	-0.333008
246.0	6.851221	-1.176259	6.964634	-0.007953	0.009957	-0.005413	-0.666016	-0.035645	-0.335205
247.0	6.871523	-1.203176	6.959803	-0.006362	0.011129	-0.008342	-0.67041	-0.035889	-0.330811
248.0	6.82637	-1.173637	6.971032	-0.007135	0.005727	-0.005969	-0.663818	-0.035889	-0.333008
249.0	6.870566	-1.203194	6.960744	-0.008129	0.00985	-0.008324	-0.67041	-0.035889	-0.328613
250.0	6.849014	-1.176164	6.96682	-0.00184	0.009569	-0.00603	-0.668213	-0.038086	-0.328613
251.0	6.853623	-1.176813	6.991267	-0.008131	0.009851	-0.008325	-0.663818	-0.033691	-0.32666
252.0	6.845135	-1.200315	6.967753	-0.006665	0.008485	-0.005704	-0.666016	-0.035889	-0.328613
253.0	6.847259	-1.176016	6.96857	-0.004752	0.01109	-0.007045	-0.668457	-0.031494	-0.337402
254.0	6.843899	-1.200211	6.968986	-0.00975	0.009898	-0.009629	-0.668213	-0.033691	-0.330811
255.0	6.869775	-1.178612	6.964488	-0.006668	0.008487	-0.005706	-0.668457	-0.029297	-0.330811
256.0	6.866548	-1.202851	6.964766	-0.006842	0.00838	-0.008616	-0.667969	-0.040283	-0.326416
257.0	6.850329	-1.176612	6.994528	-0.005549	0.006905	-0.008903	-0.668213	-0.035889	-0.32666
258.0	6.849811	-1.17657	6.995042	-0.004731	0.009877	-0.002817	-0.668213	-0.033691	-0.335205
259.0	6.846422	-1.200966	6.99545	-0.011049	0.011378	-0.009347	-0.668213	-0.033691	-0.32666
260.0	6.867114	-1.178565	6.967119	-0.006993	0.007059	-0.007297	-0.668213	-0.035889	-0.328613
261.0	6.861461	-1.177904	6.943717	-0.009732	0.008685	-0.005405	-0.670654	-0.029297	-0.333008
262.0	6.863348	-1.203229	6.967855	-0.009585	0.010012	-0.006727	-0.668213	-0.035889	-0.32666
263.0	6.865581	-1.179103	6.968539	-0.005527	0.005691	-0.004675	-0.670654	-0.029541	-0.322266
264.0	6.857179	-1.202637	6.944952	-0.009438	0.011339	-0.008049	-0.668213	-0.035889	-0.328613
265.0	6.835531	-1.175807	6.951059	-0.004911	0.009775	-0.00573	-0.666016	-0.038086	-0.328613
266.0	6.861164	-1.203527	6.969954	-0.005207	0.007124	-0.003088	-0.666016	-0.038086	-0.326416
267.0	6.866111	-1.155032	6.970893	-0.008467	0.008434	-0.009926	-0.670654	-0.031494	-0.330811
268.0	6.8575	-1.227811	6.97065	-0.006678	0.008496	-0.005713	-0.672607	-0.033691	-0.328613
269.0	6.862434	-1.179433	6.971583	-0.01006	0.007259	-0.007	-0.672852	-0.029541	-0.324463
270.0	6.83305	-1.176124	6.953443	-0.006532	0.009823	-0.007035	-0.668213	-0.033691	-0.333008
271.0	6.856196	-1.178859	6.948754	-0.011358	0.008737	-0.006716	-0.672363	-0.038086	-0.328613
272.0	6.860925	-1.179891	6.97299	-0.007149	0.005741	-0.005984	-0.66626	-0.031494	-0.324463
273.0	6.879097	-1.181788	6.944278	-0.008446	0.007217	-0.005699	-0.668457	-0.031494	-0.333008
274.0	6.841562	-1.178506	7.002785	-0.011681	0.007309	-0.008308	-0.66626	-0.031494	-0.333008
275.0	6.856958	-1.204678	6.973894	-0.006683	0.0085	-0.005717	-0.670654	-0.029541	-0.32666
276.0	6.851321	-1.203972	6.9505	-0.006831	0.007174	-0.004396	-0.663818	-0.035889	-0.326416
277.0	6.86141	-1.156462	6.975283	-0.008449	0.00722	-0.005701	-0.670654	-0.031494	-0.324463
278.0	6.858201	-1.180811	6.975513	-0.006538	0.00983	-0.007039	-0.666016	-0.033691	-0.330811
279.0	6.881298	-1.183458	6.970902	-0.007984	0.009979	-0.005434	-0.67041	-0.033691	-0.32666
280.0	6.864759	-1.157632	7.000844	-0.01269	0.011446	-0.010671	-0.672607	-0.035889	-0.335205
281.0	6.85378	-1.205484	6.976878	-0.005684	0.004372	-0.003362	-0.67041	-0.033691	-0.330811
282.0	6.856189	-1.181502	6.977374	-0.008746	0.004567	-0.003062	-0.67041	-0.037842	-0.333008
283.0	6.847919	-1.205229	6.953634	-0.009605	0.010029	-0.006741	-0.67041	-0.035889	-0.324463
284.0	6.860345	-1.182854	7.002104	-0.008454	0.007225	-0.005706	-0.670654	-0.031494	-0.330811
285.0	6.873341	-1.184025	6.949594	-0.0099	0.007374	-0.004101	-0.674805	-0.033691	-0.328613
286.0	6.854351	-1.182681	6.97898	-0.01022	0.005944	-0.005692	-0.672852	-0.029541	-0.32666
287.0	6.856655	-1.158583	6.979606	-0.008629	0.007125	-0.008619	-0.67041	-0.033691	-0.324463
288.0	6.872002	-1.1847	6.950803	-0.009291	0.011463	-0.005154	-0.66626	-0.0271	-0.333008
289.0	6.850131	-1.207608	6.980093	-0.008285	0.007329	-0.002797	-0.668213	-0.038086	-0.324463
290.0	6.857458	-1.184467	7.004658	-0.005223	0.007135	-0.003096	-0.663818	-0.038086	-0.324463
291.0	6.875468	-1.186277	6.976173	-0.007848	0.011318	-0.006761	-0.677002	-0.033691	-0.324463
292.0	6.856196	-1.184724	7.00585	-0.007995	0.009989	-0.005441	-0.670654	-0.031494	-0.328857
293.0	6.850443	-1.184051	6.982584	-0.007996	0.00999	-0.005442	-0.67041	-0.035889	-0.32666
294.0	6.844747	-1.18332	6.959274	-0.006697	0.008514	-0.005726	-0.664063	-0.031494	-0.330811
295.0	6.877992	-1.18754	7.002513	-0.004324	0.013886	-0.006792	-0.672607	-0.031494	-0.32666
296.0	6.867243	-1.185759	6.955324	-0.00439	0.002901	-0.003652	-0.670654	-0.031494	-0.324463
297.0	6.84808	-1.184004	6.98491	-0.007416	0.015312	-0.010729	-0.672607	-0.033691	-0.322266
298.0	6.863243	-1.210041	6.956334	-0.011065	0.010188	-0.005149	-0.67041	-0.033691	-0.324463
299.0	6.865269	-1.186085	6.957217	-0.00962	0.010042	-0.006754	-0.668457	-0.031494	-0.32666
300.0	6.840983	-1.183717	6.962907	-0.009938	0.008614	-0.008346	-0.666016	-0.035889	-0.330811
301.0	6.821857	-1.182054	6.992422	-0.005256	0.008372	-0.007335	-0.666016	-0.033691	-0.324463
302.0	6.868791	-1.187195	6.982592	-0.009768	0.008714	-0.005435	-0.668213	-0.035889	-0.333008
303.0	6.863115	-1.18645	6.95928	-0.004941	0.009803	-0.005744	-0.668457	-0.031494	-0.328613
304.0	6.867716	-1.187438	6.983607	-0.006996	0.005859	-0.00309	-0.670166	-0.040039	-0.330811
305.0	6.838315	-1.18417	6.965451	-0.007717	0.012661	-0.008092	-0.666016	-0.035889	-0.330811
306.0	6.861251	-1.186789	6.96106	-0.010783	0.012857	-0.007798	-0.668457	-0.031494	-0.32666
307.0	6.836941	-1.184401	6.96676	-0.003932	0.005666	-0.003386	-0.668213	-0.033691	-0.322266
308.0	6.867953	-1.163706	6.986216	-0.009773	0.008718	-0.00544	-0.672607	-0.035889	-0.328613
309.0	6.836017	-1.184725	6.967611	-0.007025	0.007095	-0.007327	-0.672607	-0.035889	-0.330811
310.0	6.869451	-1.189051	7.010636	-0.008328	0.008574	-0.007045	-0.67041	-0.037842	-0.333008
311.0	6.866553	-1.163952	6.987551	-0.008645	0.007146	-0.008638	-0.666016	-0.035889	-0.330811
312.0	6.850638	-1.21085	6.939593	-0.00654	0.008623	-0.002823	-0.670654	-0.029541	-0.32666
313.0	6.836685	-1.160707	6.969843	-0.005119	0.009714	-0.008662	-0.668213	-0.033691	-0.32666
314.0	6.862352	-1.188352	6.988723	-0.008476	0.007244	-0.005726	-0.67041	-0.037842	-0.335205
315.0	6.875423	-1.189157	6.936354	-0.006569	0.009861	-0.007059	-0.67041	-0.033691	-0.32666
316.0	6.856058	-1.187514	6.966051	-0.00611	0.012623	-0.006789	-0.67041	-0.035889	-0.333008
317.0	6.855395	-1.187531	6.9667	-0.006715	0.00853	-0.00574	-0.668213	-0.033691	-0.328613
318.0	6.838785	-1.161685	6.996602	-0.006571	0.009863	-0.007062	-0.666016	-0.033691	-0.328613
319.0	6.883019	-1.191037	6.986577	-0.009639	0.010058	-0.00677	-0.668457	-0.031494	-0.328613
320.0	6.861252	-1.164315	6.992696	-0.006429	0.011198	-0.008384	-0.67041	-0.035889	-0.330811
321.0	6.834314	-1.186109	6.998023	-0.005243	0.00715	-0.00311	-0.668457	-0.031738	-0.322266
322.0	6.854866	-1.213274	6.993023	-0.014158	0.0104	-0.004878	-0.666016	-0.038086	-0.324463
323.0	6.878249	-1.166755	6.965224	-0.010102	0.0073	-0.007045	-0.670654	-0.031494	-0.333008
324.0	6.851358	-1.188742	6.970465	-0.008025	0.010013	-0.005462	-0.672852	-0.031494	-0.328857
325.0	6.871894	-1.215742	6.965514	-0.009789	0.00873	-0.005453	-0.663818	-0.035889	-0.330811
326.0	6.852896	-1.164972	6.971812	-0.008485	0.007253	-0.005735	-0.666016	-0.033691	-0.32666
327.0	6.859947	-1.191159	7.019578	-0.007037	0.007109	-0.007338	-0.67041	-0.035889	-0.330811
328.0	6.849205	-1.189377	6.972472	-0.009047	0.014163	-0.007827	-0.664063	-0.033691	-0.330811
329.0	6.872272	-1.191976	6.968008	-0.005249	0.007154	-0.003113	-0.666016	-0.035889	-0.330811
330.0	6.866686	-1.191228	6.944648	-0.008031	0.010018	-0.005466	-0.67041	-0.035889	-0.328613
331.0	6.847449	-1.189874	6.974111	-0.010108	0.007306	-0.007051	-0.670654	-0.031494	-0.324463
332.0	6.84193	-1.18922	6.95067	-0.009795	0.008735	-0.005459	-0.67041	-0.035889	-0.333008
333.0	6.846387	-1.190411	6.975062	-0.011273	0.010122	-0.008094	-0.67041	-0.033691	-0.32666
334.0	6.840827	-1.189691	6.951675	-0.006872	0.007207	-0.004428	-0.668213	-0.035889	-0.328613
335.0	6.848008	-1.166648	6.976333	-0.011561	0.007453	-0.005453	-0.668213	-0.033691	-0.330811
336.0	6.860928	-1.217091	6.947099	-0.009343	0.011502	-0.005189	-0.667969	-0.040283	-0.326416
337.0	6.849399	-1.143083	6.9778	-0.008323	0.007353	-0.002827	-0.668213	-0.033691	-0.328613
338.0	6.843739	-1.19192	6.977404	-0.008494	0.007261	-0.005743	-0.668213	-0.033691	-0.32666
339.0	6.867018	-1.194538	6.972747	-0.009972	0.008649	-0.008379	-0.672607	-0.031494	-0.32666
340.0	6.840209	-1.216397	6.977879	-0.005426	0.007068	-0.006032	-0.672607	-0.035889	-0.328613
341.0	6.842283	-1.192213	6.978781	-0.009661	0.010078	-0.006787	-0.668213	-0.033691	-0.328613
342.0	6.868098	-1.170597	6.97459	-0.008497	0.007264	-0.005746	-0.670654	-0.031494	-0.324463
343.0	6.865053	-1.195173	6.974574	-0.009948	0.007407	-0.004145	-0.67041	-0.033691	-0.324463
344.0	6.872149	-1.172202	6.9993	-0.009806	0.008745	-0.005467	-0.664063	-0.029297	-0.333008
345.0	6.840289	-1.193316	6.980546	-0.005259	0.007162	-0.003118	-0.672607	-0.031738	-0.324463
346.0	6.866095	-1.171682	6.976379	-0.011286	0.010135	-0.008105	-0.668213	-0.035889	-0.324463
347.0	6.857912	-1.195254	6.952621	-0.006569	0.008642	-0.002839	-0.66626	-0.031494	-0.32666
348.0	6.838658	-1.193991	6.982029	-0.008501	0.007268	-0.00575	-0.668213	-0.037842	-0.333008
349.0	6.861869	-1.196742	6.977437	-0.011119	0.010228	-0.005191	-0.670654	-0.031494	-0.324463
350.0	6.840189	-1.17039	6.983373	-0.008645	0.005933	-0.004429	-0.668213	-0.035889	-0.324463
351.0	6.879769	-1.198766	6.94924	-0.005574	0.005739	-0.004715	-0.672607	-0.033691	-0.32666
352.0	6.855455	-1.196741	6.954789	-0.015503	0.011904	-0.004629	-0.668457	-0.031494	-0.328613
353.0	6.862509	-1.17389	6.979535	-0.005717	0.004402	-0.003395	-0.67041	-0.035889	-0.328613
354.0	6.878343	-1.199818	6.95047	-0.008506	0.007273	-0.005753	-0.668213	-0.033691	-0.330811
355.0	6.837879	-1.171741	6.985409	-0.008222	0.009949	-0.008396	-0.66626	-0.027344	-0.328857
356.0	6.858514	-1.198376	6.980454	-0.005293	0.008417	-0.00736	-0.668457	-0.031494	-0.32666
357.0	6.852967	-1.197448	6.957119	-0.009676	0.010092	-0.006798	-0.67041	-0.035889	-0.32666
358.0	6.864894	-1.175198	7.005913	-0.006604	0.009899	-0.007082	-0.666016	-0.035889	-0.330811
359.0	6.856732	-1.198481	6.982187	-0.006605	0.009899	-0.007083	-0.670654	-0.031494	-0.330811
360.0	6.834884	-1.171829	6.988324	-0.009538	0.011434	-0.008122	-0.67041	-0.035889	-0.333008
361.0	6.850433	-1.1977	6.95957	-0.008059	0.010042	-0.005484	-0.668213	-0.035889	-0.32666
362.0	6.857458	-1.174496	6.984397	-0.008681	0.007191	-0.008676	-0.666016	-0.035889	-0.32666
363.0	6.875875	-1.175974	6.955827	-0.005581	0.005745	-0.004721	-0.674805	-0.035889	-0.330811
364.0	6.854071	-1.198986	6.984713	-0.008203	0.008705	-0.004164	-0.67041	-0.038086	-0.326416
365.0	6.882274	-1.20258	7.004038	-0.009994	0.008673	-0.0084	-0.67041	-0.033691	-0.330811
366.0	6.866905	-1.199685	6.932838	-0.005441	0.007086	-0.006044	-0.663818	-0.035889	-0.333008
367.0	6.847571	-1.198448	6.962257	-0.011139	0.010241	-0.005206	-0.668213	-0.033691	-0.32666
368.0	6.8546	-1.175409	6.987048	-0.007205	0.005802	-0.006041	-0.66626	-0.031494	-0.328613
369.0	6.873046	-1.176761	6.95849	-0.005612	0.007002	-0.008962	-0.672607	-0.035889	-0.32666
370.0	6.848835	-1.174418	6.963953	-0.005107	0.00726	-0.00021	-0.66626	-0.029297	-0.330811
371.0	6.876993	-1.178068	6.983319	-0.008068	0.010049	-0.00549	-0.668213	-0.037842	-0.335205
372.0	6.876356	-1.178254	6.983915	-0.008069	0.01005	-0.005491	-0.666016	-0.033691	-0.330811
373.0	6.8494	-1.200319	6.989064	-0.00807	0.010051	-0.005491	-0.67041	-0.035889	-0.32666
374.0	6.853859	-1.151955	6.990614	-0.008071	0.010052	-0.005492	-0.663818	-0.038086	-0.326416
375.0	6.874489	-1.178874	6.985649	-0.009834	0.008767	-0.00549	-0.67041	-0.035889	-0.324463
376.0	6.861595	-1.201337	6.937807	-0.003966	0.005697	-0.003407	-0.666016	-0.033691	-0.335205
377.0	6.865963	-1.202461	6.962244	-0.010867	0.01293	-0.007857	-0.668213	-0.035889	-0.328613
378.0	6.844012	-1.175998	6.968427	-0.008075	0.010055	-0.005495	-0.664063	-0.033691	-0.330811
379.0	6.867197	-1.178505	6.963968	-0.00514	0.00852	-0.004453	-0.663818	-0.033691	-0.324463
380.0	6.847841	-1.177078	6.993392	-0.005309	0.008436	-0.007372	-0.663818	-0.035889	-0.326416
381.0	6.871005	-1.179438	6.98898	-0.007937	0.011398	-0.006818	-0.668213	-0.035889	-0.330811
382.0	6.846567	-1.177088	6.994637	-0.006624	0.009919	-0.007096	-0.66626	-0.029297	-0.328857
383.0	6.864775	-1.178523	6.966352	-0.004835	0.009947	-0.002858	-0.67041	-0.033691	-0.324463
384.0	6.840404	-1.176253	6.971926	-0.006766	0.008578	-0.005776	-0.664063	-0.033691	-0.330811
385.0	6.863589	-1.178878	6.96746	-0.011157	0.010255	-0.005222	-0.674805	-0.033691	-0.333008
386.0	6.841472	-1.201969	6.996542	-0.004558	0.012633	-0.005503	-0.674805	-0.033691	-0.324463
387.0	6.859795	-1.153789	6.94542	-0.00839	0.008637	-0.007098	-0.666016	-0.035889	-0.324463
388.0	6.885393	-1.181461	6.964372	-0.003385	0.009812	-0.004458	-0.666016	-0.035889	-0.32666
389.0	6.842124	-1.177802	6.998864	-0.009706	0.010119	-0.006824	-0.67041	-0.035889	-0.324463
390.0	6.829143	-1.200136	6.951165	-0.005009	0.009869	-0.00578	-0.664063	-0.033691	-0.333008
391.0	6.859729	-1.179298	6.971189	-0.006464	0.010008	-0.004183	-0.672607	-0.033691	-0.328613
392.0	6.851686	-1.202773	6.947345	-0.006604	0.008666	-0.002862	-0.668457	-0.029297	-0.333008
393.0	6.858516	-1.179737	6.972309	-0.008087	0.010066	-0.005506	-0.668213	-0.035889	-0.328613
394.0	6.879056	-1.206579	6.967483	-0.010887	0.012948	-0.007874	-0.663818	-0.037842	-0.330811
395.0	6.840674	-1.204111	7.025815	-0.008535	0.0073	-0.005783	-0.668457	-0.031494	-0.333008
396.0	6.856667	-1.180391	6.974016	-0.00823	0.008725	-0.004186	-0.668213	-0.038086	-0.330811
397.0	6.856108	-1.180678	6.974517	-0.00823	0.008726	-0.004186	-0.668213	-0.035645	-0.337402
398.0	6.884199	-1.184309	6.993977	-0.009714	0.010127	-0.006831	-0.666016	-0.035645	-0.335205
399.0	6.850028	-1.180145	6.951702	-0.008232	0.008727	-0.004188	-0.672607	-0.033691	-0.330811
400.0	6.846789	-1.204615	6.951852	-0.009133	0.014242	-0.007879	-0.668213	-0.035889	-0.333008
401.0	6.853421	-1.18137	6.977041	-0.001773	0.009764	-0.00314	-0.666016	-0.033691	-0.333008
402.0	6.876588	-1.183671	6.972691	-0.008262	0.009993	-0.008432	-0.66626	-0.031494	-0.333008
403.0	6.849684	-1.205579	6.977722	-0.005019	0.00988	-0.005786	-0.67041	-0.033691	-0.330811
404.0	6.880189	-1.184688	6.997857	-0.006337	0.011362	-0.005512	-0.666016	-0.035645	-0.335205
405.0	6.855728	-1.182366	7.003473	-0.006643	0.009938	-0.007111	-0.668213	-0.033691	-0.333008
406.0	6.876292	-1.209063	6.998668	-0.007656	0.012846	-0.005239	-0.668213	-0.035889	-0.32666
407.0	6.844626	-1.180448	6.956969	-0.007087	0.007171	-0.007389	-0.668213	-0.033691	-0.333008
408.0	6.872529	-1.183978	6.97664	-0.011779	0.017214	-0.007338	-0.666016	-0.035889	-0.324463
409.0	6.848054	-1.181768	6.982241	-0.002664	0.00423	-0.003694	-0.668457	-0.029541	-0.324463
410.0	6.873852	-1.209586	7.000974	-0.00838	0.007389	-0.002874	-0.666016	-0.035889	-0.324463
411.0	6.868563	-1.159118	6.954784	-0.006647	0.009944	-0.007115	-0.668213	-0.035889	-0.32666
412.0	6.84657	-1.182138	6.983634	-0.006786	0.008599	-0.005794	-0.668213	-0.035889	-0.330811
413.0	6.846038	-1.182216	6.984142	-0.006787	0.0086	-0.005794	-0.668213	-0.033691	-0.335205
414.0	6.840606	-1.181194	6.960796	-0.00665	0.009946	-0.007117	-0.663818	-0.035889	-0.333008
415.0	6.82109	-1.180062	6.990181	-0.009868	0.008796	-0.005524	-0.666016	-0.038086	-0.328613
416.0	6.8729	-1.185952	7.004802	-0.006348	0.011372	-0.005519	-0.668213	-0.033691	-0.32666
417.0	6.84367	-1.182592	6.986399	-0.005471	0.00712	-0.00607	-0.668213	-0.038086	-0.326416
418.0	6.869411	-1.160826	6.982531	-0.011191	0.01028	-0.005253	-0.666016	-0.035889	-0.328613
419.0	6.861567	-1.184408	6.958499	-0.00869	0.00597	-0.004479	-0.67041	-0.038086	-0.322266
420.0	6.868282	-1.21105	7.006186	-0.008112	0.010087	-0.005525	-0.663818	-0.038086	-0.324463
421.0	6.841576	-1.183588	6.988281	-0.008554	0.007318	-0.005802	-0.670654	-0.031494	-0.333008
422.0	6.883811	-1.187251	6.955018	-0.00828	0.010012	-0.008447	-0.663818	-0.035889	-0.328613
423.0	6.835706	-1.18262	6.965366	-0.007098	0.007183	-0.007399	-0.672852	-0.031494	-0.335205
424.0	6.859043	-1.184844	6.960913	-0.003715	0.008413	-0.006069	-0.661621	-0.035645	-0.333008
425.0	6.85839	-1.184758	6.961571	-0.007843	0.012785	-0.008173	-0.67041	-0.035889	-0.330811
426.0	6.86253	-1.185817	6.986164	-0.008283	0.010016	-0.008451	-0.663818	-0.035889	-0.326416
427.0	6.854636	-1.208912	6.962271	-0.005203	0.009822	-0.00872	-0.668457	-0.027344	-0.32666
428.0	6.832732	-1.182356	6.968328	-0.008257	0.008745	-0.004208	-0.666016	-0.035889	-0.32666
429.0	6.860834	-1.185803	6.987832	-0.005342	0.008476	-0.007399	-0.668213	-0.038086	-0.322266
430.0	6.855488	-1.184701	6.964438	-0.006801	0.008612	-0.005804	-0.668457	-0.029541	-0.324463
431.0	6.85499	-1.184816	6.964909	-0.005315	0.007204	-0.003155	-0.668213	-0.033691	-0.328613
432.0	6.854524	-1.184859	6.96536	-0.010214	0.008657	-0.011383	-0.666016	-0.037842	-0.330811
433.0	6.858907	-1.185767	6.989729	-0.002399	0.006936	-0.006345	-0.67041	-0.035889	-0.328613
434.0	6.858402	-1.185633	6.990247	-0.008291	0.010022	-0.008457	-0.67041	-0.033691	-0.32666
435.0	6.855527	-1.160254	6.967445	-0.005482	0.007132	-0.006079	-0.668457	-0.031494	-0.330811
436.0	6.836015	-1.159021	6.996769	-0.006669	0.009964	-0.00713	-0.668457	-0.029297	-0.328857
437.0	6.847209	-1.183503	6.943957	-0.006942	0.007267	-0.004486	-0.67041	-0.033691	-0.32666
438.0	6.856395	-1.185738	6.992198	-0.005484	0.007133	-0.006081	-0.663818	-0.033691	-0.322266
439.0	6.851105	-1.184676	6.968754	-0.006808	0.008617	-0.005809	-0.672363	-0.038086	-0.328613
440.0	6.874392	-1.186914	6.964384	-0.003726	0.008423	-0.006076	-0.668213	-0.033691	-0.32666
441.0	6.845227	-1.183355	6.945936	-0.005214	0.009834	-0.008728	-0.663818	-0.033691	-0.320068
442.0	6.849336	-1.184433	6.970534	-0.010945	0.012995	-0.00792	-0.66626	-0.031494	-0.324463
443.0	6.872608	-1.186898	6.966148	-0.005759	0.004437	-0.003438	-0.668213	-0.038086	-0.324463
444.0	6.846029	-1.15949	6.948098	-0.009895	0.008814	-0.005547	-0.666016	-0.033691	-0.328613
445.0	6.85263	-1.186256	6.9958	-0.008272	0.008754	-0.004219	-0.667969	-0.040039	-0.330811
446.0	6.875902	-1.188718	6.991419	-0.008437	0.008683	-0.007143	-0.668457	-0.031494	-0.330811
447.0	6.846704	-1.185617	6.972918	-0.011222	0.0103	-0.005278	-0.67041	-0.035889	-0.32666
448.0	6.846295	-1.185855	6.973279	-0.004437	0.002956	-0.003711	-0.668457	-0.031494	-0.32666
449.0	6.876955	-1.164959	6.993316	-0.008304	0.010036	-0.008467	-0.670654	-0.031494	-0.32666
450.0	6.821487	-1.1836	6.979125	-0.005057	0.009914	-0.005808	-0.66626	-0.031494	-0.324463
451.0	6.839946	-1.184786	6.950894	-0.008441	0.008687	-0.007146	-0.666016	-0.033691	-0.333008
452.0	6.84664	-1.161702	6.975937	-0.008442	0.008687	-0.007147	-0.668213	-0.035889	-0.330811
453.0	6.867546	-1.18839	6.970884	-0.008578	0.007337	-0.005825	-0.666016	-0.033691	-0.330811
454.0	6.871884	-1.189695	6.995202	-0.008579	0.007338	-0.005825	-0.666016	-0.033691	-0.32666
455.0	6.861924	-1.187601	6.947744	-0.004005	0.005732	-0.003435	-0.668213	-0.033691	-0.330811
456.0	6.844677	-1.162245	6.977773	-0.009202	0.014299	-0.007923	-0.66626	-0.031494	-0.328613
457.0	6.865302	-1.188922	6.973004	-0.008147	0.010113	-0.005549	-0.668457	-0.031494	-0.32666
458.0	6.857588	-1.212192	6.948936	-0.008745	0.00727	-0.008753	-0.664063	-0.031494	-0.32666
459.0	6.814319	-1.159178	6.960395	-0.006823	0.008631	-0.005821	-0.666016	-0.038086	-0.328613
460.0	6.863772	-1.189255	6.974453	-0.009909	0.008826	-0.00556	-0.666016	-0.037842	-0.335205
461.0	6.846683	-1.164036	7.004286	-0.005633	0.005797	-0.004769	-0.668213	-0.037842	-0.333008
462.0	6.855754	-1.212752	6.950647	-0.010209	0.007406	-0.007163	-0.666016	-0.035889	-0.330811
463.0	6.864811	-1.165504	6.976371	-0.008153	0.010118	-0.005553	-0.67041	-0.033691	-0.324463
464.0	6.833325	-1.186571	6.957098	-0.007259	0.005861	-0.006102	-0.668213	-0.033691	-0.328613
465.0	6.868591	-1.166904	7.001208	-0.008155	0.010119	-0.005554	-0.668213	-0.035889	-0.324463
466.0	6.8848	-1.192356	6.972212	-0.002684	0.004252	-0.003708	-0.668213	-0.035889	-0.333008
467.0	6.855746	-1.189031	6.953596	-0.011272	0.011599	-0.009543	-0.67041	-0.038086	-0.324463
468.0	6.85994	-1.190207	6.978059	-0.005503	0.007153	-0.006095	-0.667969	-0.040283	-0.324463
469.0	6.849865	-1.187975	6.930776	-0.008025	0.011475	-0.006879	-0.67041	-0.038086	-0.330811
470.0	6.865945	-1.167106	7.003768	-0.005504	0.007154	-0.006096	-0.664063	-0.031494	-0.328613
471.0	6.834495	-1.187945	6.98449	-0.003746	0.008445	-0.006086	-0.674805	-0.035889	-0.335205
472.0	6.85547	-1.164613	6.956928	-0.006997	0.008572	-0.008753	-0.666016	-0.033691	-0.333008
473.0	6.850102	-1.213339	6.956116	-0.011249	0.010319	-0.0053	-0.66626	-0.029297	-0.328857
474.0	6.875689	-1.191455	6.952562	-0.005076	0.009932	-0.005819	-0.668213	-0.035889	-0.328613
475.0	6.858328	-1.166122	6.982641	-0.009656	0.011544	-0.008218	-0.67041	-0.033691	-0.328613
476.0	6.833925	-1.164077	6.987999	-0.010221	0.007416	-0.007175	-0.668213	-0.038086	-0.328613
477.0	6.873978	-1.191792	6.954196	-0.006838	0.008644	-0.005831	-0.666016	-0.035889	-0.32666
478.0	6.856687	-1.166582	6.984175	-0.009793	0.010193	-0.006897	-0.672852	-0.031494	-0.335205
479.0	6.87282	-1.192074	6.955293	-0.006839	0.008645	-0.005832	-0.67041	-0.038086	-0.328613
480.0	6.855647	-1.166904	6.985143	-0.007106	0.005937	-0.003186	-0.666016	-0.033691	-0.32666
481.0	6.85505	-1.167155	6.985687	-0.010992	0.013035	-0.007954	-0.672607	-0.031738	-0.322266
482.0	6.899692	-1.196032	6.975967	-0.005349	0.007228	-0.003176	-0.67041	-0.035889	-0.32666
483.0	6.853871	-1.167422	6.986799	-0.008335	0.010068	-0.008492	-0.666016	-0.033691	-0.328613
484.0	6.870042	-1.192803	6.957911	-0.008469	0.008713	-0.00717	-0.67041	-0.035889	-0.330811
485.0	6.855149	-1.193043	7.011034	-0.005351	0.00723	-0.003177	-0.668457	-0.031494	-0.328613
486.0	6.847544	-1.166629	6.964393	-0.0098	0.0102	-0.006903	-0.668213	-0.038086	-0.326416
487.0	6.844541	-1.191	6.964289	-0.005087	0.009942	-0.005824	-0.668213	-0.033691	-0.324463
488.0	6.843955	-1.191132	6.964842	-0.009935	0.008846	-0.005582	-0.666016	-0.035889	-0.32666
489.0	6.843388	-1.191171	6.965392	-0.005251	0.009879	-0.008752	-0.668457	-0.031494	-0.32666
490.0	6.845138	-1.166976	6.966699	-0.011268	0.010332	-0.005316	-0.663818	-0.038086	-0.328613
491.0	6.853945	-1.169542	7.015107	-0.005223	0.008589	-0.004503	-0.67041	-0.035889	-0.32666
492.0	6.865513	-1.193813	6.962207	-0.008607	0.007364	-0.005853	-0.668213	-0.033691	-0.324463
493.0	6.843537	-1.167586	6.968169	-0.008314	0.008784	-0.004249	-0.666016	-0.035889	-0.328613
494.0	6.862078	-1.168835	6.940004	-0.008182	0.010142	-0.005573	-0.672607	-0.033691	-0.330811
495.0	6.870797	-1.171322	6.988503	-0.009677	0.011565	-0.008234	-0.668457	-0.031494	-0.328613
496.0	6.863197	-1.194633	6.96435	-0.007116	0.005944	-0.003195	-0.67041	-0.035889	-0.32666
497.0	6.850618	-1.170538	7.018189	-0.005257	0.009887	-0.008756	-0.668213	-0.033691	-0.337402
498.0	6.842943	-1.19375	6.994124	-0.011277	0.010339	-0.005323	-0.672363	-0.040039	-0.330811
499.0	6.868518	-1.172094	6.990614	-0.009783	0.008917	-0.002663	-0.674561	-0.040039	-0.333008
500.0	6.84178	-1.144747	6.972699	-0.006855	0.008661	-0.005844	-0.668457	-0.031494	-0.330811
501.0	6.85574	-1.19445	6.942979	-0.008614	0.00737	-0.005859	-0.674805	-0.033691	-0.32666
502.0	6.86701	-1.172711	6.991992	-0.006988	0.007305	-0.004522	-0.668213	-0.035889	-0.324463
503.0	6.861731	-1.171778	6.968606	-0.01115	0.011701	-0.006651	-0.668213	-0.033691	-0.333008
504.0	6.863445	-1.147687	6.969944	-0.006859	0.008664	-0.005847	-0.666016	-0.033691	-0.324463
505.0	6.860506	-1.172109	6.969756	-0.008193	0.010151	-0.005581	-0.67041	-0.038086	-0.328613
506.0	6.864537	-1.173486	6.99429	-0.008194	0.010152	-0.005581	-0.668213	-0.035889	-0.330811
507.0	6.859334	-1.172385	6.970864	-0.007154	0.007247	-0.007453	-0.664063	-0.029297	-0.330811
508.0	6.858902	-1.172478	6.971273	-0.00862	0.007375	-0.005864	-0.663818	-0.033691	-0.32666
509.0	6.856055	-1.197011	6.970973	-0.008328	0.008795	-0.00426	-0.668457	-0.031494	-0.330811
510.0	6.857888	-1.172954	6.97219	-0.006994	0.00731	-0.004526	-0.67041	-0.033691	-0.330811
511.0	6.838256	-1.172202	7.001284	-0.010249	0.007444	-0.007205	-0.672607	-0.035889	-0.330811
512.0	6.856771	-1.173314	6.973228	-0.009272	0.014361	-0.007966	-0.66626	-0.031494	-0.32666
513.0	6.879926	-1.175703	6.969121	-0.008462	0.007439	-0.002939	-0.67041	-0.033691	-0.32666
514.0	6.879451	-1.175974	6.969545	-0.00537	0.007245	-0.003189	-0.668213	-0.035889	-0.328613
515.0	6.859757	-1.175162	6.998696	-0.008494	0.00874	-0.007192	-0.668213	-0.038086	-0.330811
516.0	6.847518	-1.197292	6.950599	-0.009669	0.010286	-0.003999	-0.668213	-0.035889	-0.328613
517.0	6.830093	-1.172369	6.980546	-0.008626	0.007382	-0.00587	-0.672852	-0.031494	-0.328857
518.0	6.875018	-1.201124	6.970699	-0.007	0.007315	-0.004531	-0.672607	-0.035889	-0.330811
519.0	6.857498	-1.176097	7.000753	-0.009411	0.013009	-0.006648	-0.672607	-0.031738	-0.322266
520.0	6.852275	-1.174914	6.977377	-0.004199	0.005703	-0.006386	-0.663818	-0.038086	-0.324463
521.0	6.851792	-1.174936	6.977847	-0.008208	0.010164	-0.005591	-0.663818	-0.033691	-0.32666
522.0	6.851346	-1.175136	6.978252	-0.009051	0.004606	-0.006156	-0.667969	-0.040039	-0.335205
523.0	6.850905	-1.175347	6.978649	-0.009837	0.010233	-0.006933	-0.666016	-0.035889	-0.333008
524.0	6.850326	-1.175503	6.979192	-0.008502	0.008748	-0.007199	-0.668457	-0.031494	-0.333008
525.0	6.849853	-1.175547	6.979648	-0.007166	0.007262	-0.007464	-0.67041	-0.038086	-0.328613
526.0	6.871	-1.202105	6.974491	-0.008763	0.006027	-0.004553	-0.663574	-0.040283	-0.326416
527.0	6.844376	-1.174656	6.956482	-0.006877	0.008681	-0.005859	-0.668457	-0.031494	-0.324463
528.0	6.867798	-1.176858	6.952174	-0.007298	0.005902	-0.006142	-0.663818	-0.033691	-0.324463
529.0	6.848086	-1.175988	6.981308	-0.005121	0.009975	-0.005842	-0.666016	-0.035889	-0.32666
530.0	6.871408	-1.178182	6.977102	-0.008636	0.007391	-0.005879	-0.666016	-0.035889	-0.328613
531.0	6.823201	-1.174104	6.986991	-0.008507	0.008753	-0.007203	-0.67041	-0.033691	-0.32666
532.0	6.879537	-1.180877	7.026044	-0.006461	0.011465	-0.005579	-0.665771	-0.040283	-0.322266
533.0	6.865036	-1.177253	6.954834	-0.006881	0.008685	-0.005863	-0.668213	-0.035645	-0.335205
534.0	6.840639	-1.175221	6.960061	-0.006882	0.008686	-0.005863	-0.666016	-0.033691	-0.330811
535.0	6.897165	-1.181999	6.998933	-0.00893	0.005976	-0.007489	-0.67041	-0.038086	-0.326416
536.0	6.842009	-1.200838	6.984103	-0.006625	0.011412	-0.008512	-0.670654	-0.031494	-0.333008
537.0	6.843728	-1.176565	6.985483	-0.005385	0.007256	-0.003198	-0.661621	-0.035889	-0.326416
538.0	6.867232	-1.17885	6.9811	-0.009061	0.004615	-0.006168	-0.666016	-0.033691	-0.328613
539.0	6.840637	-1.201137	6.985395	-0.006757	0.010052	-0.00719	-0.66626	-0.031494	-0.32666
540.0	6.861561	-1.177784	6.958173	-0.008226	0.010178	-0.005603	-0.67041	-0.033691	-0.324463
541.0	6.863243	-1.203403	6.981901	-0.006759	0.010054	-0.007191	-0.666016	-0.038086	-0.328613
542.0	6.836491	-1.1758	6.964038	-0.006888	0.008692	-0.005868	-0.666016	-0.038086	-0.326416
543.0	6.857603	-1.202112	6.958985	-0.00571	0.007151	-0.009063	-0.67041	-0.038086	-0.322266
544.0	6.868625	-1.180104	7.008195	-0.000537	0.008359	-0.003425	-0.666016	-0.038086	-0.328613
545.0	6.834968	-1.175516	6.965581	-0.00823	0.010181	-0.005606	-0.672607	-0.033691	-0.32666
546.0	6.843524	-1.178229	7.014056	-0.011488	0.010322	-0.008296	-0.666016	-0.033691	-0.333008
547.0	6.857671	-1.178028	6.961966	-0.008649	0.007402	-0.005891	-0.672607	-0.035889	-0.32666
548.0	6.8379	-1.177338	6.991057	-0.006893	0.008696	-0.005872	-0.663818	-0.035889	-0.330811
549.0	6.861192	-1.179449	6.986935	-0.006766	0.010061	-0.007196	-0.666016	-0.038086	-0.324463
550.0	6.855921	-1.178332	6.963638	-0.009576	0.011673	-0.005347	-0.668213	-0.037842	-0.335205
551.0	6.881433	-1.156315	6.960395	-0.008524	0.008769	-0.007219	-0.67041	-0.035889	-0.333008
552.0	6.840214	-1.179288	7.017106	-0.010665	0.003383	-0.003268	-0.666016	-0.033691	-0.32666
553.0	6.878571	-1.181277	6.960017	-0.009069	0.004624	-0.006179	-0.668457	-0.029297	-0.328857
554.0	6.859021	-1.180794	6.988839	-0.012168	0.004819	-0.005939	-0.666016	-0.035889	-0.32666
555.0	6.835055	-1.179261	6.993515	-0.011211	-0.000762	-0.002231	-0.67041	-0.035889	-0.328613
556.0	6.855748	-1.111279	7.067609	-0.020762	-0.002908	0.001139	-0.66626	-0.031494	-0.333008
557.0	6.801861	-1.182607	7.07331	-0.05102	-0.016472	0.000268	-0.672607	-0.033691	-0.32666
558.0	6.762282	-1.329955	7.045514	-0.099279	-0.052915	-0.010775	-0.670654	-0.031494	-0.32666
559.0	6.808415	-0.997921	7.100057	-0.082804	-0.08764	-0.018893	-0.668213	-0.033691	-0.330811
560.0	6.840115	-1.415422	6.890174	-0.12559	-0.107482	-0.028543	-0.668213	-0.037842	-0.337402
561.0	6.882129	-1.112282	7.041047	-0.121123	-0.128674	-0.031453	-0.674805	-0.035889	-0.32666
562.0	6.901589	-1.424494	6.711936	-0.094083	-0.133193	-0.039907	-0.670654	-0.031494	-0.324463
563.0	6.949806	-1.218221	6.930867	-0.045048	-0.127915	-0.047276	-0.67041	-0.033936	-0.320068
564.0	7.018988	-1.289344	6.756171	-0.0167	-0.115686	-0.049395	-0.672607	-0.035889	-0.324463
565.0	7.064894	-1.247987	6.917644	-0.008606	-0.102206	-0.051371	-0.672607	-0.035889	-0.322266
566.0	7.018395	-1.457097	6.859744	0.029483	-0.074017	-0.062563	-0.674805	-0.033691	-0.322266
567.0	6.977575	-1.370536	6.84518	0.070611	-0.044687	-0.078274	-0.677002	-0.033691	-0.324463
568.0	6.925698	-1.28365	6.909272	0.077795	-0.022943	-0.089502	-0.668213	-0.035889	-0.324463
569.0	6.896652	-1.146853	6.947014	0.112511	-0.031945	-0.090292	-0.668213	-0.035889	-0.322266
570.0	6.914916	-1.183784	6.914867	0.060924	-0.039969	-0.09042	-0.672363	-0.038086	-0.320068
571.0	6.898605	-1.071557	6.897549	0.09957	-0.043567	-0.090893	-0.676758	-0.038086	-0.317871
572.0	6.929094	-1.087247	6.913553	0.06395	-0.041369	-0.08652	-0.674561	-0.040283	-0.322266
573.0	6.972609	-1.053474	6.854824	0.077805	-0.035018	-0.079512	-0.672363	-0.038086	-0.320068
574.0	6.98357	-1.070496	6.899964	0.05294	-0.036228	-0.071883	-0.667969	-0.040283	-0.320068
575.0	7.067882	-1.020023	6.907968	0.053731	-0.054253	-0.06675	-0.672363	-0.040283	-0.317871
576.0	7.090594	-0.963799	6.853073	0.026576	-0.063618	-0.052484	-0.670166	-0.040283	-0.322266
577.0	7.128347	-0.91375	6.869017	0.009454	-0.069353	-0.037077	-0.665771	-0.042236	-0.326416
578.0	7.137223	-0.986858	6.909483	-0.001762	-0.068403	-0.018372	-0.672363	-0.04248	-0.320068
579.0	7.111242	-0.962456	6.987069	-0.02767	-0.065492	-0.013028	-0.676758	-0.04248	-0.320068
580.0	7.0979	-1.059418	6.931103	-0.04546	-0.064279	0.000334	-0.670166	-0.040283	-0.317871
581.0	7.029689	-1.177367	6.86049	-0.056109	-0.062263	0.001399	-0.676514	-0.044678	-0.313477
582.0	6.971767	-1.098442	6.773446	-0.019624	-0.046256	-0.004039	-0.672363	-0.04248	-0.317871
583.0	6.917962	-1.097811	6.857497	-0.021909	-0.028109	-0.007571	-0.672363	-0.04248	-0.313477
584.0	6.902163	-1.023224	6.863046	-0.003435	-0.027822	-0.013459	-0.676758	-0.03833	-0.315674
585.0	6.871626	-1.039604	6.717507	-0.009459	-0.014995	-0.014371	-0.672119	-0.044678	-0.322266
586.0	6.807946	-1.010167	6.756953	0.011248	-0.002233	-0.014482	-0.672363	-0.040283	-0.315674
587.0	6.847903	-1.08047	6.620476	0.007745	0.018734	-0.019037	-0.670166	-0.038086	-0.315674
588.0	6.81082	-1.052306	6.681217	0.034741	0.032524	-0.021017	-0.670166	-0.040283	-0.317871
589.0	6.931306	-1.177282	6.602138	0.055653	0.050734	-0.02938	-0.678955	-0.03833	-0.311279
590.0	6.948666	-1.101506	6.680999	0.076721	0.066318	-0.029232	-0.670166	-0.040283	-0.315674
591.0	6.917405	-1.021714	6.770836	0.0736	0.074966	-0.023557	-0.672363	-0.040283	-0.317871
592.0	7.009619	-0.952827	6.859499	0.058805	0.077331	-0.014738	-0.674561	-0.04248	-0.324463
593.0	6.98004	-0.897777	6.847461	0.034266	0.060913	0.005953	-0.676758	-0.038086	-0.317871
594.0	7.008004	-0.926028	6.893324	-0.007846	0.046625	0.016498	-0.672363	-0.040283	-0.320068
595.0	6.992206	-0.855764	6.926883	-0.03125	0.02599	0.039573	-0.667969	-0.040283	-0.320068
596.0	6.919658	-0.982107	6.985823	-0.089652	-0.008103	0.060856	-0.676758	-0.040283	-0.315674
597.0	6.936307	-1.088541	6.849957	-0.114942	-0.05529	0.067526	-0.678711	-0.04248	-0.311279
598.0	6.947546	-1.079789	6.868036	-0.157644	-0.09305	0.076586	-0.672363	-0.040283	-0.320068
599.0	6.999551	-1.123969	6.847993	-0.159822	-0.117778	0.078005	-0.674561	-0.040283	-0.313477
600.0	7.07157	-1.169165	6.797364	-0.173143	-0.130766	0.075759	-0.672607	-0.036133	-0.313477
601.0	7.042413	-1.234681	6.8666	-0.150647	-0.11654	0.078492	-0.667969	-0.040283	-0.315674
602.0	7.064897	-1.22462	6.8051	-0.140396	-0.105992	0.069971	-0.674805	-0.036133	-0.315674
603.0	7.031237	-1.261965	6.853505	-0.122726	-0.091655	0.06878	-0.679199	-0.031738	-0.313477
604.0	7.040885	-1.227133	6.847487	-0.137073	-0.092043	0.069707	-0.677002	-0.033936	-0.311279
605.0	7.02961	-1.216516	6.869678	-0.12681	-0.086961	0.072374	-0.679199	-0.031738	-0.309326
606.0	7.082204	-1.23477	6.851422	-0.140776	-0.087267	0.07917	-0.681396	-0.031738	-0.311523
607.0	7.079014	-1.222758	6.797022	-0.138876	-0.087159	0.086255	-0.68335	-0.036133	-0.315674
608.0	7.106214	-1.17145	6.863639	-0.151896	-0.09701	0.10642	-0.683594	-0.031982	-0.309326
609.0	7.142832	-1.170432	6.874296	-0.181662	-0.101563	0.12554	-0.679199	-0.029785	-0.309326
610.0	7.113168	-1.1182	6.902594	-0.201758	-0.113612	0.142825	-0.683838	-0.027588	-0.307129
611.0	7.105136	-1.23889	6.862815	-0.229696	-0.12097	0.152393	-0.683838	-0.023438	-0.304932
612.0	7.116295	-1.217072	6.853936	-0.22554	-0.124964	0.159947	-0.679443	-0.025391	-0.304932
613.0	7.142338	-1.346633	6.854621	-0.270247	-0.125439	0.16714	-0.683838	-0.025391	-0.304932
614.0	7.108841	-1.368311	6.776531	-0.249584	-0.121006	0.164271	-0.677246	-0.023438	-0.302734
615.0	7.159879	-1.425947	6.75155	-0.276913	-0.12549	0.157772	-0.681885	-0.016846	-0.302734
616.0	7.12136	-1.495237	6.669805	-0.262312	-0.127596	0.151496	-0.682129	-0.014648	-0.304932
617.0	7.121731	-1.588528	6.551893	-0.247488	-0.116043	0.136991	-0.677734	-0.010498	-0.296387
618.0	7.197994	-1.499949	6.585095	-0.199235	-0.10591	0.120046	-0.684326	-0.012695	-0.300781
619.0	7.101959	-1.57912	6.491977	-0.224002	-0.084384	0.108566	-0.682129	-0.012695	-0.298584
620.0	7.047446	-1.640627	6.467361	-0.167228	-0.072427	0.090044	-0.68457	-0.008301	-0.302979
621.0	7.009832	-1.76528	6.332541	-0.141225	-0.062168	0.070592	-0.677979	-0.008301	-0.302979
622.0	7.085126	-1.6481	6.473824	-0.08069	-0.057672	0.050907	-0.68457	-0.008301	-0.298584
623.0	7.095047	-1.701338	6.412202	-0.060486	-0.04566	0.03374	-0.684326	-0.012695	-0.298584
624.0	7.135625	-1.622001	6.534141	-0.036163	-0.040881	0.023997	-0.688721	-0.010498	-0.296387
625.0	7.164154	-1.654344	6.547026	-0.030481	-0.031763	0.013283	-0.68457	-0.008301	-0.298584
626.0	7.179552	-1.587093	6.5737	-0.030189	-0.029036	0.010746	-0.688721	-0.012695	-0.294189
627.0	7.156302	-1.654402	6.49494	-0.02399	-0.017213	0.00043	-0.688965	-0.006348	-0.294189
628.0	7.110134	-1.650821	6.505067	-0.006254	-0.014642	-0.006248	-0.684326	-0.010498	-0.298584
629.0	7.119228	-1.627633	6.530054	0.020191	-0.004599	-0.022619	-0.688721	-0.010498	-0.291992
630.0	7.075561	-1.645948	6.563529	0.032256	-0.001586	-0.04204	-0.684326	-0.008301	-0.296387
631.0	7.090169	-1.730983	6.451188	0.051209	0.020159	-0.056108	-0.686523	-0.012695	-0.298584
632.0	7.079963	-1.649064	6.488876	0.095932	0.019024	-0.081415	-0.686523	-0.012695	-0.296387
633.0	7.108958	-1.589896	6.489993	0.113345	0.021713	-0.091094	-0.679932	-0.014893	-0.294189
634.0	7.141873	-1.48844	6.594991	0.117835	0.013136	-0.095765	-0.686279	-0.014648	-0.302734
635.0	7.118647	-1.471535	6.6036	0.116619	0.018809	-0.102255	-0.688477	-0.01709	-0.296387
636.0	7.220207	-1.281606	6.750803	0.118699	0.003688	-0.079856	-0.686279	-0.01709	-0.298584
637.0	7.1822	-1.36387	6.726356	0.04273	-0.018897	-0.052941	-0.688721	-0.012695	-0.298584
638.0	7.160503	-1.304852	6.71058	0.044287	-0.034082	-0.039227	-0.686523	-0.012695	-0.291992
639.0	7.163567	-1.58818	6.605308	0.015639	-0.034499	-0.034294	-0.686279	-0.016846	-0.302734
640.0	7.165586	-1.414562	6.645123	0.033428	-0.022166	-0.039602	-0.688477	-0.014893	-0.300781
641.0	7.160015	-1.432269	6.617948	0.023385	-0.039187	-0.026774	-0.686523	-0.012695	-0.291992
642.0	7.173361	-1.332128	6.621888	0.01845	-0.049789	-0.025099	-0.684082	-0.016846	-0.300537
643.0	7.159416	-1.448486	6.585717	0.009442	-0.066926	-0.019714	-0.688721	-0.012695	-0.289795
644.0	7.183682	-1.428271	6.653592	0.023938	-0.073581	-0.024769	-0.688477	-0.01709	-0.296387
645.0	7.154945	-1.46959	6.627041	0.014728	-0.08243	-0.019584	-0.688721	-0.012695	-0.296387
646.0	7.15145	-1.446383	6.675318	-0.010758	-0.101005	-0.016142	-0.690674	-0.01709	-0.296387
647.0	7.146128	-1.516577	6.638282	-0.015252	-0.126716	-0.015401	-0.688232	-0.021484	-0.291992
648.0	7.128858	-1.488287	6.611887	-0.020073	-0.155097	-0.01215	-0.692871	-0.014893	-0.296387
649.0	7.101277	-1.292876	6.677695	-0.010024	-0.195609	-0.016406	-0.686279	-0.019287	-0.287598
650.0	7.056969	-0.842311	6.971096	-0.036246	-0.264542	0.012882	-0.688477	-0.01709	-0.296387
651.0	6.969948	-1.038137	6.98268	-0.134586	-0.356339	0.039543	-0.692627	-0.021484	-0.283203
652.0	7.075726	-0.744177	7.342409	-0.171135	-0.462028	0.07472	-0.690674	-0.014893	-0.287598
653.0	7.187261	-0.803144	7.306249	-0.353511	-0.582477	0.12573	-0.699463	-0.012939	-0.279053
654.0	7.212704	-1.098508	7.08341	-0.432306	-0.678588	0.187114	-0.695313	-0.006592	-0.268311
655.0	5.744451	-2.030157	7.521144	-0.532973	-0.740518	0.219599	-0.699707	-0.008789	-0.268311
656.0	6.998098	-1.834372	7.101664	-0.373237	-0.998804	0.160742	-0.706299	-0.002441	-0.266113
657.0	6.949955	-1.327206	7.148422	-0.386705	-1.060567	0.162012	-0.699951	-0.000488	-0.253174
658.0	7.053176	-1.397235	7.309033	-0.560246	-1.214063	0.157916	-0.708496	-0.004883	-0.248779
659.0	6.845202	-2.133436	6.954556	-0.703235	-1.373887	0.116961	-0.70874	0.005859	-0.23584
660.0	7.098045	-2.050816	6.808242	-0.561058	-1.499685	0.063881	-0.715332	0.007813	-0.225098
661.0	6.812808	-1.844394	6.91123	-0.581798	-1.650576	0.021676	-0.715332	0.009766	-0.211914
662.0	6.831185	-2.187126	6.717807	-0.629493	-1.863999	-0.047282	-0.721924	0.009521	-0.198975
663.0	6.716498	-2.430313	6.527704	-0.514777	-2.05306	-0.127612	-0.724365	0.015625	-0.183838
664.0	6.762002	-2.478505	6.512374	-0.476017	-2.304401	-0.227416	-0.726318	0.013428	-0.177246
665.0	6.816389	-2.830398	6.21701	-0.37545	-2.547279	-0.342063	-0.72876	0.019531	-0.151367
666.0	6.848288	-2.583395	6.24372	-0.363074	-2.842266	-0.494112	-0.734619	0.004395	-0.13623
667.0	7.222772	-2.421389	6.069623	-0.503408	-3.199519	-0.725113	-0.747803	0.010254	-0.112305
668.0	6.947489	-2.743683	5.773883	-0.476269	-3.473369	-1.004489	-0.749512	-0.00293	-0.088379
669.0	8.91808	-2.848589	5.23654	-0.179854	-3.909457	-1.248662	-0.749512	-0.001221	-0.053711
670.0	12.180976	-1.430322	5.624086	-0.247932	-4.600396	-1.129626	-0.750977	-0.016602	-0.023438
671.0	10.225162	-3.315272	5.588376	-0.73217	-5.64231	-1.426881	-0.750977	-0.019287	0.00708
672.0	7.826503	-3.423769	5.505708	-0.736267	-4.462107	-1.649313	-0.752197	-0.036865	0.043945
673.0	10.425497	-4.3127	3.993563	-0.709139	-5.232608	-1.749358	-0.747803	-0.039551	0.085205
674.0	10.189646	-4.253303	4.832753	0.048057	-5.552142	-2.11175	-0.744873	-0.052979	0.12207
675.0	15.175968	-2.794251	4.099361	0.225452	-5.459902	-2.065786	-0.73584	-0.062012	0.152588
676.0	15.163558	-3.218298	7.404195	0.066853	-5.10936	-1.840708	-0.724609	-0.071045	0.185059
677.0	17.446	-5.54609	4.123489	0.090937	-5.458148	-2.020728	-0.715576	-0.073486	0.211182
678.0	18.097041	-4.942131	2.706241	0.052272	-5.710776	-2.365676	-0.695557	-0.08252	0.24585
679.0	21.685032	-6.209391	5.733044	0.622702	-4.699012	-2.850754	-0.675537	-0.093506	0.269775
680.0	22.90412	-6.621686	5.540413	0.603812	-4.463853	-1.809043	-0.645264	-0.089355	0.291504
681.0	22.567015	-2.702573	13.563162	-2.03893	-9.491006	-1.988688	-0.612061	-0.102539	0.322021
682.0	26.355812	-10.387058	4.386268	-2.711595	-3.627084	-2.205349	-0.592285	-0.102539	0.328369
683.0	10.063499	-10.232922	11.300083	-0.702935	-3.547048	-2.174526	-0.563721	-0.113525	0.339355
684.0	9.369749	-16.84339	17.306376	-1.663525	-3.877214	-1.754389	-0.539795	-0.109131	0.339355
685.0	28.33101	-13.308326	21.238792	1.146216	-0.017828	-1.246955	-0.525635	-0.087158	0.311279
686.0	12.637269	-15.669717	19.381	0.333053	2.574762	0.132082	-0.50708	-0.060791	0.278564
687.0	0.804947	-9.837549	16.238087	1.382816	3.345501	0.62427	-0.488281	-0.038574	0.243896
688.0	-3.380294	-6.210906	13.066388	0.994193	3.29287	0.722404	-0.465576	-0.008057	0.217773
689.0	-5.415501	-1.807164	11.93462	0.982575	3.161045	0.799435	-0.438232	0.015869	0.200195
690.0	-3.881769	0.052923	11.031724	-0.015695	2.861635	0.887539	-0.395752	0.037842	0.172119
691.0	-1.534124	0.447754	10.173045	-0.42538	2.853518	1.003039	-0.359375	0.057617	0.167725
692.0	1.499893	0.223487	9.999348	-1.005965	2.97538	1.102484	-0.305664	0.072754	0.165527
693.0	4.211109	-1.347425	9.676123	-1.210039	3.286809	1.133622	-0.264648	0.08374	0.172119
694.0	6.519582	-3.50752	9.195616	-1.199409	3.704672	1.061083	-0.214844	0.089844	0.202393
695.0	8.274743	-4.784839	8.769934	-0.786043	4.198123	0.942602	-0.181885	0.083008	0.239502
696.0	9.816133	-4.954908	8.255659	-0.373547	4.669727	0.897815	-0.155029	0.067383	0.282959
697.0	10.449178	-4.527077	7.409642	0.029401	5.105304	0.947361	-0.154297	0.051758	0.328369
698.0	10.749541	-3.505025	6.684349	0.290944	5.41923	1.075268	-0.177246	0.027344	0.376221
699.0	11.14467	-2.224229	6.153817	0.364112	5.614951	1.257292	-0.219727	0.007324	0.41748
700.0	11.147991	-1.360589	5.524986	0.242127	5.720229	1.477567	-0.270996	-0.018799	0.43042
701.0	11.327467	-1.154045	5.123273	0.045844	5.673	1.668931	-0.337891	-0.034424	0.439209
702.0	11.680104	-1.215746	5.012763	-0.137065	5.563081	1.814839	-0.402832	-0.045166	0.43042
703.0	12.544617	-1.599398	4.909464	-0.284133	5.399457	1.893558	-0.474609	-0.049561	0.410889
704.0	13.45786	-1.632114	5.054149	-0.329229	5.246844	1.910533	-0.536133	-0.031982	0.375977
705.0	14.130893	-2.162268	4.817981	-0.42024	5.10259	1.891711	-0.597656	-0.022949	0.328125
706.0	13.668356	-2.47344	4.647766	-0.388074	4.930913	1.838794	-0.650879	-0.000977	0.278076
707.0	13.426832	-3.118716	4.694543	-0.339374	4.652152	1.702599	-0.691406	0.033936	0.223633
708.0	13.340398	-3.355497	4.970594	-0.108254	4.368796	1.516958	-0.710205	0.065186	0.141113
709.0	13.736826	-1.944459	5.970474	-0.007002	4.027665	1.409168	-0.71582	0.0896	0.080322
710.0	14.122811	-0.996461	6.847894	-0.160462	3.699997	1.432364	-0.699219	0.109863	0.010742
711.0	14.590251	-0.847035	7.596251	-0.506895	3.364549	1.552825	-0.677979	0.121582	-0.043457
712.0	15.095971	-1.624069	8.223465	-0.898162	3.035007	1.724271	-0.643066	0.115967	-0.093262
713.0	16.90913	-3.064262	8.025304	-1.243562	2.695483	1.901462	-0.610107	0.105713	-0.125488
714.0	18.383506	-4.739868	7.721539	-1.45782	2.461772	2.105747	-0.583496	0.093262	-0.157959
715.0	21.001516	-6.715184	6.928047	-1.501099	2.224103	2.337247	-0.561279	0.080811	-0.181641
716.0	23.874975	-8.107496	6.685067	-1.223368	2.139911	2.582918	-0.55249	0.07251	-0.196777
717.0	29.010991	-8.590763	6.291984	-0.836041	2.312085	2.927021	-0.550049	0.070557	-0.205566
718.0	32.174163	-6.331479	4.364623	-0.220651	3.215402	3.468352	-0.539307	0.068848	-0.23584
719.0	30.611417	-5.236027	0.757631	0.110217	4.152897	3.97083	-0.53125	0.086426	-0.26416
720.0	28.822362	-2.446081	-3.347315	0.909503	4.934881	4.149778	-0.511963	0.091309	-0.296631
721.0	27.798941	2.899019	-8.200888	1.474139	5.498129	4.253699	-0.493164	0.106934	-0.333496
722.0	22.82912	7.345783	-14.360389	1.532307	5.622771	4.387997	-0.469727	0.118164	-0.370361
723.0	14.606371	9.318756	-20.104204	1.297413	4.812603	4.351384	-0.450684	0.135742	-0.39209
724.0	5.265202	10.582949	-22.083828	1.211575	3.019274	3.747207	-0.435791	0.140381	-0.402832
725.0	1.730984	9.833752	-21.184484	1.064798	0.303944	2.506225	-0.436035	0.146729	-0.400635
726.0	6.564747	12.426883	-13.701516	0.698059	-1.651784	1.148964	-0.446777	0.144531	-0.396484
727.0	12.900226	10.97344	-6.654025	-0.300399	-2.624049	0.157925	-0.45752	0.144287	-0.385498
728.0	21.464406	7.768224	-0.313962	-1.073127	-2.575425	-0.395262	-0.461914	0.14624	-0.37915
729.0	4.274675	-9.706648	15.222231	-2.88041	-0.796855	-1.122699	-0.470947	0.150391	-0.355225
730.0	2.785845	-19.71381	1.885753	3.379256	-4.40813	-3.880108	-0.493408	0.111572	-0.359375
731.0	-19.049547	7.461711	-2.910996	3.879761	-1.614285	-3.911003	-0.511475	0.07666	-0.339844
732.0	21.358857	19.448582	15.785984	1.301255	-8.502056	-4.046266	-0.539307	0.063477	-0.311523
733.0	16.810246	-7.234398	3.561993	-2.374984	-2.629184	-1.679808	-0.547607	0.056641	-0.285645
734.0	16.274834	-8.674386	4.883242	1.591616	-4.848644	-0.869686	-0.560547	0.054199	-0.268311
735.0	16.786278	-4.257074	7.785297	0.535621	-4.201896	-0.228681	-0.575684	0.051514	-0.242188
736.0	17.179758	-0.937751	9.475592	1.277462	-3.6161	-0.358376	-0.577393	0.042725	-0.224854
737.0	16.698987	5.301267	11.291357	1.245642	-3.0036	-0.744613	-0.590088	0.035889	-0.205322
738.0	16.881263	8.071084	11.625294	0.721322	-2.379783	-1.106729	-0.593994	0.024902	-0.192383
739.0	15.016961	0.265206	8.788784	-0.335766	-1.890364	-1.068159	-0.592041	0.026855	-0.179443
740.0	13.660273	-6.115454	6.322797	0.350225	-1.589969	-0.848987	-0.600342	0.016113	-0.175049
741.0	11.568596	-1.00269	9.012919	0.83894	-1.217649	-0.768069	-0.604492	0.011719	-0.16626
742.0	14.18718	-2.155664	9.810649	0.548597	-0.878885	-0.925932	-0.602051	0.005371	-0.170654
743.0	9.712156	-4.473289	6.836537	1.109401	0.153987	-0.850335	-0.606201	0.00293	-0.16626
744.0	6.36343	-0.483961	7.620258	1.146638	-0.247267	-0.830187	-0.605469	-0.016357	-0.16626
745.0	8.988994	-2.462784	7.189534	0.857496	-0.167466	-0.789583	-0.605469	-0.01416	-0.159668
746.0	8.979611	-0.891358	8.379767	0.99378	-0.150077	-0.644887	-0.605469	-0.018555	-0.164063
747.0	8.357267	-0.649311	7.884989	0.591723	0.051487	-0.462128	-0.605225	-0.024902	-0.163818
748.0	7.405825	-1.382594	7.225405	0.590294	-0.041624	-0.395414	-0.602783	-0.03125	-0.166016
749.0	7.451764	-1.056713	7.644811	0.500757	-0.046515	-0.324986	-0.607178	-0.031494	-0.157471
750.0	7.457244	-1.388439	7.300101	0.473505	-0.064773	-0.269362	-0.606934	-0.033447	-0.168213
751.0	7.498403	-1.242717	7.369151	0.382622	-0.032322	-0.219764	-0.602539	-0.035645	-0.163818
752.0	7.245903	-1.408098	7.07849	0.483245	-0.007822	-0.200031	-0.608887	-0.040039	-0.159424
753.0	7.182066	-0.9149	7.287773	0.36197	0.020931	-0.14987	-0.604736	-0.035645	-0.163818
754.0	6.959482	-1.412562	6.876713	0.286585	0.056538	-0.114805	-0.606934	-0.033447	-0.163818
755.0	6.999624	-1.182068	7.021851	0.377547	0.093521	-0.105912	-0.606934	-0.037842	-0.163818
756.0	6.944648	-1.453877	6.852938	0.288608	0.119271	-0.102125	-0.602295	-0.042236	-0.166016
757.0	6.777438	-1.331681	6.994323	0.382276	0.148268	-0.11534	-0.604736	-0.037842	-0.166016
758.0	6.726695	-1.118759	6.985453	0.301414	0.160702	-0.110511	-0.606445	-0.046387	-0.161621
759.0	6.929557	-0.898693	7.099458	0.329175	0.120758	-0.115016	-0.606689	-0.044434	-0.161621
760.0	6.973733	-0.947823	7.202825	0.242028	0.097227	-0.115428	-0.606689	-0.041992	-0.168213
761.0	7.005308	-1.117935	7.362013	0.198281	0.064333	-0.12096	-0.604492	-0.044189	-0.168213
762.0	6.881688	-1.216961	7.123866	0.196044	0.069366	-0.129079	-0.599854	-0.046387	-0.163818
763.0	6.755603	-0.819761	7.134652	0.196636	0.06548	-0.139389	-0.602295	-0.044189	-0.166016
764.0	6.71153	-0.954563	6.958179	0.212068	0.078777	-0.12955	-0.602051	-0.048584	-0.166016
765.0	6.611706	-0.831597	7.027809	0.223361	0.093341	-0.134637	-0.599609	-0.055176	-0.161621
766.0	6.691105	-0.875795	7.024132	0.191385	0.099442	-0.125361	-0.601807	-0.052734	-0.168213
767.0	6.29389	-1.24751	6.85524	0.154769	0.145308	-0.116516	-0.597656	-0.052979	-0.163818
768.0	6.160782	-0.891139	6.769145	0.1465	0.174957	-0.122938	-0.601563	-0.061279	-0.172363
769.0	6.259322	-0.444717	7.056872	0.109963	0.163417	-0.108245	-0.599854	-0.052734	-0.170166
770.0	6.172997	-0.582135	6.940485	0.007303	0.137314	-0.089287	-0.601563	-0.059326	-0.167969
771.0	6.307854	-0.725979	7.229938	-0.012236	0.086083	-0.076576	-0.601807	-0.054932	-0.170166
772.0	6.474664	-0.881217	7.238428	-0.0907	0.044074	-0.070808	-0.601563	-0.059326	-0.166016
773.0	6.48909	-0.847448	7.13472	-0.11954	0.006616	-0.064913	-0.599609	-0.054932	-0.168213
774.0	6.60185	-0.67553	7.126308	-0.160426	-0.056276	-0.0405	-0.604004	-0.054932	-0.168213
775.0	6.458774	-0.287612	7.096007	-0.188468	-0.153232	0.023046	-0.606201	-0.052979	-0.161621
776.0	6.4251	-0.429874	7.340838	-0.37428	-0.43871	0.186603	-0.608154	-0.057129	-0.168213
777.0	7.339221	-0.016547	7.61861	-0.48713	-0.513182	0.286564	-0.604248	-0.050781	-0.161621
778.0	6.915614	-0.419493	7.605171	-0.705865	-0.657918	0.404226	-0.608643	-0.046631	-0.157227
779.0	6.91765	-0.765061	7.44817	-0.505056	-0.797075	0.380214	-0.602539	-0.038086	-0.155273
780.0	7.072097	-0.721229	7.639151	-0.341131	-0.833391	0.320029	-0.606689	-0.042236	-0.150879
781.0	5.886548	0.393463	9.032565	-0.186321	-1.019069	0.316869	-0.611084	-0.040283	-0.14209
782.0	4.623098	-1.419222	9.672694	-0.893637	-1.376253	0.344427	-0.611084	-0.036133	-0.133545
783.0	6.092253	-2.328197	7.412735	-0.78918	-1.761941	0.2894	-0.61792	-0.029785	-0.122803
784.0	5.969409	-0.376641	8.619969	-0.354923	-2.063412	0.304534	-0.620117	-0.027832	-0.111816
785.0	5.990745	-0.865322	8.479514	-0.939067	-2.479199	0.334842	-0.620117	-0.030273	-0.092285
786.0	6.540716	-2.051656	7.98941	-0.992989	-2.791522	0.253013	-0.622314	-0.026123	-0.08374
787.0	6.495595	-2.567345	8.045799	-0.889563	-2.962887	0.128211	-0.624756	-0.02002	-0.055664
788.0	6.679127	-2.724975	7.788796	-0.770876	-3.194205	-0.048977	-0.626709	-0.026611	-0.04248
789.0	6.702589	-2.547838	7.519566	-0.636108	-3.383705	-0.248083	-0.622314	-0.024902	-0.016602
790.0	5.854277	-2.195937	6.77757	-0.479164	-3.611494	-0.417722	-0.626465	-0.027344	0.007324
791.0	5.72041	-2.018203	6.946776	-0.311929	-3.927743	-0.590496	-0.624268	-0.027588	0.026855
792.0	5.012878	-3.082977	6.269589	-0.261764	-4.278768	-0.850961	-0.621582	-0.038818	0.054932
793.0	5.009188	-2.719532	6.700326	-0.167037	-5.044141	-1.196476	-0.623535	-0.043457	0.0896
794.0	13.458695	-2.518173	5.111452	-0.716131	-6.579661	-1.864055	-0.609863	-0.052734	0.133057
795.0	14.824907	-3.147273	5.219644	-1.667003	-7.179325	-1.668533	-0.593994	-0.07251	0.165771
796.0	4.581379	-4.019444	10.669221	-0.396038	-6.607307	-2.415808	-0.578125	-0.085938	0.204834
797.0	11.055766	-6.45214	4.031241	-0.620154	-6.837306	-2.371451	-0.564453	-0.099365	0.248291
798.0	13.406933	-6.56665	4.206204	1.267283	-3.592161	-2.858625	-0.559814	-0.103516	0.248291
799.0	21.45861	7.963213	8.52928	6.265436	-4.819952	-0.261776	-0.540527	-0.093506	0.298096
800.0	23.028564	-5.851326	7.828316	-5.415293	-8.15275	-0.243725	-0.511475	-0.113037	0.328613
801.0	28.152365	-7.105981	8.703864	-0.569675	-7.741977	-1.778164	-0.486816	-0.130615	0.356934
802.0	34.203695	-8.051836	7.050923	-2.732749	-7.337101	-1.947367	-0.453369	-0.147949	0.383057
803.0	14.177994	-3.224045	14.699779	-2.275412	-10.547253	-1.249251	-0.39624	-0.161377	0.430908
804.0	29.374612	-11.562826	16.05147	-5.627369	-9.413684	-2.068131	-0.366211	-0.204346	0.435547
805.0	18.528914	-15.212855	11.97503	-1.040937	-4.468407	-1.974044	-0.35083	-0.208496	0.439941
806.0	6.554189	-7.764742	21.697323	-0.52284	-4.031457	-2.023307	-0.323975	-0.223389	0.433594
807.0	32.648267	-8.662636	24.334132	-0.3043	-0.600755	-1.75645	-0.317383	-0.227539	0.422852
808.0	15.22848	-13.00622	19.436117	-0.426423	2.937639	-0.331124	-0.332275	-0.238037	0.396729
809.0	2.487798	-9.593117	14.87915	-0.116089	3.3899	-0.017999	-0.33667	-0.237793	0.377197
810.0	-0.582132	-8.132465	10.980368	0.395103	3.758303	-0.078335	-0.343018	-0.246094	0.349121
811.0	-3.970714	-3.97226	9.812712	0.513863	3.672388	-0.13567	-0.340576	-0.252197	0.327393
812.0	-3.697652	-2.911075	8.223511	0.141062	3.351744	-0.143999	-0.335938	-0.262695	0.305908
813.0	-2.064798	-1.844725	7.723457	-0.024057	3.225736	-0.093603	-0.339844	-0.275391	0.288574
814.0	0.360001	-1.401415	7.567611	-0.418276	3.205388	0.050756	-0.326416	-0.281494	0.269043
815.0	3.166072	-1.600627	7.692364	-0.743396	3.405459	0.24851	-0.326172	-0.292236	0.260498
816.0	5.791929	-2.40321	7.776587	-0.993941	3.773562	0.48544	-0.323242	-0.309082	0.234619
817.0	7.616517	-3.406653	7.799523	-1.053045	4.293078	0.701846	-0.318359	-0.325928	0.22168
818.0	8.407758	-4.095219	7.466658	-0.951887	4.845882	0.898073	-0.317871	-0.341064	0.215332
819.0	8.543361	-4.080365	6.972338	-0.757488	5.277307	1.062972	-0.323486	-0.360352	0.210938
820.0	8.918762	-3.566207	6.453987	-0.561325	5.55066	1.204883	-0.332031	-0.368896	0.202393
821.0	10.007602	-2.963122	5.949876	-0.474679	5.779131	1.365563	-0.353516	-0.375244	0.202393
822.0	10.436323	-2.293022	5.394318	-0.392685	5.923719	1.519963	-0.37793	-0.366699	0.195801
823.0	10.856958	-1.449303	5.150909	-0.425169	5.977136	1.68843	-0.402344	-0.35376	0.187012
824.0	11.276144	-0.681964	5.176502	-0.507541	5.949588	1.864722	-0.427246	-0.332031	0.158691
825.0	12.129473	-0.019308	5.448404	-0.60296	5.844546	2.025895	-0.441406	-0.299561	0.141113
826.0	13.393051	0.429852	5.626226	-0.752702	5.726823	2.129164	-0.443115	-0.260498	0.112793
827.0	14.658253	0.534602	5.603833	-0.761534	5.635841	2.102232	-0.425781	-0.200195	0.114746
828.0	15.828972	1.164605	5.991502	-0.787761	5.508332	2.010202	-0.416992	-0.144775	0.151367
829.0	15.791965	1.038664	5.852027	-0.832645	5.382291	1.891641	-0.416992	-0.083008	0.19873
830.0	15.277871	0.872248	6.090361	-0.857756	5.139049	1.782246	-0.447021	-0.038818	0.259033
831.0	14.803306	0.446518	6.481157	-0.830883	4.827085	1.699619	-0.490479	0.016357	0.308594
832.0	14.383135	-0.094423	7.171326	-0.731834	4.47989	1.682132	-0.546387	0.061035	0.338623
833.0	14.772725	-0.451012	8.091295	-0.66143	4.113373	1.75595	-0.61377	0.116455	0.349121
834.0	15.547159	-1.875578	8.569565	-0.655521	3.796776	1.975041	-0.667969	0.161621	0.333496
835.0	16.287236	-3.18772	8.750217	-0.487425	3.415433	2.283726	-0.724121	0.208984	0.309326
836.0	18.198983	-4.074785	8.451542	-0.30331	2.993525	2.696245	-0.771729	0.250244	0.267822
837.0	20.967638	-3.388639	7.991938	0.001566	2.601652	3.200785	-0.793213	0.300293	0.222168
838.0	24.76311	-2.921588	7.780368	0.010479	2.312288	3.663505	-0.814209	0.331299	0.156738
839.0	30.592044	-4.975321	6.018668	-0.049611	2.392491	3.924985	-0.833008	0.362305	0.091553
840.0	34.958189	-7.155795	2.952793	0.620823	3.083646	3.86988	-0.831543	0.380615	0.009277
841.0	36.748683	-6.200281	-1.795845	1.650181	4.139189	3.458843	-0.814697	0.38623	-0.088379
842.0	36.929203	1.996182	-6.80265	2.751364	5.42895	3.012348	-0.786621	0.387695	-0.181396
843.0	34.510166	12.852	-12.930883	2.434012	6.460231	3.264433	-0.745605	0.388916	-0.270264
844.0	28.138313	17.687695	-21.260386	0.551008	6.760885	4.078709	-0.702637	0.400879	-0.337402
845.0	8.312254	17.573724	-27.155484	-0.666349	6.012868	4.17751	-0.655762	0.429688	-0.380859
846.0	-5.386286	14.715665	-27.723358	-2.110312	2.841503	3.103108	-0.630615	0.453613	-0.400391
847.0	-14.235011	3.291239	-24.035103	-2.378481	-1.547654	-0.021196	-0.652832	0.466064	-0.376709
848.0	3.435766	-3.268224	-24.692091	-0.714297	-8.433415	-2.6364	-0.691406	0.450439	-0.335449
849.0	8.014715	8.815969	-10.012392	1.303532	-5.601905	-4.920531	-0.734131	0.428223	-0.30957
850.0	35.063823	5.327894	20.094372	-0.199375	-8.252865	-5.741576	-0.781006	0.408447	-0.279053
851.0	30.027784	9.056151	8.260941	0.609416	-1.62877	-3.694458	-0.804932	0.407959	-0.266113
852.0	9.423898	-7.501365	5.002739	-2.210321	-4.901599	-2.153634	-0.831299	0.41626	-0.238037
853.0	19.942306	-11.843096	4.618296	0.410871	-4.542188	-1.315548	-0.851074	0.417969	-0.207764
854.0	21.832779	-6.84923	8.565079	0.245395	-3.813745	-0.948815	-0.877197	0.421875	-0.19043
855.0	17.672655	1.60575	9.955349	1.075586	-3.175213	-1.160507	-0.887939	0.417236	-0.17749
856.0	14.745521	2.130101	8.806347	0.201646	-2.66762	-1.163792	-0.903076	0.419189	-0.162354
857.0	14.48663	-1.137619	6.902352	-0.035525	-2.549203	-0.997988	-0.918457	0.423096	-0.142822
858.0	23.074939	-6.787029	10.631155	-0.07514	-2.370716	-1.157394	-0.929199	0.416504	-0.129883
859.0	16.262471	-5.726499	4.670484	2.131873	0.101429	-1.072633	-0.94165	0.403564	-0.138428
860.0	5.279127	4.530469	11.415487	1.23288	-1.305985	-0.869452	-0.937256	0.401367	-0.13208
861.0	11.43967	-3.078881	7.725981	0.765415	-0.724538	-0.745537	-0.947998	0.39917	-0.129883
862.0	11.148025	-0.688548	8.557301	0.745534	-0.247467	-0.525836	-0.949951	0.390625	-0.134033
863.0	7.662119	-1.144745	7.533313	0.802296	-0.37119	-0.421306	-0.954102	0.388428	-0.129883
864.0	8.931347	-0.037497	8.420006	-0.191775	-0.191138	-0.207568	-0.954102	0.388428	-0.123291
865.0	7.428556	-2.401654	6.594175	0.064778	-0.187539	-0.093024	-0.960693	0.390381	-0.123291
866.0	7.554916	-0.923655	7.629184	0.059375	-0.228966	-0.030212	-0.960693	0.388428	-0.125488
867.0	7.589973	-1.921524	6.706178	-0.063824	-0.250679	0.023186	-0.960938	0.392578	-0.123291
868.0	7.662557	-1.594277	7.066163	-0.107211	-0.228007	0.0576	-0.956543	0.392578	-0.125488
869.0	7.428046	-1.528355	6.909239	-0.040036	-0.200706	0.085147	-0.965332	0.394531	-0.112549
870.0	7.418349	-1.415628	7.00402	-0.211145	-0.224346	0.117732	-0.960938	0.394531	-0.114746
871.0	7.449694	-1.768122	6.711651	-0.251149	-0.192521	0.147289	-0.95874	0.396973	-0.118896
872.0	7.296521	-1.908913	6.550389	-0.208735	-0.162164	0.146594	-0.960938	0.396729	-0.110352
873.0	7.202261	-2.011153	6.504799	-0.207428	-0.133417	0.1413	-0.963379	0.400879	-0.105957
874.0	7.278377	-1.899984	6.55865	-0.197182	-0.113387	0.125772	-0.95874	0.396729	-0.105957
875.0	7.25031	-1.989659	6.475097	-0.207953	-0.09762	0.132705	-0.959229	0.405273	-0.110352
876.0	7.127095	-2.008211	6.470431	-0.137701	-0.092787	0.13357	-0.956787	0.398926	-0.110352
877.0	7.120194	-2.10005	6.483956	-0.151903	-0.077748	0.126871	-0.959229	0.405273	-0.10376
878.0	7.06604	-1.904077	6.378364	-0.136395	-0.077354	0.11694	-0.961426	0.409668	-0.105957
879.0	7.007231	-2.00973	6.403816	-0.194163	-0.072516	0.108733	-0.952637	0.405273	-0.099609
880.0	6.95446	-2.138178	6.274635	-0.159041	-0.068583	0.084915	-0.954834	0.405273	-0.101563
881.0	7.030705	-2.092548	6.202736	-0.13891	-0.068295	0.063442	-0.959473	0.416016	-0.097412
882.0	6.876228	-2.288848	6.043693	-0.072991	-0.067942	0.023924	-0.958984	0.403076	-0.101563
883.0	6.988125	-2.194773	6.169792	-0.053805	-0.070581	-0.0187	-0.954834	0.409424	-0.097412
884.0	6.930478	-2.203643	6.128387	0.006102	-0.082109	-0.060668	-0.957031	0.409668	-0.10376
885.0	7.010454	-2.112044	6.137021	0.074813	-0.083387	-0.099315	-0.958984	0.403076	-0.101563
886.0	6.916417	-2.195514	6.127548	0.27269	-0.073774	-0.141654	-0.958984	0.400879	-0.10376
887.0	7.077596	-2.027233	6.200509	0.269911	-0.092617	-0.183524	-0.958984	0.400879	-0.099609
888.0	7.092761	-2.268193	6.054158	0.327446	-0.070103	-0.224311	-0.963135	0.396729	-0.10376
889.0	7.184129	-2.319836	5.955946	0.420911	-0.04783	-0.256468	-0.965576	0.400879	-0.101563
890.0	7.399952	-1.971017	6.408156	0.497149	-0.038675	-0.258399	-0.965332	0.396484	-0.099609
891.0	7.419548	-1.825505	6.76892	0.424487	-0.061355	-0.256457	-0.965332	0.398682	-0.101563
892.0	7.332683	-1.689228	6.621961	0.291526	-0.107317	-0.221171	-0.969482	0.394531	-0.110352
893.0	7.505297	-1.462655	6.686011	0.292218	-0.151334	-0.195109	-0.97168	0.394531	-0.105957
894.0	7.478951	-1.050478	6.90512	0.168873	-0.208044	-0.152802	-0.971436	0.387939	-0.105957
895.0	7.504936	-1.052519	6.936152	0.238513	-0.287338	-0.109089	-0.973633	0.387939	-0.099365
896.0	7.405058	-0.352051	7.552777	0.169515	-0.423089	-0.034673	-0.973877	0.390137	-0.101563
897.0	7.272499	-0.361827	7.560736	-0.005763	-0.601239	0.060427	-0.97168	0.39209	-0.09082
898.0	5.510547	-1.420305	8.428358	-0.226702	-0.788471	0.158856	-0.971436	0.389893	-0.086426
899.0	6.022246	-1.687751	8.131675	-0.261986	-1.301686	0.129059	-0.971924	0.398193	-0.071289
900.0	6.535473	-1.814737	7.224852	-0.379647	-1.489643	0.11202	-0.976074	0.395996	-0.069092
901.0	6.774173	-1.568764	7.394472	-0.328451	-1.721102	0.078095	-0.973877	0.393799	-0.053955
902.0	6.810194	-1.704561	7.497405	-0.49308	-1.926518	0.043319	-0.973877	0.395508	-0.032227
903.0	6.95724	-1.81883	7.241508	-0.509729	-2.131618	0.000603	-0.967529	0.399658	-0.01709
904.0	7.01525	-1.931325	7.39973	-0.573539	-2.262857	-0.047958	-0.973633	0.39502	0.002441
905.0	6.496913	-2.40615	7.079624	-0.701457	-2.446823	-0.131729	-0.967285	0.396973	0.02417
906.0	6.313266	-2.491967	6.947137	-0.685762	-2.706142	-0.265647	-0.967285	0.396729	0.037109
907.0	6.21642	-3.677922	6.112949	-0.573106	-3.019895	-0.435008	-0.9646	0.387939	0.067383
908.0	6.264993	-3.256708	6.13247	-0.057114	-3.31212	-0.646447	-0.966309	0.37915	0.080566
909.0	6.427404	-1.671341	6.982654	-0.161528	-3.754892	-0.8108	-0.959473	0.37207	0.115234
910.0	6.386638	-2.873524	6.00544	-0.475294	-4.269523	-1.186375	-0.956787	0.36084	0.147705
911.0	6.041909	-3.134749	6.064704	-0.112013	-4.729083	-1.60433	-0.945557	0.349609	0.186768
912.0	18.816815	0.21097	7.635395	-1.489847	-7.05402	-2.006342	-0.933594	0.325195	0.243408
913.0	7.891496	-5.127453	5.665965	-1.676465	-5.646137	-1.871892	-0.91748	0.30542	0.282471
914.0	6.688176	-5.440365	8.056121	-0.868241	-6.269541	-2.102641	-0.898926	0.283447	0.328125
915.0	14.145041	-5.761898	4.59101	-0.25826	-5.702803	-2.781445	-0.874268	0.263672	0.363037
916.0	8.244506	-12.621203	-0.957824	4.498109	-3.756055	-2.454741	-0.853516	0.287598	0.358643
917.0	31.899292	18.85387	21.877036	1.762064	-7.925773	0.710715	-0.80249	0.267334	0.428223
918.0	16.690065	-18.250951	-2.355835	-2.503034	-8.992161	-1.67434	-0.749268	0.243164	0.473877
919.0	31.409081	-3.074244	10.375947	-1.449019	-7.876818	-2.846736	-0.682373	0.210693	0.519775
920.0	26.447971	-9.728644	9.914878	0.247082	-8.311737	-2.562503	-0.609863	0.190918	0.558838
921.0	14.928825	-0.853632	19.13031	-4.405465	-11.594538	-1.989336	-0.507568	0.141113	0.615723
922.0	39.783431	-17.836996	10.600961	-4.951548	-8.056472	-2.465268	-0.440674	0.096191	0.618164
923.0	16.428616	-14.28036	14.673872	-1.301112	-4.408084	-1.733984	-0.367432	0.066406	0.622803
924.0	11.705863	-17.374799	25.40889	-1.852332	-4.997462	-1.53648	-0.310059	0.040771	0.614258
925.0	46.698781	-19.326415	25.340598	0.696299	0.946648	-0.869479	-0.2854	0.02417	0.588379
926.0	10.642439	-20.720605	21.318378	0.875422	5.170411	0.779875	-0.284424	-0.003418	0.560547
927.0	-1.759345	-11.278257	16.34286	2.431513	4.625011	0.759874	-0.279785	-0.009766	0.543213
928.0	-4.620369	-6.259365	13.720782	2.139274	4.555617	0.552311	-0.282959	-0.043701	0.519531
929.0	-4.986202	-0.964506	12.879805	1.942719	4.211015	0.544776	-0.283936	-0.07373	0.510986
930.0	-1.82565	1.130077	12.038889	0.760915	4.112218	0.652234	-0.293701	-0.103516	0.48291
931.0	1.328408	1.941022	11.538936	0.0484	4.345302	0.891902	-0.307861	-0.135742	0.469971
932.0	4.712688	1.926593	11.288526	-0.839956	4.796148	1.19069	-0.321533	-0.17627	0.437744
933.0	7.680621	0.72138	10.535942	-1.393952	5.478888	1.496798	-0.337646	-0.210449	0.411865
934.0	9.030243	-0.545419	9.357722	-1.651311	6.22838	1.732041	-0.360352	-0.246582	0.377197
935.0	8.948411	-2.32521	8.059332	-1.510535	6.855331	1.819344	-0.374512	-0.276367	0.344971
936.0	8.92366	-2.567573	7.045749	-1.064098	7.203378	1.796594	-0.395264	-0.301758	0.310303
937.0	9.135706	-1.668859	6.315877	-0.687921	7.362249	1.742889	-0.409912	-0.316406	0.288818
938.0	9.534203	-0.731092	5.831779	-0.39981	7.350965	1.698267	-0.43335	-0.333496	0.26709
939.0	10.068232	0.390862	5.685551	-0.259623	7.198377	1.660411	-0.450684	-0.339844	0.251953
940.0	11.191982	0.762793	5.925659	-0.277133	6.992154	1.587512	-0.485352	-0.341797	0.236572
941.0	12.78882	0.749925	6.228576	-0.287713	6.79945	1.472745	-0.535645	-0.337646	0.223633
942.0	14.411102	0.769738	6.811017	-0.325945	6.580866	1.310143	-0.588379	-0.328613	0.184326
943.0	16.873918	1.451342	7.216672	-0.383716	6.418366	1.154101	-0.628662	-0.300293	0.149414
944.0	17.034108	0.768883	6.779864	-0.6497	6.320482	1.029122	-0.662109	-0.280273	0.093018
945.0	16.441155	-0.501657	6.309623	-0.728993	6.008846	0.887053	-0.680908	-0.249512	0.03418
946.0	15.697379	-1.734292	6.37898	-0.74191	5.603067	0.808415	-0.690674	-0.227539	-0.00708
947.0	15.148971	-2.506777	6.933245	-0.658532	5.090663	0.815396	-0.693848	-0.203369	-0.046143
948.0	15.932951	-3.620646	7.286962	-0.707933	4.489998	0.959994	-0.694824	-0.177002	-0.085205
949.0	17.430485	-4.616647	6.575249	-0.755577	3.867933	1.312602	-0.693848	-0.150879	-0.109375
950.0	19.215894	-5.173954	6.189578	-0.820776	3.10301	1.865247	-0.694824	-0.122559	-0.131104
951.0	23.463094	-4.446578	6.349793	-0.879556	2.314318	2.647484	-0.694092	-0.085938	-0.133545
952.0	32.85615	-0.829122	8.3051	-0.867509	1.778378	3.715773	-0.699707	-0.053467	-0.144531
953.0	42.915039	0.590193	8.589993	-1.4284	2.553475	4.911138	-0.695068	-0.005859	-0.168457
954.0	43.070642	-5.760722	1.080992	-1.42088	4.226253	5.580945	-0.688232	0.037598	-0.203369
955.0	33.74309	-9.926209	-6.979013	0.800305	5.198201	5.150526	-0.680664	0.065918	-0.231689
956.0	30.615278	-3.761669	-12.517989	3.441495	5.406866	4.047689	-0.659912	0.090332	-0.275146
957.0	29.76356	7.321764	-20.087433	4.763941	5.760793	3.301167	-0.64502	0.097412	-0.318604
958.0	23.069661	15.130465	-26.256303	4.320105	5.143219	3.059677	-0.625977	0.106689	-0.353271
959.0	10.416402	18.410093	-29.702554	2.993316	3.800097	2.636853	-0.619873	0.117676	-0.372803
960.0	1.059859	22.066899	-25.712562	0.976889	1.131959	1.833892	-0.61792	0.126221	-0.375
961.0	6.250513	18.411396	-17.076128	-2.511156	-3.420466	1.230606	-0.638184	0.14502	-0.338135
962.0	5.781859	2.453908	-0.762873	-5.39323	-2.443204	0.268247	-0.647705	0.164063	-0.303711
963.0	12.626823	-24.587044	-30.966567	-3.831242	-7.203441	-2.637045	-0.670654	0.141846	-0.262451
964.0	-4.120136	1.604616	12.708437	5.672727	-4.128804	-3.80801	-0.697754	0.115234	-0.223389
965.0	32.537283	6.423747	7.106639	-2.622926	-8.381771	-3.359725	-0.716553	0.097412	-0.171143
966.0	22.167367	-3.960442	8.70143	-0.064196	-4.102748	-1.439602	-0.724609	0.081787	-0.129883
967.0	20.306237	-8.512117	4.173083	-0.299264	-4.839566	-1.140881	-0.735352	0.081055	-0.091064
968.0	20.16394	-0.009222	10.65276	0.475912	-4.469311	-1.105746	-0.736816	0.063477	-0.062744
969.0	22.147309	0.707281	9.149459	0.801886	-3.482193	-1.619748	-0.739014	0.063232	-0.038818
970.0	19.592384	2.866905	10.391717	-0.242006	-2.649825	-1.525479	-0.738281	0.047852	-0.014893
971.0	15.435156	-5.130518	5.810198	0.096839	-2.299287	-1.215298	-0.742188	0.036621	0.010986
972.0	32.345127	-10.505178	10.98585	0.45996	-1.388338	-1.376333	-0.743896	0.023682	0.009033
973.0	4.453216	3.18877	8.353958	2.862984	-0.611559	-1.060089	-0.741455	0.017334	0.015625
974.0	8.895755	-0.484646	8.637313	-0.550834	-0.905099	-0.848664	-0.743164	0.008545	0.026367
975.0	14.366514	-1.564563	8.609989	1.302876	-0.592242	-0.62232	-0.741455	0.019287	0.030762
976.0	5.508488	-2.112289	6.76199	0.430233	-0.217809	-0.392536	-0.743408	0.012695	0.028564
977.0	9.402639	-1.390469	7.994296	0.820171	-0.335752	-0.354626	-0.745117	0.00415	0.030762
978.0	7.505634	-1.385293	7.843148	0.223228	-0.275868	-0.224092	-0.745361	0.006104	0.037354
979.0	8.073294	-1.522112	7.352022	0.281258	-0.238507	-0.14959	-0.747314	0.001953	0.032959
980.0	7.61616	-1.341574	7.22024	0.016488	-0.237667	-0.071902	-0.740723	0.00415	0.032959
981.0	7.549927	-1.880631	6.760442	0.098456	-0.2144	-0.03687	-0.745117	0.001709	0.041504
982.0	7.282353	-1.619496	7.04242	0.061113	-0.16852	-0.03552	-0.740967	0.006348	0.032959
983.0	7.291402	-1.795711	6.779191	0.083529	-0.124876	-0.047501	-0.743164	0.006104	0.043701
984.0	7.279333	-1.889183	6.574999	0.052463	-0.08657	-0.081928	-0.740479	-0.002441	0.043701
985.0	7.424393	-1.813559	6.440515	0.131773	-0.043453	-0.10839	-0.743164	0.008301	0.041504
986.0	7.347355	-1.849132	6.48477	0.173535	0.004249	-0.141559	-0.742676	-0.002441	0.043701
987.0	7.334395	-1.644069	6.570966	0.189891	0.049319	-0.159918	-0.740723	0.001953	0.041504
988.0	7.226077	-1.944121	6.67441	0.146927	0.070678	-0.145055	-0.744873	-0.004639	0.045898
989.0	7.141558	-1.320288	6.905451	0.118099	-0.000443	-0.100343	-0.742676	-0.004639	0.045898
990.0	7.066762	-1.709039	6.543276	0.017939	-0.042499	-0.066989	-0.742676	-0.006836	0.039551
991.0	7.091791	-0.861452	6.967061	0.045917	-0.114168	-0.027056	-0.740723	-0.000244	0.041504
992.0	7.105056	-1.352199	6.700492	-0.117098	-0.183131	0.021897	-0.744873	-0.004639	0.045898
993.0	7.098453	-1.228536	6.790745	-0.136889	-0.221352	0.045146	-0.742676	-0.004639	0.043701
994.0	7.127514	-1.421515	6.791555	-0.187919	-0.254605	0.072241	-0.744873	-0.000488	0.048096
995.0	7.186331	-1.57857	6.657715	-0.164635	-0.271103	0.077236	-0.740723	0.001709	0.054688
996.0	7.255079	-1.607259	6.64768	-0.167683	-0.275513	0.093331	-0.738525	-0.000488	0.05249
997.0	7.284703	-1.887022	6.416373	-0.156181	-0.263719	0.094199	-0.740479	-0.002686	0.059082
998.0	7.281581	-1.922465	6.350015	-0.042681	-0.231224	0.075927	-0.740234	-0.009033	0.056885
999.0	7.298038	-1.525001	6.46556	-0.051293	-0.220899	0.072258	-0.740723	0.003906	0.054688
1000.0	7.39304	-1.730917	6.448605	-0.121191	-0.215779	0.077973	-0.742676	-0.004883	0.059082
1001.0	7.388039	-1.51122	6.540931	-0.137993	-0.214078	0.088168	-0.74292	0.001709	0.056885
1002.0	7.234277	-1.642998	6.486522	-0.231659	-0.229777	0.105407	-0.738281	-0.002686	0.061035
1003.0	7.231551	-1.483264	6.524635	-0.213866	-0.267867	0.108195	-0.73877	0.008057	0.063232
1004.0	7.159208	-1.306991	6.655552	-0.312036	-0.318173	0.138261	-0.740723	0.003662	0.061035
1005.0	7.124668	-1.500396	6.66065	-0.33927	-0.397267	0.156038	-0.73877	0.008057	0.067627
1006.0	7.100161	-1.546104	6.637717	-0.32156	-0.485869	0.163982	-0.745117	0.003662	0.072021
1007.0	7.094542	-1.468737	6.634812	-0.323309	-0.599341	0.182877	-0.740967	0.007813	0.082764
1008.0	7.01639	-1.648113	6.662217	-0.307713	-0.695767	0.193993	-0.740967	0.007568	0.087158
1009.0	5.948877	-2.711163	6.907107	-0.390218	-0.78582	0.19218	-0.73877	0.011963	0.095703
1010.0	6.639973	-2.011625	6.920167	-0.105784	-1.081489	0.119564	-0.736572	0.009521	0.102295
1011.0	6.641603	-1.800698	7.15924	-0.175296	-1.196418	0.095913	-0.736572	0.011719	0.113037
1012.0	6.490777	-2.572095	6.770702	-0.251939	-1.437431	0.016296	-0.732178	0.011475	0.119629
1013.0	6.902349	-2.560567	6.689044	-0.191138	-1.598127	-0.07109	-0.734375	0.01123	0.134766
1014.0	7.234253	-2.397438	6.394088	-0.194142	-1.729473	-0.173971	-0.725342	0.006836	0.149902
1015.0	7.518628	-2.228113	6.492078	-0.245385	-1.88291	-0.233111	-0.729736	0.006592	0.163086
1016.0	7.842388	-2.129469	6.926743	-0.346683	-1.977363	-0.266454	-0.733887	0.002197	0.178223
1017.0	7.55941	-2.516758	6.519412	-0.387547	-2.023293	-0.298478	-0.725098	-0.000244	0.195557
1018.0	7.299225	-1.830045	6.825459	-0.377042	-2.216908	-0.310208	-0.720459	-0.009033	0.210693
1019.0	7.059049	-2.744802	6.063782	-0.638764	-2.496103	-0.370786	-0.709473	-0.00708	0.228027
1020.0	7.077594	-1.986648	6.496786	-0.408525	-2.816844	-0.505594	-0.709229	-0.013916	0.25415
1021.0	6.531282	-2.604649	6.529352	-0.627213	-3.159989	-0.712598	-0.697998	-0.020508	0.278076
1022.0	5.439989	-4.478352	5.4024	-0.025715	-3.493237	-1.03896	-0.693359	-0.027344	0.304199
1023.0	5.400586	-1.858388	7.024258	0.615296	-4.072293	-1.285476	-0.673584	-0.029785	0.334473
1024.0	13.573625	-1.163918	6.5438	0.495034	-5.711345	-1.300848	-0.65332	-0.043213	0.380127
1025.0	11.099947	-0.872521	8.831861	-2.943238	-6.284971	-1.43466	-0.632813	-0.06543	0.421387
1026.0	6.810928	-3.350496	6.545598	-2.105006	-5.508241	-1.302169	-0.608398	-0.076416	0.458252
1027.0	10.735337	-3.440156	6.745785	-2.057032	-7.010507	-1.480772	-0.568359	-0.098389	0.499756
1028.0	13.414984	-3.8866	5.067956	-1.748975	-7.02692	-1.926868	-0.538818	-0.122559	0.541016
1029.0	21.070276	-2.348451	6.646615	-1.079953	-7.766004	-1.512389	-0.49292	-0.129395	0.584473
1030.0	19.037371	-12.755354	1.381713	0.071464	-7.584963	-1.360477	-0.444824	-0.129639	0.617188
1031.0	9.197958	-10.218317	5.033574	5.781485	-5.840902	0.564897	-0.403076	-0.084961	0.658203
1032.0	49.133368	4.548585	9.652688	-1.940341	-7.03152	-2.08073	-0.360107	-0.121582	0.682373
1033.0	21.517424	-3.781977	11.241573	-2.115449	-9.08204	-0.990379	-0.291748	-0.145508	0.717285
1034.0	21.189535	-6.691405	15.207254	-7.953365	-11.070403	-0.615744	-0.228516	-0.201416	0.732666
1035.0	31.060792	-16.055776	7.013214	-2.628045	-4.827466	-1.34345	-0.188965	-0.209961	0.750244
1036.0	2.712067	-12.526045	17.286819	-2.527009	-3.91424	-1.526717	-0.157715	-0.229492	0.76123
1037.0	19.206695	-20.119326	15.943296	-0.504046	-4.791823	-1.88698	-0.125244	-0.223145	0.776367
1038.0	35.426766	-13.33495	24.8503	1.612709	1.19656	-1.324821	-0.149658	-0.212646	0.787109
1039.0	9.305764	-15.117504	17.985035	1.355287	3.209484	-0.016387	-0.183105	-0.187012	0.804199
1040.0	3.817443	-8.372143	16.716075	2.25828	3.875248	0.167551	-0.227783	-0.157227	0.814941
1041.0	-2.880178	-5.089318	13.442183	2.121755	4.071929	0.139293	-0.272461	-0.127441	0.821289
1042.0	-3.78207	-2.057867	11.910413	1.699409	3.980695	0.035184	-0.319336	-0.099609	0.81665
1043.0	-2.119898	-0.869025	10.414457	1.263954	3.962746	-0.05404	-0.365967	-0.076172	0.818604
1044.0	0.235535	0.02844	9.64296	0.70838	4.162027	-0.053313	-0.421143	-0.054688	0.801025
1045.0	2.221722	-0.308916	8.806329	0.14506	4.47389	0.010775	-0.476563	-0.035156	0.7771
1046.0	4.63546	-0.601239	8.461831	-0.334565	4.849393	0.1121	-0.535645	-0.02417	0.746582
1047.0	7.559997	-0.985651	8.021048	-0.731676	5.382256	0.277492	-0.588379	-0.015137	0.69873
1048.0	8.917381	-1.994288	7.196763	-1.024464	6.015068	0.465948	-0.647949	-0.001709	0.635742
1049.0	9.532988	-3.097243	6.23526	-1.146032	6.548607	0.598037	-0.693848	-0.000732	0.563965
1050.0	10.71587	-4.483891	5.382532	-1.126006	6.963351	0.663161	-0.730713	-0.006104	0.475098
1051.0	11.558261	-5.329952	4.534981	-0.911449	7.281184	0.713992	-0.763428	-0.013672	0.390625
1052.0	12.300414	-5.601931	3.63929	-0.654892	7.469305	0.779453	-0.776123	-0.023438	0.299561
1053.0	12.238048	-5.088085	3.077906	-0.400985	7.458593	0.881359	-0.786621	-0.039551	0.223877
1054.0	12.420189	-4.174976	3.024723	-0.308341	7.271419	1.013013	-0.779785	-0.053711	0.154541
1055.0	12.608787	-3.457657	3.177238	-0.342934	6.989059	1.180444	-0.781494	-0.067871	0.098145
1056.0	13.438443	-2.346058	3.92263	-0.437979	6.607575	1.348903	-0.785645	-0.07373	0.041992
1057.0	15.120701	-1.161896	4.684675	-0.721298	6.259127	1.533372	-0.782959	-0.087891	-0.007813
1058.0	16.043582	-0.723553	5.162933	-1.123955	5.946	1.738471	-0.789795	-0.083008	-0.053467
1059.0	15.900932	-1.647811	5.19108	-1.406902	5.602395	1.883236	-0.78833	-0.06958	-0.101074
1060.0	14.9469	-2.879614	5.495198	-1.408906	5.175119	1.872955	-0.784424	-0.060303	-0.146729
1061.0	14.755307	-2.948923	6.459461	-1.197304	4.668946	1.75837	-0.785156	-0.040527	-0.179443
1062.0	15.127204	-2.005995	7.726386	-1.048592	4.158982	1.685232	-0.772461	-0.037842	-0.218262
1063.0	16.028827	-1.441533	8.831892	-1.091281	3.69345	1.734536	-0.760254	-0.015869	-0.246582
1064.0	17.715916	-1.65036	9.316216	-1.311441	3.254298	1.9491	-0.752197	-0.002441	-0.274902
1065.0	19.020103	-2.63057	8.489735	-1.494384	2.850439	2.287022	-0.733398	0.021484	-0.296631
1066.0	20.586561	-0.621029	8.18013	-1.413069	2.28742	2.817163	-0.725586	0.039063	-0.322754
1067.0	23.612114	-1.559367	7.261199	-1.966279	1.869226	3.451096	-0.707275	0.071777	-0.337891
1068.0	28.266166	-7.216799	4.307426	-1.935032	1.9099	3.69491	-0.694824	0.086914	-0.353271
1069.0	32.835665	-11.427807	0.364092	-0.849813	2.409976	3.406874	-0.674561	0.124023	-0.375
1070.0	35.43005	-8.481537	-3.676563	0.930358	3.308905	3.08141	-0.65918	0.122314	-0.401123
1071.0	36.997875	2.664444	-7.675155	2.14189	4.391509	3.021751	-0.627197	0.133545	-0.427002
1072.0	34.331775	12.665488	-11.770318	1.553685	5.426536	3.677136	-0.599365	0.14917	-0.459473
1073.0	25.701149	12.903771	-18.563129	0.083948	5.64515	4.396303	-0.57251	0.181885	-0.494385
1074.0	13.213471	10.303945	-22.651397	0.058312	4.819994	4.284137	-0.54248	0.193115	-0.520264
1075.0	-0.053561	8.414856	-21.698237	0.113759	2.725142	3.066714	-0.530029	0.208252	-0.524658
1076.0	-1.619413	6.172147	-17.931072	0.531378	-0.590651	1.256991	-0.531982	0.203857	-0.520508
1077.0	3.081438	5.438944	-4.649974	0.162627	-1.883918	-0.263162	-0.547119	0.20166	-0.509521
1078.0	16.200051	-3.861646	-20.48456	0.438915	-5.178743	-3.048262	-0.580322	0.162354	-0.481201
1079.0	5.774153	10.715487	-0.964622	3.014618	-2.005616	-3.745147	-0.594482	0.13208	-0.468262
1080.0	11.202907	-2.63462	14.831968	0.683802	-7.568024	-5.586043	-0.633789	0.079834	-0.43335
1081.0	30.622385	23.795925	14.663031	4.04991	-0.591834	-4.569339	-0.636719	0.042969	-0.428711
1082.0	1.205052	3.689124	5.491632	-2.644403	-4.085944	-2.154997	-0.651611	0.040527	-0.400635
1083.0	8.453622	-10.334279	1.397455	0.484835	-4.795124	-1.25162	-0.67749	0.03125	-0.370361
1084.0	21.769391	-5.067271	9.057846	-0.413188	-4.514128	-0.693004	-0.68335	0.020264	-0.337646
1085.0	20.181608	1.034013	10.582344	0.902224	-3.619024	-1.252865	-0.696045	0.009033	-0.318115
1086.0	18.48041	0.522674	9.493059	0.177666	-2.894599	-1.511645	-0.708252	-0.014893	-0.304932
1087.0	19.441042	-4.136071	7.380091	0.071203	-2.507633	-1.295089	-0.708252	-0.012939	-0.283447
1088.0	15.530517	-4.364005	8.717287	0.269953	-1.998699	-1.010109	-0.709961	-0.025879	-0.274658
1089.0	15.230448	-3.658819	8.834685	0.858558	-1.760398	-1.128699	-0.71582	-0.04126	-0.259521
1090.0	12.256887	-3.787564	7.915336	1.354987	-0.76021	-1.088355	-0.723877	-0.054199	-0.259277
1091.0	8.0444	3.777212	10.394881	0.436195	-0.944834	-0.899314	-0.719727	-0.050049	-0.248535
1092.0	10.298527	-4.764004	6.202578	0.692541	-0.548641	-0.792167	-0.723633	-0.062988	-0.250732
1093.0	10.347843	-0.746353	9.113792	0.970366	-0.486761	-0.650905	-0.716797	-0.06958	-0.239746
1094.0	7.542059	-1.392994	7.089278	0.934821	-0.190966	-0.448112	-0.725342	-0.075928	-0.244141
1095.0	8.393471	-0.422498	8.085699	0.382099	-0.233479	-0.290355	-0.725342	-0.075928	-0.244141
1096.0	7.385098	-1.616914	7.032247	0.118125	-0.237121	-0.177083	-0.727051	-0.08252	-0.239746
1097.0	7.300408	-1.714765	6.756177	0.238965	-0.208456	-0.120498	-0.722656	-0.084717	-0.239746
1098.0	7.528923	-1.589462	6.932452	0.237797	-0.26151	-0.03963	-0.722656	-0.086914	-0.233154
1099.0	7.369623	-1.425209	7.134756	0.094154	-0.286575	0.044919	-0.727051	-0.082764	-0.226807
1100.0	7.386013	-1.552954	7.206201	0.000824	-0.303753	0.095939	-0.727051	-0.086914	-0.226807
1101.0	7.137774	-1.588452	7.136835	-0.171932	-0.298871	0.118913	-0.727295	-0.080566	-0.224609
1102.0	7.088355	-1.667217	6.974264	-0.17779	-0.262907	0.118863	-0.7229	-0.08252	-0.230957
1103.0	7.093011	-1.884119	6.841424	-0.22812	-0.251954	0.131966	-0.729736	-0.073975	-0.226807
1104.0	7.233316	-1.589263	6.990775	-0.191595	-0.24831	0.134717	-0.7229	-0.076172	-0.220215
1105.0	7.328609	-1.922854	6.804042	-0.199312	-0.245019	0.143672	-0.729736	-0.072021	-0.21582
1106.0	7.416146	-2.103361	6.579683	-0.162033	-0.215966	0.135575	-0.727539	-0.072021	-0.220215
1107.0	7.188515	-2.121967	6.412768	-0.223111	-0.201392	0.1193	-0.727539	-0.069824	-0.220215
1108.0	7.193272	-2.335163	6.203234	-0.220862	-0.215544	0.090168	-0.725586	-0.067627	-0.222412
1109.0	7.196988	-2.420935	6.104869	-0.12554	-0.196128	0.040021	-0.727539	-0.072021	-0.21582
1110.0	7.154224	-2.3404	6.008027	-0.094771	-0.175474	0.003641	-0.731934	-0.070068	-0.209473
1111.0	7.095995	-2.326108	5.911415	-0.034757	-0.15271	-0.031883	-0.731934	-0.067871	-0.213867
1112.0	7.127745	-2.035496	6.070693	-0.00077	-0.147265	-0.060653	-0.725586	-0.067871	-0.21167
1113.0	7.158056	-2.496724	5.790665	0.02861	-0.118534	-0.101384	-0.727539	-0.069824	-0.21582
1114.0	7.078887	-2.195344	6.032377	0.293119	-0.098576	-0.140093	-0.725098	-0.076416	-0.21167
1115.0	7.141486	-1.837561	6.296931	0.291641	-0.100495	-0.159003	-0.7229	-0.080566	-0.211426
1116.0	7.203311	-1.80046	6.380923	0.129093	-0.164011	-0.168212	-0.731445	-0.083008	-0.205078
1117.0	7.470108	-2.019297	6.244136	0.321233	-0.159093	-0.178977	-0.731445	-0.083008	-0.200684
1118.0	7.428544	-1.707408	6.52418	0.355287	-0.138197	-0.171446	-0.731445	-0.080811	-0.205078
1119.0	7.396993	-1.740922	6.500374	0.259713	-0.125514	-0.16026	-0.729004	-0.087402	-0.200684
1120.0	7.485922	-1.776302	6.447328	0.262667	-0.124882	-0.152433	-0.735596	-0.084961	-0.209473
1121.0	7.637883	-1.480928	6.701914	0.261935	-0.105824	-0.141839	-0.735596	-0.087402	-0.198486
1122.0	7.573165	-1.367842	6.745708	0.209191	-0.10592	-0.103216	-0.735596	-0.087402	-0.202881
1123.0	7.417163	-1.021353	6.847622	0.147868	-0.175959	-0.052807	-0.731445	-0.080811	-0.198486
1124.0	7.29191	-1.185219	6.908171	0.067943	-0.268061	0.00941	-0.737793	-0.087402	-0.192139
1125.0	6.283556	-1.589767	7.248732	-0.017579	-0.408787	0.050167	-0.738037	-0.081055	-0.187744
1126.0	6.785823	-1.686498	7.190138	-0.127683	-0.641518	0.059337	-0.735596	-0.0896	-0.194092
1127.0	6.772567	-1.734393	7.027939	-0.083238	-0.789669	0.043771	-0.744141	-0.087646	-0.181152
1128.0	6.677976	-1.916066	7.074659	-0.176675	-0.975562	0.03618	-0.735596	-0.085449	-0.176758
1129.0	6.731669	-1.777758	7.090974	-0.191028	-1.168551	0.005157	-0.737793	-0.083496	-0.168213
1130.0	7.107775	-1.351929	7.070855	-0.273624	-1.350389	-0.016236	-0.73999	-0.083496	-0.161621
1131.0	7.085998	-1.597822	6.962817	-0.355677	-1.485871	-0.026096	-0.739746	-0.088135	-0.144287
1132.0	7.102339	-2.150812	6.863538	-0.431509	-1.652335	-0.070121	-0.741943	-0.086182	-0.131348
1133.0	7.100602	-2.595094	6.690603	-0.384246	-1.779107	-0.140059	-0.743896	-0.09082	-0.114014
1134.0	7.122392	-2.782836	6.706121	-0.24422	-1.917762	-0.230519	-0.743896	-0.093018	-0.101074
1135.0	7.263925	-2.581617	6.728666	-0.246463	-2.097994	-0.329506	-0.74585	-0.095459	-0.081543
1136.0	7.132818	-2.515676	6.501542	-0.196877	-2.299284	-0.442665	-0.748047	-0.0979	-0.062012
1137.0	7.028589	-1.895644	6.630205	-0.051542	-2.531613	-0.537966	-0.75	-0.098145	-0.038086
1138.0	6.59953	-2.667235	6.591489	-0.060665	-2.80453	-0.684467	-0.747314	-0.111328	-0.018555
1139.0	6.363979	-2.68632	6.567543	0.109397	-3.157992	-0.917121	-0.74707	-0.115967	0.005371
1140.0	6.156021	-2.786731	6.319093	0.255078	-3.467669	-1.167687	-0.750977	-0.127197	0.031494
1141.0	6.15264	-2.49565	6.587466	0.208369	-3.963658	-1.411887	-0.735107	-0.142578	0.066162
1142.0	5.658912	-2.705999	6.29432	0.178441	-4.629913	-1.736012	-0.734375	-0.158203	0.105225
1143.0	18.918699	0.896979	7.533839	-0.93588	-7.569486	-2.211333	-0.716309	-0.169678	0.157471
1144.0	5.260768	-7.956226	4.000655	-0.674492	-5.356565	-2.274261	-0.695801	-0.19165	0.196533
1145.0	10.925493	-2.23473	6.026795	-0.323857	-6.61702	-2.889145	-0.677734	-0.209229	0.242188
1146.0	18.697324	-4.189514	2.880406	0.353038	-5.438173	-2.700922	-0.65918	-0.233398	0.272705
1147.0	3.022195	-4.568031	11.156099	2.566388	0.671196	-1.259	-0.648682	-0.227051	0.290039
1148.0	31.481513	7.142105	8.074759	-1.735604	-7.287419	-1.498746	-0.621582	-0.249023	0.331299
1149.0	25.293775	-8.813113	1.273633	-3.011065	-6.780066	-1.501496	-0.590332	-0.266602	0.364014
1150.0	26.412202	-8.225258	7.907672	-2.682094	-6.486342	-2.030862	-0.563232	-0.290771	0.405273
1151.0	15.51988	-3.449539	7.280268	-2.61833	-8.910012	-2.06398	-0.507813	-0.3125	0.448975
1152.0	26.706649	-7.751953	14.053564	-4.257198	-9.037239	-2.472419	-0.465332	-0.34082	0.4729
1153.0	19.9137	-10.330848	8.770161	-1.916763	-3.878339	-2.389267	-0.429688	-0.360352	0.494873
1154.0	9.559839	-7.771961	17.736334	-1.799902	-4.470876	-2.357673	-0.404785	-0.381836	0.508057
1155.0	21.958635	-8.839722	19.165599	-0.644796	-1.725532	-2.276719	-0.387207	-0.385986	0.503662
1156.0	22.489948	-15.613376	19.841111	-1.156855	0.632252	-1.15585	-0.393555	-0.390381	0.499268
1157.0	5.76192	-13.015264	16.717893	-0.175851	2.403025	-0.393125	-0.400146	-0.390137	0.49292
1158.0	0.425833	-12.351355	12.111928	0.306916	2.611046	-0.199457	-0.415771	-0.383789	0.492676
1159.0	-2.952189	-6.949919	11.715235	0.839728	2.698971	-0.040999	-0.430908	-0.385986	0.481934
1160.0	-2.87787	-4.55937	10.198202	0.568364	2.540666	0.210329	-0.442139	-0.379395	0.477539
1161.0	-1.553349	-2.545432	9.824575	0.322627	2.536592	0.531063	-0.46167	-0.377197	0.462402
1162.0	0.373307	-1.61142	9.403736	-0.187975	2.63173	0.89513	-0.481689	-0.370605	0.449219
1163.0	2.891503	-1.614534	9.174196	-0.592657	2.902337	1.218725	-0.492432	-0.374512	0.425293
1164.0	5.16914	-2.10095	8.901869	-0.817712	3.3223	1.465332	-0.512207	-0.36792	0.403564
1165.0	7.34381	-2.636957	8.591763	-0.977472	3.871055	1.644052	-0.53418	-0.367676	0.375488
1166.0	9.044733	-3.155899	8.000025	-0.945295	4.504667	1.7937	-0.560059	-0.371582	0.347168
1167.0	8.775111	-3.718203	7.030543	-0.755039	5.085971	1.891418	-0.580078	-0.362549	0.305908
1168.0	8.920973	-3.853694	6.224265	-0.501004	5.417552	1.931819	-0.606445	-0.364258	0.269043
1169.0	9.445144	-3.584767	5.558866	-0.210031	5.5981	1.957171	-0.624023	-0.357422	0.236572
1170.0	9.965484	-2.80446	5.058492	0.027487	5.700302	2.010446	-0.643799	-0.35498	0.201904
1171.0	10.395024	-1.703275	4.87128	0.126392	5.692994	2.105814	-0.668457	-0.337402	0.166992
1172.0	11.134787	-0.874083	4.977685	0.059887	5.633629	2.226711	-0.690674	-0.330566	0.132324
1173.0	12.03261	-0.473948	5.231257	-0.084385	5.546713	2.332369	-0.713379	-0.310547	0.09082
1174.0	13.211101	-0.36244	5.694339	-0.205456	5.422292	2.371617	-0.731201	-0.297363	0.051758
1175.0	14.687914	-0.150844	5.916004	-0.330594	5.341679	2.353458	-0.751709	-0.279541	0.010498
1176.0	15.268079	-0.41837	5.736726	-0.435994	5.304767	2.265508	-0.769775	-0.26416	-0.028564
1177.0	15.439823	-0.241836	5.937513	-0.454906	5.164117	2.106347	-0.770996	-0.237549	-0.083008
1178.0	15.462807	-0.459786	6.0462	-0.576641	5.005151	1.974706	-0.773682	-0.22168	-0.13501
1179.0	15.454637	-0.468069	6.669519	-0.621375	4.74166	1.875163	-0.774414	-0.208252	-0.182861
1180.0	15.550693	-0.522059	7.360026	-0.71119	4.498619	1.834447	-0.772949	-0.19043	-0.224121
1181.0	15.389239	-0.928271	8.066898	-0.807221	4.214782	1.807821	-0.763184	-0.168457	-0.263184
1182.0	15.652724	-1.352652	8.907502	-0.807942	3.910888	1.770385	-0.759521	-0.152832	-0.302246
1183.0	16.339926	-1.368729	9.735922	-0.874378	3.588536	1.782635	-0.744873	-0.139404	-0.330566
1184.0	18.151098	-1.848329	9.867663	-1.067415	3.29945	1.916112	-0.736572	-0.125977	-0.36084
1185.0	19.962224	-2.088143	8.803102	-1.197486	3.079942	2.186015	-0.731445	-0.095459	-0.384766
1186.0	21.668438	-0.641546	8.020174	-1.172827	2.787205	2.614927	-0.721191	-0.075928	-0.406738
1187.0	24.382872	-1.882567	6.641349	-1.622324	2.631854	3.074357	-0.71167	-0.041016	-0.428467
1188.0	29.262311	-5.235952	3.665356	-1.510605	2.836585	3.276117	-0.699951	-0.012695	-0.450195
1189.0	31.771379	-6.917636	-1.514108	-0.413857	3.639546	3.152512	-0.680908	0.004883	-0.48291
1190.0	33.234713	-1.691641	-6.339243	1.172287	4.359594	2.852254	-0.657715	0.022705	-0.515381
1191.0	35.983218	7.603717	-11.124089	1.606259	5.509532	2.991513	-0.625732	0.03833	-0.552246
1192.0	31.463986	11.633906	-17.744697	0.792709	6.224981	3.680569	-0.581055	0.060547	-0.591309
1193.0	13.024099	10.594434	-23.655331	0.765482	5.965048	3.82884	-0.549072	0.076172	-0.621582
1194.0	-2.280646	7.925567	-23.845383	0.702109	3.476482	2.965066	-0.527344	0.076416	-0.641113
1195.0	-6.050837	6.833056	-20.613284	0.924202	-0.216016	1.522707	-0.542969	0.084961	-0.630371
1196.0	6.064224	10.833426	-8.479819	0.951959	-3.690499	0.342774	-0.564453	0.08252	-0.61084
1197.0	7.342788	0.314653	4.1543	-1.95072	-2.094712	-0.342746	-0.586426	0.088623	-0.591553
1198.0	23.401985	-8.761291	-18.89291	1.79544	-6.345547	-2.239888	-0.613037	0.042969	-0.573975
1199.0	-10.076361	9.97993	11.354112	3.358339	-2.44084	-2.796603	-0.640625	0.025146	-0.530518
1200.0	27.078356	6.771912	8.001669	0.546049	-6.805081	-3.064416	-0.665283	-0.011963	-0.508789
1201.0	5.41131	13.734021	11.878691	0.476835	-3.500812	-1.194946	-0.689453	-0.001709	-0.467529
1202.0	17.811104	-10.80265	2.11569	-1.378031	-5.005712	-0.765969	-0.710449	-0.019287	-0.443848
1203.0	17.287339	3.446222	12.32415	1.209956	-4.413081	-0.658961	-0.723389	-0.019775	-0.411133
1204.0	16.801214	-4.280103	6.509329	0.029131	-3.766029	-0.928971	-0.742432	-0.035156	-0.393799
1205.0	17.991237	3.06357	11.411409	0.656134	-3.128101	-1.399734	-0.75293	-0.042236	-0.365723
1206.0	17.354628	-2.145323	8.005676	0.227557	-2.553561	-1.364553	-0.754639	-0.05542	-0.343994
1207.0	17.311484	-3.283478	7.171168	0.400273	-2.247498	-1.184517	-0.769531	-0.064209	-0.330811
1208.0	13.287842	-2.943205	8.017018	1.148179	-1.720899	-1.119004	-0.768555	-0.085938	-0.317871
1209.0	20.012177	-2.871594	11.001874	0.995617	-1.114624	-1.351662	-0.768311	-0.092529	-0.309082
1210.0	6.690922	-1.842074	6.875272	1.63774	0.024203	-1.283395	-0.767334	-0.116211	-0.304688
1211.0	12.275287	-0.854866	9.181362	1.391887	-0.5675	-1.262982	-0.773682	-0.120605	-0.300293
1212.0	10.584875	-1.806688	8.17449	1.517344	0.461846	-0.917052	-0.768799	-0.135498	-0.298096
1213.0	9.743103	-0.071903	8.996101	1.002681	0.123723	-0.631421	-0.766357	-0.139893	-0.300293
1214.0	7.064699	-1.004313	7.433422	0.705543	0.024425	-0.467515	-0.768555	-0.144043	-0.304443
1215.0	7.391177	-0.853393	7.516597	0.68157	0.033525	-0.387272	-0.768311	-0.14624	-0.306641
1216.0	7.428837	-0.763596	7.418897	0.531201	0.008906	-0.315796	-0.765869	-0.152832	-0.304443
1217.0	7.312363	-0.663724	7.269384	0.45124	0.011009	-0.254567	-0.759277	-0.15918	-0.302246
1218.0	7.085787	-0.954967	7.131895	0.334576	0.018459	-0.206653	-0.75708	-0.15918	-0.297852
1219.0	7.216486	-1.208746	6.990534	0.411131	0.013968	-0.203464	-0.765869	-0.156982	-0.300049
1220.0	7.078275	-1.094759	6.994036	0.413013	0.022904	-0.189647	-0.760986	-0.165771	-0.300049
1221.0	7.05434	-1.121349	7.078731	0.407505	0.043171	-0.183043	-0.765381	-0.165771	-0.300049
1222.0	6.875663	-0.805751	7.111793	0.392406	0.030263	-0.170675	-0.765137	-0.174316	-0.29126
1223.0	6.508114	-1.168253	6.931381	0.245253	0.076241	-0.143644	-0.765137	-0.170166	-0.289307
1224.0	6.259304	-1.1999	7.027195	0.287306	0.066265	-0.135254	-0.762939	-0.176514	-0.29126
1225.0	6.414524	-1.479633	6.743246	0.238222	0.075276	-0.116778	-0.760986	-0.170166	-0.293457
1226.0	6.470258	-1.279529	7.134663	0.174281	0.095091	-0.096293	-0.756104	-0.182861	-0.295654
1227.0	6.515896	-1.205931	6.937303	0.106436	0.138916	-0.079764	-0.760742	-0.172119	-0.293457
1228.0	6.366791	-0.974315	6.965296	0.123172	0.172257	-0.082376	-0.758301	-0.180664	-0.300049
1229.0	6.615389	-0.876326	6.961686	0.091732	0.175795	-0.079779	-0.758301	-0.180664	-0.302246
1230.0	6.764071	-0.767774	6.948529	0.035993	0.188649	-0.0661	-0.756348	-0.178467	-0.300049
1231.0	6.618443	-0.590668	7.075621	0.004808	0.193776	-0.043431	-0.75415	-0.17627	-0.302246
1232.0	6.544612	-0.556024	7.14441	-0.09355	0.161382	-0.014368	-0.758057	-0.187012	-0.304199
1233.0	6.74114	-0.584645	6.707025	-0.044393	0.179911	0.013953	-0.751709	-0.184814	-0.306396
1234.0	6.742201	-0.939444	7.192239	-0.003171	0.151389	0.006301	-0.753906	-0.182617	-0.312988
1235.0	6.529502	-0.344352	7.23997	-0.069867	0.074235	0.019083	-0.760498	-0.182861	-0.308594
1236.0	6.593432	-0.916773	6.873665	-0.037036	-0.037454	0.026753	-0.751953	-0.178467	-0.304199
1237.0	6.778862	-0.462956	7.327276	-0.086294	-0.107648	0.065634	-0.760498	-0.178467	-0.306396
1238.0	6.587521	-0.860072	6.981041	-0.262319	-0.206043	0.109731	-0.756348	-0.178467	-0.306396
1239.0	6.787231	-0.85408	7.156472	-0.156186	-0.348032	0.174855	-0.760742	-0.174316	-0.297852
1240.0	6.756315	-0.719166	7.431444	-0.334786	-0.389653	0.245455	-0.762939	-0.172119	-0.302246
1241.0	7.032586	-1.248395	7.392602	-0.474188	-0.405868	0.256654	-0.765381	-0.165771	-0.295654
1242.0	6.871041	-1.223002	7.482074	-0.513037	-0.524116	0.324099	-0.765625	-0.161377	-0.295654
1243.0	7.098661	-1.191285	7.578251	-0.619593	-0.625627	0.349419	-0.767822	-0.157227	-0.284912
1244.0	7.024202	-1.593781	7.145892	-0.573568	-0.654459	0.318582	-0.765869	-0.155029	-0.287109
1245.0	6.961099	-1.077274	7.392607	-0.262619	-0.64485	0.223362	-0.770264	-0.150879	-0.278564
1246.0	5.789407	0.107124	8.899925	-0.069822	-0.749713	0.192235	-0.778809	-0.153076	-0.27417
1247.0	5.195485	-1.655347	8.419068	-0.520222	-1.111953	0.227223	-0.774902	-0.144775	-0.265381
1248.0	6.534095	-1.378082	7.10379	-0.330429	-1.397203	0.201491	-0.78125	-0.14917	-0.250244
1249.0	6.488023	-0.169693	7.968495	-0.354235	-1.632817	0.26301	-0.783691	-0.140869	-0.239502
1250.0	6.306159	-1.13931	7.822184	-0.654502	-1.8736	0.30596	-0.790039	-0.143066	-0.226563
1251.0	6.408407	-1.601198	7.656489	-0.760837	-2.164151	0.29632	-0.799316	-0.130615	-0.202637
1252.0	6.590309	-2.495444	7.603077	-0.73202	-2.393321	0.220674	-0.801025	-0.139404	-0.189697
1253.0	6.722082	-3.137775	7.352949	-0.517311	-2.534462	0.052246	-0.805664	-0.131104	-0.172363
1254.0	6.925595	-2.7022	7.623461	-0.449805	-2.724798	-0.120162	-0.807617	-0.133545	-0.146484
1255.0	6.818602	-2.66286	7.303622	-0.429195	-2.893987	-0.292751	-0.812012	-0.131592	-0.12915
1256.0	6.515115	-2.000878	7.268411	-0.28323	-3.165394	-0.424774	-0.822754	-0.138428	-0.098633
1257.0	5.949936	-2.246594	7.146392	-0.307733	-3.455813	-0.594395	-0.818115	-0.141113	-0.066162
1258.0	5.413216	-2.77993	6.922953	-0.140218	-3.844172	-0.853677	-0.819824	-0.154541	-0.037842
1259.0	4.894488	-3.142206	7.003954	0.032166	-4.307237	-1.172852	-0.821533	-0.163574	0.003174
1260.0	4.992045	-3.850413	6.624283	0.055978	-4.95668	-1.546247	-0.809814	-0.181396	0.046631
1261.0	7.799329	-2.559858	6.33436	-0.117685	-6.191371	-2.068649	-0.806641	-0.20166	0.114014
1262.0	20.105218	-2.633831	5.451293	-1.604796	-7.936399	-2.009866	-0.790771	-0.215088	0.157471
1263.0	4.567359	-4.17008	10.112396	-0.220382	-7.547478	-2.871448	-0.768066	-0.237305	0.220459
1264.0	15.950075	-4.962045	2.798165	-0.274646	-6.933813	-2.703759	-0.747559	-0.25708	0.253174
1265.0	4.540091	-5.796965	12.518868	2.958359	-0.156509	-1.656281	-0.736572	-0.259766	0.292236
1266.0	35.367094	10.775403	8.658597	-0.578656	-8.407768	-0.818715	-0.709473	-0.279541	0.340088
1267.0	22.975185	-13.929772	0.085836	-3.188765	-8.050569	-1.097536	-0.67627	-0.292969	0.385742
1268.0	30.926029	-4.980375	8.27517	-1.761964	-7.783375	-2.402859	-0.640137	-0.325928	0.433594
1269.0	20.035942	-5.891733	11.764951	-1.791066	-8.80228	-2.218639	-0.580322	-0.3479	0.490234
1270.0	21.675899	-9.684634	16.775499	-4.269161	-11.035452	-2.274336	-0.526367	-0.388916	0.516357
1271.0	25.987102	-12.141671	8.800551	-1.77802	-4.565365	-2.506838	-0.49292	-0.410645	0.53833
1272.0	5.439808	-7.143621	20.6769	-1.095349	-4.445581	-2.405436	-0.450684	-0.430176	0.560059
1273.0	25.480814	-3.178461	23.766586	-0.703554	-1.966906	-2.186822	-0.443604	-0.445068	0.551514
1274.0	24.205403	-13.048763	22.375216	-2.021451	1.722077	-1.004869	-0.449707	-0.45752	0.530029
1275.0	4.069779	-11.654613	17.337588	-1.070058	3.603194	-0.30254	-0.473145	-0.470459	0.510498
1276.0	-0.328896	-11.704637	11.998539	-0.854075	3.72382	-0.301825	-0.492676	-0.474365	0.486572
1277.0	-3.22841	-7.259287	10.718041	-0.114102	3.88585	-0.316917	-0.501221	-0.480713	0.47583
1278.0	-3.553831	-5.180358	8.758817	-0.271595	3.628287	-0.193279	-0.522705	-0.487061	0.460693
1279.0	-1.734551	-3.50578	7.988369	-0.280327	3.532714	0.007539	-0.53125	-0.495361	0.443359
1280.0	-0.297034	-2.526098	7.400743	-0.568929	3.51189	0.307696	-0.550781	-0.497314	0.423828
1281.0	2.146212	-2.017174	7.354488	-0.828529	3.583675	0.671791	-0.57251	-0.499268	0.4021
1282.0	4.799016	-2.090204	7.567435	-1.09182	3.778	1.059013	-0.592041	-0.503418	0.378174
1283.0	6.920729	-2.688259	7.586425	-1.195356	4.171846	1.415902	-0.620605	-0.499023	0.356445
1284.0	7.875332	-3.410106	7.430961	-1.112548	4.582816	1.666404	-0.646729	-0.498535	0.31958
1285.0	8.99942	-3.468681	7.300168	-0.885247	4.958603	1.825994	-0.670898	-0.493896	0.289063
1286.0	9.728621	-2.858195	7.051794	-0.651284	5.302704	1.930269	-0.699463	-0.487061	0.256592
1287.0	10.553466	-1.848316	6.810087	-0.482017	5.548319	2.01869	-0.72583	-0.484375	0.213135
1288.0	11.240396	-0.710299	6.562579	-0.437959	5.735636	2.114094	-0.752686	-0.471191	0.17627
1289.0	11.776177	0.163221	6.376178	-0.491605	5.83457	2.230266	-0.779297	-0.459961	0.130615
1290.0	14.083402	3.180119	5.614076	-0.265315	5.700487	2.177814	-0.798828	-0.459717	0.104492
1291.0	17.307875	0.950048	7.064775	-1.130638	6.034346	2.220354	-0.832031	-0.452637	0.056641
1292.0	11.174055	1.697485	6.88738	-1.194839	6.014963	2.226966	-0.860596	-0.443604	0.01123
1293.0	13.789354	1.491526	5.44122	-0.875935	5.833423	1.849901	-0.891602	-0.43457	-0.025879
1294.0	16.654429	1.75044	6.417603	-1.130208	5.504445	1.722973	-0.922607	-0.425537	-0.071533
1295.0	15.721021	2.072739	6.79948	-1.207847	5.370326	1.677231	-0.964355	-0.414307	-0.104004
1296.0	15.567098	0.948482	6.994028	-1.369458	5.106242	1.678358	-1.010986	-0.394531	-0.151855
1297.0	15.355299	0.006742	7.717284	-1.33956	4.748304	1.671146	-1.057861	-0.365967	-0.201904
1298.0	15.947434	-0.736301	8.555912	-1.215428	4.459633	1.745584	-1.108887	-0.341797	-0.25415
1299.0	16.941859	-1.955832	9.120633	-1.07647	4.171575	1.878324	-1.154541	-0.295898	-0.326172
1300.0	18.060306	-3.055572	9.35431	-0.856632	3.898376	2.09111	-1.175537	-0.260742	-0.386963
1301.0	19.494668	-3.727151	8.90503	-0.687409	3.590201	2.448791	-1.194336	-0.227539	-0.460938
1302.0	21.15283	-4.063581	7.879023	-0.504064	3.209737	2.92233	-1.193604	-0.194336	-0.521729
1303.0	23.781848	-2.77599	6.816175	-0.263531	2.828488	3.447348	-1.193115	-0.155029	-0.578369
1304.0	26.568662	-2.785627	4.50378	-0.446121	2.639273	3.916752	-1.19043	-0.113281	-0.630615
