Acquisition frequency: 100 Hz
PacketCounter	Acc_X	Acc_Y	Acc_Z	Gyr_X	Gyr_Y	Gyr_Z	Mag_X	Mag_Y	Mag_Z
2.0	9.80204	0.542645	-0.647549	-0.002439	-0.003945	-0.001791	-0.631348	0.106445	-0.459229
3.0	9.826197	0.519604	-0.63994	-0.000992	-0.005423	-0.002679	-0.635498	0.102051	-0.470703
4.0	9.781047	0.486949	-0.599725	-0.00241	-0.004649	-0.000421	-0.631104	0.102051	-0.466064
5.0	9.811362	0.497466	-0.587763	0.001713	-0.011141	-0.002385	-0.631348	0.106445	-0.459229
6.0	9.865051	0.504519	-0.582056	-0.002629	-0.006709	0.000279	-0.633545	0.104248	-0.468506
7.0	9.889214	0.481304	-0.574618	-0.002658	-0.006005	-0.001091	-0.628906	0.102051	-0.470703
8.0	9.911734	0.497527	-0.595618	-0.003988	-0.007343	0.005276	-0.628906	0.104248	-0.461426
9.0	9.943667	0.482634	-0.660055	-0.002923	0.003659	0.000406	-0.624268	0.102051	-0.461426
10.0	9.921187	0.465765	-0.638971	0.000597	0.010915	0.008985	-0.62915	0.108643	-0.466309
11.0	9.890101	0.474492	-0.664785	0.005623	0.011957	0.005592	-0.628906	0.104248	-0.470703
12.0	9.914426	0.450552	-0.655261	0.004891	0.018206	0.007119	-0.635742	0.106445	-0.463867
13.0	9.885044	0.419554	-0.651743	0.010938	0.023966	0.007775	-0.633545	0.106445	-0.470947
14.0	9.890612	0.472261	-0.658739	0.009679	0.028206	0.006593	-0.633545	0.108643	-0.463867
15.0	9.891614	0.451753	-0.64204	0.012352	0.023191	0.005519	-0.628906	0.104248	-0.468506
16.0	9.820844	0.481227	-0.635682	0.012379	0.022487	0.00689	-0.626465	0.102051	-0.463623
17.0	9.844383	0.477137	-0.639868	0.015025	0.018176	0.004447	-0.62915	0.108643	-0.470947
18.0	9.835105	0.507376	-0.59417	0.014155	0.020255	0.010783	-0.631348	0.11084	-0.464111
19.0	9.789283	0.493447	-0.565927	0.004909	0.017502	0.008488	-0.631348	0.108643	-0.470947
20.0	9.836189	0.485651	-0.576555	0.006383	0.015321	0.008972	-0.631104	0.102051	-0.466064
21.0	9.796511	0.50544	-0.544123	-0.000864	0.012396	0.009869	-0.631348	0.106445	-0.470947
22.0	9.781905	0.496583	-0.595215	0.001867	0.005974	0.011538	-0.626953	0.108643	-0.466309
23.0	9.820873	0.479897	-0.534401	0.004056	0.008563	0.012661	-0.62915	0.11084	-0.466309
24.0	9.820972	0.478681	-0.533681	-0.001524	0.00622	0.01197	-0.626709	0.104248	-0.461426
25.0	9.81485	0.443927	-0.537829	0.005008	0.004372	0.010437	-0.62915	0.108643	-0.468506
26.0	9.790771	0.466174	-0.545556	0.005008	0.004372	0.010437	-0.626709	0.104248	-0.466064
27.0	9.822907	0.450361	-0.609471	0.00115	0.001204	0.0109	-0.624512	0.104248	-0.473145
28.0	9.812754	0.500335	-0.579789	0.005961	0.000182	0.008212	-0.631348	0.106445	-0.461426
29.0	9.843134	0.509888	-0.567287	0.001609	-0.005697	0.007336	-0.624512	0.108643	-0.470947
30.0	9.866514	0.505733	-0.57406	-0.002276	-0.008162	0.006429	-0.633545	0.108643	-0.466309
31.0	9.843898	0.488546	-0.554272	-0.006345	-0.003072	0.011126	-0.633301	0.102051	-0.466064
32.0	9.854104	0.436793	-0.584152	-0.004978	-0.002442	0.006129	-0.624512	0.108643	-0.466309
33.0	9.907873	0.442931	-0.57759	-0.002761	-0.000558	0.008623	-0.631348	0.106445	-0.461426
34.0	9.90094	0.428266	-0.596311	0.003039	0.003841	0.008613	-0.631348	0.11084	-0.466309
35.0	9.885345	0.424884	-0.556771	0.008124	0.00347	0.007965	-0.631348	0.106445	-0.473145
36.0	9.901068	0.426598	-0.595375	0.005424	0.009191	0.007665	-0.631348	0.106445	-0.463867
37.0	9.852906	0.472422	-0.610718	0.009061	0.010299	0.007903	-0.628906	0.102051	-0.4729
38.0	9.829629	0.47505	-0.603593	0.009307	0.011654	0.008573	-0.628906	0.106445	-0.468506
39.0	9.83047	0.454429	-0.588291	0.009033	0.011001	0.006533	-0.626709	0.104248	-0.463867
40.0	9.829084	0.493445	-0.61585	0.008538	0.00829	0.005194	-0.631348	0.106445	-0.468506
41.0	9.829892	0.472949	-0.600957	0.004952	0.005777	0.007697	-0.631104	0.104248	-0.477783
42.0	9.830678	0.452679	-0.58617	0.004353	0.005877	0.000876	-0.624512	0.106445	-0.461426
43.0	9.861801	0.442978	-0.558738	0.009242	0.002743	0.002301	-0.628906	0.106445	-0.466309
44.0	9.80735	0.455595	-0.579589	0.005657	0.00023	0.004804	-0.628906	0.106445	-0.461426
45.0	9.830759	0.451579	-0.585658	0.003962	0.000355	0.005019	-0.628906	0.104248	-0.470703
46.0	9.823803	0.43732	-0.604503	0.007325	0.000809	0.003218	-0.62915	0.108643	-0.466309
47.0	9.837775	0.464565	-0.566795	0.005409	-0.001125	0.004135	-0.626709	0.106445	-0.463867
48.0	9.837792	0.464038	-0.566919	0.009071	-0.000721	0.005744	-0.626709	0.104248	-0.473145
49.0	9.806717	0.473102	-0.594093	0.012161	-0.000921	0.001903	-0.631348	0.106445	-0.473145
50.0	9.831538	0.429559	-0.572203	0.007885	-0.008905	0.00514	-0.631348	0.106445	-0.461426
51.0	9.830779	0.448972	-0.587322	0.012916	-0.007874	0.001752	-0.628906	0.104248	-0.466064
52.0	9.823747	0.434882	-0.607168	0.009057	-0.011039	0.002216	-0.62915	0.11084	-0.466309
53.0	9.806567	0.471777	-0.597619	0.012446	-0.011288	0.001785	-0.631348	0.108643	-0.463867
54.0	9.853993	0.444712	-0.596752	0.010503	-0.012519	0.001333	-0.628906	0.106445	-0.466309
55.0	9.860921	0.45845	-0.579026	0.009004	-0.009635	-0.000525	-0.624512	0.104248	-0.466064
56.0	9.860857	0.458546	-0.580039	0.007036	-0.010164	-0.002348	-0.626953	0.108643	-0.466309
57.0	9.836688	0.481794	-0.589226	0.009303	-0.009683	0.002886	-0.633301	0.104248	-0.463867
58.0	9.884139	0.454776	-0.587964	0.007779	-0.006096	-0.000343	-0.631348	0.106445	-0.466309
59.0	9.859986	0.478221	-0.596704	0.007726	-0.004692	-0.003085	-0.628906	0.106445	-0.466309
60.0	9.884065	0.455052	-0.58899	0.006306	-0.003913	-0.000829	-0.633545	0.106445	-0.466064
61.0	9.884785	0.435299	-0.574971	0.006776	-0.000499	-0.000864	-0.631104	0.102051	-0.466064
62.0	9.877051	0.441302	-0.60801	0.00894	0.00279	-0.001115	-0.628906	0.104248	-0.466064
63.0	9.863066	0.413666	-0.645483	0.010634	0.002665	-0.001331	-0.633301	0.102051	-0.463623
64.0	9.877071	0.441503	-0.607543	0.012301	0.003242	-0.002918	-0.631348	0.106445	-0.463867
65.0	9.877815	0.421862	-0.593047	0.014021	0.002415	-0.001762	-0.628906	0.106445	-0.468506
66.0	9.846706	0.431566	-0.619871	0.020743	0.003319	-0.005368	-0.626709	0.106445	-0.463867
67.0	9.84671	0.431797	-0.619636	0.021042	0.003272	-0.001957	-0.626709	0.104248	-0.473145
68.0	9.861446	0.439869	-0.567396	0.019321	0.004098	-0.003112	-0.622314	0.106445	-0.468506
69.0	9.853732	0.445882	-0.600182	0.021287	0.004629	-0.001289	-0.628906	0.104248	-0.466064
70.0	9.860756	0.459687	-0.580855	0.021782	0.007342	4.6e-05	-0.626709	0.104248	-0.463867
71.0	9.814036	0.466558	-0.568143	0.016479	0.005659	0.001397	-0.628906	0.102051	-0.468262
72.0	9.866362	0.512663	-0.589528	0.016726	0.007015	0.002065	-0.624512	0.104248	-0.470703
73.0	9.813393	0.485789	-0.581339	0.013091	0.005909	0.001828	-0.62915	0.108643	-0.466309
74.0	9.837565	0.462195	-0.572345	0.012114	0.010804	0.002673	-0.638184	0.11084	-0.466309
75.0	9.85329	0.464435	-0.610649	0.018339	0.008991	-0.002265	-0.633545	0.106445	-0.470947
76.0	9.839377	0.436653	-0.647444	0.015225	0.009897	0.000204	-0.626709	0.104248	-0.456787
77.0	9.838707	0.456407	-0.660905	0.018337	0.00899	-0.002264	-0.633545	0.106445	-0.463867
78.0	9.808377	0.446106	-0.67312	0.015953	0.003644	-0.001305	-0.631348	0.106445	-0.466309
79.0	9.868383	0.486615	-0.661811	0.015484	0.00023	-0.001266	-0.631104	0.104248	-0.468506
80.0	9.845739	0.470317	-0.641277	0.016224	0.004301	0.000734	-0.633545	0.106445	-0.468506
81.0	9.815396	0.4599	-0.653772	0.014011	0.002412	-0.001756	-0.631348	0.106445	-0.468506
82.0	9.822383	0.473755	-0.634856	0.014062	0.001013	0.000988	-0.631348	0.106445	-0.463867
83.0	9.830109	0.46766	-0.601535	0.012863	0.003852	0.002535	-0.628906	0.104248	-0.470703
84.0	9.799772	0.456964	-0.614146	0.014087	0.000313	0.002361	-0.62915	0.108643	-0.463867
85.0	9.869212	0.465778	-0.646708	0.017471	6.2e-05	0.001932	-0.631104	0.102051	-0.475342
86.0	9.845829	0.469123	-0.64077	0.01889	-0.000721	-0.00032	-0.626709	0.104248	-0.468506
87.0	9.869201	0.465529	-0.647061	0.020335	-0.002204	-0.0012	-0.631104	0.104248	-0.475342
88.0	9.845084	0.488791	-0.655494	0.01911	0.001335	-0.001027	-0.631348	0.106445	-0.466309
89.0	9.838137	0.47463	-0.674012	0.01843	0.006191	0.003223	-0.631104	0.102051	-0.470703
90.0	9.79838	0.49539	-0.642769	0.019355	0.002692	-0.00036	-0.631348	0.108643	-0.468506
91.0	9.80537	0.509065	-0.623968	0.017492	-0.000636	0.003307	-0.626465	0.099854	-0.4729
92.0	9.829479	0.485417	-0.615923	0.015305	-0.003226	0.002191	-0.622314	0.108643	-0.459229
93.0	9.828723	0.50497	-0.63096	0.016008	-0.008783	-0.000683	-0.631104	0.104248	-0.468506
94.0	9.882426	0.511638	-0.625116	0.014835	-0.00664	0.002234	-0.631348	0.106445	-0.466309
95.0	9.859733	0.495362	-0.605315	0.014758	-0.004546	-0.001885	-0.631104	0.104248	-0.466064
96.0	9.852704	0.481381	-0.624872	0.017723	-0.009607	0.000477	-0.628906	0.106445	-0.468506
97.0	9.866632	0.509209	-0.587994	0.020325	-0.002208	-0.001198	-0.631348	0.106445	-0.468506
98.0	9.836256	0.498811	-0.600881	0.012088	0.000477	-0.000835	-0.631104	0.104248	-0.463867
99.0	9.836965	0.479092	-0.586804	0.016472	-0.00537	-0.000725	-0.628662	0.097656	-0.4729
100.0	9.836935	0.479158	-0.587256	0.013284	-0.002365	-0.002378	-0.62915	0.108643	-0.466309
101.0	9.836917	0.479331	-0.587421	0.008431	6.8e-05	-0.002445	-0.628906	0.104248	-0.466064
102.0	9.859563	0.495642	-0.607849	0.010369	0.0013	-0.001995	-0.62915	0.11084	-0.464111
103.0	9.854033	0.442364	-0.597841	0.010148	-0.000755	-0.001285	-0.628906	0.104248	-0.466064
104.0	9.868953	0.464414	-0.651629	0.013257	-0.001668	-0.003751	-0.631348	0.106445	-0.463867
105.0	9.853279	0.462461	-0.612328	0.012528	0.004588	-0.002255	-0.633545	0.104248	-0.470703
106.0	9.829174	0.485669	-0.620578	0.015519	-0.001169	0.001484	-0.626709	0.106445	-0.468506
107.0	9.859548	0.496041	-0.607772	0.012527	0.004587	-0.002255	-0.624512	0.104248	-0.463867
108.0	9.858832	0.515774	-0.621917	0.01064	0.001961	4.3e-05	-0.633545	0.106445	-0.466064
109.0	9.827741	0.525019	-0.648996	0.015466	0.000225	-0.001262	-0.633301	0.104248	-0.461426
110.0	9.859574	0.496013	-0.607365	0.012577	0.003194	0.000492	-0.626953	0.108643	-0.468506
111.0	9.852619	0.481943	-0.625783	0.01618	0.004997	-0.000646	-0.628906	0.102051	-0.466064
112.0	9.84321	0.513455	-0.581993	0.015711	0.001583	-0.000598	-0.628906	0.104248	-0.470703
113.0	9.859631	0.495868	-0.606552	0.017869	0.00487	-0.000859	-0.633545	0.106445	-0.463867
114.0	9.827835	0.52473	-0.64781	0.015956	0.002942	6.6e-05	-0.633545	0.108643	-0.470947
115.0	9.858231	0.535033	-0.634683	0.007971	0.006986	0.001086	-0.631348	0.106445	-0.470947
116.0	9.83561	0.518836	-0.613708	0.009167	0.004142	-0.000453	-0.633301	0.104248	-0.463867
117.0	9.834921	0.538424	-0.62763	0.006279	0.007112	0.0013	-0.631348	0.106445	-0.475586
118.0	9.835686	0.51858	-0.612695	0.005812	0.003698	0.001348	-0.628662	0.097656	-0.46582
119.0	9.852136	0.500855	-0.637005	0.000961	0.006131	0.001277	-0.631104	0.104248	-0.466064
120.0	9.804679	0.527578	-0.638863	0.004095	0.00452	0.000188	-0.624512	0.106445	-0.466309
121.0	9.852898	0.481265	-0.621892	0.008155	-0.000598	-0.004478	-0.628906	0.102051	-0.468262
122.0	9.852185	0.501068	-0.63608	0.000961	0.006131	0.001277	-0.633545	0.106445	-0.466064
123.0	9.852938	0.481526	-0.621057	0.00909	0.006229	-0.004574	-0.631104	0.104248	-0.463867
124.0	9.867627	0.490067	-0.568493	0.007943	0.007681	-0.000288	-0.626709	0.106445	-0.463867
125.0	9.813915	0.483306	-0.574558	0.007424	0.005659	-0.002987	-0.626709	0.106445	-0.466309
126.0	9.844301	0.493791	-0.561241	0.004587	0.007238	0.001513	-0.631348	0.106445	-0.466309
127.0	9.860771	0.476173	-0.585253	0.006226	0.008503	-0.001448	-0.631104	0.104248	-0.470703
128.0	9.844377	0.493802	-0.559898	0.007475	0.004268	-0.000238	-0.628906	0.106445	-0.468506
129.0	9.837442	0.479867	-0.578116	0.00767	0.007018	-0.002324	-0.624512	0.104248	-0.470703
130.0	9.867108	0.510197	-0.579083	0.0062	0.009198	-0.002823	-0.628906	0.106445	-0.466309
131.0	9.883588	0.49251	-0.60313	0.006326	0.005721	0.004049	-0.633301	0.102051	-0.466064
132.0	9.83688	0.499214	-0.590235	0.007259	0.012548	0.00395	-0.631348	0.106445	-0.463867
133.0	9.836964	0.498839	-0.589148	0.003387	0.010082	0.00305	-0.633301	0.102051	-0.475342
134.0	9.859723	0.514541	-0.60867	0.003411	0.009387	0.004425	-0.631104	0.104248	-0.463867
135.0	9.860509	0.494427	-0.593317	0.005101	0.009261	0.004212	-0.626709	0.104248	-0.473145
136.0	9.837184	0.497607	-0.586524	0.009926	0.007523	0.002913	-0.628906	0.106445	-0.463867
137.0	9.854388	0.460061	-0.596065	0.00821	0.008344	0.001751	-0.633301	0.102051	-0.466064
138.0	9.844242	0.511052	-0.566454	0.004388	0.004489	0.0036	-0.628906	0.106445	-0.468506
139.0	9.875341	0.501507	-0.538581	0.006766	0.009829	0.002626	-0.631104	0.102051	-0.475342
140.0	9.837427	0.496348	-0.583502	0.005321	0.011315	0.0035	-0.631348	0.108643	-0.470947
141.0	9.836819	0.515483	-0.596926	0.001989	0.010178	0.006673	-0.626709	0.104248	-0.475342
142.0	9.85775	0.556894	-0.539711	-0.001392	0.010431	0.007097	-0.631348	0.108643	-0.463867
143.0	9.843277	0.547688	-0.590555	-0.004503	0.011349	0.009557	-0.631104	0.102051	-0.470703
144.0	9.844103	0.527175	-0.574562	-0.006975	0.019123	0.008507	-0.624512	0.104248	-0.466064
145.0	9.837295	0.512424	-0.591692	-0.006243	0.012865	0.00702	-0.633301	0.102051	-0.4729
146.0	9.838767	0.472253	-0.561593	-0.014869	0.010055	0.011538	-0.628906	0.104248	-0.463867
147.0	9.845146	0.504917	-0.556144	-0.014649	0.012109	0.010826	-0.633545	0.106445	-0.482422
148.0	9.821863	0.507568	-0.548995	-0.021903	0.009899	0.010346	-0.631348	0.108643	-0.470947
149.0	9.839097	0.469406	-0.558198	-0.020214	0.009772	0.010135	-0.631104	0.104248	-0.468506
150.0	9.8468	0.462862	-0.523952	-0.018525	0.009644	0.009925	-0.633545	0.108643	-0.466309
151.0	9.831698	0.473399	-0.589291	-0.016859	0.010213	0.00834	-0.62207	0.102051	-0.470703
152.0	9.855185	0.469029	-0.594407	-0.012231	0.005722	0.009128	-0.628906	0.104248	-0.468506
153.0	9.848317	0.454375	-0.612546	-0.012523	0.005756	0.005717	-0.633301	0.102051	-0.468262
154.0	9.854659	0.487447	-0.607701	-0.005713	0.003855	0.007621	-0.62915	0.11084	-0.46167
155.0	9.824392	0.476295	-0.620007	-0.00885	0.005468	0.008706	-0.635742	0.106445	-0.473145
156.0	9.807999	0.493125	-0.594772	-0.007405	0.003982	0.007832	-0.626953	0.108643	-0.466309
157.0	9.81499	0.506444	-0.575688	-0.011279	0.00152	0.006926	-0.633545	0.106445	-0.468506
158.0	9.838428	0.502129	-0.581591	-0.009787	-0.001358	0.008799	-0.626953	0.108643	-0.463867
159.0	9.8391	0.481865	-0.567203	-0.011793	-0.0005	0.004225	-0.633301	0.102051	-0.463623
160.0	9.862517	0.477962	-0.573091	-0.006497	0.001172	0.002882	-0.631348	0.11084	-0.46167
161.0	9.840422	0.44179	-0.538341	-0.011994	-0.003251	0.006308	-0.626953	0.108643	-0.473145
162.0	9.880296	0.420029	-0.569113	-0.006206	0.001137	0.006294	-0.626953	0.113037	-0.464111
163.0	9.856947	0.423018	-0.562774	-0.005492	0.005908	0.006913	-0.631104	0.099854	-0.4729
164.0	9.848778	0.447855	-0.609935	-0.002601	0.002936	0.005162	-0.631104	0.104248	-0.468506
165.0	9.819097	0.417548	-0.60817	-0.001691	0.000128	0.000211	-0.62915	0.108643	-0.463867
166.0	9.83361	0.425801	-0.556363	0.001223	-0.00354	-0.000166	-0.633545	0.108643	-0.463867
167.0	9.809552	0.449247	-0.5651	0.001178	-0.002147	-0.002913	-0.633545	0.108643	-0.463867
168.0	9.856956	0.422645	-0.562887	-0.00076	-0.003377	-0.003367	-0.633545	0.108643	-0.468506
169.0	9.849977	0.408895	-0.582109	-0.004343	-0.005873	-0.000861	-0.626709	0.106445	-0.468506
170.0	9.858794	0.397272	-0.64069	0.003846	-0.007173	-0.003955	-0.626953	0.108643	-0.468506
171.0	9.858121	0.383986	-0.535653	0.002891	-0.002971	-0.001751	-0.631348	0.108643	-0.477783
172.0	9.849857	0.409532	-0.583699	0.007742	-0.005409	-0.001675	-0.626709	0.106445	-0.466309
173.0	9.873864	0.386203	-0.575846	0.013107	-0.005827	0.001103	-0.624268	0.102051	-0.466064
174.0	9.880792	0.400129	-0.557455	0.011839	-0.000893	-0.001479	-0.628906	0.106445	-0.466309
175.0	9.866248	0.391813	-0.609485	0.017426	0.000744	0.000589	-0.626953	0.113037	-0.46875
176.0	9.856749	0.423263	-0.566042	0.01718	-0.000615	-7.4e-05	-0.626709	0.106445	-0.463867
177.0	9.82511	0.452093	-0.607879	0.018893	-0.001439	0.001089	-0.631104	0.104248	-0.466064
178.0	9.886443	0.452994	-0.567996	0.020806	0.000488	0.000167	-0.626709	0.104248	-0.468506
179.0	9.838993	0.479804	-0.570799	0.023472	-0.004539	-0.000871	-0.626709	0.104248	-0.466064
180.0	9.878817	0.45839	-0.601953	0.023985	-0.002518	0.00183	-0.631348	0.11084	-0.46875
181.0	9.886403	0.452483	-0.569097	0.027341	-0.002079	3.4e-05	-0.628906	0.106445	-0.468506
182.0	9.855417	0.461551	-0.596406	0.024673	0.002948	0.001071	-0.631348	0.106445	-0.466309
183.0	9.845936	0.492932	-0.552907	0.02952	0.00051	0.001151	-0.626709	0.106445	-0.463867
184.0	9.878203	0.477009	-0.616681	0.024915	0.004306	0.001735	-0.631348	0.106445	-0.463867
185.0	9.838397	0.498009	-0.585645	0.01982	0.005385	0.000993	-0.631348	0.106445	-0.468506
186.0	9.854882	0.480202	-0.609861	0.028492	0.006798	-0.000773	-0.622314	0.106445	-0.463867
187.0	9.854271	0.499723	-0.623924	0.019572	0.004026	0.000331	-0.631104	0.104248	-0.473145
188.0	9.838493	0.497625	-0.584354	0.019794	0.006079	-0.000381	-0.633545	0.104248	-0.466064
189.0	9.83159	0.483462	-0.602494	0.016659	0.007695	0.000702	-0.626465	0.099854	-0.458984
190.0	9.830999	0.502935	-0.61632	0.018348	0.007566	0.000492	-0.626953	0.108643	-0.463867
191.0	9.831676	0.483143	-0.60135	0.019568	0.004025	0.000333	-0.628906	0.106445	-0.468506
192.0	9.86204	0.493537	-0.588188	0.016143	0.00567	-0.001996	-0.628906	0.106445	-0.463867
193.0	9.879172	0.456192	-0.597782	0.018345	0.007566	0.000492	-0.633301	0.099854	-0.468262
194.0	9.832426	0.463456	-0.585031	0.013453	0.011391	-0.002342	-0.62915	0.108643	-0.473145
195.0	9.832484	0.46341	-0.584086	0.015209	0.009182	0.001574	-0.624512	0.104248	-0.466064
196.0	9.842077	0.431468	-0.626575	0.013496	0.010004	0.000409	-0.626709	0.106445	-0.468506
197.0	9.855373	0.4791	-0.602748	0.015185	0.009875	0.0002	-0.624268	0.102051	-0.466064
198.0	9.840943	0.470408	-0.653831	0.016896	0.009054	0.001366	-0.628906	0.106445	-0.461426
199.0	9.849188	0.445103	-0.605301	0.016628	0.008387	-0.000671	-0.628906	0.104248	-0.466064
200.0	9.878936	0.474942	-0.606452	0.01476	0.005077	0.003005	-0.624756	0.11084	-0.464111
201.0	9.872085	0.460487	-0.624234	0.01785	0.015185	0.002634	-0.626953	0.108643	-0.466309
202.0	9.839199	0.495763	-0.573966	0.016381	0.007026	-0.00133	-0.624756	0.113037	-0.464111
203.0	9.86265	0.492011	-0.579155	0.013513	0.00931	0.001785	-0.626953	0.108643	-0.470947
204.0	9.846243	0.509523	-0.553419	0.014202	0.014775	0.001016	-0.631348	0.108643	-0.470947
205.0	9.815998	0.498895	-0.564981	0.012045	0.011491	0.00128	-0.628906	0.104248	-0.475342
206.0	9.863502	0.471779	-0.561133	0.013977	0.012722	0.001731	-0.628906	0.104248	-0.466064
207.0	9.856668	0.457494	-0.578588	0.010577	0.013672	0.000773	-0.62207	0.102051	-0.4729
208.0	9.856759	0.457244	-0.577236	0.007464	0.014597	0.003227	-0.628906	0.106445	-0.470947
209.0	9.832848	0.480148	-0.584346	0.012997	0.017623	0.002546	-0.626465	0.102051	-0.466064
210.0	9.840457	0.474498	-0.549602	0.013931	0.014105	-0.001018	-0.626465	0.102051	-0.458984
211.0	9.855831	0.495745	-0.602065	0.012306	0.012159	0.003318	-0.626709	0.104248	-0.473145
212.0	9.840017	0.493493	-0.561758	0.007239	0.012545	0.003942	-0.628906	0.102051	-0.470703
213.0	9.825701	0.484482	-0.612574	0.006994	0.011185	0.003282	-0.631348	0.106445	-0.468506
214.0	9.849194	0.480421	-0.61748	0.005083	0.009262	0.004206	-0.626709	0.104248	-0.466064
215.0	9.857361	0.454891	-0.568752	0.012081	0.010106	0.004036	-0.624268	0.102051	-0.475342
216.0	9.863737	0.488374	-0.563511	0.00693	0.01326	-0.000846	-0.62915	0.113037	-0.466553
217.0	9.880911	0.450994	-0.572436	0.01686	0.009741	2e-06	-0.626709	0.104248	-0.473145
218.0	9.88728	0.484641	-0.567182	0.01055	0.014361	-0.000601	-0.626709	0.104248	-0.466064
219.0	9.870827	0.502448	-0.541323	0.010306	0.013001	-0.001261	-0.62915	0.108643	-0.466309
220.0	9.832544	0.51703	-0.600601	0.007414	0.01598	0.000473	-0.626709	0.104248	-0.461426
221.0	9.822997	0.548801	-0.555761	0.007656	0.01734	0.001133	-0.631104	0.104248	-0.468506
222.0	9.847104	0.525368	-0.545301	0.00621	0.018829	0.002	-0.626709	0.104248	-0.466064
223.0	9.809461	0.520123	-0.589726	0.000678	0.015805	0.002676	-0.628906	0.104248	-0.473145
224.0	9.8473	0.524862	-0.54225	0.003589	0.012135	0.00232	-0.62207	0.102051	-0.475342
225.0	9.841087	0.490862	-0.545083	-0.002923	0.014013	0.003805	-0.626709	0.104248	-0.468506
226.0	9.825191	0.488663	-0.504822	0.003386	0.009392	0.004414	-0.628906	0.106445	-0.463867
227.0	9.878976	0.494965	-0.496828	0.003629	0.010753	0.005074	-0.631348	0.11084	-0.475586
228.0	9.825346	0.487589	-0.502835	0.00196	0.010191	0.006656	-0.631348	0.106445	-0.466309
229.0	9.84141	0.488903	-0.540992	-0.001943	0.009111	0.002995	-0.624512	0.108643	-0.466309
230.0	9.83179	0.520486	-0.496784	-0.003389	0.010601	0.003861	-0.624512	0.104248	-0.468506
231.0	9.79358	0.534691	-0.556734	-0.011074	0.004296	0.004797	-0.624512	0.108643	-0.470947
232.0	9.84105	0.507358	-0.552992	-0.011833	0.011249	0.004891	-0.631104	0.104248	-0.461426
233.0	9.855384	0.515856	-0.500223	-0.011618	0.00365	-0.000653	-0.624512	0.106445	-0.477783
234.0	9.825141	0.505248	-0.512444	-0.017366	0.008226	0.005564	-0.628906	0.106445	-0.466309
235.0	9.85832	0.469446	-0.560687	-0.016202	0.006759	0.001285	-0.624512	0.106445	-0.480225
236.0	9.852064	0.435596	-0.564015	-0.01232	0.008528	0.003572	-0.628906	0.102051	-0.466064
237.0	9.836104	0.433538	-0.524114	-0.009185	0.006909	0.0025	-0.624512	0.108643	-0.475586
238.0	9.835599	0.452908	-0.538074	-0.00603	0.004598	0.002804	-0.624512	0.106445	-0.473145
239.0	9.882494	0.445086	-0.549268	-0.00573	0.003882	0.007593	-0.624512	0.108643	-0.473145
240.0	9.835712	0.45176	-0.536976	-0.001664	0.009086	0.006413	-0.624512	0.108643	-0.463867
241.0	9.83631	0.431616	-0.521828	-0.000924	0.002825	0.00494	-0.626953	0.108643	-0.468506
242.0	9.866114	0.460867	-0.522982	-0.003296	0.00714	0.010747	-0.624512	0.106445	-0.468506
243.0	9.865643	0.479737	-0.536946	0.000988	0.004747	0.00402	-0.629395	0.113037	-0.473389
244.0	9.872023	0.512887	-0.532221	0.001491	0.006775	0.006718	-0.62915	0.108643	-0.475586
245.0	9.842347	0.482245	-0.529811	0.001714	0.008826	0.006003	-0.624512	0.104248	-0.473145
246.0	9.849808	0.476152	-0.495685	0.003403	0.008696	0.005798	-0.628906	0.104248	-0.468506
247.0	9.826457	0.479221	-0.488983	0.005334	0.009926	0.006254	-0.628906	0.106445	-0.473145
248.0	9.819667	0.464573	-0.50693	0.001229	0.006107	0.004681	-0.62207	0.104248	-0.473145
249.0	9.842616	0.480057	-0.526785	0.004365	0.004487	0.00361	-0.626709	0.106445	-0.468506
250.0	9.866615	0.456459	-0.517384	0.001434	0.00885	0.00259	-0.620117	0.11084	-0.46167
251.0	9.846109	0.413819	-0.57283	0.004607	0.005846	0.004271	-0.626709	0.106445	-0.473145
252.0	9.859858	0.44167	-0.534878	0.006035	0.005048	0.00203	-0.626953	0.11084	-0.473389
253.0	9.853031	0.427418	-0.553278	0.00893	0.002068	0.000298	-0.628906	0.102051	-0.475342
254.0	9.85357	0.407692	-0.538425	0.011102	0.004657	0.001416	-0.62915	0.113037	-0.466553
255.0	9.843874	0.439398	-0.494806	0.01448	0.004396	0.001007	-0.626709	0.106445	-0.468506
256.0	9.837042	0.425172	-0.513254	0.008929	0.002068	0.000299	-0.626465	0.102051	-0.468262
257.0	9.8434	0.458708	-0.508789	0.01641	0.005626	0.001463	-0.628906	0.104248	-0.473145
258.0	9.860016	0.440666	-0.53279	0.013031	0.005887	0.001872	-0.622314	0.108643	-0.466309
259.0	9.883484	0.436716	-0.538055	0.013031	0.005886	0.001872	-0.628906	0.106445	-0.470947
260.0	9.836668	0.443787	-0.525992	0.013048	0.005195	0.003249	-0.626953	0.113037	-0.466553
261.0	9.850404	0.471738	-0.488002	0.014942	0.007807	0.000952	-0.626953	0.108643	-0.473145
262.0	9.843097	0.476883	-0.520652	0.013289	0.006555	0.003909	-0.628906	0.104248	-0.468506
263.0	9.860235	0.439139	-0.529997	0.013029	0.005886	0.001873	-0.628906	0.106445	-0.475586
264.0	9.820263	0.460556	-0.498992	0.015146	0.010547	-0.001141	-0.622314	0.106445	-0.470947
265.0	9.837393	0.423038	-0.508262	0.017869	0.003443	0.001978	-0.626709	0.106445	-0.477783
266.0	9.836914	0.442326	-0.522617	0.021245	0.003182	0.001571	-0.626953	0.108643	-0.475586
267.0	9.837424	0.422492	-0.508119	0.018626	-0.003509	0.00189	-0.622314	0.106445	-0.473145
268.0	9.867189	0.452158	-0.510153	0.017178	-0.002018	0.002753	-0.626709	0.106445	-0.477783
269.0	9.867196	0.451765	-0.510363	0.017419	-0.000658	0.003413	-0.626709	0.104248	-0.477783
270.0	9.85986	0.456817	-0.543772	0.0174	3.2e-05	0.002036	-0.626953	0.108643	-0.468506
271.0	9.842786	0.493964	-0.533908	0.017623	0.002082	0.001319	-0.628906	0.102051	-0.468262
272.0	9.880429	0.498669	-0.487533	0.016193	0.002884	0.003559	-0.619873	0.104248	-0.470703
273.0	9.850173	0.487903	-0.50044	0.015468	-0.001198	0.001582	-0.624268	0.102051	-0.4729
274.0	9.874134	0.464324	-0.491268	0.01013	0.008869	0.003595	-0.624756	0.11084	-0.475586
275.0	9.843907	0.453464	-0.50365	0.014504	0.003014	0.003763	-0.628906	0.106445	-0.470947
276.0	9.867374	0.449329	-0.509072	0.013039	0.005196	0.003248	-0.626709	0.104248	-0.477783
277.0	9.867426	0.448814	-0.508529	0.015227	0.007096	0.00574	-0.624512	0.104248	-0.477783
278.0	9.86798	0.428641	-0.493272	0.016913	0.006965	0.005537	-0.624512	0.108643	-0.468506
279.0	9.867052	0.467103	-0.521992	0.014984	0.005735	0.005082	-0.633301	0.099854	-0.4729
280.0	9.851007	0.46476	-0.482507	0.016705	0.004226	0.007634	-0.626709	0.104248	-0.470703
281.0	9.850558	0.483854	-0.496766	0.014448	0.00508	-0.000368	-0.626709	0.106445	-0.470947
282.0	9.860841	0.431895	-0.524642	0.01016	0.007491	0.006349	-0.624512	0.104248	-0.468506
283.0	9.860912	0.431189	-0.523891	0.012089	0.00872	0.006805	-0.631104	0.099854	-0.4729
284.0	9.820959	0.452245	-0.492867	0.013741	0.009965	0.003847	-0.628906	0.106445	-0.463867
285.0	9.814667	0.418044	-0.496011	0.017132	0.009013	0.004819	-0.62915	0.108643	-0.468506
286.0	9.890911	0.459493	-0.523103	0.020506	0.008749	0.004415	-0.62915	0.108643	-0.466309
287.0	9.8275	0.48445	-0.486634	0.016407	0.00493	0.002846	-0.624512	0.104248	-0.475342
288.0	9.844143	0.466109	-0.510521	0.021949	0.007256	0.003555	-0.628906	0.106445	-0.468506
289.0	9.819796	0.508616	-0.533758	0.022655	0.002367	-0.000656	-0.624512	0.106445	-0.470947
290.0	9.826665	0.522426	-0.51484	0.014991	0.005048	0.006462	-0.628906	0.106445	-0.475586
291.0	9.789149	0.516599	-0.560719	0.013063	0.003818	0.006007	-0.628906	0.106445	-0.477783
292.0	9.803323	0.524821	-0.508749	0.008758	-0.002738	0.006538	-0.624268	0.102051	-0.475342
293.0	9.834072	0.515074	-0.481625	0.006605	-0.006016	0.006804	-0.624512	0.108643	-0.475586
294.0	9.850649	0.496615	-0.50686	0.005624	-0.010774	0.002797	-0.624512	0.104248	-0.466064
295.0	9.914534	0.451438	-0.528973	0.004145	-0.007905	0.000899	-0.626709	0.104248	-0.477783
296.0	9.891548	0.435679	-0.509025	0.011807	-0.000927	-0.001416	-0.62915	0.11084	-0.466309
297.0	9.861254	0.425439	-0.52216	0.009621	-0.00283	-0.003906	-0.626465	0.102051	-0.475342
298.0	9.837337	0.448853	-0.531255	0.008674	0.000699	-0.000354	-0.631348	0.108643	-0.477783
299.0	9.843699	0.482435	-0.527569	0.006314	-0.005314	0.002012	-0.626465	0.102051	-0.466064
300.0	9.813424	0.471642	-0.5408	0.003664	-0.000965	0.004388	-0.626953	0.108643	-0.468506
301.0	9.813421	0.471193	-0.541255	0.004419	-0.007918	0.004315	-0.624756	0.11084	-0.473389
302.0	9.797757	0.449738	-0.488304	0.006105	-0.008051	0.004113	-0.626953	0.11084	-0.464111
303.0	9.790878	0.435215	-0.507831	0.002232	-0.009821	0.001825	-0.624268	0.102051	-0.475342
304.0	9.854264	0.409565	-0.544744	0.003677	-0.011316	0.000966	-0.633545	0.108643	-0.470947
305.0	9.861055	0.423696	-0.527311	0.003435	-0.012677	0.00031	-0.628906	0.104248	-0.473145
306.0	9.854614	0.389859	-0.532506	0.008752	-0.012401	0.001737	-0.624756	0.11084	-0.466309
307.0	9.861419	0.403994	-0.5149	0.009185	-0.007617	-0.001086	-0.626953	0.11084	-0.473389
308.0	9.860427	0.442848	-0.545063	0.016447	-0.006798	0.002174	-0.624756	0.11084	-0.46875
309.0	9.89069	0.453085	-0.532769	0.021954	-0.003099	0.000121	-0.624512	0.106445	-0.473145
310.0	9.850673	0.47473	-0.503251	0.016186	-0.007473	0.00014	-0.626953	0.108643	-0.470947
311.0	9.850177	0.493857	-0.518598	0.020559	-0.003664	0.005117	-0.624512	0.106445	-0.475586
312.0	9.843305	0.479341	-0.537648	0.016634	-0.003377	-0.001305	-0.628906	0.106445	-0.470947
313.0	9.843292	0.479076	-0.538129	0.016943	-0.00476	0.004867	-0.626953	0.108643	-0.463867
314.0	9.857962	0.468347	-0.472132	0.017852	-0.006921	-0.00144	-0.624512	0.106445	-0.468506
315.0	9.844217	0.439918	-0.509584	0.01588	0.003576	-0.001238	-0.626953	0.108643	-0.473145
316.0	9.836392	0.464582	-0.55757	0.017115	-0.000654	7e-06	-0.626953	0.108643	-0.463867
317.0	9.85343	0.426995	-0.567326	0.015429	-0.000521	0.00021	-0.631348	0.106445	-0.473145
318.0	9.85342	0.426998	-0.567497	0.018541	-0.001464	-0.00223	-0.62915	0.108643	-0.468506
319.0	9.860274	0.441447	-0.548946	0.02236	0.002366	-0.004084	-0.628906	0.106445	-0.45459
320.0	9.836344	0.464944	-0.558114	0.018055	-0.004189	-0.003539	-0.624512	0.104248	-0.470703
321.0	9.866123	0.494863	-0.560499	0.020274	-0.003653	0.001707	-0.631104	0.102051	-0.4729
322.0	9.836297	0.464877	-0.558997	0.018295	-0.002827	-0.002884	-0.628906	0.102051	-0.468262
323.0	9.859696	0.461133	-0.56516	0.014958	-0.003931	0.000281	-0.628906	0.102051	-0.477539
324.0	9.866049	0.494837	-0.561825	0.014699	-0.004609	-0.001753	-0.628906	0.106445	-0.466309
325.0	9.859153	0.480678	-0.580808	0.011553	-0.002295	-0.002073	-0.628906	0.106445	-0.473145
326.0	9.859628	0.461309	-0.566196	0.012036	0.000431	-0.000764	-0.626709	0.104248	-0.468506
327.0	9.837174	0.426258	-0.531008	0.013479	-0.001065	-0.001621	-0.624268	0.102051	-0.468262
328.0	9.860595	0.422618	-0.536692	0.008873	0.003429	-0.002464	-0.624512	0.106445	-0.463867
329.0	9.860116	0.442061	-0.55129	0.013979	0.000976	0.001068	-0.624512	0.106445	-0.480225
330.0	9.860601	0.422647	-0.536551	0.013461	-0.000381	-0.003	-0.626953	0.108643	-0.470947
331.0	9.843531	0.460194	-0.527424	0.011119	-0.007074	0.000761	-0.626465	0.102051	-0.4729
332.0	9.872816	0.509435	-0.544752	0.013269	-0.003797	0.000486	-0.626709	0.106445	-0.475586
333.0	9.859078	0.480751	-0.582021	0.008906	0.00206	0.000295	-0.631104	0.104248	-0.473145
334.0	9.859567	0.461264	-0.567295	0.004829	-0.002447	0.000119	-0.631348	0.106445	-0.468506
335.0	9.85907	0.480618	-0.582271	0.005071	-0.001084	0.000772	-0.628906	0.106445	-0.473145
336.0	9.859079	0.480378	-0.582303	0.005572	0.000958	0.00346	-0.631348	0.106445	-0.463867
337.0	9.849902	0.492981	-0.524627	0.001961	-0.000138	0.003211	-0.631348	0.108643	-0.480225
338.0	9.873344	0.488896	-0.530291	0.000501	0.002042	0.002687	-0.62915	0.11084	-0.464111
339.0	9.897266	0.465549	-0.521161	0.0	0.0	0.0	-0.631104	0.102051	-0.470703
340.0	9.866493	0.474365	-0.548719	0.000259	0.000679	0.002034	-0.622314	0.108643	-0.466309
341.0	9.866518	0.474155	-0.548465	-0.002643	0.004356	0.002366	-0.628906	0.106445	-0.470947
342.0	9.837234	0.424626	-0.531194	0.00095	0.006136	0.001234	-0.62915	0.11084	-0.466309
343.0	9.843649	0.458263	-0.526901	0.004077	0.004506	0.000176	-0.631104	0.104248	-0.473145
344.0	9.844161	0.43883	-0.511583	0.002618	0.006687	-0.000348	-0.622314	0.106445	-0.466309
345.0	9.844174	0.439044	-0.511159	-5.1e-05	0.002052	-0.004141	-0.624268	0.102051	-0.477539
346.0	9.860249	0.440685	-0.550002	-0.001477	0.002864	-0.001904	-0.622314	0.106445	-0.468506
347.0	9.876325	0.442211	-0.588953	0.006721	0.00015	-0.002189	-0.624512	0.106445	-0.466309
348.0	9.852903	0.446168	-0.583036	0.003818	0.003827	-0.001858	-0.628906	0.106445	-0.468506
349.0	9.852426	0.465731	-0.597593	0.008647	0.00138	-0.001738	-0.628906	0.106445	-0.468506
350.0	9.859789	0.46069	-0.563897	0.005986	0.00642	-0.000753	-0.626709	0.104248	-0.468506
351.0	9.812498	0.487548	-0.566579	0.002892	0.006682	0.003065	-0.628906	0.104248	-0.470703
352.0	9.813014	0.46792	-0.551369	0.005536	0.002326	0.000701	-0.628906	0.104248	-0.475342
353.0	9.820859	0.443118	-0.503031	0.005811	0.002322	0.004115	-0.622314	0.106445	-0.473145
354.0	9.79696	0.465995	-0.512257	0.006305	-0.005311	0.002026	-0.624268	0.102051	-0.466064
355.0	9.844272	0.438825	-0.50945	0.004604	-0.004494	0.000848	-0.626709	0.106445	-0.473145
356.0	9.851112	0.452995	-0.491468	0.006063	-0.006675	0.001373	-0.631104	0.104248	-0.468506
357.0	9.82718	0.475971	-0.501239	0.00608	-0.007358	0.002753	-0.628906	0.102051	-0.468262
358.0	9.826671	0.495106	-0.51683	0.002469	-0.008454	0.002505	-0.62915	0.108643	-0.473145
359.0	9.842236	0.515525	-0.57146	-0.002342	-0.00669	0.003764	-0.633545	0.104248	-0.468506
360.0	9.803195	0.498322	-0.512651	-0.006436	-0.010513	0.00221	-0.624512	0.106445	-0.466309
361.0	9.84361	0.456752	-0.528932	-0.008103	-0.011063	0.003793	-0.626709	0.104248	-0.473145
362.0	9.836184	0.461804	-0.563526	-0.009106	-0.015149	-0.001581	-0.626953	0.108643	-0.473145
363.0	9.853129	0.424394	-0.574463	-0.008848	-0.014469	0.000453	-0.626709	0.104248	-0.468506
364.0	9.867294	0.433555	-0.524079	-0.005705	-0.016784	0.000775	-0.624512	0.108643	-0.466309
365.0	9.820367	0.441142	-0.514267	-0.00258	-0.018414	-0.000284	-0.628906	0.102051	-0.470703
366.0	9.866614	0.452978	-0.542312	-0.004022	-0.016917	0.000572	-0.62915	0.108643	-0.470947
367.0	9.850005	0.470946	-0.519626	-0.000394	-0.016505	0.0022	-0.626709	0.106445	-0.468506
368.0	9.880244	0.481367	-0.508233	-0.001646	-0.011594	-0.000431	-0.62915	0.108643	-0.466309
369.0	9.849881	0.470746	-0.522141	-0.001369	-0.011599	0.002982	-0.62915	0.11084	-0.478027
370.0	9.874257	0.428038	-0.499243	0.002415	-0.006404	-0.00164	-0.631348	0.11084	-0.464111
371.0	9.843403	0.436975	-0.527512	0.004134	-0.007905	0.000918	-0.624512	0.104248	-0.470703
372.0	9.88278	0.434433	-0.573288	0.005575	-0.009402	6.1e-05	-0.631348	0.106445	-0.468506
373.0	9.866225	0.452498	-0.549753	0.007727	-0.006126	-0.000217	-0.628906	0.106445	-0.470947
374.0	9.842773	0.456244	-0.544715	0.009186	-0.008306	0.000307	-0.628906	0.106445	-0.473145
375.0	9.835823	0.441865	-0.564125	0.010869	-0.00844	0.000103	-0.62915	0.108643	-0.468506
376.0	9.819262	0.459895	-0.54084	0.0104	-0.011851	0.000178	-0.631348	0.106445	-0.466309
377.0	9.835168	0.461072	-0.581575	0.014532	-0.019756	0.001097	-0.628906	0.106445	-0.463867
378.0	9.842497	0.455827	-0.550013	0.008246	-0.015127	0.000458	-0.62915	0.108643	-0.470947
379.0	9.834963	0.461018	-0.585066	0.012548	-0.018936	-0.003493	-0.631348	0.108643	-0.475586
380.0	9.841759	0.475398	-0.568559	0.012601	-0.020986	0.00065	-0.62915	0.108643	-0.466309
381.0	9.865046	0.471598	-0.576428	0.012563	-0.01962	-0.002111	-0.628906	0.102051	-0.470703
382.0	9.841527	0.475542	-0.572452	0.014715	-0.016343	-0.002392	-0.626953	0.108643	-0.463867
383.0	9.81748	0.498879	-0.583256	0.009194	-0.019353	-0.001701	-0.628906	0.102051	-0.4729
384.0	9.824838	0.493895	-0.551665	0.013273	-0.014846	-0.001535	-0.624512	0.106445	-0.461426
385.0	9.800789	0.517356	-0.562376	0.007227	-0.019217	-0.004908	-0.633545	0.106445	-0.470947
386.0	9.810188	0.485059	-0.607259	0.003935	-0.021681	0.001026	-0.62915	0.108643	-0.463867
387.0	9.809503	0.504602	-0.624251	0.003388	-0.022361	-0.004419	-0.62915	0.108643	-0.468506
388.0	9.80294	0.471174	-0.630266	-0.000186	-0.024823	-0.001898	-0.626709	0.106445	-0.456787
389.0	9.819226	0.453209	-0.657003	0.003423	-0.023727	-0.001657	-0.626465	0.102051	-0.470703
390.0	9.826556	0.448244	-0.626298	0.002726	-0.029184	-0.000849	-0.631348	0.106445	-0.459229
391.0	9.872591	0.460273	-0.655699	0.000757	-0.029049	-0.004055	-0.633301	0.102051	-0.470703
392.0	9.856527	0.459229	-0.619389	0.011383	-0.02849	-0.001229	-0.626709	0.106445	-0.461426
393.0	9.903716	0.432354	-0.618795	0.010619	-0.020852	-0.00256	-0.626465	0.102051	-0.468262
394.0	9.850392	0.406431	-0.612867	0.017349	-0.021387	-0.003387	-0.631104	0.102051	-0.466064
395.0	9.856652	0.440171	-0.611457	0.024384	-0.022606	0.000581	-0.631104	0.099854	-0.461182
396.0	9.879894	0.436342	-0.619696	0.02746	-0.022874	-0.003246	-0.628906	0.104248	-0.466064
397.0	9.839951	0.458443	-0.591815	0.025774	-0.02274	-0.003038	-0.628662	0.099854	-0.466064
398.0	9.815242	0.501147	-0.617957	0.025771	-0.022741	-0.003037	-0.631348	0.106445	-0.463867
399.0	9.815083	0.501359	-0.620295	0.027429	-0.022193	-0.004625	-0.626709	0.104248	-0.461426
400.0	9.807305	0.506664	-0.656296	0.022873	-0.030113	-0.004694	-0.626709	0.106445	-0.470947
401.0	9.860257	0.532973	-0.667492	0.025065	-0.028199	-0.00222	-0.631104	0.104248	-0.466064
402.0	9.861271	0.494592	-0.640423	0.020157	-0.023026	-0.007855	-0.62915	0.11084	-0.464111
403.0	9.837097	0.51827	-0.651815	0.021879	-0.024523	-0.005299	-0.628906	0.102051	-0.463623
404.0	9.843927	0.533	-0.635836	0.022123	-0.023159	-0.004649	-0.626709	0.104248	-0.470703
405.0	9.884731	0.472739	-0.638693	0.018714	-0.021529	-0.006996	-0.631348	0.106445	-0.463867
406.0	9.837807	0.48081	-0.629171	0.016828	-0.024123	-0.004671	-0.633545	0.106445	-0.461426
407.0	9.87506	0.506162	-0.600564	0.02066	-0.02098	-0.005173	-0.633301	0.099854	-0.463623
408.0	9.906979	0.489376	-0.666288	0.017565	-0.020028	-0.002724	-0.631348	0.106445	-0.461426
409.0	9.860104	0.497176	-0.656203	0.018261	-0.014571	-0.003545	-0.631104	0.102051	-0.468262
410.0	9.866395	0.531026	-0.654114	0.010125	-0.013217	-0.000469	-0.628906	0.104248	-0.463867
411.0	9.852239	0.50226	-0.692263	0.010102	-0.012536	-0.001851	-0.631104	0.104248	-0.461426
412.0	9.842861	0.534899	-0.650578	0.010843	-0.00844	9.2e-05	-0.628906	0.106445	-0.461426
413.0	9.883145	0.493437	-0.667012	0.003648	-0.011316	0.001017	-0.633057	0.097656	-0.46582
414.0	9.86165	0.439125	-0.617372	0.007481	-0.008172	0.000511	-0.631104	0.104248	-0.463867
415.0	9.853292	0.463226	-0.666113	0.010129	-0.002164	0.001508	-0.631348	0.106445	-0.468506
416.0	9.892982	0.441169	-0.696562	0.017031	0.000706	-0.00283	-0.62915	0.108643	-0.466309
417.0	9.851992	0.501856	-0.696056	0.017323	0.000712	0.000583	-0.631104	0.104248	-0.466064
418.0	9.836313	0.500543	-0.656907	0.015417	-0.0012	0.001528	-0.633301	0.104248	-0.461426
419.0	9.811661	0.542716	-0.680883	0.013983	0.0003	0.002384	-0.628906	0.104248	-0.459229
420.0	9.78127	0.531764	-0.693349	0.010622	0.000568	0.002803	-0.635742	0.108643	-0.46167
421.0	9.804657	0.527354	-0.69948	0.007105	-0.003247	0.008107	-0.631348	0.108643	-0.463867
422.0	9.835717	0.517929	-0.672575	0.004906	-0.005166	0.00564	-0.628906	0.106445	-0.456787
423.0	9.835719	0.517304	-0.673031	0.003473	-0.003666	0.006496	-0.631348	0.106445	-0.461426
424.0	9.859728	0.493544	-0.66454	0.006586	-0.0053	0.00543	-0.628906	0.104248	-0.459229
425.0	9.852668	0.478431	-0.683618	0.006383	-0.008025	0.00755	-0.628662	0.099854	-0.468262
426.0	9.852641	0.477622	-0.684571	0.011198	-0.010474	0.007658	-0.628906	0.102051	-0.458984
427.0	9.836318	0.495114	-0.660924	0.008761	-0.002703	0.006514	-0.631104	0.104248	-0.463867
428.0	9.836328	0.494443	-0.661289	0.006833	-0.003934	0.006077	-0.626465	0.102051	-0.456787
429.0	9.843377	0.508232	-0.643494	0.006359	-0.007346	0.006167	-0.631348	0.108643	-0.466309
430.0	9.829258	0.478766	-0.680768	9e-05	-0.002716	0.005532	-0.631104	0.099854	-0.46582
431.0	9.851984	0.493726	-0.701964	-0.003518	-0.003813	0.005305	-0.628906	0.102051	-0.461426
432.0	9.790236	0.480602	-0.636176	-0.003541	-0.003134	0.003922	-0.62915	0.11084	-0.464111
433.0	9.819998	0.51021	-0.639256	-0.006192	-0.009142	0.00293	-0.626709	0.104248	-0.461426
434.0	9.821489	0.48192	-0.716198	-0.004196	-0.009949	0.007516	-0.633545	0.106445	-0.461426
435.0	9.829169	0.476351	-0.683735	-0.007331	-0.007634	0.007199	-0.631104	0.102051	-0.468262
436.0	9.876513	0.44874	-0.681391	-0.005425	-0.005724	0.006253	-0.624512	0.108643	-0.463867
437.0	9.822718	0.441384	-0.688311	-0.003496	-0.004493	0.006689	-0.631348	0.108643	-0.46167
438.0	9.869438	0.433041	-0.70063	-0.001568	-0.003262	0.007125	-0.631348	0.106445	-0.463867
439.0	9.845456	0.45555	-0.709793	0.000338	-0.001352	0.006179	-0.631348	0.108643	-0.459229
440.0	9.852554	0.469472	-0.691422	0.002222	0.001238	0.003849	-0.628906	0.104248	-0.459229
441.0	9.851932	0.488397	-0.706402	0.003427	-0.002309	0.003729	-0.633545	0.104248	-0.466064
442.0	9.853223	0.449208	-0.67666	0.005876	0.000974	0.006841	-0.631348	0.108643	-0.459229
443.0	9.859702	0.482441	-0.673026	0.005809	0.003012	0.002692	-0.628906	0.106445	-0.463867
444.0	9.860367	0.462825	-0.65785	0.007489	0.002877	0.002482	-0.631348	0.106445	-0.459229
445.0	9.836411	0.48556	-0.666614	0.007533	0.001519	0.005248	-0.631104	0.104248	-0.463867
446.0	9.852726	0.466709	-0.690841	0.005853	0.001654	0.005458	-0.631348	0.108643	-0.466309
447.0	9.853401	0.446893	-0.675594	0.007986	0.005609	0.003775	-0.62915	0.108643	-0.46167
448.0	9.861165	0.441626	-0.641687	0.009892	0.007518	0.002828	-0.628906	0.104248	-0.461426
449.0	9.85291	0.465216	-0.689215	0.015495	0.007806	0.007641	-0.626709	0.104248	-0.463867
450.0	9.806891	0.453229	-0.661572	0.011506	0.009419	-0.001532	-0.633545	0.108643	-0.457031
451.0	9.853672	0.445286	-0.672701	0.013521	0.007934	0.004438	-0.631104	0.104248	-0.461426
452.0	9.836211	0.501659	-0.677672	0.011365	0.004658	0.004739	-0.628906	0.106445	-0.466309
453.0	9.812291	0.524335	-0.686182	0.006304	0.005744	0.003985	-0.628906	0.104248	-0.470703
454.0	9.812964	0.504559	-0.670803	0.004397	0.003835	0.004932	-0.635742	0.104248	-0.459229
455.0	9.84345	0.514544	-0.658046	0.00106	0.003429	0.006734	-0.635742	0.106445	-0.461426
456.0	9.836437	0.499664	-0.675863	-0.002137	0.007781	0.002265	-0.62915	0.108643	-0.459229
457.0	9.836499	0.499343	-0.675198	-0.005702	0.005329	0.004804	-0.631104	0.104248	-0.459229
458.0	9.846991	0.42783	-0.687339	-0.005789	0.008044	-0.000729	-0.631348	0.106445	-0.456787
459.0	9.845817	0.466523	-0.716512	-0.002657	0.005727	-0.00041	-0.633545	0.106445	-0.463867
460.0	9.800956	0.416299	-0.659369	-0.002862	0.003004	0.00171	-0.628906	0.104248	-0.456787
461.0	9.854158	0.442196	-0.667595	-0.001431	0.001502	0.000855	-0.631104	0.104248	-0.463867
462.0	9.854178	0.442025	-0.667418	0.000518	0.002053	0.002676	-0.624512	0.104248	-0.463867
463.0	9.847157	0.4272	-0.685347	0.004872	0.007245	0.004842	-0.631348	0.108643	-0.468506
464.0	9.854283	0.441129	-0.666457	0.006076	0.003698	0.004724	-0.633545	0.108643	-0.459229
465.0	9.830962	0.444526	-0.660241	0.005827	0.002332	0.004078	-0.631348	0.106445	-0.470947
466.0	9.80704	0.467165	-0.669008	0.007776	0.002884	0.005899	-0.626709	0.106445	-0.470947
467.0	9.814763	0.461632	-0.635362	0.004665	0.004522	0.006963	-0.633545	0.106445	-0.466064
468.0	9.783182	0.48898	-0.677471	0.002261	-0.000118	0.006617	-0.62915	0.11084	-0.459473
469.0	9.814824	0.460418	-0.635294	0.003422	-0.002308	0.003733	-0.633301	0.104248	-0.461426
470.0	9.814235	0.479364	-0.650377	0.00365	-0.000264	0.002995	-0.635986	0.11084	-0.464111
471.0	9.814828	0.459709	-0.635746	0.002946	-0.005719	0.003825	-0.631348	0.106445	-0.468506
472.0	9.8311	0.441155	-0.660447	-0.000228	-0.002045	0.000738	-0.626709	0.106445	-0.461426
473.0	9.854435	0.437215	-0.66679	0.004335	-0.005864	0.000203	-0.626709	0.104248	-0.473145
474.0	9.847329	0.422619	-0.685712	0.002925	-0.00504	0.002441	-0.62915	0.11084	-0.46167
475.0	9.877755	0.433031	-0.673509	0.005287	0.000957	1.9e-05	-0.628906	0.106445	-0.461426
476.0	9.854401	0.436821	-0.667556	0.010347	-0.000131	0.000775	-0.628906	0.102051	-0.458984
477.0	9.831045	0.440558	-0.661668	0.010346	-0.000131	0.000775	-0.631348	0.108643	-0.468506
478.0	9.861486	0.450955	-0.649263	0.013954	0.000962	0.001003	-0.631348	0.108643	-0.459229
479.0	9.862094	0.431538	-0.634235	0.012253	0.001777	-0.000172	-0.633301	0.104248	-0.463867
480.0	9.885449	0.42748	-0.640347	0.00989	-0.00422	0.002252	-0.633545	0.108643	-0.457031
481.0	9.85443	0.436064	-0.667619	0.012957	0.007231	-0.001004	-0.628906	0.106445	-0.461426
482.0	9.861535	0.450482	-0.648848	0.019217	0.002596	-0.000362	-0.631104	0.104248	-0.468506
483.0	9.837595	0.473626	-0.657657	0.017516	0.00341	-0.001537	-0.635742	0.104248	-0.461426
484.0	9.838203	0.454337	-0.642517	0.01393	0.00164	-0.00038	-0.628906	0.104248	-0.466064
485.0	9.837621	0.47354	-0.657342	0.017536	0.002732	-0.000152	-0.624268	0.099854	-0.461182
486.0	9.814275	0.477285	-0.651298	0.01395	0.000962	0.001005	-0.633545	0.108643	-0.46167
487.0	9.831157	0.439451	-0.660734	0.011794	-0.002312	0.001308	-0.633301	0.102051	-0.463623
488.0	9.837635	0.472944	-0.657555	0.019006	-0.000126	0.001763	-0.633789	0.11084	-0.464111
489.0	9.868075	0.48342	-0.645119	0.013906	0.002316	-0.001764	-0.638184	0.108643	-0.46167
490.0	9.837069	0.491983	-0.67228	0.014445	0.003695	0.002294	-0.631104	0.102051	-0.458984
491.0	9.853373	0.473443	-0.696414	0.011999	0.000409	-0.000815	-0.633301	0.104248	-0.463867
492.0	9.844752	0.487043	-0.638838	0.011999	0.000409	-0.000815	-0.62915	0.108643	-0.46167
493.0	9.838272	0.453298	-0.6422	0.011998	0.000408	-0.000815	-0.631104	0.104248	-0.466064
494.0	9.837688	0.472627	-0.656996	0.010775	0.004632	-0.002087	-0.62915	0.11084	-0.464111
495.0	9.868135	0.483252	-0.644323	0.010568	0.001912	3.8e-05	-0.635498	0.102051	-0.463623
496.0	9.814342	0.476562	-0.650823	0.015106	-0.001232	-0.001875	-0.631348	0.108643	-0.463867
497.0	9.837695	0.472698	-0.656835	0.00864	0.000682	-0.000398	-0.631348	0.108643	-0.466309
498.0	9.867528	0.502628	-0.659434	0.006693	0.000129	-0.002218	-0.626709	0.104248	-0.461426
499.0	9.837683	0.472755	-0.656972	0.010112	-0.002174	0.00152	-0.628906	0.104248	-0.468506
500.0	9.838276	0.453384	-0.642075	0.006961	0.000819	-0.000189	-0.631348	0.108643	-0.46167
501.0	9.85339	0.473285	-0.696288	0.007251	0.000834	0.003224	-0.631348	0.108643	-0.466309
502.0	9.854002	0.453805	-0.681166	0.00721	0.002186	0.000454	-0.62915	0.108643	-0.463867
503.0	9.830664	0.457585	-0.675001	0.009136	0.003416	0.00089	-0.631104	0.104248	-0.468506
504.0	9.837755	0.471974	-0.656454	0.008887	0.002049	0.000246	-0.628906	0.106445	-0.459229
505.0	9.85466	0.434068	-0.665525	0.009177	0.002064	0.00366	-0.628662	0.099854	-0.461182
506.0	9.861771	0.44809	-0.64691	0.009674	0.004798	0.004947	-0.631348	0.108643	-0.459229
507.0	9.837855	0.470858	-0.655752	0.010586	0.001235	0.001424	-0.633545	0.106445	-0.466064
508.0	9.830813	0.456071	-0.673862	0.011082	0.00397	0.00271	-0.631348	0.108643	-0.466309
509.0	9.86187	0.446966	-0.646185	0.012801	0.002481	0.005273	-0.631348	0.106445	-0.463867
510.0	9.837371	0.488783	-0.670202	0.01423	0.000976	0.004422	-0.631348	0.106445	-0.461426
511.0	9.837394	0.488281	-0.670231	0.012303	-0.000254	0.003987	-0.633545	0.104248	-0.473145
512.0	9.853122	0.488574	-0.709514	0.014229	0.000976	0.004422	-0.631104	0.104248	-0.470703
513.0	9.830381	0.472683	-0.688452	0.011121	0.002618	0.005481	-0.633301	0.102051	-0.470703
514.0	9.836909	0.50579	-0.685086	0.012571	0.000438	0.006015	-0.631348	0.106445	-0.459229
515.0	9.867957	0.496609	-0.657572	0.005819	0.002339	0.004076	-0.637939	0.104248	-0.456787
516.0	9.814212	0.48942	-0.663712	0.006315	0.005074	0.005361	-0.633545	0.108643	-0.46167
517.0	9.846843	0.451974	-0.71172	0.002712	0.003982	0.005134	-0.635742	0.104248	-0.466064
518.0	9.830029	0.489139	-0.702196	0.007744	0.003568	0.004511	-0.631104	0.104248	-0.466064
519.0	9.846938	0.451091	-0.710968	0.004349	0.005194	0.002156	-0.635742	0.104248	-0.468506
520.0	9.82307	0.473841	-0.719462	0.008469	0.008346	0.005054	-0.628906	0.106445	-0.456787
521.0	9.86121	0.479155	-0.673213	0.007764	0.002893	0.005897	-0.631348	0.108643	-0.463867
522.0	9.862395	0.440207	-0.642791	0.004368	0.004519	0.003541	-0.633789	0.113037	-0.464111
523.0	9.854805	0.444304	-0.675793	0.013064	0.003172	0.007303	-0.631348	0.108643	-0.46167
524.0	9.845635	0.476663	-0.63303	0.011098	0.003292	0.004097	-0.633545	0.104248	-0.470703
525.0	9.845683	0.476021	-0.632759	0.011385	0.00331	0.007511	-0.635498	0.102051	-0.463623
526.0	9.846297	0.45609	-0.617459	0.009439	0.002755	0.00569	-0.631348	0.108643	-0.463867
527.0	9.846345	0.455376	-0.617208	0.011384	0.00331	0.007511	-0.633545	0.108643	-0.459229
528.0	9.861585	0.474549	-0.670978	0.013767	0.008623	0.00646	-0.62915	0.108643	-0.463867
529.0	9.807867	0.467296	-0.676782	0.011573	0.006701	0.003997	-0.633545	0.108643	-0.466309
530.0	9.831313	0.462709	-0.681895	0.010659	0.010268	0.007516	-0.628906	0.102051	-0.456787
531.0	9.837918	0.495747	-0.677908	0.009914	0.006165	0.00559	-0.631348	0.106445	-0.463867
532.0	9.839635	0.437584	-0.632125	0.009894	0.006839	0.004204	-0.62915	0.108643	-0.457031
533.0	9.816325	0.441057	-0.625775	0.009417	0.003429	0.004306	-0.631104	0.104248	-0.459229
534.0	9.832097	0.441342	-0.664863	0.010597	0.000555	0.002816	-0.633789	0.113037	-0.46167
535.0	9.815806	0.459594	-0.640875	0.008175	-0.00341	0.001097	-0.631348	0.108643	-0.46167
536.0	9.863075	0.432551	-0.637547	0.014103	0.005015	-0.003886	-0.62915	0.108643	-0.463867
537.0	9.869063	0.485552	-0.649182	0.013931	0.000951	0.001017	-0.631104	0.099854	-0.46582
538.0	9.846257	0.470134	-0.628217	0.017284	0.000673	0.000604	-0.635742	0.106445	-0.466064
539.0	9.853875	0.465364	-0.594931	0.015359	-0.000556	0.000169	-0.633301	0.104248	-0.463867
540.0	9.846262	0.469847	-0.628348	0.015606	0.000812	0.000811	-0.633789	0.113037	-0.464111
541.0	9.870193	0.44638	-0.619014	0.012768	0.003153	0.003893	-0.628906	0.104248	-0.463867
542.0	9.855563	0.435938	-0.670166	0.015169	0.007791	0.004224	-0.628906	0.104248	-0.461426
543.0	9.831731	0.458494	-0.678701	0.013511	0.007257	0.005817	-0.633545	0.106445	-0.463867
544.0	9.848106	0.439394	-0.702058	0.01372	0.009971	0.003685	-0.62915	0.11084	-0.459473
545.0	9.840048	0.462605	-0.749709	0.010156	0.007535	0.006229	-0.631104	0.104248	-0.466064
546.0	9.816733	0.437078	-0.62215	0.009622	0.006145	0.002175	-0.631104	0.104248	-0.461426
547.0	9.826542	0.384731	-0.648842	0.007641	0.006934	-0.00242	-0.633301	0.104248	-0.459229
548.0	9.850481	0.361679	-0.638931	0.009584	0.00749	-0.000598	-0.631592	0.115234	-0.454834
549.0	9.872823	0.396327	-0.674172	0.021491	0.010575	-0.006944	-0.631104	0.099854	-0.463623
550.0	9.880534	0.421139	-0.76074	0.025585	0.014401	-0.005433	-0.624512	0.108643	-0.459229
551.0	9.832722	0.43879	-0.657271	0.021049	0.00582	-0.004064	-0.633301	0.102051	-0.463623
552.0	9.838745	0.491845	-0.668685	0.023237	0.007745	-0.001601	-0.635742	0.108643	-0.459229
553.0	9.862203	0.487631	-0.673377	0.018263	0.017882	0.003702	-0.633545	0.108643	-0.463867
554.0	9.869936	0.482488	-0.638104	0.005348	0.021733	0.006624	-0.631348	0.106445	-0.456787
555.0	9.841276	0.413313	-0.602909	-0.000543	0.023709	0.014913	-0.635742	0.106445	-0.463867
556.0	9.864342	0.42681	-0.621612	-0.003843	0.021972	0.019483	-0.631348	0.108643	-0.463867
557.0	9.875859	0.31509	-0.60144	-0.016301	0.018172	0.020382	-0.633545	0.108643	-0.470947
558.0	9.825009	0.239717	-0.651352	-0.01034	0.025242	0.018171	-0.62915	0.11084	-0.464111
559.0	9.851814	0.147968	-0.685139	0.009773	0.023562	0.01572	-0.633545	0.108643	-0.466309
560.0	10.09758	0.182813	-0.643422	0.037451	0.032454	0.024615	-0.628906	0.106445	-0.466309
561.0	10.174155	0.220394	-0.668071	0.035884	0.063093	0.036109	-0.631348	0.106445	-0.473145
562.0	10.207473	0.178481	-0.708248	0.034582	0.093758	0.051017	-0.62915	0.11084	-0.464111
563.0	10.201707	0.138406	-0.700945	0.031611	0.111485	0.068379	-0.62915	0.108643	-0.468506
564.0	10.189407	0.063087	-0.695081	0.014196	0.126217	0.082017	-0.631592	0.113037	-0.466553
565.0	10.19806	0.030241	-0.633238	0.019775	0.134209	0.095725	-0.626953	0.108643	-0.473145
566.0	10.272191	0.059993	-0.451064	0.021548	0.148125	0.11602	-0.626953	0.113037	-0.471191
567.0	10.21502	0.079242	-0.27614	-0.01413	0.153428	0.133321	-0.626709	0.106445	-0.470947
568.0	10.102454	0.085728	-0.429273	-0.025178	0.153835	0.146368	-0.631592	0.113037	-0.473389
569.0	9.941637	0.090428	-0.465042	-0.041783	0.165696	0.155078	-0.626953	0.11084	-0.478027
570.0	9.736982	0.017695	-0.520052	-0.054388	0.163282	0.15316	-0.624756	0.115234	-0.47583
571.0	9.480981	-0.050142	-0.689286	-0.058615	0.162823	0.144714	-0.627197	0.115234	-0.47583
572.0	9.185408	-0.112123	-0.816208	-0.0751	0.137907	0.133845	-0.626953	0.113037	-0.480469
573.0	8.999894	-0.226968	-0.977276	-0.083438	0.101182	0.116637	-0.624756	0.11084	-0.473389
574.0	8.811847	-0.214861	-1.141669	-0.072542	0.069594	0.093697	-0.627197	0.119629	-0.471436
575.0	8.815379	-0.13444	-1.304361	-0.060242	0.01372	0.067399	-0.622803	0.119629	-0.476074
576.0	8.934204	-0.012779	-1.222651	-0.049361	-0.034301	0.05357	-0.627197	0.115234	-0.47583
577.0	9.18609	0.06909	-1.195967	-0.053128	-0.078213	0.042734	-0.622559	0.113037	-0.478027
578.0	9.339749	0.145499	-1.26018	-0.045086	-0.101775	0.035849	-0.625244	0.124023	-0.462158
579.0	9.446026	0.192553	-1.286341	-0.062329	-0.136784	0.03543	-0.629639	0.121826	-0.471436
580.0	9.596313	0.259461	-1.250851	-0.080546	-0.164846	0.031615	-0.625244	0.121826	-0.471436
581.0	9.659863	0.223707	-1.071421	-0.103221	-0.166943	0.032227	-0.627197	0.117432	-0.466553
582.0	9.634716	0.264635	-1.112762	-0.118597	-0.189701	0.034257	-0.625	0.117432	-0.466553
583.0	9.668415	0.372645	-1.069106	-0.136123	-0.204665	0.038555	-0.629639	0.124023	-0.471436
584.0	9.704119	0.298366	-0.982883	-0.167136	-0.212962	0.033391	-0.627441	0.121826	-0.466797
585.0	9.849535	0.188484	-0.943683	-0.168393	-0.192255	0.023079	-0.629639	0.124023	-0.466797
586.0	9.833718	0.043717	-0.908512	-0.173139	-0.160859	0.013138	-0.627441	0.121826	-0.464355
587.0	9.843094	-0.190271	-0.908487	-0.159862	-0.135234	0.002418	-0.625	0.121826	-0.464355
588.0	9.797578	-0.381721	-0.851634	-0.125338	-0.10258	-0.0151	-0.629639	0.124023	-0.4646
589.0	9.735204	-0.487686	-0.721461	-0.093972	-0.084077	-0.023892	-0.63208	0.126221	-0.462158
590.0	9.688773	-0.553723	-0.658259	-0.05557	-0.067558	-0.027351	-0.63208	0.124023	-0.459961
591.0	9.702034	-0.476031	-0.566164	-0.013107	-0.061045	-0.025772	-0.629639	0.121826	-0.466797
592.0	9.747895	-0.513409	-0.462726	0.013557	-0.045498	-0.02364	-0.629883	0.126221	-0.45752
593.0	9.731913	-0.493152	-0.441994	0.058763	-0.03506	-0.01692	-0.634033	0.119629	-0.464355
594.0	9.814361	-0.332968	-0.438111	0.093079	-0.027781	-0.010899	-0.629883	0.126221	-0.45752
595.0	9.926839	-0.10532	-0.466504	0.105768	-0.0372	-0.006234	-0.627197	0.119629	-0.462158
596.0	10.178983	0.077265	-0.518127	0.115011	-0.059516	-0.019713	-0.629883	0.126221	-0.459961
597.0	10.580643	0.098099	-0.668128	0.096224	-0.078002	-0.046239	-0.634033	0.117432	-0.459717
598.0	10.72246	-0.074066	-0.790435	0.104029	-0.077525	-0.077605	-0.634033	0.121826	-0.45752
599.0	10.471652	0.130912	-0.817001	0.153151	-0.054395	-0.087429	-0.634033	0.119629	-0.461914
600.0	10.258097	0.428491	-0.961107	0.150999	-0.025866	-0.081829	-0.63623	0.115234	-0.459473
601.0	10.061719	0.609623	-1.052359	0.151546	0.009329	-0.076652	-0.633789	0.113037	-0.459473
602.0	9.89728	0.751938	-1.189606	0.172538	0.040005	-0.065079	-0.635986	0.113037	-0.457031
603.0	9.731856	0.939724	-1.264846	0.167365	0.044715	-0.052026	-0.629395	0.115234	-0.461914
604.0	9.771384	0.9295	-1.398806	0.119552	0.028356	-0.03889	-0.631592	0.115234	-0.459473
605.0	9.865335	0.875818	-1.390127	0.115374	0.043282	-0.033002	-0.631104	0.104248	-0.456787
606.0	9.966995	0.894807	-1.603202	0.094366	0.063765	-0.033357	-0.633545	0.108643	-0.45459
607.0	10.040214	0.808003	-1.750752	0.052457	0.0833	-0.035928	-0.628906	0.106445	-0.463867
608.0	9.93406	0.827922	-1.875459	0.047531	0.109238	-0.038397	-0.631592	0.113037	-0.464111
609.0	9.906832	1.084369	-1.859278	0.023171	0.096842	-0.040721	-0.62915	0.108643	-0.463867
610.0	10.063766	1.093317	-2.047284	-0.050199	0.050591	-0.057246	-0.631348	0.11084	-0.459473
611.0	10.107529	1.187987	-1.931118	-0.054144	0.067968	-0.074231	-0.626709	0.106445	-0.463867
612.0	9.935293	1.357604	-2.115428	-0.098186	0.005865	-0.102519	-0.626953	0.11084	-0.466309
613.0	9.912634	1.241226	-2.003116	-0.12598	-0.016237	-0.129866	-0.626709	0.104248	-0.461426
614.0	9.995273	1.187422	-1.819615	-0.120963	-0.048065	-0.157707	-0.631348	0.108643	-0.46167
615.0	10.075495	1.066238	-2.003712	-0.105656	-0.023427	-0.181249	-0.631104	0.102051	-0.466064
616.0	9.882065	0.959422	-1.762975	-0.059674	0.028469	-0.192314	-0.633301	0.104248	-0.461426
617.0	9.790379	0.879748	-1.64472	-0.033108	0.060029	-0.194537	-0.628906	0.102051	-0.463623
618.0	9.617211	0.753572	-1.617716	0.008202	0.116734	-0.185723	-0.626465	0.099854	-0.456543
619.0	9.525827	0.728784	-1.537547	0.005757	0.132159	-0.177977	-0.624268	0.102051	-0.463623
620.0	9.630547	0.579599	-1.302457	0.004032	0.162059	-0.164958	-0.624023	0.095459	-0.45874
621.0	9.624989	0.530987	-1.167347	0.037068	0.205789	-0.148033	-0.624023	0.095459	-0.46582
622.0	9.524415	0.553337	-1.050023	0.059402	0.258661	-0.129201	-0.624023	0.093262	-0.472656
623.0	9.434885	0.57049	-1.093258	0.062806	0.277108	-0.1153	-0.624023	0.095459	-0.468018
624.0	9.439786	0.570937	-1.157854	0.068629	0.287799	-0.100218	-0.624023	0.097656	-0.468262
625.0	9.464692	0.6333	-1.181314	0.076737	0.296809	-0.096402	-0.621582	0.091064	-0.474854
626.0	9.442393	0.721539	-1.208198	0.07839	0.305019	-0.085628	-0.61499	0.093262	-0.46582
627.0	9.473521	0.835454	-1.241667	0.07488	0.317658	-0.08259	-0.617188	0.091064	-0.474854
628.0	9.491381	0.957761	-1.341531	0.073909	0.319186	-0.071441	-0.612549	0.088867	-0.479492
629.0	9.511517	0.983069	-1.366098	0.070157	0.312664	-0.060578	-0.616943	0.08667	-0.481689
630.0	9.524099	0.930348	-1.488739	0.065973	0.303411	-0.051018	-0.61499	0.093262	-0.481934
631.0	9.568747	0.931351	-1.504807	0.057106	0.288221	-0.049147	-0.610107	0.08667	-0.481689
632.0	9.637628	0.890447	-1.495362	0.044712	0.299435	-0.047965	-0.61499	0.091064	-0.48877
633.0	9.588628	0.867849	-1.459301	0.04237	0.323636	-0.048017	-0.60791	0.088867	-0.486572
634.0	9.533351	0.906763	-1.500096	0.022335	0.352695	-0.039459	-0.608154	0.088867	-0.493408
635.0	9.455255	0.828896	-1.568221	0.000596	0.355703	-0.033154	-0.60791	0.084473	-0.493164
636.0	9.472399	0.836772	-1.60663	-0.000762	0.356553	-0.024046	-0.60791	0.08667	-0.490967
637.0	9.555232	0.818228	-1.677804	-0.015935	0.34059	-0.01201	-0.603516	0.088867	-0.500488
638.0	9.626466	0.831782	-1.707047	-0.021344	0.348665	0.00081	-0.598877	0.08667	-0.495605
639.0	9.52504	0.859959	-1.598296	-0.046798	0.360287	0.014751	-0.605713	0.08667	-0.498047
640.0	9.478995	0.769897	-1.636871	-0.064279	0.369875	0.02383	-0.594482	0.089111	-0.498047
641.0	9.43714	0.737232	-1.562894	-0.073479	0.363048	0.033031	-0.601074	0.084473	-0.502441
642.0	9.506827	0.752241	-1.464789	-0.092961	0.367374	0.049848	-0.590088	0.089111	-0.498047
643.0	9.582815	0.857155	-1.40837	-0.086152	0.350459	0.061868	-0.594238	0.084717	-0.511963
644.0	9.688717	1.010054	-1.367135	-0.10063	0.355072	0.07682	-0.589844	0.086914	-0.507324
645.0	9.750238	1.126132	-1.411028	-0.124717	0.352125	0.088496	-0.589844	0.086914	-0.509521
646.0	9.770261	1.105462	-1.273283	-0.146811	0.35647	0.088231	-0.585449	0.089111	-0.511963
647.0	9.800288	1.114296	-1.254707	-0.165934	0.371593	0.089675	-0.587646	0.084717	-0.51416
648.0	9.690846	1.082856	-1.29117	-0.172752	0.400298	0.105851	-0.588135	0.095703	-0.512207
649.0	9.674427	1.254998	-1.258022	-0.174961	0.378557	0.126128	-0.581055	0.091309	-0.52832
650.0	9.765045	1.32	-1.236464	-0.20506	0.369218	0.14149	-0.579102	0.0979	-0.519287
651.0	9.870898	1.369933	-1.270575	-0.223766	0.367946	0.165555	-0.576904	0.0979	-0.521729
652.0	9.950772	1.446375	-1.349426	-0.240461	0.357553	0.179865	-0.574707	0.100098	-0.526367
653.0	9.955222	1.519211	-1.436921	-0.267912	0.358981	0.193482	-0.57251	0.102295	-0.528809
654.0	9.957827	1.478021	-1.59499	-0.293852	0.330105	0.202144	-0.570068	0.0979	-0.521729
655.0	9.947019	1.469676	-1.713394	-0.313158	0.315113	0.208947	-0.570313	0.102295	-0.533447
656.0	10.010629	1.424917	-1.793691	-0.332345	0.301487	0.216383	-0.566162	0.111328	-0.531494
657.0	10.254544	1.374757	-1.823458	-0.34035	0.282185	0.215498	-0.561523	0.109131	-0.535889
658.0	10.788959	1.420665	-1.446108	-0.298959	0.214965	0.199533	-0.559326	0.111328	-0.536133
659.0	11.287502	1.217556	-1.617129	-0.332001	0.248722	0.184744	-0.561768	0.113525	-0.540771
660.0	10.906164	1.044883	-1.470308	-0.27719	0.295492	0.178708	-0.557373	0.11792	-0.531738
661.0	11.195956	1.037112	-0.727564	-0.262317	0.145406	0.168485	-0.557373	0.115723	-0.533936
662.0	11.744688	0.694645	-0.883799	-0.254824	0.155304	0.147666	-0.554932	0.113525	-0.536133
663.0	11.50033	0.525782	-0.817012	-0.162508	0.196397	0.114364	-0.552734	0.115723	-0.533936
664.0	11.34297	0.506262	-1.087012	-0.150955	0.106584	0.088271	-0.550781	0.120117	-0.541016
665.0	11.319699	0.437199	-1.419061	-0.1475	0.093377	0.079639	-0.54834	0.11792	-0.533936
666.0	11.182532	0.567914	-1.530021	-0.110236	0.087366	0.076158	-0.557373	0.115723	-0.531494
667.0	10.968843	0.724263	-1.700949	-0.090941	0.089666	0.080665	-0.546143	0.120117	-0.541016
668.0	10.718214	0.943485	-2.087043	-0.054421	0.076841	0.077111	-0.546387	0.124512	-0.538818
669.0	10.743582	1.292289	-1.997321	-0.032344	0.029701	0.069542	-0.550781	0.124512	-0.536621
670.0	10.915674	1.399047	-1.304578	-0.071477	-0.093682	0.032818	-0.543945	0.122314	-0.53418
671.0	11.200968	1.322943	-0.195324	-0.010282	-0.229509	-0.042452	-0.543945	0.11792	-0.533936
672.0	11.531964	0.85497	0.587012	0.06039	-0.369426	-0.128647	-0.548584	0.122314	-0.536377
673.0	11.801477	0.043786	1.521304	0.117525	-0.459639	-0.204209	-0.541748	0.120117	-0.531738
674.0	11.610523	-0.905214	1.673158	0.100821	-0.414894	-0.246216	-0.546387	0.122314	-0.517822
675.0	10.645997	-1.163775	2.040969	0.173147	-0.299387	-0.23198	-0.550293	0.111328	-0.524414
676.0	10.164716	-1.10452	2.803458	0.083445	-0.342315	-0.19892	-0.54834	0.11792	-0.52002
677.0	10.496459	-0.99193	2.807872	0.003482	-0.317345	-0.175516	-0.550537	0.113525	-0.522217
678.0	10.461596	-0.440251	2.730738	0.007572	-0.093444	-0.164643	-0.550293	0.111328	-0.519775
679.0	9.924725	-0.192747	2.157273	-0.064146	0.057042	-0.141757	-0.546143	0.115723	-0.524658
680.0	9.254883	-0.211962	1.505182	-0.013267	0.104682	-0.1251	-0.548096	0.111328	-0.526855
681.0	9.088028	0.069458	1.244666	0.023118	0.054487	-0.093267	-0.545654	0.109131	-0.524414
682.0	9.217653	0.143586	1.016802	0.012688	0.000444	-0.050221	-0.541504	0.113525	-0.522217
683.0	9.634137	0.179076	1.100474	0.069122	-0.06059	0.001426	-0.543457	0.109131	-0.524414
684.0	10.317819	0.147748	0.819803	0.225759	-0.139698	0.068945	-0.547852	0.102539	-0.514893
685.0	9.881061	0.46712	1.063054	0.358525	0.101752	0.123453	-0.545654	0.109131	-0.521973
686.0	9.055829	0.215348	0.988864	0.275239	0.061341	0.173698	-0.545898	0.113525	-0.52002
687.0	8.721996	-0.42462	0.967014	0.352486	-0.047063	0.199108	-0.541016	0.104736	-0.533447
688.0	8.777683	-0.503199	1.081302	0.421787	-0.215038	0.201339	-0.545898	0.113525	-0.524658
689.0	8.986487	-0.545002	1.333448	0.382346	-0.30053	0.236349	-0.54126	0.109131	-0.529053
690.0	9.228775	-0.4963	1.501006	0.379931	-0.378953	0.282905	-0.541504	0.113525	-0.515381
691.0	9.136017	0.030203	1.49895	0.353797	-0.311615	0.315995	-0.54126	0.106934	-0.519775
692.0	8.620513	0.385404	1.560013	0.199704	-0.178825	0.312702	-0.541504	0.115723	-0.515381
693.0	8.093917	0.499228	1.348286	0.067698	-0.098573	0.268584	-0.545898	0.115723	-0.515381
694.0	7.947397	0.411119	0.746819	-0.041577	-0.149446	0.223474	-0.54834	0.11792	-0.506104
695.0	7.685621	0.095567	0.190329	0.004149	-0.172354	0.185146	-0.545898	0.115723	-0.515381
696.0	7.72319	0.27687	0.677575	0.021704	-0.183646	0.127523	-0.543701	0.111328	-0.512939
697.0	7.913175	0.071054	0.504146	-0.086374	-0.182787	0.068845	-0.541504	0.11792	-0.517822
698.0	8.017467	-0.244142	0.253079	-0.104231	-0.149384	0.00698	-0.541504	0.115723	-0.510742
699.0	8.343452	-0.338618	0.025813	-0.111139	-0.176155	-0.047519	-0.545898	0.113525	-0.510742
700.0	8.562448	-0.501689	-0.147981	-0.10431	-0.142384	-0.085777	-0.546143	0.11792	-0.510742
701.0	8.608618	-0.52211	-0.151616	-0.09045	-0.099	-0.103925	-0.543701	0.115723	-0.508301
702.0	8.796219	-0.649244	-0.241309	-0.110937	-0.084673	-0.102966	-0.545898	0.113525	-0.505859
703.0	8.970928	-0.824487	-0.354308	-0.10203	-0.075301	-0.07612	-0.539063	0.113525	-0.510742
704.0	9.137595	-0.911095	-0.467638	-0.057549	-0.046645	-0.042386	-0.536865	0.115723	-0.503662
705.0	8.936745	-0.900357	-0.477188	-0.01006	0.016099	-0.005332	-0.54126	0.111328	-0.508301
706.0	8.776808	-0.787988	-0.667011	0.016244	-0.014723	0.031665	-0.541504	0.113525	-0.510742
707.0	8.826005	-0.838376	-0.929664	0.057913	-0.030452	0.055132	-0.539307	0.115723	-0.512939
708.0	8.876161	-0.939535	-0.970029	0.117463	-0.00181	0.074592	-0.539307	0.11792	-0.513184
709.0	9.051803	-1.032455	-1.022271	0.186734	0.011462	0.087733	-0.534668	0.115723	-0.512939
710.0	9.179809	-1.057306	-0.982274	0.24652	0.071702	0.092104	-0.541504	0.115723	-0.52002
711.0	9.189513	-0.998254	-0.837001	0.271933	0.135233	0.085393	-0.530273	0.115723	-0.515381
712.0	9.198346	-0.971877	-0.972311	0.308247	0.207291	0.061973	-0.539063	0.113525	-0.510742
713.0	8.828876	-0.807821	-0.965338	0.376446	0.224592	0.03618	-0.536865	0.111328	-0.515137
714.0	8.934516	-0.591995	-1.049511	0.412555	0.134894	-0.003935	-0.532471	0.113525	-0.510742
715.0	9.176594	-0.292813	-1.177323	0.441608	0.167599	-0.026113	-0.525391	0.109131	-0.517334
716.0	9.445773	-0.061566	-1.54754	0.506557	0.134931	-0.036681	-0.530029	0.111328	-0.517578
717.0	9.707411	0.172695	-1.637721	0.496039	0.14838	-0.022862	-0.531738	0.098145	-0.51709
718.0	9.502612	0.160691	-1.301999	0.40004	0.172395	-0.003835	-0.522949	0.100342	-0.51709
719.0	9.347445	0.179373	-1.005302	0.353747	0.121284	0.001615	-0.529785	0.102539	-0.52417
720.0	9.487005	0.234289	-0.98794	0.294074	0.072701	-0.005082	-0.522949	0.104736	-0.514893
721.0	10.063501	0.109917	-1.185044	0.244014	0.032031	-0.016685	-0.525146	0.098145	-0.526367
722.0	10.559467	0.155853	-1.302746	0.241917	0.019539	-0.032774	-0.522949	0.100342	-0.521729
723.0	10.831522	0.359043	-1.639255	0.24845	0.046145	-0.044035	-0.525146	0.100342	-0.52417
724.0	11.080479	0.399788	-2.094096	0.308567	0.067389	-0.058851	-0.527344	0.102539	-0.514893
725.0	11.037089	0.626522	-2.583729	0.406586	0.053491	-0.063715	-0.518066	0.095947	-0.526367
726.0	10.827397	0.59125	-2.986308	0.429294	-0.071402	-0.046232	-0.520508	0.098145	-0.51709
727.0	10.740846	0.115459	-2.914903	0.462947	-0.150569	-0.027686	-0.520264	0.091553	-0.521484
728.0	10.633477	-0.711187	-2.839188	0.477516	-0.164447	-0.027456	-0.522461	0.089355	-0.525879
729.0	10.354385	-1.485865	-3.567792	0.603645	-0.161709	-0.04701	-0.517822	0.089355	-0.523682
730.0	10.1498	-2.180281	-3.660443	0.657483	-0.191882	-0.066641	-0.520264	0.091553	-0.521484
731.0	10.946754	-2.222862	-1.568677	0.678765	-0.241855	-0.055637	-0.519775	0.082764	-0.518799
732.0	13.27988	-0.818948	0.166229	0.76386	-0.509511	0.031817	-0.517822	0.084961	-0.516602
733.0	15.125267	0.78755	0.093194	0.617057	-0.672618	0.21902	-0.524414	0.082764	-0.511719
734.0	14.908292	2.586422	1.013063	0.525112	-0.588894	0.327588	-0.522217	0.082764	-0.50708
735.0	13.68447	3.678297	2.458436	0.176266	-0.582263	0.352202	-0.522217	0.082764	-0.509521
736.0	12.660032	2.763667	1.564325	-0.197288	-0.538725	0.375753	-0.53833	0.091553	-0.500488
737.0	11.104927	1.320321	0.453504	-0.093168	-0.264609	0.383087	-0.531494	0.089355	-0.505127
738.0	9.383552	1.143248	1.364409	0.061524	-0.212625	0.374095	-0.531738	0.098145	-0.507813
739.0	8.957514	0.812805	1.743239	0.113232	-0.225469	0.382099	-0.529541	0.100342	-0.498535
740.0	9.38607	0.87197	1.998541	0.348005	-0.094596	0.398068	-0.531982	0.104736	-0.500977
741.0	10.092745	0.856249	2.804487	0.36119	-0.105832	0.411485	-0.53418	0.102539	-0.500977
742.0	11.579053	0.011895	2.918521	0.237466	-0.174609	0.412733	-0.531982	0.100342	-0.510254
743.0	12.33616	-1.067941	2.557277	0.184789	-0.143924	0.360579	-0.534424	0.106934	-0.503418
744.0	13.002798	-1.484324	1.924973	0.089829	-0.174152	0.278444	-0.534424	0.111328	-0.491943
745.0	13.246445	-1.023765	1.426028	0.109982	0.015594	0.219902	-0.527588	0.106934	-0.501221
746.0	12.017445	0.371773	2.625476	0.053105	0.466473	0.152949	-0.528076	0.115723	-0.508301
747.0	10.689037	0.965397	2.401752	-0.262845	0.401654	0.113941	-0.523193	0.111328	-0.510498
748.0	11.063163	0.896057	1.260038	-0.183186	0.248472	0.073006	-0.528076	0.115723	-0.506104
749.0	10.829237	1.374374	1.462176	-0.195595	0.428977	0.037073	-0.519043	0.115723	-0.512939
750.0	10.096628	0.956358	1.143508	-0.394364	0.485479	0.01914	-0.521484	0.120361	-0.517822
751.0	9.938527	0.326609	0.581543	-0.316459	0.351147	-0.025585	-0.523926	0.126953	-0.513428
752.0	10.098766	0.069044	0.787168	-0.232334	0.305914	-0.072072	-0.523926	0.126953	-0.518066
753.0	10.003079	-0.231472	0.550677	-0.226081	0.31934	-0.104895	-0.519043	0.120361	-0.520264
754.0	9.627776	-0.469213	0.198292	-0.150681	0.364714	-0.131473	-0.521729	0.126953	-0.520508
755.0	8.968735	-0.33391	0.026684	-0.125387	0.367144	-0.130643	-0.514893	0.124756	-0.524902
756.0	8.340307	-0.139986	-0.047002	-0.079824	0.303261	-0.124063	-0.519531	0.126953	-0.527344
757.0	7.987816	0.008211	0.113398	-0.050074	0.232936	-0.105	-0.508301	0.131348	-0.522949
758.0	7.895322	0.064166	-0.082785	-0.055437	0.173671	-0.072228	-0.514893	0.126953	-0.525146
759.0	7.896747	0.137261	0.004347	-0.05439	0.157262	-0.050851	-0.508057	0.124756	-0.524902
760.0	7.728365	-0.030937	0.025596	-0.09898	0.185347	-0.0345	-0.512939	0.131348	-0.522949
761.0	7.557019	-0.159981	-0.053797	-0.059794	0.199163	-0.021926	-0.506104	0.133545	-0.532227
762.0	7.578026	-0.367892	-0.266661	-0.077272	0.139522	-0.029822	-0.508545	0.135742	-0.525391
763.0	7.815019	-0.599409	-0.334005	-0.05755	0.114483	-0.044523	-0.506104	0.133545	-0.534668
764.0	7.83301	-0.558452	-0.461576	0.02283	0.168087	-0.051486	-0.508545	0.135742	-0.530029
765.0	7.733053	-0.399944	-0.548501	0.072278	0.172765	-0.063191	-0.503906	0.131348	-0.532227
766.0	7.621684	-0.204589	-0.596452	0.106872	0.190781	-0.062054	-0.503906	0.135742	-0.530029
767.0	7.537012	-0.076232	-0.496572	0.116246	0.151488	-0.052635	-0.501465	0.131348	-0.532227
768.0	7.698589	0.035263	-0.634418	0.106855	0.12196	-0.043825	-0.503906	0.133545	-0.536865
769.0	7.861445	0.057275	-0.79652	0.086122	0.118327	-0.025129	-0.501953	0.137939	-0.534668
770.0	8.021882	0.128406	-0.869005	0.09612	0.094306	-0.012247	-0.499756	0.140137	-0.532471
771.0	8.106467	0.248274	-0.826643	0.080459	0.114146	0.005043	-0.501953	0.137939	-0.534668
772.0	7.781367	0.304578	-0.696073	0.041893	0.103453	0.034059	-0.502197	0.144531	-0.528076
773.0	7.627916	0.469851	-0.857359	0.021401	0.019505	0.059141	-0.499512	0.133545	-0.530029
774.0	7.727959	0.749571	-1.042272	-0.058694	-0.06885	0.075598	-0.499756	0.142334	-0.539551
775.0	7.812748	0.999954	-1.300595	-0.137976	-0.092747	0.087	-0.497559	0.144775	-0.539795
776.0	7.79305	1.485739	-1.428549	-0.162466	-0.075263	0.08979	-0.5	0.146729	-0.535156
777.0	8.229303	2.06198	-1.748978	-0.191091	-0.074297	0.081881	-0.497803	0.146729	-0.535156
778.0	9.449671	2.62793	-1.8205	-0.152098	-0.163206	0.0303	-0.502441	0.15332	-0.532959
779.0	10.595079	2.982219	-1.417526	-0.242996	-0.159667	-0.02682	-0.49585	0.155762	-0.5354
780.0	10.889611	2.573112	-0.191739	-0.412876	-0.038394	-0.064395	-0.500488	0.162354	-0.531006
781.0	10.935539	1.50975	0.286681	-0.478068	0.003098	-0.045202	-0.49585	0.160156	-0.528564
782.0	11.177162	0.804126	-0.241883	-0.384861	0.00662	-0.023661	-0.500488	0.162354	-0.528809
783.0	11.231862	0.419538	-0.260891	-0.358105	-0.017182	-0.002419	-0.491699	0.164551	-0.531006
784.0	11.406983	0.083511	-0.435654	-0.189637	-0.0912	0.005038	-0.496338	0.166748	-0.53125
785.0	11.528801	0.142174	-0.994904	-0.07098	-0.112619	-0.012338	-0.498535	0.166748	-0.526611
786.0	11.581438	-0.341965	-1.637123	-0.17789	-0.178543	-0.074078	-0.498779	0.17334	-0.526855
787.0	11.534008	-0.764696	-2.1649	-0.151525	-0.179786	-0.123988	-0.491943	0.171143	-0.53125
788.0	11.303624	-0.084877	-2.429452	-0.076764	-0.152944	-0.154665	-0.494385	0.177734	-0.524658
789.0	10.868203	0.653923	-2.798027	-0.172061	-0.086392	-0.139798	-0.496582	0.17334	-0.531494
790.0	10.578627	1.583245	-2.584573	-0.146734	-0.133141	-0.131162	-0.496582	0.177734	-0.524658
791.0	11.404411	2.083202	-1.969205	-0.149761	-0.245068	-0.13037	-0.494385	0.175537	-0.526855
792.0	12.515743	1.339087	-1.575822	-0.251929	-0.32106	-0.179357	-0.499023	0.177734	-0.522217
793.0	13.262252	-0.207308	0.170236	-0.242697	-0.478225	-0.242313	-0.503418	0.177734	-0.526855
794.0	14.221176	-1.630966	1.099754	-0.096019	-0.64615	-0.292698	-0.501221	0.179932	-0.513184
795.0	13.677225	-1.597066	0.732766	0.230509	-0.383604	-0.288072	-0.496582	0.177734	-0.52002
796.0	11.541546	-0.538359	0.906736	0.24255	-0.335519	-0.267535	-0.499023	0.182129	-0.515625
797.0	10.270009	0.143528	1.153041	0.118689	-0.55009	-0.278339	-0.500977	0.175537	-0.512939
798.0	9.993557	1.020247	2.23429	0.076106	-0.582225	-0.320364	-0.505615	0.175537	-0.508301
799.0	9.549958	1.026681	3.684338	-0.223412	-0.545609	-0.375693	-0.507813	0.177734	-0.512939
800.0	10.070948	0.621552	3.982737	-0.337305	-0.609276	-0.45959	-0.512451	0.17749	-0.510742
801.0	11.089525	1.150788	3.719127	-0.190294	-0.580622	-0.570982	-0.512207	0.173096	-0.503662
802.0	12.464834	0.657206	3.134501	-0.404246	-0.616603	-0.673608	-0.514404	0.173096	-0.501221
803.0	13.002534	-0.348588	1.27449	-0.422428	-0.461286	-0.681251	-0.521484	0.17749	-0.499023
804.0	12.370975	0.488788	1.020376	-0.229599	-0.253485	-0.604861	-0.520996	0.168701	-0.498779
805.0	12.636392	0.717961	1.150797	-0.441246	-0.298971	-0.468697	-0.514404	0.168701	-0.500977
806.0	13.115376	0.518922	1.330819	-0.365787	-0.047889	-0.355067	-0.519043	0.175293	-0.496582
807.0	12.427923	0.523854	1.115652	-0.172277	0.212671	-0.254459	-0.525635	0.170898	-0.491943
808.0	10.772565	-0.406093	0.767425	-0.110338	0.384416	-0.134439	-0.52124	0.170898	-0.496582
809.0	9.311777	-1.392931	0.512119	0.074782	0.264795	-0.054448	-0.519043	0.175293	-0.501221
810.0	9.20623	-1.810971	0.974728	0.235335	0.016083	-0.025417	-0.52124	0.173096	-0.499023
811.0	9.830784	-2.203727	0.762343	0.302071	-0.141963	0.035434	-0.514404	0.173096	-0.501221
812.0	10.057817	-1.975489	0.18728	0.439457	-0.246536	0.061269	-0.525879	0.175293	-0.505859
813.0	9.852622	-1.727078	0.825136	0.2957	-0.088183	0.078089	-0.519043	0.173096	-0.501221
814.0	9.100222	-1.946472	0.538014	0.301145	-0.008532	0.113228	-0.523682	0.17749	-0.503662
815.0	8.434715	-1.424366	0.194905	0.437329	0.074938	0.143709	-0.516602	0.168701	-0.505615
816.0	7.891282	-0.510893	0.238583	0.430662	0.125368	0.157364	-0.521484	0.17749	-0.503662
817.0	7.792482	-0.296569	-0.318851	0.30527	-0.094835	0.163684	-0.516602	0.170898	-0.503418
818.0	7.743637	0.019514	0.277972	0.383991	-0.060436	0.135954	-0.519043	0.175293	-0.508301
819.0	7.471821	0.422998	0.81734	0.345267	-0.042567	0.104179	-0.516602	0.170898	-0.510498
820.0	7.229564	0.61768	0.559458	0.248481	0.018927	0.075223	-0.52124	0.173096	-0.503662
821.0	7.105821	0.625226	0.051789	0.197917	-0.070661	0.05293	-0.514648	0.175293	-0.512939
822.0	7.350851	0.568221	-0.199256	0.130399	-0.109309	0.027642	-0.519287	0.179688	-0.508545
823.0	7.221285	0.219971	-0.15585	0.051074	-0.063917	0.010488	-0.519043	0.170898	-0.508057
824.0	7.143041	-0.186918	-0.177632	0.031604	-0.077264	-0.002802	-0.525879	0.175293	-0.508301
825.0	7.447353	-0.109058	-0.500021	0.114424	-0.107082	-0.017684	-0.527832	0.170898	-0.510498
826.0	7.601677	0.082919	-0.290417	0.036662	-0.016056	-0.027934	-0.523682	0.17749	-0.506104
827.0	7.322504	-0.31772	-0.302749	-0.071437	0.027072	-0.042666	-0.521484	0.175293	-0.510498
828.0	7.160034	-0.310527	-0.482149	-0.008714	0.002728	-0.067436	-0.523682	0.179688	-0.508545
829.0	7.342325	-0.063537	-0.799609	-0.044697	-0.047628	-0.076053	-0.519043	0.170898	-0.505859
830.0	7.64376	-0.082594	-1.16197	-0.069585	-0.044153	-0.076365	-0.521484	0.175293	-0.512939
831.0	8.056385	0.082883	-1.389755	0.016517	-0.023424	-0.065517	-0.521484	0.179688	-0.510742
832.0	8.319493	0.247391	-1.357469	0.024821	0.019236	-0.050248	-0.523682	0.179688	-0.506104
833.0	8.515324	-0.025546	-1.517423	0.031559	0.076423	-0.036808	-0.52124	0.173096	-0.512939
834.0	8.842994	-0.326089	-1.628844	0.114831	0.117806	-0.033396	-0.523682	0.17749	-0.512939
835.0	9.109351	-0.514047	-1.643906	0.155351	0.170791	-0.035679	-0.519043	0.173096	-0.517578
836.0	9.123846	-0.729852	-1.500856	0.177181	0.246392	-0.060445	-0.516846	0.17749	-0.515381
837.0	9.06174	-1.017403	-1.291443	0.193038	0.253459	-0.118798	-0.519043	0.175293	-0.517578
838.0	9.594288	-1.27035	-1.560153	0.311683	0.142594	-0.173064	-0.518799	0.168701	-0.521973
839.0	10.022532	-1.019543	-2.1853	0.461551	0.09187	-0.166781	-0.514648	0.17334	-0.526855
840.0	10.418486	-0.662033	-2.290458	0.555251	0.10627	-0.135207	-0.519043	0.170898	-0.53125
841.0	10.251977	-0.389231	-2.090963	0.506053	0.108797	-0.10771	-0.51416	0.164307	-0.52417
842.0	9.960559	-0.379617	-1.49663	0.371507	0.158668	-0.098757	-0.51416	0.166504	-0.526611
843.0	9.915865	-0.333133	-1.366073	0.200558	0.124643	-0.079134	-0.516357	0.164307	-0.531006
844.0	10.575266	0.175843	-1.959831	0.14157	0.031533	-0.055818	-0.51416	0.164307	-0.526367
845.0	11.599015	0.845918	-2.644013	0.176655	-0.136445	-0.041121	-0.518555	0.159912	-0.523926
846.0	12.211343	1.650671	-2.809328	0.163993	-0.143662	-0.040163	-0.520996	0.164307	-0.528809
847.0	12.303813	1.394429	-3.560099	0.070686	-0.181539	-0.03792	-0.513916	0.159912	-0.533203
848.0	12.235762	0.39062	-4.062124	0.159296	-0.122656	-0.017615	-0.523193	0.162109	-0.533447
849.0	11.977989	-0.015371	-3.040425	0.334243	-0.045263	0.012396	-0.518555	0.162109	-0.526367
850.0	11.940254	-0.495653	-2.12692	0.264889	-0.101762	0.067509	-0.520752	0.159912	-0.531006
851.0	12.130993	-0.949068	-1.502752	0.247022	-0.131755	0.147716	-0.520752	0.159912	-0.531006
852.0	12.669652	-0.421968	-0.650884	0.416413	-0.377588	0.280297	-0.520996	0.164307	-0.528809
853.0	13.896469	1.487405	1.286664	0.32404	-0.745073	0.449076	-0.522949	0.159912	-0.526367
854.0	14.546197	2.18475	1.702484	-0.052602	-0.802086	0.585006	-0.532227	0.164307	-0.52417
855.0	12.612027	1.497884	0.966459	-0.273208	-0.358506	0.593771	-0.532227	0.166504	-0.517334
856.0	10.455349	0.281333	0.209491	-0.334357	-0.107475	0.509164	-0.532471	0.173096	-0.524414
857.0	10.302999	-0.846443	-1.150382	-0.003435	-0.215207	0.496874	-0.532471	0.173096	-0.519775
858.0	10.518693	-0.428333	-0.377294	0.506291	-0.295969	0.558421	-0.535156	0.181885	-0.522461
859.0	11.360128	0.346914	2.137246	0.695617	-0.299993	0.627433	-0.530273	0.175293	-0.517578
860.0	13.00607	0.079708	4.828844	0.405299	-0.386289	0.688983	-0.537354	0.179688	-0.524658
861.0	14.5294	-0.388863	4.380719	0.348325	-0.18883	0.717651	-0.537354	0.181885	-0.515381
862.0	14.426857	0.477857	2.341169	0.413285	0.280193	0.61089	-0.530762	0.184082	-0.517822
863.0	13.329828	0.992068	1.326189	0.140671	0.394627	0.411852	-0.530762	0.184082	-0.522461
864.0	12.834949	1.054276	1.835543	0.035625	0.376466	0.208486	-0.5354	0.186279	-0.531982
865.0	12.289671	1.381891	1.352112	-0.106807	0.420404	0.068888	-0.528564	0.188477	-0.525146
866.0	11.451269	1.409028	0.451047	-0.318879	0.458352	-0.011388	-0.524414	0.195313	-0.530029
867.0	10.541195	1.387789	0.622594	-0.330624	0.564088	-0.012114	-0.523926	0.184326	-0.531738
868.0	9.875185	1.608567	0.945029	-0.334119	0.620107	0.023308	-0.526855	0.19751	-0.539307
869.0	9.740658	1.641219	0.422582	-0.409288	0.621753	0.044445	-0.522217	0.195313	-0.536865
870.0	9.362116	1.636536	0.114871	-0.4395	0.540484	0.022094	-0.517822	0.19751	-0.548584
871.0	9.331312	1.467043	0.23746	-0.485581	0.443565	-0.048489	-0.524414	0.195313	-0.546143
872.0	9.21536	1.127914	0.275209	-0.536447	0.482577	-0.113475	-0.520264	0.204102	-0.539551
873.0	8.377298	1.028166	-0.206801	-0.504612	0.508281	-0.150154	-0.52002	0.199707	-0.557861
874.0	7.576548	0.938631	-0.371914	-0.478019	0.450641	-0.158754	-0.515625	0.19751	-0.548584
875.0	7.237725	0.92231	-0.042706	-0.434631	0.310658	-0.150123	-0.518066	0.201904	-0.555664
876.0	7.386963	0.667039	-0.109126	-0.466041	0.268661	-0.120182	-0.518066	0.204102	-0.55127
877.0	7.084482	0.361007	-0.233892	-0.442126	0.332881	-0.075535	-0.522705	0.206299	-0.553467
878.0	6.69964	0.069885	-0.278416	-0.446572	0.310464	-0.031177	-0.516357	0.215088	-0.553955
879.0	6.755911	-0.431913	-0.444124	-0.386963	0.253858	0.011245	-0.520508	0.206299	-0.558105
880.0	6.486484	-0.54793	-0.363822	-0.258686	0.260991	0.046553	-0.520752	0.212891	-0.55835
881.0	6.357982	-0.65823	-0.042397	-0.231379	0.238136	0.069431	-0.513916	0.210693	-0.560791
882.0	6.73496	-0.829652	-0.286061	-0.143599	0.229805	0.055105	-0.511719	0.215088	-0.558594
883.0	6.773102	-0.59522	-0.218825	-0.050824	0.322872	0.039358	-0.509521	0.213135	-0.562988
884.0	6.543108	-0.303231	-0.335401	-0.00422	0.310713	0.021053	-0.516357	0.219482	-0.561035
885.0	6.595889	-0.018073	-0.247712	0.030119	0.248489	0.009071	-0.50708	0.213135	-0.570068
886.0	6.89325	0.118779	-0.154833	0.039659	0.176393	0.00832	-0.511963	0.217529	-0.57251
887.0	7.347871	0.319049	-0.305925	0.079898	0.140657	0.003225	-0.509521	0.213135	-0.57251
888.0	7.877662	0.500247	-0.433891	0.064816	0.119952	-0.005887	-0.516602	0.221924	-0.565674
889.0	8.196637	0.459672	-0.429874	0.042229	0.162928	-0.011367	-0.504639	0.20874	-0.574463
890.0	8.366284	0.419472	-0.404262	0.028493	0.186146	-0.020887	-0.511963	0.217529	-0.574951
891.0	8.528616	0.569389	-0.571611	0.053011	0.158339	-0.02707	-0.504883	0.215332	-0.57251
892.0	8.810102	0.826787	-0.605921	0.014409	0.149882	-0.037088	-0.511719	0.213135	-0.57251
893.0	9.144466	1.08954	-0.629671	-0.045991	0.106357	-0.037378	-0.504883	0.213135	-0.57251
894.0	9.274591	1.407382	-0.763744	-0.133602	0.142752	-0.02647	-0.507324	0.215332	-0.57251
895.0	9.277467	1.605346	-1.080443	-0.204463	0.153772	0.001437	-0.504883	0.210938	-0.579346
896.0	9.224119	1.726979	-1.707664	-0.252316	0.171148	0.048874	-0.507324	0.219727	-0.572754
897.0	9.34416	1.997898	-2.25692	-0.163818	0.080368	0.060579	-0.504883	0.215332	-0.579346
898.0	9.751303	1.933621	-1.931361	-0.23619	0.026027	0.046656	-0.51001	0.226318	-0.579834
899.0	10.245789	0.825808	-1.189049	-0.403581	0.007178	0.033096	-0.505127	0.217529	-0.577148
900.0	10.842432	-0.48849	-1.240687	-0.345333	-0.091859	0.02749	-0.516113	0.213135	-0.579346
901.0	11.414093	-0.668411	-1.190875	-0.04203	-0.071166	0.042114	-0.509766	0.221924	-0.572754
902.0	11.703837	-0.484201	-0.867202	0.09815	-0.135884	0.064715	-0.509766	0.221924	-0.584229
903.0	12.241437	-0.731084	-1.163494	0.106261	-0.232652	0.084255	-0.509521	0.217529	-0.584229
904.0	12.371092	-0.861754	-1.493476	0.117533	-0.178071	0.087365	-0.51001	0.226318	-0.579834
905.0	12.25786	-0.629526	-1.809589	0.119294	-0.161607	0.047497	-0.512207	0.224121	-0.582031
906.0	12.498554	0.132488	-1.926275	0.193547	-0.166515	-0.035489	-0.518799	0.224121	-0.575195
907.0	12.503892	0.81379	-1.94267	0.111798	0.056236	-0.102931	-0.516357	0.219727	-0.584229
908.0	11.539142	1.402202	-1.657064	0.048661	0.218627	-0.137488	-0.516602	0.221924	-0.57959
909.0	11.15862	1.510292	-1.621847	-0.103011	0.086583	-0.148479	-0.511719	0.215332	-0.577148
910.0	11.347951	1.218197	-0.798258	-0.070474	-0.083696	-0.1679	-0.518799	0.219727	-0.582031
911.0	12.177194	0.552072	0.503663	-0.034873	-0.29577	-0.255756	-0.516113	0.210693	-0.576904
912.0	11.971481	-0.779951	0.655596	0.041018	-0.462782	-0.325229	-0.51416	0.217529	-0.570313
913.0	11.42933	-1.228059	0.530764	0.428436	-0.64168	-0.358945	-0.520508	0.208496	-0.572266
914.0	10.77052	-0.160609	0.738176	0.546492	-0.715519	-0.349176	-0.529541	0.210693	-0.56543
915.0	10.05511	-0.034243	1.574395	0.315263	-0.734657	-0.357543	-0.533691	0.201904	-0.56958
916.0	10.171699	-0.008921	1.846989	0.274017	-0.812413	-0.449642	-0.538086	0.195313	-0.560059
917.0	10.760889	0.489427	2.21764	0.228129	-0.711759	-0.562501	-0.540039	0.193115	-0.55542
918.0	11.172574	0.095051	2.921793	0.009687	-0.660601	-0.673271	-0.54248	0.195313	-0.560059
919.0	11.860942	-0.410628	2.588688	-0.026889	-0.62445	-0.762679	-0.544189	0.184082	-0.552734
920.0	13.000412	0.140386	2.237644	0.089582	-0.625161	-0.778382	-0.551025	0.181885	-0.548096
921.0	13.876944	0.610752	2.001197	0.030995	-0.357172	-0.746883	-0.559814	0.17749	-0.550049
922.0	13.836088	0.650107	1.926689	-0.008437	-0.267538	-0.706241	-0.562012	0.17749	-0.550049
923.0	14.242417	0.897477	1.395929	0.145001	-0.29274	-0.629014	-0.552734	0.168701	-0.540527
924.0	13.57053	1.191895	1.521771	0.148461	0.083219	-0.483875	-0.561768	0.168701	-0.547607
925.0	11.723936	0.498078	1.652492	0.088302	0.409173	-0.360344	-0.559326	0.164307	-0.547363
926.0	10.208868	-0.304662	0.966688	0.282099	0.354662	-0.289021	-0.563965	0.166504	-0.554443
927.0	9.979534	-0.488959	0.374968	0.412075	0.157662	-0.218603	-0.552002	0.15332	-0.556152
928.0	10.156612	-0.708461	0.451907	0.487573	0.095719	-0.119337	-0.559082	0.159912	-0.554199
929.0	9.830793	-0.617577	0.669321	0.58142	0.105442	0.011454	-0.563477	0.157715	-0.556396
930.0	9.170466	-0.306654	0.390751	0.541265	0.068459	0.120267	-0.563232	0.15332	-0.556152
931.0	8.526288	-0.548487	0.103583	0.379945	0.04424	0.158132	-0.561035	0.15332	-0.56543
932.0	8.478315	-0.660775	-0.06371	0.469056	-0.047721	0.189263	-0.563232	0.15332	-0.560791
933.0	8.235952	-0.252794	0.16995	0.457002	0.101569	0.206084	-0.560791	0.146729	-0.560547
934.0	7.290158	-0.119479	-0.169577	0.294866	0.227186	0.206223	-0.561279	0.157715	-0.561035
935.0	6.993022	-0.034214	-0.223149	0.314087	0.171973	0.197303	-0.554199	0.151123	-0.56543
936.0	7.124085	0.739953	0.052968	0.295648	0.072408	0.173808	-0.558838	0.151123	-0.56543
937.0	7.205551	1.131178	-0.165624	0.049505	0.000199	0.150431	-0.561035	0.148926	-0.560791
938.0	7.41962	1.204931	-0.326051	0.033357	-0.023515	0.119906	-0.563232	0.15332	-0.556152
939.0	7.230865	1.44122	-0.219504	-0.100304	0.01784	0.107367	-0.554443	0.15332	-0.56543
940.0	6.682513	1.018471	-0.350778	-0.2437	0.075814	0.093881	-0.556641	0.15332	-0.563232
941.0	6.42953	0.636083	-0.410064	-0.252871	0.07736	0.076737	-0.556396	0.151123	-0.562988
942.0	6.519708	0.105495	-0.655605	-0.193856	0.111856	0.076433	-0.559326	0.162109	-0.570557
943.0	6.200659	-0.068675	-0.434543	-0.113729	0.247149	0.083838	-0.561279	0.155518	-0.567871
944.0	5.894028	-0.283235	-0.529917	-0.129236	0.231081	0.082939	-0.556885	0.159912	-0.565674
945.0	6.074775	-0.56754	-0.940446	-0.046054	0.150971	0.078757	-0.561035	0.15332	-0.56543
946.0	6.462127	-0.483947	-1.117451	0.022752	0.101779	0.076571	-0.563477	0.157715	-0.567871
947.0	6.823859	-0.447794	-1.101176	0.006043	0.049103	0.071953	-0.554443	0.157715	-0.57251
948.0	7.290524	-0.481993	-0.984287	0.036201	0.004504	0.050211	-0.561279	0.159912	-0.574951
949.0	7.561626	-0.602652	-0.889552	0.054202	0.042582	0.013672	-0.558838	0.151123	-0.556152
950.0	7.693574	-0.608551	-0.993967	0.119195	0.06896	-0.056569	-0.563477	0.15332	-0.57251
951.0	8.031431	-0.733069	-0.939815	0.163327	0.08176	-0.108176	-0.556396	0.151123	-0.572266
952.0	8.652503	-1.04175	-0.796474	0.175281	0.010118	-0.163524	-0.561035	0.151123	-0.56543
953.0	10.066041	-1.380981	-0.99411	0.153466	0.009368	-0.199424	-0.558594	0.144531	-0.572021
954.0	11.501447	-1.708026	-2.743625	0.366896	-0.198796	-0.180622	-0.562988	0.144531	-0.567383
955.0	12.223883	-1.035911	-3.470575	0.789585	-0.25386	-0.186217	-0.564941	0.137695	-0.56958
956.0	11.357849	0.748428	-0.573096	0.553039	0.240418	-0.16561	-0.560547	0.137939	-0.571777
957.0	9.312956	0.863486	-0.428036	0.067149	0.152756	-0.118664	-0.562744	0.137695	-0.574219
958.0	9.282923	1.706758	-2.406375	0.143984	-0.184004	-0.074316	-0.564941	0.135498	-0.564941
959.0	10.170165	3.484558	-2.043276	-0.109574	-0.28162	-0.042089	-0.564697	0.133301	-0.571777
960.0	11.091062	3.64793	-2.366116	-0.519799	-0.413736	-0.038903	-0.567139	0.137695	-0.571777
961.0	12.197736	2.759988	-3.881692	-0.532119	-0.59588	-0.032353	-0.573975	0.135498	-0.567139
962.0	12.288752	0.723916	-5.421946	-0.614732	-0.409845	-0.012833	-0.573975	0.139893	-0.560303
963.0	11.519859	-1.359272	-5.170753	-0.306794	-0.194126	-0.040954	-0.578369	0.135498	-0.560303
964.0	11.360752	-2.024268	-3.24968	0.04989	-0.265216	-0.10941	-0.576172	0.137695	-0.557861
965.0	12.490678	-2.16941	-2.467908	0.05698	-0.404838	-0.067686	-0.57373	0.131104	-0.557617
966.0	13.96434	-1.806765	-2.58616	0.084512	-0.615928	0.153054	-0.587402	0.135498	-0.550781
967.0	13.893027	-0.031929	-0.591108	0.132641	-0.831149	0.426008	-0.592041	0.135498	-0.548584
968.0	13.04734	2.130581	2.849048	-0.244909	-1.223722	0.617195	-0.59668	0.144287	-0.539551
969.0	12.49042	1.343943	2.375105	-0.660406	-1.274589	0.697983	-0.598877	0.139648	-0.527832
970.0	11.098925	-0.149616	0.627592	-0.438606	-0.594349	0.645959	-0.601563	0.150879	-0.532959
971.0	9.788583	-0.368735	0.975137	-0.058134	-0.332003	0.580204	-0.60376	0.148438	-0.525879
972.0	11.077801	-0.417808	0.7402	0.308736	-0.584033	0.620981	-0.60376	0.148438	-0.52124
973.0	12.810114	0.022389	1.400202	0.651664	-0.541504	0.706706	-0.605957	0.148438	-0.523438
974.0	13.776783	0.128734	3.466184	0.445573	-0.459371	0.778825	-0.610596	0.152832	-0.519043
975.0	14.414425	-0.734226	2.515458	0.234671	-0.359362	0.788165	-0.606201	0.157227	-0.516846
976.0	14.729227	0.022342	1.449979	0.335266	-0.206252	0.582112	-0.620117	0.163818	-0.51709
977.0	15.487178	0.809117	0.871077	0.116559	-0.101408	0.322099	-0.61084	0.159424	-0.516846
978.0	14.300581	0.898322	0.712475	-0.106473	0.449123	0.17414	-0.61792	0.163818	-0.51709
979.0	12.349887	1.25369	0.915766	-0.236109	0.465175	0.054069	-0.611084	0.161865	-0.521729
980.0	11.526683	1.34668	0.215742	-0.334275	0.313373	-0.029024	-0.613281	0.163818	-0.521729
981.0	10.860558	1.586202	0.579835	-0.305253	0.458981	-0.052886	-0.613037	0.157227	-0.523926
982.0	10.528023	1.476267	0.870933	-0.396634	0.43946	-0.033759	-0.61792	0.166016	-0.526367
983.0	10.552682	0.958658	0.185811	-0.327096	0.44174	-0.019173	-0.606445	0.159668	-0.533203
984.0	9.948369	1.13174	-0.070842	-0.248693	0.573915	-0.017543	-0.611084	0.164063	-0.528809
985.0	9.261448	1.167732	-0.332142	-0.315324	0.542396	-0.044421	-0.608887	0.164063	-0.538086
986.0	8.728218	1.03396	-0.111689	-0.270019	0.56205	-0.080749	-0.608643	0.161865	-0.537842
987.0	7.962938	1.308184	0.030496	-0.208853	0.568048	-0.098596	-0.604248	0.159668	-0.547119
988.0	7.232355	1.094447	-0.204439	-0.228895	0.508663	-0.093946	-0.606445	0.159668	-0.549561
989.0	6.859679	0.744091	-0.093536	-0.18722	0.382391	-0.093353	-0.608887	0.161865	-0.551758
990.0	6.945875	0.445009	0.180814	-0.143234	0.33416	-0.067812	-0.606445	0.161865	-0.551758
991.0	7.120123	0.230349	0.299054	-0.108617	0.340062	-0.031803	-0.601807	0.155273	-0.549316
992.0	7.410383	0.095507	0.153949	-0.049623	0.363311	0.00203	-0.608887	0.161865	-0.551758
993.0	7.434229	0.355486	0.140713	-0.028703	0.443731	0.010688	-0.604004	0.153076	-0.551514
994.0	7.33132	0.256096	0.030095	-0.089971	0.466255	0.00357	-0.602051	0.161865	-0.558838
995.0	7.409868	0.136623	-0.309391	-0.051372	0.432255	0.013971	-0.601563	0.153076	-0.558594
996.0	7.33664	0.39812	-0.178902	0.025201	0.433043	0.039484	-0.604248	0.161865	-0.561035
997.0	7.336694	0.609356	-0.27654	0.015778	0.401104	0.05807	-0.60376	0.148682	-0.567627
998.0	7.198508	0.654263	-0.236636	0.078803	0.451427	0.067402	-0.601807	0.155273	-0.567871
999.0	7.159267	0.750461	-0.423156	0.115533	0.371302	0.076563	-0.601563	0.150879	-0.574707
1000.0	7.116228	0.74152	-0.653545	0.112799	0.355568	0.074971	-0.599854	0.161865	-0.568115
1001.0	7.184656	0.705817	-0.800273	0.125162	0.309098	0.057779	-0.597168	0.155273	-0.577148
1002.0	7.654956	0.687802	-1.151778	0.155344	0.251226	0.018259	-0.597168	0.153076	-0.574707
1003.0	8.155207	0.838076	-1.252941	0.167517	0.285349	-0.014279	-0.599121	0.146484	-0.576904
1004.0	8.30402	0.872968	-1.004342	0.110895	0.331049	-0.046379	-0.599365	0.148682	-0.576904
1005.0	8.358802	0.884512	-1.142732	0.082743	0.31583	-0.063799	-0.599121	0.146484	-0.586182
1006.0	8.460129	1.153061	-1.364262	0.068814	0.290462	-0.06256	-0.597168	0.153076	-0.593262
1007.0	8.349794	1.394637	-1.278124	0.008147	0.296958	-0.037973	-0.594482	0.139893	-0.585938
1008.0	8.587144	1.554036	-1.108281	-0.039201	0.187585	-0.025305	-0.596924	0.144287	-0.588379
1009.0	9.448044	2.003644	-1.438963	-0.038471	0.032959	-0.051906	-0.599121	0.14209	-0.599854
1010.0	10.72358	2.166195	-0.556514	-0.005632	0.010827	-0.089093	-0.598877	0.14209	-0.585938
1011.0	11.07449	0.947183	-0.564102	-0.327532	0.14603	-0.110007	-0.601074	0.137695	-0.585693
1012.0	10.376212	-1.215963	-1.487103	-0.372617	0.148478	-0.101046	-0.599121	0.146484	-0.593018
1013.0	9.984687	-2.008052	-1.225633	0.024144	0.035844	-0.043684	-0.596436	0.133301	-0.585693
1014.0	9.785245	-1.035445	-0.77807	0.282139	-0.002969	0.024003	-0.603516	0.139893	-0.590576
1015.0	9.937254	-0.511357	-1.590283	0.191946	-0.016515	0.057167	-0.607422	0.128906	-0.580811
1016.0	10.457233	-0.464866	-2.447427	0.201717	-0.115459	0.069403	-0.610107	0.137695	-0.592773
1017.0	11.108608	-0.168785	-2.256216	0.172325	-0.15855	0.081671	-0.612061	0.133301	-0.587891
1018.0	11.075107	0.583753	-2.107733	0.123745	-0.055428	0.107246	-0.609863	0.133301	-0.585693
1019.0	10.61993	2.078576	-2.557557	0.042201	0.029221	0.120529	-0.609619	0.128906	-0.585449
1020.0	10.897231	3.966943	-2.256091	0.076437	-0.084267	0.057464	-0.612305	0.137695	-0.590332
1021.0	12.892641	4.113927	-0.946631	-0.202305	-0.135631	-0.077005	-0.609863	0.133301	-0.592529
1022.0	13.872658	2.128841	-0.107298	-0.453674	-0.24259	-0.250921	-0.616455	0.128662	-0.590088
1023.0	14.644309	-0.329421	1.289776	-0.342903	-0.483882	-0.373319	-0.621094	0.128662	-0.592529
1024.0	15.630971	-1.066651	1.632846	-0.063189	-0.396085	-0.388592	-0.625488	0.128662	-0.583008
1025.0	13.384713	-0.981566	0.586503	0.015975	-0.139782	-0.289608	-0.622803	0.117676	-0.582764
1026.0	11.331009	-0.516915	0.24462	-0.029722	-0.350019	-0.21992	-0.627197	0.117676	-0.573486
1027.0	11.181153	-0.018056	0.050651	-0.080414	-0.527738	-0.181024	-0.629639	0.117676	-0.571045
1028.0	10.422704	0.240526	1.474478	-0.143267	-0.235662	-0.157153	-0.638672	0.12207	-0.571289
1029.0	9.108666	-0.033362	2.379373	-0.20369	-0.021585	-0.182273	-0.635986	0.111084	-0.568604
1030.0	8.996584	-0.515074	2.013187	-0.106429	-0.133271	-0.25352	-0.63623	0.117676	-0.564209
1031.0	9.811104	-0.471608	2.544153	0.037463	-0.276613	-0.347466	-0.638184	0.111084	-0.563965
1032.0	11.413664	-0.771789	2.721588	0.014666	-0.549865	-0.457021	-0.638184	0.106689	-0.563721
1033.0	13.330427	-1.160783	2.164473	0.150725	-0.737449	-0.558391	-0.642334	0.102051	-0.563477
1034.0	13.945137	-0.120258	2.143073	0.277751	-0.521897	-0.603697	-0.646973	0.099854	-0.558838
1035.0	13.330235	0.99144	2.222463	0.142766	-0.202846	-0.5718	-0.648682	0.08667	-0.55127
1036.0	12.600971	1.323488	1.488997	0.009363	-0.11182	-0.494284	-0.657959	0.093262	-0.556152
1037.0	11.171802	2.068747	1.109756	0.088739	0.223232	-0.405136	-0.648682	0.08667	-0.55835
1038.0	9.829843	2.29038	0.35375	0.01086	0.205119	-0.321001	-0.650879	0.08667	-0.55127
1039.0	9.682189	1.282772	-0.654964	-0.013017	-0.013556	-0.214217	-0.648193	0.077881	-0.555664
1040.0	9.646732	0.176911	0.11366	0.240104	0.011016	-0.117025	-0.652832	0.080078	-0.555664
1041.0	9.933475	-0.110956	0.535982	0.352557	-0.105576	-0.013158	-0.656982	0.073486	-0.55542
1042.0	10.315883	-0.839895	0.257999	0.317176	-0.018956	0.087794	-0.661865	0.080078	-0.555664
1043.0	9.675288	-1.341709	-0.014638	0.358596	0.130028	0.173543	-0.654785	0.075684	-0.557861
1044.0	8.754509	-1.680802	-0.168103	0.406488	0.126169	0.235937	-0.655273	0.084473	-0.560547
1045.0	8.218842	-1.593671	0.003864	0.422923	0.131118	0.25889	-0.652832	0.077881	-0.560303
1046.0	7.631715	-1.622933	-0.256626	0.378102	0.171858	0.270269	-0.657227	0.080078	-0.560303
1047.0	7.32493	-1.470381	-0.408052	0.520663	0.130645	0.242133	-0.661621	0.075684	-0.555664
1048.0	7.243684	-0.8034	-0.123327	0.541402	0.136516	0.225363	-0.655029	0.080078	-0.560303
1049.0	7.083813	-0.49561	-0.201644	0.472834	0.140961	0.219331	-0.661621	0.073486	-0.55542
1050.0	7.013847	-0.222214	-0.32044	0.450545	0.038107	0.213648	-0.659424	0.073486	-0.560059
1051.0	7.292268	0.443112	-0.478503	0.481139	-0.106721	0.180264	-0.661621	0.075684	-0.564941
1052.0	7.772741	0.841427	-0.226157	0.407695	-0.099829	0.161954	-0.663818	0.075439	-0.553223
1053.0	7.567703	0.776019	0.085775	0.290059	0.010525	0.144006	-0.661377	0.06665	-0.562256
1054.0	7.270015	0.641876	-0.034224	0.258599	0.050322	0.108439	-0.664063	0.080078	-0.562744
1055.0	7.198134	0.61899	-0.281748	0.164688	0.051646	0.082075	-0.65918	0.071289	-0.557861
1056.0	7.204537	0.423081	-0.893025	0.172788	-0.004676	0.062747	-0.664063	0.077881	-0.555664
1057.0	7.341149	0.690148	-0.572731	0.162142	-0.012346	0.03543	-0.666016	0.068848	-0.557617
1058.0	7.318092	0.767912	-0.798669	0.069645	0.018408	0.022148	-0.661377	0.071289	-0.564697
1059.0	7.371625	0.8335	-1.003838	0.060474	-0.041145	-0.004141	-0.665771	0.064453	-0.557373
1060.0	7.857797	0.97215	-1.273412	0.034961	-0.054986	-0.014984	-0.668213	0.068848	-0.557617
1061.0	7.832066	0.903818	-1.340095	-0.020766	-0.004849	-0.005877	-0.665771	0.06665	-0.552979
1062.0	8.069216	0.626755	-1.397527	-0.016566	-0.062666	0.000981	-0.67041	0.071045	-0.55542
1063.0	8.378346	0.392133	-1.383125	-0.004238	-0.045573	0.003799	-0.665527	0.062256	-0.562012
1064.0	8.375091	0.09356	-1.06091	0.017044	0.044559	-0.009775	-0.668213	0.068848	-0.55542
1065.0	8.137508	-0.01464	-0.991267	0.05325	0.122924	-0.023719	-0.665771	0.064453	-0.557373
1066.0	7.90656	-0.121269	-0.882557	0.032321	0.181202	-0.034558	-0.663574	0.064453	-0.562256
1067.0	8.125608	-0.199346	-0.976236	-0.054426	0.153423	-0.077773	-0.67041	0.068848	-0.550781
1068.0	9.5232	-0.489243	-1.898125	0.089809	-0.099085	-0.13559	-0.672607	0.06665	-0.555176
1069.0	11.183186	-0.482602	-2.366825	0.249298	-0.230021	-0.171155	-0.672119	0.057861	-0.554932
1070.0	11.919743	-0.184552	-2.08376	0.308653	-0.069402	-0.192129	-0.678955	0.055664	-0.557129
1071.0	11.686366	0.316332	-1.215274	0.223039	0.032258	-0.183085	-0.67627	0.049072	-0.554688
1072.0	11.11768	0.652226	-0.621615	0.021023	0.150105	-0.16889	-0.674316	0.053467	-0.557129
1073.0	10.902055	1.212197	-0.704866	-0.081122	0.167137	-0.140877	-0.674316	0.05127	-0.559326
1074.0	11.028353	1.864311	-1.396453	-0.116849	0.102883	-0.129416	-0.672119	0.053467	-0.561768
1075.0	11.244151	1.684209	-2.559078	-0.180541	0.018194	-0.132862	-0.67627	0.046875	-0.561523
1076.0	11.561956	0.864312	-3.8944	-0.070176	-0.132335	-0.120758	-0.674316	0.053467	-0.561768
1077.0	12.028986	0.071008	-4.819921	0.174461	-0.238227	-0.109451	-0.680908	0.046875	-0.559082
1078.0	11.795722	-0.910163	-4.647824	0.194985	-0.103499	-0.097703	-0.680908	0.049072	-0.559326
1079.0	11.17045	-2.130015	-3.748802	0.240912	-0.053637	-0.092216	-0.676025	0.04248	-0.552002
1080.0	11.488133	-2.490844	-2.986503	0.466369	-0.088181	-0.041032	-0.680664	0.046875	-0.549805
1081.0	12.566273	-1.744793	-2.220012	0.468867	-0.217135	0.105576	-0.687256	0.040283	-0.554199
1082.0	13.54425	-0.651513	-0.864522	0.339659	-0.342851	0.309766	-0.689697	0.044678	-0.549805
1083.0	14.352705	1.676569	1.589486	0.526088	-0.527218	0.442839	-0.685303	0.046875	-0.540527
1084.0	14.617284	3.644702	2.683601	0.132298	-0.69663	0.496249	-0.689941	0.05127	-0.540771
1085.0	13.265629	1.874474	0.787195	-0.511636	-0.364628	0.467974	-0.685547	0.053467	-0.54541
1086.0	11.0443	0.07779	0.166351	-0.242789	-0.10724	0.390163	-0.69043	0.062256	-0.545898
1087.0	9.953112	0.402786	1.167442	0.158951	-0.279333	0.409178	-0.692383	0.055664	-0.536133
1088.0	10.208256	0.490846	1.613059	0.204142	-0.22547	0.497985	-0.699707	0.068848	-0.531982
1089.0	10.563477	0.57772	2.170719	0.368561	-0.052624	0.583531	-0.695068	0.06665	-0.531982
1090.0	10.774655	0.218999	3.039917	0.272983	0.05473	0.637825	-0.695557	0.075439	-0.530029
1091.0	11.520489	-0.415192	3.22824	0.107028	-0.019135	0.62466	-0.699951	0.073242	-0.530029
1092.0	12.784062	-0.639316	2.047751	0.206536	-0.287413	0.502877	-0.700195	0.082031	-0.525635
1093.0	14.114439	0.030427	1.234442	0.257359	-0.209205	0.372919	-0.702393	0.079834	-0.527832
1094.0	13.800848	0.793843	1.082064	-0.029341	0.152543	0.254341	-0.700439	0.086426	-0.532715
1095.0	12.329501	0.792533	0.798643	-0.34269	0.388616	0.162789	-0.695801	0.084229	-0.537354
1096.0	11.366361	0.54709	0.565388	-0.267263	0.364584	0.110545	-0.700684	0.093018	-0.530762
1097.0	10.87489	1.102338	0.90364	-0.221462	0.470646	0.133465	-0.698242	0.09082	-0.537598
1098.0	10.234614	1.440101	0.636798	-0.38235	0.552393	0.168923	-0.69873	0.099609	-0.537842
1099.0	9.843903	1.212737	0.270475	-0.399598	0.531185	0.175231	-0.69165	0.095215	-0.547119
1100.0	9.724513	1.528699	0.31638	-0.298205	0.406979	0.1287	-0.694336	0.101807	-0.556641
1101.0	9.72509	1.93457	0.476506	-0.394237	0.47086	0.092858	-0.694092	0.097412	-0.556396
1102.0	9.221824	1.804653	0.327178	-0.53017	0.486905	0.043305	-0.689941	0.108643	-0.556885
1103.0	8.775447	1.63757	-0.029963	-0.559605	0.44414	-0.005097	-0.687744	0.106445	-0.556641
1104.0	8.079318	1.705471	0.02931	-0.603274	0.369594	-0.03428	-0.685547	0.108643	-0.561523
1105.0	7.76046	1.237088	0.104232	-0.635916	0.288061	-0.050345	-0.683105	0.106445	-0.561279
1106.0	7.757941	0.954004	0.095698	-0.546168	0.215689	-0.033756	-0.685791	0.115234	-0.561768
1107.0	7.613605	0.801574	-0.210905	-0.499396	0.192707	0.000651	-0.685791	0.115234	-0.561768
1108.0	7.329347	0.551779	-0.14884	-0.456303	0.205494	0.054742	-0.683838	0.121826	-0.564209
1109.0	7.182306	0.229535	-0.079106	-0.403449	0.179451	0.077643	-0.681641	0.126221	-0.564453
1110.0	7.027736	-0.110391	-0.029676	-0.34587	0.19711	0.08174	-0.688477	0.126221	-0.564453
1111.0	7.142068	-0.410348	0.044858	-0.26925	0.155829	0.075857	-0.681641	0.124023	-0.562012
1112.0	7.254776	-0.515352	-0.034364	-0.210547	0.174441	0.045307	-0.679688	0.128418	-0.566895
1113.0	7.351707	-0.648297	-0.006182	-0.174302	0.177599	0.012268	-0.684082	0.126221	-0.564453
1114.0	7.209223	-0.667015	-0.05757	-0.115542	0.256941	0.000645	-0.679932	0.13501	-0.569336
1115.0	7.00054	-0.27641	-0.047766	-0.062873	0.29657	-0.005662	-0.677246	0.126221	-0.56665
1116.0	7.024649	-0.123354	-0.290079	-0.095193	0.228274	0.001491	-0.675049	0.130615	-0.573975
1117.0	7.457781	0.016427	-0.508153	-0.069405	0.167047	0.010225	-0.679688	0.130615	-0.569336
1118.0	7.69826	0.27612	-0.520166	-0.074549	0.187923	0.014174	-0.682129	0.13501	-0.576416
1119.0	7.666927	0.425384	-0.6357	-0.105854	0.179249	0.026248	-0.67749	0.130615	-0.576172
1120.0	7.630359	0.611267	-0.854567	-0.117094	0.159804	0.03667	-0.677734	0.137207	-0.576416
1121.0	7.71639	0.944165	-1.191395	-0.127159	0.113934	0.057582	-0.677734	0.137207	-0.578857
1122.0	7.616023	1.233369	-1.346904	-0.150217	0.144775	0.099661	-0.67334	0.141846	-0.581299
1123.0	7.866625	1.41452	-1.535635	-0.187575	0.095174	0.131137	-0.67334	0.139404	-0.574219
1124.0	8.527213	1.722368	-1.93522	-0.179755	-0.008018	0.153922	-0.67334	0.141602	-0.572021
1125.0	9.333954	2.357878	-1.558482	-0.092685	0.014094	0.145198	-0.670898	0.137451	-0.578857
1126.0	9.83985	2.210889	-0.82388	-0.309025	0.008275	0.116145	-0.671631	0.155029	-0.574707
1127.0	10.175051	0.91623	-0.453007	-0.514421	-0.023782	0.10922	-0.676025	0.150635	-0.579346
1128.0	10.46087	-0.493325	-0.219716	-0.464656	-0.080502	0.132668	-0.678467	0.155029	-0.583984
1129.0	10.850096	-1.205716	0.004418	-0.175783	-0.161494	0.174793	-0.676025	0.152832	-0.572266
1130.0	11.307568	-1.34056	0.348559	0.02973	-0.240997	0.23903	-0.67627	0.157227	-0.577148
1131.0	11.620627	-1.402541	-0.386912	0.041727	-0.231751	0.274966	-0.678467	0.155029	-0.567871
1132.0	11.397415	-1.585825	-1.382825	-0.026667	-0.151595	0.255897	-0.685547	0.163818	-0.565918
1133.0	11.237656	-1.470226	-1.805262	-0.021999	-0.124077	0.183667	-0.680908	0.159424	-0.565674
1134.0	11.215731	-0.530843	-1.950116	0.05848	-0.108064	0.116662	-0.681152	0.168213	-0.568359
1135.0	10.933963	0.976759	-2.454454	0.038275	-0.013527	0.089392	-0.680908	0.159424	-0.567871
1136.0	10.477225	2.379584	-3.0865	-0.092494	0.071695	0.087165	-0.678711	0.166016	-0.561279
1137.0	10.732211	3.443239	-2.696907	-0.177515	0.057312	0.09095	-0.680908	0.163818	-0.572754
1138.0	11.50095	3.123954	-1.992051	-0.319201	0.025466	0.025713	-0.683594	0.172607	-0.566162
1139.0	12.068697	1.755379	-0.561274	-0.364607	-0.244516	-0.133041	-0.679199	0.172607	-0.561523
1140.0	13.716863	-0.747568	1.107597	-0.50883	-0.799091	-0.324844	-0.681396	0.174805	-0.554688
1141.0	15.38995	-3.435836	1.318621	-0.304648	-0.764641	-0.418846	-0.688232	0.172607	-0.563721
1142.0	13.488204	-3.094048	0.69477	0.294226	-0.281806	-0.373435	-0.692383	0.167969	-0.549805
1143.0	11.190009	-0.702465	-0.015173	0.183293	-0.336842	-0.314588	-0.689941	0.163574	-0.547119
1144.0	11.05222	0.170024	-0.719647	-0.162862	-0.57338	-0.280265	-0.692139	0.163574	-0.535645
1145.0	11.300263	0.871397	0.440989	-0.096273	-0.44132	-0.283108	-0.696533	0.15918	-0.540039
1146.0	11.060526	1.696985	2.331298	-0.148963	-0.28133	-0.304341	-0.698975	0.161377	-0.535645
1147.0	10.905499	1.086927	3.078097	-0.325778	-0.256323	-0.371424	-0.698975	0.161377	-0.535645
1148.0	11.510014	-0.371177	2.854481	-0.300529	-0.379819	-0.467897	-0.703125	0.156982	-0.526123
1149.0	12.156628	-1.369921	3.095176	-0.153782	-0.45467	-0.550507	-0.705566	0.156982	-0.52832
1150.0	12.461422	-1.752603	2.801849	-0.064297	-0.525053	-0.603186	-0.703125	0.152588	-0.52124
1151.0	12.366178	-1.29001	1.937329	0.00386	-0.315661	-0.589174	-0.705078	0.147949	-0.51416
1152.0	11.866825	-0.117874	1.412415	0.034239	-0.087286	-0.520917	-0.707275	0.147949	-0.518799
1153.0	11.692586	0.866885	0.639111	-0.039091	-0.144675	-0.435349	-0.707275	0.143555	-0.518555
1154.0	11.874714	1.291318	0.76351	-0.128492	0.005319	-0.332329	-0.707275	0.148193	-0.520996
1155.0	11.421862	1.107048	1.597252	-0.238443	0.208827	-0.198923	-0.707275	0.145996	-0.528076
1156.0	10.622781	0.332258	1.179733	-0.236763	0.279408	-0.092994	-0.707275	0.147949	-0.518799
1157.0	10.24971	-0.306315	0.230501	-0.007365	0.371608	-0.042225	-0.704834	0.143799	-0.525635
1158.0	9.47806	-0.533564	0.338208	0.052527	0.511279	0.003497	-0.702881	0.150391	-0.525879
1159.0	9.064549	-1.199232	0.139275	0.063549	0.303658	0.048262	-0.702637	0.143799	-0.532471
1160.0	9.041898	-1.29183	-0.22975	0.209665	0.130762	0.089092	-0.705078	0.145996	-0.532715
1161.0	8.729034	-1.154818	-0.022827	0.20895	0.113012	0.125135	-0.698242	0.145996	-0.532715
1162.0	8.192891	-1.488591	0.313509	0.159412	0.155125	0.160216	-0.700928	0.154785	-0.525879
1163.0	7.652972	-1.577881	0.263232	0.203653	0.126984	0.152108	-0.698242	0.145996	-0.532715
1164.0	7.379611	-1.488005	0.087483	0.199902	0.149252	0.118414	-0.700928	0.152588	-0.535156
1165.0	7.4291	-1.480845	-0.172491	0.199478	0.099651	0.089718	-0.700684	0.150391	-0.532715
1166.0	7.553422	-1.15749	-0.268774	0.233422	0.078854	0.056937	-0.703369	0.15918	-0.528564
1167.0	7.649961	-0.86771	-0.082303	0.219242	0.09409	0.000396	-0.698486	0.148193	-0.534912
1168.0	7.790572	-0.611979	-0.153803	0.229585	0.066536	-0.047558	-0.705566	0.15918	-0.544678
1169.0	7.927416	-0.137439	-0.354387	0.255212	0.061146	-0.08982	-0.698486	0.152588	-0.530518
1170.0	8.066817	0.247993	-0.438475	0.17879	0.100475	-0.115981	-0.703125	0.154785	-0.535156
1171.0	7.857934	0.351102	-0.301704	0.147472	0.073817	-0.090789	-0.702881	0.145996	-0.530273
1172.0	8.081751	0.327825	-0.288677	0.172413	-0.017528	-0.101481	-0.700684	0.150391	-0.532715
1173.0	7.993703	0.372955	-0.390196	0.080692	0.123342	-0.086283	-0.698242	0.143799	-0.532471
1174.0	7.60262	0.059227	-0.625357	0.032055	0.163216	-0.061632	-0.698486	0.150391	-0.537354
1175.0	7.621634	0.079325	-0.81001	0.083646	0.117357	-0.038572	-0.696045	0.148193	-0.537354
1176.0	7.685384	0.012868	-0.656416	0.02142	0.14589	-0.018307	-0.700684	0.150391	-0.537354
1177.0	7.824096	-0.293557	-0.930051	0.007304	0.136961	-0.004744	-0.698486	0.150391	-0.535156
1178.0	8.035464	-0.245329	-1.214772	0.079617	0.150572	-0.005394	-0.700928	0.152588	-0.537598
1179.0	8.17911	-0.272851	-1.369182	0.041268	0.119345	-0.013872	-0.698486	0.150391	-0.537354
1180.0	8.486959	-0.527014	-1.617844	0.055191	0.065789	-0.022544	-0.698486	0.148193	-0.537354
1181.0	8.557978	-0.558983	-1.608022	0.136986	0.051559	-0.02379	-0.696045	0.145996	-0.534912
1182.0	8.645942	-0.402699	-1.436154	0.147533	0.021789	-0.032043	-0.698486	0.150391	-0.537354
1183.0	8.683163	-0.549772	-1.481474	0.115475	0.023049	-0.040192	-0.700439	0.145996	-0.539551
1184.0	8.476572	-0.489167	-1.139764	0.127153	0.126173	-0.061659	-0.696289	0.152588	-0.530518
1185.0	8.335769	-0.558691	-1.426868	0.163271	0.042261	-0.080741	-0.698242	0.143799	-0.534912
1186.0	8.848277	-0.290133	-1.410869	0.202594	-0.021968	-0.088087	-0.698486	0.150391	-0.546631
1187.0	9.304407	-0.291524	-1.397741	0.199017	0.023046	-0.078718	-0.698242	0.143799	-0.530273
1188.0	9.802399	-0.212808	-1.826126	0.294596	-0.022181	-0.081812	-0.703125	0.154785	-0.530518
1189.0	10.558077	-0.029457	-1.612788	0.296034	-0.008842	-0.086178	-0.702637	0.143799	-0.532471
1190.0	10.594966	-0.17013	-1.515178	0.203698	0.063393	-0.128637	-0.702881	0.145996	-0.532715
1191.0	10.769527	-0.418585	-1.214683	0.084913	0.003161	-0.177467	-0.698242	0.143799	-0.530273
1192.0	11.043546	-0.432828	-0.751701	-0.046308	0.016524	-0.203101	-0.704834	0.141602	-0.537109
1193.0	10.965528	0.079721	-1.193416	0.029199	0.06692	-0.231754	-0.702637	0.139404	-0.534668
1194.0	10.573982	1.036849	-2.20713	0.154591	-0.052351	-0.245407	-0.702637	0.141602	-0.537109
1195.0	10.69512	1.132659	-3.048693	0.140088	-0.247115	-0.218004	-0.70459	0.132568	-0.520508
1196.0	10.893911	0.535793	-3.966895	0.299358	-0.262499	-0.183023	-0.707031	0.13916	-0.532471
1197.0	10.58604	-0.022913	-4.21718	0.443969	-0.221448	-0.150722	-0.711182	0.132568	-0.520508
1198.0	10.229764	-1.116203	-4.022433	0.423674	-0.27489	-0.140076	-0.711182	0.130371	-0.525146
1199.0	10.319284	-2.233969	-3.567851	0.425776	-0.341459	-0.112463	-0.706543	0.128174	-0.515625
1200.0	11.240826	-2.335051	-2.661472	0.466	-0.441101	-0.031941	-0.713623	0.132568	-0.515869
1201.0	13.014752	-1.427805	-1.92143	0.440731	-0.656881	0.1396	-0.722168	0.123779	-0.508545
1202.0	14.243332	0.357023	-0.668298	0.451083	-0.686899	0.338147	-0.720215	0.130371	-0.508789
1203.0	14.050023	2.217946	1.188693	0.251148	-0.747329	0.465201	-0.718018	0.132568	-0.494873
1204.0	13.219945	2.239991	1.67729	-0.187942	-0.818724	0.501636	-0.725098	0.143555	-0.490723
1205.0	12.081898	1.037722	0.622785	-0.277231	-0.619941	0.475881	-0.722656	0.13916	-0.483643
1206.0	10.773995	0.291551	0.022077	-0.017966	-0.418361	0.445373	-0.720703	0.145752	-0.486084
1207.0	9.707941	0.499118	1.019571	0.197462	-0.292199	0.46026	-0.727539	0.147949	-0.486328
1208.0	9.488636	0.451047	1.694582	0.279632	-0.331464	0.497585	-0.730225	0.156738	-0.474854
1209.0	10.222414	0.296295	1.586168	0.461566	-0.256752	0.547081	-0.72998	0.147949	-0.479248
1210.0	10.978549	0.321524	2.400495	0.419893	-0.115281	0.571354	-0.730469	0.161133	-0.475098
1211.0	12.258378	-0.161807	2.78085	0.226684	-0.160694	0.538372	-0.726074	0.165527	-0.477539
1212.0	13.714913	-0.492069	2.21103	0.225463	-0.114697	0.463716	-0.73291	0.169922	-0.475342
1213.0	14.457291	0.048088	1.524731	0.143669	0.005089	0.358235	-0.730713	0.167725	-0.470703
1214.0	14.376401	0.590917	0.980039	0.028784	0.147405	0.265122	-0.72876	0.174316	-0.470947
1215.0	12.726071	0.786558	1.016279	-0.150047	0.469733	0.194763	-0.730713	0.167725	-0.47998
1216.0	11.012432	0.544646	0.74265	-0.242475	0.459666	0.133477	-0.726318	0.169922	-0.47998
1217.0	10.384515	0.802122	0.327025	-0.082788	0.392288	0.082891	-0.724121	0.169922	-0.484863
1218.0	10.229975	1.622198	0.432411	-0.172916	0.365105	0.047417	-0.726563	0.178711	-0.489746
1219.0	10.448777	1.145165	0.039006	-0.370124	0.361787	0.018728	-0.72876	0.176514	-0.484863
1220.0	10.242648	0.779718	-0.070555	-0.250368	0.360299	-0.032941	-0.719971	0.18335	-0.48999
1221.0	9.936499	0.85904	-0.106415	-0.179165	0.414829	-0.082887	-0.712891	0.176758	-0.485107
1222.0	9.479191	0.827853	-0.352782	-0.308436	0.521624	-0.116653	-0.726807	0.183105	-0.496826
1223.0	8.706435	0.335803	-0.819061	-0.310596	0.557903	-0.131572	-0.712891	0.172363	-0.491699
1224.0	7.956333	0.39945	-0.627835	-0.185852	0.476585	-0.121565	-0.713135	0.176758	-0.494385
1225.0	7.422391	0.251254	-0.774884	-0.242678	0.389636	-0.094273	-0.710693	0.176758	-0.499023
1226.0	7.196337	-0.010557	-0.921373	-0.181962	0.294302	-0.060569	-0.717773	0.185547	-0.506104
1227.0	7.216632	0.06474	-0.764145	-0.132106	0.233596	-0.025663	-0.715332	0.176758	-0.505859
1228.0	7.344841	0.015456	-0.824708	-0.145318	0.196511	0.00473	-0.718018	0.185547	-0.513184
1229.0	7.55755	0.055315	-0.688034	-0.073511	0.224682	0.021951	-0.715576	0.181152	-0.503662
1230.0	7.46679	0.1701	-0.491692	-0.078208	0.31059	0.025904	-0.711182	0.187744	-0.510986
1231.0	7.550967	0.074668	-0.589433	-0.108736	0.31129	0.015689	-0.715576	0.185547	-0.513184
1232.0	7.615886	0.039865	-0.593867	-0.08217	0.331966	0.020083	-0.711182	0.187744	-0.517822
1233.0	7.614171	0.165706	-0.477851	-0.074466	0.328016	0.026633	-0.715576	0.185547	-0.517822
1234.0	7.563774	0.265355	-0.458304	-0.094223	0.360898	0.039339	-0.706787	0.189941	-0.515625
1235.0	7.426776	0.404257	-0.406206	-0.122025	0.343857	0.046536	-0.708984	0.185547	-0.524902
1236.0	7.441971	0.466472	-0.558779	-0.154977	0.250713	0.05379	-0.707031	0.196533	-0.506592
1237.0	7.437877	0.516198	-0.661905	-0.194018	0.180504	0.072317	-0.708984	0.189941	-0.520264
1238.0	7.465317	0.556404	-0.879448	-0.217063	0.116619	0.089632	-0.709229	0.196533	-0.525146
1239.0	7.377297	0.749395	-1.271789	-0.240299	0.041976	0.100665	-0.709229	0.192139	-0.522705
1240.0	7.409981	0.87889	-1.443949	-0.304427	-0.02581	0.110508	-0.713867	0.196533	-0.518311
1241.0	7.600965	1.058228	-1.659333	-0.331574	-0.090325	0.110703	-0.707275	0.200928	-0.522949
1242.0	7.693775	1.654976	-1.878371	-0.28874	-0.063683	0.122742	-0.711914	0.205322	-0.511719
1243.0	8.076083	2.280973	-1.469286	-0.258922	-0.003641	0.136005	-0.713867	0.19873	-0.520752
1244.0	9.122161	2.560629	-1.772648	-0.345777	-0.184585	0.112644	-0.718994	0.211914	-0.51416
1245.0	10.434416	2.309478	-1.94214	-0.435264	-0.188479	0.073176	-0.711914	0.205322	-0.518555
1246.0	11.268014	1.47743	-1.177625	-0.578957	-0.099786	0.038524	-0.709961	0.214111	-0.516602
1247.0	11.265683	0.182783	-0.587913	-0.623041	0.037077	0.046062	-0.714355	0.211914	-0.518799
1248.0	10.970544	-0.700167	-0.836871	-0.399715	0.124249	0.068165	-0.714844	0.218506	-0.514404
1249.0	10.971057	-0.724818	-1.393775	-0.149848	-0.000935	0.079848	-0.712158	0.211914	-0.516602
1250.0	11.547129	-0.752678	-1.577222	-0.033113	-0.080001	0.066711	-0.712646	0.225342	-0.514648
1251.0	11.833211	-1.05366	-1.404314	-0.015386	-0.027692	0.033733	-0.7146	0.216309	-0.514404
1252.0	11.506531	-1.398989	-1.888997	-0.018031	-0.011661	-0.031696	-0.717285	0.225098	-0.514648
1253.0	11.147443	-0.80225	-2.33283	0.106231	0.015342	-0.092538	-0.718994	0.214111	-0.507324
1254.0	10.927712	0.64469	-2.488055	0.090656	0.090618	-0.119412	-0.7146	0.216309	-0.516602
1255.0	10.666173	1.775569	-2.991994	-0.039254	0.049179	-0.115474	-0.714355	0.211914	-0.523438
1256.0	10.958555	2.625856	-3.104668	-0.080174	-0.132016	-0.106941	-0.721436	0.218506	-0.519043
1257.0	11.756595	2.589406	-2.37488	-0.226528	-0.231437	-0.111241	-0.718994	0.214111	-0.507324
1258.0	12.37729	1.741336	-0.931737	-0.365656	-0.265419	-0.159034	-0.72168	0.220703	-0.516846
1259.0	13.105175	0.024267	0.67835	-0.390093	-0.304364	-0.229523	-0.723633	0.214111	-0.502686
1260.0	13.42864	-1.192955	0.854824	-0.171244	-0.279547	-0.261533	-0.728027	0.211914	-0.511719
1261.0	12.262379	-0.859808	0.183901	0.154494	-0.190904	-0.2474	-0.723389	0.20752	-0.509277
1262.0	11.234265	-0.632196	0.253414	0.040606	-0.395287	-0.241522	-0.734619	0.20752	-0.504639
1263.0	10.767079	-0.873396	1.00291	0.009344	-0.5111	-0.251332	-0.734619	0.209717	-0.502441
1264.0	10.427604	-0.266971	2.11305	0.041322	-0.489666	-0.276729	-0.739014	0.205322	-0.49292
1265.0	10.020032	0.484817	2.074777	-0.073109	-0.448586	-0.316875	-0.734375	0.200928	-0.495117
1266.0	10.015881	0.58818	2.144767	-0.245786	-0.434402	-0.416407	-0.743408	0.200684	-0.495117
1267.0	10.600779	0.158616	2.64836	-0.328674	-0.610095	-0.539159	-0.745117	0.191895	-0.487793
1268.0	12.128447	0.236794	2.342239	-0.324331	-0.700081	-0.653561	-0.75	0.200684	-0.490479
1269.0	12.605577	0.445299	1.625058	-0.356994	-0.363743	-0.672053	-0.747559	0.191895	-0.483154
1270.0	12.049814	0.69903	1.014348	-0.280628	-0.248254	-0.631365	-0.751709	0.1875	-0.476074
1271.0	12.850521	0.897579	0.261058	-0.209317	-0.433677	-0.533642	-0.756104	0.185303	-0.471436
1272.0	13.108762	0.830773	0.667897	-0.25795	-0.199475	-0.384623	-0.760498	0.180908	-0.478271
1273.0	11.858196	0.311447	1.319614	-0.289744	0.126741	-0.260897	-0.760254	0.174316	-0.475586
1274.0	10.912251	-0.550691	0.525269	-0.13334	0.191591	-0.173658	-0.758545	0.185303	-0.480713
1275.0	10.243713	-1.266959	-0.20229	0.054294	0.323446	-0.090279	-0.76001	0.16748	-0.482422
1276.0	9.55902	-1.769784	0.339782	0.201714	0.275365	-0.041765	-0.758301	0.178711	-0.487305
1277.0	9.570305	-2.065778	0.309467	0.281298	-0.019861	-0.005828	-0.760254	0.172119	-0.480225
1278.0	9.663271	-2.065472	0.276128	0.317299	-0.018234	0.046527	-0.755859	0.176514	-0.482666
1279.0	9.214477	-2.051932	0.202041	0.322839	-0.012188	0.091229	-0.762451	0.169678	-0.484619
1280.0	8.593097	-1.762058	0.154	0.378721	0.018118	0.107697	-0.760254	0.174316	-0.484863
1281.0	8.175045	-1.147799	0.280816	0.329884	0.012355	0.101946	-0.757813	0.169922	-0.487061
1282.0	8.166605	-1.04078	0.046525	0.279084	-0.010882	0.10201	-0.760254	0.176514	-0.487305
1283.0	8.064456	-0.401677	0.295934	0.333072	0.056841	0.08788	-0.757813	0.169922	-0.493896
1284.0	8.141405	0.087475	0.335297	0.249599	0.0298	0.061568	-0.766846	0.172119	-0.494141
1285.0	8.266616	0.261165	-0.050103	0.231972	0.003544	0.057993	-0.76001	0.167725	-0.491699
1286.0	7.891285	0.565171	-0.286161	0.209655	0.016866	0.050265	-0.762451	0.169922	-0.496338
1287.0	7.785779	0.695129	-0.646672	0.171902	-0.046549	0.026755	-0.761963	0.163086	-0.493652
1288.0	7.788225	0.622576	-0.691858	0.157561	-0.053317	0.0046	-0.762451	0.169922	-0.500977
1289.0	7.746249	0.380913	-0.558297	0.138974	0.004963	0.004411	-0.766846	0.16748	-0.496338
1290.0	7.553838	0.274818	-0.416265	0.141401	0.026905	0.018866	-0.769043	0.169678	-0.491699
1291.0	7.881126	0.088276	-0.724667	0.109352	0.026355	0.019143	-0.762451	0.169922	-0.491699
1292.0	7.789159	-0.123306	-0.833827	0.090692	0.137044	0.029825	-0.766846	0.167725	-0.498535
1293.0	7.576172	-0.260495	-0.750376	0.084984	0.119753	0.032811	-0.764404	0.163086	-0.496094
1294.0	7.782117	-0.267054	-0.963129	0.092158	0.06703	0.027983	-0.764404	0.165527	-0.500732
1295.0	7.976809	-0.255596	-1.013657	0.062776	0.107747	0.029074	-0.76416	0.160889	-0.498291
1296.0	8.022311	-0.264926	-1.26113	0.053116	0.121836	0.030772	-0.768799	0.163086	-0.50293
1297.0	8.048982	-0.165491	-1.463825	0.086668	0.100536	0.02613	-0.76416	0.158691	-0.498291
1298.0	8.06993	-0.295985	-1.483136	0.039183	0.115273	0.0389	-0.766602	0.165527	-0.51001
1299.0	8.163975	-0.49345	-1.573058	0.089657	0.11115	0.023869	-0.768555	0.158691	-0.509766
1300.0	8.182481	-0.499868	-1.600626	0.115234	0.151335	0.01948	-0.770996	0.163086	-0.512207
1301.0	8.067832	-0.638212	-1.410094	0.109753	0.195216	-0.006565	-0.770996	0.163086	-0.512207
1302.0	8.131399	-0.631376	-1.351819	0.129657	0.212751	-0.077367	-0.768799	0.163086	-0.507568
1303.0	8.858589	-0.732846	-1.661136	0.195232	0.128422	-0.152663	-0.770752	0.154297	-0.519043
1304.0	9.666984	-0.582294	-1.819317	0.258061	0.101394	-0.184646	-0.770752	0.156494	-0.521484
1305.0	10.025366	-0.375662	-1.744862	0.378492	0.132315	-0.19851	-0.768311	0.1521	-0.518799
1306.0	10.311259	0.215885	-1.517022	0.461293	0.166713	-0.200269	-0.770752	0.1521	-0.523438
1307.0	10.546981	0.697144	-1.16497	0.346299	0.119575	-0.190002	-0.774902	0.145508	-0.520996
1308.0	10.622505	0.439436	-0.63099	0.008307	0.11033	-0.146205	-0.774902	0.143311	-0.530273
1309.0	10.063924	0.243508	-0.548996	-0.103604	0.204415	-0.103697	-0.770264	0.143311	-0.532471
1310.0	9.615834	1.104166	-1.33861	0.019192	0.107928	-0.064249	-0.772461	0.143311	-0.527832
1311.0	9.861353	1.825167	-2.733169	-0.037175	-0.065693	-0.030551	-0.774658	0.141113	-0.530029
1312.0	10.788869	1.067336	-3.84136	-0.147404	-0.232692	-0.019424	-0.776611	0.134521	-0.525146
1313.0	11.630997	-0.251476	-4.562539	0.006583	-0.261403	-0.03192	-0.776855	0.136719	-0.527588
1314.0	11.956936	-1.051776	-4.429661	0.226798	-0.180791	-0.047585	-0.774658	0.138916	-0.534668
1315.0	12.009433	-1.324931	-3.775267	0.292098	-0.093006	-0.042967	-0.7771	0.141113	-0.523193
1316.0	12.426596	-1.583709	-3.594415	0.229812	-0.161782	-0.00617	-0.781494	0.138916	-0.530029
1317.0	12.903898	-1.279499	-3.271324	0.264881	-0.328433	0.094246	-0.78125	0.134521	-0.527588
1318.0	13.150986	-0.305769	-1.522621	0.206226	-0.481387	0.273071	-0.783447	0.134521	-0.515869
1319.0	13.911701	1.118589	0.154586	0.202108	-0.917396	0.445444	-0.788086	0.136719	-0.51123
1320.0	14.422834	2.237357	0.852341	-0.022745	-0.955909	0.567167	-0.795166	0.145508	-0.5
1321.0	12.493894	1.547019	0.748418	-0.377516	-0.371681	0.54301	-0.799316	0.138916	-0.506836
1322.0	10.490613	0.176178	-0.002818	-0.263382	-0.186687	0.429618	-0.799805	0.147705	-0.502441
1323.0	10.748057	-0.587475	-0.658151	0.012082	-0.311853	0.371341	-0.797607	0.149902	-0.500244
