Acquisition frequency: 100 Hz
PacketCounter	Acc_X	Acc_Y	Acc_Z	Gyr_X	Gyr_Y	Gyr_Z	Mag_X	Mag_Y	Mag_Z
0.0	6.310942	2.011923	7.839294	-0.009484	0.009279	-0.013405	-0.676025	-0.032227	-0.335205
1.0	6.300489	1.996141	7.891518	-0.007109	0.013123	-0.01529	-0.669678	-0.027832	-0.339844
2.0	6.278544	2.008595	7.857549	-0.005738	0.009657	-0.01363	-0.665039	-0.030029	-0.342041
3.0	6.306766	2.012477	7.87626	-0.004462	0.010251	-0.012929	-0.671631	-0.030029	-0.339844
4.0	6.306511	2.013434	7.842471	-0.007015	0.009064	-0.014334	-0.669189	-0.036621	-0.344238
5.0	6.304744	2.013334	7.87766	-0.005822	0.008255	-0.015961	-0.669434	-0.030029	-0.344238
6.0	6.296022	1.998725	7.860682	-0.005995	0.010448	-0.009667	-0.669434	-0.030029	-0.342041
7.0	6.302512	2.01404	7.879265	-0.005498	0.014338	-0.016233	-0.671387	-0.034424	-0.342041
8.0	6.302044	2.015124	7.845627	-0.004464	0.010255	-0.012933	-0.665039	-0.032227	-0.339844
9.0	6.300083	2.015062	7.880946	-0.004982	0.012298	-0.014585	-0.669678	-0.027832	-0.34668
10.0	6.291079	2.000439	7.864203	-0.00737	0.013918	-0.011334	-0.669434	-0.032227	-0.344238
11.0	6.306008	2.031236	7.866028	-0.004982	0.0123	-0.014587	-0.673828	-0.030029	-0.342041
12.0	6.296289	2.016027	7.883731	-0.009067	0.011305	-0.01273	-0.667236	-0.032227	-0.344238
13.0	6.295963	2.0168	7.850077	-0.004384	0.011662	-0.010609	-0.669434	-0.032227	-0.337402
14.0	6.315573	2.004937	7.885764	-0.010344	0.010712	-0.013436	-0.671387	-0.034424	-0.344238
15.0	6.292882	2.016727	7.886272	-0.006341	0.010306	-0.017623	-0.667236	-0.032227	-0.339844
16.0	6.300243	2.032719	7.870264	-0.004385	0.011664	-0.010611	-0.671631	-0.030029	-0.351074
17.0	6.313069	2.006607	7.853643	-0.006081	0.009051	-0.012006	-0.667236	-0.030029	-0.335205
18.0	6.303548	1.991449	7.871163	-0.004467	0.010263	-0.012942	-0.671631	-0.032227	-0.342041
19.0	6.297146	2.033798	7.872464	-0.007019	0.009075	-0.014351	-0.662842	-0.032227	-0.333008
20.0	6.287726	2.018582	7.889909	-0.0065	0.007032	-0.0127	-0.673828	-0.032227	-0.348877
21.0	6.317682	2.023404	7.839654	-0.008135	0.011287	-0.010398	-0.673584	-0.034424	-0.342041
22.0	6.315926	2.022905	7.874876	-0.006839	0.006415	-0.011063	-0.669678	-0.027832	-0.342041
23.0	6.307397	2.008086	7.857821	-0.009491	0.009291	-0.013433	-0.669189	-0.034424	-0.3396
24.0	6.300887	2.05031	7.859232	-0.006264	0.011717	-0.015303	-0.671631	-0.032227	-0.339844
25.0	6.289014	1.978156	7.858529	-0.00728	0.009863	-0.010388	-0.669434	-0.030029	-0.339844
26.0	6.320329	2.039268	7.861169	-0.008217	0.009888	-0.012732	-0.673584	-0.034424	-0.342041
27.0	6.281624	2.020396	7.860632	-0.007359	0.008462	-0.012719	-0.673828	-0.027832	-0.339844
28.0	6.29369	1.993752	7.878465	-0.004471	0.010271	-0.012949	-0.677979	-0.034424	-0.342041
29.0	6.293451	1.994761	7.844738	-0.006605	0.011103	-0.013669	-0.673828	-0.032227	-0.342041
30.0	6.30004	2.009892	7.863259	-0.008557	0.009271	-0.011097	-0.671631	-0.030029	-0.339844
31.0	6.33689	2.029105	7.865213	-0.007777	0.006444	-0.013415	-0.669434	-0.030029	-0.34668
32.0	6.298448	2.010308	7.864428	-0.003433	0.006184	-0.009647	-0.675781	-0.034424	-0.3396
33.0	6.326777	2.01411	7.883137	-0.006945	0.010486	-0.012033	-0.669434	-0.032227	-0.342041
34.0	6.296539	2.010864	7.865814	-0.007023	0.009086	-0.014365	-0.671631	-0.030029	-0.342041
35.0	6.325701	2.015241	7.85007	-0.0077	0.007848	-0.011088	-0.673828	-0.030029	-0.342041
36.0	6.310867	2.041624	7.868156	-0.007623	0.009249	-0.008757	-0.673584	-0.034424	-0.342041
37.0	6.293704	2.011156	7.868009	-0.007805	0.011915	-0.01205	-0.671387	-0.034424	-0.337402
38.0	6.314107	1.999767	7.869299	-0.010278	0.012127	-0.011132	-0.671875	-0.027832	-0.34668
39.0	6.313018	1.999765	7.870173	-0.009496	0.009301	-0.013451	-0.673584	-0.034424	-0.3396
40.0	6.298904	2.026905	7.853846	-0.006948	0.010492	-0.012039	-0.673828	-0.027832	-0.337646
41.0	6.319551	2.015757	7.85489	-0.006504	0.007046	-0.012718	-0.669434	-0.030029	-0.342041
42.0	6.288593	2.011828	7.871922	-0.007364	0.008472	-0.012733	-0.669434	-0.032227	-0.342041
43.0	6.309259	2.000655	7.87296	-0.007364	0.008473	-0.012734	-0.671143	-0.038818	-0.341797
44.0	6.28673	2.012298	7.87329	-0.00609	0.009068	-0.012028	-0.666992	-0.034424	-0.3396
45.0	6.344924	2.0204	7.875785	-0.007547	0.011141	-0.016029	-0.671631	-0.030029	-0.344238
46.0	6.298637	1.98646	7.857449	-0.006692	0.009227	-0.006419	-0.673828	-0.032227	-0.339844
47.0	6.292277	2.028493	7.858747	-0.005231	0.007644	-0.012016	-0.669434	-0.032227	-0.342041
48.0	6.304301	2.001852	7.876628	-0.006199	0.013138	-0.012992	-0.673584	-0.036621	-0.344238
49.0	6.290169	2.029112	7.860275	-0.007779	0.006455	-0.013432	-0.671387	-0.034424	-0.344238
50.0	6.315496	1.975412	7.895123	-0.006092	0.009072	-0.012033	-0.669678	-0.027832	-0.339844
51.0	6.279801	2.014106	7.878356	-0.005754	0.009694	-0.013673	-0.669434	-0.032227	-0.339844
52.0	6.301319	2.003906	7.844905	-0.004555	0.008891	-0.015299	-0.673828	-0.032227	-0.34668
53.0	6.337895	2.023581	7.847049	-0.003132	0.012285	-0.009926	-0.674072	-0.025879	-0.339844
54.0	6.306567	2.019804	7.86428	-0.007212	0.01177	-0.017679	-0.673828	-0.030029	-0.337402
55.0	6.297924	2.00524	7.84729	-0.005159	0.009048	-0.00969	-0.665283	-0.025635	-0.344482
56.0	6.325897	2.009094	7.866316	-0.008	0.014597	-0.015363	-0.671875	-0.025635	-0.342041
57.0	6.324522	2.009306	7.867367	-0.008678	0.013353	-0.012085	-0.671631	-0.032227	-0.342041
58.0	6.285598	1.99028	7.866919	-0.007478	0.012551	-0.013711	-0.673828	-0.030029	-0.342041
59.0	6.306022	1.979209	7.868179	-0.007891	0.01053	-0.014405	-0.671631	-0.032227	-0.339844
60.0	6.300163	2.022179	7.83525	-0.005867	0.013771	-0.014644	-0.669434	-0.030029	-0.339844
61.0	6.305431	2.036862	7.888456	-0.005345	0.011723	-0.01299	-0.667236	-0.030029	-0.339844
62.0	6.296868	2.022331	7.8714	-0.006168	0.007681	-0.014378	-0.673828	-0.027832	-0.344482
63.0	6.31739	2.011242	7.8726	-0.008682	0.013357	-0.012092	-0.669434	-0.030029	-0.34668
64.0	6.316012	2.011579	7.87362	-0.005531	0.014398	-0.016289	-0.671631	-0.030029	-0.342041
65.0	6.306208	1.996412	7.891262	-0.00662	0.011131	-0.013704	-0.66748	-0.025635	-0.342285
66.0	6.284412	2.00881	7.857203	-0.005348	0.011727	-0.012995	-0.669434	-0.032227	-0.344238
67.0	6.32651	1.986625	7.858796	-0.00542	0.01033	-0.01533	-0.671631	-0.032227	-0.342041
68.0	6.312177	2.01403	7.842548	-0.006211	0.013154	-0.013013	-0.673828	-0.030029	-0.339844
69.0	6.318501	2.029342	7.861189	-0.005759	0.009708	-0.013692	-0.669189	-0.034424	-0.337402
70.0	6.322921	1.987779	7.861392	-0.007075	0.014581	-0.013031	-0.671631	-0.032227	-0.344238
71.0	6.307343	2.01421	7.879895	-0.010484	0.014816	-0.014469	-0.671387	-0.034424	-0.3396
72.0	6.327708	2.003175	7.881243	-0.004487	0.010307	-0.012985	-0.671875	-0.025635	-0.342041
73.0	6.30471	2.015046	7.881788	-0.00606	0.016458	-0.017957	-0.669434	-0.032227	-0.339844
74.0	6.311702	2.031358	7.866128	-0.004673	0.012983	-0.016285	-0.676025	-0.032227	-0.344238
75.0	6.317104	1.99065	7.83185	-0.007488	0.012564	-0.013732	-0.671631	-0.030029	-0.339844
76.0	6.309139	2.032203	7.867965	-0.006286	0.011764	-0.015358	-0.673828	-0.030029	-0.344238
77.0	6.290795	2.001411	7.90229	-0.005539	0.014412	-0.016305	-0.673584	-0.034424	-0.344238
78.0	6.306573	2.0333	7.869739	-0.003626	0.008886	-0.012975	-0.671631	-0.032227	-0.344238
79.0	6.281892	1.988447	7.851651	-0.004862	0.015665	-0.01959	-0.666992	-0.034424	-0.337402
80.0	6.325649	2.023363	7.871873	-0.002694	0.008859	-0.010625	-0.671875	-0.025635	-0.342041
81.0	6.295451	2.020112	7.854419	-0.008424	0.012597	-0.016093	-0.673584	-0.034424	-0.344238
82.0	6.307258	1.993567	7.872501	-0.005881	0.013791	-0.014671	-0.671631	-0.030029	-0.34668
83.0	6.301219	2.036656	7.839702	-0.005882	0.013792	-0.014672	-0.673828	-0.032227	-0.337402
84.0	6.298726	2.036319	7.875241	-0.008019	0.014622	-0.015403	-0.673828	-0.027832	-0.34668
85.0	6.32588	1.984135	7.841445	-0.005629	0.012512	-0.009039	-0.673828	-0.032227	-0.342041
86.0	6.309225	2.009872	7.894345	-0.008952	0.014654	-0.017759	-0.676025	-0.032227	-0.344238
87.0	6.295661	2.037944	7.843831	-0.00802	0.014625	-0.015407	-0.671631	-0.032227	-0.339844
88.0	6.285786	2.022592	7.861518	-0.006224	0.013171	-0.013037	-0.671387	-0.034424	-0.342041
89.0	6.327765	2.000474	7.863373	-0.005885	0.013799	-0.01468	-0.676025	-0.030029	-0.344238
90.0	6.283163	2.02329	7.863435	-0.007835	0.011949	-0.012111	-0.666992	-0.034424	-0.342041
91.0	6.303558	2.012313	7.864824	-0.007157	0.013204	-0.015395	-0.669434	-0.032227	-0.339844
92.0	6.302292	2.012591	7.865767	-0.007837	0.01195	-0.012114	-0.665039	-0.034424	-0.3396
93.0	6.300979	2.012698	7.866791	-0.008298	0.015399	-0.011438	-0.677979	-0.036621	-0.3396
94.0	6.291283	1.997171	7.884361	-0.006105	0.009101	-0.01208	-0.673828	-0.032227	-0.339844
95.0	6.298457	2.01299	7.868736	-0.012234	0.017685	-0.014545	-0.675781	-0.034424	-0.346436
96.0	6.318779	2.001907	7.870231	-0.007037	0.009134	-0.014437	-0.673828	-0.030029	-0.342041
97.0	6.29597	2.013586	7.870573	-0.005023	0.012382	-0.014671	-0.676025	-0.030029	-0.337402
98.0	6.332368	2.033433	7.873038	-0.004836	0.009701	-0.01137	-0.669678	-0.027832	-0.342041
99.0	6.28527	1.998643	7.888782	-0.006634	0.011158	-0.013745	-0.675781	-0.034424	-0.344238
100.0	6.292568	2.014764	7.872992	-0.006295	0.011788	-0.015388	-0.669678	-0.025635	-0.339844
101.0	6.291371	2.015172	7.873844	-0.006635	0.01116	-0.013747	-0.671631	-0.032227	-0.34668
102.0	6.311912	2.004141	7.875171	-0.010382	0.010763	-0.013554	-0.671631	-0.030029	-0.339844
103.0	6.297517	2.03114	7.859023	-0.00871	0.013383	-0.012145	-0.669434	-0.030029	-0.339844
104.0	6.317932	2.019952	7.8605	-0.011251	0.01219	-0.013575	-0.666992	-0.038818	-0.344238
105.0	6.279086	2.000524	7.859857	-0.008308	0.015408	-0.011451	-0.673584	-0.034424	-0.3396
106.0	6.344236	2.023773	7.880996	-0.008711	0.013386	-0.012148	-0.673828	-0.032227	-0.34668
107.0	6.313787	2.020229	7.863759	-0.0089	0.016071	-0.015453	-0.671631	-0.030029	-0.342041
108.0	6.312155	2.020471	7.865007	-0.009768	0.017498	-0.015474	-0.675781	-0.036621	-0.344238
109.0	6.302012	2.004875	7.882909	-0.010109	0.01687	-0.013834	-0.673584	-0.034424	-0.342041
110.0	6.308884	2.020719	7.867567	-0.00884	0.017468	-0.01312	-0.669189	-0.034424	-0.335205
111.0	6.291389	1.990145	7.867627	-0.009709	0.018895	-0.013141	-0.671387	-0.034424	-0.342041
112.0	6.297133	2.005072	7.886757	-0.008653	0.014785	-0.009819	-0.673828	-0.032227	-0.344238
113.0	6.279853	1.974652	7.886596	-0.005155	0.01648	-0.015654	-0.671631	-0.030029	-0.342041
114.0	6.272563	2.016975	7.888375	-0.006638	0.011174	-0.013764	-0.676025	-0.032227	-0.342041
115.0	6.301714	2.021828	7.873027	-0.007379	0.008521	-0.012819	-0.66748	-0.027832	-0.337646
116.0	6.284963	1.991437	7.872434	-0.007039	0.009152	-0.014462	-0.669434	-0.032227	-0.342041
117.0	6.299825	2.022571	7.874347	-0.004033	0.0069	-0.013707	-0.669189	-0.034424	-0.3396
118.0	6.320583	2.012013	7.875443	-0.005491	0.008991	-0.017729	-0.66748	-0.027832	-0.342041
119.0	6.276414	2.034936	7.874907	-0.001706	0.003386	-0.009666	-0.671387	-0.034424	-0.346436
120.0	6.311961	1.998099	7.858371	-0.007841	0.005108	-0.01586	-0.669189	-0.034424	-0.3396
121.0	6.297979	2.025497	7.841775	-0.004034	0.006903	-0.01371	-0.669434	-0.030029	-0.335205
122.0	6.304447	2.040933	7.860183	-0.003106	0.006869	-0.011351	-0.676025	-0.032227	-0.344238
123.0	6.287807	2.010525	7.85951	-0.009522	0.009351	-0.013563	-0.677979	-0.032227	-0.339844
124.0	6.308492	1.999626	7.860768	-0.005774	0.009755	-0.013752	-0.669189	-0.034424	-0.342041
125.0	6.314732	2.015038	7.879363	-0.005834	0.008365	-0.016093	-0.669678	-0.027832	-0.342041
126.0	6.306284	2.000649	7.862279	-0.004638	0.014435	-0.014003	-0.671631	-0.032227	-0.337402
127.0	6.312281	2.016069	7.881063	-0.004507	0.010355	-0.013038	-0.676025	-0.032227	-0.339844
128.0	6.312289	2.0174	7.847442	-0.008105	0.013275	-0.017802	-0.673828	-0.032227	-0.342041
129.0	6.295289	1.987232	7.846997	-0.004168	0.010989	-0.014683	-0.669189	-0.036621	-0.344238
130.0	6.287962	2.029579	7.848755	-0.00678	0.015265	-0.014746	-0.669434	-0.030029	-0.339844
131.0	6.285338	2.029142	7.884228	-0.004111	0.012382	-0.012345	-0.66748	-0.027832	-0.342041
132.0	6.307078	2.019238	7.851158	-0.007519	0.012611	-0.013803	-0.671387	-0.034424	-0.344238
133.0	6.297393	2.003857	7.868586	-0.005437	0.010395	-0.015406	-0.669434	-0.032227	-0.339844
134.0	6.29496	2.00346	7.903885	-0.005381	0.011786	-0.013066	-0.671387	-0.034424	-0.344238
135.0	6.288842	2.046598	7.871203	-0.005515	0.015869	-0.014034	-0.669434	-0.032227	-0.344238
136.0	6.30206	2.020883	7.854764	-0.00699	0.010555	-0.012144	-0.669434	-0.032227	-0.339844
137.0	6.300717	2.021156	7.85577	-0.007656	0.016697	-0.014777	-0.669678	-0.027832	-0.339844
138.0	6.276137	2.031754	7.890882	-0.006785	0.015273	-0.014757	-0.673828	-0.030029	-0.344238
139.0	6.290518	2.006924	7.840073	-0.007126	0.01464	-0.013115	-0.676025	-0.030029	-0.337402
140.0	6.309553	1.995174	7.876159	-0.008394	0.014043	-0.013836	-0.669434	-0.030029	-0.339844
141.0	6.301048	1.980494	7.859222	-0.007523	0.012619	-0.013815	-0.669434	-0.030029	-0.344238
142.0	6.293637	2.02248	7.861104	-0.009608	0.014835	-0.012217	-0.669189	-0.034424	-0.344238
143.0	6.28379	2.006837	7.878695	-0.006256	0.013219	-0.013098	-0.673828	-0.030029	-0.344238
144.0	6.30434	1.996012	7.880121	-0.006993	0.010562	-0.012154	-0.676025	-0.027832	-0.344482
145.0	6.282726	2.008287	7.84597	-0.008451	0.012658	-0.016184	-0.669434	-0.030029	-0.344238
146.0	6.310372	2.012623	7.865343	-0.002905	0.011606	-0.013981	-0.671387	-0.034424	-0.3396
147.0	6.294719	2.039075	7.88348	-0.007388	0.00854	-0.012855	-0.671631	-0.030029	-0.351074
148.0	6.278072	2.008671	7.882785	-0.004514	0.010374	-0.013059	-0.66748	-0.027832	-0.339844
149.0	6.28417	2.02413	7.901435	-0.004568	0.008986	-0.015402	-0.669434	-0.030029	-0.339844
150.0	6.284599	2.025476	7.86756	-0.004323	0.007679	-0.009751	-0.671631	-0.030029	-0.342041
151.0	6.283495	2.025853	7.868345	-0.008114	0.013298	-0.017836	-0.673828	-0.027832	-0.342041
152.0	6.324373	2.0032	7.904866	-0.004463	0.011765	-0.01072	-0.676025	-0.030273	-0.335205
153.0	6.27977	2.025708	7.904528	-0.005783	0.009778	-0.013785	-0.667236	-0.030029	-0.344238
154.0	6.310299	2.031707	7.854843	-0.006997	0.010568	-0.012164	-0.671631	-0.030029	-0.344238
155.0	6.307737	2.031076	7.89022	-0.008457	0.012666	-0.016198	-0.671631	-0.032227	-0.342041
156.0	6.269172	2.011654	7.889105	-0.006998	0.010569	-0.012166	-0.673584	-0.034424	-0.337402
157.0	6.328578	2.021442	7.857998	-0.006999	0.01057	-0.012167	-0.673828	-0.030029	-0.339844
158.0	6.28141	1.986253	7.873476	-0.006459	0.015929	-0.016425	-0.671631	-0.030029	-0.339844
159.0	6.267031	2.013533	7.85717	-0.005984	0.00506	-0.011178	-0.673828	-0.030029	-0.335205
160.0	6.32521	2.022561	7.860422	-0.006319	0.011845	-0.015459	-0.673828	-0.032227	-0.34668
161.0	6.271966	2.029141	7.876692	-0.006609	0.012597	-0.011472	-0.671387	-0.034424	-0.346436
162.0	6.292636	2.018337	7.878078	-0.006126	0.009148	-0.012149	-0.671631	-0.027832	-0.342041
163.0	6.291571	2.01865	7.878848	-0.006661	0.011211	-0.013818	-0.671631	-0.030029	-0.339844
164.0	6.30509	1.993036	7.862289	-0.006661	0.011212	-0.013819	-0.669434	-0.030029	-0.342041
165.0	6.289247	2.019339	7.880527	-0.006662	0.011213	-0.01382	-0.671631	-0.030029	-0.342041
166.0	6.302791	1.99383	7.863931	-0.005446	0.010426	-0.015443	-0.669434	-0.030029	-0.342041
167.0	6.310363	2.010142	7.848043	-0.003453	0.006264	-0.00974	-0.669678	-0.027832	-0.342041
168.0	6.323575	2.040466	7.884637	-0.006372	0.010466	-0.017812	-0.669434	-0.030029	-0.342041
169.0	6.285214	2.021086	7.883296	-0.00647	0.008514	-0.010511	-0.671631	-0.032227	-0.339844
170.0	6.292756	2.037313	7.867454	-0.005838	0.008405	-0.016146	-0.671631	-0.030029	-0.335205
171.0	6.313556	2.026715	7.868717	-0.00613	0.009154	-0.012158	-0.671631	-0.032227	-0.342041
172.0	6.312533	2.026967	7.869473	-0.007006	0.010579	-0.012182	-0.671631	-0.032227	-0.34668
173.0	6.304432	2.012211	7.852279	-0.009538	0.00938	-0.01363	-0.671631	-0.032227	-0.339844
174.0	6.280122	2.022512	7.886988	-0.005401	0.011819	-0.013106	-0.666992	-0.034424	-0.342041
175.0	6.302307	2.01297	7.85379	-0.002773	0.007546	-0.013035	-0.669189	-0.036621	-0.337402
176.0	6.30126	2.013386	7.854524	-0.008809	0.012045	-0.014579	-0.671631	-0.030029	-0.342041
177.0	6.298777	2.01283	7.889741	-0.002774	0.007548	-0.013036	-0.678223	-0.028076	-0.342041
178.0	6.321163	2.003254	7.856412	-0.006522	0.007133	-0.012864	-0.669434	-0.030029	-0.337402
179.0	6.283684	2.040395	7.873903	-0.008275	0.009983	-0.012913	-0.676025	-0.032227	-0.344238
180.0	6.304483	2.029597	7.875246	-0.007399	0.008559	-0.01289	-0.673828	-0.027832	-0.342041
181.0	6.295134	2.013836	7.892391	-0.009005	0.00732	-0.01197	-0.669678	-0.027832	-0.342041
182.0	6.295579	2.014789	7.858718	-0.010371	0.012194	-0.011319	-0.669189	-0.034424	-0.344238
183.0	6.286055	1.999064	7.875989	-0.002728	0.008938	-0.010694	-0.673828	-0.032227	-0.342041
184.0	6.300461	2.030225	7.878302	-0.008813	0.012051	-0.014588	-0.665283	-0.027832	-0.344482
185.0	6.293805	2.01643	7.826659	-0.008618	0.009347	-0.011274	-0.669189	-0.038818	-0.3396
186.0	6.298405	2.030483	7.87988	-0.0074	0.008563	-0.012896	-0.676025	-0.032227	-0.342041
187.0	6.305158	1.989831	7.84525	-0.006967	0.011973	-0.00985	-0.667236	-0.032227	-0.339844
188.0	6.311053	2.004891	7.864118	-0.007014	0.01059	-0.012197	-0.669189	-0.034424	-0.342041
189.0	6.318375	2.020893	7.848557	-0.009111	0.012799	-0.010602	-0.671875	-0.027832	-0.344482
190.0	6.294001	2.030974	7.883271	-0.006137	0.009167	-0.012174	-0.671631	-0.030029	-0.342041
191.0	6.285874	2.016243	7.86611	-0.008771	0.013441	-0.01225	-0.669434	-0.032227	-0.344238
192.0	6.307781	2.006379	7.833334	-0.010573	0.014907	-0.014647	-0.671875	-0.023438	-0.34668
193.0	6.276236	2.001443	7.850177	-0.009499	0.010777	-0.011307	-0.669434	-0.032227	-0.339844
194.0	6.332603	2.0094	7.88843	-0.007508	0.014044	-0.011527	-0.669678	-0.025635	-0.342041
195.0	6.287701	2.031352	7.8882	-0.009114	0.012803	-0.010609	-0.667236	-0.032227	-0.344238
196.0	6.301406	2.005547	7.871684	-0.00828	0.009996	-0.012932	-0.671631	-0.030029	-0.337402
197.0	6.278516	2.016586	7.871896	-0.008237	0.01138	-0.010586	-0.671387	-0.036621	-0.342041
198.0	6.299177	2.005847	7.873391	-0.005412	0.011841	-0.013126	-0.669434	-0.030029	-0.342041
199.0	6.298072	2.006102	7.87421	-0.009545	0.009398	-0.013662	-0.671387	-0.034424	-0.344238
200.0	6.304206	2.02118	7.892864	-0.005986	0.005083	-0.011214	-0.669434	-0.032227	-0.344238
201.0	6.304884	2.022543	7.858975	-0.005798	0.009818	-0.01383	-0.671631	-0.032227	-0.344238
202.0	6.273546	2.017821	7.875541	-0.008283	0.01	-0.012938	-0.675781	-0.034424	-0.342041
203.0	6.302841	2.023157	7.860455	-0.00492	0.008395	-0.013807	-0.669434	-0.032227	-0.344238
204.0	6.293405	2.007491	7.877587	-0.007362	0.009959	-0.010566	-0.673584	-0.034424	-0.3396
205.0	6.322715	2.012576	7.862565	-0.008625	0.009359	-0.011295	-0.671631	-0.032227	-0.344238
206.0	6.284952	2.049495	7.88014	-0.007943	0.010646	-0.014588	-0.676025	-0.027832	-0.34668
207.0	6.312262	1.996908	7.880511	-0.005902	0.007851	-0.006523	-0.671631	-0.030029	-0.344238
208.0	6.311266	1.996995	7.881286	-0.008824	0.012072	-0.014616	-0.669434	-0.030029	-0.337402
209.0	6.311665	1.998251	7.847678	-0.008286	0.010005	-0.012945	-0.671387	-0.034424	-0.342041
210.0	6.295736	2.024194	7.86588	-0.007364	0.009963	-0.010572	-0.665039	-0.030029	-0.34668
211.0	6.31798	2.014532	7.832914	-0.007562	0.012675	-0.013891	-0.667236	-0.032227	-0.34668
212.0	6.300327	2.039526	7.885687	-0.007024	0.010608	-0.01222	-0.671631	-0.030029	-0.344238
213.0	6.285445	2.009915	7.850363	-0.008287	0.010008	-0.012949	-0.673828	-0.032227	-0.342041
214.0	6.327965	1.988192	7.852562	-0.007864	0.013415	-0.009899	-0.665039	-0.030029	-0.339844
215.0	6.298495	2.040984	7.853829	-0.007025	0.01061	-0.012223	-0.671631	-0.032227	-0.342041
216.0	6.332624	2.003175	7.872412	-0.011995	0.010969	-0.010441	-0.669434	-0.030029	-0.344238
217.0	6.309555	2.014038	7.872756	-0.008446	0.014106	-0.013924	-0.678223	-0.028076	-0.344482
218.0	6.301392	1.999297	7.855664	-0.00917	0.011436	-0.012982	-0.673828	-0.032227	-0.342041
219.0	6.298733	1.998299	7.890976	-0.007368	0.009969	-0.01058	-0.669678	-0.027832	-0.34668
220.0	6.30763	2.015589	7.840979	-0.006303	0.013285	-0.013172	-0.671631	-0.032227	-0.342041
221.0	6.304715	2.014857	7.876423	-0.005041	0.013887	-0.012443	-0.680176	-0.032227	-0.344238
222.0	6.281859	2.02609	7.876479	-0.006908	0.00514	-0.013609	-0.676025	-0.027832	-0.344482
223.0	6.317686	1.989757	7.860437	-0.006305	0.013288	-0.013175	-0.671387	-0.034424	-0.3396
224.0	6.296165	2.002146	7.82622	-0.006345	0.011908	-0.015526	-0.676025	-0.030029	-0.342041
225.0	6.308838	2.032226	7.863162	-0.007751	0.007946	-0.011289	-0.676025	-0.032227	-0.344238
226.0	6.294101	2.002566	7.827772	-0.007911	0.012043	-0.012261	-0.671631	-0.032227	-0.339844
227.0	6.320076	2.005639	7.881863	-0.008292	0.010018	-0.012965	-0.671631	-0.032227	-0.339844
228.0	6.305621	2.032703	7.865619	-0.00703	0.01062	-0.012236	-0.671631	-0.030029	-0.34668
229.0	6.311098	1.991258	7.865349	-0.005806	0.009843	-0.013857	-0.673828	-0.032227	-0.344238
230.0	6.274759	2.029346	7.848408	-0.007951	0.010667	-0.014616	-0.671631	-0.032227	-0.339844
231.0	6.315624	2.006822	7.88513	-0.00631	0.013295	-0.013183	-0.676025	-0.028076	-0.339844
232.0	6.285624	2.002995	7.867346	-0.008797	0.013472	-0.012295	-0.671631	-0.032227	-0.339844
233.0	6.321579	2.023199	7.870679	-0.007032	0.010624	-0.012241	-0.678223	-0.028076	-0.337646
234.0	6.311993	2.007339	7.887905	-0.009177	0.011448	-0.013001	-0.676025	-0.032227	-0.344238
235.0	6.304049	1.992607	7.870658	-0.007033	0.010625	-0.012243	-0.66748	-0.027832	-0.339844
236.0	6.311334	2.008756	7.855209	-0.010062	0.012873	-0.013031	-0.671631	-0.030029	-0.339844
237.0	6.279747	2.003826	7.871825	-0.00635	0.011922	-0.01554	-0.676025	-0.030029	-0.344238
238.0	6.308707	2.009315	7.857176	-0.007162	0.016104	-0.010867	-0.669434	-0.032227	-0.342041
239.0	6.298883	1.993334	7.874609	-0.011325	0.012274	-0.013768	-0.671631	-0.030029	-0.344238
240.0	6.282621	2.019075	7.89298	-0.006999	0.012008	-0.009898	-0.667236	-0.030029	-0.344238
241.0	6.333604	2.013752	7.878917	-0.00509	0.012528	-0.014813	-0.671631	-0.030029	-0.342041
242.0	6.303662	2.009979	7.861055	-0.010065	0.012878	-0.01304	-0.671631	-0.032227	-0.344238
243.0	6.29398	1.994127	7.878328	-0.006694	0.01128	-0.0139	-0.676025	-0.032227	-0.342041
244.0	6.301146	2.010477	7.862944	-0.007202	0.014732	-0.013225	-0.671631	-0.027832	-0.342041
245.0	6.301451	2.012079	7.829471	-0.006011	0.01258	-0.017198	-0.671631	-0.030029	-0.339844
246.0	6.305048	2.026045	7.883197	-0.01146	0.017756	-0.012399	-0.669678	-0.027832	-0.342041
247.0	6.296799	2.011143	7.866255	-0.008807	0.013484	-0.012315	-0.673828	-0.032227	-0.344238
248.0	6.288615	1.996276	7.849255	-0.010577	0.016334	-0.012374	-0.669434	-0.030029	-0.337402
249.0	6.293912	2.011363	7.868509	-0.005978	0.013962	-0.014851	-0.669434	-0.032227	-0.339844
250.0	6.270578	2.022471	7.868876	-0.009351	0.015561	-0.013996	-0.666992	-0.034424	-0.344238
251.0	6.321399	2.017042	7.855084	-0.008809	0.013488	-0.012321	-0.667236	-0.030029	-0.342041
252.0	6.298134	2.02792	7.855454	-0.008434	0.015515	-0.011617	-0.669434	-0.030029	-0.339844
253.0	6.288215	2.011922	7.87292	-0.008435	0.015516	-0.011619	-0.669434	-0.032227	-0.337402
254.0	6.308775	2.001237	7.874677	-0.007925	0.012066	-0.012295	-0.673584	-0.034424	-0.342041
255.0	6.285489	2.01213	7.875043	-0.008062	0.017545	-0.010916	-0.677979	-0.032227	-0.34668
256.0	6.299114	1.986537	7.85883	-0.010615	0.014966	-0.01474	-0.669678	-0.027832	-0.342041
257.0	6.282558	2.012286	7.877342	-0.008812	0.013494	-0.012329	-0.671631	-0.030029	-0.339844
258.0	6.304885	2.002914	7.84461	-0.006324	0.013323	-0.013214	-0.669434	-0.030029	-0.34668
259.0	6.278232	2.01165	7.913708	-0.005438	0.011899	-0.013185	-0.671875	-0.027832	-0.344482
260.0	6.287191	2.029306	7.863857	-0.006325	0.013325	-0.013216	-0.671631	-0.030029	-0.344238
261.0	6.299338	2.002728	7.881849	-0.008845	0.012121	-0.014688	-0.671631	-0.030029	-0.344238
262.0	6.304812	2.017916	7.900913	-0.00544	0.011902	-0.013189	-0.671631	-0.030029	-0.337402
263.0	6.3054	2.019496	7.867303	-0.004523	0.011854	-0.010806	-0.669678	-0.027832	-0.34668
264.0	6.28893	1.98874	7.866425	-0.01062	0.014973	-0.014753	-0.671387	-0.036621	-0.337402
265.0	6.30285	2.019671	7.869301	-0.009875	0.01017	-0.009749	-0.676025	-0.032227	-0.344238
266.0	6.264701	1.999458	7.867546	-0.00793	0.012076	-0.01231	-0.669434	-0.030029	-0.339844
267.0	6.30061	2.019851	7.871049	-0.007044	0.010653	-0.012281	-0.671631	-0.030029	-0.337402
268.0	6.313035	1.993222	7.888837	-0.007416	0.008627	-0.012988	-0.671631	-0.032227	-0.339844
269.0	6.298694	2.020373	7.872448	-0.00527	0.007805	-0.012222	-0.66748	-0.027832	-0.335205
270.0	6.297664	2.020626	7.873208	-0.007933	0.012079	-0.012314	-0.671631	-0.030029	-0.344238
271.0	6.296663	2.020952	7.873924	-0.005299	0.006432	-0.014578	-0.669434	-0.032227	-0.342041
272.0	6.287258	2.005075	7.890892	-0.009536	0.010825	-0.011404	-0.667236	-0.032227	-0.344238
273.0	6.287951	2.00645	7.857288	-0.007963	0.010707	-0.014672	-0.669434	-0.030029	-0.339844
274.0	6.293496	2.021575	7.876296	-0.007047	0.010658	-0.012288	-0.669678	-0.027832	-0.342041
275.0	6.285814	2.00696	7.858868	-0.00616	0.009234	-0.012258	-0.673828	-0.030029	-0.337402
276.0	6.282946	2.005998	7.894092	-0.007964	0.01071	-0.014676	-0.671875	-0.027832	-0.344482
277.0	6.303748	1.995523	7.895679	-0.007049	0.01066	-0.012291	-0.676025	-0.030029	-0.339844
278.0	6.304539	1.997034	7.861982	-0.006161	0.009236	-0.012261	-0.669434	-0.032227	-0.344238
279.0	6.310262	2.012096	7.880858	-0.007763	0.00798	-0.01135	-0.673828	-0.028076	-0.335205
280.0	6.280849	2.008183	7.862523	-0.005273	0.007813	-0.012231	-0.678223	-0.028076	-0.344482
281.0	6.29987	1.996515	7.898523	-0.007597	0.012741	-0.013974	-0.673828	-0.032227	-0.344238
282.0	6.29372	2.039681	7.866107	-0.007394	0.010009	-0.010646	-0.665039	-0.030029	-0.344482
283.0	6.308048	2.014265	7.849417	-0.007421	0.008637	-0.013003	-0.669434	-0.032227	-0.344238
284.0	6.274869	2.007828	7.900048	-0.006163	0.00924	-0.012266	-0.671631	-0.032227	-0.348877
285.0	6.327973	2.004102	7.85166	-0.005794	0.011268	-0.01156	-0.665039	-0.032227	-0.342041
286.0	6.305146	2.015108	7.851531	-0.006902	0.005187	-0.013681	-0.676025	-0.032227	-0.337402
287.0	6.295689	1.999419	7.868465	-0.003851	0.013181	-0.014121	-0.673828	-0.027832	-0.34668
288.0	6.316479	1.989268	7.870019	-0.007105	0.007922	-0.017014	-0.671631	-0.030029	-0.34668
289.0	6.332305	2.022025	7.838286	-0.005454	0.011925	-0.013213	-0.673828	-0.030029	-0.344238
290.0	6.26378	1.996705	7.851804	-0.006738	0.009951	-0.016309	-0.671631	-0.030029	-0.339844
291.0	6.299637	2.017423	7.855358	-0.007971	0.010721	-0.014693	-0.673828	-0.030029	-0.339844
292.0	6.305111	2.032544	7.874399	-0.007057	0.01067	-0.012305	-0.669189	-0.034424	-0.3396
293.0	6.282302	1.987043	7.855055	-0.005113	0.012585	-0.014866	-0.678223	-0.030029	-0.344238
294.0	6.296205	2.018472	7.85784	-0.006167	0.009247	-0.012276	-0.673828	-0.032227	-0.344238
295.0	6.284878	2.001337	7.909239	-0.007082	0.0093	-0.014666	-0.671631	-0.032227	-0.344238
296.0	6.315973	2.008601	7.860169	-0.003857	0.013191	-0.01413	-0.675781	-0.034424	-0.3396
297.0	6.284502	2.003681	7.87632	-0.004044	0.007056	-0.013864	-0.673828	-0.027832	-0.342041
298.0	6.320626	2.024593	7.879639	-0.004044	0.007057	-0.013865	-0.667236	-0.030029	-0.342041
299.0	6.282818	2.004813	7.877375	-0.002787	0.007661	-0.013126	-0.674072	-0.025635	-0.344482
300.0	6.310357	2.009647	7.897008	-0.003336	0.009742	-0.014809	-0.669678	-0.027832	-0.344482
301.0	6.309495	2.010242	7.897546	-0.005669	0.004428	-0.015315	-0.673828	-0.032227	-0.339844
302.0	6.280175	2.006566	7.879037	-0.00368	0.009087	-0.01316	-0.671631	-0.032227	-0.344238
303.0	6.311347	2.014037	7.829903	-0.003886	0.011825	-0.016494	-0.671387	-0.034424	-0.342041
304.0	6.299947	1.996965	7.881313	-0.007772	0.007991	-0.011376	-0.669434	-0.030029	-0.337402
305.0	6.307259	2.01343	7.865928	-0.006013	0.014018	-0.014912	-0.676025	-0.030029	-0.342041
306.0	6.283942	2.024476	7.866107	-0.006356	0.013362	-0.013263	-0.671631	-0.027832	-0.342041
307.0	6.304709	2.01421	7.867772	-0.00583	0.009911	-0.013939	-0.671631	-0.030029	-0.339844
308.0	6.297065	1.999861	7.8503	-0.004231	0.011173	-0.014849	-0.671631	-0.030029	-0.342041
309.0	6.294118	1.999026	7.885446	-0.007452	0.007281	-0.01539	-0.667236	-0.030029	-0.344238
310.0	6.303522	2.016809	7.835491	-0.006153	0.010625	-0.009933	-0.673828	-0.032227	-0.342041
311.0	6.300649	2.015727	7.870636	-0.005282	0.007832	-0.012259	-0.671631	-0.030029	-0.339844
312.0	6.277736	2.026841	7.870452	-0.004597	0.009149	-0.015561	-0.673828	-0.032227	-0.344238
313.0	6.290387	2.000513	7.888046	-0.005647	0.005806	-0.012969	-0.673828	-0.032227	-0.337402
314.0	6.298033	2.017074	7.872384	-0.005283	0.007834	-0.012262	-0.669678	-0.027832	-0.348877
315.0	6.297129	2.01737	7.873032	-0.007433	0.008654	-0.013037	-0.673828	-0.032227	-0.344238
316.0	6.318138	2.007017	7.874555	-0.006177	0.009259	-0.012297	-0.671631	-0.032227	-0.339844
317.0	6.317023	2.007278	7.875383	-0.008877	0.012162	-0.014757	-0.680176	-0.032471	-0.339844
318.0	6.293903	2.018202	7.875398	-0.003665	0.010469	-0.010814	-0.671631	-0.032227	-0.339844
319.0	6.314925	2.007843	7.876921	-0.007777	0.007998	-0.011391	-0.673828	-0.030029	-0.344238
320.0	6.291861	2.018669	7.876909	-0.006366	0.013373	-0.013276	-0.673828	-0.027832	-0.34668
321.0	6.292625	2.020402	7.843321	-0.005836	0.009922	-0.013952	-0.669678	-0.027832	-0.342041
322.0	6.317953	2.02364	7.897702	-0.005454	0.013319	-0.010885	-0.673584	-0.034424	-0.342041
323.0	6.283702	2.00618	7.826864	-0.006368	0.013375	-0.01328	-0.673828	-0.030029	-0.34668
324.0	6.324436	1.983999	7.863896	-0.005474	0.011952	-0.013247	-0.671631	-0.027832	-0.342041
325.0	6.28769	2.021711	7.84694	-0.006712	0.012717	-0.011631	-0.671387	-0.034424	-0.342041
326.0	6.306391	2.010189	7.883158	-0.004789	0.013274	-0.016552	-0.671387	-0.034424	-0.3396
327.0	6.285123	2.022515	7.848789	-0.007056	0.012058	-0.009982	-0.665039	-0.034424	-0.3396
328.0	6.297471	1.995981	7.8667	-0.006389	0.012012	-0.015646	-0.665283	-0.027832	-0.342041
329.0	6.302554	2.011237	7.885958	-0.00601	0.015409	-0.012578	-0.673828	-0.032227	-0.342041
330.0	6.301232	2.011572	7.88693	-0.006732	0.011353	-0.013997	-0.669678	-0.027832	-0.342041
331.0	6.307315	1.970289	7.886405	-0.004031	0.00845	-0.011534	-0.671631	-0.030029	-0.348877
332.0	6.27918	2.024385	7.853063	-0.005495	0.010592	-0.015616	-0.669434	-0.032227	-0.342041
333.0	6.315715	1.988747	7.837219	-0.006525	0.00861	-0.010663	-0.671631	-0.027832	-0.342041
334.0	6.299215	2.01452	7.855303	-0.003689	0.009113	-0.013188	-0.675781	-0.034424	-0.3396
335.0	6.298095	2.015032	7.85607	-0.006392	0.012018	-0.015654	-0.671631	-0.030029	-0.344238
336.0	6.297033	2.015453	7.856814	-0.005288	0.007849	-0.012282	-0.678223	-0.028076	-0.342041
337.0	6.295914	2.01584	7.857611	-0.007288	0.013443	-0.015692	-0.671631	-0.032227	-0.344238
338.0	6.316738	2.005639	7.859324	-0.006184	0.009274	-0.012319	-0.669189	-0.034424	-0.348877
339.0	6.307204	1.989637	7.876301	-0.006721	0.012727	-0.011646	-0.677979	-0.036621	-0.342041
340.0	6.292487	2.016626	7.860154	-0.008335	0.010094	-0.013101	-0.671631	-0.030029	-0.342041
341.0	6.304905	1.990025	7.878044	-0.008889	0.012181	-0.01479	-0.66748	-0.025635	-0.337646
342.0	6.290071	2.016945	7.862006	-0.007962	0.013491	-0.010033	-0.673584	-0.034424	-0.344238
343.0	6.310931	2.006466	7.863777	-0.009591	0.009492	-0.01385	-0.673584	-0.034424	-0.337402
344.0	6.309847	2.006438	7.864654	-0.009561	0.012225	-0.009128	-0.673828	-0.030029	-0.339844
345.0	6.30863	2.006493	7.865616	-0.007636	0.01279	-0.014049	-0.675781	-0.034424	-0.3396
346.0	6.315843	2.023055	7.85038	-0.007994	0.010762	-0.014761	-0.671631	-0.032227	-0.34668
347.0	6.30624	2.007141	7.867368	-0.005486	0.011973	-0.01327	-0.671631	-0.030029	-0.344238
348.0	6.274666	2.001807	7.883424	-0.005844	0.009945	-0.013982	-0.675537	-0.038818	-0.337402
349.0	6.297686	1.993114	7.850607	-0.003679	0.010492	-0.010839	-0.669434	-0.032227	-0.344238
350.0	6.311298	2.024717	7.853606	-0.007309	0.012092	-0.01807	-0.674072	-0.025635	-0.344482
351.0	6.33239	2.014527	7.855148	-0.00417	0.005051	-0.006557	-0.673828	-0.032227	-0.342041
352.0	6.287495	2.035793	7.854011	-0.008907	0.010825	-0.017166	-0.673584	-0.034424	-0.3396
353.0	6.306176	2.024202	7.89025	-0.006387	0.013401	-0.013313	-0.678223	-0.030273	-0.339844
354.0	6.314319	1.98424	7.855398	-0.006176	0.010651	-0.009973	-0.671631	-0.032227	-0.342041
355.0	6.297541	2.009717	7.873675	-0.009239	0.011529	-0.013156	-0.669678	-0.027832	-0.342041
356.0	6.302663	2.024727	7.892922	-0.008896	0.012194	-0.014809	-0.678223	-0.030273	-0.337402
357.0	6.323464	2.014518	7.894718	-0.006745	0.011376	-0.014027	-0.671387	-0.034424	-0.346436
358.0	6.324363	2.016224	7.861177	-0.007987	0.012136	-0.012413	-0.675781	-0.034424	-0.342041
359.0	6.292767	2.010613	7.877262	-0.007089	0.010714	-0.012377	-0.673828	-0.030029	-0.342041
360.0	6.285125	1.99598	7.859939	-0.008187	0.016255	-0.013394	-0.671631	-0.032227	-0.337402
361.0	6.312125	2.000582	7.88018	-0.008	0.010775	-0.01478	-0.669189	-0.034424	-0.344238
362.0	6.31309	2.002348	7.846589	-0.008	0.010776	-0.014781	-0.671387	-0.034424	-0.3396
363.0	6.287815	2.011655	7.88095	-0.005838	0.011322	-0.011634	-0.673828	-0.030029	-0.344238
364.0	6.288838	2.013344	7.847336	-0.008345	0.010112	-0.013131	-0.665283	-0.027832	-0.342041
365.0	6.301289	1.986643	7.865248	-0.00798	0.013506	-0.010057	-0.671631	-0.032227	-0.34668
366.0	6.308736	2.003122	7.849892	-0.006901	0.005237	-0.01377	-0.671387	-0.034424	-0.348877
367.0	6.291994	2.02864	7.86807	-0.008891	0.013567	-0.01246	-0.673828	-0.032227	-0.344238
368.0	6.312654	2.01846	7.87001	-0.008215	0.013537	-0.018131	-0.669678	-0.027832	-0.344482
369.0	6.311507	2.018764	7.870852	-0.007791	0.008026	-0.011446	-0.669434	-0.032227	-0.342041
370.0	6.302083	2.002647	7.887689	-0.008004	0.010783	-0.014791	-0.671387	-0.034424	-0.344238
371.0	6.300962	2.002908	7.888518	-0.007095	0.010723	-0.01239	-0.673828	-0.030029	-0.34668
372.0	6.277883	2.01362	7.888362	-0.006195	0.0093	-0.012353	-0.671875	-0.025635	-0.342041
373.0	6.292707	1.988566	7.871631	-0.008701	0.00809	-0.013852	-0.678223	-0.030029	-0.348877
374.0	6.322338	1.994627	7.857093	-0.006893	0.006606	-0.011413	-0.667236	-0.030029	-0.337402
375.0	6.299486	2.005348	7.85675	-0.005297	0.007879	-0.012318	-0.676025	-0.028076	-0.337646
376.0	6.320702	1.995085	7.858292	-0.010299	0.006819	-0.012952	-0.669678	-0.027832	-0.348877
377.0	6.306402	2.02192	7.841819	-0.009751	0.003367	-0.013627	-0.673828	-0.032227	-0.344238
378.0	6.325781	2.010023	7.877567	-0.008842	0.003306	-0.011224	-0.671875	-0.025635	-0.339844
379.0	6.294792	2.004196	7.893116	-0.008499	0.003974	-0.012879	-0.669434	-0.030029	-0.339844
380.0	6.296307	2.005845	7.859171	-0.008148	0.006004	-0.012167	-0.671631	-0.032227	-0.342041
381.0	6.346056	2.000001	7.879814	-0.006346	0.003157	-0.012093	-0.675781	-0.034424	-0.342041
382.0	6.290888	1.993009	7.807336	-0.006201	0.009307	-0.01236	-0.673828	-0.030029	-0.342041
383.0	6.309893	1.981333	7.843328	-0.007805	0.006673	-0.013823	-0.675781	-0.036621	-0.344238
384.0	6.29139	2.005249	7.89556	-0.00488	0.001005	-0.008	-0.671631	-0.032227	-0.339844
385.0	6.301496	2.023356	7.845392	-0.006905	0.005251	-0.013787	-0.673584	-0.036621	-0.3396
386.0	6.314561	1.996872	7.862774	-0.006347	0.00316	-0.012096	-0.673828	-0.027832	-0.339844
387.0	6.320285	2.011989	7.881476	-0.005095	0.003766	-0.011346	-0.671875	-0.027832	-0.344482
388.0	6.283087	1.991505	7.878569	-0.006348	0.00316	-0.012097	-0.673828	-0.032227	-0.337402
389.0	6.319155	2.0125	7.882252	-0.006899	0.006613	-0.011423	-0.671387	-0.038818	-0.344238
390.0	6.29863	2.024574	7.84738	-0.007593	0.003916	-0.010483	-0.671631	-0.030029	-0.337402
391.0	6.311639	1.997832	7.864876	-0.010306	0.006826	-0.012964	-0.671387	-0.034424	-0.342041
392.0	6.317111	2.012708	7.883836	-0.005991	0.006552	-0.00902	-0.676025	-0.028076	-0.337646
393.0	6.322996	2.017392	7.781084	-0.006334	0.005883	-0.007367	-0.673828	-0.032227	-0.335205
394.0	6.3179	2.014331	7.850512	-0.007802	0.008039	-0.011464	-0.678223	-0.030029	-0.344238
395.0	6.33067	1.987731	7.868168	-0.00746	0.008709	-0.013119	-0.671387	-0.034424	-0.351074
396.0	6.29402	2.025082	7.850946	-0.007803	0.008041	-0.011466	-0.671631	-0.030029	-0.344238
397.0	6.300688	1.983629	7.850145	-0.006901	0.006618	-0.011429	-0.680176	-0.032227	-0.344238
398.0	6.316493	2.016814	7.818751	-0.003019	0.011869	-0.014175	-0.676025	-0.032227	-0.342041
399.0	6.341445	2.020072	7.873297	-0.009615	0.009529	-0.013913	-0.675781	-0.034424	-0.342041
400.0	6.328081	1.990604	7.837268	-0.005301	0.009255	-0.009966	-0.671631	-0.030029	-0.339844
401.0	6.302823	1.999597	7.871495	-0.006204	0.010678	-0.010005	-0.671387	-0.034424	-0.342041
402.0	6.301828	1.999788	7.872243	-0.007462	0.008714	-0.013126	-0.671631	-0.030029	-0.339844
403.0	6.337513	2.020887	7.876254	-0.006211	0.009321	-0.012375	-0.671387	-0.034424	-0.342041
404.0	6.302134	2.001982	7.839192	-0.004056	0.008504	-0.011585	-0.673828	-0.027832	-0.337646
405.0	6.329397	2.006619	7.85928	-0.009612	0.010891	-0.011552	-0.671631	-0.030029	-0.342041
406.0	6.330725	2.008357	7.825538	-0.006908	0.005264	-0.013805	-0.676025	-0.032227	-0.342041
407.0	6.327413	2.007239	7.860718	-0.005739	0.014789	-0.016666	-0.671631	-0.032227	-0.339844
408.0	6.328458	2.009187	7.827158	-0.007807	0.008047	-0.011478	-0.669434	-0.030029	-0.339844
409.0	6.316825	1.991425	7.878355	-0.006774	0.01142	-0.014074	-0.673828	-0.027832	-0.344482
410.0	6.317919	1.993309	7.844775	-0.007117	0.010749	-0.01242	-0.67627	-0.025879	-0.344482
411.0	6.338874	1.983246	7.846568	-0.006775	0.011421	-0.014076	-0.676025	-0.032227	-0.342041
412.0	6.315635	1.993919	7.84646	-0.005867	0.011357	-0.011669	-0.673828	-0.032227	-0.342041
413.0	6.320598	2.008974	7.865756	-0.006772	0.01278	-0.011709	-0.669189	-0.034424	-0.342041
414.0	6.288695	2.003274	7.881853	-0.006647	0.016221	-0.016714	-0.673828	-0.032227	-0.337402
415.0	6.303382	1.978485	7.865324	-0.005307	0.009264	-0.009978	-0.673828	-0.030029	-0.342041
416.0	6.310758	1.995124	7.850076	-0.00712	0.010753	-0.012427	-0.676025	-0.032227	-0.337402
417.0	6.323946	2.026699	7.85347	-0.005742	0.016158	-0.014309	-0.673584	-0.034424	-0.342041
418.0	6.305773	1.994303	7.886477	-0.004276	0.01264	-0.012576	-0.676025	-0.028076	-0.339844
419.0	6.328867	1.985957	7.853956	-0.007682	0.012851	-0.014126	-0.675781	-0.034424	-0.342041
420.0	6.313902	2.013068	7.837909	-0.005528	0.012036	-0.013333	-0.67627	-0.025879	-0.344482
421.0	6.318802	2.028162	7.857232	-0.008027	0.01218	-0.012473	-0.675781	-0.034424	-0.344238
422.0	6.331389	2.001679	7.875035	-0.003716	0.010548	-0.010885	-0.677979	-0.032227	-0.344238
423.0	6.308214	2.012313	7.874839	-0.007122	0.010758	-0.012436	-0.68042	-0.030273	-0.344238
424.0	6.33151	2.00372	7.842258	-0.009622	0.010902	-0.011577	-0.676025	-0.032227	-0.337402
425.0	6.305877	2.012616	7.876634	-0.003935	0.014677	-0.011868	-0.675781	-0.036621	-0.346436
426.0	6.326637	2.002663	7.878603	-0.007686	0.012857	-0.014135	-0.676025	-0.030029	-0.344238
427.0	6.291091	1.983608	7.841708	-0.00678	0.012791	-0.011725	-0.671631	-0.032227	-0.339844
428.0	6.326401	2.004799	7.846105	-0.007687	0.012859	-0.014137	-0.673828	-0.032227	-0.339844
429.0	6.325109	2.005091	7.847072	-0.007687	0.01286	-0.014139	-0.677979	-0.032227	-0.344238
430.0	6.293397	1.999116	7.862988	-0.010531	0.010973	-0.013996	-0.675781	-0.034424	-0.344238
431.0	6.328725	2.02027	7.867392	-0.006439	0.013469	-0.013385	-0.682617	-0.030273	-0.342041
432.0	6.315266	1.991126	7.831461	-0.00394	0.013329	-0.014245	-0.673828	-0.030029	-0.337402
433.0	6.295663	2.01488	7.884221	-0.008377	0.011515	-0.010833	-0.671387	-0.036621	-0.3396
434.0	6.310496	1.989963	7.867712	-0.00644	0.013472	-0.013389	-0.673828	-0.030029	-0.34668
435.0	6.293161	2.015302	7.88611	-0.008034	0.012191	-0.012491	-0.673828	-0.032227	-0.342041
436.0	6.302736	2.033718	7.836584	-0.005877	0.010021	-0.014066	-0.68457	-0.032471	-0.333008
437.0	6.307008	1.990825	7.87029	-0.007128	0.010769	-0.012452	-0.671631	-0.032227	-0.342041
438.0	6.320186	2.022544	7.873669	-0.004848	0.013404	-0.016664	-0.676025	-0.032227	-0.342041
439.0	6.318215	1.96505	7.889038	-0.00894	0.010908	-0.01728	-0.677979	-0.034424	-0.3396
440.0	6.303465	1.992248	7.872768	-0.005312	0.006571	-0.014744	-0.673828	-0.032227	-0.342041
441.0	6.321502	2.027426	7.807185	-0.003946	0.013339	-0.014254	-0.673828	-0.030029	-0.339844
442.0	6.33766	2.014282	7.877903	-0.006787	0.011449	-0.014114	-0.671631	-0.030029	-0.339844
443.0	6.302312	1.995303	7.840828	-0.006788	0.01145	-0.014115	-0.673828	-0.032227	-0.344238
444.0	6.307048	2.010367	7.860248	-0.009853	0.013689	-0.014958	-0.671387	-0.036621	-0.344238
445.0	6.311703	2.025421	7.879733	-0.006449	0.013482	-0.013402	-0.671875	-0.027832	-0.344482
446.0	6.298221	1.996257	7.843872	-0.00667	0.01626	-0.016758	-0.676025	-0.030029	-0.344238
447.0	6.319085	1.986378	7.845822	-0.00532	0.009284	-0.010008	-0.673828	-0.027832	-0.344482
448.0	6.301768	2.011659	7.864152	-0.01076	0.013763	-0.017379	-0.676025	-0.030029	-0.342041
449.0	6.330899	2.018203	7.850283	-0.006451	0.013486	-0.013407	-0.676025	-0.030029	-0.344238
450.0	6.321226	2.001997	7.867182	-0.008948	0.012272	-0.014926	-0.673828	-0.032227	-0.339844
451.0	6.325853	2.017049	7.88668	-0.007362	0.014911	-0.013452	-0.671631	-0.032227	-0.344238
452.0	6.290427	1.998032	7.849672	-0.005544	0.012066	-0.013369	-0.676025	-0.032227	-0.342041
453.0	6.317183	2.002856	7.87021	-0.007368	0.016266	-0.011082	-0.673828	-0.030029	-0.342041
454.0	6.315711	2.003052	7.871342	-0.007363	0.014914	-0.013457	-0.676025	-0.030029	-0.342041
455.0	6.288658	2.000703	7.818379	-0.003947	0.012003	-0.016643	-0.677979	-0.034424	-0.344238
456.0	6.307091	1.989176	7.85476	-0.008957	0.01363	-0.012562	-0.676025	-0.030029	-0.342041
457.0	6.314059	2.00591	7.839921	-0.008269	0.014988	-0.015877	-0.673828	-0.032227	-0.342041
458.0	6.310178	2.004601	7.875384	-0.006112	0.014174	-0.015076	-0.673828	-0.030029	-0.337402
459.0	6.314702	2.019864	7.894891	-0.006113	0.014175	-0.015078	-0.676025	-0.030029	-0.342041
460.0	6.329548	1.995363	7.87842	-0.005203	0.012753	-0.015036	-0.667236	-0.030029	-0.337402
461.0	6.33063	1.997475	7.845018	-0.008616	0.014313	-0.014227	-0.669189	-0.034424	-0.342041
462.0	6.28248	2.016602	7.878305	-0.00486	0.013435	-0.016696	-0.673828	-0.027832	-0.339844
463.0	6.303157	2.006832	7.880437	-0.008281	0.016346	-0.013514	-0.673584	-0.034424	-0.351074
464.0	6.301595	2.007156	7.881604	-0.00578	0.016212	-0.014369	-0.680176	-0.032471	-0.339844
465.0	6.300018	2.00738	7.882807	-0.009538	0.017092	-0.011904	-0.673828	-0.032227	-0.342041
466.0	6.292653	1.992632	7.865456	-0.008963	0.013639	-0.012579	-0.673828	-0.030029	-0.335205
467.0	6.305548	2.024136	7.869136	-0.007373	0.014928	-0.013476	-0.671631	-0.032227	-0.337402
468.0	6.311941	1.983081	7.868669	-0.004527	0.015475	-0.015987	-0.671631	-0.032227	-0.342041
469.0	6.294238	2.008675	7.887093	-0.00396	0.013372	-0.014287	-0.671631	-0.032227	-0.337402
470.0	6.295324	2.010982	7.853676	-0.004872	0.014796	-0.014333	-0.671631	-0.030029	-0.342041
471.0	6.285588	1.99494	7.870518	-0.006454	0.012158	-0.015813	-0.673584	-0.034424	-0.337402
472.0	6.323425	2.01841	7.840568	-0.002817	0.007817	-0.013261	-0.669434	-0.030029	-0.342041
473.0	6.305587	1.985891	7.873053	-0.005209	0.012768	-0.015054	-0.671631	-0.030029	-0.34668
474.0	6.290529	2.013084	7.856979	-0.005554	0.012088	-0.013397	-0.676025	-0.032227	-0.342041
475.0	6.31148	2.003325	7.858943	-0.005555	0.012089	-0.013398	-0.673828	-0.027832	-0.342041
476.0	6.316109	2.018548	7.878344	-0.004309	0.012698	-0.012637	-0.674072	-0.025635	-0.34668
477.0	6.317267	2.020923	7.844884	-0.005768	0.013526	-0.019137	-0.671387	-0.034424	-0.344238
478.0	6.329937	1.994728	7.862629	-0.00442	0.007882	-0.009996	-0.676025	-0.030029	-0.344238
479.0	6.300945	1.990601	7.843654	-0.002141	0.010536	-0.014208	-0.675781	-0.034424	-0.344238
480.0	6.311446	2.020912	7.881474	-0.003955	0.012033	-0.016675	-0.673828	-0.032227	-0.348877
481.0	6.312786	2.023397	7.847852	-0.003388	0.009929	-0.014973	-0.677979	-0.032227	-0.344238
482.0	6.303277	2.007601	7.864434	-0.001798	0.011221	-0.01587	-0.673584	-0.034424	-0.344238
483.0	6.274093	2.003759	7.845528	-0.004289	0.010004	-0.017397	-0.669189	-0.034424	-0.346436
484.0	6.266557	1.87392	7.85609	0.002211	0.004865	-0.019723	-0.675781	-0.034424	-0.342041
485.0	6.29399	1.881304	7.875541	0.021955	-0.003611	-0.036745	-0.669434	-0.030029	-0.342041
486.0	6.293271	1.770142	7.903048	0.034425	-0.015824	-0.050238	-0.675781	-0.036621	-0.346436
487.0	6.244848	1.909603	7.939078	0.043567	-0.020306	-0.063208	-0.671387	-0.034424	-0.344238
488.0	6.300908	1.974031	7.874218	0.057924	-0.026474	-0.072152	-0.676025	-0.032227	-0.339844
489.0	6.354749	2.037698	7.843095	0.056932	-0.033897	-0.07671	-0.677979	-0.036621	-0.344238
490.0	6.335836	2.058733	7.804512	0.056992	-0.026356	-0.07464	-0.673584	-0.036621	-0.3396
491.0	6.313997	2.01995	7.81504	0.058224	-0.025721	-0.07391	-0.671387	-0.034424	-0.3396
492.0	6.33461	2.076157	7.83284	0.078337	-0.031587	-0.070009	-0.682373	-0.036621	-0.335205
493.0	6.296632	2.121011	7.845841	0.062832	-0.023909	-0.06927	-0.669189	-0.036621	-0.3396
494.0	6.352084	2.012397	7.824215	0.060069	-0.019633	-0.069437	-0.675781	-0.036621	-0.342041
495.0	6.374192	2.127616	7.793709	0.066605	-0.014502	-0.064953	-0.675537	-0.041016	-0.3396
496.0	6.307244	2.108863	7.802678	0.073381	-0.012148	-0.057095	-0.673584	-0.036621	-0.3396
497.0	6.332552	2.17969	7.839477	0.075204	-0.01496	-0.057033	-0.679688	-0.043213	-0.3396
498.0	6.304298	2.184023	7.817522	0.074588	-0.010137	-0.054018	-0.675537	-0.043213	-0.341797
499.0	6.340572	2.098627	7.84838	0.067999	-0.011183	-0.051411	-0.67334	-0.038818	-0.3396
500.0	6.332061	2.148762	7.847343	0.068919	-0.013934	-0.053768	-0.675537	-0.041016	-0.337402
501.0	6.31803	2.183702	7.827715	0.067565	-0.016638	-0.04712	-0.673096	-0.04541	-0.341797
502.0	6.31494	2.178177	7.772502	0.062895	-0.015714	-0.047082	-0.67334	-0.038818	-0.337402
503.0	6.337719	2.176565	7.770939	0.083565	-0.019504	-0.03436	-0.67334	-0.041016	-0.3396
504.0	6.352236	2.216698	7.770215	0.092803	-0.013159	-0.020246	-0.673096	-0.047607	-0.337158
505.0	6.355054	2.227003	7.732887	0.114509	-0.006004	-0.008104	-0.673096	-0.04541	-0.334961
506.0	6.405827	2.173986	7.765863	0.125648	0.002353	0.003391	-0.677734	-0.041016	-0.334961
507.0	6.383152	2.194247	7.762064	0.154238	0.011309	0.01115	-0.668945	-0.043213	-0.341797
508.0	6.368653	2.175143	7.757003	0.188992	0.013182	0.015805	-0.679688	-0.04541	-0.3396
509.0	6.360523	2.174124	7.768907	0.231362	-0.004406	0.014691	-0.675293	-0.047607	-0.337158
510.0	6.357552	2.361972	7.751926	0.189788	0.000333	0.00641	-0.671143	-0.043213	-0.3396
511.0	6.358126	2.316963	7.763491	0.151474	-0.00199	0.0099	-0.675293	-0.047607	-0.337158
512.0	6.335556	2.39453	7.743447	0.124186	0.007491	0.011686	-0.679443	-0.049805	-0.337158
513.0	6.318876	2.42637	7.758312	0.078981	0.007482	0.02674	-0.679688	-0.043213	-0.334961
514.0	6.313069	2.413712	7.739422	0.039518	0.013362	0.034005	-0.675049	-0.049805	-0.337158
515.0	6.284451	2.465634	7.704525	0.015573	0.01924	0.042477	-0.672852	-0.049805	-0.334961
516.0	6.309472	2.467225	7.759803	-0.0189	0.024905	0.047991	-0.675049	-0.049805	-0.337158
517.0	6.27529	2.325322	7.75641	-0.04905	0.027647	0.052723	-0.67334	-0.041016	-0.332764
518.0	6.194937	2.328438	7.840591	-0.078453	0.019422	0.062913	-0.675537	-0.043213	-0.334961
519.0	6.225494	2.381513	7.812942	-0.098137	0.013504	0.066173	-0.671143	-0.038818	-0.3396
520.0	6.221292	2.309082	7.900857	-0.120579	0.011845	0.069246	-0.679688	-0.043213	-0.337158
521.0	6.158593	2.324648	7.865784	-0.148032	-0.008044	0.083172	-0.671143	-0.043213	-0.337158
522.0	6.079901	2.317027	7.983985	-0.173335	-0.031427	0.0931	-0.67749	-0.043213	-0.3396
523.0	6.045361	2.387999	8.019867	-0.196768	-0.07267	0.107096	-0.677979	-0.036621	-0.332764
524.0	5.920592	2.320402	8.164157	-0.227952	-0.114826	0.113082	-0.677979	-0.036621	-0.335205
525.0	5.721855	2.367651	8.235549	-0.218405	-0.171933	0.095933	-0.682373	-0.036865	-0.332764
526.0	5.948695	2.338044	8.328936	-0.220354	-0.241485	0.112003	-0.678223	-0.030273	-0.333008
527.0	5.866237	2.08651	8.472605	-0.18938	-0.357863	0.144533	-0.680176	-0.034668	-0.330566
528.0	5.641426	2.046069	8.814499	-0.099101	-0.508636	0.174789	-0.686768	-0.034668	-0.330566
529.0	5.6511	2.238877	9.115584	-0.03132	-0.74234	0.20069	-0.689209	-0.028076	-0.323975
530.0	5.487148	1.97389	10.047329	0.049061	-0.994863	0.271046	-0.688965	-0.032471	-0.319336
531.0	4.696453	3.553216	10.985828	0.105258	-1.360427	0.363246	-0.695557	-0.030273	-0.307861
532.0	5.754379	1.623152	9.771961	0.069771	-1.778191	0.374876	-0.702393	-0.026123	-0.296631
533.0	5.596539	2.259771	10.301727	0.287545	-2.171333	0.430204	-0.709229	-0.019531	-0.282959
534.0	5.976957	2.595328	10.02681	0.420677	-2.619828	0.513578	-0.715576	-0.021973	-0.264648
535.0	6.480291	2.852584	9.941438	0.568231	-3.01731	0.642429	-0.724365	-0.019775	-0.250977
536.0	7.726873	3.948519	9.63064	0.68622	-3.218403	0.834216	-0.731445	-0.01123	-0.228516
537.0	8.853329	5.046583	9.318259	0.640194	-3.123309	1.029205	-0.738037	-0.009033	-0.205566
538.0	10.540342	5.418584	9.296214	0.544013	-2.857971	1.222888	-0.738281	-0.000244	-0.196777
539.0	10.435075	5.727829	7.761953	0.495332	-2.530226	1.417548	-0.74292	0.006104	-0.180908
540.0	10.405918	5.932697	9.215374	0.546857	-2.216503	1.453831	-0.747803	0.012695	-0.169678
541.0	8.017638	6.945224	12.206007	0.564766	-1.512121	1.411523	-0.741699	0.023438	-0.160645
542.0	2.645858	6.448021	12.463087	0.511251	-0.856411	1.298096	-0.735107	0.021484	-0.16748
543.0	-1.032245	6.279362	11.479089	0.568646	-0.501372	1.180693	-0.72876	0.030273	-0.172363
544.0	2.296415	7.106687	12.208237	0.641159	0.049256	0.897287	-0.724365	0.025879	-0.188232
545.0	-0.812468	7.898197	11.591007	0.681238	0.677769	0.600139	-0.717773	0.023682	-0.194824
546.0	-2.595346	7.434057	10.643648	0.56395	0.902197	0.395229	-0.710938	0.021729	-0.215332
547.0	-2.216978	6.38444	10.38759	0.543991	1.035345	0.167248	-0.695313	0.013184	-0.233398
548.0	-1.182752	6.200297	10.337729	0.659213	1.238148	-0.10975	-0.67749	0.004639	-0.258545
549.0	-0.671386	6.512165	10.232276	0.675692	1.425877	-0.393541	-0.663818	-0.008301	-0.285645
550.0	-0.255945	6.634802	10.142384	0.559469	1.506429	-0.640066	-0.634766	-0.025635	-0.3125
551.0	0.717025	6.352809	10.174399	0.376935	1.520554	-0.854898	-0.60376	-0.03833	-0.330566
552.0	2.155875	5.804236	10.317685	0.204672	1.515782	-1.059106	-0.56543	-0.062012	-0.355225
553.0	3.617726	5.260258	10.359537	0.091003	1.561337	-1.272508	-0.521484	-0.070557	-0.37793
554.0	4.91788	4.821311	10.541363	0.098481	1.650716	-1.502592	-0.468506	-0.085449	-0.395996
555.0	5.985956	4.744605	10.64132	0.011684	1.707136	-1.696888	-0.415771	-0.09375	-0.405029
556.0	6.99091	4.211313	10.421206	0.033821	1.811426	-1.882746	-0.361084	-0.099854	-0.41626
557.0	7.498842	4.109028	10.568834	0.009714	1.903681	-2.032537	-0.293701	-0.093018	-0.416504
558.0	8.173234	3.957608	10.590368	-0.037305	1.954636	-2.153735	-0.230713	-0.085938	-0.403076
559.0	9.000676	3.719775	10.743915	-0.068161	2.070248	-2.239095	-0.168457	-0.068115	-0.389893
560.0	9.23839	3.227075	10.669947	-0.105384	2.240054	-2.303725	-0.106201	-0.043945	-0.367432
561.0	8.670411	2.610234	10.435848	-0.077224	2.392471	-2.31969	-0.050781	-0.013184	-0.331787
562.0	8.15644	2.105056	10.305649	-0.045673	2.452475	-2.272902	-0.01123	0.026367	-0.296143
563.0	7.95467	1.641752	10.26729	-0.110069	2.455638	-2.173644	0.024414	0.061279	-0.237549
564.0	8.293	1.018664	10.149875	-0.173178	2.442179	-2.039042	0.046387	0.102783	-0.190674
565.0	8.964436	0.529063	9.916283	-0.049182	2.488043	-1.902318	0.048828	0.146484	-0.129883
566.0	9.932362	0.886657	9.929815	0.354543	2.586691	-1.772777	0.036377	0.18335	-0.075928
567.0	10.441482	0.99188	9.339406	0.320597	2.724835	-1.621925	0.00415	0.219971	-0.026367
568.0	10.444612	1.784139	8.894978	0.494021	2.818846	-1.436889	-0.035889	0.237061	0.01416
569.0	9.785947	1.904923	7.981338	0.41741	2.843457	-1.250676	-0.075928	0.254395	0.043701
570.0	9.417183	2.016891	7.011235	0.381075	2.791751	-1.101318	-0.126709	0.269287	0.066162
571.0	8.725078	2.544424	6.022952	0.277484	2.687845	-0.9732	-0.174561	0.266602	0.082275
572.0	8.239567	2.817809	4.739896	0.146369	2.468888	-0.867723	-0.21582	0.26416	0.082275
573.0	7.876402	2.699607	3.713469	0.269045	2.295014	-0.80657	-0.259033	0.255127	0.087158
574.0	7.610969	3.499659	3.609046	0.123554	1.960709	-0.792404	-0.295898	0.250488	0.078125
575.0	7.74022	2.673954	2.324172	0.086359	1.687422	-0.820537	-0.341553	0.24585	0.075928
576.0	8.019542	2.926806	1.884432	-0.014007	1.39591	-0.873299	-0.369629	0.239258	0.069336
577.0	7.587837	2.811708	1.725822	-0.110028	1.065335	-0.900577	-0.390869	0.226074	0.055908
578.0	8.001793	2.279632	1.281027	-0.180425	0.632825	-0.872692	-0.414307	0.217285	0.044678
579.0	8.467321	1.786673	1.110519	-0.319376	0.308118	-0.834237	-0.44043	0.212646	0.044922
580.0	8.857545	1.429689	1.330024	-0.40996	0.04133	-0.778163	-0.454834	0.197266	0.03833
581.0	9.178085	1.184822	1.5611	-0.410545	-0.232137	-0.697119	-0.472168	0.190674	0.031738
582.0	9.706534	0.972496	1.825378	-0.581099	-0.351121	-0.60394	-0.484863	0.184082	0.03418
583.0	9.180099	1.128403	2.158041	-0.642512	-0.465659	-0.459612	-0.5	0.181641	0.03418
584.0	8.632604	0.745853	2.182859	-0.602962	-0.594856	-0.315102	-0.515137	0.177246	0.038818
585.0	6.553026	0.785596	3.527807	-0.607279	-0.690639	-0.06599	-0.521973	0.181641	0.043213
586.0	7.643764	1.057298	-0.908706	-1.133433	-2.007694	0.919337	-0.535156	0.185791	0.054688
587.0	-7.791683	-0.38653	-1.825101	-0.238782	-1.958416	1.365488	-0.537842	0.196777	0.068115
588.0	-0.284825	10.042651	14.270146	0.123565	-4.750893	1.782929	-0.55127	0.20752	0.095215
589.0	12.888291	3.776339	13.501644	-2.121507	-3.155082	1.810129	-0.554199	0.220459	0.108643
590.0	11.406329	-2.342833	4.281717	-1.523048	-3.52707	1.496911	-0.554688	0.231445	0.133545
591.0	11.470874	1.257511	10.142505	-0.162076	-3.465094	1.234572	-0.561279	0.235596	0.158447
592.0	16.184103	2.020351	13.094631	-0.361572	-3.166061	1.182297	-0.565918	0.242188	0.174316
593.0	16.74191	0.615861	11.600133	-0.322645	-2.479731	1.196452	-0.568848	0.255127	0.189941
594.0	14.16035	1.923807	11.174641	-0.112544	-1.97026	1.121298	-0.5625	0.259521	0.198975
595.0	10.299312	2.339358	10.069729	-0.209002	-1.593964	0.958138	-0.5625	0.263916	0.208008
596.0	6.408511	2.262771	8.300307	-0.119013	-1.446279	0.795229	-0.560791	0.272461	0.217041
597.0	2.332326	1.761585	6.909127	-0.134205	-1.606081	0.759114	-0.554443	0.274658	0.235107
598.0	7.268556	2.667503	6.888811	0.20137	-2.110132	0.791568	-0.554688	0.283447	0.244141
599.0	16.953372	9.798786	10.373339	-0.041371	-1.428273	0.893425	-0.552734	0.285645	0.248779
600.0	13.347198	4.099474	9.286594	-1.422827	-0.62442	0.738433	-0.550537	0.285645	0.257813
601.0	6.743594	-1.841896	9.351925	-1.064456	-0.301518	0.597157	-0.548584	0.290039	0.26001
602.0	8.286546	-0.033089	8.712263	-0.364852	-0.268778	0.350756	-0.554932	0.290039	0.262207
603.0	8.1698	1.08374	8.14161	-0.259798	-0.191528	0.128102	-0.546143	0.287842	0.264648
604.0	7.018435	0.976902	7.828124	0.084845	-0.098029	-0.008658	-0.550537	0.287842	0.264648
605.0	6.763238	3.225374	8.446501	0.104903	-0.091133	-0.017653	-0.550781	0.292236	0.269043
606.0	6.791301	2.343469	7.772065	-0.074645	-0.11319	0.005367	-0.544189	0.292236	0.269043
607.0	6.651738	2.872374	7.726929	0.011974	-0.043247	0.039758	-0.555176	0.291992	0.266846
608.0	6.727583	3.017607	7.844723	0.024213	0.036821	0.050046	-0.553223	0.296387	0.27124
609.0	6.739397	2.824899	7.802633	-0.114379	0.062727	0.093258	-0.552734	0.290039	0.269043
610.0	6.493667	3.141191	7.734372	-0.105465	0.117107	0.118619	-0.551025	0.296387	0.266602
611.0	6.652737	3.204422	7.60711	-0.198304	0.129722	0.137809	-0.552979	0.292236	0.264404
612.0	6.527222	2.859269	7.747931	-0.233766	0.143719	0.151715	-0.548828	0.298584	0.264404
613.0	6.480486	2.70954	7.648003	-0.247251	0.13904	0.143365	-0.555176	0.291992	0.269043
614.0	6.439819	2.600841	7.828932	-0.30361	0.121972	0.143349	-0.548584	0.294434	0.27124
615.0	6.252643	2.210328	7.82059	-0.34764	0.109837	0.136192	-0.548584	0.294434	0.269043
616.0	6.055872	2.079583	7.830695	-0.326964	0.100415	0.128327	-0.548584	0.292236	0.266846
617.0	5.855426	1.943631	7.907137	-0.350587	0.070956	0.117223	-0.550781	0.292236	0.27124
618.0	5.748282	1.42465	7.969368	-0.326316	0.058631	0.093715	-0.548828	0.296387	0.27124
619.0	5.738355	1.355843	7.728572	-0.252344	0.044103	0.056946	-0.548828	0.298584	0.266602
620.0	5.479384	1.572563	7.929904	-0.215952	0.016711	0.022452	-0.552979	0.291992	0.27124
621.0	5.811725	1.379624	7.764507	-0.221918	-0.03938	-0.00293	-0.546387	0.294434	0.27124
622.0	5.865355	1.706234	7.71539	-0.13462	-0.056241	-0.016879	-0.548584	0.294189	0.273682
623.0	6.031389	1.641817	7.806091	-0.211667	-0.108035	-0.030756	-0.550781	0.290039	0.273682
624.0	6.248751	1.89741	7.583746	-0.113245	-0.102582	-0.031905	-0.546387	0.292236	0.273682
625.0	6.112738	2.351054	7.70632	-0.172259	-0.121691	-0.024122	-0.548584	0.292236	0.275879
626.0	6.419304	2.280866	7.454741	-0.174944	-0.132165	-0.016608	-0.548584	0.292236	0.278076
627.0	6.650215	2.73557	7.517161	-0.129381	-0.076933	-0.011073	-0.548584	0.292236	0.278076
628.0	6.725077	2.651265	7.73996	-0.116319	-0.014386	0.016089	-0.548584	0.292236	0.275879
629.0	6.53989	2.064063	7.685194	-0.201119	0.022753	0.050345	-0.550781	0.291992	0.278076
630.0	6.568251	2.449242	8.347488	-0.078781	0.049994	0.045742	-0.546387	0.290039	0.275879
631.0	6.512643	1.715772	8.089505	-0.109622	-0.024045	0.040933	-0.553223	0.296387	0.275879
632.0	6.186255	1.946493	8.271809	-0.176882	-0.028871	0.044991	-0.555176	0.294189	0.280518
633.0	6.254558	1.881578	8.077097	-0.079165	-0.084736	0.044127	-0.550781	0.291992	0.282715
634.0	6.150085	1.916037	8.069334	-0.053613	-0.135983	0.052198	-0.544189	0.292236	0.278076
635.0	6.113403	2.124761	8.133407	0.030513	-0.207084	0.062109	-0.550781	0.294189	0.280518
636.0	6.118332	2.078269	7.971403	0.107169	-0.271031	0.072519	-0.550781	0.294189	0.282715
637.0	6.234145	2.401118	8.342203	0.062413	-0.325021	0.091899	-0.544434	0.294189	0.287354
638.0	6.215726	2.329918	8.134959	0.009034	-0.373646	0.121136	-0.542236	0.298584	0.282715
639.0	6.152775	2.747741	8.258831	-0.01723	-0.446953	0.163539	-0.548584	0.294189	0.291748
640.0	6.230774	2.20083	8.204353	-0.110527	-0.534844	0.198706	-0.540039	0.296387	0.296387
641.0	5.864941	2.310743	8.411416	-0.028988	-0.653922	0.2442	-0.540039	0.298584	0.296387
642.0	5.840249	2.906554	9.098726	0.012119	-0.804172	0.313843	-0.537842	0.296631	0.293945
643.0	5.914673	0.838554	8.85705	-0.137552	-1.021235	0.335325	-0.535889	0.300781	0.30542
644.0	6.268475	2.119892	8.824161	0.210621	-1.218057	0.344222	-0.537842	0.298584	0.30542
645.0	6.062266	1.31718	8.991403	0.096532	-1.475362	0.346974	-0.531494	0.300781	0.307617
646.0	6.212933	1.430569	8.956834	0.126292	-1.766556	0.309782	-0.524658	0.296631	0.314453
647.0	6.46736	1.430387	8.763128	0.023035	-2.095513	0.28817	-0.520508	0.300781	0.328125
648.0	6.497427	1.993244	8.79832	0.041422	-2.316199	0.330773	-0.516113	0.296631	0.337402
649.0	6.353335	2.182306	8.831867	-0.114084	-2.570258	0.384932	-0.503174	0.301025	0.348633
650.0	6.317044	2.221627	8.870357	0.012112	-2.888982	0.465061	-0.500977	0.301025	0.362305
651.0	6.278226	2.641475	9.225467	0.033986	-3.256517	0.585986	-0.491943	0.296631	0.375977
652.0	5.903069	2.567375	9.913429	0.088935	-3.692019	0.749631	-0.476807	0.296631	0.387451
653.0	5.50988	2.698205	10.711017	0.314007	-4.266067	0.979728	-0.470215	0.296631	0.407959
654.0	4.919464	3.195305	10.622242	0.660409	-4.862151	1.293762	-0.446533	0.30542	0.423584
655.0	3.34039	4.259586	11.227892	0.900153	-5.675921	1.827555	-0.427246	0.310059	0.439453
656.0	2.481536	5.728945	10.568722	0.89392	-6.84764	2.538357	-0.401611	0.321045	0.464355
657.0	4.226231	4.090353	11.173711	0.276737	-8.155164	3.148125	-0.360352	0.325439	0.496094
658.0	8.362166	1.6879	10.899379	0.612072	-9.469222	3.383515	-0.321533	0.334473	0.520996
659.0	17.773904	2.577015	10.045874	0.647219	-10.258917	3.251378	-0.271484	0.341309	0.548096
660.0	27.023369	-1.048379	5.842719	0.048653	-10.176957	2.658317	-0.22998	0.339355	0.568604
661.0	32.651932	0.461369	4.823989	2.295626	-9.063163	1.940392	-0.187012	0.352539	0.565918
662.0	30.672675	14.38396	13.468567	3.436696	-6.844101	2.026928	-0.167725	0.361572	0.563477
663.0	23.903325	10.813937	14.064232	-0.23306	-6.838012	2.522605	-0.147461	0.348389	0.572754
664.0	21.735239	7.774728	15.703381	1.247508	-5.425351	2.4903	-0.134766	0.355225	0.568115
665.0	12.452126	8.387781	17.874321	1.141461	-4.340005	2.549513	-0.125977	0.355225	0.563477
666.0	8.656716	1.900679	17.847163	1.313816	-3.251366	2.048643	-0.132813	0.357422	0.565918
667.0	25.960544	7.231974	18.764982	2.986037	-0.550038	1.146755	-0.152832	0.370361	0.549561
668.0	18.261506	17.281021	20.651616	2.771843	3.411473	0.190358	-0.192383	0.372314	0.533691
669.0	-2.132679	15.838957	15.145064	1.295255	4.354896	0.055703	-0.235596	0.367676	0.517822
670.0	-6.470514	10.896669	12.148192	-0.082577	4.089148	0.101845	-0.274658	0.358643	0.509033
671.0	-7.879962	6.32043	9.781047	-0.198049	3.487644	-0.040486	-0.30249	0.352051	0.5
672.0	-5.23331	3.923477	8.67262	-0.052459	3.072193	-0.380878	-0.330811	0.347656	0.48877
673.0	-2.443463	2.050522	8.465674	0.444188	3.005648	-0.913281	-0.365234	0.336426	0.470703
674.0	0.915308	2.009396	9.039401	1.065529	3.275078	-1.502621	-0.388672	0.327637	0.452881
675.0	3.540014	3.068111	9.517973	1.354134	3.756205	-2.029155	-0.42749	0.318604	0.432373
676.0	6.355093	3.601441	9.704951	1.353098	4.404216	-2.451296	-0.459717	0.307617	0.405273
677.0	7.929035	3.925924	9.609282	1.160808	5.171064	-2.6968	-0.498291	0.287842	0.378418
678.0	8.925408	3.219604	9.034206	0.881347	5.770162	-2.80359	-0.532471	0.272461	0.337891
679.0	9.654101	2.005582	8.234423	0.64696	6.250779	-2.803884	-0.566162	0.246094	0.302002
680.0	9.988183	0.700835	6.999392	0.553881	6.556332	-2.757697	-0.600098	0.226318	0.263672
681.0	10.236838	-0.070222	5.933032	0.617343	6.64331	-2.680249	-0.621094	0.20459	0.216064
682.0	9.757404	0.152544	5.38873	0.761019	6.536013	-2.554413	-0.63501	0.178467	0.166504
683.0	9.410588	0.967651	5.603216	0.779093	6.086375	-2.401034	-0.647217	0.158691	0.121338
684.0	11.943442	1.215558	6.68734	0.567692	5.689913	-2.147186	-0.659668	0.141357	0.069336
685.0	13.470415	0.342582	6.831645	0.503856	5.426099	-1.94798	-0.662842	0.117432	0.035645
686.0	14.640337	0.867306	7.599406	0.567159	5.205462	-1.808441	-0.66626	0.095703	-0.004883
687.0	15.047147	0.884535	7.897803	0.616435	5.053645	-1.733341	-0.660889	0.073975	-0.043213
688.0	14.809248	1.078049	8.058328	0.67269	4.82824	-1.748219	-0.646973	0.050049	-0.086182
689.0	14.58703	1.423501	8.012773	0.771255	4.550921	-1.828121	-0.639404	0.028564	-0.117676
690.0	14.160003	2.123367	8.131905	0.783277	4.215185	-1.908959	-0.618408	-0.001953	-0.139893
691.0	13.651949	2.361804	8.470955	0.744721	3.813416	-2.010436	-0.595703	-0.023438	-0.164551
692.0	13.622655	2.136856	9.071313	0.741442	3.367912	-2.122004	-0.575439	-0.036377	-0.171143
693.0	14.314653	1.852231	9.59133	0.789641	2.904677	-2.212294	-0.563721	-0.053955	-0.179932
694.0	16.475019	1.089299	9.623681	1.095214	2.567536	-2.353115	-0.54126	-0.068848	-0.181885
695.0	20.209413	3.192645	12.164152	1.580116	2.505642	-2.51528	-0.53418	-0.077637	-0.179443
696.0	24.784101	3.557077	11.93885	1.490164	2.719565	-2.734554	-0.524902	-0.094971	-0.186035
697.0	28.519805	5.926758	12.25683	1.441924	3.541513	-3.016171	-0.51123	-0.108154	-0.19043
698.0	24.617221	0.309502	11.772121	0.413187	4.55432	-3.470904	-0.497559	-0.121094	-0.206055
699.0	22.19901	-0.858046	6.824261	0.955286	5.051774	-3.971411	-0.481445	-0.13623	-0.22168
700.0	20.434523	6.66093	7.384883	0.362473	5.336187	-3.769758	-0.463379	-0.14917	-0.239746
701.0	17.226521	5.011498	2.053554	-1.53237	5.108048	-3.153423	-0.450195	-0.15332	-0.262451
702.0	17.475525	0.793794	-1.632979	-2.333809	4.468978	-2.739287	-0.439209	-0.153076	-0.282959
703.0	20.398901	-6.669002	-5.697885	-2.670527	3.870453	-2.393311	-0.426025	-0.155273	-0.30127
704.0	20.420583	-16.809466	-12.451208	-1.5587	3.519629	-2.425726	-0.4104	-0.163818	-0.3125
705.0	15.470904	-18.53684	-18.358059	1.688307	2.907753	-2.533899	-0.396729	-0.178955	-0.318848
706.0	11.153098	-8.631263	-14.041597	3.695477	1.402447	-2.211716	-0.389404	-0.194336	-0.30957
707.0	11.723808	-0.457242	-9.766868	2.608368	-0.337219	-1.380416	-0.391113	-0.207275	-0.304688
708.0	14.984506	4.523764	-5.319285	1.274906	-1.397031	-0.53007	-0.397217	-0.216064	-0.302246
709.0	17.123894	7.023535	0.87075	-0.928997	-1.829081	0.046387	-0.4021	-0.205322	-0.304688
710.0	17.716246	1.348794	1.617781	-2.467572	-1.841543	0.177628	-0.40918	-0.194336	-0.307129
711.0	2.913633	-8.593	5.571237	-2.017567	-1.928251	1.044876	-0.424561	-0.187988	-0.305176
712.0	-20.130023	12.999722	9.246358	2.235357	-1.992	1.394098	-0.442139	-0.185791	-0.293701
713.0	-10.259923	27.648897	8.575767	-4.097966	-6.631823	2.69369	-0.471924	-0.157715	-0.282715
714.0	33.039766	-21.977269	-1.193312	-6.137344	-6.050939	2.106136	-0.485596	-0.144775	-0.271729
715.0	11.541046	-2.734094	11.105941	2.914369	-4.154539	-0.033957	-0.504639	-0.153564	-0.248779
716.0	14.923692	9.938217	13.743904	-1.714225	-5.231588	0.284195	-0.520264	-0.149414	-0.237305
717.0	20.424932	-8.867826	10.575048	-0.915159	-4.763688	0.777883	-0.533203	-0.151611	-0.230469
718.0	21.224412	-2.497115	15.394798	-0.248407	-3.687588	1.092293	-0.540283	-0.140869	-0.217041
719.0	19.244349	0.151198	12.833683	-0.554933	-2.95021	1.661528	-0.557861	-0.136719	-0.203369
720.0	13.6111	1.332354	9.294539	0.236076	-2.137726	1.462548	-0.564697	-0.12793	-0.208008
721.0	8.086704	5.024884	8.905398	-0.52602	-1.898487	1.182673	-0.57373	-0.123779	-0.189941
722.0	5.985321	0.786087	7.722611	-0.567947	-2.090297	1.07385	-0.573975	-0.11499	-0.190186
723.0	8.078941	0.725527	8.140452	-0.113162	-2.027589	1.135555	-0.582764	-0.112793	-0.176514
724.0	17.221487	6.307781	11.216139	0.03915	-1.529397	1.308182	-0.589844	-0.104248	-0.178955
725.0	10.083789	6.568453	7.529177	-0.696077	-0.594535	1.081734	-0.5896	-0.106445	-0.176514
726.0	10.085915	3.633006	10.355134	-0.878127	-0.645424	0.746653	-0.596436	-0.099854	-0.174316
727.0	8.509008	-1.899591	9.242396	-1.035508	-0.200311	0.701241	-0.599365	-0.086914	-0.181396
728.0	8.07625	1.881156	8.920929	-0.390289	-0.161863	0.496746	-0.601318	-0.089111	-0.177002
729.0	7.38292	1.600186	8.324665	-0.44776	-0.104111	0.33353	-0.599365	-0.086914	-0.177002
730.0	6.660645	0.950929	8.481679	-0.321756	-0.107813	0.224832	-0.601563	-0.08252	-0.181641
731.0	6.866729	1.592579	8.252459	-0.185937	-0.102027	0.141216	-0.601563	-0.08252	-0.177002
732.0	6.53297	2.074986	8.060297	-0.123366	-0.110561	0.082969	-0.608154	-0.08252	-0.174805
733.0	6.58611	2.427806	7.949987	-0.105101	-0.091192	0.068857	-0.601807	-0.080322	-0.174805
734.0	6.209361	2.479504	7.827173	-0.156667	-0.090819	0.063476	-0.60376	-0.084717	-0.177002
735.0	6.256037	2.144001	7.750699	-0.107141	-0.0797	0.060702	-0.601807	-0.078125	-0.177002
736.0	5.814039	1.868621	7.837132	-0.020288	-0.105904	0.028293	-0.60376	-0.084717	-0.174805
737.0	5.935447	1.88223	7.823893	0.040095	-0.151733	0.026297	-0.605957	-0.084717	-0.174805
738.0	5.982106	1.834441	7.812422	0.051097	-0.176269	0.030558	-0.606201	-0.080322	-0.170166
739.0	5.971841	1.903969	7.785704	0.057497	-0.202518	0.029853	-0.608398	-0.080322	-0.172607
740.0	6.1019	1.648739	7.725096	0.094561	-0.25897	0.002203	-0.608398	-0.078125	-0.165771
741.0	6.578045	2.156406	7.681839	0.130817	-0.269577	-0.034882	-0.60376	-0.086914	-0.167725
742.0	6.646069	2.549485	8.044786	0.00798	-0.252155	-0.04974	-0.605957	-0.084717	-0.170166
743.0	6.51556	2.581557	7.569952	-0.069733	-0.174906	-0.027868	-0.608154	-0.08252	-0.170166
744.0	6.57646	2.583275	7.670365	-0.090506	-0.144529	-0.012504	-0.603516	-0.089111	-0.165527
745.0	6.506931	2.287387	7.530975	-0.076302	-0.096301	0.011254	-0.610352	-0.08252	-0.170166
746.0	6.330536	2.714031	7.740149	-0.126729	-0.055198	0.03805	-0.610596	-0.080322	-0.172607
747.0	6.548715	2.641793	7.792333	-0.360176	-0.006616	0.073365	-0.606201	-0.080322	-0.165771
748.0	6.04102	2.437657	7.747156	-0.337619	0.031915	0.114592	-0.614746	-0.08252	-0.172363
749.0	6.433651	2.325908	7.747225	-0.414359	0.011221	0.156146	-0.610596	-0.080322	-0.167969
750.0	6.371042	2.206054	7.956192	-0.443784	0.066454	0.219857	-0.606445	-0.071533	-0.172607
751.0	6.352865	1.768771	7.860361	-0.388359	0.073575	0.242927	-0.608887	-0.069336	-0.17041
752.0	6.303738	1.927897	7.76577	-0.281991	0.081032	0.238385	-0.61084	-0.071533	-0.172607
753.0	6.359736	2.071702	8.183194	-0.360307	0.051891	0.232394	-0.611084	-0.067139	-0.175049
754.0	6.341164	1.472922	7.766926	-0.501347	0.021986	0.204191	-0.611084	-0.064941	-0.177246
755.0	6.277734	1.332275	7.7385	-0.243276	-0.009843	0.161878	-0.615479	-0.067383	-0.175049
756.0	6.248644	1.512839	8.090149	-0.175862	-0.087573	0.130036	-0.611084	-0.065186	-0.172852
757.0	6.290656	1.823051	8.055966	-0.122506	-0.151003	0.12657	-0.611084	-0.065186	-0.172852
758.0	6.166761	1.85775	8.198108	-0.136936	-0.227586	0.135749	-0.620117	-0.060791	-0.172852
759.0	6.253628	1.982321	8.066006	-0.10724	-0.311069	0.132021	-0.615723	-0.060791	-0.17749
760.0	6.010993	2.212858	8.280739	-0.070666	-0.402694	0.149474	-0.615723	-0.058594	-0.168457
761.0	6.05786	2.283418	8.406606	-0.113114	-0.479351	0.172434	-0.615723	-0.058594	-0.168457
762.0	6.083135	1.632223	8.368172	-0.119561	-0.610011	0.203776	-0.615723	-0.058594	-0.15918
763.0	5.774214	1.682085	8.783273	-0.037419	-0.80118	0.240295	-0.613525	-0.060791	-0.154541
764.0	5.741133	2.326558	9.745463	-0.026434	-1.021356	0.230162	-0.615723	-0.058594	-0.152344
765.0	5.700854	-0.068521	9.64528	-0.265064	-1.316526	0.195016	-0.620361	-0.054199	-0.141113
766.0	6.049232	3.06526	10.3881	0.108053	-1.673503	0.242531	-0.618164	-0.056396	-0.129639
767.0	5.593369	1.032238	9.658751	-0.330006	-2.036573	0.264338	-0.622559	-0.052246	-0.120605
768.0	5.792071	1.442633	10.29712	0.214704	-2.532058	0.332962	-0.620605	-0.047852	-0.104736
769.0	5.427645	1.416615	10.641874	0.155491	-3.076283	0.391053	-0.623047	-0.045654	-0.088867
770.0	5.496068	0.37128	10.971568	0.438721	-3.692686	0.471459	-0.621338	-0.032715	-0.066406
771.0	4.580004	2.4242	11.959006	0.482757	-4.452652	0.536734	-0.614502	-0.039307	-0.038818
772.0	4.214109	1.386159	11.733378	0.313232	-5.311941	0.723672	-0.621582	-0.028564	-0.004883
773.0	3.310292	1.789157	12.949159	0.898416	-6.24884	1.022325	-0.606445	-0.021973	0.024658
774.0	1.567763	3.185429	12.420118	1.322627	-7.399302	1.588181	-0.600586	-0.008789	0.067627
775.0	0.736552	7.031447	11.059339	1.529208	-8.635055	2.421146	-0.577148	0.006592	0.101563
776.0	3.413316	5.907656	11.287868	0.630996	-10.094651	3.023615	-0.553955	0.023926	0.155762
777.0	13.704908	2.592486	9.489624	0.546624	-11.287784	3.171139	-0.522217	0.043701	0.19873
778.0	29.814589	2.502532	6.715305	0.752653	-11.129153	2.950128	-0.479248	0.056885	0.239502
779.0	34.82467	2.761057	5.039657	1.49334	-9.585587	2.518704	-0.427734	0.076904	0.273193
780.0	33.507622	12.573084	10.46675	2.549323	-7.693456	2.416506	-0.37207	0.098877	0.297607
781.0	26.243047	14.050311	16.199586	0.294545	-6.698204	2.841778	-0.320557	0.116699	0.313232
782.0	21.458833	9.387859	16.583142	0.381288	-5.639871	2.982187	-0.258301	0.141113	0.326416
783.0	11.240725	6.471037	17.13185	1.257846	-4.28962	2.939239	-0.199707	0.150146	0.342041
784.0	3.847344	-2.572664	22.037649	1.208484	-3.255482	2.21625	-0.155029	0.174316	0.346191
785.0	28.220176	2.468524	18.552141	4.616418	-0.468387	1.408125	-0.128174	0.205078	0.354492
786.0	16.593972	21.145523	24.344618	4.569418	4.151076	0.519843	-0.114014	0.231445	0.358643
787.0	-2.445196	16.013732	15.828823	1.969095	4.819573	0.4925	-0.104004	0.253174	0.367188
788.0	-5.13007	14.421942	13.471666	1.249518	4.941979	0.508734	-0.105225	0.277344	0.378174
789.0	-7.892559	9.854914	10.446724	0.145813	4.578577	0.381167	-0.105713	0.290283	0.384766
790.0	-6.636429	6.223449	8.513699	0.089907	4.108747	-0.064879	-0.113037	0.30542	0.38916
791.0	-3.740294	3.97529	8.028161	0.35649	3.84441	-0.711803	-0.11377	0.322998	0.395508
792.0	-0.00739	2.925126	7.994368	0.896623	3.890788	-1.465969	-0.13208	0.340332	0.397461
793.0	2.917618	3.890003	8.337315	1.329242	4.168995	-2.152299	-0.141846	0.366455	0.390137
794.0	6.153287	4.77577	8.923993	1.33225	4.6084	-2.684732	-0.1604	0.392578	0.396484
795.0	8.399242	4.738904	9.105706	1.150053	5.204596	-3.043505	-0.200928	0.418457	0.382324
796.0	8.967716	3.324335	8.853484	0.865079	5.735695	-3.250553	-0.243652	0.446533	0.381836
797.0	9.536492	2.082365	8.185026	0.773427	6.062883	-3.335504	-0.307861	0.468018	0.361084
798.0	10.695255	1.494789	7.648459	0.662953	6.236286	-3.283568	-0.389404	0.487305	0.328857
799.0	11.112094	0.647089	6.667811	0.573079	6.285938	-3.128914	-0.461182	0.484863	0.269775
800.0	10.98169	0.146818	6.200698	0.602682	6.121888	-2.902988	-0.543213	0.464844	0.183594
801.0	11.935724	-0.257769	6.804183	0.568132	5.772653	-2.60469	-0.580566	0.42334	0.075195
802.0	13.450601	-1.239092	7.238049	0.514398	5.452539	-2.277668	-0.560791	0.366943	-0.040039
803.0	14.940864	-1.791822	7.636538	0.737243	5.262497	-1.988094	-0.479736	0.311035	-0.114258
804.0	15.135889	-1.092179	7.866965	0.97899	5.111056	-1.754585	-0.36499	0.283447	-0.13208
805.0	14.406991	-0.240819	8.064486	1.109733	4.916847	-1.613657	-0.271484	0.28833	-0.079834
806.0	13.561037	0.35457	8.438959	1.138927	4.515339	-1.614598	-0.236328	0.329834	0.010498
807.0	13.896271	0.872105	9.15797	1.124459	4.269124	-1.688663	-0.279541	0.370605	0.087158
808.0	13.404149	1.146196	9.602049	1.106012	3.876074	-1.858744	-0.374512	0.398438	0.132324
809.0	13.824498	1.357164	10.356633	1.005542	3.456872	-2.054933	-0.485107	0.384521	0.13501
810.0	15.980187	0.836351	11.144697	1.229431	3.048146	-2.343789	-0.577148	0.342529	0.101807
811.0	20.505463	2.026521	12.511322	1.500128	2.868075	-2.638289	-0.648438	0.283203	0.055176
812.0	25.435204	4.564886	13.159175	1.445479	3.110839	-2.897759	-0.699951	0.213379	0.008789
813.0	29.305383	7.111541	12.929862	1.140225	3.963676	-3.091286	-0.725098	0.141113	-0.046875
814.0	27.537714	6.504765	12.029999	0.206623	4.995544	-3.267502	-0.735107	0.071533	-0.104736
815.0	22.658132	-1.202052	9.342378	-0.759837	5.394811	-3.641356	-0.741211	0.014893	-0.151367
816.0	21.6973	0.060901	3.376665	0.249125	5.647653	-4.087648	-0.712402	-0.045898	-0.202637
817.0	20.085892	7.486189	1.928699	-0.120484	5.558551	-3.842022	-0.693115	-0.084961	-0.26123
818.0	20.37451	3.103086	-5.03161	-2.70161	4.668533	-3.354473	-0.66333	-0.117432	-0.299316
819.0	24.344672	-9.394052	-12.336436	-3.367492	3.783385	-2.855423	-0.644775	-0.141357	-0.326172
820.0	21.54127	-22.121596	-21.777258	-1.539052	3.147662	-3.103194	-0.619873	-0.165039	-0.357666
821.0	17.345348	-15.257587	-24.705831	2.745756	1.769539	-3.033949	-0.611328	-0.20874	-0.354492
822.0	13.871745	-3.066819	-14.092046	2.221803	-0.250681	-2.238241	-0.608154	-0.232666	-0.354004
823.0	13.77753	-0.886801	-8.534374	-0.584516	-2.057277	-1.050724	-0.616455	-0.241455	-0.344727
824.0	14.75327	-5.50992	-3.960298	-2.345009	-3.82313	0.545444	-0.629883	-0.235107	-0.331299
825.0	2.806868	-7.4854	-7.759798	0.3554	-3.491517	0.864687	-0.648926	-0.246094	-0.308105
826.0	0.168774	20.84599	28.814759	0.953748	-6.30603	1.644253	-0.673584	-0.230957	-0.278809
827.0	28.204323	-4.774825	9.172283	-6.266149	-4.400565	2.425247	-0.685303	-0.211426	-0.272461
828.0	5.789043	-14.553119	-4.043946	0.225212	-4.432242	1.256075	-0.70459	-0.220459	-0.231201
829.0	19.374261	6.938032	20.539906	0.607989	-5.481535	0.571256	-0.719727	-0.2229	-0.199219
830.0	21.093064	-4.980516	10.400964	0.199023	-4.328139	0.52577	-0.732422	-0.229492	-0.174072
831.0	20.373429	3.647858	15.425197	-0.306972	-3.600887	0.89849	-0.743896	-0.21875	-0.153564
832.0	13.466285	-2.012321	8.746681	0.550818	-3.130994	0.873772	-0.750244	-0.223145	-0.133057
833.0	12.211349	5.482635	10.626759	0.038555	-2.553134	0.784915	-0.761475	-0.2146	-0.117188
834.0	9.648318	4.126522	8.569033	0.19442	-2.583597	0.611734	-0.765869	-0.2146	-0.099121
835.0	7.921829	2.104321	7.572085	-0.420905	-2.392127	0.671739	-0.774658	-0.214844	-0.085449
836.0	17.535273	7.592891	11.381454	-0.031451	-2.267628	0.968564	-0.7771	-0.208252	-0.071777
837.0	11.87762	3.701563	7.311865	-0.800213	-1.041987	1.133966	-0.783691	-0.203857	-0.067383
838.0	8.573954	3.998753	9.290768	-0.605759	-1.084321	0.910334	-0.78418	-0.19751	-0.065186
839.0	10.513762	-0.266428	9.503772	-1.083777	-0.618054	0.931681	-0.788818	-0.188721	-0.058594
840.0	7.763489	1.476179	8.775755	-0.586474	-0.407533	0.73038	-0.789063	-0.184326	-0.056396
841.0	8.610537	1.42092	9.250906	-0.701292	-0.221709	0.605796	-0.791504	-0.179932	-0.067871
842.0	7.564565	1.113902	8.334515	-0.487346	-0.13722	0.454068	-0.789307	-0.175537	-0.061035
843.0	6.793271	1.740497	8.326152	-0.404206	-0.09112	0.362336	-0.798096	-0.177979	-0.056396
844.0	7.136771	1.969478	8.154865	-0.375394	-0.073504	0.304136	-0.79834	-0.169189	-0.056641
845.0	6.91064	2.135767	7.852887	-0.306592	-0.011576	0.248397	-0.800537	-0.169189	-0.058838
846.0	6.894227	2.495226	7.711662	-0.200118	0.0425	0.203681	-0.791748	-0.171387	-0.056641
847.0	6.800905	2.717227	7.798581	-0.160286	0.083689	0.181825	-0.794189	-0.164795	-0.068115
848.0	6.776749	2.567977	7.815672	-0.215589	0.098136	0.17632	-0.801025	-0.1604	-0.059082
849.0	6.619976	2.352897	7.849509	-0.229413	0.106277	0.179636	-0.796631	-0.1604	-0.063477
850.0	6.571873	2.089286	7.925692	-0.24808	0.102103	0.185082	-0.796631	-0.162598	-0.063477
851.0	6.447826	2.276763	7.890317	-0.268208	0.103888	0.181096	-0.799072	-0.156006	-0.068115
852.0	6.350789	2.194512	7.836295	-0.296009	0.096345	0.176544	-0.80127	-0.156006	-0.063721
853.0	6.366798	2.067888	7.790329	-0.270905	0.096004	0.168263	-0.799072	-0.153809	-0.065918
854.0	6.348525	1.943251	7.843801	-0.260066	0.085006	0.161947	-0.80127	-0.153809	-0.063721
855.0	6.264658	1.799928	7.9564	-0.253133	0.080001	0.147122	-0.799316	-0.149414	-0.068359
856.0	6.036592	1.87326	8.001294	-0.261666	0.058534	0.144231	-0.801514	-0.149414	-0.070557
857.0	5.909921	1.666474	8.012941	-0.313162	0.045146	0.125331	-0.794922	-0.147217	-0.066162
858.0	5.698107	1.509063	8.035475	-0.329978	0.026196	0.122836	-0.792969	-0.147217	-0.066162
859.0	5.42981	1.449745	7.937386	-0.308456	0.023874	0.112309	-0.797363	-0.14502	-0.068359
860.0	5.52677	1.269252	7.937874	-0.284671	0.009439	0.105619	-0.799316	-0.149414	-0.070557
861.0	5.818658	1.291767	7.842208	-0.216087	0.033545	0.101254	-0.795166	-0.14502	-0.070801
862.0	5.886161	1.115338	7.820628	-0.180567	0.047732	0.074414	-0.797607	-0.136475	-0.070801
863.0	5.741912	1.40586	8.388664	-0.557712	0.002033	0.100199	-0.797363	-0.142822	-0.072998
864.0	5.752539	0.208331	7.329894	-0.051609	0.01963	0.090699	-0.803955	-0.140625	-0.084473
865.0	5.715099	1.430324	8.050956	-0.141844	0.026145	0.083882	-0.799805	-0.140625	-0.075439
866.0	5.922087	0.992681	7.905455	-0.222528	-0.026573	0.088701	-0.803955	-0.140869	-0.070801
867.0	6.273619	1.58826	7.792546	-0.102917	-0.075694	0.083457	-0.799805	-0.140625	-0.077637
868.0	6.399756	1.765152	8.051958	-0.096827	-0.145955	0.096003	-0.801758	-0.140869	-0.068604
869.0	6.740641	1.878692	7.940811	-0.103149	-0.152062	0.115489	-0.808594	-0.138672	-0.073242
870.0	6.433477	2.366642	7.991901	-0.040605	-0.150627	0.128492	-0.806396	-0.136475	-0.068604
871.0	6.317784	2.073172	8.176996	-0.061321	-0.193254	0.120589	-0.802002	-0.136475	-0.066406
872.0	6.224784	2.493208	8.256611	0.008956	-0.253736	0.1162	-0.804199	-0.136475	-0.070801
873.0	6.33349	2.541606	8.150198	-0.016821	-0.309276	0.12626	-0.806396	-0.136475	-0.068604
874.0	6.314526	2.132121	8.355113	-0.095102	-0.372055	0.139159	-0.808838	-0.129883	-0.062012
875.0	6.115963	2.099991	8.67275	-0.103503	-0.442037	0.16169	-0.806641	-0.13208	-0.057373
876.0	6.104639	1.384176	8.531978	-0.079815	-0.582254	0.188825	-0.808594	-0.134277	-0.057373
877.0	5.589308	1.771762	9.486236	-0.104168	-0.794614	0.201999	-0.808838	-0.129883	-0.050537
878.0	5.743698	1.839571	9.628355	-0.196555	-1.061275	0.203988	-0.808838	-0.129883	-0.041504
879.0	5.930429	-0.200537	10.003564	-0.251245	-1.363207	0.178493	-0.811035	-0.130127	-0.025391
880.0	5.732753	2.534677	9.966454	0.313573	-1.788991	0.246894	-0.813477	-0.125732	-0.016357
881.0	5.588398	0.386226	9.753247	-0.163359	-2.172318	0.255476	-0.809326	-0.121338	0.003906
882.0	6.024175	1.159263	10.395928	0.345789	-2.647528	0.2903	-0.811768	-0.112793	0.03125
883.0	5.356478	0.582864	10.541937	0.123153	-3.121086	0.266458	-0.813965	-0.11499	0.053955
884.0	5.247836	0.925621	11.080024	0.216715	-3.705233	0.264984	-0.80957	-0.112793	0.088135
885.0	4.937057	1.598137	11.164505	0.187512	-4.40456	0.280357	-0.803467	-0.106445	0.119873
886.0	4.31869	1.993467	11.225942	0.246426	-5.171637	0.453291	-0.797119	-0.102051	0.165527
887.0	4.21937	1.8979	11.268566	0.476869	-5.946193	0.721296	-0.78418	-0.097656	0.201904
888.0	2.684662	2.453061	11.488014	1.046892	-6.635663	1.121971	-0.767578	-0.080322	0.260742
889.0	1.054587	6.004042	10.016892	1.361887	-7.519159	1.973977	-0.751221	-0.054199	0.319336
890.0	1.477726	7.317723	11.397991	0.53199	-8.911118	2.90109	-0.723633	-0.036621	0.382813
891.0	5.405593	3.690898	9.925645	-0.134761	-10.46324	3.709377	-0.685547	-0.010498	0.450684
892.0	17.251854	3.281077	8.567897	-0.280627	-11.821778	4.072313	-0.625488	0.016113	0.520752
893.0	31.149856	3.646556	7.713234	-0.893099	-11.882978	3.747351	-0.561035	0.035889	0.57959
894.0	35.108563	1.024769	2.665241	0.07469	-10.376655	2.996833	-0.503174	0.058105	0.624512
895.0	34.349875	8.55978	11.991395	2.38528	-8.432467	2.481514	-0.445801	0.093262	0.653564
896.0	30.893289	12.335497	16.982163	0.878135	-7.6464	2.41264	-0.387451	0.106689	0.671387
897.0	27.887354	7.840197	15.623235	1.203853	-6.008794	2.048467	-0.345215	0.137451	0.675293
898.0	12.493922	7.468376	18.107434	2.938908	-3.438414	1.69898	-0.320068	0.157227	0.679443
899.0	10.353811	5.101293	26.872135	2.153933	-3.154631	1.143763	-0.292969	0.185791	0.676514
900.0	30.190832	16.810646	23.187524	3.611176	1.448017	0.827761	-0.30957	0.218506	0.650879
901.0	9.214475	23.504777	23.132879	1.460088	4.458721	-0.141793	-0.334229	0.229248	0.625488
902.0	-3.901013	14.947398	18.058907	-0.552179	4.883718	-0.14474	-0.360352	0.231445	0.60498
903.0	-7.682208	8.234877	14.64794	-1.105785	4.627233	-0.330576	-0.380127	0.231201	0.584473
904.0	-5.87419	2.352756	11.990494	-0.74769	3.963256	-0.74262	-0.399902	0.235596	0.557129
905.0	-2.137846	1.053941	11.199784	0.286288	4.124761	-1.245615	-0.417725	0.242188	0.536621
906.0	0.801779	1.166451	10.978611	0.961206	4.493452	-1.681712	-0.437744	0.25293	0.51123
907.0	3.291128	2.433744	10.756993	1.441299	5.089438	-1.95008	-0.461914	0.255127	0.472412
908.0	4.865323	3.299692	10.269881	1.466088	5.7293	-2.121217	-0.483398	0.250732	0.440674
909.0	6.172792	3.353804	10.183821	1.299333	6.209961	-2.182179	-0.505615	0.259277	0.399658
910.0	7.677918	2.109986	9.718596	0.926594	6.628308	-2.181238	-0.532227	0.265869	0.367676
911.0	8.962739	0.285363	8.645044	0.813795	6.968542	-2.163738	-0.555908	0.263672	0.32666
912.0	9.755393	-0.755793	8.019457	0.926594	7.231349	-2.10373	-0.575928	0.267822	0.285645
913.0	10.429351	-1.319378	7.357104	1.014376	7.328568	-2.010845	-0.5979	0.272217	0.242188
914.0	10.942983	-1.326947	7.137514	1.18666	7.258088	-1.868441	-0.62207	0.274414	0.201172
915.0	11.634957	-1.104318	7.201302	1.286944	7.019504	-1.706706	-0.637451	0.278809	0.157715
916.0	13.055472	-0.635417	7.63742	1.391851	6.708666	-1.549326	-0.655029	0.283203	0.109863
917.0	15.152806	-0.280176	7.963136	1.511525	6.365381	-1.48003	-0.663818	0.2854	0.062012
918.0	16.107157	0.650621	7.776697	1.748085	6.16777	-1.582765	-0.678955	0.278809	0.01416
919.0	15.687871	2.736348	7.905396	2.031391	5.736359	-1.937837	-0.685303	0.274658	-0.03125
920.0	17.390604	4.874392	8.759346	1.768474	5.303688	-2.345173	-0.695557	0.259277	-0.072021
921.0	18.252002	5.447185	8.790583	1.495608	4.78258	-2.952572	-0.703857	0.250732	-0.11499
922.0	20.51872	5.331974	9.403073	1.265562	4.255637	-3.670224	-0.709229	0.226807	-0.148926
923.0	24.767008	5.75721	9.914321	1.244224	3.850976	-4.408688	-0.720947	0.196045	-0.187012
924.0	30.837775	7.785094	10.793063	1.039107	3.890947	-5.006809	-0.72583	0.156982	-0.224854
925.0	27.64278	4.44079	13.366233	-0.873617	4.250304	-5.011082	-0.733398	0.130859	-0.265381
926.0	24.766811	-11.517802	-2.727995	-2.852565	2.582783	-5.491071	-0.73999	0.084961	-0.298584
927.0	32.38729	-4.211235	-1.750451	1.259254	2.75013	-5.762331	-0.729248	0.039307	-0.325195
928.0	39.526986	5.158201	0.566381	-1.987597	3.399949	-4.808598	-0.714844	0.01123	-0.370117
929.0	26.30757	-0.165983	-11.217447	-3.946628	4.181104	-3.768333	-0.699219	0.002686	-0.408691
930.0	25.950625	-5.647886	-16.035524	-5.129349	2.894508	-2.52417	-0.681885	0.004883	-0.433838
931.0	19.765185	-20.123031	-26.071188	-5.079721	1.854476	-1.924032	-0.669189	0.011719	-0.449951
932.0	17.85531	-23.561819	-36.242991	0.216104	-0.383946	-1.855418	-0.675049	-0.003662	-0.445068
933.0	20.356858	-6.796619	-23.239198	3.972839	-2.339575	-1.284922	-0.693604	-0.030029	-0.428711
934.0	21.893255	0.028336	-24.966327	-0.71791	-5.322008	-0.24046	-0.719727	-0.028076	-0.39209
935.0	5.502917	-13.079592	-10.863016	0.383347	-5.611834	0.276288	-0.747803	-0.034912	-0.346436
936.0	22.130846	10.953313	40.261041	3.982855	-8.481382	0.250479	-0.784668	-0.039795	-0.291504
937.0	42.455294	6.265982	10.375718	-2.472858	-4.024052	1.68121	-0.790039	-0.018066	-0.269287
938.0	16.687561	-8.034124	2.343958	0.957299	-4.230758	1.317052	-0.804932	-0.022461	-0.237305
939.0	35.15987	18.037479	21.781934	3.115364	-3.789636	0.662283	-0.813721	-0.020508	-0.214355
940.0	28.560179	13.936127	15.010649	-3.783189	-0.530299	1.571173	-0.815186	0.007813	-0.212646
941.0	-0.073109	-17.316229	0.692908	-1.823615	-1.371451	0.95904	-0.819336	0.005615	-0.203613
942.0	9.898878	6.984356	16.829176	2.131556	-0.719397	0.288216	-0.821777	0.012207	-0.192383
943.0	6.38866	1.958271	4.587186	-1.794448	-0.850468	0.822573	-0.828857	0.022949	-0.185791
944.0	9.525512	7.4566	7.996084	-0.290905	-0.541267	0.708519	-0.820313	0.029785	-0.19043
945.0	9.569154	0.621812	7.986248	-1.817778	-0.363812	0.751407	-0.825195	0.03833	-0.183594
946.0	7.854299	-0.884491	6.888894	-0.297319	0.046307	0.567509	-0.823242	0.044922	-0.186035
947.0	7.274073	2.57922	8.821315	-0.324553	0.086555	0.464852	-0.830078	0.051514	-0.188477
948.0	7.079903	1.510999	8.422977	-0.531267	0.136566	0.413229	-0.823486	0.051514	-0.186279
949.0	6.567578	1.690377	8.263878	-0.491332	0.136851	0.352949	-0.823975	0.058105	-0.188721
950.0	6.752062	1.986357	8.039123	-0.463176	0.11676	0.28773	-0.830811	0.064453	-0.191162
951.0	6.434362	1.652125	8.086277	-0.443705	0.101677	0.220005	-0.828613	0.06665	-0.191162
952.0	6.513735	1.344239	7.759483	-0.239435	0.088164	0.145633	-0.824219	0.06665	-0.188721
953.0	6.225658	1.932999	7.973266	-0.117251	0.086397	0.074977	-0.822021	0.064697	-0.197998
954.0	6.14752	2.090896	7.880783	-0.087935	0.076808	0.050446	-0.824219	0.06665	-0.195557
955.0	5.86532	2.272228	7.983882	-0.078586	0.060597	0.032001	-0.824463	0.068848	-0.191162
956.0	6.095162	2.01315	7.965593	-0.181121	0.016092	0.019357	-0.831055	0.073242	-0.188965
957.0	6.33553	2.001124	7.693129	-0.2066	0.004431	0.022429	-0.826416	0.064453	-0.186523
958.0	6.312396	1.504216	7.836185	-0.172691	0.007673	0.007508	-0.819824	0.06665	-0.188721
959.0	6.298377	1.453488	7.952435	-0.147687	-0.042512	-0.004578	-0.824463	0.068848	-0.188965
960.0	6.391042	1.473572	7.858854	-0.124158	-0.061846	-0.020813	-0.822021	0.06665	-0.195557
961.0	6.394383	1.962473	7.717381	0.095005	-0.04801	-0.015984	-0.824463	0.068848	-0.191162
962.0	6.311897	2.479561	8.100191	0.009721	-0.058809	0.019573	-0.82251	0.075439	-0.186768
963.0	6.297094	1.885777	7.951283	-0.113877	-0.060786	0.041746	-0.824463	0.071045	-0.195801
964.0	6.175367	1.357237	7.805032	-0.066761	-0.079151	0.012851	-0.824219	0.06665	-0.184326
965.0	6.058943	0.708141	8.000114	0.020177	-0.173617	-0.066963	-0.828613	0.068848	-0.188965
966.0	6.118432	0.929419	7.815821	0.17001	-0.295421	-0.149176	-0.824219	0.064453	-0.184326
967.0	6.051606	1.797473	8.293144	0.258146	-0.372646	-0.196636	-0.826172	0.062256	-0.184082
968.0	6.26067	2.071162	7.98782	0.227451	-0.421099	-0.185452	-0.826172	0.062256	-0.175049
969.0	6.551905	2.213814	8.013452	0.218441	-0.410754	-0.172106	-0.823975	0.060059	-0.175049
970.0	6.468621	2.207135	8.111509	0.080706	-0.399585	-0.149478	-0.82373	0.055664	-0.168213
971.0	6.420925	2.120329	7.780006	0.055409	-0.410121	-0.120259	-0.832764	0.062256	-0.17041
972.0	6.625871	2.208904	7.845717	0.064316	-0.426663	-0.08171	-0.83252	0.057861	-0.168213
973.0	6.572597	1.921211	7.583535	0.048149	-0.437017	-0.041112	-0.836914	0.055664	-0.163574
974.0	6.579403	2.187126	7.772526	0.13532	-0.435453	0.023858	-0.83252	0.057861	-0.156738
975.0	6.732526	2.5111	7.802892	0.067859	-0.421778	0.075117	-0.837158	0.062256	-0.147705
976.0	6.484528	2.240427	7.592901	0.01188	-0.423218	0.126465	-0.834717	0.055664	-0.1521
977.0	6.335655	2.531527	7.939711	0.085191	-0.4967	0.164315	-0.839111	0.060059	-0.149902
978.0	6.334422	2.338601	8.187292	-0.020451	-0.571601	0.222795	-0.837158	0.062256	-0.138672
979.0	6.381594	2.788423	8.347765	0.147207	-0.67722	0.292159	-0.839111	0.060059	-0.129395
980.0	6.375503	1.971574	8.67271	-0.257031	-0.769557	0.271119	-0.841553	0.062012	-0.127197
981.0	6.50233	1.802204	7.806153	0.172798	-0.91631	0.309653	-0.837402	0.066406	-0.118164
982.0	6.429531	1.60702	8.323867	-0.065543	-1.016904	0.275139	-0.837891	0.077393	-0.11377
983.0	6.494134	1.522494	8.4865	0.024114	-1.201664	0.235868	-0.841797	0.070801	-0.100098
984.0	6.270921	1.355461	8.295977	-0.135174	-1.412868	0.198256	-0.843994	0.070801	-0.093262
985.0	6.3848	0.80399	8.474723	0.031789	-1.669423	0.153721	-0.848877	0.079346	-0.082031
986.0	6.349747	0.869662	8.555609	0.068781	-1.940376	0.087813	-0.848389	0.072754	-0.052246
987.0	6.311214	1.365424	8.713921	0.143492	-2.264044	0.036263	-0.85083	0.074951	-0.033936
988.0	6.28762	1.482893	8.666087	0.26304	-2.618666	0.034754	-0.85083	0.074951	-0.015625
989.0	6.053008	1.984786	8.997801	0.129812	-3.010506	0.048401	-0.852783	0.07251	0.009277
990.0	6.209263	1.58228	8.445733	0.137737	-3.441692	0.051461	-0.85498	0.07251	0.034424
991.0	6.057333	2.011711	8.458882	0.340895	-3.912972	0.139189	-0.855225	0.074707	0.070801
992.0	5.9434	2.611037	8.312401	0.397856	-4.379653	0.293897	-0.855469	0.081055	0.114014
993.0	5.708051	2.771638	7.876053	0.589819	-4.860437	0.561715	-0.851318	0.085449	0.148193
994.0	5.072561	3.358401	7.717299	0.683308	-5.49037	0.920219	-0.836426	0.093994	0.197998
995.0	4.69518	3.500479	7.988832	0.613825	-6.244735	1.286643	-0.825928	0.102783	0.241211
996.0	4.588689	3.037484	7.506369	0.567658	-7.05442	1.688724	-0.809082	0.120117	0.306885
997.0	5.838469	3.700748	7.111781	1.005335	-7.839875	2.210485	-0.781738	0.139893	0.368164
998.0	7.844615	4.181418	8.328458	1.111785	-8.895418	2.634809	-0.743408	0.161621	0.436035
999.0	17.604957	4.846231	6.315831	0.57996	-10.307526	2.871646	-0.702637	0.179199	0.508545
1000.0	30.335064	5.919917	8.042001	0.13049	-10.347487	2.69844	-0.642334	0.197021	0.574219
1001.0	29.742863	-0.224994	4.28111	0.493046	-9.05402	2.255085	-0.595215	0.212402	0.612549
1002.0	27.850556	0.444525	6.246593	2.227868	-8.62649	1.445124	-0.548096	0.234375	0.655273
1003.0	33.526698	13.269394	14.336279	3.345748	-7.261724	1.583137	-0.499268	0.262939	0.679688
1004.0	29.310416	11.187908	16.885838	1.184089	-6.502561	1.860773	-0.453857	0.271973	0.70459
1005.0	28.687138	4.641007	16.478453	2.372375	-4.255953	1.580373	-0.428711	0.293945	0.704102
1006.0	8.838619	7.185692	15.2746	4.494197	-1.890005	1.351657	-0.417236	0.331299	0.694336
1007.0	13.764645	8.161962	26.881607	3.41085	-2.832015	0.907495	-0.400391	0.34668	0.687256
1008.0	33.547688	16.662195	21.51781	3.634245	2.390117	0.866033	-0.42334	0.370605	0.663818
1009.0	10.396422	19.718357	19.700556	1.961513	5.106228	0.106198	-0.456055	0.370361	0.634277
1010.0	0.388336	10.271164	16.225421	-0.294296	5.576885	0.184252	-0.490723	0.365967	0.609375
1011.0	-4.356227	3.537283	11.0481	-0.045976	5.29632	-0.043741	-0.52124	0.365723	0.58667
1012.0	-2.402207	1.623786	9.799209	0.43517	4.607745	-0.407813	-0.549561	0.361328	0.563965
1013.0	0.443118	0.99016	8.699472	0.921097	4.634204	-0.811504	-0.571045	0.356689	0.532227
1014.0	2.968156	1.713953	8.423523	1.348123	4.949149	-1.2476	-0.610107	0.352295	0.498047
1015.0	4.371991	2.955624	8.411411	1.411664	5.404491	-1.596545	-0.635986	0.343506	0.459717
1016.0	5.367925	3.309874	8.220305	1.104721	5.847968	-1.890635	-0.667725	0.32373	0.416748
1017.0	5.473268	2.876455	8.035445	0.681139	6.210257	-2.103359	-0.699951	0.314941	0.380371
1018.0	5.757733	1.756184	7.670706	0.218688	6.411224	-2.236979	-0.729492	0.290771	0.339844
1019.0	6.026421	0.006907	6.87695	-0.057101	6.556266	-2.265591	-0.754883	0.270996	0.29248
1020.0	6.323243	-1.543452	6.323692	-0.058649	6.596004	-2.232359	-0.777832	0.249268	0.245117
1021.0	6.406362	-2.535285	5.532262	0.13065	6.554382	-2.124327	-0.794434	0.229736	0.190918
1022.0	6.632559	-2.347124	5.4446	0.44677	6.340448	-1.894025	-0.811035	0.209961	0.141113
1023.0	7.181104	-2.075944	5.789728	0.507126	6.022594	-1.568198	-0.812256	0.19043	0.093506
1024.0	9.016877	-2.801126	6.697247	0.63733	5.639654	-1.271453	-0.817871	0.170898	0.050781
1025.0	11.922075	-3.131904	7.506621	0.920025	5.451147	-1.036176	-0.817383	0.155762	0.01001
1026.0	12.936952	-1.197876	7.934804	1.317365	5.504578	-0.86227	-0.823242	0.142822	-0.0354
1027.0	13.790948	0.331801	8.392612	1.311461	5.318052	-0.754875	-0.811768	0.129883	-0.07373
1028.0	14.035947	1.361632	8.409368	1.374116	5.248378	-0.811934	-0.81543	0.112549	-0.112305
1029.0	14.384581	2.162635	8.64444	1.240948	4.98717	-1.022561	-0.801514	0.095215	-0.145996
1030.0	15.152137	2.528729	9.105683	1.249775	4.677076	-1.379888	-0.789795	0.077881	-0.179932
1031.0	16.96662	1.982952	8.792747	1.374143	4.370953	-1.867687	-0.775635	0.053955	-0.206787
1032.0	18.045084	2.881319	8.518894	1.635951	4.085216	-2.424635	-0.772217	0.023438	-0.231445
1033.0	19.524219	4.435873	8.38331	1.697946	3.691854	-2.913353	-0.753662	-0.000244	-0.253662
1034.0	22.905246	7.085667	8.702953	1.512162	3.404159	-3.229089	-0.747803	-0.035156	-0.273438
1035.0	25.678247	9.333286	9.352221	0.652371	3.437816	-3.289393	-0.735596	-0.065674	-0.293457
1036.0	27.114458	8.243783	7.757005	-0.342202	3.497829	-3.411214	-0.721191	-0.091553	-0.315674
1037.0	27.931367	7.525627	6.170431	-0.796852	3.780848	-3.488936	-0.696533	-0.108887	-0.342773
1038.0	22.367087	-2.138377	6.608629	-2.427659	3.863415	-3.655953	-0.673828	-0.128174	-0.369873
1039.0	19.327201	-12.954882	-4.998249	-1.38294	3.153332	-4.466939	-0.653076	-0.154297	-0.389893
1040.0	21.594753	1.651736	-1.075052	1.796803	3.21616	-4.446352	-0.629639	-0.191162	-0.402832
1041.0	22.873713	4.791103	-3.435167	-1.295285	2.426775	-3.787602	-0.615967	-0.201904	-0.420898
1042.0	28.15031	-2.178875	-6.76938	-2.780312	2.329373	-2.759308	-0.598389	-0.206055	-0.447998
1043.0	26.125882	-15.385012	-12.014085	-2.882002	2.644554	-2.291708	-0.574463	-0.203857	-0.461914
1044.0	17.991657	-18.012632	-16.740579	0.165153	2.342949	-1.988839	-0.567139	-0.223389	-0.466064
1045.0	14.944237	-11.298923	-12.808873	1.901955	1.049442	-1.406795	-0.555664	-0.234131	-0.463623
1046.0	14.63934	-6.575079	-11.553011	2.145774	-0.089959	-0.499936	-0.559082	-0.256104	-0.447266
1047.0	13.006526	2.298536	-5.042217	2.613032	-0.506255	0.529045	-0.567627	-0.258301	-0.447021
1048.0	15.289869	11.684694	-8.343733	-1.231875	-2.813802	1.494923	-0.58374	-0.23877	-0.433838
1049.0	-6.519273	-7.384603	-5.534976	-2.954788	-3.313934	2.243126	-0.615234	-0.219482	-0.406738
1050.0	7.500483	6.810218	25.617301	1.46974	-5.780915	1.316793	-0.639404	-0.213135	-0.379639
1051.0	16.655485	3.030585	7.241509	-3.062229	-4.14311	1.057567	-0.657715	-0.195801	-0.354736
1052.0	11.475805	-5.610329	1.619764	0.105542	-4.809521	0.195446	-0.674561	-0.207031	-0.315918
1053.0	21.324411	0.638359	17.211032	0.274245	-5.119119	0.134492	-0.690186	-0.198486	-0.283936
1054.0	25.007171	-5.58555	13.62672	0.151259	-3.735882	0.58435	-0.705566	-0.198486	-0.265869
1055.0	19.698946	-2.040201	13.965361	0.481862	-2.89911	1.152338	-0.712402	-0.189941	-0.243164
1056.0	14.93506	4.725157	10.619878	0.331196	-2.17541	1.234197	-0.728027	-0.181396	-0.218262
1057.0	16.595029	13.620721	10.953982	0.18585	-1.922834	1.266826	-0.732666	-0.174805	-0.209229
1058.0	5.821671	6.42056	6.184987	-1.382131	-1.536723	1.010528	-0.737549	-0.16626	-0.200195
1059.0	5.837544	-1.243193	8.202689	-1.375229	-1.499977	1.084727	-0.742432	-0.153076	-0.196045
1060.0	13.278622	3.107269	9.548601	-0.841183	-1.006929	1.38562	-0.745361	-0.135742	-0.194092
1061.0	7.667829	5.722995	7.356171	-1.080514	-0.319266	1.196216	-0.752441	-0.124756	-0.196533
1062.0	11.70087	-0.933892	10.7457	-1.495055	-0.22644	0.920114	-0.750488	-0.120361	-0.189697
1063.0	6.796225	-1.564105	8.058041	-0.504582	0.066282	0.633058	-0.755127	-0.111816	-0.192139
1064.0	7.64936	1.305854	8.729525	-0.607719	0.062619	0.449004	-0.750977	-0.107422	-0.196777
1065.0	7.014438	1.183447	8.71849	-0.493706	0.035325	0.351297	-0.753418	-0.10083	-0.197021
1066.0	6.775253	0.767887	8.263027	-0.371565	0.075526	0.25321	-0.757813	-0.103027	-0.197021
1067.0	6.44761	1.315743	8.389171	-0.21649	0.062207	0.17602	-0.756104	-0.094238	-0.197021
1068.0	6.545296	1.211266	8.134297	-0.149369	0.031383	0.115362	-0.751465	-0.098633	-0.197021
1069.0	6.482648	1.606613	8.130751	-0.072315	0.030502	0.070196	-0.760254	-0.098633	-0.199219
1070.0	6.382968	2.305657	7.985636	-0.032038	0.039029	0.063309	-0.758057	-0.098633	-0.194824
1071.0	6.259027	2.686967	8.006873	-0.069639	0.048103	0.088034	-0.760254	-0.098633	-0.197021
1072.0	6.135209	2.191995	8.036088	-0.134448	0.041725	0.105292	-0.751465	-0.096436	-0.194824
1073.0	6.008884	2.181963	8.025416	-0.169747	0.041114	0.119432	-0.755859	-0.096436	-0.199463
1074.0	6.090143	1.916883	7.887291	-0.213425	0.043468	0.12548	-0.756104	-0.092041	-0.199463
1075.0	6.089779	1.714193	7.747271	-0.236985	0.067512	0.143385	-0.756104	-0.089844	-0.197266
1076.0	6.037056	1.858733	7.826391	-0.208131	0.107074	0.14665	-0.758057	-0.094238	-0.199463
1077.0	6.260272	1.844477	7.94237	-0.211552	0.114649	0.142649	-0.753906	-0.089844	-0.197266
1078.0	6.279003	1.542211	7.987659	-0.229599	0.116334	0.130561	-0.754395	-0.083252	-0.204102
1079.0	6.166861	1.130219	8.154697	-0.258805	0.096463	0.094313	-0.754395	-0.083252	-0.201904
1080.0	6.004526	1.104749	8.157233	-0.251448	0.075844	0.070017	-0.752197	-0.083252	-0.20874
1081.0	6.172008	1.24286	8.08927	-0.187429	0.02935	0.054596	-0.751953	-0.085449	-0.20874
1082.0	6.256989	1.208027	7.943356	-0.155564	-0.002021	0.038757	-0.754395	-0.081299	-0.206543
1083.0	6.14725	1.250226	7.954368	-0.136478	-0.013271	0.030879	-0.751953	-0.085449	-0.210938
1084.0	5.890227	0.810316	7.86615	-0.057341	-0.009705	0.0003	-0.752197	-0.081055	-0.206543
1085.0	5.988131	1.15441	8.214377	0.111444	-0.052799	-0.04152	-0.751953	-0.085449	-0.20874
1086.0	5.926603	1.389329	8.184295	-0.151522	-0.0854	-0.023164	-0.754395	-0.081299	-0.206543
1087.0	5.952915	1.379938	7.971164	-0.11662	-0.11018	-0.026549	-0.758789	-0.081299	-0.201904
1088.0	5.923391	1.381669	8.170828	-0.09775	-0.193349	-0.043753	-0.754395	-0.079102	-0.19751
1089.0	6.081147	1.169354	8.038875	-0.003625	-0.250363	-0.06499	-0.758545	-0.083496	-0.199707
1090.0	5.909439	1.204683	8.298047	0.026701	-0.341699	-0.095976	-0.758789	-0.079102	-0.19751
1091.0	6.031546	0.555993	7.986085	0.121834	-0.466417	-0.172546	-0.756592	-0.083496	-0.192871
1092.0	6.173443	0.920371	8.247268	0.329736	-0.59439	-0.260393	-0.760742	-0.083496	-0.188232
1093.0	6.403605	2.102753	8.542724	0.421607	-0.642848	-0.268262	-0.760498	-0.090088	-0.183594
1094.0	6.277327	2.45054	8.443521	0.49542	-0.667388	-0.202159	-0.762451	-0.094482	-0.172119
1095.0	6.491543	3.030035	8.473191	0.196198	-0.628166	-0.101348	-0.766846	-0.09668	-0.174316
1096.0	6.346714	2.244083	8.204863	0.051645	-0.639573	-0.004626	-0.762451	-0.09668	-0.16748
1097.0	5.786813	1.989115	8.308912	0.016592	-0.743806	0.080966	-0.762695	-0.090088	-0.160645
1098.0	6.348499	2.956512	8.690055	-0.080837	-0.915623	0.136428	-0.773682	-0.090088	-0.153809
1099.0	5.671137	2.223573	8.961681	-0.154794	-0.89924	0.131741	-0.771484	-0.090088	-0.151611
1100.0	6.297514	1.717336	8.573441	-0.078757	-1.179505	0.170187	-0.773682	-0.090088	-0.140137
1101.0	6.086173	1.173588	8.694287	-0.009368	-1.383068	0.161643	-0.775879	-0.085938	-0.126709
1102.0	6.398045	1.022221	8.623922	0.055855	-1.596447	0.125425	-0.778076	-0.088135	-0.110596
1103.0	6.182433	1.483397	8.93506	0.117835	-1.86192	0.108451	-0.776123	-0.081543	-0.092529
1104.0	6.253787	1.192679	8.766505	-0.025019	-2.152798	0.103848	-0.782715	-0.081787	-0.07666
1105.0	6.419811	1.744895	8.890804	0.148261	-2.47006	0.118133	-0.784912	-0.081787	-0.05835
1106.0	6.163657	1.858695	9.122819	-0.082891	-2.820579	0.150782	-0.791504	-0.07959	-0.040039
1107.0	6.264759	1.3826	8.737818	0.162004	-3.223024	0.196635	-0.793701	-0.077637	-0.003662
1108.0	6.025196	2.312175	9.356382	0.119024	-3.625632	0.282901	-0.798096	-0.077637	0.025879
1109.0	5.898554	1.311255	9.113687	0.233739	-4.133087	0.398077	-0.795898	-0.077637	0.057861
1110.0	5.742095	2.226005	9.057586	0.541441	-4.612613	0.545212	-0.796387	-0.066895	0.091797
1111.0	4.554133	4.093684	9.657634	0.429414	-5.286404	0.827769	-0.792236	-0.060547	0.137207
1112.0	4.09699	3.749715	8.035956	0.245164	-6.17074	1.265656	-0.786377	-0.049561	0.189453
1113.0	3.833197	3.836603	9.252583	0.637078	-6.994754	1.831991	-0.769775	-0.030029	0.246094
1114.0	3.203405	4.207361	9.207933	0.71687	-8.065157	2.5494	-0.753418	-0.006104	0.311523
1115.0	7.360632	5.222573	9.840006	0.968334	-9.343257	3.258032	-0.724121	0.022217	0.381592
1116.0	16.150034	5.294319	9.407807	0.432877	-10.437008	3.73088	-0.687744	0.041992	0.463379
1117.0	31.017171	5.117502	8.348007	-0.586705	-10.982898	3.558269	-0.634277	0.063965	0.53125
1118.0	31.729381	-3.486096	2.286211	-0.313293	-9.552182	2.815129	-0.59375	0.08374	0.583252
1119.0	33.694076	5.343219	9.327894	3.572571	-7.73048	2.026338	-0.549316	0.116699	0.621094
1120.0	26.891077	15.473512	17.44023	2.597811	-6.4938	2.426595	-0.506836	0.138672	0.650391
1121.0	25.590942	7.047701	15.19335	-0.170602	-6.313243	2.519023	-0.474609	0.151855	0.67749
1122.0	19.729301	4.187039	13.829512	3.4054	-3.263313	1.969698	-0.45459	0.193359	0.681152
1123.0	-2.499461	7.190447	16.53429	2.959549	-2.896383	1.507732	-0.429199	0.211182	0.696777
1124.0	29.66454	6.007507	25.18507	2.677613	-1.811633	0.464807	-0.437012	0.237305	0.682617
1125.0	21.361902	22.4909	26.598206	3.965615	4.054217	-0.122302	-0.468262	0.254639	0.659424
1126.0	-0.052731	17.605173	16.670987	0.333904	4.952953	-0.154873	-0.500977	0.252197	0.63208
1127.0	-2.544321	9.720618	13.346431	-0.702677	4.778844	0.176947	-0.529297	0.25	0.614014
1128.0	-1.826889	5.057352	11.273707	-0.912635	4.598863	0.070431	-0.563477	0.23877	0.595947
1129.0	0.486823	1.062853	8.493861	-0.468431	4.733249	-0.251704	-0.587402	0.236572	0.557373
1130.0	2.726312	0.481395	7.56095	0.579917	5.049215	-0.721132	-0.619873	0.227783	0.530273
1131.0	4.755294	1.222417	7.233171	1.212536	5.519167	-1.178024	-0.648438	0.234131	0.49585
1132.0	4.802979	2.760828	6.361188	1.633006	5.941087	-1.52397	-0.685059	0.223145	0.448242
1133.0	4.874724	3.906322	6.294787	1.519104	6.104875	-1.751824	-0.713379	0.220947	0.398193
1134.0	5.002146	3.775772	6.108279	1.195961	6.124048	-1.862812	-0.734619	0.207764	0.35083
1135.0	5.575585	3.15662	5.816539	0.848544	6.0689	-1.88552	-0.755859	0.196777	0.309814
1136.0	6.217915	1.855402	5.373524	0.588174	5.998837	-1.87751	-0.776855	0.179443	0.257813
1137.0	6.754609	0.579643	4.889722	0.623554	5.885979	-1.867444	-0.789307	0.164063	0.210449
1138.0	6.871993	0.207878	4.969035	0.790549	5.708895	-1.87253	-0.80835	0.15332	0.167236
1139.0	7.078769	-0.073281	5.295297	0.921335	5.405807	-1.881755	-0.809814	0.135986	0.12207
1140.0	8.362444	-0.295354	6.037193	1.069686	5.082383	-1.90122	-0.822266	0.122803	0.07666
1141.0	9.867726	-0.180901	6.71761	1.234141	4.866753	-1.897437	-0.823486	0.101074	0.042969
1142.0	11.031464	0.482014	7.649122	1.21776	4.704876	-1.835615	-0.827393	0.088135	0.004395
1143.0	11.908766	0.096822	8.495394	1.088079	4.534767	-1.739778	-0.822266	0.068604	-0.036133
1144.0	13.304198	-1.184856	8.968595	1.123216	4.346945	-1.662311	-0.830322	0.05542	-0.063232
1145.0	15.00036	-1.560099	9.112538	1.382817	4.234935	-1.661613	-0.827393	0.040283	-0.101807
1146.0	15.222173	-1.072428	8.830652	1.626517	4.050543	-1.73093	-0.82251	0.025146	-0.137939
1147.0	16.700793	-0.315547	9.397169	1.851514	4.00079	-1.721428	-0.810547	0.003418	-0.166992
1148.0	16.483122	-0.09771	8.824513	1.84203	3.792098	-1.774559	-0.80542	-0.013916	-0.194092
1149.0	17.366686	0.868678	9.162771	1.907524	3.574549	-1.821364	-0.800049	-0.033447	-0.216553
1150.0	18.437843	1.37793	9.532752	1.811462	3.375446	-1.895136	-0.794922	-0.052979	-0.241211
1151.0	20.476757	2.154621	10.349545	1.647953	3.256302	-1.976832	-0.783203	-0.07251	-0.270508
1152.0	23.023602	2.684735	10.999971	1.447547	3.364403	-2.082642	-0.77124	-0.094238	-0.292725
1153.0	24.954935	2.608686	10.654587	1.3514	3.752199	-2.29262	-0.755127	-0.113525	-0.322021
1154.0	25.448043	3.265426	10.335431	1.296337	4.260527	-2.5716	-0.732422	-0.135254	-0.349121
1155.0	22.288463	-0.470059	9.665669	0.640226	4.64763	-2.961788	-0.716309	-0.152588	-0.385254
1156.0	18.843582	-4.638346	4.542271	0.813189	4.696602	-3.614481	-0.690918	-0.187256	-0.409668
1157.0	17.955692	3.985265	3.398806	1.751157	4.71134	-3.878918	-0.659424	-0.20874	-0.443359
1158.0	18.56527	7.728364	1.586382	-0.053245	4.194704	-3.526334	-0.638672	-0.230469	-0.46582
1159.0	21.795039	1.994122	-3.509006	-2.238257	3.636358	-2.918989	-0.612549	-0.232422	-0.5
1160.0	22.30281	-10.838983	-8.103027	-2.773787	3.229295	-2.781079	-0.588379	-0.236328	-0.524902
1161.0	18.977838	-20.160161	-18.093786	-0.803081	2.814351	-3.069681	-0.567627	-0.260254	-0.535889
1162.0	13.901015	-14.276546	-19.389602	3.132265	1.857863	-3.03516	-0.557617	-0.290771	-0.537598
1163.0	11.929462	-4.729407	-11.655872	2.820958	-0.035671	-2.400428	-0.554443	-0.312744	-0.519043
1164.0	14.79624	-0.960858	-9.613604	1.673026	-1.509033	-1.426656	-0.564453	-0.330078	-0.509521
1165.0	17.689984	4.423619	-2.689019	0.315185	-2.151112	-0.789894	-0.568848	-0.328125	-0.49585
1166.0	12.620358	4.473137	5.612669	-2.130757	-2.185779	-0.202776	-0.591553	-0.310791	-0.491699
1167.0	-3.563291	0.043155	1.670915	-3.224851	-3.817894	0.631968	-0.611572	-0.302246	-0.478027
1168.0	-10.818409	17.420961	18.900048	0.326913	-3.978594	0.800347	-0.646973	-0.287109	-0.446533
1169.0	9.266639	7.023985	12.010991	-7.935643	-5.671689	1.384858	-0.675781	-0.23291	-0.442871
1170.0	17.800097	-27.138522	-11.626595	-4.17451	-4.910777	0.33313	-0.699463	-0.235352	-0.410889
1171.0	10.200298	1.786031	19.288165	2.295885	-5.066434	-0.684979	-0.72583	-0.233398	-0.367676
1172.0	19.361677	-7.282403	14.891301	-4.151055	-5.15782	0.609725	-0.748047	-0.222656	-0.347412
1173.0	21.714861	-14.060976	11.284666	-0.359599	-4.269904	0.901425	-0.770508	-0.209717	-0.311035
1174.0	19.392112	-7.988583	13.067614	-0.180949	-3.569381	1.430295	-0.781982	-0.196777	-0.288574
1175.0	17.134878	2.761806	11.087185	1.038345	-2.805321	1.433679	-0.790771	-0.192627	-0.270264
1176.0	13.473649	5.801725	10.122903	0.155084	-2.206674	1.173419	-0.808838	-0.181885	-0.254639
1177.0	12.495493	5.289856	9.905172	-0.065259	-2.305395	1.056338	-0.809082	-0.17749	-0.231934
1178.0	12.844386	3.37998	10.626416	-0.66756	-1.227512	1.20984	-0.818359	-0.162354	-0.225342
1179.0	7.445368	2.672742	7.648951	-0.619337	-1.162922	1.213417	-0.823242	-0.153564	-0.211914
1180.0	13.998142	6.50405	11.038747	-0.587061	-0.512799	1.017093	-0.83252	-0.13623	-0.214355
1181.0	7.177304	1.084947	7.893268	-0.979667	-0.14187	0.840602	-0.826416	-0.129639	-0.216797
1182.0	9.026036	0.686919	9.115457	-0.6583	0.01188	0.658542	-0.831055	-0.125244	-0.217041
1183.0	7.342649	1.820488	8.450795	-0.481031	0.067777	0.488713	-0.829102	-0.116455	-0.217041
1184.0	6.922477	0.141299	8.508074	-0.608209	0.056272	0.376583	-0.831299	-0.116455	-0.219482
1185.0	6.753513	0.916315	8.158567	-0.340708	0.073964	0.276418	-0.831543	-0.112305	-0.219482
1186.0	6.586162	1.321681	8.236049	-0.263783	0.063843	0.215063	-0.835938	-0.110107	-0.224121
1187.0	6.426595	1.445831	8.275294	-0.213103	0.06682	0.171341	-0.831787	-0.105713	-0.221924
1188.0	6.378303	1.661769	8.061625	-0.190028	0.052615	0.149502	-0.83374	-0.110107	-0.22168
1189.0	6.219016	1.932776	8.067136	-0.131951	0.08188	0.134023	-0.829834	-0.103516	-0.224121
1190.0	6.001317	1.99052	8.138975	-0.14582	0.071256	0.141811	-0.831787	-0.10791	-0.224121
1191.0	5.948688	1.88647	8.090531	-0.148349	0.069564	0.148247	-0.834229	-0.101318	-0.221924
1192.0	6.00942	1.63258	7.949866	-0.146569	0.059036	0.158597	-0.832031	-0.101318	-0.224365
1193.0	5.918843	1.450799	7.987565	-0.106745	0.055685	0.161011	-0.834473	-0.094727	-0.224365
1194.0	5.828921	1.293364	8.097256	-0.103031	0.019347	0.149039	-0.832275	-0.094727	-0.222168
1195.0	6.013693	1.115627	8.034821	-0.099684	-0.008811	0.130931	-0.83252	-0.092529	-0.224365
1196.0	6.310975	1.396369	8.004863	-0.081766	-0.009756	0.108646	-0.830078	-0.094727	-0.229004
1197.0	6.296821	1.505399	8.074832	-0.067765	0.017143	0.091038	-0.83252	-0.092529	-0.224365
1198.0	6.313649	1.458915	8.039477	-0.074549	0.026721	0.0794	-0.834473	-0.092529	-0.222168
1199.0	6.21544	1.569298	8.150754	-0.118026	0.020289	0.073458	-0.832764	-0.085938	-0.229004
1200.0	6.264423	1.433589	8.02013	-0.171549	0.010995	0.07357	-0.83252	-0.092529	-0.222168
1201.0	6.222168	1.228229	8.005858	-0.18216	0.031778	0.065418	-0.83252	-0.088135	-0.224609
1202.0	6.056074	1.211526	8.088882	-0.227957	0.019889	0.051802	-0.83252	-0.088135	-0.226807
1203.0	6.011223	0.490057	7.530382	-0.18968	0.006809	0.01378	-0.830566	-0.085938	-0.229004
1204.0	6.027625	1.340718	8.169591	-0.126351	0.027896	-0.006834	-0.832764	-0.08374	-0.233643
1205.0	6.067898	1.444859	7.971145	-0.35591	0.024158	0.003302	-0.837402	-0.07959	-0.224609
1206.0	5.93163	1.118299	7.691887	-0.307036	0.028179	0.002849	-0.833008	-0.081543	-0.226807
1207.0	6.27552	1.874181	8.147702	0.008877	-0.008655	0.006675	-0.83252	-0.088135	-0.231445
1208.0	6.089958	1.805769	8.212408	-0.16946	-0.026147	0.016212	-0.836914	-0.088135	-0.231445
1209.0	6.239448	1.440382	8.301907	-0.100571	-0.047855	0.032366	-0.830566	-0.08374	-0.229248
1210.0	5.939828	1.272823	8.645417	-0.053117	-0.10193	0.033659	-0.841553	-0.083984	-0.224609
1211.0	6.127116	1.109899	8.159633	-0.02639	-0.209216	0.026328	-0.834961	-0.085938	-0.219971
1212.0	6.103065	1.398029	8.34687	0.060336	-0.251274	0.000661	-0.836914	-0.088135	-0.224609
1213.0	6.269605	1.475343	8.204961	0.075368	-0.297905	-0.025849	-0.841553	-0.081787	-0.219971
1214.0	6.107404	1.899442	8.208408	0.065787	-0.288614	-0.028666	-0.843506	-0.086182	-0.213135
1215.0	5.930102	1.974464	8.433907	-0.058701	-0.384709	-0.005147	-0.841553	-0.083984	-0.20874
1216.0	6.077584	1.452868	8.197996	-0.042858	-0.452447	0.014837	-0.84375	-0.081787	-0.20874
1217.0	6.082938	1.599906	8.312645	0.017397	-0.515236	0.014612	-0.846191	-0.07959	-0.204102
1218.0	5.940969	1.437284	8.560545	0.020078	-0.584696	0.025621	-0.848145	-0.083984	-0.199463
1219.0	5.937889	1.510469	8.631435	0.043263	-0.716072	0.03721	-0.845947	-0.081787	-0.188232
1220.0	5.416226	2.001966	9.226392	0.062772	-0.83519	0.02003	-0.848145	-0.081787	-0.183594
1221.0	5.842452	0.831641	9.776058	-0.102325	-1.087858	0.011301	-0.852539	-0.081787	-0.172119
1222.0	5.794605	3.008157	9.655842	0.293455	-1.45599	0.104248	-0.850586	-0.075439	-0.163086
1223.0	5.425537	1.828042	9.728155	-0.379782	-1.688622	0.175906	-0.857178	-0.075439	-0.14502
1224.0	6.013858	2.381575	10.191398	0.030829	-2.097099	0.265662	-0.86377	-0.073242	-0.124512
1225.0	5.681248	2.0154	10.12653	-0.226861	-2.500934	0.372441	-0.870361	-0.071289	-0.104004
1226.0	5.739874	1.2738	10.405177	-0.051249	-3.027352	0.490152	-0.872803	-0.064697	-0.074463
1227.0	5.63333	2.130151	10.961806	-0.032762	-3.608531	0.60252	-0.875488	-0.056152	-0.040527
1228.0	5.101193	1.329626	10.899953	-0.205452	-4.259618	0.752365	-0.87793	-0.052002	-0.00415
1229.0	5.05274	1.077684	11.163371	0.076061	-5.039004	0.918182	-0.880371	-0.043457	0.043701
1230.0	3.719686	1.599191	12.624473	0.029144	-5.800367	1.136498	-0.883057	-0.030518	0.100342
1231.0	2.612095	1.459036	12.47827	0.341294	-6.657275	1.490345	-0.877441	-0.008789	0.15918
1232.0	-0.181343	3.728673	9.797308	1.119325	-7.624909	2.247122	-0.863525	0.017334	0.231445
1233.0	0.690262	7.095022	10.715464	0.643529	-9.172008	3.122872	-0.844971	0.043457	0.312988
1234.0	5.436011	2.202476	10.70561	-0.94781	-10.984015	3.551449	-0.809082	0.071777	0.412842
1235.0	19.272121	-1.881881	5.534232	-0.874371	-12.097253	3.345335	-0.753662	0.098145	0.498779
1236.0	34.608689	0.645269	4.171385	0.346273	-11.214773	2.721229	-0.699951	0.11792	0.578125
1237.0	35.297337	2.986772	4.490335	1.668382	-9.106995	1.979675	-0.655518	0.148682	0.63208
1238.0	31.690463	8.654808	11.339253	1.990765	-7.412955	1.861084	-0.608887	0.177246	0.670166
1239.0	25.225168	9.409408	15.155306	0.991905	-6.613019	2.072755	-0.55957	0.197021	0.715332
1240.0	22.628514	6.521429	16.668484	1.143659	-5.440286	1.99308	-0.521484	0.225586	0.73291
1241.0	9.846927	2.534491	14.524576	2.207827	-3.639208	1.742197	-0.492676	0.260742	0.755127
1242.0	7.895022	-2.833785	24.99921	2.303783	-3.135957	0.995387	-0.476074	0.280518	0.759277
1243.0	28.407115	8.15971	20.083169	4.552835	0.806344	0.750735	-0.491455	0.332764	0.737793
1244.0	11.329986	19.25858	21.376306	3.493974	4.353653	0.093947	-0.520996	0.361084	0.709717
1245.0	-2.549411	13.330518	14.964327	1.427666	4.537373	0.300399	-0.550537	0.38501	0.686523
1246.0	-3.173163	9.756874	12.093898	0.695126	4.510628	0.368131	-0.572998	0.397949	0.665771
1247.0	-2.529307	6.458915	9.868124	0.277647	4.289619	0.2099	-0.602295	0.419678	0.649414
1248.0	-1.153574	4.110073	7.783475	0.363183	4.362333	-0.145358	-0.635742	0.437012	0.626465
1249.0	0.63474	3.01723	7.168849	0.739602	4.466903	-0.620229	-0.671631	0.458496	0.605469
1250.0	2.836822	2.54699	7.117878	1.077863	4.704632	-1.103079	-0.711914	0.480225	0.577881
1251.0	3.596537	2.799325	6.918576	1.297141	5.04293	-1.556037	-0.765381	0.506104	0.54541
1252.0	4.141985	2.753479	6.914784	1.298207	5.274323	-1.895212	-0.820313	0.516846	0.510986
1253.0	5.251634	2.455103	6.793308	1.281521	5.491928	-2.0777	-0.88916	0.542725	0.458252
1254.0	6.053374	2.418702	6.850533	1.145092	5.631627	-2.110052	-0.957275	0.557617	0.401123
1255.0	7.097792	1.538328	6.767451	0.914864	5.692646	-2.050313	-1.032227	0.574707	0.33252
1256.0	8.106461	0.323821	6.544492	0.825178	5.729687	-1.934936	-1.107178	0.589844	0.250244
1257.0	8.82651	-0.488077	6.338807	0.917086	5.750287	-1.820848	-1.186279	0.604736	0.1521
1258.0	9.48497	-0.950656	6.656476	1.035997	5.661922	-1.717597	-1.258545	0.611328	0.026611
1259.0	10.917242	-1.36451	7.085763	1.198217	5.516663	-1.617297	-1.332764	0.611084	-0.116943
1260.0	12.428076	-1.325454	7.216173	1.448626	5.451466	-1.5582	-1.386719	0.598145	-0.276123
1261.0	12.757557	-0.382574	7.629219	1.655492	5.370918	-1.550857	-1.406738	0.559082	-0.471191
1262.0	13.07967	0.294895	8.112371	1.711486	5.187847	-1.59165	-1.390869	0.494385	-0.65918
1263.0	13.645293	0.547022	8.650246	1.758723	4.942672	-1.707633	-1.321777	0.409912	-0.828613
1264.0	14.53223	0.454533	8.963244	1.84832	4.664729	-1.88746	-1.219727	0.32373	-0.963623
1265.0	15.320071	0.817652	9.401471	1.970281	4.414895	-2.12216	-1.086914	0.230957	-1.064697
1266.0	15.653982	1.274944	9.773617	2.054342	4.125997	-2.346394	-0.936523	0.133789	-1.108398
1267.0	16.215056	1.249953	10.086999	2.102694	3.773967	-2.5806	-0.765625	0.067383	-1.102783
1268.0	17.064969	1.351758	10.15173	2.244779	3.362865	-2.862835	-0.619873	0.028809	-1.040771
1269.0	19.898777	1.82699	11.253561	2.337225	2.913292	-3.193852	-0.517578	0.03125	-0.933838
1270.0	25.318608	3.372425	12.356142	2.303252	2.752143	-3.494397	-0.48999	0.048584	-0.829346
1271.0	28.930919	6.208757	12.523222	1.989596	3.197612	-3.731801	-0.50415	0.074707	-0.759033
1272.0	27.987067	4.513492	11.924325	0.777725	3.801764	-3.928273	-0.545898	0.085205	-0.727295
1273.0	22.218712	-6.966569	9.059248	-0.399292	3.817769	-4.571527	-0.571289	0.063232	-0.726807
1274.0	24.318634	0.094265	3.318396	1.741492	4.281166	-5.096851	-0.577881	0.015137	-0.741943
1275.0	22.252859	12.314478	3.517337	-0.253927	4.548252	-4.522205	-0.566162	-0.002197	-0.762207
1276.0	21.400233	5.418172	-4.45246	-3.596674	3.808001	-3.571761	-0.557373	-0.001953	-0.780273
1277.0	24.73076	-9.383434	-9.156751	-4.731062	3.348989	-2.743784	-0.536133	0.01123	-0.798828
1278.0	18.897895	-25.378051	-18.579871	-3.033518	3.167593	-2.980219	-0.520264	-0.003906	-0.810059
1279.0	12.428405	-21.235498	-24.193517	2.92486	2.256855	-3.194467	-0.513184	-0.062744	-0.815674
1280.0	7.28525	-7.40301	-11.320764	4.20797	0.407731	-2.444321	-0.515381	-0.11084	-0.805664
1281.0	9.977502	-4.437285	-8.677491	1.640445	-1.774712	-1.136471	-0.544922	-0.132813	-0.800537
1282.0	14.324955	-2.056351	-4.312702	2.4047	-2.343243	-0.149261	-0.570068	-0.156982	-0.786377
1283.0	17.09433	6.229379	4.306137	1.575501	-2.381751	0.495313	-0.591309	-0.168213	-0.7771
1284.0	17.031728	5.106107	5.020518	-0.637366	-2.056514	0.819578	-0.613281	-0.16626	-0.770264
1285.0	9.348917	10.694769	8.750367	-0.38591	-1.497096	0.904765	-0.637695	-0.155518	-0.763672
1286.0	1.479141	9.460382	7.199375	-4.341405	-3.215603	1.14127	-0.665283	-0.125	-0.757324
1287.0	-8.01702	2.547736	4.474011	-1.884395	-3.472188	0.579693	-0.700439	-0.121094	-0.727783
1288.0	7.831824	7.061263	16.41756	-3.350508	-4.432288	0.135126	-0.740723	-0.097412	-0.700684
1289.0	10.109464	-10.391386	-0.908881	-3.6615	-4.361265	-0.395871	-0.780273	-0.091064	-0.68042
1290.0	12.288774	-4.58897	10.918853	-0.5194	-5.023382	-0.634559	-0.818848	-0.104492	-0.643555
1291.0	19.339306	-10.542781	15.828623	-1.784749	-4.57794	0.121889	-0.858398	-0.098145	-0.616211
1292.0	19.513003	-12.181795	11.480338	0.015593	-3.641788	1.019463	-0.887207	-0.089844	-0.579834
1293.0	16.151808	-3.774149	14.428499	0.656491	-2.772874	1.650544	-0.906982	-0.083496	-0.566406
1294.0	11.928416	4.245499	7.476892	0.688701	-2.592258	1.564919	-0.931396	-0.074951	-0.539063
1295.0	18.349879	17.09089	11.552721	0.881728	-2.234843	1.268032	-0.942383	-0.070557	-0.530029
1296.0	6.957321	4.298501	7.78383	-1.968453	-1.508424	1.247536	-0.954346	-0.051025	-0.512207
1297.0	14.68321	-3.031504	11.00325	-1.371902	-1.272805	1.494873	-0.966309	-0.025146	-0.505859
1298.0	8.821958	5.002842	6.817611	-0.790993	-0.065142	1.498233	-0.971191	-0.011963	-0.503906
1299.0	11.417933	4.843253	10.005494	-1.346028	-0.279783	0.958325	-0.967773	0.007568	-0.499756
1300.0	7.962201	-5.0254	9.630339	-1.508071	-0.375559	0.612765	-0.974365	0.009766	-0.499756
1301.0	7.517801	-1.23382	7.922317	-0.385607	-0.128069	0.239964	-0.976807	0.01416	-0.495361
1302.0	6.876169	0.408573	9.242867	-0.418603	-0.25152	0.03736	-0.976807	0.016357	-0.488525
1303.0	6.489864	0.760651	8.193076	-0.228425	-0.289175	-0.077055	-0.979004	0.016357	-0.49292
1304.0	6.370547	2.351681	8.147283	-0.123529	-0.295713	-0.137855	-0.976807	0.016357	-0.486084
1305.0	6.297347	2.256602	7.999471	-0.094685	-0.263783	-0.132839	-0.983398	0.01416	-0.488525
1306.0	6.699548	1.806977	7.869107	0.02451	-0.257848	-0.139947	-0.985352	0.011963	-0.479248
1307.0	6.509917	2.246523	8.146606	0.094113	-0.224704	-0.135351	-0.985596	0.016357	-0.483887
1308.0	6.426597	1.298285	7.979719	0.108453	-0.272849	-0.133301	-0.987549	0.009766	-0.477051
1309.0	6.49253	2.44287	7.82151	0.247656	-0.276927	-0.115971	-0.989502	0.007568	-0.479248
1310.0	6.55145	2.765149	7.791411	0.189437	-0.271425	-0.066514	-0.991699	0.003174	-0.472168
1311.0	6.534161	1.679085	7.897839	0.142228	-0.263009	-0.064119	-0.993896	0.007568	-0.476807
1312.0	6.353989	2.225503	7.886676	0.193025	-0.282177	-0.082204	-0.996094	0.005127	-0.463135
1313.0	6.640962	2.522246	7.811335	0.159433	-0.275851	-0.062018	-1.000244	0.00293	-0.458496
1314.0	6.578849	2.441802	7.505764	0.110003	-0.244555	-0.024362	-1.000244	0.00293	-0.460938
1315.0	6.731644	2.801648	7.426903	0.064057	-0.219931	0.008723	-0.99585	0.000977	-0.463135
1316.0	6.801826	2.608019	7.273017	-0.025915	-0.150344	0.050896	-1.002686	0.005127	-0.458496
1317.0	6.814204	2.435956	7.263434	-0.078656	-0.07644	0.082417	-1.004883	0.007324	-0.456299
1318.0	6.823181	2.46909	7.40975	-0.153194	-0.018536	0.105229	-1.002686	0.005127	-0.460938
1319.0	6.715021	2.24601	7.393662	-0.218122	0.044516	0.134929	-1.004883	0.009521	-0.454102
