Acquisition frequency: 100 Hz
PacketCounter	Acc_X	Acc_Y	Acc_Z	Gyr_X	Gyr_Y	Gyr_Z	Mag_X	Mag_Y	Mag_Z
0.0	9.798795	0.67111	-0.708261	-0.003351	0.007245	0.009737	-0.627197	0.062256	-0.422852
1.0	9.814676	0.704882	-0.725909	-0.000458	0.009277	0.007851	-0.629639	0.064453	-0.42749
2.0	9.797406	0.696648	-0.753945	-0.000668	0.007752	0.007459	-0.627197	0.064453	-0.425049
3.0	9.81993	0.669653	-0.718549	0.001453	0.008865	0.008832	-0.627197	0.062256	-0.418213
4.0	9.781874	0.660426	-0.733785	0.001073	0.009308	0.007419	-0.627197	0.064453	-0.418213
5.0	9.77698	0.693302	-0.738614	0.001452	0.008864	0.008832	-0.631836	0.068848	-0.420654
6.0	9.796067	0.672869	-0.661581	0.000863	0.007783	0.007026	-0.63208	0.068848	-0.425293
7.0	9.788395	0.678725	-0.719757	0.000863	0.007783	0.007027	-0.631836	0.06665	-0.420654
8.0	9.799684	0.664896	-0.701804	0.002564	0.005846	0.007615	-0.625	0.064453	-0.422852
9.0	9.80322	0.657534	-0.742664	0.004724	0.010451	0.008361	-0.63208	0.068848	-0.425293
10.0	9.831896	0.65122	-0.695512	0.003756	0.009814	0.005142	-0.634033	0.062256	-0.422852
11.0	9.809644	0.676704	-0.729182	0.009698	0.0101	0.008479	-0.634277	0.068848	-0.418457
12.0	9.809759	0.676155	-0.728142	0.007803	0.012319	0.001412	-0.629639	0.064453	-0.42749
13.0	9.789054	0.675002	-0.714275	0.011245	0.011937	0.001962	-0.627441	0.06665	-0.425293
14.0	9.789139	0.674851	-0.71324	0.01372	0.010918	-0.000706	-0.631836	0.064453	-0.42749
15.0	9.778037	0.687932	-0.729581	0.015252	0.010949	-0.001138	-0.631836	0.064453	-0.425049
16.0	9.816273	0.696409	-0.712365	0.016614	0.012947	-0.00259	-0.631836	0.064453	-0.422852
17.0	9.794365	0.641271	-0.704182	0.018942	0.015582	-0.000824	-0.631836	0.064453	-0.422852
18.0	9.789499	0.674835	-0.70831	0.019568	0.020154	0.000352	-0.631592	0.062256	-0.422852
19.0	9.839716	0.636274	-0.768074	0.018731	0.014056	-0.001215	-0.629639	0.06665	-0.422852
20.0	9.81401	0.66914	-0.759738	0.018183	0.016465	-0.00365	-0.631592	0.062256	-0.429688
21.0	9.815611	0.642215	-0.710905	0.023533	0.01567	-0.002115	-0.631592	0.060059	-0.41333
22.0	9.808061	0.648697	-0.76834	0.028544	0.018809	-0.002623	-0.634033	0.06665	-0.42749
23.0	9.78737	0.647834	-0.753898	0.030283	0.020362	-0.002662	-0.634033	0.062256	-0.422852
24.0	9.814509	0.669314	-0.75311	0.029166	0.023378	-0.00145	-0.629639	0.068848	-0.423096
25.0	9.845179	0.684298	-0.793713	0.029564	0.024732	-0.006122	-0.631836	0.064453	-0.42749
26.0	9.862634	0.692248	-0.762507	0.032833	0.026314	-0.00659	-0.638672	0.068848	-0.429932
27.0	9.861363	0.719572	-0.807436	0.033246	0.02936	-0.005809	-0.634033	0.06665	-0.420654
28.0	9.81871	0.663975	-0.785103	0.03075	0.028686	-0.008598	-0.627197	0.064453	-0.425049
29.0	9.793073	0.69726	-0.775379	0.030047	0.03475	-0.006608	-0.631836	0.064453	-0.422852
30.0	9.762715	0.682957	-0.729483	0.026397	0.033604	-0.007554	-0.629639	0.064453	-0.42749
31.0	9.728411	0.66818	-0.784318	0.0235	0.031578	-0.005671	-0.631592	0.057861	-0.424805
32.0	9.716383	0.715636	-0.704329	0.026899	0.027706	-0.004477	-0.629639	0.06665	-0.42749
33.0	9.780481	0.691512	-0.692494	0.027234	0.023775	-0.002425	-0.631592	0.062256	-0.418213
34.0	9.789217	0.739582	-0.625932	0.025663	0.020256	-0.00136	-0.634033	0.064453	-0.425049
35.0	9.809069	0.686334	-0.642219	0.026273	0.023126	-0.005644	-0.627441	0.06665	-0.425293
36.0	9.850921	0.688139	-0.66564	0.021234	0.018202	0.000951	-0.631836	0.06665	-0.422852
37.0	9.83886	0.646469	-0.686674	0.017465	0.02421	0.003789	-0.629395	0.060059	-0.427246
38.0	9.848841	0.659769	-0.714403	0.014607	0.025675	0.005032	-0.631592	0.062256	-0.425049
39.0	9.864971	0.693564	-0.730393	0.008892	0.028606	0.007518	-0.629639	0.068848	-0.423096
40.0	9.829546	0.711888	-0.691109	0.012492	0.024558	0.003656	-0.627197	0.064453	-0.429688
41.0	9.813844	0.676762	-0.670232	0.008645	0.023593	0.007768	-0.627197	0.062256	-0.42041
42.0	9.767301	0.70794	-0.648804	0.011501	0.022125	0.006527	-0.627197	0.062256	-0.429688
43.0	9.750321	0.69956	-0.675711	0.003261	0.020896	0.006855	-0.629395	0.062256	-0.42749
44.0	9.783686	0.66007	-0.621316	0.000775	0.020221	0.004061	-0.629395	0.062256	-0.425049
45.0	9.804726	0.660569	-0.631986	-0.00287	0.019078	0.003108	-0.63208	0.068848	-0.425293
46.0	9.825769	0.661121	-0.642622	-0.001132	0.02063	0.003071	-0.629395	0.060059	-0.429688
47.0	9.830888	0.627094	-0.634556	-0.000553	0.021714	0.004876	-0.631592	0.060059	-0.425049
48.0	9.820011	0.639625	-0.649862	-0.005523	0.022067	0.004737	-0.631592	0.062256	-0.42749
49.0	9.814082	0.6185	-0.659367	0.000939	0.018255	0.00509	-0.631592	0.062256	-0.425049
50.0	9.8302	0.65226	-0.676238	-0.007713	0.015683	0.010085	-0.629639	0.06665	-0.432129
51.0	9.80946	0.650514	-0.662078	-0.00465	0.015739	0.009235	-0.627441	0.06665	-0.42749
52.0	9.798603	0.6627	-0.677786	-0.008049	0.019607	0.008031	-0.627197	0.062256	-0.434326
53.0	9.804894	0.682404	-0.664301	-0.005193	0.01984	0.012244	-0.625	0.06665	-0.422852
54.0	9.767072	0.672878	-0.678773	-0.00921	0.019138	0.009872	-0.631836	0.064453	-0.432129
55.0	9.794274	0.69349	-0.677895	-0.006146	0.019194	0.009023	-0.629639	0.064453	-0.422852
56.0	9.826399	0.68048	-0.671041	-0.006146	0.019193	0.009023	-0.629639	0.068848	-0.432373
57.0	9.837594	0.66681	-0.651478	-0.00859	0.022006	0.005588	-0.629639	0.06665	-0.420654
58.0	9.875798	0.674836	-0.632623	-0.007019	0.025518	0.004526	-0.629639	0.068848	-0.429932
59.0	9.826975	0.678867	-0.664217	-0.006688	0.021592	0.00658	-0.629639	0.06665	-0.42749
60.0	9.842025	0.658558	-0.685811	-0.011785	0.027395	0.004771	-0.631592	0.062256	-0.425049
61.0	9.800361	0.656436	-0.658179	-0.008389	0.023525	0.005978	-0.629639	0.068848	-0.427734
62.0	9.783501	0.648203	-0.684801	-0.00628	0.024635	0.007361	-0.634033	0.06665	-0.425293
63.0	9.827785	0.676604	-0.654473	-0.004788	0.021177	0.007574	-0.629639	0.064453	-0.42749
64.0	9.804839	0.64765	-0.693012	-0.004994	0.019654	0.007185	-0.629639	0.06665	-0.429932
65.0	9.807207	0.67428	-0.637935	-0.000982	0.020352	0.009562	-0.62085	0.073242	-0.427734
66.0	9.812282	0.639779	-0.629953	0.00018	0.020819	0.007723	-0.629639	0.06665	-0.429932
67.0	9.833424	0.639915	-0.640213	-0.003217	0.024687	0.006515	-0.629639	0.06665	-0.422852
68.0	9.817786	0.686074	-0.66122	-0.000522	0.025182	0.004254	-0.627197	0.064453	-0.42749
69.0	9.826796	0.645251	-0.694302	-0.00396	0.025565	0.003682	-0.63208	0.071045	-0.43457
70.0	9.802081	0.650915	-0.637734	-0.000894	0.02562	0.002838	-0.627441	0.068848	-0.432373
71.0	9.806218	0.643857	-0.676837	-0.002633	0.024069	0.00287	-0.627441	0.068848	-0.429932
72.0	9.787524	0.67021	-0.608884	-0.001101	0.024096	0.002448	-0.631836	0.064453	-0.429688
73.0	9.840557	0.658562	-0.614041	0.000596	0.022161	0.003054	-0.629639	0.068848	-0.429932
74.0	9.808785	0.670693	-0.617105	0.00231	0.01853	-0.001794	-0.625244	0.068848	-0.43457
75.0	9.798863	0.656791	-0.585063	0.003866	0.023737	0.002602	-0.633789	0.060059	-0.431885
76.0	9.796951	0.62931	-0.635907	0.009057	0.023205	-0.002306	-0.627197	0.062256	-0.434326
77.0	9.803145	0.650063	-0.622053	0.006193	0.024671	-0.001074	-0.627441	0.068848	-0.427734
78.0	9.82913	0.61745	-0.626101	0.006989	0.025577	-0.004329	-0.627197	0.064453	-0.429688
79.0	9.825228	0.624602	-0.582084	0.00392	0.025521	-0.003488	-0.622803	0.06665	-0.432129
80.0	9.863286	0.633345	-0.563041	0.007151	0.023614	-0.003301	-0.629639	0.068848	-0.432373
81.0	9.829529	0.618459	-0.618806	0.011791	0.027179	-0.005197	-0.627441	0.068848	-0.427734
82.0	9.825582	0.625726	-0.574853	0.016351	0.023777	-0.00582	-0.631592	0.062256	-0.42749
83.0	9.798649	0.604698	-0.571816	0.026288	0.023063	-0.005502	-0.627197	0.062256	-0.422852
84.0	9.804798	0.625624	-0.557864	0.024033	0.029093	-0.003103	-0.627441	0.06665	-0.432129
85.0	9.857837	0.614433	-0.562453	0.032067	0.028789	-0.003781	-0.629883	0.071045	-0.429932
86.0	9.820074	0.606078	-0.576477	0.034168	0.029896	-0.002391	-0.63208	0.068848	-0.43457
87.0	9.832256	0.647522	-0.55066	0.035332	0.030359	-0.004227	-0.627441	0.06665	-0.42749
88.0	9.836539	0.640803	-0.589446	0.037229	0.029945	-0.003227	-0.625	0.064453	-0.432129
89.0	9.837847	0.695177	-0.581286	0.034158	0.029888	-0.00239	-0.622803	0.06665	-0.42749
90.0	9.810284	0.700591	-0.625201	0.033625	0.032282	-0.004837	-0.627441	0.071045	-0.43457
91.0	9.844835	0.689557	-0.516283	0.02579	0.034105	-0.003777	-0.629639	0.06665	-0.42749
92.0	9.832328	0.675105	-0.583981	0.024013	0.029074	-0.003107	-0.627197	0.062256	-0.432129
93.0	9.843319	0.662405	-0.563566	0.026914	0.031083	-0.004971	-0.627441	0.06665	-0.42749
94.0	9.796526	0.6948	-0.542037	0.028647	0.032629	-0.004999	-0.627197	0.064453	-0.436768
95.0	9.864661	0.663814	-0.569971	0.032077	0.032242	-0.004413	-0.622803	0.062256	-0.429688
96.0	9.816135	0.66854	-0.601371	0.034977	0.03425	-0.006276	-0.631836	0.064453	-0.429688
97.0	9.854139	0.677516	-0.581503	0.034773	0.032725	-0.006663	-0.629395	0.062256	-0.429688
98.0	9.869971	0.631375	-0.554437	0.035373	0.037286	-0.0055	-0.627197	0.062256	-0.432129
99.0	9.812359	0.676638	-0.550169	0.037468	0.038394	-0.004108	-0.63208	0.071045	-0.432373
100.0	9.848713	0.657815	-0.582782	0.036534	0.037739	-0.007333	-0.622803	0.06665	-0.436768
101.0	9.865639	0.666055	-0.55009	0.037095	0.038822	-0.005526	-0.629395	0.062256	-0.42749
102.0	9.882548	0.674313	-0.517251	0.039994	0.040825	-0.007388	-0.625	0.064453	-0.434326
103.0	9.829766	0.686049	-0.506666	0.039183	0.039927	-0.004133	-0.629395	0.062256	-0.429688
104.0	9.851018	0.687099	-0.515342	0.038615	0.038835	-0.005938	-0.625	0.062256	-0.434326
105.0	9.819321	0.699429	-0.517279	0.03627	0.037913	-0.002269	-0.629395	0.062256	-0.432129
106.0	9.834672	0.679556	-0.537496	0.037437	0.038368	-0.004102	-0.625	0.064453	-0.432129
107.0	9.887825	0.668416	-0.540499	0.039201	0.043386	-0.004778	-0.627197	0.064453	-0.434326
108.0	9.877286	0.681534	-0.553985	0.039431	0.048378	-0.005043	-0.634033	0.064453	-0.436768
109.0	9.867152	0.668207	-0.519498	0.042854	0.04799	-0.004445	-0.622803	0.06665	-0.43457
110.0	9.883647	0.702807	-0.533548	0.044218	0.049962	-0.005892	-0.625	0.062256	-0.434326
111.0	9.835728	0.681029	-0.51588	0.045384	0.050412	-0.007724	-0.625	0.062256	-0.434326
112.0	9.825535	0.667881	-0.481195	0.047831	0.051088	-0.004906	-0.622803	0.064453	-0.443848
113.0	9.82677	0.722543	-0.471669	0.048962	0.048063	-0.006083	-0.625	0.06665	-0.436768
114.0	9.751794	0.679129	-0.453538	0.047782	0.047602	-0.00425	-0.624756	0.057861	-0.441162
115.0	9.757836	0.700155	-0.437877	0.042618	0.046434	-0.004824	-0.624756	0.060059	-0.436523
116.0	9.779151	0.701003	-0.446213	0.049397	0.038717	-0.002304	-0.627197	0.060059	-0.434326
117.0	9.82768	0.697076	-0.407725	0.047336	0.041069	-0.004356	-0.627197	0.064453	-0.441406
118.0	9.795964	0.70945	-0.409893	0.050003	0.038068	-0.005937	-0.624756	0.060059	-0.434326
119.0	9.800743	0.702398	-0.447813	0.047128	0.039538	-0.004737	-0.624756	0.060059	-0.434326
120.0	9.80671	0.723424	-0.433228	0.042096	0.03295	-0.003615	-0.61792	0.057861	-0.441162
121.0	9.811494	0.716448	-0.471685	0.043887	0.032755	-0.009081	-0.622559	0.057861	-0.436523
122.0	9.778633	0.700951	-0.527119	0.034162	0.034993	-0.009098	-0.626953	0.057861	-0.436523
123.0	9.778747	0.701657	-0.524045	0.038921	0.033108	-0.009277	-0.618164	0.060059	-0.436523
124.0	9.768191	0.71509	-0.539326	0.040026	0.026614	-0.009783	-0.625244	0.06665	-0.443848
125.0	9.789548	0.690432	-0.50115	0.040023	0.026611	-0.009783	-0.620117	0.055664	-0.438721
126.0	9.810804	0.691766	-0.511118	0.041878	0.022734	-0.008102	-0.624756	0.057861	-0.438965
127.0	9.800224	0.705033	-0.527194	0.040147	0.021187	-0.008075	-0.622803	0.06665	-0.43457
128.0	9.816718	0.713673	-0.496094	0.03763	0.022235	-0.005457	-0.622803	0.064453	-0.439209
129.0	9.826391	0.673242	-0.52882	0.03447	0.022393	-0.011126	-0.627197	0.060059	-0.441162
130.0	9.826444	0.673889	-0.527014	0.035702	0.019166	-0.005808	-0.624756	0.055664	-0.441162
131.0	9.815911	0.66104	-0.495475	0.038377	0.016165	-0.007377	-0.624756	0.060059	-0.438965
132.0	9.831373	0.64133	-0.51748	0.036841	0.016141	-0.006971	-0.626953	0.057861	-0.445801
133.0	9.81018	0.667146	-0.551867	0.04013	0.021171	-0.008071	-0.620361	0.062256	-0.441406
134.0	9.799651	0.65427	-0.52014	0.042536	0.018395	-0.00458	-0.624756	0.055664	-0.441162
135.0	9.805468	0.675498	-0.507567	0.040062	0.014229	-0.006733	-0.620117	0.053467	-0.438721
136.0	9.77366	0.68794	-0.512458	0.038333	0.012684	-0.006704	-0.626953	0.057861	-0.438965
137.0	9.817041	0.717989	-0.48331	0.040902	0.007965	-0.002164	-0.622559	0.060059	-0.438965
138.0	9.806447	0.730689	-0.500825	0.042076	0.008407	-0.003993	-0.622803	0.064453	-0.439209
139.0	9.811292	0.697551	-0.493598	0.040974	0.006207	-0.007596	-0.620361	0.057861	-0.443604
140.0	9.80067	0.710464	-0.511373	0.04204	0.004936	-0.00332	-0.624512	0.053467	-0.436279
141.0	9.833401	0.753103	-0.500859	0.03347	0.004154	-0.004522	-0.624756	0.055664	-0.443359
142.0	9.795814	0.744371	-0.517685	0.025838	0.007516	-0.003172	-0.622559	0.057861	-0.443604
143.0	9.844024	0.740883	-0.48201	0.024468	0.005551	-0.001717	-0.620361	0.057861	-0.443604
144.0	9.827673	0.732638	-0.510853	0.024111	0.005972	-0.003142	-0.624756	0.055664	-0.438721
145.0	9.817071	0.719563	-0.480351	0.021402	0.005509	-0.000907	-0.622559	0.057861	-0.434326
146.0	9.859518	0.720871	-0.504307	0.02695	0.001022	-0.003651	-0.622314	0.053467	-0.443359
147.0	9.817081	0.719754	-0.479845	0.025043	0.010115	-0.000592	-0.620361	0.057861	-0.441162
148.0	9.832591	0.699402	-0.502395	0.026188	0.007089	-0.001746	-0.631348	0.055664	-0.438721
149.0	9.833483	0.728268	-0.449431	0.025831	0.007509	-0.003171	-0.624756	0.057861	-0.441162
150.0	9.822889	0.740981	-0.467018	0.022574	0.005946	-0.002737	-0.624756	0.057861	-0.436523
151.0	9.854698	0.703529	-0.412546	0.022543	0.00248	-0.002059	-0.624756	0.060059	-0.441162
152.0	9.849838	0.737199	-0.419198	0.020685	0.006345	-0.003759	-0.622559	0.057861	-0.441162
153.0	9.828617	0.736758	-0.406727	0.021396	0.005504	-0.000906	-0.624756	0.057861	-0.443604
154.0	9.854755	0.729395	-0.459664	0.020219	0.005064	0.000924	-0.62915	0.055664	-0.436523
155.0	9.839291	0.749698	-0.436087	0.016444	0.005864	-0.00112	-0.626953	0.053467	-0.436279
156.0	9.838468	0.720794	-0.488004	0.021942	0.006605	0.000894	-0.624512	0.05127	-0.443359
157.0	9.801783	0.740434	-0.452275	0.016991	0.006966	0.00068	-0.624756	0.055664	-0.441162
158.0	9.79119	0.727217	-0.421406	0.013957	0.010392	0.000808	-0.624756	0.057861	-0.448242
159.0	9.844297	0.715738	-0.426534	0.013764	0.008869	0.000435	-0.622314	0.055664	-0.436523
160.0	9.833742	0.728257	-0.443743	0.013245	0.01123	-0.002045	-0.626953	0.053467	-0.440918
161.0	9.832903	0.673761	-0.446996	0.012587	0.00843	0.002265	-0.624756	0.055664	-0.434082
162.0	9.844431	0.715363	-0.424053	0.014473	0.00803	0.003288	-0.624756	0.055664	-0.434082
163.0	9.849396	0.707341	-0.464386	0.0165	0.012788	-0.00248	-0.622314	0.053467	-0.438721
164.0	9.833934	0.727796	-0.44023	0.017017	0.010427	1e-06	-0.626953	0.057861	-0.438965
165.0	9.817676	0.719005	-0.468679	0.014826	0.00761	0.004715	-0.626953	0.057861	-0.438965
166.0	9.834052	0.727069	-0.438805	0.017534	0.008066	0.002482	-0.626953	0.057861	-0.441162
167.0	9.797354	0.746584	-0.402993	0.014471	0.008028	0.003289	-0.624756	0.055664	-0.441162
168.0	9.823588	0.738739	-0.455731	0.011377	0.004527	0.004778	-0.61792	0.053467	-0.438721
169.0	9.797551	0.771284	-0.450236	0.007442	0.007268	0.001675	-0.622314	0.055664	-0.436523
170.0	9.813897	0.779574	-0.420536	0.008944	0.003823	0.001955	-0.626953	0.057861	-0.443604
171.0	9.818885	0.771214	-0.461389	0.001833	0.004835	0.005769	-0.622314	0.055664	-0.441162
172.0	9.82962	0.783836	-0.490926	-0.00057	0.007594	0.002263	-0.62915	0.055664	-0.443359
173.0	9.802693	0.762079	-0.48932	-0.003825	0.006035	0.002697	-0.625	0.062256	-0.434326
174.0	9.801834	0.707453	-0.49291	-0.002679	0.003008	0.00155	-0.625	0.062256	-0.443604
175.0	9.81815	0.715922	-0.463428	-0.001694	0.001923	-0.000652	-0.625	0.062256	-0.443604
176.0	9.812416	0.695119	-0.474309	0.001015	0.002378	-0.002885	-0.629395	0.057861	-0.445801
177.0	9.827942	0.67474	-0.49714	-0.00421	0.00299	0.001953	-0.622559	0.057861	-0.436523
178.0	9.806726	0.673891	-0.484895	0.004511	0.001826	0.00422	-0.626953	0.055664	-0.441162
179.0	9.827992	0.674211	-0.496868	0.006481	-0.000345	-0.000184	-0.625	0.064453	-0.434326
180.0	9.849241	0.674548	-0.509165	0.005628	-0.004664	0.003756	-0.624756	0.055664	-0.450439
181.0	9.844282	0.68229	-0.468463	0.006258	-0.005332	0.000127	-0.622803	0.062256	-0.438965
182.0	9.865641	0.708078	-0.529139	0.007544	-0.001601	0.004097	-0.627197	0.060059	-0.438965
183.0	9.823173	0.706573	-0.505153	0.006043	0.001844	0.003816	-0.622559	0.060059	-0.445801
184.0	9.834696	0.747901	-0.482901	0.005574	0.000571	0.0085	-0.62915	0.053467	-0.443359
185.0	9.802918	0.759448	-0.488894	0.008042	0.003135	-0.001271	-0.627197	0.060059	-0.441162
186.0	9.802944	0.759309	-0.488598	0.002817	0.003749	0.003567	-0.625	0.062256	-0.438965
187.0	9.807799	0.725663	-0.481275	0.009928	0.002734	-0.000246	-0.624756	0.057861	-0.438965
188.0	9.850305	0.726655	-0.505262	0.008366	-0.000747	0.00084	-0.629395	0.057861	-0.438965
189.0	9.850301	0.726617	-0.505379	0.009543	-0.000311	-0.000989	-0.624756	0.055664	-0.436523
190.0	9.877288	0.748161	-0.506267	0.011459	0.002752	-0.000649	-0.629395	0.060059	-0.438965
191.0	9.849529	0.69762	-0.557437	0.006865	0.002698	0.000559	-0.629395	0.057861	-0.438965
192.0	9.839772	0.73889	-0.523148	0.003964	0.000722	0.00242	-0.626953	0.055664	-0.438721
193.0	9.807849	0.725151	-0.481024	0.005303	-0.000783	0.001646	-0.624756	0.057861	-0.436523
194.0	9.776042	0.736952	-0.487249	0.003417	-0.000383	0.000622	-0.622559	0.057861	-0.441162
195.0	9.77606	0.736728	-0.487217	0.007573	0.001862	0.003414	-0.620117	0.053467	-0.440918
196.0	9.807888	0.724481	-0.481244	0.005272	-0.004246	0.002331	-0.626953	0.055664	-0.441162
197.0	9.823265	0.678371	-0.456488	0.009866	-0.004193	0.001123	-0.627197	0.062256	-0.446045
198.0	9.80695	0.669816	-0.485998	0.012605	-0.000278	-0.001795	-0.629395	0.057861	-0.441162
199.0	9.855177	0.691933	-0.499058	0.009542	-0.000313	-0.000989	-0.626709	0.05127	-0.438721
200.0	9.822571	0.674863	-0.5575	0.008203	0.001192	-0.000215	-0.624756	0.057861	-0.443604
201.0	9.807064	0.695194	-0.534555	0.006995	-0.002706	0.0023	-0.626953	0.057861	-0.436523
202.0	9.82831	0.695603	-0.546771	0.009542	-0.000313	-0.000989	-0.620361	0.060059	-0.438965
203.0	9.807057	0.694953	-0.535001	0.011943	-0.003071	0.002519	-0.624756	0.055664	-0.436523
204.0	9.791534	0.715295	-0.512395	0.019052	-0.004091	-0.001292	-0.629395	0.062256	-0.436768
205.0	9.828142	0.669938	-0.499676	0.01752	-0.004108	-0.00089	-0.622803	0.062256	-0.443604
206.0	9.806862	0.669462	-0.488262	0.018858	-0.005614	-0.001663	-0.631348	0.055664	-0.438721
207.0	9.828079	0.67002	-0.50081	0.020774	-0.002552	-0.001325	-0.625	0.062256	-0.438965
208.0	9.823222	0.703572	-0.508379	0.020226	-0.003659	-0.003122	-0.626953	0.057861	-0.438965
209.0	9.833753	0.691319	-0.490707	0.017164	-0.003693	-0.002316	-0.622559	0.060059	-0.436523
210.0	9.838654	0.68342	-0.532344	0.023479	-0.002103	-0.003558	-0.626953	0.057861	-0.429443
211.0	9.833809	0.716866	-0.539745	0.021511	7.6e-05	0.000842	-0.626953	0.057861	-0.434082
212.0	9.806934	0.720493	-0.587258	0.023041	9.2e-05	0.00044	-0.624756	0.057861	-0.438965
213.0	9.833817	0.716531	-0.540057	0.024571	0.000108	3.7e-05	-0.624756	0.060059	-0.434326
214.0	9.812573	0.715887	-0.5282	0.023039	9e-05	0.00044	-0.631348	0.055664	-0.434082
215.0	9.833821	0.716158	-0.54047	0.0232	-0.001849	0.001499	-0.620117	0.055664	-0.438721
216.0	9.785577	0.69398	-0.5279	0.02093	-0.004497	-0.000263	-0.625	0.062256	-0.438965
217.0	9.855024	0.716473	-0.55347	0.025359	-0.00251	-0.002531	-0.626953	0.055664	-0.436523
218.0	9.822285	0.673734	-0.563866	0.026968	-0.002649	0.003549	-0.629395	0.062256	-0.432129
219.0	9.850076	0.724203	-0.513185	0.027242	-0.002912	-0.001506	-0.624756	0.057861	-0.445801
220.0	9.854885	0.690869	-0.506249	0.023856	0.000932	-0.00282	-0.626953	0.057861	-0.441162
221.0	9.833722	0.715804	-0.542727	0.026916	0.000963	-0.003626	-0.624756	0.055664	-0.441162
222.0	9.849222	0.695315	-0.56568	0.026124	0.003578	-0.001059	-0.626953	0.055664	-0.436523
223.0	9.818222	0.73649	-0.519522	0.024238	0.003976	-0.002084	-0.624756	0.060059	-0.438965
224.0	9.833745	0.715808	-0.542319	0.021886	0.003116	0.001578	-0.624512	0.05127	-0.440918
225.0	9.79138	0.739736	-0.566737	0.020325	-0.000362	0.002676	-0.624756	0.055664	-0.441162
226.0	9.812537	0.714778	-0.530378	0.019808	0.00199	0.000186	-0.624512	0.05127	-0.438721
227.0	9.839545	0.735992	-0.531435	0.017456	0.001131	0.003848	-0.629395	0.057861	-0.438965
228.0	9.812585	0.714129	-0.530365	0.021691	0.00159	0.001212	-0.626953	0.055664	-0.438721
229.0	9.828908	0.722616	-0.501277	0.019968	5e-05	0.001248	-0.62915	0.053467	-0.436279
230.0	9.850171	0.722766	-0.513388	0.022044	0.001175	0.00264	-0.626953	0.055664	-0.438721
231.0	9.812646	0.713225	-0.530455	0.017292	0.003067	0.002786	-0.622559	0.060059	-0.438965
232.0	9.833925	0.713332	-0.542305	0.020351	0.003096	0.001981	-0.624756	0.057861	-0.431885
233.0	9.823406	0.725364	-0.560088	0.012571	0.008419	0.002234	-0.622559	0.057861	-0.434326
234.0	9.828273	0.691765	-0.552267	0.015053	0.003877	0.000332	-0.622314	0.055664	-0.441162
235.0	9.839789	0.733686	-0.530105	0.014069	0.004973	0.002529	-0.631592	0.057861	-0.434082
236.0	9.807102	0.690826	-0.539497	0.010656	0.005357	0.001905	-0.624756	0.057861	-0.438965
237.0	9.839887	0.733013	-0.529212	0.013085	0.006069	0.004726	-0.626953	0.057861	-0.434082
238.0	9.802391	0.723372	-0.545966	0.009287	0.003405	0.003371	-0.624512	0.053467	-0.440918
239.0	9.823682	0.72338	-0.557811	0.010978	0.001483	0.004032	-0.626953	0.055664	-0.436523
240.0	9.813024	0.71017	-0.527553	0.007726	-7e-05	0.004472	-0.62915	0.053467	-0.436279
241.0	9.818792	0.730733	-0.516883	0.007695	-0.00353	0.005171	-0.626953	0.057861	-0.434082
242.0	9.850624	0.718341	-0.510886	0.009255	-5.6e-05	0.004069	-0.624756	0.057861	-0.438965
243.0	9.823644	0.696581	-0.509839	0.003413	-0.000384	0.000624	-0.622314	0.055664	-0.436523
244.0	9.818704	0.704665	-0.468926	0.012283	-0.003488	0.003964	-0.62915	0.057861	-0.434082
245.0	9.802414	0.695538	-0.498304	0.010431	0.00037	0.002238	-0.624756	0.057861	-0.436523
246.0	9.813135	0.707952	-0.528455	0.010816	0.003418	0.002968	-0.624756	0.057861	-0.431885
247.0	9.802487	0.694743	-0.497975	0.011523	0.002593	0.005826	-0.626953	0.053467	-0.434082
248.0	9.802521	0.694241	-0.498001	0.010592	-0.001567	0.003303	-0.626953	0.053467	-0.436279
249.0	9.808429	0.739878	-0.535952	0.007693	-0.00353	0.005172	-0.626953	0.057861	-0.434082
250.0	9.835314	0.735788	-0.488885	0.007886	-0.002006	0.005537	-0.626953	0.055664	-0.434082
251.0	9.803546	0.74711	-0.495273	0.003136	-0.000111	0.005679	-0.627197	0.060059	-0.436523
252.0	9.797817	0.725524	-0.506416	0.004088	-0.004669	0.004183	-0.627197	0.060059	-0.434326
253.0	9.835386	0.734296	-0.489675	0.000868	-0.00276	0.003923	-0.626953	0.057861	-0.434082
254.0	9.856637	0.734398	-0.50209	-0.001401	-0.005409	0.002168	-0.624512	0.053467	-0.436279
255.0	9.829629	0.712658	-0.501394	-0.004267	-0.003912	0.003337	-0.622559	0.057861	-0.438965
256.0	9.845129	0.691702	-0.524477	-0.004235	-0.000452	0.002637	-0.624756	0.057861	-0.441162
257.0	9.849942	0.658037	-0.517151	-0.000822	-0.000838	0.003261	-0.622314	0.053467	-0.434082
258.0	9.839258	0.644998	-0.487131	0.000675	-0.004285	0.003559	-0.622314	0.055664	-0.438721
259.0	9.855716	0.678604	-0.506664	0.001722	0.001537	-3.8e-05	-0.626953	0.057861	-0.441162
260.0	9.801859	0.660488	-0.552747	0.002622	0.002237	0.003185	-0.627197	0.062256	-0.438965
261.0	9.807662	0.68113	-0.541646	0.008111	0.002976	0.0052	-0.624756	0.057861	-0.436523
262.0	9.807698	0.6807	-0.541541	0.008901	0.000353	0.00264	-0.622314	0.055664	-0.436523
263.0	9.834732	0.701798	-0.542728	0.009254	-5.9e-05	0.004069	-0.620361	0.060059	-0.441162
264.0	9.802812	0.688389	-0.50039	0.00874	0.002289	0.001575	-0.626953	0.057861	-0.434082
265.0	9.80859	0.709281	-0.489491	0.005295	-0.000785	0.001651	-0.626953	0.057861	-0.434082
266.0	9.834764	0.701139	-0.542994	0.004716	-0.005357	0.000559	-0.626953	0.057861	-0.436523
267.0	9.834769	0.70091	-0.543209	0.007564	0.001864	0.003406	-0.624512	0.053467	-0.434082
268.0	9.861802	0.722192	-0.544221	0.001722	0.001537	-3.8e-05	-0.62915	0.055664	-0.438721
269.0	9.850286	0.679985	-0.565787	0.008386	0.002701	0.000145	-0.627197	0.060059	-0.434326
270.0	9.818504	0.691819	-0.57182	0.006857	0.002688	0.000548	-0.624512	0.053467	-0.434082
271.0	9.792339	0.699753	-0.518442	0.006857	0.002688	0.000548	-0.622314	0.053467	-0.434082
272.0	9.786745	0.703435	-0.57776	0.0089	0.000353	0.00264	-0.626953	0.055664	-0.434082
273.0	9.803069	0.712082	-0.54862	0.009722	0.001189	-0.000621	-0.626953	0.057861	-0.434082
274.0	9.792345	0.699443	-0.51875	0.007388	-0.00838	-0.000972	-0.622559	0.057861	-0.434326
275.0	9.808629	0.708194	-0.4903	0.00985	-0.004207	0.001146	-0.624756	0.055664	-0.438721
276.0	9.851107	0.70883	-0.514857	0.004715	-0.005357	0.000561	-0.62915	0.055664	-0.436523
277.0	9.861768	0.721504	-0.545759	0.004169	-0.00647	-0.001232	-0.624756	0.060059	-0.431885
278.0	9.818401	0.691286	-0.574235	0.004555	-0.003422	-0.000505	-0.626709	0.05127	-0.438721
279.0	9.834701	0.700104	-0.545475	0.003026	-0.003434	-0.000103	-0.626953	0.055664	-0.436523
280.0	9.802886	0.711987	-0.552007	0.003219	-0.00191	0.000261	-0.622559	0.057861	-0.434326
281.0	9.82891	0.67894	-0.556822	0.003219	-0.00191	0.000261	-0.631592	0.057861	-0.434082
282.0	9.797103	0.690681	-0.563395	0.003733	-0.004257	0.002756	-0.622314	0.055664	-0.436523
283.0	9.812563	0.669841	-0.586678	0.006084	-0.00341	-0.000908	-0.624756	0.060059	-0.434326
284.0	9.791165	0.644308	-0.526759	0.002331	-0.009665	0.004928	-0.624756	0.057861	-0.434082
285.0	9.791275	0.668762	-0.576219	0.005582	-0.008116	0.004486	-0.624756	0.060059	-0.436523
286.0	9.807589	0.677162	-0.547912	0.003699	-0.007717	0.003459	-0.62915	0.055664	-0.434082
287.0	9.823049	0.655982	-0.571446	0.005969	-0.005068	0.005212	-0.631592	0.057861	-0.427246
288.0	9.860633	0.664649	-0.554842	0.010749	-0.003507	0.004367	-0.628906	0.05127	-0.436279
289.0	9.833742	0.66748	-0.602821	0.008011	-0.007403	0.007306	-0.629395	0.062256	-0.436768
290.0	9.839535	0.68793	-0.592508	0.010942	-0.001983	0.00473	-0.626953	0.057861	-0.436523
291.0	9.818312	0.686934	-0.580935	0.011262	-0.005854	0.006863	-0.62915	0.055664	-0.431885
292.0	9.823241	0.677667	-0.622435	0.013566	0.000255	0.007911	-0.62915	0.057861	-0.429443
293.0	9.813613	0.718696	-0.589025	0.011455	-0.004331	0.007226	-0.624756	0.057861	-0.436523
294.0	9.818533	0.709409	-0.63066	0.008397	-0.004354	0.008032	-0.631348	0.053467	-0.436279
295.0	9.813671	0.717039	-0.590074	0.005145	-0.005902	0.008476	-0.620361	0.057861	-0.434326
296.0	9.808917	0.749697	-0.598167	0.002715	-0.006616	0.005658	-0.631348	0.055664	-0.434082
297.0	9.81369	0.715637	-0.591462	-0.003241	-0.008598	0.008338	-0.627197	0.060059	-0.429688
298.0	9.813693	0.714925	-0.592266	-0.002066	-0.008176	0.006505	-0.631348	0.055664	-0.431885
299.0	9.834929	0.714747	-0.604906	-0.002385	-0.004305	0.00437	-0.626953	0.053467	-0.436279
300.0	9.829145	0.693126	-0.616079	-0.003366	-0.003203	0.006566	-0.626953	0.057861	-0.436523
301.0	9.860971	0.68063	-0.609985	-0.000273	0.000279	0.005055	-0.625	0.062256	-0.432129
302.0	9.839781	0.679719	-0.597862	0.001803	0.001404	0.006443	-0.62915	0.057861	-0.434082
303.0	9.808038	0.691002	-0.604028	-0.001449	-0.000143	0.006888	-0.631592	0.057861	-0.434082
304.0	9.834076	0.657276	-0.608556	-0.001254	0.001381	0.00725	-0.627197	0.060059	-0.429688
305.0	9.856316	0.686503	-0.568247	-0.001025	0.006365	0.006908	-0.622559	0.060059	-0.434326
306.0	9.829492	0.689025	-0.61514	0.000195	0.003196	0.012264	-0.627197	0.060059	-0.434326
307.0	9.819951	0.729965	-0.581297	7.9e-05	-0.000132	0.006484	-0.626953	0.057861	-0.429443
308.0	9.846934	0.725733	-0.533741	0.001017	0.004029	0.009002	-0.629639	0.064453	-0.434326
309.0	9.820107	0.728327	-0.580726	0.002545	0.00404	0.008599	-0.625	0.06665	-0.436768
310.0	9.80951	0.714772	-0.550052	0.00137	0.003618	0.010432	-0.627197	0.060059	-0.431885
311.0	9.803776	0.692859	-0.560468	0.00031	0.004852	0.006143	-0.627441	0.06665	-0.432129
312.0	9.820206	0.701149	-0.530809	0.003209	0.006809	0.004269	-0.624756	0.057861	-0.431885
313.0	9.835699	0.679783	-0.553132	0.000663	0.00444	0.007572	-0.627197	0.062256	-0.432129
314.0	9.82995	0.658126	-0.563427	0.006267	0.00683	0.003463	-0.631348	0.055664	-0.438721
315.0	9.819497	0.66993	-0.580768	0.003988	0.012905	0.005719	-0.629639	0.064453	-0.429688
316.0	9.840668	0.644844	-0.543126	0.006656	0.009878	0.004188	-0.629395	0.060059	-0.434326
317.0	9.824409	0.635546	-0.571153	0.007046	0.012926	0.004913	-0.627197	0.060059	-0.429688
318.0	9.85157	0.65641	-0.571236	0.010261	0.011011	0.005175	-0.627197	0.060059	-0.431885
319.0	9.845849	0.634691	-0.581135	0.010419	0.009075	0.006243	-0.627197	0.062256	-0.425049
320.0	9.798732	0.666814	-0.563812	0.011753	0.007561	0.005478	-0.629395	0.062256	-0.434326
321.0	9.842224	0.696379	-0.535203	0.015358	0.008694	0.006465	-0.627197	0.060059	-0.431885
322.0	9.842286	0.695852	-0.534744	0.018812	0.003039	0.002379	-0.627197	0.062256	-0.432129
323.0	9.857781	0.674465	-0.55714	0.017238	0.008293	0.007493	-0.624756	0.060059	-0.431885
324.0	9.836614	0.673581	-0.544367	0.019239	0.009545	0.002398	-0.627197	0.060059	-0.436523
325.0	9.842507	0.694382	-0.532585	0.019275	0.013003	0.001691	-0.629395	0.062256	-0.432129
326.0	9.858026	0.673169	-0.554367	0.019784	0.010657	0.00419	-0.625	0.06665	-0.43457
327.0	9.805092	0.684459	-0.547625	0.019274	0.013001	0.001691	-0.627197	0.064453	-0.432129
328.0	9.820623	0.663324	-0.569202	0.017939	0.014515	0.002455	-0.626953	0.057861	-0.431885
329.0	9.826526	0.684117	-0.557249	0.01602	0.011457	0.002134	-0.622803	0.062256	-0.434326
330.0	9.815851	0.67137	-0.525756	0.020644	0.014942	0.000221	-0.627197	0.060059	-0.431885
331.0	9.805433	0.683388	-0.542834	0.016213	0.01298	0.002495	-0.626953	0.057861	-0.438965
332.0	9.805518	0.683086	-0.541682	0.01927	0.012998	0.001693	-0.631836	0.064453	-0.443848
333.0	9.805595	0.682834	-0.540613	0.019075	0.011473	0.001332	-0.624756	0.057861	-0.431885
334.0	9.799863	0.661374	-0.550404	0.016368	0.011045	0.003566	-0.631592	0.060059	-0.431885
335.0	9.799937	0.660971	-0.549578	0.015979	0.007996	0.002845	-0.629395	0.062256	-0.42749
336.0	9.821268	0.660852	-0.560882	0.01445	0.007987	0.003246	-0.62915	0.057861	-0.434082
337.0	9.810841	0.672633	-0.578702	0.012883	0.00452	0.004357	-0.629395	0.062256	-0.434326
338.0	9.810895	0.672255	-0.578229	0.012375	0.006862	0.001856	-0.629395	0.062256	-0.434326
339.0	9.832213	0.672438	-0.589478	0.009988	0.009605	-0.001676	-0.624756	0.057861	-0.436523
340.0	9.795525	0.692947	-0.554122	0.01406	0.004938	0.002526	-0.625	0.064453	-0.432129
341.0	9.821514	0.659712	-0.557914	0.014924	0.009221	-0.001448	-0.627197	0.060059	-0.427246
342.0	9.842839	0.659918	-0.569026	0.01394	0.010327	0.000744	-0.631592	0.062256	-0.438965
343.0	9.859181	0.668716	-0.539	0.016997	0.010344	-5.7e-05	-0.625	0.064453	-0.436768
344.0	9.864236	0.659965	-0.579113	0.020248	0.011884	-0.000499	-0.629639	0.06665	-0.43457
345.0	9.837206	0.638566	-0.577072	0.019665	0.007311	-0.001577	-0.627197	0.062256	-0.432129
346.0	9.832579	0.672014	-0.583831	0.016489	0.012683	-0.002561	-0.626953	0.055664	-0.436523
347.0	9.838464	0.69303	-0.571791	0.016592	0.016022	0.003212	-0.626953	0.057861	-0.436523
348.0	9.822296	0.683728	-0.599665	0.01601	0.011449	0.002135	-0.626953	0.053467	-0.436279
349.0	9.779803	0.682985	-0.574877	0.015621	0.0084	0.001416	-0.627197	0.060059	-0.434326
350.0	9.765142	0.733574	-0.499748	0.016956	0.006883	0.000657	-0.627197	0.062256	-0.434326
351.0	9.833703	0.700693	-0.527434	0.015777	0.006467	0.002489	-0.627197	0.060059	-0.431885
352.0	9.806663	0.679059	-0.525794	0.011981	0.003811	0.00114	-0.627197	0.062256	-0.434326
353.0	9.850045	0.709216	-0.4973	0.010878	0.010307	0.001543	-0.62915	0.055664	-0.434082
354.0	9.838504	0.666724	-0.518018	0.007239	0.005719	0.001267	-0.624756	0.057861	-0.434082
355.0	9.828086	0.678677	-0.535986	0.005867	0.00378	0.00274	-0.629639	0.06665	-0.429932
356.0	9.828506	0.70306	-0.584196	0.004026	0.007636	0.000993	-0.629395	0.062256	-0.434326
357.0	9.785974	0.702524	-0.559653	0.005361	0.006119	0.000235	-0.624756	0.060059	-0.436523
358.0	9.811965	0.669213	-0.563406	0.00606	0.005304	0.003099	-0.624756	0.060059	-0.434326
359.0	9.769426	0.668536	-0.539088	0.007045	0.004195	0.000909	-0.631592	0.057861	-0.429443
360.0	9.775252	0.689496	-0.52803	0.007395	0.003787	0.002341	-0.629395	0.057861	-0.438965
361.0	9.796554	0.689591	-0.539932	0.00627	-0.001902	-0.000525	-0.622559	0.060059	-0.438965
362.0	9.807006	0.677308	-0.521631	0.005478	0.000732	0.002023	-0.631592	0.060059	-0.434326
363.0	9.822517	0.65617	-0.544264	0.008535	0.000746	0.001224	-0.629639	0.064453	-0.434326
364.0	9.828321	0.67722	-0.533511	0.006657	0.001146	0.000192	-0.622559	0.060059	-0.436523
365.0	9.822533	0.65602	-0.544157	0.008186	0.001153	-0.000208	-0.625	0.06665	-0.432129
366.0	9.832987	0.643799	-0.525729	0.013121	0.000768	2.6e-05	-0.622559	0.057861	-0.438965
367.0	9.843832	0.656194	-0.556003	0.016021	0.002713	-0.001847	-0.627197	0.064453	-0.434326
368.0	9.848494	0.623037	-0.547977	0.020644	0.006189	-0.003762	-0.626953	0.057861	-0.436523
369.0	9.812113	0.668463	-0.561731	0.024399	0.005389	-0.001696	-0.629395	0.062256	-0.432129
370.0	9.806347	0.647372	-0.571892	0.025965	0.00885	-0.002812	-0.627197	0.060059	-0.436523
371.0	9.795944	0.659478	-0.589645	0.023606	0.008023	0.000851	-0.625	0.062256	-0.438965
372.0	9.818001	0.68949	-0.549487	0.027958	0.003063	1.4e-05	-0.626953	0.057861	-0.431885
373.0	9.839315	0.689502	-0.561308	0.024901	0.003048	0.000813	-0.624756	0.057861	-0.434082
374.0	9.818033	0.689084	-0.54942	0.027918	-0.000394	0.000733	-0.622314	0.055664	-0.434082
375.0	9.813394	0.722124	-0.557268	0.026776	0.002647	0.001846	-0.631592	0.057861	-0.436523
376.0	9.823855	0.709687	-0.538907	0.02486	-0.000409	0.001532	-0.626953	0.057861	-0.436523
377.0	9.823149	0.679376	-0.590575	0.028147	0.004582	0.000371	-0.631592	0.057861	-0.436523
378.0	9.83363	0.666977	-0.571779	0.022227	0.006081	0.002323	-0.626953	0.057861	-0.438965
379.0	9.796865	0.687703	-0.536692	0.025957	0.008838	-0.002816	-0.631836	0.06665	-0.436768
380.0	9.833697	0.666858	-0.570761	0.02149	0.003436	0.00018	-0.631836	0.064453	-0.432129
381.0	9.818205	0.687829	-0.547913	0.024389	0.005376	-0.001695	-0.62915	0.055664	-0.431885
382.0	9.801997	0.678762	-0.576709	0.022667	0.003845	-0.001652	-0.62915	0.055664	-0.429443
383.0	9.807785	0.699964	-0.566031	0.022629	0.00039	-0.000929	-0.627197	0.060059	-0.436523
384.0	9.803145	0.733105	-0.573862	0.021836	0.003029	0.001613	-0.626953	0.055664	-0.431885
385.0	9.818694	0.71155	-0.596467	0.017912	-0.001249	0.006399	-0.624756	0.060059	-0.431885
386.0	9.818312	0.686623	-0.547513	0.00793	0.004908	0.004123	-0.631592	0.060059	-0.438965
387.0	9.843642	0.622411	-0.602681	-0.00251	0.0063	0.013754	-0.629395	0.062256	-0.434326
388.0	9.987397	0.606719	-0.594958	-0.015758	0.019662	0.015881	-0.624756	0.060059	-0.431885
389.0	10.108812	0.535713	-0.576383	-0.019839	0.038241	0.026786	-0.631592	0.057861	-0.431885
390.0	10.297336	0.603111	-0.533954	-0.010191	0.065598	0.038071	-0.626953	0.055664	-0.431885
391.0	10.332568	0.474093	-0.465841	-0.021908	0.08059	0.058177	-0.627197	0.062256	-0.434326
392.0	10.383839	0.346367	-0.467641	-0.014799	0.093294	0.076028	-0.624756	0.060059	-0.431885
393.0	10.278523	0.361623	-0.447278	-0.007681	0.097253	0.089921	-0.627197	0.064453	-0.432129
394.0	10.069766	0.282214	-0.46394	-0.017934	0.08269	0.091964	-0.627197	0.060059	-0.436523
395.0	9.932982	0.112448	-0.454689	-0.024691	0.041445	0.089231	-0.622803	0.06665	-0.441406
396.0	9.837883	-0.086692	-0.524128	-0.033745	0.018582	0.085466	-0.625244	0.06665	-0.439209
397.0	9.707227	-0.215548	-0.658689	-0.026254	0.008224	0.085656	-0.627197	0.064453	-0.434326
398.0	9.539061	-0.156069	-0.810117	-0.019056	0.01401	0.080455	-0.627197	0.060059	-0.436523
399.0	9.387268	-0.086823	-0.931326	-0.016288	0.030149	0.07428	-0.625	0.06665	-0.432129
400.0	9.291013	0.056019	-1.001541	-0.0127	0.047216	0.058356	-0.625244	0.068848	-0.437012
401.0	9.282369	0.088138	-1.06376	0.001751	0.062353	0.040753	-0.627441	0.06665	-0.439209
402.0	9.296379	0.146295	-1.18526	0.034373	0.07596	0.018075	-0.620605	0.06665	-0.439209
403.0	9.442311	0.184028	-1.167843	0.067292	0.076974	-0.006411	-0.629883	0.073242	-0.430176
404.0	9.610132	0.253471	-1.110197	0.086322	0.079801	-0.021941	-0.629395	0.062256	-0.438965
405.0	9.7489	0.248714	-1.054284	0.098588	0.074606	-0.036245	-0.624756	0.060059	-0.438965
406.0	9.85862	0.336293	-1.052212	0.101179	0.059468	-0.047459	-0.623047	0.071045	-0.439453
407.0	10.009782	0.400247	-1.026171	0.090367	0.043835	-0.047229	-0.627441	0.068848	-0.446289
408.0	10.079323	0.597572	-0.997259	0.069765	0.053373	-0.041071	-0.626953	0.055664	-0.441162
409.0	10.011658	0.694648	-0.861739	0.045588	0.061707	-0.029447	-0.625244	0.06665	-0.443848
410.0	9.958043	0.715184	-0.750745	0.015467	0.059394	-0.019143	-0.625244	0.06665	-0.441406
411.0	9.898592	0.713906	-0.649714	-0.008145	0.072386	-0.012963	-0.622803	0.06665	-0.446045
412.0	9.826294	0.645721	-0.519222	-0.011054	0.094892	-0.011148	-0.622803	0.062256	-0.446045
413.0	9.77511	0.516819	-0.5015	-0.013693	0.113631	-0.013655	-0.622803	0.06665	-0.443848
414.0	9.795759	0.327752	-0.400301	-0.008688	0.132359	-0.018092	-0.622559	0.060059	-0.445801
415.0	9.82782	0.121143	-0.378172	0.002332	0.168701	-0.029136	-0.622803	0.062256	-0.443604
416.0	9.788164	0.066954	-0.279568	0.023945	0.210294	-0.038175	-0.620361	0.062256	-0.446045
417.0	9.868679	-0.055796	-0.158581	0.05624	0.251852	-0.049866	-0.620361	0.060059	-0.448242
418.0	9.91824	-0.08045	0.013611	0.084368	0.291045	-0.057853	-0.620117	0.055664	-0.452637
419.0	9.909523	-0.059214	0.184723	0.131714	0.309788	-0.054814	-0.622559	0.060059	-0.455078
420.0	9.913675	-0.002708	0.278437	0.171922	0.327548	-0.033973	-0.622559	0.060059	-0.462158
421.0	9.935645	0.053675	0.302601	0.201978	0.339	0.007215	-0.61792	0.057861	-0.455078
422.0	9.82827	0.074415	0.343131	0.237955	0.348266	0.074006	-0.615479	0.053467	-0.461914
423.0	9.668657	0.181043	0.280355	0.280324	0.36539	0.152683	-0.615723	0.057861	-0.464355
424.0	9.541539	0.294062	0.116461	0.324338	0.378712	0.226778	-0.615723	0.055664	-0.466553
425.0	9.620464	0.39199	0.032391	0.346123	0.372503	0.281687	-0.615967	0.060059	-0.4646
426.0	9.919218	0.400205	0.007717	0.357522	0.384054	0.301521	-0.613281	0.05127	-0.471191
427.0	10.221546	0.511245	-0.291404	0.332136	0.374465	0.287254	-0.611084	0.055664	-0.473633
428.0	10.475764	0.688246	-0.587306	0.310503	0.357738	0.255747	-0.611328	0.057861	-0.468994
429.0	10.678188	0.997187	-0.780087	0.279597	0.346899	0.216486	-0.609131	0.058105	-0.476074
430.0	10.610331	1.210452	-1.027902	0.249909	0.369087	0.193246	-0.609131	0.0625	-0.476074
431.0	10.439661	1.307451	-1.200118	0.244597	0.482273	0.192095	-0.600098	0.0625	-0.480713
432.0	10.065687	1.479345	-1.353883	0.275488	0.50862	0.179164	-0.602539	0.0625	-0.483154
433.0	9.395929	1.416259	-1.558664	0.232444	0.344978	0.156126	-0.600342	0.064697	-0.487793
434.0	9.324503	1.184328	-1.45341	0.191982	0.075052	0.120891	-0.5979	0.060303	-0.487793
435.0	9.862962	0.882631	-1.357919	0.170992	0.187033	0.096518	-0.602539	0.064697	-0.490234
436.0	9.93283	1.045019	-1.328941	0.203083	0.221168	0.038673	-0.602295	0.060303	-0.48999
437.0	10.48151	0.970447	-1.277983	0.129353	0.245854	-0.007362	-0.602295	0.058105	-0.487549
438.0	10.787863	0.96942	-1.35109	0.153102	0.27463	-0.080749	-0.595459	0.058105	-0.494629
439.0	10.71341	1.114813	-1.509922	0.115536	0.323976	-0.147704	-0.593262	0.055908	-0.48999
440.0	10.230011	1.208422	-1.495557	0.079125	0.419165	-0.186233	-0.59082	0.053711	-0.496826
441.0	9.669872	1.373259	-1.171781	0.034821	0.422285	-0.206894	-0.595459	0.055908	-0.496826
442.0	9.440573	1.326469	-1.108959	-0.00674	0.340481	-0.208517	-0.588379	0.047119	-0.503418
443.0	9.469641	1.399375	-1.267086	-0.039799	0.30549	-0.200673	-0.593262	0.055908	-0.499268
444.0	9.467147	1.166957	-1.28437	-0.031334	0.366889	-0.185961	-0.588379	0.049316	-0.508301
445.0	9.457061	0.965426	-1.068876	-0.006714	0.391882	-0.157522	-0.586182	0.051514	-0.505859
446.0	9.443167	0.804565	-1.121463	0.014324	0.401879	-0.125552	-0.590576	0.044922	-0.508057
447.0	9.385086	0.445422	-1.20348	0.014414	0.435577	-0.093445	-0.584229	0.055908	-0.513184
448.0	9.281512	0.281308	-1.155155	0.038048	0.471523	-0.063683	-0.579346	0.047119	-0.515137
449.0	9.159958	0.169722	-1.156775	0.048241	0.473636	-0.042652	-0.579346	0.047119	-0.517334
450.0	9.178709	0.16072	-1.212881	0.054385	0.466761	-0.023009	-0.577148	0.047119	-0.521973
451.0	9.184996	0.226993	-1.310029	0.068724	0.466464	-0.012866	-0.574707	0.047119	-0.524414
452.0	9.268238	0.388004	-1.353165	0.079859	0.468091	-0.003253	-0.574707	0.044922	-0.519775
453.0	9.269593	0.594532	-1.341976	0.087802	0.45318	0.00301	-0.570313	0.047363	-0.524414
454.0	9.270828	0.800375	-1.333023	0.079533	0.427638	0.011199	-0.565674	0.045166	-0.526611
455.0	9.311712	0.9499	-1.283657	0.058269	0.39818	0.019095	-0.563721	0.049561	-0.531494
456.0	9.305468	1.1661	-1.300378	0.050354	0.376356	0.018506	-0.570068	0.03833	-0.531006
457.0	9.17292	1.375906	-1.309605	0.028801	0.346457	0.015111	-0.561035	0.042969	-0.533447
458.0	9.164156	1.495928	-1.181424	-0.000664	0.314341	0.002925	-0.561279	0.047363	-0.540771
459.0	9.23572	1.516535	-1.109255	-0.040551	0.255676	-0.015462	-0.556641	0.040771	-0.538086
460.0	9.451468	1.589034	-1.148621	-0.085413	0.206439	-0.038819	-0.563477	0.045166	-0.53833
461.0	9.421606	1.551791	-1.139457	-0.115566	0.220915	-0.052701	-0.554443	0.047363	-0.542969
462.0	9.42095	1.438598	-1.036356	-0.151984	0.218277	-0.060114	-0.556885	0.047363	-0.53833
463.0	9.585834	1.342813	-0.978404	-0.185535	0.202107	-0.064896	-0.554443	0.047363	-0.536133
464.0	9.825598	1.246213	-1.003437	-0.214877	0.200414	-0.078059	-0.554443	0.047363	-0.542969
465.0	9.85734	1.23301	-0.884664	-0.220053	0.266734	-0.081911	-0.545654	0.047363	-0.542969
466.0	9.680463	1.224923	-0.691511	-0.255651	0.303822	-0.0768	-0.550049	0.047363	-0.547607
467.0	9.548265	1.301416	-0.521244	-0.277041	0.319369	-0.06484	-0.54541	0.045166	-0.545166
468.0	9.393557	1.430393	-0.341965	-0.303582	0.322623	-0.040774	-0.545654	0.049561	-0.547607
469.0	9.304059	1.545542	-0.277006	-0.323266	0.292017	-0.022952	-0.543457	0.049561	-0.554688
470.0	9.355949	1.72326	-0.336203	-0.3281	0.294184	-0.012082	-0.536621	0.049561	-0.547852
471.0	9.134391	1.852821	-0.367345	-0.344453	0.276219	-0.007675	-0.536621	0.051758	-0.54541
472.0	8.907243	1.864734	-0.495888	-0.360872	0.216319	-0.001125	-0.534668	0.054199	-0.554932
473.0	8.915024	1.928234	-0.701567	-0.401734	0.135703	-0.002669	-0.534424	0.049561	-0.547852
474.0	9.151927	1.826308	-0.989879	-0.470462	0.070971	0.006999	-0.532471	0.056396	-0.548096
475.0	9.389725	1.63934	-1.276011	-0.5234	0.021038	0.011608	-0.532471	0.060791	-0.545898
476.0	9.538793	1.699472	-1.36717	-0.557979	-0.022519	0.030975	-0.530273	0.058594	-0.552734
477.0	10.114906	1.75055	-0.240274	-0.502968	0.006145	0.051145	-0.532715	0.067383	-0.546143
478.0	11.090175	1.163034	1.125256	-0.351947	0.017129	0.055527	-0.52832	0.065186	-0.54834
479.0	12.276854	0.277973	1.354759	-0.218071	-0.062601	0.01415	-0.525879	0.062988	-0.545898
480.0	12.687541	-0.797066	1.211425	-0.07793	-0.143172	-0.060516	-0.530273	0.060791	-0.543457
481.0	13.037465	-1.002012	2.635491	0.075515	-0.221239	-0.111082	-0.525879	0.062988	-0.54126
482.0	13.61992	-1.737706	3.055004	0.071472	-0.371218	-0.123699	-0.530273	0.062988	-0.539063
483.0	13.611806	-2.179261	1.337498	0.095569	-0.417487	-0.128624	-0.527832	0.056396	-0.538818
484.0	12.636628	-1.683035	0.379884	0.074255	-0.393341	-0.096384	-0.532715	0.062988	-0.536621
485.0	12.207597	-0.337492	0.244299	-0.020412	-0.440496	-0.01243	-0.527832	0.058594	-0.531738
486.0	12.405729	1.030812	-0.165171	-0.196936	-0.424659	0.071393	-0.530518	0.067383	-0.534424
487.0	12.60822	1.787178	0.228732	-0.260822	-0.267775	0.117655	-0.530273	0.060791	-0.53418
488.0	12.322679	2.539716	1.170128	-0.238524	-0.115991	0.132686	-0.530518	0.06958	-0.529785
489.0	12.085975	2.416234	1.895055	-0.190226	-0.104673	0.11181	-0.530518	0.06958	-0.529785
490.0	11.882064	1.732876	2.192728	-0.055662	-0.143786	0.054883	-0.52832	0.065186	-0.529785
491.0	11.431413	0.961787	2.747978	0.037205	-0.144079	-0.0135	-0.52832	0.065186	-0.525146
492.0	10.881955	0.298827	3.159765	0.034871	-0.169166	-0.068078	-0.530273	0.062988	-0.529541
493.0	10.600355	-0.211903	3.514039	-0.048067	-0.182226	-0.099459	-0.52832	0.065186	-0.525146
494.0	10.120196	-0.416188	3.442378	-0.095188	-0.122411	-0.110461	-0.530518	0.06958	-0.525146
495.0	9.534378	-0.277504	3.148997	-0.143386	-0.089385	-0.082023	-0.530518	0.067383	-0.518311
496.0	9.407253	-0.002799	2.544302	-0.164325	-0.12041	-0.035608	-0.530518	0.067383	-0.520508
497.0	9.401552	0.273522	2.140527	-0.183457	-0.114696	0.010985	-0.532715	0.067139	-0.515869
498.0	8.996498	0.347222	1.936116	-0.190245	-0.026941	0.031578	-0.52832	0.06958	-0.522949
499.0	8.824958	0.172051	1.890252	-0.189088	0.018785	0.063346	-0.526123	0.071777	-0.518311
500.0	8.897953	0.062491	1.439035	-0.145308	0.00372	0.098261	-0.530762	0.073975	-0.520752
501.0	8.671571	-0.173473	1.31663	-0.076805	0.068263	0.114197	-0.521729	0.073975	-0.516113
502.0	8.880991	-0.448636	1.258704	0.018308	0.034711	0.125538	-0.528564	0.073975	-0.525391
503.0	9.083965	-0.497351	1.10326	0.156818	-0.024677	0.135147	-0.52417	0.078369	-0.523193
504.0	9.164871	-0.483199	1.328338	0.269991	-0.086121	0.13892	-0.521729	0.073975	-0.527832
505.0	9.348555	-0.443479	1.46602	0.288145	-0.181507	0.143108	-0.528564	0.076172	-0.523193
506.0	9.361365	-0.674269	1.48503	0.306338	-0.22043	0.140526	-0.52417	0.076172	-0.520752
507.0	9.285507	-0.706358	1.539973	0.288085	-0.19951	0.131785	-0.526367	0.073975	-0.518555
508.0	9.167633	-0.662437	1.479593	0.278821	-0.150775	0.11944	-0.521973	0.076172	-0.523193
509.0	8.952058	-0.496411	1.292811	0.254179	-0.108146	0.103216	-0.523926	0.071777	-0.516113
510.0	9.011667	-0.21152	1.144582	0.240264	-0.099431	0.085538	-0.526367	0.073975	-0.518555
511.0	8.99812	0.072499	1.081551	0.214663	-0.061936	0.0648	-0.52417	0.076172	-0.513916
512.0	9.072245	0.370953	1.116978	0.198064	-0.041503	0.045907	-0.523926	0.06958	-0.518311
513.0	9.002704	0.579703	0.909596	0.176378	0.007831	0.034002	-0.526367	0.076172	-0.518555
514.0	8.759139	0.765798	0.871098	0.171898	0.028618	0.029102	-0.523682	0.062988	-0.518066
515.0	8.549662	0.747317	0.724676	0.130785	-0.011128	0.036905	-0.521729	0.071777	-0.513672
516.0	8.469642	0.649673	0.722089	0.133224	-0.028625	0.047885	-0.521484	0.067383	-0.515869
517.0	8.40987	0.476799	0.637198	0.091516	-0.036547	0.069054	-0.519287	0.06958	-0.520508
518.0	8.458412	0.191972	0.716395	0.085726	-0.022286	0.077029	-0.521729	0.06958	-0.518311
519.0	8.585628	-0.142789	0.590443	0.085149	-0.020478	0.082417	-0.521729	0.073975	-0.520752
520.0	8.783853	-0.337185	0.435945	0.136881	-0.015891	0.06505	-0.514893	0.06958	-0.522949
521.0	8.99644	-0.378931	0.308948	0.195658	-0.015562	0.043749	-0.519287	0.065186	-0.518066
522.0	9.004509	-0.464392	0.196103	0.231851	-0.014405	0.01217	-0.51709	0.067383	-0.520508
523.0	8.957687	-0.500912	0.070748	0.243856	-0.029079	-0.014526	-0.521729	0.071777	-0.516113
524.0	8.939508	-0.407841	0.009903	0.25189	-0.049341	-0.043554	-0.517334	0.073975	-0.516113
525.0	8.817662	-0.251095	-0.127855	0.237123	-0.049745	-0.063485	-0.514893	0.06958	-0.515869
526.0	8.700629	-0.140099	-0.177692	0.211337	-0.062032	-0.07814	-0.510254	0.065186	-0.515869
527.0	8.5945	-0.038814	-0.2684	0.188189	-0.074408	-0.086853	-0.510254	0.065186	-0.518066
528.0	8.60895	0.114389	-0.460881	0.167605	-0.084978	-0.090734	-0.514404	0.060791	-0.515625
529.0	8.688155	0.284061	-0.549412	0.159113	-0.078464	-0.095587	-0.505859	0.067383	-0.515869
530.0	8.725358	0.369256	-0.6709	0.150531	-0.039233	-0.103379	-0.512207	0.062988	-0.515625
531.0	8.590562	0.450849	-0.760725	0.181401	0.002354	-0.123918	-0.514404	0.058594	-0.513184
532.0	8.30629	0.622633	-0.625838	0.194175	0.052111	-0.140878	-0.507568	0.056396	-0.52002
533.0	8.221697	0.725531	-0.71725	0.183126	0.046206	-0.146783	-0.512207	0.058594	-0.517822
534.0	8.30344	0.689814	-0.769576	0.144389	0.046028	-0.130452	-0.511963	0.052002	-0.52002
535.0	8.432996	0.605546	-0.687907	0.110309	0.068753	-0.104507	-0.51416	0.052002	-0.522217
536.0	8.709921	0.679444	-0.715109	0.081659	0.018518	-0.068759	-0.507324	0.052002	-0.522217
537.0	8.90242	0.533455	-0.602958	0.059846	0.001294	-0.03247	-0.509521	0.052002	-0.522217
538.0	9.054884	0.42023	-0.603367	0.047981	0.007231	-0.001812	-0.507324	0.049805	-0.517578
539.0	9.30723	-0.134977	-0.648973	0.007965	0.030424	0.017233	-0.507568	0.054199	-0.513184
540.0	9.536479	-0.480501	-0.774813	-0.00205	-0.00716	-0.009375	-0.509521	0.049805	-0.522217
541.0	9.940507	-0.491305	-0.809424	0.040427	-0.043637	-0.046457	-0.509766	0.054199	-0.515381
542.0	10.34378	-0.311755	-1.004293	0.085632	-0.041751	-0.071437	-0.503174	0.056396	-0.5271
543.0	10.4779	-0.167541	-1.006886	0.094898	-0.014826	-0.072863	-0.509766	0.054199	-0.524658
544.0	10.378675	-0.138196	-0.783921	0.090194	0.008226	-0.061636	-0.502686	0.04541	-0.510498
545.0	10.29713	-0.175465	-0.71888	0.107212	0.005908	-0.036459	-0.502686	0.047607	-0.519775
546.0	10.275607	-0.239249	-0.632201	0.126585	-0.039659	-0.011014	-0.505127	0.052002	-0.517578
547.0	10.441768	-0.300116	-0.817068	0.162734	-0.086452	0.028768	-0.504883	0.047607	-0.517578
548.0	10.896295	-0.397284	-1.06603	0.195213	-0.104192	0.074623	-0.502686	0.04541	-0.521973
549.0	11.22307	-0.420521	-1.312943	0.27178	-0.072615	0.11022	-0.498291	0.052002	-0.522217
550.0	11.488078	-0.349877	-1.803471	0.347887	-0.091712	0.124197	-0.504883	0.047607	-0.519775
551.0	12.080112	-0.310561	-2.741328	0.415242	-0.044041	0.120498	-0.500244	0.04541	-0.524414
552.0	12.245914	-0.494189	-2.766361	0.438033	0.057277	0.089362	-0.498047	0.04541	-0.524414
553.0	12.28552	-0.78783	-1.992323	0.355113	0.034237	0.052417	-0.500488	0.047607	-0.522217
554.0	12.878839	-0.845251	-1.433784	0.291721	0.080674	0.047196	-0.502441	0.041016	-0.52417
555.0	13.319994	0.035662	-0.760299	0.251694	0.130547	0.083129	-0.498291	0.047607	-0.526855
556.0	13.487545	1.272889	0.385195	0.146284	-0.020623	0.154409	-0.498047	0.043213	-0.529053
557.0	13.861762	2.144659	1.104846	0.027966	-0.260442	0.249187	-0.493652	0.047607	-0.529053
558.0	14.296221	2.878207	1.304684	-0.067501	-0.541949	0.338663	-0.50293	0.052002	-0.522217
559.0	13.861717	3.596109	1.487703	-0.172452	-0.796233	0.386962	-0.511963	0.056396	-0.515381
560.0	12.431672	3.121874	0.814335	-0.304311	-0.878315	0.365183	-0.507813	0.062988	-0.513428
561.0	11.2762	1.791416	0.49096	-0.312006	-0.827836	0.317996	-0.51001	0.060791	-0.508789
562.0	10.668416	0.545304	0.510973	-0.165499	-0.728218	0.305821	-0.516846	0.060791	-0.508789
563.0	10.321592	-0.569835	0.663833	0.046341	-0.541939	0.345612	-0.510498	0.071777	-0.504395
564.0	10.107991	-1.41729	1.819946	0.254801	-0.285929	0.449836	-0.51709	0.06958	-0.501953
565.0	10.055612	-1.426903	3.370024	0.354489	-0.072618	0.568216	-0.512939	0.080566	-0.50708
566.0	10.229233	-1.741232	3.928526	0.313479	0.17767	0.668062	-0.515381	0.080566	-0.50708
567.0	10.842038	-1.899848	4.279532	0.218445	0.258368	0.713343	-0.513184	0.082764	-0.504883
568.0	12.202348	-0.746943	3.818419	0.090704	0.158434	0.682993	-0.517822	0.087158	-0.505127
569.0	12.847571	0.622415	2.866236	-0.084577	0.084863	0.574684	-0.506836	0.09375	-0.507568
570.0	13.271409	1.2316	2.256173	-0.161052	0.187543	0.405084	-0.513916	0.100342	-0.510254
571.0	12.284215	0.990715	1.839405	-0.225791	0.417387	0.235729	-0.511475	0.098145	-0.51001
572.0	10.778514	0.708181	1.801063	-0.272603	0.356141	0.052512	-0.50708	0.100342	-0.514893
573.0	9.526843	0.786831	1.553929	-0.366741	0.25454	-0.080566	-0.504883	0.100342	-0.514893
574.0	8.68807	1.569739	1.335729	-0.409804	0.195151	-0.203589	-0.50708	0.102539	-0.514893
575.0	8.490015	1.934761	1.445004	-0.528633	0.121456	-0.295587	-0.511963	0.109375	-0.522217
576.0	8.674632	2.156619	1.629679	-0.483205	0.102184	-0.367601	-0.50708	0.102539	-0.51709
577.0	8.561449	2.049358	1.224752	-0.48263	0.063546	-0.394615	-0.511963	0.109375	-0.519775
578.0	8.541354	1.54105	1.197557	-0.451259	0.043733	-0.385842	-0.507324	0.10498	-0.521973
579.0	8.214949	0.95986	1.264283	-0.383738	0.122894	-0.368709	-0.507324	0.107178	-0.512695
580.0	7.729869	0.553062	1.285995	-0.325826	0.185974	-0.334506	-0.502686	0.10498	-0.52417
581.0	7.504451	0.077708	1.237937	-0.285613	0.236981	-0.303226	-0.50293	0.107178	-0.526611
582.0	7.348086	-0.237491	0.994689	-0.27166	0.254662	-0.277137	-0.505127	0.107178	-0.519775
583.0	7.187236	-0.523146	0.86003	-0.252718	0.266133	-0.247098	-0.498535	0.111572	-0.529053
584.0	7.190452	-0.747979	0.794817	-0.26685	0.315928	-0.212477	-0.498535	0.109375	-0.529053
585.0	6.966376	-0.75418	0.856357	-0.262021	0.416664	-0.182521	-0.496338	0.115967	-0.529297
586.0	6.788754	-0.768743	0.632966	-0.262963	0.426751	-0.153988	-0.491699	0.109375	-0.531494
587.0	6.784006	-0.735015	0.230814	-0.248075	0.423981	-0.12997	-0.498291	0.107178	-0.533691
588.0	6.879832	-0.612622	-0.061687	-0.199653	0.42408	-0.10781	-0.489502	0.109375	-0.531494
589.0	7.18367	-0.479416	-0.14749	-0.136853	0.41947	-0.065237	-0.494141	0.115967	-0.536377
590.0	8.038329	-0.286642	-0.226104	-0.070683	0.416706	0.006195	-0.487549	0.115967	-0.536377
591.0	8.911082	0.172048	-0.285833	0.039098	0.426594	0.084974	-0.489746	0.118164	-0.541016
592.0	9.128437	0.584118	-0.508574	0.051358	0.352281	0.162735	-0.487549	0.118164	-0.538818
593.0	9.171164	0.537469	-0.658235	0.03859	0.266432	0.23033	-0.488037	0.131592	-0.543945
594.0	8.848676	0.266334	-0.713915	0.004399	0.216888	0.269281	-0.487793	0.126953	-0.54834
595.0	8.417014	0.129403	-0.660958	-0.012068	0.158165	0.283698	-0.487793	0.126953	-0.54834
596.0	8.110507	-0.007948	-0.773545	-0.019373	0.082381	0.263302	-0.48584	0.129395	-0.543701
597.0	7.92036	-0.003944	-0.725484	-0.034764	0.04454	0.234961	-0.483643	0.135986	-0.546387
598.0	8.10565	0.154654	-0.821411	-0.083142	-0.022145	0.204164	-0.481445	0.133789	-0.543945
599.0	8.37497	0.421671	-0.99803	-0.129186	-0.015268	0.173239	-0.481689	0.142578	-0.546631
600.0	9.090659	1.132407	-0.566049	-0.137637	-0.038778	0.1315	-0.481689	0.140381	-0.546387
601.0	9.68871	1.5102	-0.034902	-0.186743	-0.00466	0.077881	-0.479492	0.144775	-0.544434
602.0	10.027938	1.810084	-0.388493	-0.271519	0.001359	0.056038	-0.479492	0.144775	-0.541992
603.0	9.9585	1.873445	-0.523079	-0.343083	0.076947	0.063695	-0.481934	0.14917	-0.544434
604.0	9.906533	1.957752	-0.231693	-0.386193	0.022302	0.05251	-0.477783	0.153564	-0.537598
605.0	10.215211	1.803608	-0.353131	-0.471714	-0.044544	0.033345	-0.475586	0.160156	-0.544922
606.0	10.229144	1.671042	-0.883009	-0.498928	0.020547	0.01396	-0.480225	0.157959	-0.54248
607.0	10.207541	1.608974	-0.998704	-0.475724	0.029669	-0.014392	-0.473633	0.162354	-0.538086
608.0	10.228081	1.441968	-0.898695	-0.379475	0.00876	-0.024198	-0.480469	0.166748	-0.545166
609.0	10.939191	1.264927	-0.749524	-0.280078	-0.034208	-0.024753	-0.473877	0.171143	-0.536133
610.0	11.680356	1.022645	-0.956105	-0.201858	-0.001208	-0.003634	-0.478271	0.166748	-0.538086
611.0	12.114728	0.878468	-1.395395	-0.226909	-0.007335	0.024375	-0.478271	0.168945	-0.542969
612.0	12.10786	0.316547	-1.771234	-0.313379	-0.061489	0.033905	-0.480713	0.175537	-0.538574
613.0	11.976549	-0.047473	-1.344697	-0.330333	-0.02872	0.013898	-0.474121	0.177734	-0.533936
614.0	12.070511	-0.430268	-0.792626	-0.389576	-0.094989	-0.031287	-0.471924	0.179932	-0.538574
615.0	12.727951	-0.718835	-0.210041	-0.202752	-0.13911	-0.111313	-0.479004	0.184326	-0.53418
616.0	13.559143	-1.109933	0.726121	0.038383	-0.134431	-0.228011	-0.474365	0.18457	-0.538818
617.0	13.866863	-1.782642	1.377188	0.21462	-0.158405	-0.362117	-0.474365	0.184326	-0.53418
618.0	14.177906	-1.87575	2.369582	0.356912	-0.266381	-0.515231	-0.478516	0.175537	-0.531494
619.0	14.566949	-2.433984	3.083807	0.515492	-0.382139	-0.640903	-0.478516	0.175537	-0.536133
620.0	13.419602	-1.29252	2.410757	0.785239	-0.429972	-0.665832	-0.480469	0.168945	-0.529053
621.0	12.30268	0.258888	0.314793	0.608279	-0.683021	-0.603217	-0.487061	0.164551	-0.52417
622.0	11.806114	1.408442	-0.629779	0.509795	-0.705327	-0.514563	-0.489014	0.157959	-0.523926
623.0	10.624385	2.908093	-0.46563	0.379945	-0.710915	-0.449102	-0.491455	0.160156	-0.519287
624.0	10.037606	3.219602	0.255791	0.173728	-0.715329	-0.434791	-0.49585	0.157959	-0.521484
625.0	9.50621	1.991068	2.263148	0.086488	-0.41155	-0.439293	-0.493652	0.157959	-0.514648
626.0	8.805228	1.150774	4.410198	0.205183	-0.071862	-0.479846	-0.495605	0.15332	-0.514404
627.0	8.955716	0.213266	3.976397	0.153285	0.084714	-0.5197	-0.495605	0.151123	-0.52124
628.0	10.25359	-1.121363	3.524082	0.202455	0.13045	-0.576325	-0.5	0.151123	-0.52124
629.0	11.973224	-1.593332	3.822328	0.237728	0.027046	-0.637587	-0.5	0.151123	-0.511963
630.0	13.458456	-0.77847	2.981403	0.310089	-0.038441	-0.666889	-0.497559	0.144531	-0.520996
631.0	13.810381	0.19681	2.231588	0.314041	0.124746	-0.599424	-0.501953	0.140137	-0.520996
632.0	12.896581	1.21096	1.910826	0.30317	0.220566	-0.466673	-0.495117	0.140137	-0.523193
633.0	11.210487	1.589459	2.020332	0.279774	0.232872	-0.305084	-0.497314	0.137939	-0.525391
634.0	9.79532	1.212742	1.70987	0.306226	0.213183	-0.169295	-0.497314	0.137939	-0.527832
635.0	9.007798	0.703227	0.90343	0.369529	0.219669	-0.046742	-0.492676	0.135742	-0.530029
636.0	8.290494	0.171128	0.807599	0.465962	0.176891	0.05084	-0.494873	0.135742	-0.527832
637.0	7.837626	0.055421	0.929061	0.559421	0.039625	0.111343	-0.49707	0.131348	-0.532227
638.0	8.020527	0.105944	0.8532	0.579973	-0.194832	0.16366	-0.494873	0.133545	-0.532227
639.0	7.891391	-0.251929	0.694868	0.652141	-0.269955	0.202352	-0.49707	0.131348	-0.534424
640.0	7.761378	-0.220469	0.809452	0.625084	-0.250759	0.218519	-0.494629	0.12915	-0.525146
641.0	7.58334	-0.602423	1.076536	0.572426	-0.193044	0.232584	-0.496826	0.126953	-0.527344
642.0	7.553322	-0.791061	0.925693	0.499262	-0.199783	0.254531	-0.49707	0.12915	-0.525146
643.0	7.529461	-0.993332	0.798948	0.445879	-0.135028	0.260524	-0.49707	0.12915	-0.520508
644.0	7.576891	-0.682455	0.770058	0.426126	-0.101506	0.249685	-0.49707	0.131348	-0.527588
645.0	7.605473	-0.372447	0.689016	0.347601	-0.093237	0.237865	-0.499512	0.135742	-0.525391
646.0	7.419035	-0.068423	0.659125	0.343376	-0.047804	0.22025	-0.499268	0.131348	-0.529785
647.0	6.969924	0.269103	0.429213	0.305588	-0.023644	0.19942	-0.503906	0.135742	-0.527832
648.0	6.696336	0.497452	0.249316	0.259717	-0.00521	0.170853	-0.499512	0.135742	-0.530029
649.0	6.527469	0.705669	0.134696	0.210349	0.023957	0.145278	-0.499756	0.140137	-0.527832
650.0	6.54105	0.767271	-0.038106	0.148397	-0.015399	0.116549	-0.503906	0.131348	-0.527588
651.0	6.616545	0.751408	-0.245735	0.10014	0.006538	0.073197	-0.501953	0.137939	-0.532471
652.0	6.701964	0.725235	-0.490405	0.051091	0.032732	0.032499	-0.499512	0.133545	-0.532227
653.0	6.999823	0.680699	-0.595233	0.009192	0.024337	-0.026651	-0.495117	0.140137	-0.530273
654.0	7.499834	0.577901	-0.780113	-0.043201	0.003848	-0.078507	-0.494873	0.135742	-0.530029
655.0	8.014256	0.431842	-0.79184	-0.066686	0.042151	-0.130938	-0.497314	0.135742	-0.527832
656.0	8.732111	0.314443	-0.952549	-0.100043	0.083115	-0.185684	-0.499512	0.135742	-0.534668
657.0	9.267679	-0.094883	-1.015658	-0.114713	0.114184	-0.222238	-0.497314	0.137939	-0.530029
658.0	9.663203	-0.352053	-0.716688	-0.109699	0.161941	-0.260409	-0.494873	0.135742	-0.532471
659.0	9.853591	-0.538739	-0.470771	-0.030291	0.265656	-0.282724	-0.497314	0.135742	-0.537109
660.0	9.802663	-0.55298	-0.44035	0.049175	0.372429	-0.30428	-0.492676	0.131348	-0.541504
661.0	10.077385	-0.907263	-0.695066	0.13195	0.374156	-0.311192	-0.490234	0.131348	-0.546143
662.0	10.561982	-1.187403	-0.963283	0.248062	0.255985	-0.28508	-0.492432	0.12915	-0.541504
663.0	10.646976	-1.260778	-0.92773	0.408724	0.182002	-0.244547	-0.494629	0.12915	-0.539063
664.0	10.644608	-1.10365	-0.719624	0.509533	0.177755	-0.16688	-0.489746	0.118164	-0.545654
665.0	10.041981	-1.14949	-0.491714	0.530056	0.326664	-0.089919	-0.490234	0.126953	-0.543701
666.0	9.857617	-1.157754	-0.675601	0.388963	0.318011	-0.033218	-0.487549	0.115967	-0.550293
667.0	10.442166	-0.838772	-0.417244	0.332022	0.349249	-0.004001	-0.485352	0.120361	-0.548096
668.0	10.939162	0.36638	-1.020997	0.362208	0.289943	0.022938	-0.480957	0.120605	-0.554932
669.0	11.551539	1.630327	-2.27232	0.426772	0.096276	0.065832	-0.485352	0.118408	-0.55957
670.0	11.778225	2.605504	-3.239551	0.408297	-0.191701	0.102962	-0.48291	0.115967	-0.557129
671.0	11.677385	2.311561	-3.092855	0.299423	-0.452418	0.104871	-0.489502	0.11377	-0.55249
672.0	11.412784	1.180843	-3.250774	0.276129	-0.58084	0.055309	-0.489746	0.115967	-0.550293
673.0	11.144069	-0.325835	-3.369812	0.276595	-0.461498	0.017023	-0.489502	0.111572	-0.550049
674.0	12.108364	-1.110396	-2.214906	0.320175	-0.186077	0.067421	-0.491943	0.11377	-0.550049
675.0	13.519132	-0.369118	-0.017681	0.416448	0.125383	0.187425	-0.48999	0.122559	-0.550537
676.0	14.861651	1.081859	2.413613	0.366171	0.069886	0.408681	-0.489502	0.11377	-0.550049
677.0	16.052569	2.389671	4.892454	0.170929	-0.463	0.668346	-0.496826	0.122559	-0.545898
678.0	15.799436	3.839302	5.784724	-0.048228	-0.986148	0.86711	-0.494385	0.122559	-0.54126
679.0	13.26403	4.205944	4.883343	-0.205001	-1.253887	0.971005	-0.501465	0.12915	-0.536865
680.0	10.539083	3.067808	4.244077	-0.256196	-1.155643	0.994126	-0.503906	0.135742	-0.532471
681.0	9.205688	1.528956	3.196038	-0.085853	-0.860108	1.004459	-0.510986	0.140137	-0.530273
682.0	9.73282	0.721304	2.701033	0.097129	-0.439863	1.037763	-0.513428	0.144531	-0.528076
683.0	10.94385	-0.362803	3.433777	0.211572	-0.086982	1.062021	-0.509521	0.157715	-0.5354
684.0	12.363737	-1.001881	3.46844	0.291773	0.191002	1.019711	-0.50708	0.155518	-0.533203
685.0	14.081677	-0.821414	3.035403	0.310786	0.332876	0.929628	-0.500488	0.160156	-0.533203
686.0	14.318434	0.676514	2.434173	0.214031	0.472935	0.739269	-0.50293	0.162354	-0.535645
687.0	13.690786	1.458798	2.389555	-0.156156	0.462932	0.46055	-0.500732	0.164551	-0.540527
688.0	12.553305	0.501503	2.232911	-0.396569	0.329546	0.193936	-0.496094	0.164551	-0.542725
689.0	11.301164	0.566298	1.558037	-0.488948	0.124277	0.043487	-0.498291	0.164551	-0.538086
690.0	10.621903	1.044638	0.881809	-0.54629	0.116094	-0.052263	-0.500977	0.17334	-0.536133
691.0	10.210516	1.307765	1.117876	-0.531569	0.227008	-0.129343	-0.500977	0.17334	-0.540771
692.0	9.74844	1.81441	1.548814	-0.513134	0.178149	-0.196836	-0.500732	0.166748	-0.538086
693.0	9.39461	2.055327	1.179802	-0.555337	0.11488	-0.240232	-0.498535	0.168945	-0.542969
694.0	8.702476	2.062194	0.840195	-0.565196	0.151812	-0.268606	-0.498779	0.17334	-0.540771
695.0	7.698185	1.741355	0.934946	-0.558125	0.220416	-0.27412	-0.501221	0.177734	-0.545654
696.0	7.055539	1.369854	0.816986	-0.547378	0.234607	-0.272821	-0.503418	0.177734	-0.547852
697.0	6.662499	0.785014	0.639905	-0.538537	0.238942	-0.276489	-0.503662	0.182129	-0.541016
698.0	6.830128	0.42705	0.460853	-0.514088	0.204691	-0.31395	-0.507813	0.175537	-0.547852
699.0	6.498357	0.164389	0.391292	-0.449542	0.330626	-0.327654	-0.501221	0.177734	-0.545654
700.0	6.411958	0.097032	0.224854	-0.436382	0.364503	-0.322186	-0.496582	0.175537	-0.55249
701.0	6.381121	-0.018522	0.077128	-0.432108	0.531081	-0.27981	-0.501221	0.177734	-0.550293
702.0	6.278693	-0.038036	0.12841	-0.404191	0.574697	-0.239417	-0.494385	0.177734	-0.554932
703.0	6.788093	0.00245	0.11907	-0.393863	0.517489	-0.204929	-0.494629	0.184326	-0.552734
704.0	7.450585	0.105698	-0.049489	-0.360316	0.491018	-0.153059	-0.48999	0.179932	-0.55957
705.0	7.892506	0.255895	-0.258692	-0.349853	0.431366	-0.081147	-0.49707	0.184326	-0.557373
706.0	8.080158	0.135963	-0.474902	-0.387995	0.30156	-0.000249	-0.499512	0.188721	-0.564453
707.0	7.821364	-0.044934	-0.701305	-0.379512	0.183417	0.095949	-0.492676	0.188721	-0.562256
708.0	7.508669	-0.183299	-0.951376	-0.334985	0.111651	0.185939	-0.492676	0.186523	-0.559814
709.0	7.290379	-0.114184	-1.061627	-0.295274	0.041664	0.256347	-0.490479	0.193359	-0.557617
710.0	7.313684	-0.08828	-1.219405	-0.239416	-0.024243	0.297821	-0.490723	0.199951	-0.564941
711.0	7.331349	0.209145	-1.310276	-0.193112	-0.071543	0.311899	-0.495361	0.202148	-0.562744
712.0	7.253251	0.491722	-1.380218	-0.191172	-0.116505	0.317987	-0.486328	0.199951	-0.562744
713.0	7.403061	0.743583	-1.396173	-0.233742	-0.145075	0.318058	-0.48877	0.204346	-0.555908
714.0	7.291934	0.840068	-1.237374	-0.25698	-0.029936	0.331939	-0.491211	0.206543	-0.558105
715.0	8.018476	0.915953	-0.646313	-0.310732	0.006832	0.318432	-0.491211	0.210938	-0.56543
716.0	10.310544	1.520171	-0.683121	-0.319654	-0.090668	0.232571	-0.489258	0.215332	-0.558594
717.0	11.262811	1.650291	-0.264581	-0.314706	0.224905	0.162603	-0.489258	0.215332	-0.558594
718.0	10.266854	0.905451	0.356335	-0.349715	0.356471	0.124233	-0.493652	0.213135	-0.563232
719.0	10.396701	0.737045	0.994242	-0.496399	0.204522	0.116946	-0.487061	0.217529	-0.563232
720.0	10.529955	0.473797	0.228726	-0.569473	0.147872	0.106154	-0.484863	0.219727	-0.563477
721.0	10.36466	0.739751	0.083642	-0.472181	0.137612	0.081076	-0.489746	0.228516	-0.563721
722.0	10.139298	1.05952	0.407732	-0.345149	0.155919	0.053994	-0.48291	0.228516	-0.565918
723.0	10.199463	1.071059	-0.425386	-0.326978	0.012275	0.008701	-0.489746	0.230713	-0.566162
724.0	10.786206	0.577749	-1.493876	-0.316468	-0.084583	-0.040449	-0.485107	0.226318	-0.559082
725.0	11.099716	0.288253	-1.641947	-0.258818	-0.084092	-0.06102	-0.489746	0.228516	-0.563721
726.0	11.317969	0.35864	-1.563096	-0.288803	-0.134696	-0.049141	-0.487549	0.228516	-0.556641
727.0	11.633099	0.833348	-1.951385	-0.411504	-0.20686	-0.040748	-0.485352	0.23291	-0.556885
728.0	12.230877	1.179028	-2.246121	-0.556743	-0.186188	-0.041083	-0.48999	0.235107	-0.559326
729.0	12.960198	0.453433	-1.677249	-0.487121	0.001455	-0.076851	-0.485596	0.237305	-0.559326
730.0	13.450728	-0.565277	0.486532	-0.167859	0.090859	-0.198853	-0.490234	0.239502	-0.55957
731.0	13.687535	-2.195879	2.536364	0.038084	-0.264214	-0.38405	-0.494629	0.235107	-0.554688
732.0	14.806357	-2.926367	2.834734	0.268278	-0.515919	-0.57125	-0.500977	0.226318	-0.554199
733.0	14.961554	-3.07467	3.422609	0.545998	-0.364791	-0.708686	-0.505371	0.226318	-0.554199
734.0	13.678882	-2.609703	3.29218	0.289375	-0.551331	-0.755585	-0.503174	0.224121	-0.556641
735.0	12.900126	-2.109625	1.808941	0.110225	-0.781419	-0.740124	-0.516357	0.217285	-0.549316
736.0	11.791923	0.431575	1.658006	-0.028028	-0.644309	-0.706753	-0.518311	0.210693	-0.544434
737.0	11.388507	0.772995	3.017634	-0.263037	-0.568736	-0.700625	-0.518555	0.217285	-0.542236
738.0	11.429677	0.844508	4.461095	-0.216933	-0.27988	-0.726163	-0.520264	0.206299	-0.539551
739.0	10.989855	1.105508	3.639364	-0.180407	0.045931	-0.759048	-0.522705	0.208496	-0.544434
740.0	10.635998	1.035604	2.836168	-0.05997	0.240302	-0.760984	-0.524658	0.199707	-0.543945
741.0	10.650889	1.375637	2.740148	0.04708	0.229794	-0.758985	-0.529053	0.199707	-0.541748
742.0	11.750439	1.720441	2.709794	0.026204	0.04846	-0.754735	-0.529053	0.19751	-0.543945
743.0	13.056228	1.941982	2.527305	-0.062401	0.017435	-0.710145	-0.531006	0.193115	-0.546143
744.0	12.74942	1.894717	2.271715	-0.07598	0.167146	-0.614644	-0.531006	0.190918	-0.54834
745.0	11.814702	1.584413	2.538284	-0.106733	0.210419	-0.451501	-0.528809	0.188721	-0.545898
746.0	10.89185	1.046209	1.627098	-0.018621	0.182949	-0.276563	-0.530762	0.182129	-0.552734
747.0	9.996587	0.25883	1.264121	0.135651	0.181096	-0.073826	-0.531006	0.188721	-0.550537
748.0	9.619457	-0.459747	1.530155	0.248459	0.051667	0.107069	-0.530762	0.184326	-0.550293
749.0	9.071516	-1.531131	1.342129	0.381949	0.008696	0.222228	-0.530762	0.182129	-0.548096
750.0	8.529564	-2.344345	1.133169	0.414516	-0.098634	0.280256	-0.530762	0.182129	-0.548096
751.0	7.941956	-2.852382	1.104382	0.454824	-0.089631	0.305423	-0.535156	0.181885	-0.550293
752.0	7.540718	-2.479848	0.995999	0.479565	-0.102254	0.305341	-0.530518	0.17749	-0.55249
753.0	7.500774	-1.997921	0.864472	0.492039	-0.072337	0.273906	-0.5354	0.184082	-0.548096
754.0	7.532992	-1.549767	0.773036	0.475377	0.00059	0.230433	-0.532715	0.175293	-0.550049
755.0	7.566972	-1.009104	0.615632	0.514545	0.054644	0.180704	-0.532959	0.179688	-0.541016
756.0	7.819855	-0.547007	0.472849	0.459678	0.116236	0.131796	-0.535156	0.181885	-0.550293
757.0	7.802661	0.081853	0.838146	0.483244	0.292534	0.075974	-0.533203	0.186523	-0.552734
758.0	7.78091	0.601613	0.602617	0.440834	0.290975	0.032482	-0.532959	0.182129	-0.550293
759.0	8.052069	1.048035	0.501413	0.394946	0.216343	0.006577	-0.534912	0.17749	-0.557129
760.0	7.994264	1.297831	0.767741	0.390092	0.275656	-0.000166	-0.532227	0.166504	-0.554443
761.0	7.676928	1.453173	0.370467	0.358869	0.253448	0.011438	-0.532959	0.179932	-0.55957
762.0	7.598125	1.4229	0.248767	0.318804	0.20052	0.026752	-0.530273	0.168701	-0.559082
763.0	7.565079	1.105184	0.186061	0.277635	0.194032	0.048734	-0.532471	0.168701	-0.561523
764.0	7.383426	0.777722	0.147075	0.254206	0.2092	0.056683	-0.530029	0.166504	-0.561279
765.0	7.301835	0.524907	0.02464	0.212081	0.17393	0.046321	-0.528076	0.171143	-0.563965
766.0	7.288069	0.205508	0.015202	0.19325	0.153208	0.036818	-0.530029	0.164307	-0.559082
767.0	7.38744	0.036917	-0.18801	0.156644	0.123626	0.028395	-0.527832	0.166504	-0.561279
768.0	7.567186	0.051968	-0.467878	0.133769	0.105639	0.021855	-0.529785	0.157715	-0.563477
769.0	7.875038	-0.032873	-0.467224	0.127873	0.164624	0.016111	-0.525391	0.164551	-0.565918
770.0	8.084323	-0.104051	-0.445685	0.162563	0.266354	0.002071	-0.532227	0.162109	-0.568115
771.0	8.235755	-0.063895	-0.511137	0.190867	0.330602	-0.027601	-0.525391	0.162354	-0.572754
772.0	8.381666	-0.152231	-0.579512	0.220378	0.392326	-0.067597	-0.520752	0.160156	-0.572754
773.0	8.572129	-0.128235	-0.600161	0.237638	0.43285	-0.116744	-0.520752	0.160156	-0.574951
774.0	9.590213	0.080508	-0.634588	0.276858	0.387161	-0.141806	-0.525146	0.15332	-0.579346
775.0	10.876828	0.005099	-0.616518	0.282501	0.371931	-0.139828	-0.5271	0.151123	-0.574707
776.0	10.978087	-0.468445	-0.251303	0.311959	0.465121	-0.131353	-0.520264	0.146729	-0.58374
777.0	10.622282	-0.64028	0.051326	0.384615	0.442881	-0.133867	-0.520264	0.146729	-0.58374
778.0	10.159815	-0.493966	-0.13908	0.458997	0.443625	-0.161405	-0.522461	0.142334	-0.590576
779.0	9.912338	-0.652891	-0.21362	0.472423	0.40959	-0.183627	-0.515381	0.135742	-0.585693
780.0	10.130818	-0.541662	-0.22712	0.448667	0.278519	-0.173695	-0.517334	0.131348	-0.587891
781.0	10.781437	-0.375503	-0.104278	0.389579	0.225676	-0.130074	-0.515137	0.131348	-0.592529
782.0	11.167676	0.097614	-0.426196	0.383365	0.256648	-0.07506	-0.514893	0.122559	-0.596924
783.0	11.255716	0.741369	-1.386129	0.406541	0.219578	-0.024845	-0.519287	0.124756	-0.594727
784.0	11.280513	1.193054	-2.232914	0.416826	-0.002808	0.024776	-0.514893	0.122559	-0.599121
785.0	11.253235	1.312939	-2.178785	0.393213	-0.1857	0.089732	-0.519043	0.118164	-0.592041
786.0	10.976077	1.058908	-2.647184	0.455765	-0.248425	0.127299	-0.519287	0.120361	-0.589844
787.0	10.467028	0.667607	-3.578113	0.664527	-0.300333	0.140132	-0.523438	0.115967	-0.592041
788.0	9.826252	-0.044097	-3.745665	0.798555	-0.387835	0.141561	-0.527588	0.107178	-0.591553
789.0	9.984234	-0.569278	-1.477427	0.687975	-0.466351	0.189201	-0.523193	0.107178	-0.589355
790.0	11.208602	-0.573127	1.265131	0.514893	-0.213533	0.301444	-0.522949	0.102783	-0.584473
791.0	11.802311	0.003903	2.272444	0.595613	0.177279	0.415056	-0.534424	0.10498	-0.582275
792.0	12.565682	0.868243	4.123849	0.4926	-0.064456	0.599945	-0.538818	0.104736	-0.580078
793.0	14.590348	2.219929	5.387455	0.286321	-0.692427	0.850969	-0.536865	0.109375	-0.584717
794.0	14.85728	5.531651	6.586874	0.062793	-1.086974	1.029773	-0.536865	0.111572	-0.573242
795.0	12.842466	5.416977	4.658619	-0.139283	-0.958351	1.099903	-0.539307	0.118164	-0.566406
796.0	11.210021	4.875843	3.925211	-0.043803	-0.761075	1.110401	-0.546143	0.120117	-0.562012
797.0	10.905652	2.101447	3.040799	-0.170913	-0.492	1.113666	-0.55127	0.131348	-0.564697
798.0	10.888442	0.931221	2.088298	-0.019141	-0.262055	1.057372	-0.544434	0.133545	-0.557861
799.0	11.712854	-0.233875	2.482783	-0.075461	-0.080576	0.958137	-0.549316	0.140137	-0.555664
800.0	13.377119	-0.256138	3.096595	0.117626	0.129624	0.748695	-0.544678	0.135742	-0.555664
801.0	14.130076	0.101854	3.027777	-0.019298	0.359461	0.496548	-0.540283	0.142334	-0.555908
802.0	14.694557	-0.235033	2.967735	-0.228359	0.354099	0.209495	-0.544922	0.142334	-0.560547
803.0	13.317563	-0.393227	2.289235	-0.4201	0.260079	0.022256	-0.549316	0.140137	-0.555664
804.0	11.809629	0.254204	1.900888	-0.543488	0.105336	-0.068294	-0.551758	0.144531	-0.562744
805.0	11.420075	1.037614	2.058388	-0.609494	0.08419	-0.135858	-0.549805	0.151123	-0.556152
806.0	11.494077	1.743463	2.239342	-0.582139	0.114102	-0.197533	-0.549316	0.140137	-0.558105
807.0	11.016023	2.222179	1.819351	-0.585898	0.181501	-0.239971	-0.553955	0.142334	-0.555908
808.0	10.166435	2.292791	1.550132	-0.579379	0.263715	-0.266562	-0.551758	0.146729	-0.560547
809.0	8.946187	2.011086	1.533537	-0.614542	0.275548	-0.300874	-0.549561	0.144531	-0.553467
810.0	7.692493	1.660298	1.290524	-0.636318	0.306646	-0.31261	-0.551514	0.142334	-0.560547
811.0	6.977369	0.984752	0.882475	-0.672844	0.280557	-0.332665	-0.549561	0.148926	-0.55835
812.0	6.417767	0.193849	0.837761	-0.634343	0.283509	-0.357029	-0.547119	0.140137	-0.560303
813.0	6.003612	-0.153543	0.680008	-0.615033	0.245062	-0.379583	-0.547363	0.148926	-0.55835
814.0	5.78737	-0.451057	0.166868	-0.623524	0.205121	-0.377467	-0.549561	0.144531	-0.562744
815.0	5.689049	-0.747245	-0.101708	-0.579503	0.234005	-0.361802	-0.549561	0.146729	-0.560547
816.0	5.658347	-1.0004	-0.197711	-0.52223	0.26475	-0.323904	-0.553955	0.142334	-0.567383
817.0	6.193607	-0.844777	-0.103809	-0.459179	0.267354	-0.275939	-0.551758	0.146729	-0.567627
818.0	6.028982	-0.793751	0.098247	-0.306786	0.402997	-0.220182	-0.542725	0.142334	-0.565186
819.0	6.537936	-0.334461	0.382029	-0.252165	0.370626	-0.148881	-0.547119	0.142334	-0.567383
820.0	7.177842	-0.218534	0.216137	-0.241238	0.347569	-0.07649	-0.54248	0.140137	-0.572021
821.0	7.541222	-0.098462	0.22472	-0.255302	0.297918	0.001275	-0.547119	0.144531	-0.572266
822.0	7.622262	-0.118527	0.182271	-0.277611	0.216224	0.081994	-0.540283	0.142334	-0.572021
823.0	7.613232	0.016127	-0.096646	-0.283321	0.132769	0.15804	-0.545166	0.146729	-0.576904
824.0	7.667036	0.163465	-0.273995	-0.271527	0.058378	0.230372	-0.545166	0.146729	-0.576904
825.0	7.813273	0.147066	-0.456426	-0.250457	-0.005278	0.275222	-0.549561	0.144531	-0.569824
826.0	7.991478	0.202822	-0.640139	-0.227136	-0.069534	0.282879	-0.544922	0.144531	-0.567383
827.0	8.15681	0.257927	-0.709979	-0.23924	-0.13334	0.267211	-0.547363	0.146729	-0.569824
828.0	8.122011	0.219266	-0.663692	-0.230383	-0.127718	0.229074	-0.549805	0.155518	-0.567871
829.0	8.512356	0.430287	-0.481137	-0.273346	-0.14526	0.197695	-0.552002	0.148926	-0.56543
830.0	9.102139	0.549645	-0.375624	-0.313865	-0.039798	0.171686	-0.549805	0.151123	-0.562988
831.0	9.732473	1.205791	0.043854	-0.334125	0.066855	0.141471	-0.554199	0.151123	-0.56543
832.0	10.555999	2.087671	0.382876	-0.375653	0.157544	0.105755	-0.547607	0.155518	-0.570313
833.0	10.765657	2.168088	0.084493	-0.487797	0.207904	0.068787	-0.547852	0.157715	-0.570313
834.0	10.201988	2.27026	0.022912	-0.510688	0.262425	0.049913	-0.549805	0.155518	-0.57251
835.0	9.816981	1.936902	0.053037	-0.607176	0.153949	0.064419	-0.550049	0.159912	-0.570313
836.0	9.755133	1.271269	-0.050255	-0.641758	0.033333	0.093293	-0.547852	0.159912	-0.570313
837.0	10.179063	0.850518	-0.630092	-0.600137	-0.085881	0.106026	-0.550293	0.164307	-0.565918
838.0	10.701371	0.655504	-1.201645	-0.491168	-0.13011	0.088886	-0.55249	0.162109	-0.565918
839.0	11.135843	0.655947	-1.065568	-0.308257	-0.138884	0.073469	-0.554688	0.162109	-0.563477
840.0	11.587881	0.664955	-0.96195	-0.178895	-0.17646	0.078755	-0.554688	0.162109	-0.561279
841.0	11.96455	0.533042	-1.292284	-0.12174	-0.205445	0.079611	-0.559082	0.162109	-0.565918
842.0	12.000105	0.379608	-1.633595	-0.171836	-0.225244	0.078509	-0.554688	0.164307	-0.561279
843.0	11.96899	0.20486	-1.707388	-0.257677	-0.289572	0.057509	-0.561523	0.162109	-0.558838
844.0	12.079995	0.027353	-1.139974	-0.351481	-0.290972	0.015483	-0.561523	0.162109	-0.558838
845.0	12.340124	-0.436949	-0.842794	-0.404501	-0.300782	-0.048118	-0.568115	0.162109	-0.552002
846.0	12.781009	-1.204735	-0.050777	-0.255354	-0.220057	-0.153268	-0.561279	0.159912	-0.558838
847.0	12.740854	-2.289122	1.034209	-0.000483	-0.243829	-0.299429	-0.574951	0.159668	-0.558838
848.0	12.254115	-2.207322	2.357488	0.27176	-0.444728	-0.456467	-0.572266	0.148682	-0.549072
849.0	12.655581	-2.266756	3.157181	0.481665	-0.555614	-0.590438	-0.57666	0.146484	-0.544434
850.0	12.291666	-1.491944	3.764776	0.70577	-0.57703	-0.675775	-0.585205	0.135498	-0.548584
851.0	11.732233	-1.279445	3.46957	0.528986	-0.896096	-0.746863	-0.589355	0.128906	-0.54126
852.0	10.848957	-0.548055	2.192388	0.4239	-0.90429	-0.787842	-0.595947	0.12207	-0.536377
853.0	10.129603	0.994058	2.811235	0.057896	-0.83502	-0.815825	-0.595703	0.119873	-0.529297
854.0	10.94172	1.877711	4.729941	-0.153106	-0.642749	-0.876496	-0.597412	0.106689	-0.526611
855.0	11.708189	2.487942	4.590211	-0.242387	-0.26187	-0.932852	-0.604004	0.102295	-0.521729
856.0	12.377455	2.537379	3.228556	-0.229813	-0.05002	-0.959676	-0.606201	0.100098	-0.526367
857.0	13.077078	2.445955	2.158621	-0.150789	-0.047463	-0.929162	-0.60376	0.095703	-0.528564
858.0	14.283481	2.232502	2.693077	-0.063879	-0.022855	-0.8251	-0.60791	0.082275	-0.530273
859.0	15.071024	2.46101	2.795584	0.013967	0.027527	-0.717265	-0.60791	0.082275	-0.530273
860.0	14.451704	2.430844	2.435713	-0.066735	0.181677	-0.602934	-0.607666	0.077881	-0.527832
861.0	13.307317	1.557563	2.481325	-0.094733	0.257044	-0.449649	-0.605469	0.077881	-0.532471
862.0	11.602952	0.305906	2.059058	-0.019771	0.196383	-0.271585	-0.598145	0.066895	-0.529785
863.0	10.825316	-0.823415	1.80789	0.055146	0.00291	-0.095533	-0.607422	0.071289	-0.527588
864.0	10.227989	-2.069515	1.251108	0.207813	-0.133904	0.040087	-0.607178	0.066895	-0.527344
865.0	9.408936	-2.822017	0.976128	0.307546	-0.207772	0.133988	-0.611816	0.071289	-0.527588
866.0	8.691682	-3.395618	1.110365	0.357532	-0.221587	0.202403	-0.607178	0.066895	-0.529785
867.0	7.7105	-3.405857	0.921322	0.429945	-0.105275	0.238026	-0.611816	0.069092	-0.525146
868.0	7.241602	-2.89068	0.350303	0.460096	-0.16614	0.24978	-0.609619	0.069092	-0.525146
869.0	7.060397	-2.190817	0.222987	0.522332	-0.085177	0.248777	-0.614258	0.073486	-0.522949
870.0	6.92955	-1.402498	0.340946	0.515254	0.04128	0.24438	-0.609375	0.066895	-0.525146
871.0	7.143394	-0.534272	0.390811	0.538659	0.141892	0.228569	-0.611816	0.069092	-0.525146
872.0	6.889158	0.080198	0.639344	0.518826	0.301063	0.223178	-0.61377	0.064697	-0.531982
873.0	6.921926	0.710092	0.743451	0.484844	0.233126	0.224162	-0.611328	0.060303	-0.529541
874.0	7.045304	0.904817	0.734289	0.47588	0.227142	0.222909	-0.611572	0.0625	-0.531982
875.0	6.741649	1.225528	0.641337	0.502209	0.287852	0.229632	-0.614014	0.066895	-0.531982
876.0	6.473543	1.359339	0.634799	0.476223	0.278549	0.232448	-0.604736	0.0625	-0.531982
877.0	6.363021	1.218488	0.501212	0.417605	0.263147	0.241552	-0.611328	0.060303	-0.53418
878.0	6.259384	0.934683	0.257672	0.357762	0.223273	0.233751	-0.61377	0.064697	-0.539063
879.0	6.243596	0.572388	-0.093248	0.286878	0.128636	0.190997	-0.606934	0.060303	-0.538818
880.0	6.309656	0.439357	-0.384552	0.245472	0.053445	0.120293	-0.609131	0.058105	-0.541016
881.0	6.567585	0.37064	-0.661019	0.195724	-0.027059	0.040382	-0.611328	0.060303	-0.538818
882.0	6.859968	0.284244	-0.848642	0.148186	-0.04583	-0.038145	-0.611328	0.058105	-0.545654
883.0	7.307971	0.309016	-0.98042	0.125702	-0.040704	-0.109317	-0.613525	0.058105	-0.538818
884.0	7.769318	0.404781	-1.080579	0.122872	0.012598	-0.16653	-0.613525	0.053711	-0.540771
885.0	7.960808	0.347877	-1.184347	0.139862	0.148444	-0.227426	-0.615723	0.055908	-0.543213
886.0	7.948163	0.246897	-1.198443	0.170271	0.235951	-0.30363	-0.611084	0.049316	-0.542969
887.0	8.645905	0.173805	-1.204476	0.220525	0.167816	-0.373073	-0.613281	0.049316	-0.547607
888.0	9.89708	-0.083281	-1.264361	0.208107	0.012291	-0.38714	-0.615234	0.040527	-0.542725
889.0	10.967864	-0.171524	-0.514396	0.311481	0.002574	-0.374857	-0.613037	0.042725	-0.547363
890.0	10.904041	0.243578	0.202481	0.42207	0.18443	-0.338341	-0.610107	0.029541	-0.546875
891.0	10.302537	0.124437	0.576771	0.429421	0.289936	-0.279602	-0.608154	0.033936	-0.549316
892.0	10.145763	-0.187552	0.899828	0.337084	0.335119	-0.228999	-0.610107	0.025146	-0.553711
893.0	9.95158	0.016207	0.204742	0.284807	0.306264	-0.167093	-0.612305	0.025146	-0.553711
894.0	10.274493	0.607812	-0.951901	0.317386	0.170673	-0.075292	-0.612061	0.018555	-0.558105
895.0	10.724392	2.308585	-1.609924	0.340508	-0.08061	0.026866	-0.614502	0.022949	-0.555908
896.0	11.114172	2.51255	-1.993861	0.211212	-0.35531	0.107182	-0.616455	0.016357	-0.555664
897.0	11.25748	1.839999	-2.527818	0.20112	-0.517689	0.119068	-0.618896	0.020508	-0.548828
898.0	11.187002	0.55406	-3.513201	0.216665	-0.562456	0.078348	-0.616455	0.016113	-0.544189
899.0	11.332754	-0.900747	-4.16624	0.315181	-0.406563	0.007256	-0.621338	0.024902	-0.544434
900.0	12.323233	-2.210107	-4.319826	0.429067	-0.050503	-0.016045	-0.623291	0.016113	-0.544189
901.0	13.550344	-2.14117	-3.38231	0.555484	0.261627	0.038875	-0.625244	0.013916	-0.543945
902.0	14.373783	-0.849767	-0.491402	0.552685	0.239227	0.20286	-0.62085	0.011719	-0.551025
903.0	15.251816	0.971597	3.084173	0.368369	-0.150024	0.435874	-0.625488	0.016113	-0.544189
904.0	15.340429	2.032769	4.042359	0.131887	-0.638467	0.64359	-0.63208	0.016113	-0.541748
905.0	14.887383	4.37155	4.29178	-0.001644	-1.176436	0.760024	-0.634766	0.0271	-0.532959
906.0	13.146848	4.99158	3.566999	-0.213668	-1.389613	0.809662	-0.639648	0.031494	-0.526123
907.0	11.351204	3.394077	3.072026	-0.19125	-1.216059	0.804354	-0.648926	0.040283	-0.519531
908.0	10.453578	1.559529	2.990305	-0.062744	-0.869379	0.806074	-0.651367	0.044678	-0.519531
909.0	9.792482	0.528588	2.613236	0.186205	-0.444129	0.85579	-0.653809	0.05127	-0.505859
910.0	10.453879	-0.028074	3.273062	0.286532	-0.088277	0.918826	-0.649658	0.057861	-0.510742
911.0	11.777586	-0.639557	3.466525	0.423257	0.237512	0.931427	-0.651855	0.057861	-0.508545
912.0	12.667468	-0.117836	2.628595	0.447197	0.381492	0.865211	-0.645508	0.068848	-0.513672
913.0	13.04655	0.389161	2.437159	0.312211	0.417506	0.721826	-0.652588	0.075439	-0.520752
914.0	13.230204	0.756011	2.68539	0.147456	0.463346	0.491869	-0.647949	0.073486	-0.527588
915.0	13.04282	0.275066	2.142408	-0.061659	0.297891	0.269252	-0.650635	0.082275	-0.516357
916.0	12.500878	-0.25619	1.396564	-0.203347	0.213415	0.135147	-0.643799	0.082275	-0.525635
917.0	11.1168	0.622426	1.254646	-0.258957	0.312364	0.051356	-0.648193	0.080078	-0.523193
918.0	10.053839	1.255061	1.189776	-0.425301	0.314579	-0.001994	-0.650635	0.080078	-0.530273
919.0	9.934229	1.76107	1.68536	-0.423358	0.289867	-0.085351	-0.64624	0.08667	-0.530518
920.0	9.797758	2.231333	1.59054	-0.45715	0.164195	-0.178195	-0.643799	0.082275	-0.532715
921.0	9.430999	2.481416	1.2042	-0.462061	0.139674	-0.265122	-0.648438	0.08667	-0.530518
922.0	8.757304	2.63775	0.878212	-0.502531	0.120536	-0.315522	-0.641602	0.084473	-0.534912
923.0	8.371195	2.443053	0.757277	-0.556128	0.107368	-0.328705	-0.644043	0.088867	-0.535156
924.0	8.163513	2.020329	0.540338	-0.566551	0.141602	-0.322269	-0.648682	0.08667	-0.537354
925.0	7.493578	1.360435	0.344209	-0.505114	0.278609	-0.305193	-0.64624	0.08667	-0.532715
926.0	7.261878	0.98203	0.099817	-0.461701	0.206214	-0.292648	-0.646484	0.088867	-0.52832
927.0	7.454463	0.456445	-0.065605	-0.421691	0.195734	-0.276887	-0.64624	0.082275	-0.534912
928.0	7.354195	0.226065	0.148834	-0.354496	0.290377	-0.248826	-0.644043	0.088867	-0.535156
929.0	7.205226	-0.028706	0.316776	-0.340019	0.383994	-0.2109	-0.637451	0.088867	-0.537598
930.0	7.035662	-0.288156	0.435845	-0.327971	0.420494	-0.159938	-0.632813	0.084473	-0.544434
931.0	7.031837	-0.423038	0.417206	-0.323656	0.408839	-0.11225	-0.64209	0.093262	-0.544678
932.0	7.012152	-0.354824	0.253545	-0.292678	0.42405	-0.052006	-0.637451	0.088867	-0.549072
933.0	6.840711	-0.321934	0.242539	-0.26206	0.405241	0.003576	-0.633057	0.095459	-0.551758
934.0	6.758516	-0.265887	0.183151	-0.2164	0.368676	0.061869	-0.630859	0.095459	-0.553955
935.0	6.99396	-0.091277	0.107929	-0.188436	0.326607	0.121995	-0.630859	0.093262	-0.553955
936.0	7.242934	0.099064	-0.077887	-0.173233	0.267649	0.189881	-0.633057	0.095459	-0.558594
937.0	7.53589	0.17197	-0.341154	-0.147848	0.238707	0.248798	-0.631104	0.102295	-0.561279
938.0	7.704046	0.348238	-0.47277	-0.121891	0.248589	0.28507	-0.62915	0.106689	-0.559082
939.0	7.819245	0.296188	-0.564729	-0.068806	0.261778	0.29205	-0.627197	0.113281	-0.561768
940.0	7.893741	0.344858	-0.789164	-0.014175	0.263829	0.284995	-0.62915	0.108887	-0.561523
941.0	7.509751	0.495578	-0.867194	0.040257	0.286048	0.267008	-0.627197	0.115479	-0.571045
942.0	7.289814	0.701402	-0.797576	0.003893	0.203114	0.272057	-0.625	0.115479	-0.566406
943.0	7.641165	0.761755	-0.849502	-0.056697	0.106583	0.282466	-0.625244	0.124268	-0.569092
944.0	8.32726	0.867743	-0.487739	-0.117518	0.103314	0.283643	-0.623047	0.12207	-0.568848
945.0	9.216685	0.743722	-0.225404	-0.209276	0.124243	0.268591	-0.623047	0.126465	-0.569092
946.0	9.820683	0.73129	0.020364	-0.161433	0.206467	0.21573	-0.625488	0.128662	-0.564453
947.0	9.951628	0.514947	0.092002	-0.108306	0.188836	0.139059	-0.621094	0.130859	-0.566895
948.0	10.327992	0.013591	-0.695038	-0.115678	0.01841	0.075642	-0.621094	0.128662	-0.569092
949.0	10.399547	-0.250733	-0.718857	-0.017784	-0.017572	0.038369	-0.623291	0.133057	-0.567139
950.0	10.352136	0.074057	-0.054001	0.101757	-0.005274	0.030409	-0.621094	0.128662	-0.566895
951.0	10.560915	0.249093	-0.251026	0.158898	-0.073989	0.036206	-0.623535	0.137451	-0.567139
952.0	11.083446	0.185543	-0.825494	0.174361	-0.07395	0.043347	-0.621338	0.135254	-0.5625
953.0	11.703536	0.208047	-1.293539	0.137252	-0.086175	0.047858	-0.625732	0.137451	-0.567139
954.0	12.192024	0.549168	-1.483914	0.086114	-0.050427	0.03769	-0.62793	0.133057	-0.564697
955.0	12.368631	1.228383	-1.616408	-0.039915	0.014849	0.051514	-0.628174	0.139648	-0.564941
956.0	12.163576	1.89171	-2.009971	-0.253339	0.069938	0.073618	-0.625977	0.139648	-0.564941
957.0	11.717944	2.682102	-2.451614	-0.437278	0.107389	0.091509	-0.621582	0.144043	-0.569824
958.0	11.620916	3.57739	-1.850655	-0.513308	0.135898	0.061316	-0.626221	0.14624	-0.565186
959.0	12.298194	3.194653	-0.900906	-0.509997	0.145079	-0.021461	-0.626221	0.14624	-0.565186
960.0	12.730468	1.647637	-1.077813	-0.380297	0.027385	-0.195012	-0.62207	0.153076	-0.560791
961.0	12.505444	0.146516	-0.434677	-0.156859	-0.172767	-0.388945	-0.628418	0.148438	-0.560547
962.0	12.432188	-0.263249	0.971165	0.09855	-0.48636	-0.511974	-0.630615	0.144043	-0.560547
963.0	12.690387	-0.600536	1.907622	0.223036	-0.592388	-0.552794	-0.637451	0.144043	-0.555908
964.0	13.085751	-1.547086	2.230819	0.240855	-0.538957	-0.601071	-0.632568	0.137451	-0.553223
965.0	12.519981	-2.62132	2.270366	0.179056	-0.558738	-0.67684	-0.63916	0.135254	-0.548584
966.0	11.554444	-3.040554	2.27758	0.250388	-0.618214	-0.758173	-0.641113	0.124268	-0.545898
967.0	10.313484	-1.890792	1.949114	0.33221	-0.526299	-0.815041	-0.645752	0.126221	-0.54126
968.0	9.543713	-1.339791	2.834429	0.252796	-0.46886	-0.827757	-0.649902	0.117432	-0.531494
969.0	9.879171	-1.064813	3.64438	0.190131	-0.27807	-0.815775	-0.651855	0.113037	-0.526855
970.0	10.33067	-0.874514	3.200279	0.123014	-0.043649	-0.771902	-0.642578	0.108643	-0.53125
971.0	11.621144	-0.140064	2.694434	0.154483	0.140584	-0.710954	-0.649414	0.108643	-0.53833
972.0	12.819405	0.170234	2.290452	0.204866	0.206874	-0.654902	-0.648926	0.097656	-0.5354
973.0	13.719741	0.594674	2.680362	0.352974	0.245582	-0.604659	-0.646973	0.102051	-0.538086
974.0	14.124886	1.387003	2.5514	0.412225	0.295418	-0.51934	-0.648682	0.088867	-0.539795
975.0	13.100007	2.534706	2.259705	0.473127	0.427678	-0.410562	-0.644043	0.088867	-0.544434
976.0	10.864627	2.706434	1.88873	0.432605	0.355094	-0.289136	-0.64624	0.082275	-0.544189
977.0	9.526617	2.250503	1.572157	0.44769	0.122397	-0.164836	-0.648438	0.084473	-0.544189
978.0	9.123865	1.547593	1.210407	0.563233	0.000889	-0.022196	-0.64624	0.082275	-0.544189
979.0	8.775629	0.880987	1.398167	0.679775	-0.044886	0.073774	-0.648193	0.080078	-0.539551
980.0	8.91636	0.00523	1.362093	0.668709	-0.220177	0.164704	-0.650391	0.077881	-0.546387
981.0	8.823676	-1.050045	0.934908	0.690812	-0.203952	0.259492	-0.652832	0.080078	-0.537109
982.0	8.383198	-1.295388	0.952418	0.734849	-0.192298	0.319115	-0.652832	0.080078	-0.537109
983.0	8.098954	-1.792471	1.000899	0.679126	-0.14082	0.341688	-0.653076	0.084473	-0.539551
984.0	7.940731	-1.648921	1.137378	0.686557	-0.030899	0.318582	-0.650635	0.080078	-0.530273
985.0	7.764245	-1.339994	1.074672	0.651363	0.007946	0.290187	-0.653076	0.084473	-0.534912
986.0	7.789934	-1.282451	0.881758	0.639421	0.063335	0.235411	-0.645996	0.080078	-0.532471
987.0	7.827109	-0.758263	0.86146	0.668562	0.074593	0.150263	-0.657471	0.084473	-0.541992
988.0	7.919467	-0.278577	0.426746	0.600143	-0.035074	0.099007	-0.650391	0.077881	-0.532471
989.0	8.369977	0.070585	0.527205	0.594697	0.021529	0.033367	-0.657227	0.075439	-0.530029
990.0	8.67242	0.601009	0.279541	0.543197	0.044294	-0.02256	-0.652588	0.075684	-0.534668
991.0	8.542632	1.044291	0.148574	0.487928	0.135228	-0.062281	-0.650391	0.073486	-0.534668
992.0	7.952254	1.398808	-0.073113	0.436408	0.26555	-0.086365	-0.647949	0.069092	-0.534424
993.0	7.551204	1.502422	-0.516234	0.340899	0.230518	-0.096201	-0.655029	0.077637	-0.530029
994.0	7.274984	1.434966	-0.602641	0.328142	0.226167	-0.094684	-0.652344	0.06665	-0.531982
995.0	6.987556	1.575446	-0.689026	0.297044	0.153715	-0.075103	-0.654785	0.071045	-0.532227
996.0	6.878372	1.43137	-0.815331	0.222636	0.048271	-0.048963	-0.647949	0.071289	-0.532227
997.0	7.111945	1.053218	-0.824384	0.122515	-0.058095	-0.0169	-0.652344	0.06665	-0.534424
998.0	7.463598	0.441502	-0.829358	0.063332	-0.098403	0.010028	-0.652588	0.073242	-0.532227
999.0	7.945865	-0.110728	-0.773012	0.043444	-0.055773	0.025454	-0.661377	0.071045	-0.536865
1000.0	8.382599	-0.450668	-0.943714	0.046207	0.031601	0.019396	-0.654541	0.068848	-0.529785
1001.0	8.186019	-0.647319	-0.939988	0.060315	0.218345	-0.011068	-0.652344	0.068848	-0.534424
1002.0	8.133936	-0.779758	-1.116229	0.046988	0.288459	-0.067624	-0.647949	0.071289	-0.532227
1003.0	9.253183	-0.815106	-1.025535	0.045187	0.146362	-0.100805	-0.652588	0.075684	-0.537109
1004.0	10.047636	-0.578283	-0.945434	0.083275	0.14847	-0.108475	-0.654541	0.068848	-0.539063
1005.0	9.763742	-0.233474	-0.841242	0.150299	0.214878	-0.107017	-0.652588	0.073486	-0.534668
1006.0	9.334443	0.196943	-0.352165	0.202996	0.275585	-0.104079	-0.645508	0.069092	-0.539063
1007.0	8.755896	0.420112	0.056269	0.231775	0.368029	-0.104405	-0.647949	0.071289	-0.543701
1008.0	8.647781	0.643531	0.037875	0.204557	0.358264	-0.084223	-0.649658	0.060059	-0.538818
1009.0	9.268052	0.546844	-0.442507	0.171861	0.308059	-0.035347	-0.645508	0.069092	-0.534424
1010.0	10.150538	0.978401	-0.867182	0.218413	0.243909	0.014118	-0.643066	0.0625	-0.538818
1011.0	11.027571	1.796833	-1.319505	0.209433	0.084114	0.074256	-0.645264	0.0625	-0.543457
1012.0	11.662451	2.217428	-1.823744	0.227948	-0.02836	0.133087	-0.645264	0.0625	-0.543457
1013.0	11.538584	2.197207	-2.286144	0.277171	-0.147107	0.151674	-0.652344	0.068848	-0.539063
1014.0	11.231798	1.56528	-2.783795	0.306442	-0.240305	0.144752	-0.647705	0.064453	-0.536621
1015.0	10.755107	0.30846	-3.252805	0.379691	-0.1416	0.115689	-0.649902	0.066895	-0.539063
1016.0	10.646097	-1.511876	-2.956349	0.319287	0.04003	0.119288	-0.6521	0.060059	-0.536377
1017.0	11.843797	-2.514863	-1.786113	0.365428	0.290231	0.1834	-0.654541	0.068848	-0.539063
1018.0	12.895692	-2.524818	0.229784	0.357685	0.384828	0.344751	-0.6521	0.062256	-0.536621
1019.0	14.601724	-1.144341	2.556401	0.338375	0.019254	0.585288	-0.652588	0.073486	-0.536865
1020.0	16.078101	1.165261	4.45197	0.181066	-0.618106	0.782118	-0.652588	0.075684	-0.530029
1021.0	16.021284	3.590229	5.422583	0.117061	-1.069008	0.878855	-0.657471	0.084473	-0.528076
1022.0	13.517078	4.054012	4.668633	0.027349	-1.072386	0.906299	-0.664307	0.086426	-0.516602
1023.0	11.128224	3.35321	3.93033	-0.031292	-0.927302	0.91353	-0.664551	0.095215	-0.514404
1024.0	9.983953	2.545083	2.503464	-0.005898	-0.777129	0.935585	-0.671631	0.101807	-0.500732
1025.0	10.276695	1.622395	2.57657	0.023522	-0.529432	0.96689	-0.674316	0.112793	-0.503662
1026.0	11.116993	0.812189	3.343155	0.128449	-0.143801	0.964758	-0.667725	0.113037	-0.499023
1027.0	11.674343	0.584374	2.978158	0.11137	0.193819	0.895108	-0.667969	0.121826	-0.499268
1028.0	12.781315	0.343153	3.001551	0.018576	0.413563	0.745244	-0.666016	0.126221	-0.510986
1029.0	14.156418	0.856729	3.292993	-0.122436	0.558767	0.503963	-0.66626	0.132813	-0.513672
1030.0	13.998066	0.991882	3.202122	-0.361217	0.71449	0.230325	-0.659424	0.132813	-0.509033
1031.0	12.920634	0.543473	2.574831	-0.597178	0.586214	0.012118	-0.664063	0.13501	-0.51123
1032.0	11.251601	1.115556	1.519855	-0.708932	0.417448	-0.087519	-0.661865	0.137207	-0.516113
1033.0	10.095193	1.925321	1.353971	-0.838183	0.271058	-0.118434	-0.661865	0.139404	-0.520752
1034.0	10.144085	1.931705	1.328983	-0.934717	0.253695	-0.133614	-0.661865	0.137207	-0.511475
1035.0	9.749172	1.777294	0.875962	-0.943737	0.19995	-0.177197	-0.664307	0.143799	-0.518555
1036.0	9.417925	1.778928	0.80989	-0.924465	0.131028	-0.231486	-0.662109	0.145996	-0.518799
1037.0	8.932786	1.806099	0.959073	-0.928676	0.135683	-0.284714	-0.657715	0.148193	-0.511963
1038.0	8.265591	1.566066	0.71492	-0.892547	0.147241	-0.336862	-0.662354	0.150391	-0.52124
1039.0	8.164154	0.950219	0.430169	-0.92404	0.116762	-0.37979	-0.657715	0.148193	-0.518799
1040.0	7.788401	0.23182	0.196492	-0.855222	0.158577	-0.413892	-0.657715	0.143799	-0.525635
1041.0	7.434037	-0.106091	0.009041	-0.763325	0.170193	-0.424459	-0.662354	0.150391	-0.52124
1042.0	7.332445	-0.227027	-0.213391	-0.676344	0.200633	-0.39877	-0.666748	0.148193	-0.523438
1043.0	7.470579	-0.538995	-0.514354	-0.636784	0.232834	-0.34439	-0.664551	0.148193	-0.51416
1044.0	7.416887	-0.891607	-0.327154	-0.521068	0.260252	-0.306384	-0.657959	0.150391	-0.518799
1045.0	7.513673	-1.067711	-0.213155	-0.444346	0.230699	-0.274115	-0.666992	0.152588	-0.519043
1046.0	7.433712	-1.322413	-0.140467	-0.344188	0.230185	-0.260013	-0.664551	0.150391	-0.523438
1047.0	7.275818	-1.4651	-0.101796	-0.262434	0.229635	-0.252456	-0.657959	0.150391	-0.525879
1048.0	7.341001	-1.334288	-0.391591	-0.169144	0.172036	-0.233734	-0.664307	0.143799	-0.530273
1049.0	7.195083	-1.292036	-0.29197	-0.116533	0.258516	-0.213626	-0.662109	0.141602	-0.527832
1050.0	7.018401	-1.063355	-0.170737	-0.007656	0.268736	-0.190394	-0.659668	0.139404	-0.532471
1051.0	7.180244	-0.897966	-0.405451	0.030988	0.262074	-0.151889	-0.659912	0.143799	-0.532471
1052.0	7.287979	-0.663327	-0.587604	0.077632	0.274079	-0.121599	-0.661865	0.137207	-0.536865
1053.0	7.455949	-0.350541	-0.607601	0.093184	0.247507	-0.099658	-0.659668	0.139404	-0.537109
1054.0	7.641319	-0.055361	-0.727987	0.082907	0.19187	-0.088005	-0.657227	0.13501	-0.536865
1055.0	7.615806	0.1831	-0.931924	0.053129	0.118346	-0.082032	-0.659912	0.144043	-0.544189
1056.0	7.24734	0.461962	-0.93746	0.024267	0.078122	-0.054756	-0.655029	0.137207	-0.541504
1057.0	7.450094	0.939555	-0.820647	-0.054205	-0.060661	-0.016057	-0.659424	0.13501	-0.539307
1058.0	7.966136	1.100127	-0.699294	-0.087558	-0.06091	0.025291	-0.659912	0.141602	-0.532471
1059.0	8.891894	2.1498	-0.399528	0.030808	0.01969	0.037598	-0.657715	0.144043	-0.541748
1060.0	10.170755	2.57949	0.736544	0.004024	0.058917	0.040651	-0.664063	0.13501	-0.539307
1061.0	10.726111	2.058903	0.276259	-0.118282	0.048328	0.042498	-0.664063	0.13501	-0.539307
1062.0	10.34398	1.822984	0.512008	-0.176481	0.146703	0.082143	-0.666504	0.141602	-0.541748
1063.0	10.109531	1.176091	0.985653	-0.27004	0.089161	0.151598	-0.664307	0.141602	-0.541748
1064.0	10.100376	1.05476	0.667471	-0.256854	0.037414	0.223749	-0.662109	0.141602	-0.541748
1065.0	10.737205	1.118582	0.143309	-0.21863	-0.005547	0.268755	-0.660156	0.148438	-0.544434
1066.0	11.775177	0.717837	-0.2244	-0.191373	-0.070275	0.272488	-0.660156	0.152832	-0.546875
1067.0	12.152528	-0.450508	-1.000714	-0.134579	-0.117928	0.253402	-0.666992	0.152832	-0.549072
1068.0	11.603161	-1.210971	-1.233954	-0.050729	-0.129679	0.227202	-0.662354	0.148438	-0.544434
1069.0	11.035121	-1.268871	-1.313674	-0.05941	-0.269821	0.190575	-0.664551	0.150635	-0.541992
1070.0	11.194585	-0.562506	-1.590746	-0.171605	-0.330974	0.163576	-0.664795	0.155029	-0.540039
1071.0	11.878312	-0.220507	-1.433489	-0.265965	-0.113697	0.127356	-0.669678	0.161621	-0.535645
1072.0	12.359801	0.139674	-0.56189	-0.181024	0.063973	0.048642	-0.666992	0.155029	-0.542236
1073.0	12.74601	0.217633	0.956097	-0.065407	-0.056648	-0.117328	-0.667236	0.159424	-0.5354
1074.0	13.492178	0.021917	1.826662	0.06204	-0.237482	-0.308533	-0.669189	0.152588	-0.537598
1075.0	13.61313	0.312523	2.306986	0.269691	-0.251544	-0.465999	-0.669189	0.152588	-0.542236
1076.0	13.43971	0.715961	2.792372	0.346178	-0.42747	-0.585973	-0.677734	0.139404	-0.537109
1077.0	13.177922	0.760627	2.46383	0.20119	-0.692074	-0.647515	-0.679932	0.139404	-0.530029
1078.0	12.365142	1.094798	2.04079	0.093755	-0.807888	-0.672919	-0.679688	0.130615	-0.525146
1079.0	11.181677	1.966931	2.111434	-0.005243	-0.728278	-0.674799	-0.688477	0.128418	-0.527344
1080.0	10.296212	2.387425	2.688416	-0.144401	-0.617942	-0.681714	-0.690674	0.123779	-0.517822
1081.0	10.244943	1.313727	3.488345	-0.279953	-0.415155	-0.692185	-0.697266	0.121582	-0.522461
1082.0	10.097148	0.525004	3.375095	-0.212215	-0.115237	-0.690049	-0.69458	0.110596	-0.521973
1083.0	10.295356	0.476908	3.160557	-0.20238	0.104455	-0.660334	-0.69458	0.108398	-0.521973
1084.0	11.418961	-0.147854	2.756343	-0.179889	0.100488	-0.628593	-0.694336	0.101807	-0.519287
1085.0	13.223403	-0.598665	2.876913	-0.086772	0.1157	-0.599038	-0.694336	0.104004	-0.521729
1086.0	14.530367	-0.15923	2.829776	0.014928	0.253137	-0.554947	-0.698486	0.095215	-0.526123
1087.0	13.9856	0.512508	2.345826	0.106334	0.512305	-0.454943	-0.69165	0.093018	-0.526123
1088.0	12.514099	0.821698	2.270039	0.10454	0.52143	-0.339784	-0.691406	0.088623	-0.530518
1089.0	11.122044	0.790759	2.247604	0.19796	0.416892	-0.179283	-0.69165	0.09082	-0.537598
1090.0	10.746732	0.230501	2.133003	0.236598	0.259416	-0.01119	-0.693604	0.084229	-0.537354
1091.0	9.975921	-0.318305	1.905376	0.375131	0.212096	0.114709	-0.693604	0.084229	-0.534912
1092.0	9.040953	-0.413495	1.780753	0.414454	0.117569	0.192133	-0.695557	0.079834	-0.537109
1093.0	8.274954	-0.650861	1.46638	0.402091	0.041537	0.260323	-0.695801	0.082031	-0.537109
1094.0	7.683118	-0.822948	0.979127	0.405997	8.6e-05	0.304719	-0.691162	0.079834	-0.541748
1095.0	7.715148	-0.711226	0.775713	0.406405	-0.067673	0.317341	-0.691406	0.084229	-0.546631
1096.0	7.50834	-0.724579	0.709013	0.41604	0.002016	0.328736	-0.693359	0.077637	-0.548584
1097.0	7.468006	-0.772122	0.461601	0.409252	0.038566	0.335923	-0.691406	0.086426	-0.544434
1098.0	7.522746	-0.729484	0.481633	0.431726	0.12814	0.331622	-0.688965	0.079834	-0.548828
1099.0	7.260366	-0.508988	0.469528	0.447115	0.217466	0.322005	-0.693359	0.082031	-0.544189
1100.0	7.233853	-0.111861	0.514569	0.427715	0.209984	0.323792	-0.693359	0.079834	-0.551025
1101.0	7.169674	0.001821	0.554639	0.388602	0.216659	0.315816	-0.688965	0.082031	-0.553467
1102.0	7.173186	0.249863	0.76966	0.335864	0.220992	0.292156	-0.695801	0.084229	-0.555908
1103.0	7.146069	0.504536	0.354594	0.301537	0.146348	0.264178	-0.686768	0.082031	-0.555908
1104.0	7.01002	0.753857	0.215206	0.235002	0.093543	0.223554	-0.691162	0.077637	-0.553223
1105.0	6.801001	0.785283	0.277005	0.19231	0.093175	0.173543	-0.691162	0.079834	-0.560303
1106.0	6.482019	0.750965	-0.128613	0.181445	0.062878	0.09697	-0.686523	0.079834	-0.558105
1107.0	6.368659	0.677035	-0.453394	0.206417	0.013583	0.025331	-0.697998	0.082031	-0.562744
1108.0	6.503095	0.620011	-0.658188	0.255726	-0.016255	-0.04949	-0.692871	0.068848	-0.562256
1109.0	6.758818	0.405952	-0.777228	0.278569	-0.048597	-0.111125	-0.693115	0.075439	-0.560303
1110.0	7.059747	0.135367	-0.82885	0.262668	-0.139841	-0.165086	-0.69751	0.071045	-0.560059
1111.0	7.348151	-0.172465	-0.762344	0.216008	-0.231739	-0.21415	-0.693115	0.071045	-0.55542
1112.0	7.401439	-0.537807	-0.623425	0.185039	-0.244757	-0.24463	-0.697266	0.06665	-0.557617
1113.0	7.411291	-0.61575	-0.819374	0.185753	-0.214805	-0.280099	-0.70166	0.060059	-0.554932
1114.0	8.634987	-0.533527	-1.125876	0.181512	-0.365871	-0.288055	-0.703613	0.053223	-0.55249
1115.0	10.418615	-0.960428	-1.233856	0.157479	-0.366355	-0.269977	-0.705566	0.048828	-0.554688
1116.0	11.53529	-1.015859	-1.607667	0.296711	-0.204604	-0.235522	-0.705566	0.048828	-0.554688
1117.0	11.708812	-0.519949	-1.567276	0.374732	0.004262	-0.206495	-0.703369	0.048828	-0.554688
1118.0	10.970636	-0.287575	-1.1149	0.468247	0.182367	-0.195343	-0.705322	0.037842	-0.556396
1119.0	10.315683	0.254927	-0.537736	0.550002	0.181802	-0.183769	-0.705078	0.035645	-0.561035
1120.0	10.248099	0.512668	-0.683952	0.496393	0.084522	-0.131776	-0.709229	0.026855	-0.560791
1121.0	10.026768	0.469796	-0.487786	0.383546	0.078598	-0.060794	-0.707275	0.03125	-0.558594
1122.0	10.25725	0.458669	-0.563633	0.255221	0.030558	-0.003783	-0.709229	0.024658	-0.560547
1123.0	10.649507	0.438926	-1.297404	0.183589	-0.04232	0.024173	-0.713623	0.024658	-0.55835
1124.0	10.966307	0.815009	-1.871623	0.159868	-0.150379	0.021335	-0.711182	0.018066	-0.564941
1125.0	11.309309	0.80325	-2.309581	0.134546	-0.240118	0.012448	-0.71582	0.022461	-0.553467
1126.0	11.290014	0.678006	-2.945012	0.197393	-0.18933	-0.01322	-0.713623	0.020264	-0.560547
1127.0	11.168962	0.282632	-3.227317	0.17309	-0.102375	-0.009248	-0.711426	0.022461	-0.558105
1128.0	12.076103	0.170809	-2.698185	0.156396	0.084512	0.043922	-0.710938	0.011475	-0.5625
1129.0	13.215681	0.799923	-1.333523	0.111577	0.210232	0.15616	-0.713379	0.018066	-0.562744
1130.0	14.650742	2.011622	0.690107	0.028593	0.033284	0.361231	-0.718018	0.020264	-0.558105
1131.0	14.838325	3.349839	3.08622	-0.251582	-0.513999	0.600928	-0.720459	0.022461	-0.558105
1132.0	14.655637	4.006825	3.473497	-0.583441	-1.147048	0.783916	-0.725342	0.03125	-0.546875
1133.0	13.283589	4.36567	3.451252	-0.771307	-1.501364	0.848585	-0.732178	0.037842	-0.537842
1134.0	11.69383	2.878609	2.14883	-0.784578	-1.438402	0.836086	-0.739502	0.048584	-0.529053
1135.0	10.063315	1.098357	2.10946	-0.577141	-1.134053	0.786427	-0.744141	0.052979	-0.519775
1136.0	9.444069	-0.674718	1.761752	-0.360763	-0.801825	0.775825	-0.749023	0.061768	-0.515625
1137.0	9.768758	-1.23776	1.569001	-0.07162	-0.464118	0.807081	-0.751465	0.068359	-0.513428
1138.0	10.558463	-2.048926	3.322154	0.051944	0.026375	0.835121	-0.746826	0.066162	-0.513428
1139.0	11.850457	-2.926659	3.826494	0.218597	0.36573	0.797501	-0.747314	0.075195	-0.516113
1140.0	12.946302	-1.475299	2.627066	0.226332	0.481916	0.72546	-0.744873	0.070801	-0.522949
1141.0	13.674301	-0.770033	2.49551	0.034753	0.40279	0.54838	-0.745361	0.083984	-0.528076
1142.0	13.938718	-0.037066	2.817843	-0.090909	0.409699	0.300895	-0.751953	0.077393	-0.534668
1143.0	13.414533	-0.027175	2.456455	-0.216547	0.366767	0.094722	-0.745361	0.081787	-0.539551
1144.0	12.61677	0.737057	1.793743	-0.232562	0.205498	-0.011133	-0.745117	0.077393	-0.534668
1145.0	11.266509	1.571674	1.179155	-0.293413	0.324539	-0.055495	-0.74292	0.07959	-0.539307
1146.0	10.265216	2.334776	1.05782	-0.38011	0.305417	-0.08433	-0.745117	0.07959	-0.537109
1147.0	9.342639	2.304048	1.003948	-0.484951	0.246457	-0.08581	-0.740967	0.083984	-0.539551
1148.0	9.045483	2.71537	1.09057	-0.49501	0.108375	-0.097561	-0.740723	0.081787	-0.539551
1149.0	8.832883	2.767299	0.838515	-0.523417	0.021201	-0.117109	-0.743164	0.081787	-0.539551
1150.0	8.622148	2.647771	0.839296	-0.527579	-0.002367	-0.125597	-0.74292	0.07959	-0.541748
1151.0	8.036705	2.190142	0.868246	-0.484595	0.059214	-0.130526	-0.747314	0.077393	-0.534668
1152.0	8.046121	1.74251	0.722634	-0.511021	0.066312	-0.138465	-0.74292	0.077393	-0.539307
1153.0	7.934544	1.11393	0.78846	-0.462365	0.19964	-0.123163	-0.74292	0.077393	-0.543945
1154.0	7.778901	0.699669	0.746381	-0.424248	0.231666	-0.112208	-0.743164	0.083984	-0.544189
1155.0	7.732322	0.278426	0.575697	-0.359983	0.233898	-0.099371	-0.743164	0.081787	-0.548828
1156.0	7.817345	0.036402	0.614626	-0.324604	0.227463	-0.092674	-0.743164	0.081787	-0.546387
1157.0	7.847045	-0.277617	0.666008	-0.269397	0.270567	-0.080595	-0.745117	0.07959	-0.558105
1158.0	7.563582	-0.199632	0.620273	-0.218965	0.301668	-0.062165	-0.740479	0.072998	-0.55542
1159.0	7.487946	-0.331833	0.486814	-0.173776	0.292885	-0.025841	-0.733887	0.077393	-0.551025
1160.0	7.215023	-0.451462	0.312377	-0.088141	0.323667	-0.005487	-0.740723	0.077393	-0.557861
1161.0	6.810283	-0.474997	0.314451	-0.006415	0.322308	0.018282	-0.738281	0.077393	-0.555664
1162.0	6.864283	-0.736319	0.272882	0.07734	0.262117	0.019581	-0.740723	0.077393	-0.564941
1163.0	7.073579	-0.791488	0.028568	0.13759	0.290356	0.032957	-0.738281	0.075195	-0.5625
1164.0	7.401228	-0.902273	-0.020838	0.167852	0.326557	0.043648	-0.738281	0.075195	-0.574219
1165.0	7.669292	-0.933534	0.108492	0.186631	0.42179	0.04991	-0.731445	0.070801	-0.562256
1166.0	8.031203	-0.672275	0.132669	0.200386	0.448191	0.053394	-0.738037	0.070801	-0.571533
1167.0	8.384162	-0.362676	0.045472	0.173713	0.437874	0.052439	-0.733643	0.070801	-0.578613
1168.0	8.578721	0.062362	-0.161317	0.135442	0.437928	0.052296	-0.726807	0.066406	-0.583008
1169.0	8.602939	0.634851	-0.163552	0.084394	0.400624	0.061993	-0.731201	0.068604	-0.585449
1170.0	8.644773	1.297415	-0.074773	0.030946	0.348582	0.105236	-0.72876	0.062012	-0.585205
1171.0	8.996411	1.827129	-0.728384	-0.081734	0.211253	0.172609	-0.726807	0.071045	-0.587891
1172.0	9.456364	2.159626	-0.783396	-0.117497	0.127681	0.215749	-0.729004	0.066406	-0.585449
1173.0	10.191591	2.650037	-1.009418	-0.165446	0.043004	0.23191	-0.731445	0.073242	-0.587891
1174.0	10.613052	2.593806	-0.908368	-0.148173	0.061219	0.220578	-0.735596	0.066406	-0.587646
1175.0	10.131921	1.589585	-0.846779	-0.16787	0.119358	0.223377	-0.729248	0.075439	-0.592773
1176.0	9.608953	0.096584	-0.567896	-0.240703	0.121486	0.244247	-0.729248	0.075439	-0.592773
1177.0	9.537321	-0.924776	-0.023431	-0.174647	0.048692	0.266215	-0.729492	0.079834	-0.592773
1178.0	10.087299	-0.725596	0.387254	0.00363	-0.034272	0.293076	-0.731445	0.075439	-0.590332
1179.0	10.840956	-0.196747	0.259255	0.1019	-0.078782	0.322757	-0.729492	0.077637	-0.585693
1180.0	11.879965	-0.250681	-0.827563	-0.013754	-0.156063	0.321455	-0.738281	0.075195	-0.588135
1181.0	12.078745	-0.659121	-1.645606	-0.082335	-0.136648	0.285192	-0.731689	0.079834	-0.585938
1182.0	11.694661	-0.303854	-1.481527	-0.116701	-0.153659	0.226355	-0.727295	0.082031	-0.58374
1183.0	11.493941	0.566693	-1.984217	-0.299952	-0.189676	0.193513	-0.734375	0.09082	-0.581543
1184.0	11.074281	1.797356	-2.883536	-0.509209	-0.047012	0.183695	-0.734131	0.084229	-0.58374
1185.0	10.917747	2.644346	-1.927782	-0.605534	0.248708	0.155182	-0.731934	0.086426	-0.588379
1186.0	10.845365	2.453077	-0.970916	-0.644394	0.25563	0.064271	-0.734619	0.097412	-0.591064
1187.0	10.629283	1.767176	-1.234527	-0.584071	-0.162254	-0.144569	-0.732178	0.093018	-0.583984
1188.0	10.722836	0.559516	0.409441	-0.340477	-0.522122	-0.360747	-0.736572	0.088623	-0.581543
1189.0	11.462562	-0.135883	2.05079	0.014751	-0.68567	-0.537896	-0.740723	0.081787	-0.564941
1190.0	11.575684	-0.314218	2.032788	0.306903	-0.772719	-0.673999	-0.744873	0.072998	-0.567139
1191.0	11.921317	-0.614638	2.225488	0.229417	-1.005844	-0.7468	-0.749512	0.072998	-0.55542
1192.0	12.339187	-1.444434	1.460334	0.110999	-1.039088	-0.767244	-0.753418	0.057617	-0.55249
1193.0	11.510229	-0.411575	1.552856	0.156389	-0.806029	-0.75785	-0.755371	0.052979	-0.54541
1194.0	10.889437	0.221277	3.132758	0.04085	-0.603195	-0.732148	-0.757568	0.048584	-0.542969
1195.0	11.200169	-0.390462	4.6975	-0.133135	-0.286237	-0.730528	-0.754883	0.039795	-0.535645
1196.0	11.257656	-1.18367	4.644482	-0.22741	0.032739	-0.776391	-0.754639	0.0354	-0.540039
1197.0	11.19684	-1.384741	3.953744	-0.172363	0.206261	-0.790183	-0.752197	0.028809	-0.539795
1198.0	11.489252	-0.516066	3.264756	-0.003017	0.215294	-0.761957	-0.758789	0.022217	-0.544189
1199.0	12.234975	0.25852	2.551594	0.042344	0.060869	-0.687087	-0.753906	0.015625	-0.541748
1200.0	14.134573	1.037787	2.287577	0.094279	-0.077406	-0.577934	-0.756104	0.01123	-0.548584
1201.0	14.795718	1.2749	1.831096	0.12961	0.096183	-0.446928	-0.757813	0.002441	-0.545898
1202.0	13.817024	0.983838	1.69576	0.187738	0.267726	-0.319294	-0.751221	0.004639	-0.545898
1203.0	11.707501	0.241697	1.613302	0.39751	0.473289	-0.214041	-0.750977	-0.001953	-0.550293
1204.0	10.621322	0.137261	1.587223	0.612556	0.296835	-0.099578	-0.75293	-0.008545	-0.550049
1205.0	10.335373	-0.829255	1.518826	0.744646	0.083815	0.018068	-0.75293	-0.008789	-0.543213
1206.0	10.022223	-1.293287	1.590522	0.975749	0.004484	0.10732	-0.750488	-0.015137	-0.549805
1207.0	9.887616	-1.73878	1.580948	0.97693	-0.102246	0.182024	-0.752686	-0.013184	-0.549805
1208.0	9.508522	-2.074971	1.404912	0.985468	-0.07574	0.208322	-0.750244	-0.021973	-0.540283
1209.0	9.166497	-2.039378	1.41902	0.960592	-0.031166	0.226629	-0.750244	-0.019775	-0.542725
1210.0	8.820952	-2.04409	0.887977	0.923713	0.004056	0.224497	-0.747559	-0.028564	-0.547119
1211.0	8.622715	-1.70233	0.540157	0.943876	0.026748	0.209676	-0.749756	-0.028564	-0.537842
1212.0	8.558628	-1.26644	0.51555	0.927853	0.069006	0.187423	-0.751953	-0.032959	-0.537598
1213.0	8.255138	-0.653199	0.501537	0.905484	0.105092	0.166578	-0.75	-0.02417	-0.54248
1214.0	8.203708	-0.014148	0.649909	0.898732	0.145287	0.151423	-0.751709	-0.041748	-0.539551
1215.0	8.297758	0.729385	0.447948	0.886282	0.122402	0.139008	-0.751709	-0.037354	-0.546631
1216.0	8.283311	1.087316	0.457141	0.837147	0.151016	0.146221	-0.749512	-0.039551	-0.544189
1217.0	7.983546	1.35105	0.632255	0.780529	0.144487	0.16144	-0.747314	-0.037354	-0.544434
1218.0	7.836327	1.595773	0.581418	0.684109	0.111489	0.166619	-0.749023	-0.04834	-0.541748
1219.0	7.581085	1.629345	0.43715	0.555865	0.141806	0.166453	-0.747314	-0.037354	-0.544434
1220.0	7.003533	1.547424	0.30621	0.454433	0.142346	0.1429	-0.744629	-0.04834	-0.541748
1221.0	6.72516	1.486426	0.057335	0.367516	0.100334	0.113598	-0.744629	-0.046143	-0.541748
1222.0	6.585637	1.528131	-0.20483	0.298216	0.029106	0.081763	-0.749023	-0.050537	-0.536865
1223.0	6.579446	1.530961	-0.23111	0.196179	-0.039468	0.040124	-0.749023	-0.04834	-0.539307
1224.0	6.539604	1.493471	-0.263838	0.099979	-0.096276	-0.010124	-0.746826	-0.04834	-0.546387
1225.0	6.496769	1.192061	-0.358533	-0.003246	-0.132725	-0.056201	-0.748779	-0.052734	-0.539063
1226.0	6.621973	0.821452	-0.614222	-0.057942	-0.183707	-0.095153	-0.749023	-0.050537	-0.536865
1227.0	6.720138	0.383841	-0.778002	-0.086337	-0.157915	-0.127411	-0.746582	-0.052734	-0.536865
1228.0	6.530375	-0.107274	-0.780466	-0.038471	-0.031119	-0.175195	-0.748535	-0.059326	-0.53418
1229.0	6.669988	-0.456334	-0.787314	0.028436	-0.045576	-0.254455	-0.753418	-0.052734	-0.529785
1230.0	7.270242	-0.785979	-0.620189	0.031369	-0.085882	-0.346964	-0.750732	-0.061523	-0.531738
1231.0	8.796744	-1.084713	-0.869905	0.036908	-0.209192	-0.431394	-0.748291	-0.065918	-0.533936
1232.0	10.517438	-1.241982	-0.859653	0.064252	-0.231464	-0.489343	-0.755127	-0.068359	-0.531494
1233.0	11.30791	-0.578767	-0.754543	0.160214	-0.042616	-0.513507	-0.748047	-0.072754	-0.526855
1234.0	11.164398	0.125365	-0.465484	0.221432	0.120847	-0.516683	-0.743164	-0.08374	-0.531006
1235.0	10.754049	0.271972	0.610174	0.213088	0.21796	-0.503165	-0.745361	-0.085938	-0.528564
1236.0	10.229921	0.655499	0.915073	0.191827	0.262765	-0.479122	-0.740479	-0.094727	-0.532959
1237.0	9.872639	1.149963	-0.420544	0.131583	0.113009	-0.398368	-0.742676	-0.094727	-0.532959
1238.0	9.733668	1.875496	-1.586391	0.108629	-0.091894	-0.2735	-0.744385	-0.105713	-0.527832
1239.0	9.632088	2.959467	-1.522665	0.028886	-0.350589	-0.152232	-0.742432	-0.099121	-0.523438
1240.0	9.855847	2.561333	-0.994673	-0.159823	-0.640782	-0.062928	-0.744629	-0.099121	-0.51416
1241.0	10.686291	1.175905	-1.671665	-0.153863	-0.649871	-0.024357	-0.744629	-0.101318	-0.509521
1242.0	11.116514	-0.428991	-3.469212	-0.000145	-0.496542	-0.048404	-0.744629	-0.101318	-0.504883
1243.0	11.115734	-1.769563	-5.306228	0.204747	-0.220932	-0.117463	-0.746826	-0.105713	-0.504639
1244.0	10.516193	-2.921574	-5.275638	0.352585	0.087528	-0.183175	-0.748779	-0.112305	-0.511475
1245.0	10.921808	-3.584277	-3.710277	0.373646	0.051015	-0.166739	-0.744385	-0.110107	-0.504639
1246.0	12.346818	-2.700083	-2.172065	0.361235	0.049191	-0.087895	-0.744141	-0.116699	-0.499512
1247.0	12.801577	-1.671399	-0.241167	0.262303	0.105064	0.047003	-0.748535	-0.114502	-0.509033
1248.0	12.922223	-0.160669	1.529427	0.161739	-0.153869	0.234436	-0.746094	-0.121094	-0.50415
1249.0	12.704387	1.242758	2.224802	0.008627	-0.575498	0.397125	-0.755371	-0.114746	-0.497314
1250.0	12.852257	2.635167	2.899805	-0.12862	-1.151902	0.519179	-0.755859	-0.103516	-0.486084
1251.0	13.393685	4.333625	2.689975	-0.208197	-1.506213	0.60448	-0.762451	-0.105957	-0.476807
1252.0	12.569117	4.357862	1.968641	-0.353715	-1.470994	0.65932	-0.764893	-0.10376	-0.462891
1253.0	11.044222	2.391332	1.721796	-0.358541	-1.283599	0.666889	-0.767334	-0.094971	-0.45166
1254.0	9.836307	0.420807	1.643115	-0.235387	-1.013607	0.68373	-0.769775	-0.090576	-0.440186
1255.0	9.148923	-0.964211	1.833544	-0.042223	-0.613058	0.724685	-0.770264	-0.081787	-0.44043
1256.0	9.364854	-1.576535	2.391055	0.198955	-0.087104	0.801816	-0.7771	-0.075195	-0.440674
1257.0	10.292052	-1.446089	3.229018	0.335501	0.297206	0.890724	-0.772705	-0.072998	-0.457031
1258.0	11.256039	-1.413671	4.052615	0.160956	0.477083	0.928278	-0.770752	-0.068604	-0.443359
1259.0	12.390604	-0.055152	3.744397	0.033499	0.525579	0.890025	-0.77124	-0.057373	-0.453125
1260.0	12.764989	1.738886	3.178889	-0.217115	0.483598	0.7686	-0.773682	-0.052979	-0.453125
1261.0	13.640163	2.623439	2.670542	-0.411214	0.427821	0.597775	-0.771729	-0.044189	-0.458252
1262.0	13.986641	2.826823	1.893374	-0.691236	0.262755	0.412716	-0.771729	-0.046387	-0.460449
1263.0	12.48852	2.016069	1.205983	-0.964429	0.355181	0.307132	-0.765137	-0.037598	-0.458496
1264.0	10.378112	2.679168	1.564998	-1.119854	0.446267	0.229835	-0.765137	-0.037598	-0.460693
1265.0	9.92863	3.000861	1.16924	-1.376832	0.236951	0.170657	-0.77002	-0.028809	-0.461182
1266.0	10.000528	3.651916	1.455079	-1.43551	0.24724	0.087017	-0.765625	-0.028809	-0.472656
1267.0	9.904693	4.12903	1.276421	-1.52394	0.247128	0.020345	-0.763672	-0.017578	-0.473145
1268.0	9.908017	4.44016	0.915487	-1.633207	0.253614	-0.017067	-0.763916	-0.013184	-0.470947
1269.0	9.657676	4.073556	0.695377	-1.776444	0.292624	-0.023828	-0.757324	-0.008789	-0.47583
1270.0	9.716473	3.604905	0.527856	-1.87833	0.350138	-0.020422	-0.757568	-0.006592	-0.47583
1271.0	9.543264	2.93488	0.367557	-1.91553	0.449455	-0.014326	-0.753418	0.002197	-0.485352
1272.0	9.524141	2.33105	0.335577	-1.954422	0.491226	-0.008254	-0.758057	0.006592	-0.483398
1273.0	9.619888	1.682636	0.062784	-2.013909	0.431737	-0.020806	-0.751953	0.022217	-0.490967
1274.0	9.667714	1.184209	-0.199945	-2.032563	0.396266	-0.023563	-0.749512	0.022217	-0.500244
1275.0	9.494059	0.987205	-0.192788	-2.051643	0.405039	-0.023633	-0.747803	0.033203	-0.498291
1276.0	9.145765	0.703479	-0.091468	-2.111739	0.4011	-0.010811	-0.750244	0.037598	-0.498291
1277.0	9.026934	0.611091	-0.118992	-2.180369	0.376297	-0.003631	-0.748291	0.046387	-0.505615
1278.0	8.817149	0.520572	-0.054606	-2.220661	0.377044	0.000119	-0.746338	0.052979	-0.505859
1279.0	8.739904	0.680778	0.104874	-2.274982	0.376486	0.011094	-0.737549	0.055176	-0.506104
1280.0	8.573443	0.732494	0.003333	-2.302936	0.360966	0.025322	-0.738037	0.072998	-0.506592
1281.0	8.375044	0.941653	0.0049	-2.354301	0.34998	0.055204	-0.736084	0.077393	-0.506836
1282.0	8.29622	1.054891	-0.078809	-2.404691	0.32063	0.093458	-0.734131	0.086182	-0.511719
1283.0	8.134583	1.160089	-0.236981	-2.456949	0.275299	0.132857	-0.730225	0.101563	-0.51001
1284.0	8.127712	1.238175	-0.210661	-2.532522	0.206986	0.159797	-0.734863	0.10376	-0.512451
1285.0	8.283577	1.307646	-0.43617	-2.615418	0.130423	0.176027	-0.733154	0.116943	-0.501465
1286.0	8.536748	1.408873	-0.682454	-2.67586	0.072876	0.171059	-0.729004	0.128174	-0.508789
1287.0	8.842156	1.405544	-1.001966	-2.735551	0.034964	0.161436	-0.729492	0.13916	-0.502197
1288.0	9.198876	1.260775	-1.141672	-2.775174	0.04675	0.14978	-0.732178	0.145752	-0.502441
1289.0	9.52041	1.383621	-1.278846	-2.791056	0.056307	0.135869	-0.72583	0.161133	-0.50293
1290.0	9.722298	1.23687	-1.418604	-2.827255	0.099477	0.126055	-0.72168	0.167725	-0.498535
1291.0	9.85247	1.234039	-1.387558	-2.840562	0.148374	0.123416	-0.726807	0.180908	-0.489746
1292.0	9.714059	1.180331	-1.516891	-2.867012	0.153637	0.116444	-0.724854	0.189941	-0.490234
1293.0	9.590946	1.118485	-1.546071	-2.892171	0.152616	0.114667	-0.720703	0.19873	-0.47876
1294.0	9.410601	1.004279	-1.399125	-2.905394	0.13954	0.110955	-0.716553	0.20752	-0.479248
1295.0	9.729877	1.051403	-1.559436	-2.917272	0.036982	0.105431	-0.717041	0.2229	-0.475098
1296.0	10.156705	0.926228	-1.700332	-2.9454	0.009029	0.093991	-0.717285	0.227295	-0.475342
1297.0	10.316263	0.96848	-1.308526	-2.914177	0.046027	0.08045	-0.70874	0.240479	-0.464111
1298.0	10.531818	0.868747	-1.09387	-2.896364	0.036354	0.05627	-0.71167	0.253662	-0.459961
1299.0	10.556123	0.675542	-1.01374	-2.853692	0.072892	0.027667	-0.71167	0.255859	-0.446045
1300.0	10.496611	0.381602	-0.927234	-2.824017	0.097869	-0.009179	-0.709473	0.260254	-0.444092
1301.0	10.567293	0.424475	-0.847354	-2.772706	0.122776	-0.051003	-0.703125	0.269287	-0.43042
1302.0	10.561337	0.508154	-0.811166	-2.730008	0.198623	-0.082518	-0.707764	0.269287	-0.444336
1303.0	10.728309	0.243185	-0.596522	-2.699612	0.269136	-0.101174	-0.708008	0.278076	-0.430664
1304.0	10.795447	-0.444852	0.018533	-2.653516	0.311182	-0.124275	-0.708252	0.284668	-0.430908
1305.0	11.198017	-1.466257	0.558952	-2.636917	0.315592	-0.164734	-0.704102	0.29126	-0.424316
1306.0	11.914634	-2.242537	0.559383	-2.506415	0.365026	-0.218679	-0.70166	0.289063	-0.424072
1307.0	12.239249	-2.53562	0.865588	-2.330245	0.362028	-0.318434	-0.699951	0.300049	-0.415283
1308.0	12.325382	-2.679841	1.074607	-2.264961	0.27385	-0.41239	-0.699951	0.304443	-0.417725
1309.0	12.192961	-2.730251	1.121744	-2.23729	0.242336	-0.466959	-0.695557	0.306641	-0.401611
1310.0	11.911648	-2.030898	0.362178	-2.205743	0.214521	-0.481833	-0.695557	0.306641	-0.401611
1311.0	11.109122	-0.721683	-0.461791	-2.13793	0.139453	-0.481152	-0.700195	0.306641	-0.396973
1312.0	9.901732	0.877839	-0.057278	-2.198657	0.09264	-0.433701	-0.700195	0.311035	-0.394775
1313.0	9.400978	1.525895	0.254648	-2.413621	0.148602	-0.354223	-0.693604	0.31543	-0.385742
1314.0	9.431832	1.455259	0.240991	-2.566979	0.299788	-0.291946	-0.698242	0.31543	-0.385742
1315.0	9.360833	1.381883	0.584084	-2.625615	0.421667	-0.274629	-0.693604	0.313232	-0.371582
1316.0	9.398163	1.019156	0.919477	-2.656044	0.395431	-0.287418	-0.687012	0.319824	-0.374268
1317.0	9.3874	-0.014491	1.234172	-2.689616	0.332697	-0.290506	-0.698486	0.324219	-0.36499
1318.0	9.294211	-0.832586	1.033631	-2.652431	0.314996	-0.262753	-0.689697	0.328613	-0.355957
1319.0	9.405061	-1.240712	0.760459	-2.638606	0.307365	-0.216167	-0.691895	0.328613	-0.360596
1320.0	9.681375	-1.323567	0.674698	-2.62179	0.283574	-0.175917	-0.692139	0.330811	-0.351318
1321.0	10.066323	-1.458762	0.484543	-2.654083	0.253946	-0.14515	-0.683594	0.343994	-0.347168
1322.0	10.544066	-1.786646	0.423584	-2.682908	0.236389	-0.111312	-0.68335	0.3396	-0.335449
1323.0	10.831213	-1.858728	0.591287	-2.700206	0.273835	-0.071543	-0.683838	0.348389	-0.328857
