Acquisition frequency: 100 Hz
PacketCounter	Acc_X	Acc_Y	Acc_Z	Gyr_X	Gyr_Y	Gyr_Z	Mag_X	Mag_Y	Mag_Z
0.0	6.863556	-0.743792	7.126819	-0.003875	0.008472	-0.011934	-0.644775	-0.078613	-0.339355
1.0	6.886649	-0.765639	7.077299	0.002435	0.009298	-0.007315	-0.646973	-0.078613	-0.332764
2.0	6.891441	-0.72596	7.062864	-0.001004	0.007673	-0.006158	-0.64502	-0.074463	-0.334961
3.0	6.88942	-0.752542	7.110711	0.003541	0.009949	-0.013144	-0.651367	-0.07666	-0.337158
4.0	6.878859	-0.743141	7.09084	-0.005261	0.008752	-0.008696	-0.647217	-0.072266	-0.341553
5.0	6.89973	-0.732733	7.085218	0.00127	0.008812	-0.00965	-0.640625	-0.076416	-0.334961
6.0	6.877764	-0.741998	7.092021	0.000133	0.008243	-0.007903	-0.646973	-0.07666	-0.328369
7.0	6.867289	-0.732698	7.072057	-0.001033	0.007755	-0.010239	-0.646973	-0.078613	-0.337158
8.0	6.90822	-0.73964	7.107361	-0.004755	0.007058	-0.011675	-0.646973	-0.07666	-0.334961
9.0	6.870182	-0.719752	7.105306	0.002437	0.009302	-0.007311	-0.647217	-0.074463	-0.334961
10.0	6.907132	-0.738471	7.108541	-0.001284	0.008604	-0.008748	-0.646973	-0.078613	-0.334961
11.0	6.875212	-0.739263	7.094781	-0.001002	0.007675	-0.006155	-0.644775	-0.080811	-0.339355
12.0	6.864738	-0.730085	7.074803	0.001554	0.007886	-0.007054	-0.647217	-0.074219	-0.341553
13.0	6.891725	-0.740093	7.057531	-0.000399	0.010022	-0.009003	-0.644775	-0.07666	-0.334961
14.0	6.884953	-0.718947	7.069905	0.00102	0.009663	-0.008155	-0.644775	-0.07666	-0.334961
15.0	6.894345	-0.727055	7.091043	0.000136	0.008246	-0.0079	-0.642578	-0.078613	-0.337158
16.0	6.883713	-0.717659	7.071243	0.004207	0.01214	-0.007819	-0.644775	-0.078613	-0.339355
17.0	6.889256	-0.737515	7.06021	0.000672	0.00647	-0.006797	-0.646973	-0.07666	-0.334961
18.0	6.871068	-0.734908	7.099247	0.003043	0.011653	-0.010154	-0.646973	-0.076416	-0.337158
19.0	6.888056	-0.736166	7.061522	-0.001	0.007677	-0.006153	-0.646973	-0.078613	-0.341553
20.0	6.885203	-0.703326	7.105959	0.001557	0.007889	-0.007051	-0.64917	-0.078613	-0.334961
21.0	6.890891	-0.723322	7.094781	-0.000746	0.00683	-0.007643	-0.651611	-0.074463	-0.334961
22.0	6.884275	-0.702358	7.106955	0.000419	0.007319	-0.005306	-0.644775	-0.07666	-0.332764
23.0	6.889931	-0.722413	7.095806	0.000139	0.008249	-0.007897	-0.651367	-0.078613	-0.339355
24.0	6.874227	-0.752462	7.090776	-0.004465	0.00613	-0.009081	-0.64917	-0.080811	-0.332764
25.0	6.910419	-0.711658	7.090618	-0.000115	0.009096	-0.006407	-0.644775	-0.078613	-0.332764
26.0	6.850826	-0.70195	7.094773	0.001049	0.009585	-0.00407	-0.646973	-0.078613	-0.337158
27.0	6.909222	-0.71103	7.091847	-0.003555	0.007466	-0.005254	-0.64917	-0.078613	-0.339355
28.0	6.866009	-0.730751	7.104569	-0.003929	0.004354	-0.007978	-0.644775	-0.078613	-0.337158
29.0	6.877105	-0.711912	7.07825	-0.003555	0.007467	-0.005253	-0.64502	-0.074219	-0.341553
30.0	6.865181	-0.730395	7.105405	-0.0033	0.00662	-0.006743	-0.646973	-0.076416	-0.341553
31.0	6.876273	-0.71143	7.079106	-0.001627	0.005415	-0.007385	-0.644775	-0.078613	-0.334961
32.0	6.892033	-0.740071	7.088371	0.003232	0.006687	-0.007689	-0.647217	-0.074463	-0.339355
33.0	6.879173	-0.698385	7.112284	0.002722	0.008381	-0.00471	-0.647217	-0.074219	-0.341553
34.0	6.906318	-0.708388	7.09494	-0.000487	0.005987	-0.009128	-0.642822	-0.076416	-0.339355
35.0	6.863054	-0.727969	7.107709	-0.003554	0.007467	-0.005253	-0.644775	-0.078613	-0.341553
36.0	6.88406	-0.717751	7.101974	-0.001625	0.005415	-0.007384	-0.647217	-0.074463	-0.334961
37.0	6.883863	-0.717378	7.102203	-0.003137	0.001731	-0.008365	-0.638428	-0.07666	-0.332764
38.0	6.873807	-0.708417	7.081803	-0.00481	0.002937	-0.007723	-0.644775	-0.080811	-0.337158
39.0	6.879842	-0.728767	7.070291	-0.006228	0.003296	-0.00857	-0.642578	-0.078613	-0.334961
40.0	6.914793	-0.715482	7.117064	-0.00481	0.002937	-0.007722	-0.644775	-0.080811	-0.337158
41.0	6.879485	-0.728487	7.070668	-0.006483	0.004143	-0.00708	-0.642822	-0.076416	-0.341553
42.0	6.894421	-0.697759	7.076498	-0.000207	0.005059	-0.006535	-0.651611	-0.074463	-0.339355
43.0	6.878809	-0.727983	7.071377	-0.003554	0.007469	-0.00525	-0.651611	-0.074463	-0.334961
44.0	6.878435	-0.727671	7.071773	-0.001368	0.004571	-0.008871	-0.651367	-0.078613	-0.334961
45.0	6.89331	-0.696779	7.077677	-0.00188	0.006264	-0.005892	-0.64917	-0.078857	-0.328369
46.0	6.88765	-0.735695	7.093085	-0.00188	0.006264	-0.005892	-0.64917	-0.078857	-0.330566
47.0	6.854968	-0.676958	7.075784	-0.001623	0.005418	-0.007381	-0.644775	-0.080811	-0.332764
48.0	6.919763	-0.706302	7.06109	0.000421	0.007325	-0.005298	-0.644775	-0.07666	-0.334961
49.0	6.881753	-0.686877	7.058832	-0.004437	0.00605	-0.004996	-0.640381	-0.078613	-0.334961
50.0	6.881316	-0.686928	7.059254	-0.00611	0.007255	-0.004353	-0.642578	-0.078613	-0.334961
51.0	6.885541	-0.7349	7.095215	-0.003275	0.006538	-0.002659	-0.646973	-0.07666	-0.334961
52.0	6.895044	-0.743378	7.116197	-0.000738	0.006839	-0.007633	-0.64917	-0.078613	-0.334961
53.0	6.89607	-0.715672	7.069519	-0.002669	0.00889	-0.005501	-0.647217	-0.074463	-0.330566
54.0	6.905417	-0.724171	7.090651	-0.002669	0.00889	-0.005501	-0.644775	-0.078613	-0.334961
55.0	6.867308	-0.7048	7.088466	-0.002135	0.007112	-0.0044	-0.642578	-0.078613	-0.337158
56.0	6.894469	-0.715179	7.07113	-0.003552	0.007471	-0.005248	-0.649414	-0.074463	-0.332764
57.0	6.882445	-0.733597	7.098353	-0.00011	0.009106	-0.006395	-0.644775	-0.078613	-0.339355
58.0	6.87934	-0.701045	7.142845	-0.006385	0.008188	-0.006942	-0.647217	-0.074463	-0.334961
59.0	6.855293	-0.695496	7.070005	-0.003275	0.006539	-0.002657	-0.642578	-0.07666	-0.332764
60.0	6.880965	-0.733148	7.099834	0.000681	0.006483	-0.006783	-0.651123	-0.083008	-0.339355
61.0	6.88577	-0.693737	7.085311	-0.004691	0.006898	-0.003505	-0.642334	-0.083008	-0.332764
62.0	6.891593	-0.71425	7.074027	-0.003017	0.005694	-0.004146	-0.644775	-0.078613	-0.334961
63.0	6.89121	-0.714199	7.074405	-0.004433	0.006052	-0.004994	-0.644775	-0.076416	-0.339355
64.0	6.869379	-0.724217	7.080924	-0.003274	0.00654	-0.002657	-0.646973	-0.078613	-0.334961
65.0	6.906523	-0.74333	7.084099	-0.004708	0.006986	-0.007582	-0.644775	-0.076416	-0.337158
66.0	6.862222	-0.703499	7.093519	-0.003549	0.007473	-0.005245	-0.64917	-0.076416	-0.337158
67.0	6.868071	-0.723728	7.082243	-0.000201	0.005065	-0.006529	-0.644531	-0.083008	-0.332764
68.0	6.910601	-0.703486	7.070337	-0.003899	0.004274	-0.003894	-0.644775	-0.078613	-0.334961
69.0	6.88894	-0.713469	7.076689	-0.005058	0.003787	-0.00623	-0.644775	-0.078613	-0.334961
70.0	6.870851	-0.71169	7.115363	-0.00469	0.006899	-0.003503	-0.646973	-0.080811	-0.334961
71.0	6.888218	-0.713549	7.077384	-0.005315	0.004633	-0.00474	-0.646973	-0.07666	-0.332764
72.0	6.909341	-0.703436	7.071574	-0.001341	0.004491	-0.004787	-0.644531	-0.083008	-0.339355
73.0	6.897535	-0.722096	7.09853	-0.004157	0.00512	-0.002403	-0.646973	-0.080811	-0.334961
74.0	6.881013	-0.69304	7.089999	-0.008147	0.005351	-0.006435	-0.64917	-0.078613	-0.339355
75.0	6.908298	-0.703602	7.072576	-0.003274	0.006541	-0.002654	-0.646973	-0.078613	-0.337158
76.0	6.865044	-0.723559	7.085195	-0.003289	0.00663	-0.006732	-0.646973	-0.080811	-0.334961
77.0	6.886008	-0.713343	7.079555	-0.002132	0.007117	-0.004395	-0.64917	-0.07666	-0.334961
78.0	6.916852	-0.71188	7.094493	-0.003548	0.007476	-0.005242	-0.647217	-0.074463	-0.332764
79.0	6.885128	-0.713061	7.080439	-0.002756	0.004851	-0.005633	-0.646973	-0.078613	-0.337158
80.0	6.894668	-0.721684	7.101356	-0.003273	0.006542	-0.002654	-0.646973	-0.078613	-0.337158
81.0	6.884256	-0.712877	7.081306	0.000168	0.00818	-0.003797	-0.64917	-0.078613	-0.334961
82.0	6.893669	-0.72146	7.102349	-0.003273	0.006542	-0.002653	-0.646973	-0.076416	-0.337158
83.0	6.883384	-0.712694	7.082172	-0.002755	0.004852	-0.005632	-0.646973	-0.078613	-0.334961
84.0	6.892825	-0.721359	7.103178	-0.004064	0.009167	-0.002262	-0.644775	-0.080811	-0.337158
85.0	6.903813	-0.70268	7.077046	-0.004429	0.006056	-0.00499	-0.649414	-0.074463	-0.334961
86.0	6.885634	-0.700895	7.115757	-0.004429	0.006056	-0.00499	-0.646973	-0.078613	-0.332764
87.0	6.90304	-0.702719	7.077796	-0.005571	0.00548	-0.003249	-0.646973	-0.078613	-0.337158
88.0	6.909005	-0.723292	7.066399	-0.003896	0.004277	-0.003891	-0.642578	-0.078613	-0.332764
89.0	6.880984	-0.713077	7.084465	-0.009544	0.005622	-0.003204	-0.640381	-0.078613	-0.337158
90.0	6.880598	-0.713409	7.084807	-0.002999	0.005608	-6.4e-05	-0.646729	-0.083008	-0.337158
91.0	6.89016	-0.72236	7.105662	-0.007869	0.004419	-0.003846	-0.642578	-0.078613	-0.337158
92.0	6.87995	-0.714113	7.085365	-0.00927	0.004688	-0.000616	-0.649414	-0.074463	-0.334961
93.0	6.885993	-0.735066	7.073851	-0.007336	0.00264	-0.002748	-0.647217	-0.074463	-0.330566
94.0	6.873149	-0.694479	7.097482	-0.008128	0.005264	-0.002355	-0.651123	-0.080811	-0.332764
95.0	6.882693	-0.7036	7.118335	-0.008127	0.005265	-0.002355	-0.642822	-0.076416	-0.339355
96.0	6.884138	-0.676594	7.071295	-0.009101	-0.000202	-0.002247	-0.647217	-0.074463	-0.332764
97.0	6.885161	-0.736811	7.07448	-0.008478	0.002064	-0.001007	-0.644775	-0.07666	-0.330566
98.0	6.906384	-0.727254	7.068555	-0.007595	0.003485	-0.001257	-0.640381	-0.078857	-0.330566
99.0	6.888396	-0.726034	7.106998	-0.012463	0.002298	-0.005039	-0.646973	-0.080811	-0.334961
100.0	6.859676	-0.760215	7.048562	-0.01219	0.001362	-0.002451	-0.649414	-0.072266	-0.339355
101.0	6.872053	-0.698101	7.098188	-0.01193	0.000518	-0.003941	-0.646973	-0.078613	-0.337158
102.0	6.909734	-0.717911	7.100819	-0.011125	-0.002199	-0.000257	-0.644775	-0.078613	-0.334961
103.0	6.88495	-0.740361	7.074314	-0.010606	-0.003887	-0.003237	-0.64502	-0.074219	-0.339355
104.0	6.887681	-0.669457	7.103181	-0.009982	-0.001621	-0.001996	-0.646973	-0.080811	-0.337158
105.0	6.916664	-0.740166	7.088293	-0.00945	-0.003402	-0.000899	-0.646973	-0.076416	-0.337158
106.0	6.913163	-0.752512	7.055858	-0.009359	0.000644	-0.000755	-0.646973	-0.078613	-0.337158
107.0	6.885487	-0.742594	7.073557	-0.008839	-0.001043	-0.003735	-0.646973	-0.076416	-0.339355
108.0	6.916783	-0.741332	7.088055	-0.003375	0.002595	-0.006866	-0.646973	-0.078613	-0.337158
109.0	6.921877	-0.701926	7.07333	-0.003102	0.001657	-0.00428	-0.642822	-0.074463	-0.337158
110.0	6.894022	-0.691431	7.091264	-0.003634	0.003439	-0.005375	-0.642822	-0.076416	-0.334961
111.0	6.927852	-0.722254	7.061927	-0.003362	0.002501	-0.002789	-0.646973	-0.080811	-0.330566
112.0	6.916192	-0.741092	7.088657	-0.003362	0.002501	-0.002789	-0.644775	-0.076416	-0.339355
113.0	6.911337	-0.693274	7.053409	-0.005919	0.002283	-0.001896	-0.644775	-0.080811	-0.337158
114.0	6.90594	-0.732775	7.068418	-0.005036	0.003705	-0.002145	-0.642578	-0.07666	-0.332764
115.0	6.884193	-0.74309	7.074765	-0.005828	0.006329	-0.00175	-0.644775	-0.078613	-0.337158
116.0	6.926554	-0.722764	7.063148	0.0044	0.007202	-0.005321	-0.64917	-0.076416	-0.337158
117.0	6.904686	-0.732395	7.069682	-0.000714	0.006766	-0.003535	-0.64917	-0.076416	-0.339355
118.0	6.914132	-0.740933	7.090683	-0.000714	0.006766	-0.003535	-0.646973	-0.07666	-0.332764
119.0	6.91352	-0.74064	7.09131	0.00052	0.011391	-0.005128	-0.644775	-0.076416	-0.337158
120.0	6.902933	-0.731759	7.07146	-0.002648	0.008813	-0.001401	-0.644775	-0.078613	-0.339355
121.0	6.89594	-0.711254	7.083862	-0.000622	0.010813	-0.003388	-0.649414	-0.074463	-0.334961
122.0	6.923053	-0.721609	7.066697	-0.006098	0.007268	-0.004336	-0.646973	-0.080811	-0.334961
123.0	6.891175	-0.723	7.052744	-0.004333	0.010112	-0.004833	-0.651611	-0.072266	-0.339355
124.0	6.894021	-0.711312	7.085724	-0.000611	0.010718	0.000689	-0.653564	-0.074463	-0.337158
125.0	6.92099	-0.721662	7.068713	-0.002035	0.011174	-0.004233	-0.644775	-0.07666	-0.332764
126.0	6.882686	-0.702522	7.066596	-0.002647	0.008814	-0.0014	-0.651367	-0.074463	-0.332764
127.0	6.876858	-0.741773	7.082033	-0.001503	0.009393	-0.003138	-0.642578	-0.078613	-0.339355
128.0	6.903945	-0.752059	7.064925	-0.002917	0.009753	-0.003984	-0.64917	-0.078613	-0.337158
129.0	6.887065	-0.722947	7.056763	-0.002908	0.009658	9.2e-05	-0.642578	-0.078613	-0.332764
130.0	6.886493	-0.722835	7.057332	0.001847	0.006987	-0.004423	-0.64502	-0.072266	-0.337158
131.0	6.88939	-0.710887	7.090269	-0.002295	0.012019	-0.002741	-0.642822	-0.074463	-0.337158
132.0	6.888761	-0.710878	7.090881	-0.001854	0.00619	-0.001794	-0.646729	-0.083008	-0.334961
133.0	6.90614	-0.712524	7.053074	-0.003798	0.008332	-0.003736	-0.642578	-0.078613	-0.341553
134.0	6.884208	-0.722675	7.059577	-0.006095	0.00727	-0.004335	-0.653564	-0.07666	-0.334961
135.0	6.883745	-0.722765	7.060019	-0.003267	0.00655	-0.002641	-0.640625	-0.07666	-0.330566
136.0	6.924527	-0.730202	7.095478	-0.005302	0.004645	-0.004731	-0.651367	-0.078613	-0.339355
137.0	6.904295	-0.71274	7.054858	-0.00035	0.009878	-0.000797	-0.649414	-0.072266	-0.330566
138.0	6.866135	-0.69385	7.052543	-0.005555	0.005392	0.000835	-0.644775	-0.07666	-0.334961
139.0	6.909643	-0.733605	7.044053	-0.006362	0.008211	-0.006919	-0.646973	-0.080811	-0.332764
140.0	6.881381	-0.723034	7.062296	0.000436	0.00735	-0.005267	-0.646973	-0.080811	-0.337158
141.0	6.88094	-0.722701	7.06276	-0.00186	0.006288	-0.005868	-0.644531	-0.083008	-0.334961
142.0	6.890356	-0.731247	7.083768	-0.003535	0.007491	-0.005224	-0.651367	-0.078857	-0.332764
143.0	6.911348	-0.721168	7.078191	-0.004149	0.005129	-0.002393	-0.64502	-0.072266	-0.337158
144.0	6.891192	-0.70372	7.037505	-0.00097	0.007614	-0.002038	-0.646973	-0.080811	-0.334961
145.0	6.900669	-0.712406	7.058439	-0.006451	0.004164	-0.007068	-0.64502	-0.074463	-0.332764
146.0	6.895158	-0.751886	7.073519	-0.005556	0.005392	0.000836	-0.644775	-0.078613	-0.337158
147.0	6.878583	-0.722998	7.065025	-0.008125	0.005368	-0.006425	-0.646729	-0.083008	-0.337158
148.0	6.888092	-0.73189	7.085903	-0.005561	0.00549	-0.003239	-0.644775	-0.076416	-0.337158
149.0	6.89298	-0.692685	7.071407	-0.00645	0.004165	-0.007067	-0.646973	-0.080811	-0.334961
150.0	6.877657	-0.72337	7.065889	-0.009269	0.004788	-0.004687	-0.64502	-0.070068	-0.334961
151.0	6.865952	-0.742523	7.092528	-0.007947	0.00038	-0.00399	-0.644775	-0.078613	-0.334961
152.0	6.892503	-0.693392	7.071803	-0.007064	0.001803	-0.004236	-0.646973	-0.078613	-0.332764
153.0	6.877345	-0.724417	7.066085	-0.011029	0.001845	-0.000119	-0.64502	-0.072266	-0.334961
154.0	6.902197	-0.702877	7.09244	-0.003981	0.000339	-0.008107	-0.646973	-0.07666	-0.330566
155.0	6.903282	-0.7628	7.095529	-0.010146	0.003267	-0.000365	-0.644775	-0.080811	-0.332764
156.0	6.908278	-0.724007	7.080897	-0.005913	0.002285	-0.001898	-0.649414	-0.074463	-0.330566
157.0	6.894862	-0.727219	7.028084	-0.007945	0.000381	-0.00399	-0.646973	-0.078613	-0.339355
158.0	6.904636	-0.736276	7.048683	-0.007325	0.002646	-0.002744	-0.644775	-0.080811	-0.339355
159.0	6.919498	-0.706089	7.054615	-0.008738	0.003007	-0.003591	-0.651367	-0.078857	-0.332764
160.0	6.929106	-0.715314	7.075359	-0.00785	0.00433	0.000238	-0.651123	-0.083008	-0.334961
161.0	6.925348	-0.72725	7.043293	-0.006447	0.00417	-0.007064	-0.646973	-0.076416	-0.337158
162.0	6.897241	-0.717429	7.06128	-0.013495	0.005674	0.000925	-0.64917	-0.078613	-0.334961
163.0	6.928161	-0.716852	7.076129	-0.010412	0.004211	-0.002946	-0.644775	-0.07666	-0.334961
164.0	6.924418	-0.729021	7.044025	-0.008999	0.00385	-0.002099	-0.644775	-0.080811	-0.332764
165.0	6.906098	-0.728073	7.082606	-0.010054	0.007318	-0.000208	-0.646973	-0.07666	-0.332764
166.0	6.923608	-0.730143	7.044705	-0.006704	0.004912	-0.001497	-0.644775	-0.078613	-0.339355
167.0	6.923244	-0.730573	7.045018	-0.01094	0.005997	-0.004037	-0.64917	-0.078857	-0.332764
168.0	6.9111	-0.749893	7.072035	-0.004582	0.010865	0.000751	-0.64917	-0.078613	-0.334961
169.0	6.931916	-0.740231	7.066626	-0.012351	0.006359	-0.004883	-0.646973	-0.07666	-0.334961
170.0	6.883859	-0.712447	7.043801	-0.002032	0.01129	-0.008285	-0.64917	-0.07666	-0.334961
171.0	6.924374	-0.719922	7.079523	-0.008378	0.006116	-0.000851	-0.646973	-0.076416	-0.339355
172.0	6.902394	-0.730317	7.085986	-0.001762	0.010245	-0.001627	-0.651611	-0.074463	-0.334961
173.0	6.91329	-0.711494	7.060156	-0.004055	0.009184	-0.002229	-0.64502	-0.074463	-0.330566
174.0	6.907466	-0.750955	7.075472	-0.005467	0.009545	-0.003076	-0.642822	-0.076416	-0.337158
175.0	6.897022	-0.742272	7.055505	-0.003792	0.008343	-0.00372	-0.647217	-0.074463	-0.334961
176.0	6.917801	-0.73228	7.050185	-0.004318	0.010025	-0.000737	-0.651367	-0.07666	-0.334961
177.0	6.895674	-0.742559	7.056792	-0.003172	0.010608	-0.002472	-0.647217	-0.072266	-0.337158
178.0	6.916386	-0.732566	7.051544	-0.006877	0.009908	-0.003922	-0.64917	-0.07666	-0.334961
179.0	6.89773	-0.731158	7.090439	-0.004319	0.010129	-0.004809	-0.647217	-0.074463	-0.334961
180.0	6.915046	-0.732731	7.052841	-0.005465	0.009547	-0.003074	-0.646973	-0.078613	-0.332764
181.0	6.886566	-0.722529	7.071172	-0.004318	0.01013	-0.004809	-0.642578	-0.078613	-0.332764
182.0	6.923487	-0.741495	7.074753	-0.002024	0.011192	-0.004205	-0.649414	-0.074219	-0.341553
183.0	6.906536	-0.712225	7.06669	-0.004318	0.010131	-0.004808	-0.646729	-0.083008	-0.334961
184.0	6.912255	-0.732359	7.055616	0.000798	0.010573	-0.006583	-0.64502	-0.074463	-0.334961
185.0	6.893525	-0.730398	7.094605	0.001945	0.011053	-0.004244	-0.644775	-0.078613	-0.339355
186.0	6.895846	-0.762397	7.05117	-0.00661	0.008965	-0.001338	-0.646973	-0.076416	-0.339355
187.0	6.903745	-0.711309	7.069508	0.000535	0.01152	-0.009163	-0.651367	-0.07666	-0.334961
188.0	6.897734	-0.750218	7.085038	6e-06	0.013098	-0.002107	-0.64917	-0.07666	-0.334961
189.0	6.908539	-0.731216	7.059372	-0.004316	0.010132	-0.004807	-0.646973	-0.080811	-0.334961
190.0	6.917683	-0.740067	7.080577	-0.005463	0.009549	-0.003072	-0.642578	-0.078613	-0.334961
191.0	6.895605	-0.750403	7.08709	-0.006873	0.009912	-0.003919	-0.644775	-0.07666	-0.334961
192.0	6.888576	-0.730101	7.099441	-0.006343	0.00823	-0.006902	-0.644775	-0.076416	-0.339355
193.0	6.905999	-0.731547	7.061823	-0.000348	0.009889	-0.000771	-0.64502	-0.072266	-0.341553
194.0	6.8873	-0.730248	7.100665	-0.006609	0.008967	-0.001337	-0.646973	-0.076416	-0.337158
195.0	6.914486	-0.740554	7.083648	-0.001755	0.010356	-0.005691	-0.644775	-0.078613	-0.337158
196.0	6.925409	-0.721357	7.057915	-0.001755	0.010357	-0.00569	-0.646973	-0.078613	-0.332764
197.0	6.903205	-0.731156	7.064594	1.1e-05	0.013206	-0.006174	-0.646973	-0.080811	-0.337158
198.0	6.874467	-0.720604	7.083131	-0.002547	0.012985	-0.005287	-0.651611	-0.072266	-0.334961
199.0	6.901394	-0.730625	7.066419	-0.001664	0.01441	-0.005529	-0.648926	-0.083008	-0.337158
200.0	6.89411	-0.709844	7.079052	0.000805	0.01058	-0.006574	-0.646973	-0.07666	-0.334961
201.0	6.888085	-0.748662	7.094583	0.000895	0.014633	-0.006413	-0.647217	-0.074463	-0.332764
202.0	6.898872	-0.729342	7.069013	-0.001752	0.010359	-0.005688	-0.64917	-0.078613	-0.334961
203.0	6.891678	-0.708762	7.081528	0.000536	0.011317	-0.001009	-0.644775	-0.07666	-0.334961
204.0	6.897363	-0.729007	7.07052	-0.000608	0.010838	-0.003348	-0.644775	-0.078613	-0.332764
205.0	6.884972	-0.747653	7.097711	0.000541	0.011423	-0.00508	-0.642334	-0.083008	-0.334961
206.0	6.886061	-0.719673	7.051487	-0.002017	0.011201	-0.004195	-0.64917	-0.078857	-0.332764
207.0	6.923002	-0.738455	7.055172	-0.000341	0.009999	-0.004838	-0.642822	-0.072266	-0.332764
208.0	6.894377	-0.727914	7.073545	0.001686	0.011903	-0.002739	-0.644775	-0.080811	-0.332764
209.0	6.900036	-0.747977	7.062597	-0.000866	0.011786	-0.005927	-0.646973	-0.078613	-0.339355
210.0	6.914213	-0.716795	7.069347	0.003109	0.011754	-0.010034	-0.647217	-0.074463	-0.330566
211.0	6.89529	-0.714631	7.108387	0.002836	0.012489	-0.00447	-0.64917	-0.07666	-0.332764
212.0	6.891125	-0.7259	7.07692	-0.002541	0.01299	-0.005283	-0.646973	-0.078613	-0.339355
213.0	6.890348	-0.725654	7.077701	-0.000339	0.010001	-0.004836	-0.642578	-0.07666	-0.332764
214.0	6.88976	-0.725323	7.078308	-0.000954	0.007735	-0.006087	-0.649414	-0.074463	-0.332764
215.0	6.910664	-0.714944	7.073004	-0.000962	0.007629	-0.002015	-0.644775	-0.07666	-0.334961
216.0	6.867412	-0.735148	7.085071	-0.00272	0.004883	-0.005607	-0.64502	-0.076416	-0.341553
217.0	6.894785	-0.745056	7.068032	0.001954	0.011066	-0.004226	-0.644775	-0.078613	-0.337158
218.0	6.877918	-0.715626	7.059841	-0.003513	0.007512	-0.005204	-0.642578	-0.080811	-0.332764
219.0	6.908621	-0.714076	7.075087	-0.000695	0.006789	-0.003506	-0.647217	-0.074463	-0.339355
220.0	6.886619	-0.724038	7.081495	-0.003155	0.010726	-0.006532	-0.646973	-0.080811	-0.332764
221.0	6.892507	-0.744256	7.070337	-0.003512	0.007512	-0.005203	-0.647217	-0.074463	-0.334961
222.0	6.906975	-0.713524	7.07675	-0.003244	0.006672	-0.006694	-0.64917	-0.07666	-0.332764
223.0	6.894807	-0.732384	7.103651	-0.005188	0.008715	-0.00456	-0.642578	-0.080811	-0.337158
224.0	6.881307	-0.735232	7.051184	-0.004394	0.006087	-0.004963	-0.653564	-0.074463	-0.334961
225.0	6.912009	-0.733795	7.066428	-0.00237	0.007992	-0.002862	-0.642822	-0.072266	-0.332764
226.0	6.870572	-0.726357	7.031564	-0.003511	0.007514	-0.005202	-0.644775	-0.07666	-0.332764
227.0	6.894815	-0.704336	7.058551	-0.002974	0.005833	-0.008184	-0.640625	-0.07666	-0.332764
228.0	6.87944	-0.734608	7.053071	-0.001219	0.008579	-0.004591	-0.64917	-0.080811	-0.339355
229.0	6.903601	-0.712586	7.080136	-0.003242	0.006674	-0.006693	-0.649414	-0.074463	-0.337158
230.0	6.899913	-0.723999	7.048238	-0.002102	0.007153	-0.004352	-0.640381	-0.080811	-0.334961
231.0	6.881234	-0.72235	7.0869	-0.002358	0.008101	-0.006931	-0.646973	-0.078613	-0.337158
232.0	6.882602	-0.694365	7.040487	-0.002627	0.008941	-0.005439	-0.646973	-0.080811	-0.334961
233.0	6.8802	-0.721951	7.087945	-0.001576	0.005365	-0.003263	-0.642578	-0.083008	-0.339355
234.0	6.891493	-0.702673	7.061961	-0.003228	0.006783	-0.010762	-0.647217	-0.074463	-0.334961
235.0	6.922326	-0.7011	7.0771	-0.005018	0.003713	-0.002143	-0.644531	-0.084961	-0.341309
236.0	6.864168	-0.752087	7.083114	-0.004034	0.009304	-0.006287	-0.647217	-0.074463	-0.337158
237.0	6.899969	-0.711112	7.083824	-0.001832	0.006314	-0.005842	-0.642822	-0.074463	-0.337158
238.0	6.863238	-0.751649	7.084062	-0.004648	0.007038	-0.007539	-0.647217	-0.074463	-0.332764
239.0	6.887392	-0.729582	7.111129	-0.000949	0.007742	-0.006079	-0.644775	-0.080811	-0.337158
240.0	6.898747	-0.710314	7.085093	-0.003328	0.002621	-0.006856	-0.647217	-0.070068	-0.334961
241.0	6.908209	-0.718711	7.105997	0.000729	0.006541	-0.006721	-0.64502	-0.074463	-0.328369
242.0	6.904599	-0.729915	7.074069	-0.005785	0.00656	-0.009879	-0.647217	-0.072266	-0.332764
243.0	6.89766	-0.709271	7.086257	0.002123	0.00607	-0.001801	-0.64917	-0.076416	-0.337158
244.0	6.89403	-0.720635	7.054337	-0.004646	0.007039	-0.007538	-0.64917	-0.07666	-0.334961
245.0	6.893557	-0.720363	7.054826	-0.000948	0.007743	-0.006078	-0.644775	-0.078613	-0.334961
246.0	6.871663	-0.73006	7.061119	0.000474	0.007491	-0.009298	-0.651367	-0.07666	-0.334961
247.0	6.871181	-0.729548	7.061641	-0.000947	0.007743	-0.006077	-0.644775	-0.080811	-0.334961
248.0	6.895301	-0.707348	7.088744	-0.002085	0.007266	-0.008417	-0.642822	-0.074463	-0.332764
249.0	6.879837	-0.737619	7.08336	-0.000604	0.010851	-0.003331	-0.640625	-0.076416	-0.334961
250.0	6.900577	-0.726975	7.078295	-0.001456	0.009643	-0.011232	-0.64917	-0.078613	-0.337158
251.0	6.883672	-0.69745	7.070101	-0.001487	0.009424	-0.003093	-0.642578	-0.078613	-0.339355
252.0	6.877954	-0.736473	7.085308	0.000207	0.008333	-0.007804	-0.646973	-0.07666	-0.332764
253.0	6.889027	-0.717075	7.059585	-0.001741	0.010374	-0.005671	-0.646973	-0.076416	-0.337158
254.0	6.904615	-0.745818	7.069149	0.00082	0.010601	-0.006549	-0.646973	-0.078613	-0.337158
255.0	6.887584	-0.716259	7.061075	-0.000857	0.011802	-0.005907	-0.64502	-0.072266	-0.332764
256.0	6.899796	-0.712981	7.114743	0.000209	0.008334	-0.007803	-0.646973	-0.080811	-0.334961
257.0	6.886285	-0.71544	7.062426	-0.000603	0.010853	-0.003329	-0.64917	-0.078613	-0.337158
258.0	6.873962	-0.734044	7.089433	0.001617	0.007974	-0.006952	-0.644775	-0.07666	-0.334961
259.0	6.885148	-0.714578	7.063621	-0.000944	0.007747	-0.006074	-0.644775	-0.076416	-0.337158
260.0	6.884649	-0.714347	7.064131	-0.003504	0.007519	-0.005195	-0.64917	-0.07666	-0.334961
261.0	6.884115	-0.714178	7.064668	-0.001214	0.008586	-0.004582	-0.642822	-0.072266	-0.334961
262.0	6.886774	-0.702432	7.097516	-0.002979	0.00573	-0.004109	-0.64917	-0.07666	-0.330566
263.0	6.883121	-0.713957	7.065659	-0.002892	0.009788	-0.00394	-0.642578	-0.078857	-0.330566
264.0	6.87585	-0.693572	7.07809	-0.001756	0.010266	-0.001599	-0.642334	-0.083008	-0.334961
265.0	6.888343	-0.734242	7.055235	-0.005433	0.009672	-0.00713	-0.646973	-0.078613	-0.339355
266.0	6.890922	-0.722501	7.088153	-0.000689	0.006798	-0.003494	-0.64917	-0.076416	-0.337158
267.0	6.902146	-0.703226	7.062305	-0.000941	0.007749	-0.006071	-0.642578	-0.083008	-0.339355
268.0	6.852184	-0.703076	7.086077	-0.002619	0.00895	-0.00543	-0.642578	-0.07666	-0.332764
269.0	6.879636	-0.712924	7.069156	-0.000941	0.007749	-0.006071	-0.64917	-0.080811	-0.332764
270.0	6.9102	-0.711178	7.084614	-0.002619	0.00895	-0.005429	-0.651367	-0.07666	-0.337158
271.0	6.881677	-0.700734	7.102627	-0.000668	0.006911	-0.007561	-0.644775	-0.078613	-0.334961
272.0	6.878093	-0.711932	7.070758	-0.002347	0.008111	-0.00692	-0.64917	-0.078857	-0.332764
273.0	6.908568	-0.710203	7.086303	-0.000601	0.010857	-0.003323	-0.64502	-0.074463	-0.332764
274.0	6.904873	-0.721602	7.054533	-0.000688	0.0068	-0.003492	-0.644775	-0.078613	-0.337158
275.0	6.87935	-0.699598	7.104992	-0.001986	0.011331	-0.00824	-0.646973	-0.078613	-0.341553
276.0	6.88533	-0.719562	7.093884	-0.000939	0.007751	-0.006069	-0.644775	-0.078613	-0.334961
277.0	6.868426	-0.690138	7.08563	-0.001735	0.010381	-0.005663	-0.646729	-0.085205	-0.332764
278.0	6.902414	-0.720361	7.057065	-0.002617	0.008952	-0.005427	-0.651367	-0.07666	-0.334961
279.0	6.883437	-0.718798	7.095798	-0.001734	0.010382	-0.005662	-0.644775	-0.080811	-0.334961
280.0	6.910698	-0.728748	7.079102	-0.002279	0.01206	-0.002679	-0.640625	-0.074463	-0.337158
281.0	6.872178	-0.709948	7.076706	-0.005973	0.011353	-0.004145	-0.644775	-0.078613	-0.339355
282.0	6.892811	-0.699588	7.071778	-0.004794	0.012057	-0.009937	-0.64917	-0.080811	-0.332764
283.0	6.889956	-0.72719	7.11953	-0.002278	0.012061	-0.002678	-0.644775	-0.080811	-0.332764
284.0	6.869951	-0.709556	7.078907	-0.00463	0.007047	-0.007532	-0.651123	-0.080811	-0.334961
285.0	6.918831	-0.70915	7.056356	-0.001732	0.010384	-0.005659	-0.644775	-0.078613	-0.34375
286.0	6.878414	-0.717865	7.100762	-0.002614	0.008955	-0.005424	-0.644775	-0.07666	-0.334961
287.0	6.905816	-0.727839	7.083958	-0.004293	0.010155	-0.004783	-0.642578	-0.07666	-0.330566
288.0	6.87723	-0.717732	7.101922	-0.004379	0.006096	-0.004955	-0.647217	-0.074463	-0.337158
289.0	6.919678	-0.697249	7.090921	-0.00413	0.005144	-0.002379	-0.644775	-0.07666	-0.334961
290.0	6.901448	-0.739443	7.052868	-0.003496	0.007526	-0.005189	-0.646973	-0.076416	-0.337158
291.0	6.88765	-0.69857	7.076905	-0.003744	0.008479	-0.007764	-0.644775	-0.078613	-0.332764
292.0	6.8968	-0.707146	7.098062	-0.003495	0.007527	-0.005188	-0.646973	-0.076416	-0.339355
293.0	6.871882	-0.728981	7.071814	-0.004652	0.006935	-0.003463	-0.644775	-0.07666	-0.332764
294.0	6.892872	-0.718718	7.066553	-0.002973	0.005736	-0.004103	-0.644775	-0.078613	-0.337158
295.0	6.864369	-0.708583	7.084418	-0.0049	0.007889	-0.006038	-0.642578	-0.078613	-0.332764
296.0	6.885357	-0.698198	7.079173	-0.004103	0.005259	-0.006445	-0.644775	-0.078613	-0.334961
297.0	6.870038	-0.728562	7.073648	-0.000847	0.011818	-0.005887	-0.64917	-0.078857	-0.332764
298.0	6.900539	-0.726701	7.089215	-0.002945	0.005851	-0.008169	-0.651367	-0.078857	-0.330566
299.0	6.850733	-0.726653	7.112641	-0.002697	0.004898	-0.005594	-0.647217	-0.072266	-0.337158
300.0	6.883529	-0.697092	7.081059	-0.001815	0.006329	-0.005827	-0.642578	-0.080811	-0.334961
301.0	6.892784	-0.705586	7.102117	-0.001814	0.006329	-0.005827	-0.644775	-0.07666	-0.334961
302.0	6.889416	-0.716939	7.070103	-0.004102	0.00526	-0.006444	-0.64917	-0.081055	-0.328369
303.0	6.889041	-0.716746	7.070488	-0.003219	0.006691	-0.006677	-0.649414	-0.074463	-0.337158
304.0	6.882013	-0.696322	7.082607	-0.005258	0.004668	-0.004719	-0.64917	-0.07666	-0.334961
305.0	6.891471	-0.704975	7.103452	-0.005838	0.002516	-0.010043	-0.640381	-0.078613	-0.334961
306.0	6.891268	-0.70486	7.10366	-0.005258	0.004668	-0.004719	-0.646973	-0.078613	-0.339355
307.0	6.90053	-0.713598	7.124686	-0.003493	0.00753	-0.005184	-0.646973	-0.080811	-0.337158
308.0	6.918491	-0.714813	7.087093	-0.00578	0.006461	-0.005802	-0.646973	-0.076416	-0.337158
309.0	6.877383	-0.707397	7.051858	-0.002943	0.005855	-0.008166	-0.646973	-0.080811	-0.339355
310.0	6.907971	-0.705597	7.067344	-0.00261	0.008961	-0.005416	-0.648926	-0.083008	-0.337158
311.0	6.876434	-0.706855	7.052838	-0.002942	0.005855	-0.008165	-0.642578	-0.080811	-0.339355
312.0	6.888622	-0.703857	7.106326	-0.000959	0.007646	-0.00199	-0.651367	-0.080811	-0.339355
313.0	6.893205	-0.664455	7.092283	-0.007183	0.006823	-0.006652	-0.646973	-0.080811	-0.334961
314.0	6.8876	-0.703943	7.107308	-0.004043	0.009207	-0.0022	-0.64917	-0.07666	-0.332764
315.0	6.897438	-0.756029	7.051948	-0.00093	0.007763	-0.006055	-0.640381	-0.083008	-0.337158
316.0	6.876906	-0.694774	7.087718	-0.003216	0.006694	-0.006673	-0.646973	-0.076416	-0.339355
317.0	6.904534	-0.704497	7.070811	-0.000929	0.007764	-0.006054	-0.646973	-0.07666	-0.330566
318.0	6.882604	-0.714494	7.076981	-0.003737	0.008487	-0.007755	-0.642578	-0.080811	-0.334961
319.0	6.885095	-0.702774	7.109851	-0.002969	0.00574	-0.004099	-0.651367	-0.078857	-0.332764
320.0	6.893414	-0.695112	7.051669	-0.002608	0.008964	-0.005413	-0.64502	-0.074219	-0.339355
321.0	6.90549	-0.692265	7.105226	-0.00718	0.006824	-0.006651	-0.64917	-0.078613	-0.339355
322.0	6.890415	-0.722823	7.099451	-0.002692	0.004903	-0.005589	-0.640625	-0.074463	-0.332764
323.0	6.873669	-0.693707	7.090962	-0.006052	0.007301	-0.004308	-0.651367	-0.078613	-0.334961
324.0	6.88962	-0.722762	7.100229	-0.002692	0.004903	-0.005589	-0.646973	-0.076416	-0.337158
325.0	6.907685	-0.723835	7.062614	-0.00349	0.007534	-0.005179	-0.642578	-0.080811	-0.339355
326.0	6.893806	-0.683037	7.086612	-0.003213	0.006697	-0.00667	-0.64917	-0.078613	-0.334961
327.0	6.878662	-0.713478	7.080916	-0.002086	0.007173	-0.004328	-0.642822	-0.076416	-0.334961
328.0	6.899652	-0.703025	7.075721	-0.005498	0.005627	-0.00729	-0.644775	-0.078613	-0.334961
329.0	6.89918	-0.702874	7.076196	-0.002607	0.008966	-0.005409	-0.640625	-0.074463	-0.332764
330.0	6.874336	-0.724666	7.049905	-0.003244	0.006579	-0.002605	-0.646973	-0.078613	-0.337158
331.0	6.898181	-0.702653	7.077192	-0.000926	0.007768	-0.006049	-0.644775	-0.07666	-0.332764
332.0	6.897579	-0.702344	7.07781	-0.001724	0.010399	-0.005639	-0.644775	-0.078613	-0.337158
333.0	6.896942	-0.702096	7.078455	-0.001203	0.008606	-0.004557	-0.646973	-0.076416	-0.337158
334.0	6.875089	-0.712234	7.08451	-0.004093	0.005267	-0.006438	-0.644775	-0.076416	-0.339355
335.0	6.907763	-0.682691	7.053168	-0.002883	0.009805	-0.003917	-0.644775	-0.080811	-0.337158
336.0	6.87407	-0.711937	7.085529	-0.004336	0.006224	-0.00901	-0.644531	-0.083008	-0.337158
337.0	6.895003	-0.701312	7.080421	0.000201	0.008245	-0.003705	-0.640625	-0.07666	-0.330566
338.0	6.901289	-0.721545	7.069098	-0.008057	0.005395	-0.006418	-0.640381	-0.078613	-0.337158
339.0	6.884541	-0.692677	7.060571	-0.005806	0.006346	-0.001733	-0.644775	-0.076416	-0.337158
340.0	6.862754	-0.703224	7.066512	-0.008057	0.005396	-0.006417	-0.644775	-0.078613	-0.341553
341.0	6.878752	-0.73235	7.075743	-0.004369	0.006105	-0.004945	-0.646973	-0.078613	-0.334961
342.0	6.893007	-0.701698	7.082327	-0.005771	0.006467	-0.005796	-0.646973	-0.078613	-0.334961
343.0	6.905046	-0.698922	7.135853	-0.004889	0.0079	-0.006026	-0.646729	-0.083008	-0.330566
344.0	6.892062	-0.701658	7.08325	-0.007173	0.006829	-0.006646	-0.647217	-0.072266	-0.337158
345.0	6.898311	-0.721846	7.071974	0.000201	0.008248	-0.003702	-0.640625	-0.076416	-0.339355
346.0	6.881495	-0.692701	7.063537	-0.008055	0.005397	-0.006416	-0.644775	-0.080811	-0.334961
347.0	6.907	-0.730684	7.093527	-0.004042	0.009212	-0.002191	-0.646729	-0.083008	-0.334961
348.0	6.883435	-0.681366	7.096847	-0.006373	0.0042	-0.007056	-0.646973	-0.080811	-0.339355
349.0	6.886999	-0.713142	7.052967	-0.004367	0.006107	-0.004943	-0.646973	-0.080811	-0.330566
350.0	6.889531	-0.701736	7.085704	-0.006409	0.004078	-0.002993	-0.649414	-0.074463	-0.330566
351.0	6.889198	-0.701844	7.086017	-0.004366	0.006107	-0.004943	-0.646729	-0.083008	-0.337158
352.0	6.916921	-0.711811	7.069098	-0.004645	0.006944	-0.003451	-0.646729	-0.083008	-0.337158
353.0	6.909811	-0.691668	7.081204	-0.008934	0.003966	-0.006186	-0.64917	-0.076416	-0.337158
354.0	6.894886	-0.72248	7.075248	-0.008052	0.005399	-0.006415	-0.646729	-0.083008	-0.337158
355.0	6.866309	-0.712561	7.092987	-0.003484	0.007541	-0.00517	-0.642578	-0.078613	-0.337158
356.0	6.887218	-0.702072	7.087919	-0.002082	0.00718	-0.004319	-0.64917	-0.078613	-0.334961
357.0	6.908118	-0.691601	7.082862	-0.004886	0.007904	-0.006021	-0.646973	-0.07666	-0.332764
358.0	6.910562	-0.680069	7.115685	-0.003845	0.004314	-0.003861	-0.646729	-0.083008	-0.332764
359.0	6.885948	-0.701981	7.089162	-0.004644	0.006945	-0.003449	-0.642822	-0.076416	-0.334961
360.0	6.901801	-0.731124	7.098539	-0.005164	0.00874	-0.004529	-0.64917	-0.080811	-0.339355
361.0	6.882192	-0.71364	7.057607	-0.006128	0.003243	-0.004483	-0.646973	-0.076416	-0.337158
362.0	6.884678	-0.702153	7.090378	-0.003483	0.007543	-0.005168	-0.647217	-0.074463	-0.337158
363.0	6.88142	-0.713414	7.058383	-0.002924	0.005872	-0.008151	-0.642822	-0.076416	-0.337158
364.0	6.921613	-0.720366	7.094581	-0.002081	0.007181	-0.004317	-0.644775	-0.07666	-0.334961
365.0	6.868727	-0.732192	7.085492	-0.003482	0.007544	-0.005168	-0.64917	-0.076416	-0.341553
366.0	6.904264	-0.691139	7.086663	-0.003241	0.006584	-0.002597	-0.647217	-0.074463	-0.334961
367.0	6.882369	-0.701524	7.092682	-0.00236	0.008018	-0.002825	-0.646973	-0.078613	-0.332764
368.0	6.909849	-0.711423	7.076051	-0.003679	0.012444	-0.003491	-0.647217	-0.074463	-0.334961
369.0	6.887836	-0.722034	7.082158	-0.009488	0.00564	-0.003202	-0.64917	-0.078857	-0.332764
370.0	6.899173	-0.702957	7.056415	-0.003721	0.008505	-0.007737	-0.651367	-0.078613	-0.334961
371.0	6.911079	-0.700153	7.110007	-0.003241	0.006585	-0.002596	-0.644775	-0.080811	-0.332764
372.0	6.910534	-0.700247	7.110527	-0.00404	0.009216	-0.002183	-0.647217	-0.074463	-0.337158
373.0	6.876138	-0.713392	7.06353	-0.00376	0.008381	-0.003674	-0.644775	-0.078613	-0.332764
374.0	6.897064	-0.702981	7.058474	-0.00296	0.00575	-0.004087	-0.646973	-0.076416	-0.339355
375.0	6.877989	-0.701853	7.096896	-0.003759	0.008382	-0.003674	-0.646729	-0.083008	-0.334961
376.0	6.898773	-0.691566	7.091968	-0.00544	0.009579	-0.003033	-0.640381	-0.078613	-0.334961
377.0	6.90494	-0.71171	7.080812	-3.4e-05	0.009217	-0.006259	-0.64917	-0.080811	-0.337158
378.0	6.882971	-0.721866	7.086903	-0.00628	0.008272	-0.006867	-0.642822	-0.076416	-0.337158
379.0	6.866011	-0.692817	7.078578	-0.001237	0.008493	-0.000478	-0.64502	-0.074219	-0.341553
380.0	6.903262	-0.711445	7.082475	-0.002077	0.007185	-0.004313	-0.642822	-0.072266	-0.337158
381.0	6.902789	-0.711415	7.082939	-0.00464	0.006949	-0.003445	-0.644775	-0.078613	-0.337158
382.0	6.916918	-0.680829	7.089662	-0.003239	0.006587	-0.002594	-0.646973	-0.080811	-0.334961
383.0	6.880476	-0.721947	7.089317	-0.004639	0.006949	-0.003445	-0.646973	-0.078613	-0.332764
384.0	6.891845	-0.70269	7.063599	-0.003196	0.006713	-0.006654	-0.646973	-0.080811	-0.332764
385.0	6.809217	-0.749295	7.197626	-0.008923	0.003971	-0.006186	-0.646973	-0.07666	-0.334961
386.0	6.366771	-0.795644	7.873268	-0.079551	-0.068335	-0.031703	-0.646973	-0.076416	-0.339355
387.0	6.307288	-0.762406	7.886879	-0.434533	-0.25521	-0.119117	-0.64917	-0.078613	-0.334961
388.0	7.094539	-0.889673	7.171148	-0.464541	-0.338509	-0.123023	-0.651367	-0.074463	-0.332764
389.0	7.068449	-1.150343	6.714588	-0.4886	-0.343261	-0.097463	-0.647217	-0.074463	-0.330566
390.0	7.173246	-0.986935	6.817476	-0.382876	-0.306761	-0.092528	-0.647217	-0.074463	-0.324219
391.0	7.212531	-0.895616	6.863407	-0.40331	-0.27242	-0.077056	-0.651367	-0.074463	-0.330566
392.0	7.442515	-1.203746	6.459186	-0.336816	-0.228163	-0.082794	-0.653564	-0.074463	-0.326416
393.0	7.481385	-0.536446	6.565172	-0.266483	-0.126747	-0.066619	-0.653809	-0.07251	-0.326416
394.0	7.420563	-0.868625	6.64905	-0.217203	-0.046696	-0.04701	-0.651611	-0.07251	-0.324219
395.0	7.26681	-0.932579	6.697967	-0.137599	0.014911	-0.036948	-0.651611	-0.070313	-0.328613
396.0	7.036282	-1.093937	6.917651	-0.101992	0.047444	-0.046522	-0.651611	-0.068115	-0.324219
397.0	6.926888	-1.108137	7.026575	-0.034847	0.061884	-0.059239	-0.651367	-0.074463	-0.328369
398.0	6.844195	-1.038123	7.071376	-0.011054	0.048748	-0.074103	-0.651367	-0.07666	-0.324219
399.0	7.136554	-0.981714	7.010792	0.000163	0.042486	-0.083956	-0.649414	-0.070313	-0.326416
400.0	7.172751	-0.8868	6.800515	-0.011901	0.068788	-0.079255	-0.647217	-0.07251	-0.324219
401.0	7.178638	-0.591146	6.876578	0.005468	0.08792	-0.073522	-0.651611	-0.072266	-0.326416
402.0	7.191848	-0.487171	6.831864	-0.019642	0.112969	-0.046601	-0.651611	-0.072266	-0.330566
403.0	7.329451	-0.421507	6.768964	-0.051474	0.113827	-0.024171	-0.647217	-0.074463	-0.330566
404.0	7.378683	-0.531446	6.78815	-0.055295	0.132993	0.001432	-0.651611	-0.070068	-0.330566
405.0	7.387655	-0.58497	6.884427	-0.063956	0.14682	0.027114	-0.646973	-0.07666	-0.330566
406.0	7.505675	-0.477105	6.974754	-0.079801	0.171271	0.054756	-0.647217	-0.074463	-0.332764
407.0	7.39261	-0.632581	6.969823	-0.114217	0.206619	0.070974	-0.643066	-0.065918	-0.332764
408.0	7.075259	-0.838113	7.070898	-0.122668	0.221404	0.080613	-0.645264	-0.067871	-0.337158
409.0	6.960256	-0.877305	6.974449	-0.134304	0.221996	0.081011	-0.64502	-0.074219	-0.339355
410.0	6.772244	-0.937875	7.107953	-0.11168	0.220889	0.078474	-0.640869	-0.070068	-0.34375
411.0	6.558779	-0.678393	7.108746	-0.077211	0.22722	0.080338	-0.640869	-0.070068	-0.339355
412.0	6.018591	-0.360448	7.261049	-0.112035	0.182699	0.053251	-0.643311	-0.063721	-0.334961
413.0	6.030796	-1.110974	6.967968	-0.159557	0.116085	0.065338	-0.640869	-0.067871	-0.341553
414.0	6.167435	-1.368084	6.817689	-0.109779	0.057849	0.066301	-0.641113	-0.061279	-0.34375
415.0	6.004431	-1.105072	6.965071	-0.079549	0.01037	0.04929	-0.640869	-0.065674	-0.339355
416.0	6.228603	-0.92532	6.889157	-0.084591	-0.048711	0.030386	-0.645508	-0.063721	-0.337158
417.0	6.076371	-0.858343	6.728882	-0.080812	-0.096855	0.038864	-0.638672	-0.065674	-0.341553
418.0	6.407828	-0.827851	7.116294	-0.092045	-0.1779	0.0583	-0.643311	-0.061523	-0.339355
419.0	6.90326	-0.281495	7.025495	-0.080766	-0.170908	0.046832	-0.645508	-0.061523	-0.330811
420.0	6.784797	-0.746859	7.032686	-0.152012	-0.171012	0.063132	-0.647705	-0.061523	-0.334961
421.0	7.025744	-0.843977	6.988347	-0.155168	-0.177862	0.070692	-0.643066	-0.067871	-0.334961
422.0	7.193258	-0.696217	7.03945	-0.16467	-0.167277	0.073811	-0.649902	-0.059326	-0.334961
423.0	7.808588	-1.082896	7.027019	-0.135597	-0.16334	0.105687	-0.645508	-0.061523	-0.334961
424.0	7.66897	-1.381293	6.858613	-0.092478	-0.08825	0.11766	-0.645752	-0.055176	-0.330811
425.0	7.197005	-1.305333	7.157137	-0.08166	-0.064488	0.126517	-0.645752	-0.055176	-0.330811
426.0	7.308171	-1.60267	6.898849	-0.092711	-0.047996	0.118417	-0.647949	-0.052979	-0.330811
427.0	7.135925	-1.731255	6.980523	-0.047131	-0.026704	0.100703	-0.647705	-0.059326	-0.333008
428.0	7.161197	-1.539229	6.918014	-0.021997	-0.019138	0.085302	-0.645508	-0.059326	-0.330811
429.0	7.190213	-1.742774	6.863197	0.011489	-0.000378	0.064991	-0.652344	-0.055176	-0.330811
430.0	7.194617	-1.595516	6.96597	0.071518	0.029044	0.038472	-0.650146	-0.052979	-0.326416
431.0	7.299051	-1.578211	6.865505	0.083948	0.044615	0.025673	-0.650146	-0.052979	-0.333008
432.0	7.025578	-1.311861	6.982783	0.112739	0.065706	0.014114	-0.647949	-0.050781	-0.330811
433.0	6.964699	-1.11874	7.138094	0.10647	0.057283	0.004927	-0.645508	-0.057373	-0.328613
434.0	7.118661	-1.117462	7.094161	0.095269	0.056048	0.006261	-0.643555	-0.055176	-0.330811
435.0	6.988546	-1.054105	7.039946	0.082094	0.066178	0.003779	-0.645508	-0.057373	-0.328613
436.0	6.946912	-1.179506	7.087263	0.067943	0.067459	-0.011281	-0.6521	-0.057129	-0.333008
437.0	7.14414	-1.23665	6.876904	0.061419	0.085951	-0.01826	-0.641357	-0.055176	-0.330811
438.0	6.831129	-1.228807	7.001644	0.078956	0.10174	-0.028766	-0.641357	-0.057129	-0.334961
439.0	6.965755	-1.286927	6.998641	0.085419	0.098213	-0.038112	-0.645752	-0.052979	-0.333008
440.0	7.175542	-1.271003	6.87838	0.095369	0.122737	-0.051907	-0.643555	-0.057129	-0.330811
441.0	6.792553	-1.27901	6.908813	0.121165	0.137874	-0.072114	-0.643311	-0.059326	-0.332764
442.0	6.608107	-1.16927	6.960025	0.141755	0.12788	-0.101835	-0.647705	-0.059326	-0.339355
443.0	6.774474	-0.928613	6.996229	0.131205	0.112303	-0.109951	-0.643311	-0.061523	-0.332764
444.0	6.59381	-1.006244	7.011461	0.142432	0.105812	-0.115673	-0.643311	-0.063721	-0.332764
445.0	6.548775	-0.909427	7.01644	0.158593	0.082295	-0.117672	-0.645264	-0.068115	-0.330566
446.0	6.471623	-0.843423	7.049976	0.153445	0.064442	-0.110303	-0.643066	-0.065674	-0.339355
447.0	6.136687	-0.916672	7.107934	0.137331	0.031412	-0.105616	-0.640869	-0.070068	-0.334961
448.0	6.521483	-0.798491	7.066523	0.126082	-0.009522	-0.099194	-0.64502	-0.072266	-0.334961
449.0	6.660147	-0.868921	6.991963	0.119961	-0.01971	-0.093654	-0.642822	-0.072266	-0.332764
450.0	6.011307	-0.857082	7.060045	0.115688	-0.043691	-0.099208	-0.647217	-0.070068	-0.334961
451.0	6.373673	-0.660386	7.062339	0.105464	-0.103719	-0.10791	-0.642822	-0.074463	-0.332764
452.0	6.489145	-0.612605	7.109366	0.088034	-0.115486	-0.097103	-0.647217	-0.070068	-0.334961
453.0	6.631858	-0.515518	7.136736	0.070236	-0.138236	-0.093658	-0.643066	-0.070068	-0.332764
454.0	6.855764	-0.786079	7.072241	0.064042	-0.156531	-0.08857	-0.647217	-0.072266	-0.332764
455.0	6.573139	-0.778153	6.995779	0.073398	-0.166638	-0.07761	-0.649414	-0.074463	-0.328369
456.0	6.491988	-0.550252	7.15836	0.086563	-0.22737	-0.068626	-0.647217	-0.074463	-0.328369
457.0	6.818814	-0.898236	6.976433	0.088891	-0.261227	-0.052555	-0.653809	-0.07251	-0.324219
458.0	6.77811	-0.887336	7.163852	0.14017	-0.298162	-0.02972	-0.655762	-0.074463	-0.324219
459.0	7.384571	-1.071709	7.063256	0.160841	-0.307984	0.008529	-0.648926	-0.083252	-0.324219
460.0	7.318566	-1.314786	6.97028	0.17443	-0.275076	0.00872	-0.64917	-0.07666	-0.319824
461.0	7.294608	-0.982681	7.089889	0.169114	-0.251159	-0.015997	-0.653564	-0.076904	-0.317627
462.0	7.143841	-0.957988	7.104649	0.070096	-0.213712	-0.063043	-0.655762	-0.076904	-0.317627
463.0	6.980315	-0.984875	7.192835	0.002739	-0.211326	-0.115404	-0.657715	-0.078857	-0.324219
464.0	7.425132	-0.579426	7.112026	-0.016127	-0.228605	-0.132277	-0.65332	-0.081055	-0.322021
465.0	7.246368	-0.891114	7.020345	-0.032758	-0.212259	-0.133232	-0.657715	-0.079102	-0.31543
466.0	7.3878	-0.715067	7.044796	0.070465	-0.26399	-0.097742	-0.662109	-0.079102	-0.313232
467.0	7.28511	-1.420136	6.675231	0.219495	-0.265937	-0.070966	-0.661865	-0.085449	-0.311035
468.0	7.137982	-0.9562	6.971061	0.386697	-0.277174	-0.084944	-0.655518	-0.083496	-0.30249
469.0	7.365674	-0.912243	6.703134	0.295743	-0.361745	-0.092629	-0.659668	-0.085449	-0.308838
470.0	7.213483	-0.759282	7.06301	0.423678	-0.358844	-0.095396	-0.664063	-0.087646	-0.306885
471.0	7.153576	-0.71549	7.324156	0.485526	-0.393114	-0.089985	-0.659424	-0.089844	-0.30249
472.0	7.203149	-0.730662	7.351944	0.46914	-0.451448	-0.099591	-0.666016	-0.087891	-0.293701
473.0	7.082201	-1.001997	7.656634	0.485578	-0.540968	-0.111045	-0.663574	-0.096436	-0.298096
474.0	7.023227	-1.372611	7.768745	0.536043	-0.644109	-0.141433	-0.67041	-0.092285	-0.289307
475.0	7.323024	-1.387567	7.740358	0.710046	-0.723904	-0.194349	-0.665771	-0.098877	-0.287109
476.0	7.252189	0.384821	8.550352	0.391126	-0.859405	-0.277305	-0.667725	-0.103271	-0.271973
477.0	7.502008	-2.075106	7.997258	0.219754	-1.078621	-0.382265	-0.676514	-0.099121	-0.271973
478.0	7.197952	-0.465032	8.748846	0.399545	-1.189717	-0.390952	-0.682861	-0.101318	-0.263428
479.0	7.450686	-1.64658	8.411047	0.416419	-1.392739	-0.464097	-0.67627	-0.10791	-0.256836
480.0	7.294769	-1.474766	8.7405	0.454521	-1.563536	-0.554731	-0.678223	-0.112305	-0.246094
481.0	7.486372	-1.671112	8.82837	0.497055	-1.758209	-0.666439	-0.682129	-0.118896	-0.23291
482.0	7.653598	-1.528232	9.120748	0.586528	-1.956839	-0.743791	-0.690918	-0.121338	-0.222168
483.0	7.412917	-1.849663	9.059272	0.700808	-2.126596	-0.860843	-0.692627	-0.130127	-0.206787
484.0	7.05625	-1.280826	9.367873	0.724128	-2.399975	-0.985224	-0.69458	-0.136719	-0.187256
485.0	6.837974	-1.809982	9.493454	0.431699	-2.752659	-1.179355	-0.692383	-0.136963	-0.176514
486.0	6.538165	-2.18258	9.763144	0.401232	-3.120845	-1.390892	-0.689453	-0.150146	-0.15918
487.0	6.138654	-2.009872	9.429482	0.26533	-3.491114	-1.682275	-0.691406	-0.156982	-0.133057
488.0	5.966641	-1.969466	9.398124	0.185671	-3.967088	-2.029208	-0.695313	-0.167969	-0.111328
489.0	5.519633	-0.62109	9.630925	0.094915	-4.33473	-2.371697	-0.692627	-0.181396	-0.078857
490.0	4.463323	-0.860185	9.0299	-0.444473	-4.652879	-2.680328	-0.689697	-0.198975	-0.050537
491.0	7.26736	-1.897095	7.409648	-0.126256	-5.982106	-3.01643	-0.682617	-0.209961	-0.022217
492.0	12.601718	1.752012	7.586454	-0.362865	-6.015757	-3.063285	-0.677734	-0.219238	0.014648
493.0	17.534844	0.774037	6.750453	-0.30553	-6.355397	-2.887621	-0.662109	-0.230225	0.038574
494.0	22.61185	-1.197797	5.65294	-0.367551	-6.156727	-2.707919	-0.655029	-0.239258	0.073242
495.0	22.005395	-3.736378	5.827006	0.052474	-5.526075	-2.721345	-0.628662	-0.246094	0.10376
496.0	19.455718	-2.676466	7.033545	0.567055	-5.028795	-2.678363	-0.613281	-0.250488	0.121094
497.0	18.704175	-1.204929	7.528531	0.359989	-4.578684	-2.612771	-0.591309	-0.250732	0.142822
498.0	16.560806	-2.93518	8.610598	0.210818	-3.624314	-2.523617	-0.567627	-0.248535	0.151611
499.0	14.306641	-5.541372	8.717443	0.372068	-2.068962	-1.648056	-0.548096	-0.246338	0.14502
500.0	16.193294	-5.111333	11.469591	0.258587	-0.539181	-0.744142	-0.537598	-0.233398	0.149414
501.0	6.534469	-7.161983	10.097059	0.181179	0.275268	-0.098823	-0.518799	-0.213623	0.13623
502.0	2.254617	-3.764677	8.468061	0.33236	0.47137	0.335987	-0.502441	-0.185547	0.129639
503.0	1.259166	-3.144232	7.409783	0.009089	0.421012	0.72296	-0.483643	-0.168213	0.125244
504.0	0.80168	-2.139959	7.266846	0.145376	0.699419	1.103342	-0.462891	-0.142334	0.12085
505.0	0.746456	-2.940128	6.546498	-0.474015	0.663914	1.250366	-0.444336	-0.118408	0.105469
506.0	0.939365	-2.93165	6.388651	-0.305808	1.007229	1.400981	-0.421143	-0.09668	0.103271
507.0	1.205388	-3.202389	6.261389	-0.231012	1.18688	1.499708	-0.389648	-0.066406	0.105469
508.0	1.563213	-2.441016	6.639328	-0.127595	1.395069	1.605918	-0.364258	-0.047119	0.107422
509.0	3.107761	-2.120378	6.871293	-0.071032	1.608967	1.730487	-0.33252	-0.023438	0.111816
510.0	5.110789	-2.121801	6.956274	-0.112738	1.943172	1.863094	-0.298584	0.000244	0.120361
511.0	6.767952	-2.473541	7.232928	-0.056818	2.470324	1.971817	-0.266602	0.017334	0.137695
512.0	8.47561	-1.993556	7.364961	0.067663	3.12816	2.109703	-0.236084	0.021484	0.155029
513.0	8.263119	-1.466149	7.262967	0.04347	3.791214	2.253719	-0.208008	0.027588	0.194092
514.0	7.289228	-1.305074	7.023909	0.034213	4.312654	2.379097	-0.192627	0.0271	0.22876
515.0	6.082008	-1.218317	6.707995	0.059756	4.631173	2.453653	-0.183594	0.020264	0.259277
516.0	5.442213	-1.057868	6.399516	-0.036388	4.710549	2.483995	-0.198242	0.004639	0.300537
517.0	5.825517	-1.128365	6.234913	0.084284	4.658996	2.498974	-0.218994	-0.017334	0.328613
518.0	6.993909	-0.88888	6.492327	0.013776	4.554389	2.472379	-0.250977	-0.032959	0.356934
519.0	8.499772	-0.613171	6.810185	-0.021987	4.512727	2.425618	-0.287354	-0.05249	0.37207
520.0	10.036792	-0.322483	7.048828	-0.178188	4.489528	2.359449	-0.33667	-0.072021	0.374268
521.0	11.129601	-0.05985	7.166644	-0.326385	4.4881	2.276491	-0.39502	-0.080811	0.361328
522.0	11.849982	0.05781	7.173419	-0.493765	4.475423	2.193981	-0.440186	-0.095703	0.341797
523.0	12.265666	0.588906	7.312437	-0.647223	4.410251	2.104308	-0.481445	-0.104004	0.304932
524.0	12.448079	0.410111	7.171948	-0.935187	4.232714	2.012779	-0.527344	-0.101563	0.274414
525.0	12.689708	-0.255465	7.090404	-1.080924	3.995861	1.900245	-0.557861	-0.101074	0.230957
526.0	12.832616	-0.763984	7.029882	-1.113233	3.72312	1.779844	-0.588623	-0.096436	0.196289
527.0	12.705071	-0.726612	7.150915	-1.108592	3.432099	1.681845	-0.597656	-0.089355	0.144287
528.0	12.609363	-0.656711	7.343707	-1.102257	3.120478	1.612966	-0.620117	-0.075928	0.107178
529.0	12.712909	-0.368471	7.563756	-1.171529	2.824481	1.578002	-0.62915	-0.066895	0.065918
530.0	12.91136	-0.439323	7.641785	-1.267957	2.57066	1.561343	-0.631836	-0.057861	0.033447
531.0	13.121525	-0.419855	7.592687	-1.340385	2.36214	1.592721	-0.632324	-0.046631	-0.007813
532.0	13.444667	-0.41447	7.565382	-1.367562	2.183044	1.689683	-0.63501	-0.031006	-0.040527
533.0	13.793076	-1.075458	7.359773	-1.418308	2.015372	1.812627	-0.626953	-0.021973	-0.070801
534.0	14.055931	-2.430257	6.806392	-1.267469	1.8977	1.912896	-0.625	-0.013184	-0.094727
535.0	14.068373	-3.45408	6.210235	-0.918356	1.80419	1.983078	-0.616943	0.000244	-0.127197
536.0	14.099713	-4.111583	5.614774	-0.382048	1.754598	2.050067	-0.615234	0.011475	-0.15332
537.0	14.172049	-3.916822	5.336569	0.087686	1.709439	2.116355	-0.611328	0.024658	-0.172852
538.0	14.109607	-3.469371	4.592027	0.547248	1.69934	2.20175	-0.607422	0.029297	-0.192383
539.0	14.287005	-2.060087	4.30254	1.012127	1.66264	2.324305	-0.601074	0.038086	-0.214111
540.0	14.760755	-1.35078	3.651895	1.2399	1.679771	2.419575	-0.590576	0.047119	-0.23584
541.0	14.692631	-0.903578	2.717029	1.461781	1.797738	2.436219	-0.582275	0.056152	-0.259766
542.0	15.006653	0.177653	1.612365	1.626202	1.969111	2.339968	-0.578125	0.060547	-0.274902
543.0	15.005739	2.626468	0.585251	1.644304	2.215928	2.205655	-0.572021	0.065186	-0.298828
544.0	15.381112	5.623956	-1.086305	1.327747	2.463374	2.071542	-0.559326	0.076172	-0.316162
545.0	14.439612	7.478991	-2.872967	0.736424	2.654998	1.942476	-0.544434	0.081055	-0.339844
546.0	12.066589	7.086303	-3.948805	0.102502	2.54633	1.592496	-0.538086	0.087646	-0.359375
547.0	8.238604	5.76287	-3.942797	-0.38043	2.036002	0.968651	-0.529541	0.090088	-0.370361
548.0	6.470566	4.235834	-3.274616	-0.806849	1.075098	0.144622	-0.525146	0.090088	-0.374512
549.0	8.104847	3.021351	-2.133846	-1.074282	0.284052	-0.74553	-0.527344	0.090088	-0.374512
550.0	12.19916	3.947415	-0.159773	-1.369608	-0.136307	-1.414362	-0.525146	0.088135	-0.381104
551.0	15.703503	2.890633	0.910754	-1.657439	-0.002862	-1.777875	-0.5271	0.08374	-0.374512
552.0	4.204264	-9.315862	7.603767	-2.759399	-0.177355	-2.714517	-0.5354	0.074951	-0.370117
553.0	14.285759	-8.505911	-10.858239	2.382354	-1.289416	-3.921482	-0.533936	0.038574	-0.376465
554.0	-14.29772	2.56046	13.16626	1.768997	-2.329395	-4.17529	-0.552979	0.020996	-0.365723
555.0	20.389054	-3.636368	16.262632	-0.308868	-2.804131	-3.746175	-0.562744	-0.00293	-0.345947
556.0	11.307465	-0.802928	5.045259	2.013634	-2.347315	-2.865012	-0.568359	-0.026855	-0.330811
557.0	12.64287	-3.185841	6.511208	0.65673	-3.316298	-1.9919	-0.57666	-0.037842	-0.319824
558.0	15.024159	-1.859432	11.134447	1.000466	-3.364091	-0.733657	-0.591797	-0.04248	-0.296143
559.0	17.352389	-3.441938	8.719045	1.169225	-2.831642	-0.505838	-0.595703	-0.049072	-0.276611
560.0	12.507785	6.765479	10.889244	1.205264	-2.25879	-0.351229	-0.599854	-0.055908	-0.26123
561.0	8.568246	3.519963	9.666981	0.40414	-1.971767	-0.231271	-0.606445	-0.055908	-0.259033
562.0	6.057832	2.86119	8.711475	-0.150984	-1.929992	-0.274718	-0.608398	-0.05835	-0.241699
563.0	6.656752	0.601676	7.044303	-0.375262	-2.036339	-0.135054	-0.612793	-0.056152	-0.235352
564.0	8.734997	-2.018705	6.796858	-0.546772	-2.001088	-0.173201	-0.625977	-0.054443	-0.220215
565.0	10.936079	-2.378856	7.681248	-0.528511	-1.816878	-0.202408	-0.623535	-0.058838	-0.209229
566.0	16.667674	-5.285911	7.318291	-0.635814	-1.492008	-0.366574	-0.632324	-0.054443	-0.211426
567.0	10.042532	-0.766379	7.239188	0.242304	-0.664204	-0.197167	-0.625488	-0.061035	-0.200684
568.0	6.718887	-1.565129	8.347008	-0.204125	-0.779655	-0.069771	-0.632324	-0.054932	-0.189941
569.0	8.710615	-1.897032	7.151584	-0.035617	-0.660384	-0.018616	-0.625488	-0.06543	-0.189697
570.0	7.84064	-1.556865	7.718902	-0.23042	-0.54018	0.044645	-0.63208	-0.059082	-0.189697
571.0	7.35659	-1.092499	7.988053	-0.26997	-0.469614	0.069357	-0.63208	-0.059326	-0.18335
572.0	8.101648	-1.921337	7.168474	-0.466251	-0.417491	0.10051	-0.634521	-0.052734	-0.18335
573.0	7.686068	-2.82813	6.650891	-0.393345	-0.280904	0.134607	-0.632568	-0.050537	-0.18335
574.0	6.984265	-2.818046	6.793894	-0.28159	-0.216419	0.134199	-0.630127	-0.054932	-0.181152
575.0	7.244981	-2.862635	6.566364	-0.194247	-0.16286	0.12146	-0.632568	-0.04834	-0.185547
576.0	6.995673	-2.807639	6.460926	-0.120545	-0.105545	0.102793	-0.632568	-0.050537	-0.181152
577.0	6.993439	-2.856134	6.372055	-0.08056	-0.06142	0.07124	-0.630371	-0.046387	-0.181152
578.0	6.886952	-2.929829	6.129685	-0.01246	-0.02615	0.037404	-0.636963	-0.046387	-0.177002
579.0	6.580501	-2.89678	6.217075	0.083885	-0.012619	-0.01323	-0.636719	-0.050781	-0.176758
580.0	6.612154	-2.819632	6.217281	0.152556	-0.015943	-0.072175	-0.630371	-0.050537	-0.181152
581.0	6.609343	-2.860637	6.218798	0.224497	-0.022034	-0.128291	-0.636719	-0.054932	-0.176758
582.0	6.486765	-2.792149	6.303799	0.292218	-0.015075	-0.202316	-0.632324	-0.052734	-0.176758
583.0	6.286053	-2.58538	6.350132	0.322117	-0.016957	-0.267986	-0.634277	-0.059326	-0.176758
584.0	5.496242	-2.98318	6.468293	0.322232	-0.035577	-0.406425	-0.634277	-0.061523	-0.172363
585.0	5.626451	-3.430422	6.320457	0.385581	-0.051498	-0.603844	-0.63623	-0.065674	-0.176758
586.0	6.258441	-2.857767	5.941366	0.554502	-0.005961	-0.806314	-0.631592	-0.074463	-0.174561
587.0	6.138873	-3.099926	6.193821	0.6487	0.008639	-0.927401	-0.631592	-0.074463	-0.172363
588.0	6.182632	-2.795168	6.140133	0.865166	-0.027868	-0.960083	-0.626709	-0.085205	-0.174561
589.0	7.663477	-0.615873	8.245897	0.898819	-0.257841	-0.712239	-0.628662	-0.095947	-0.178711
590.0	7.420046	1.777662	8.432951	0.848817	-0.194372	-0.508192	-0.630615	-0.100098	-0.174316
591.0	7.190504	0.412543	7.864711	0.429141	-0.295809	-0.34416	-0.634766	-0.102295	-0.174316
592.0	7.104119	-0.716749	7.385948	0.277166	-0.371046	-0.277072	-0.634521	-0.106934	-0.163574
593.0	7.329518	-1.346593	6.997934	0.194824	-0.385541	-0.247959	-0.63916	-0.100342	-0.163574
594.0	7.392943	-1.898196	6.846015	0.216017	-0.320679	-0.227962	-0.636963	-0.104736	-0.155029
595.0	7.397315	-1.623715	6.808972	0.320761	-0.275651	-0.207315	-0.630127	-0.108887	-0.15918
596.0	7.152325	-1.952648	6.770505	0.380893	-0.25193	-0.200823	-0.634766	-0.104736	-0.150635
597.0	7.188195	-2.203183	6.582278	0.505749	-0.244785	-0.227773	-0.638916	-0.106934	-0.156982
598.0	7.05939	-2.556028	6.425971	0.648632	-0.231876	-0.277241	-0.634277	-0.115479	-0.152588
599.0	7.270498	-1.928386	6.832728	0.799472	-0.205669	-0.30853	-0.629883	-0.117676	-0.150391
600.0	7.26071	-0.652835	7.185782	0.828914	-0.193446	-0.2825	-0.629639	-0.119873	-0.148438
601.0	6.953264	0.505319	8.10426	0.687882	-0.302306	-0.185697	-0.638428	-0.120117	-0.141846
602.0	7.11711	-1.409401	7.323884	0.479147	-0.400578	-0.150278	-0.638428	-0.122314	-0.137451
603.0	7.078671	-0.185745	7.723891	0.647873	-0.461457	-0.123312	-0.631592	-0.126465	-0.139648
604.0	6.989732	-0.590598	7.734834	0.384903	-0.587624	-0.107983	-0.635742	-0.130859	-0.128662
605.0	7.04519	-0.492341	7.94872	0.388229	-0.700934	-0.101716	-0.637939	-0.133057	-0.128662
606.0	6.80702	-1.305339	8.340595	0.20575	-0.887592	-0.144058	-0.633789	-0.128906	-0.11792
607.0	7.088012	-0.354881	8.966889	0.333366	-1.056237	-0.160245	-0.637939	-0.131104	-0.111328
608.0	7.311142	-0.810709	8.885193	-0.008585	-1.282595	-0.179973	-0.635742	-0.131348	-0.107178
609.0	7.356175	0.169397	8.902199	0.101233	-1.495285	-0.17455	-0.640137	-0.12915	-0.096191
610.0	7.385194	-0.405759	8.512165	-0.154966	-1.765356	-0.116806	-0.64209	-0.133789	-0.081055
611.0	7.346835	-0.513587	8.539094	-0.128203	-2.004766	-0.076441	-0.64209	-0.134033	-0.070313
612.0	7.235365	-1.04525	8.308365	-0.174601	-2.273293	-0.077599	-0.644287	-0.134033	-0.055176
613.0	7.216994	-1.550242	8.30627	-0.015509	-2.539415	-0.110705	-0.640137	-0.129883	-0.044189
614.0	7.031536	-1.49201	8.677282	0.186189	-2.810499	-0.192906	-0.644287	-0.132568	-0.018311
615.0	6.7043	-2.312905	8.918683	0.155037	-3.218581	-0.284808	-0.643799	-0.141357	-0.00293
616.0	6.886767	-2.330319	9.769949	0.317293	-3.515118	-0.41286	-0.648193	-0.137451	0.022949
617.0	6.400208	-3.50724	9.793908	0.291196	-3.822312	-0.619538	-0.63916	-0.14624	0.046875
618.0	4.796243	-3.25986	9.877553	0.274478	-4.260009	-0.929289	-0.636719	-0.150879	0.077148
619.0	4.026701	-3.553665	10.205195	0.072757	-4.996414	-1.304618	-0.627686	-0.159912	0.103271
620.0	2.687933	-3.842237	10.144345	-0.25079	-5.682238	-1.783545	-0.618164	-0.175293	0.135986
621.0	4.205193	-3.822865	9.125431	-0.385948	-6.594307	-2.392203	-0.5979	-0.190918	0.181641
622.0	7.280333	-4.103646	9.002652	-0.297894	-7.346638	-2.917557	-0.577881	-0.204346	0.220703
623.0	11.229891	-2.214195	8.881411	-0.604056	-7.952157	-3.130985	-0.552979	-0.226318	0.257568
624.0	19.313823	2.346013	6.3027	-0.536106	-8.542241	-2.913593	-0.525879	-0.246094	0.301025
625.0	25.405285	2.957962	5.182695	-1.309986	-8.603652	-2.365277	-0.492432	-0.263672	0.33374
626.0	31.819281	-10.671084	4.097987	-1.181734	-8.376315	-2.245052	-0.454834	-0.28125	0.373047
627.0	29.561207	-6.79291	7.957686	0.296204	-6.807969	-2.534529	-0.426514	-0.281494	0.394775
628.0	27.796957	-6.68066	11.162641	0.230966	-6.155748	-2.492784	-0.395264	-0.296631	0.420898
629.0	24.023465	-8.976727	15.938785	0.069401	-5.116464	-2.218731	-0.366455	-0.307373	0.423096
630.0	11.420448	-9.436712	16.962785	0.331795	-3.717312	-2.176519	-0.349121	-0.307373	0.42749
631.0	7.699958	-15.814292	11.686645	0.282146	-3.131993	-1.709192	-0.331543	-0.311768	0.436279
632.0	25.172328	-11.118845	17.194874	1.381902	-0.813899	-0.607474	-0.329346	-0.30957	0.42749
633.0	13.869723	-15.368239	17.306874	1.774886	2.10078	0.580591	-0.34082	-0.300781	0.414551
634.0	0.044399	-8.114168	17.46204	2.162025	2.880372	0.902593	-0.352295	-0.283447	0.39917
635.0	-1.722399	-4.926565	15.863125	2.031224	3.00155	0.999098	-0.361328	-0.272461	0.394775
636.0	-0.617957	-0.376847	14.613149	1.087058	3.074106	1.023035	-0.368164	-0.27002	0.37085
637.0	2.520846	1.20326	12.685207	-0.344055	3.70532	1.220287	-0.376709	-0.271973	0.353516
638.0	2.740136	-0.215521	11.108903	-0.49291	4.140354	1.094951	-0.39209	-0.269531	0.327393
639.0	4.657584	-0.10138	9.509477	-1.617312	4.715631	1.119084	-0.402832	-0.277832	0.299316
640.0	5.132379	-1.099013	8.304847	-1.764051	5.584127	1.027276	-0.407227	-0.279785	0.273438
641.0	5.985117	-1.606997	7.146599	-1.986466	6.16151	0.885921	-0.419922	-0.290039	0.240967
642.0	6.386334	-0.562547	6.752264	-2.24586	6.544021	0.839783	-0.432861	-0.296143	0.212646
643.0	7.235503	-0.687125	5.871427	-2.357778	6.793246	0.887497	-0.441406	-0.302246	0.177979
644.0	7.360508	-0.482485	5.560102	-2.329535	6.935339	0.999698	-0.456787	-0.299805	0.149902
645.0	8.162219	-0.710592	5.413401	-2.256428	6.943307	1.145258	-0.471924	-0.303711	0.119385
646.0	8.550018	-0.78835	5.408308	-2.140927	6.863602	1.287897	-0.487549	-0.294678	0.086914
647.0	9.10781	-0.899848	5.458934	-2.019174	6.664682	1.406562	-0.505127	-0.291992	0.047852
648.0	9.406985	-0.664569	5.92384	-1.885645	6.372193	1.52506	-0.525635	-0.27002	0.010742
649.0	10.35301	-0.228109	6.641503	-1.802811	5.976062	1.660881	-0.524658	-0.243652	-0.034912
650.0	12.339059	0.488921	7.345992	-1.706482	5.605279	1.799731	-0.508789	-0.206543	-0.071777
651.0	14.442998	0.368879	7.753182	-1.773352	5.332688	1.907353	-0.466553	-0.169434	-0.095703
652.0	15.209448	-0.312939	7.882184	-1.700494	5.189726	2.005381	-0.411621	-0.126221	-0.089355
653.0	14.973712	-2.030498	7.981808	-1.507412	5.006647	1.996588	-0.362549	-0.10083	-0.05249
654.0	14.309733	-2.556922	8.482465	-1.141171	4.769753	1.929804	-0.338379	-0.099365	0.005859
655.0	13.728089	-1.935119	9.283055	-0.825313	4.487798	1.932582	-0.338135	-0.104248	0.055908
656.0	13.622539	-1.039275	10.036201	-0.574553	4.130251	1.993055	-0.361816	-0.109375	0.099121
657.0	13.467394	-0.335223	10.642609	-0.676579	3.716689	2.132862	-0.387939	-0.107666	0.125244
658.0	14.264004	-0.542013	10.666771	-0.948095	3.193699	2.287592	-0.42334	-0.092773	0.135742
659.0	15.997457	-1.522942	10.137219	-1.196453	2.681987	2.519733	-0.460693	-0.082275	0.140137
660.0	18.37541	-3.130434	9.251797	-1.245462	2.136763	2.850261	-0.500732	-0.061035	0.14209
661.0	22.777292	-3.166902	8.687806	-0.804271	1.604571	3.280026	-0.534424	-0.035156	0.137451
662.0	30.433385	2.700743	8.52054	-0.164193	1.493637	3.993511	-0.572754	-0.00293	0.12207
663.0	37.386678	-1.886242	3.083903	-0.821729	2.108889	4.61049	-0.602295	0.029785	0.078613
664.0	37.639691	-9.391216	-4.475087	0.832564	3.926119	4.485876	-0.625732	0.067139	0.01123
665.0	34.544241	-0.283172	-8.363733	3.153974	5.493048	3.947869	-0.635742	0.098145	-0.056152
666.0	30.253936	12.060264	-12.33416	3.806063	6.311573	3.636735	-0.624023	0.127197	-0.130127
667.0	19.777856	19.703316	-16.395014	2.929971	5.750313	3.602478	-0.618164	0.143066	-0.190918
668.0	11.686198	16.896893	-21.139012	1.265733	3.561494	3.096284	-0.610352	0.165039	-0.216797
669.0	9.943277	17.770454	-18.174906	0.000539	1.115261	1.896181	-0.606689	0.178223	-0.232178
670.0	16.578532	11.356754	-13.767495	-1.920181	-1.243548	0.341687	-0.609375	0.190918	-0.227783
671.0	20.800892	6.633395	-8.337795	-2.183793	-1.639891	-0.865355	-0.620605	0.20166	-0.219238
672.0	9.845775	-6.273701	5.461547	-2.738079	-1.405347	-2.287945	-0.633301	0.194824	-0.19751
673.0	1.785417	-6.703985	2.643401	1.989193	-2.69869	-3.478896	-0.643799	0.181885	-0.199707
674.0	-10.071187	-2.827724	19.8407	0.758161	-4.49423	-2.933597	-0.660645	0.172852	-0.171631
675.0	21.491152	1.49396	5.01196	1.14434	-4.40859	-1.56234	-0.671631	0.177002	-0.158447
676.0	14.516457	2.748402	5.715174	0.502944	-5.103963	-0.529611	-0.678711	0.187256	-0.126221
677.0	22.325002	-6.83028	9.653311	0.154016	-5.220434	-0.381636	-0.685303	0.191162	-0.104492
678.0	19.538751	4.855153	10.394976	1.388917	-4.150832	-0.690294	-0.687256	0.190918	-0.084961
679.0	14.855078	3.938483	10.200972	-0.305869	-4.080188	-0.887843	-0.689697	0.197021	-0.059082
680.0	12.714893	0.838408	9.23949	0.301797	-3.340918	-0.652788	-0.696289	0.196777	-0.045898
681.0	12.320077	0.817658	7.97109	-0.004206	-3.041146	-0.424611	-0.698486	0.200928	-0.030762
682.0	12.210244	0.091258	7.80769	-0.579731	-2.775422	-0.394744	-0.705322	0.209229	-0.015625
683.0	17.517912	-5.302869	7.705353	-0.948637	-2.546779	-0.671674	-0.705322	0.211182	-0.002686
684.0	17.932828	-9.534856	3.688953	-0.271822	-1.531098	-0.620242	-0.700928	0.211182	0.005859
685.0	9.064174	0.778113	8.42694	0.613916	-0.883392	-0.37025	-0.700684	0.202637	0.006104
686.0	8.252819	-0.174457	8.329041	0.088684	-0.829978	-0.319845	-0.703125	0.208984	0.012451
687.0	9.30209	-3.12461	6.5093	-0.014497	-0.678523	-0.213194	-0.698486	0.202393	0.012451
688.0	7.565813	-2.170614	7.739121	0.072613	-0.496121	-0.179388	-0.700684	0.20459	0.02124
689.0	7.510582	-1.550725	7.632295	0.024777	-0.430626	-0.166315	-0.705078	0.206543	0.019043
690.0	7.5707	-2.3548	6.820516	-0.010015	-0.353137	-0.1411	-0.700439	0.197998	0.016846
691.0	7.289776	-3.013158	6.515509	0.003339	-0.292105	-0.153708	-0.700684	0.204346	0.023193
692.0	7.083367	-3.089408	6.418162	0.13447	-0.219034	-0.193948	-0.707275	0.204346	0.025391
693.0	6.696471	-2.903928	6.301935	0.215262	-0.153605	-0.261257	-0.704834	0.195801	0.025635
694.0	6.520365	-3.233285	6.059292	0.289115	-0.140884	-0.382154	-0.704834	0.197998	0.029785
695.0	6.466163	-3.288458	5.742035	0.449066	-0.1326	-0.511983	-0.70459	0.193604	0.025635
696.0	7.056349	-3.272855	5.966916	0.618157	-0.132266	-0.61111	-0.708984	0.191406	0.025635
697.0	7.258857	-2.510899	6.084651	0.746419	-0.04513	-0.739051	-0.710693	0.180664	0.025635
698.0	7.281384	-2.5015	6.520247	0.675726	0.078344	-0.877038	-0.710449	0.172119	0.023438
699.0	7.072582	-2.600553	6.765639	0.74463	0.196549	-0.922238	-0.705811	0.165771	0.01709
700.0	6.687247	-2.590695	7.082441	0.772694	0.228631	-0.889874	-0.709961	0.161377	0.01709
701.0	6.849019	-2.000156	7.275221	0.879675	0.22175	-0.80566	-0.70752	0.155273	0.008301
702.0	6.09272	-0.190222	7.375098	0.871991	0.128505	-0.671312	-0.707275	0.150879	0.012695
703.0	6.238472	1.96837	8.539064	0.616311	-0.122532	-0.365716	-0.705078	0.146484	0.014893
704.0	6.559035	1.729351	8.234299	0.32206	-0.237185	-0.216854	-0.702881	0.148682	0.01709
705.0	6.577443	0.547808	7.636993	0.057498	-0.352589	-0.104232	-0.709229	0.140137	0.012695
706.0	6.67403	-0.488458	7.390963	-0.035592	-0.448035	-0.036494	-0.709229	0.14209	0.019287
707.0	6.86089	-1.178227	6.912366	-0.055371	-0.490815	-0.022296	-0.713623	0.146484	0.01709
708.0	6.983086	-0.928709	7.006572	-0.118769	-0.523804	-0.000534	-0.707275	0.14624	0.023682
709.0	7.069353	-1.588071	6.949947	-0.165221	-0.558815	0.001382	-0.711426	0.144043	0.027832
710.0	7.003784	-1.3659	7.171344	-0.203491	-0.577906	-0.024136	-0.709473	0.148438	0.034424
711.0	7.110116	-1.617469	7.339065	-0.251445	-0.598929	-0.075785	-0.709473	0.152588	0.036621
712.0	7.406673	-1.822171	6.946057	-0.269508	-0.572629	-0.126221	-0.71167	0.152588	0.042969
713.0	7.482303	-1.343212	7.102626	-0.190748	-0.545184	-0.128621	-0.707031	0.143799	0.047363
714.0	7.548161	-1.225541	7.102514	-0.188082	-0.525216	-0.124677	-0.70752	0.156738	0.047363
715.0	7.325735	-1.777758	6.849737	-0.238411	-0.495632	-0.114692	-0.705078	0.150391	0.045166
716.0	7.256782	-1.884323	6.5498	-0.181061	-0.497156	-0.136879	-0.71167	0.150391	0.049561
717.0	7.19633	-2.396293	6.498138	-0.079266	-0.516511	-0.167049	-0.709473	0.152344	0.049561
718.0	7.063531	-2.295201	6.764457	0.083728	-0.529193	-0.210968	-0.709473	0.150146	0.053955
719.0	7.051838	-2.027724	7.04404	0.243664	-0.621532	-0.254659	-0.707275	0.150146	0.05835
720.0	7.362888	-0.755336	7.730281	0.071774	-0.772789	-0.248855	-0.702881	0.147949	0.05835
721.0	7.18743	-1.233331	8.314692	0.084467	-0.886846	-0.210701	-0.700684	0.152344	0.05835
722.0	7.351456	-0.999145	8.505973	0.231753	-1.099709	-0.175197	-0.69873	0.154297	0.071289
723.0	7.269561	-0.905063	8.914393	0.166626	-1.365351	-0.125852	-0.696533	0.156494	0.077637
724.0	7.419848	-0.133779	8.833288	0.306567	-1.630447	-0.061501	-0.687744	0.156494	0.077881
725.0	7.377715	-0.719847	8.693291	0.180279	-1.944486	-0.010782	-0.690186	0.1604	0.097168
726.0	6.958616	-1.164569	8.891401	0.176684	-2.280821	-0.014187	-0.685791	0.162598	0.099365
727.0	7.081769	-1.78705	8.798394	0.145494	-2.639326	-0.047612	-0.677246	0.164551	0.112305
728.0	6.773893	-1.924236	9.143619	0.122528	-3.020449	-0.107255	-0.666748	0.175049	0.129639
729.0	6.49886	-2.284129	9.633306	0.058711	-3.503741	-0.178957	-0.661865	0.166504	0.140625
730.0	6.056611	-3.007972	10.049522	0.082333	-4.007774	-0.302711	-0.640381	0.174805	0.160156
731.0	5.431107	-3.94975	10.206082	-0.005169	-4.480827	-0.518276	-0.625244	0.174561	0.188232
732.0	4.51947	-5.064488	10.708667	0.000196	-5.278049	-0.982441	-0.609619	0.170166	0.205811
733.0	4.317621	-5.173129	10.715677	-0.203715	-5.779478	-1.479059	-0.587646	0.165527	0.231689
734.0	3.737381	-6.051868	10.865616	-0.360372	-6.570639	-2.141492	-0.556885	0.156494	0.26001
735.0	5.569239	-7.494115	10.020359	-0.619726	-7.544693	-2.921531	-0.523438	0.141357	0.286133
736.0	15.019151	-4.239905	9.281878	-0.580871	-8.574404	-3.08165	-0.479736	0.134521	0.318848
737.0	24.291033	0.681566	7.440875	-0.920233	-8.733906	-2.765511	-0.424805	0.123779	0.342773
738.0	30.096382	-1.914341	6.124656	-1.780613	-8.600022	-2.260994	-0.369385	0.102051	0.377686
739.0	36.126585	-12.776637	5.599725	-1.148609	-7.714036	-2.573945	-0.322754	0.075928	0.399658
740.0	24.907491	-5.471514	11.585197	0.187933	-6.052293	-2.903329	-0.269287	0.050293	0.412842
741.0	21.511733	-8.418246	15.498076	-0.443527	-5.752359	-2.923648	-0.222168	0.013672	0.432617
742.0	12.097309	-6.742508	20.328197	-0.242976	-4.677454	-2.612783	-0.175293	-0.014648	0.456543
743.0	1.41379	-5.223927	17.879979	-0.752147	-4.088205	-2.41486	-0.138916	-0.053223	0.469971
744.0	14.290901	-6.822223	14.070894	-1.154674	-3.04754	-1.728156	-0.111328	-0.090088	0.485352
745.0	26.925249	-10.964343	16.432868	-1.276869	0.236739	-0.303899	-0.109863	-0.131104	0.496338
746.0	6.82038	-10.264788	15.316542	-0.336012	2.622552	0.435674	-0.123535	-0.167725	0.50293
747.0	-1.156411	-10.053985	13.250129	0.032603	3.336002	0.694238	-0.14624	-0.200195	0.513916
748.0	-4.951378	-6.038671	12.387294	0.596561	3.418631	0.690135	-0.178223	-0.221924	0.516113
749.0	-4.743799	-2.562382	10.567803	0.526176	3.297014	0.71627	-0.205078	-0.256348	0.51416
750.0	-2.128044	-0.266511	9.37505	-0.439147	3.065475	0.662791	-0.236572	-0.288818	0.512207
751.0	1.124268	-2.402291	7.201621	-0.724902	3.138282	0.815407	-0.272461	-0.314453	0.49707
752.0	3.545784	-0.130365	7.641737	-0.482661	3.689316	0.971746	-0.310547	-0.342529	0.484131
753.0	6.707823	-1.055983	7.130737	-1.072504	4.165808	1.098125	-0.351074	-0.370117	0.458008
754.0	8.669576	-1.294028	6.98834	-1.219953	4.85542	1.310199	-0.389404	-0.393555	0.421387
755.0	9.455599	-1.940926	6.894293	-1.324564	5.555486	1.454736	-0.434326	-0.412354	0.37793
756.0	10.068531	-2.825362	6.774301	-1.199125	6.192779	1.582384	-0.477539	-0.424805	0.33252
757.0	10.570716	-2.913163	6.198429	-0.939742	6.674448	1.647011	-0.522949	-0.435059	0.280518
758.0	10.83681	-2.322081	5.718598	-0.644616	7.055207	1.671527	-0.55127	-0.436523	0.219727
759.0	10.611449	-0.804739	5.565348	-0.449857	7.301475	1.739064	-0.584473	-0.429688	0.171875
760.0	9.772145	0.573635	5.76112	-0.736575	7.221987	1.81537	-0.600342	-0.416016	0.111084
761.0	9.307788	0.213104	5.151856	-1.068915	6.850855	1.921935	-0.614014	-0.400146	0.050293
762.0	10.933338	-0.376406	5.930905	0.066225	7.037884	2.05484	-0.628174	-0.375977	0.006836
763.0	9.872564	3.319018	7.300481	-1.240213	6.064483	1.977784	-0.62915	-0.351563	-0.032227
764.0	12.575375	0.216317	6.468836	-1.692404	5.425386	1.947158	-0.636963	-0.323242	-0.062744
765.0	14.569763	0.217469	7.32718	-1.495394	5.157982	1.993895	-0.631348	-0.299072	-0.101807
766.0	15.504093	-0.361184	7.620494	-1.437122	4.944062	1.92519	-0.634521	-0.272949	-0.121582
767.0	15.72852	-1.012643	7.866579	-1.210452	4.733306	1.804338	-0.635986	-0.238281	-0.154297
768.0	15.470425	-1.024796	8.260829	-1.137509	4.467179	1.670928	-0.632568	-0.218506	-0.176025
769.0	15.133463	-0.770814	8.671748	-0.929879	4.243569	1.576138	-0.624756	-0.194336	-0.202148
770.0	14.623644	-0.542153	9.183008	-0.92252	3.958855	1.538135	-0.625977	-0.164063	-0.215332
771.0	14.634377	-0.600025	9.272946	-1.144485	3.581785	1.560987	-0.62207	-0.150879	-0.234863
772.0	15.554005	-1.166449	9.170337	-1.428549	3.120098	1.670861	-0.616699	-0.126953	-0.252197
773.0	16.931688	-2.521033	8.543606	-1.634358	2.585307	1.902955	-0.61084	-0.105469	-0.252441
774.0	21.296188	-4.375417	7.527338	-1.320098	2.21506	2.205583	-0.609619	-0.08374	-0.267578
775.0	25.744869	-4.595987	6.732626	-0.915959	2.322512	2.49652	-0.612549	-0.066406	-0.276367
776.0	26.830896	0.40239	5.752146	-0.211283	2.961798	3.083262	-0.607178	-0.036133	-0.289551
777.0	24.942175	0.153699	3.728346	-0.356222	3.554094	3.700732	-0.601563	-0.012207	-0.307129
778.0	24.073774	-3.645121	-0.645643	0.265715	4.173138	3.718452	-0.591797	0.01416	-0.337402
779.0	21.618953	1.913976	-3.311543	1.284741	4.498124	3.399559	-0.585938	0.027344	-0.359131
780.0	19.106538	9.518976	-7.545843	1.528435	4.315564	3.249437	-0.571777	0.053467	-0.389648
781.0	14.642389	14.55109	-11.662228	0.916951	3.421959	3.148028	-0.556885	0.06665	-0.402832
782.0	12.903639	12.632016	-14.635072	-0.358981	1.823417	2.606296	-0.55957	0.07959	-0.407227
783.0	12.780996	9.677204	-13.481	-0.702578	0.35152	1.551746	-0.553955	0.099121	-0.409424
784.0	14.6786	5.891066	-10.263596	-1.410429	-1.020606	0.098673	-0.564941	0.103027	-0.394287
785.0	19.146225	4.366802	-6.239102	-1.586004	-1.393995	-1.119298	-0.580322	0.109375	-0.383545
786.0	21.187187	3.318673	-1.957326	-1.578499	-1.156973	-1.931871	-0.584229	0.096436	-0.376953
787.0	18.291306	1.012543	2.935835	-1.592467	-0.674885	-2.293319	-0.586182	0.092041	-0.370361
788.0	5.481252	-31.607414	0.084654	-0.84559	-2.014947	-3.616125	-0.598145	0.065918	-0.357178
789.0	-14.441211	1.37068	18.628139	5.892027	-0.293678	-3.526793	-0.609863	0.03125	-0.344238
790.0	1.585153	7.954409	15.929524	1.836487	-3.837139	-2.538503	-0.626465	0.009521	-0.322266
791.0	8.755431	9.493107	1.478558	2.551361	-4.070924	-1.570462	-0.643066	-0.008301	-0.294189
792.0	12.782403	5.551307	9.892972	0.115095	-5.618666	-0.987489	-0.662598	-0.008789	-0.25293
793.0	18.821771	2.883146	11.070705	0.789284	-5.065457	-0.921131	-0.670898	-0.015869	-0.224854
794.0	18.708691	7.37705	10.124802	0.035784	-4.662387	-1.2289	-0.681641	-0.016357	-0.187988
795.0	16.497978	2.657842	10.544229	0.06543	-3.91035	-1.067014	-0.694092	-0.031738	-0.164063
796.0	15.855755	-3.195544	7.911558	-0.814085	-3.599968	-0.798671	-0.698242	-0.03418	-0.135986
797.0	14.90668	-3.153555	7.876169	-0.310269	-3.1297	-0.484868	-0.704834	-0.034668	-0.112061
798.0	19.227777	-9.970276	6.074977	-0.541256	-2.769439	-0.839507	-0.704346	-0.043457	-0.098877
799.0	15.073452	-2.889667	5.088349	1.021358	-1.582368	-0.707754	-0.708496	-0.050049	-0.08374
800.0	9.037155	0.043184	8.223269	0.494358	-1.19333	-0.529523	-0.708496	-0.050293	-0.072998
801.0	9.781673	-2.107571	6.938681	0.146528	-1.013415	-0.582251	-0.706299	-0.05249	-0.068604
802.0	8.85505	-2.92778	7.016147	0.340334	-0.709283	-0.521587	-0.706055	-0.056885	-0.064209
803.0	8.739205	-1.215115	7.320001	0.574974	-0.499041	-0.442819	-0.712402	-0.059082	-0.059814
804.0	8.624034	-0.393701	7.355235	0.371522	-0.379174	-0.346165	-0.709961	-0.06543	-0.059814
805.0	8.081855	-1.533136	7.23259	0.295988	-0.287964	-0.269766	-0.705566	-0.067627	-0.062012
806.0	8.417032	-0.291668	7.38976	0.323997	-0.192012	-0.167708	-0.710205	-0.063477	-0.053467
807.0	7.817382	-1.246677	6.950488	0.151326	-0.107081	-0.108945	-0.707764	-0.067627	-0.062012
808.0	7.411549	-2.088273	6.533245	0.141683	-0.072309	-0.139604	-0.709961	-0.069824	-0.05127
809.0	7.155395	-2.168125	6.144187	0.236332	-0.018609	-0.207474	-0.709473	-0.078613	-0.053223
810.0	7.213072	-2.494723	5.903183	0.323047	0.005192	-0.293358	-0.70752	-0.076416	-0.049072
811.0	7.295193	-2.19505	6.194426	0.452447	0.05983	-0.363452	-0.709717	-0.074219	-0.05542
812.0	7.46962	-2.139884	6.372176	0.445816	0.126121	-0.433299	-0.705078	-0.078369	-0.053223
813.0	6.484094	-2.530877	6.70005	0.447298	0.206509	-0.528348	-0.709229	-0.087158	-0.057617
814.0	5.639062	-3.228126	7.110057	0.508028	0.204732	-0.614122	-0.706787	-0.091309	-0.05542
815.0	5.734171	-3.37819	7.017628	0.61128	0.164554	-0.659108	-0.70459	-0.093506	-0.057617
816.0	5.70904	-2.428079	6.756209	0.775175	0.096863	-0.653227	-0.702393	-0.095703	-0.059814
817.0	5.378716	-0.344202	7.374899	0.807011	-0.070698	-0.523016	-0.699951	-0.097656	-0.057617
818.0	6.615393	0.717702	7.494599	0.715306	-0.219917	-0.415794	-0.699707	-0.104248	-0.046631
819.0	6.835067	0.943461	7.453144	0.619118	-0.290389	-0.285347	-0.699707	-0.106445	-0.044434
820.0	6.567122	0.971034	7.944604	0.391971	-0.387474	-0.19157	-0.699707	-0.106445	-0.044434
821.0	7.128835	-0.237801	7.008892	0.36159	-0.51055	-0.137251	-0.699463	-0.11084	-0.044434
822.0	6.966312	-1.082956	6.909817	0.3683	-0.472499	-0.053363	-0.705811	-0.115234	-0.037842
823.0	7.636094	-0.095192	7.061725	0.518255	-0.513947	-0.025066	-0.706055	-0.113281	-0.031494
824.0	7.494822	-1.468304	7.052017	0.21105	-0.417064	-0.082359	-0.706055	-0.111084	-0.033691
825.0	7.901843	-1.772334	6.911631	0.183913	-0.389648	-0.12468	-0.706055	-0.113281	-0.0271
826.0	8.126916	-1.144309	6.559903	0.281347	-0.282662	-0.112642	-0.703857	-0.113281	-0.020508
827.0	7.346039	-1.250119	6.978291	0.278463	-0.324631	-0.090498	-0.705811	-0.115479	-0.020508
828.0	7.711489	-1.430532	6.621513	0.433995	-0.265639	-0.094484	-0.703857	-0.111328	-0.016357
829.0	7.103226	-0.872162	6.978977	0.468083	-0.267716	-0.107035	-0.705811	-0.115479	-0.016357
830.0	7.039116	-1.603877	6.978484	0.288108	-0.310164	-0.15818	-0.706055	-0.109131	-0.01416
831.0	6.875423	-2.016805	7.074136	0.315008	-0.328879	-0.235147	-0.699219	-0.11792	-0.007568
832.0	6.936279	-0.97149	7.529497	0.369007	-0.378108	-0.27931	-0.701416	-0.11792	-0.007568
833.0	6.990932	-0.24723	7.935419	0.266154	-0.524519	-0.266256	-0.703369	-0.122314	0.001221
834.0	6.859106	-1.081822	8.715077	0.183259	-0.723183	-0.271054	-0.703613	-0.11792	0.003174
835.0	7.476676	-0.606148	8.751474	0.457015	-0.91716	-0.269774	-0.701172	-0.122314	0.005371
836.0	6.990044	0.213916	9.629811	0.269587	-1.18482	-0.267452	-0.703125	-0.128906	0.022705
837.0	7.491504	-0.354552	8.828535	0.241288	-1.546584	-0.30096	-0.705078	-0.131348	0.029297
838.0	7.208401	0.51787	8.911935	0.26556	-1.787015	-0.245238	-0.703125	-0.127197	0.046631
839.0	7.182827	0.848661	8.761139	0.170057	-2.080243	-0.159452	-0.698486	-0.129639	0.063965
840.0	7.11871	0.73733	8.739767	0.106022	-2.326582	-0.018394	-0.700684	-0.131836	0.079102
841.0	6.912358	0.039107	8.656492	-0.040625	-2.654164	0.028884	-0.69873	-0.125732	0.092285
842.0	6.888948	-1.000066	8.450732	-0.120407	-2.982179	0.023992	-0.694092	-0.130371	0.120361
843.0	6.546606	-1.328678	8.875098	-0.164765	-3.357547	-0.086909	-0.696289	-0.130615	0.144287
844.0	6.859009	-1.936545	9.173209	-0.136904	-3.675828	-0.242369	-0.685303	-0.128906	0.178955
845.0	6.350824	-2.131742	9.464585	-0.067837	-3.933858	-0.40377	-0.678223	-0.139893	0.202881
846.0	4.695604	-2.708433	9.753001	-0.177516	-4.473183	-0.648431	-0.676025	-0.140381	0.22876
847.0	4.141747	-3.240978	10.130451	-0.323458	-5.115192	-1.013269	-0.660645	-0.14502	0.263672
848.0	2.769425	-4.300737	10.295177	-0.664228	-5.791134	-1.508787	-0.638184	-0.160645	0.307129
849.0	3.894	-5.043307	9.828605	-0.550522	-6.704941	-2.213599	-0.613525	-0.174072	0.350586
850.0	5.570802	-5.889141	10.758638	-0.465736	-7.55875	-2.903171	-0.577881	-0.193848	0.404785
851.0	10.951196	-4.955618	10.401415	-0.639079	-8.506889	-3.298729	-0.540039	-0.21167	0.448242
852.0	21.837244	0.92809	7.115037	-0.326553	-9.195714	-3.16392	-0.482666	-0.227295	0.502686
853.0	32.435353	5.081351	3.892386	-0.963148	-9.382652	-2.59523	-0.433594	-0.253418	0.546143
854.0	42.969174	-9.715908	4.353305	-2.154312	-8.765975	-2.075167	-0.391846	-0.266602	0.574463
855.0	35.98498	-9.474717	8.336197	0.495126	-6.197978	-2.426239	-0.352295	-0.270996	0.602783
856.0	27.820559	-10.041867	15.204284	-0.211673	-5.577272	-2.581986	-0.314941	-0.281982	0.624756
857.0	14.95193	-10.723011	19.628104	0.94241	-3.981469	-2.618853	-0.290771	-0.281982	0.637695
858.0	1.386524	-6.859865	18.435826	0.390705	-3.195294	-2.638917	-0.273193	-0.286621	0.652832
859.0	14.270866	-2.62249	20.984688	-0.39656	-2.354704	-2.131001	-0.263916	-0.303711	0.657471
860.0	20.845398	-11.201887	20.301923	-1.332823	0.639083	-0.658351	-0.283447	-0.301758	0.657227
861.0	5.555974	-11.39005	17.766018	-0.813103	2.502095	-0.03989	-0.309326	-0.312256	0.644287
862.0	0.419125	-11.829018	14.713204	-0.382187	3.447004	0.284106	-0.346924	-0.299561	0.639893
863.0	-1.833965	-6.64608	12.965638	0.047058	3.948112	0.427681	-0.383789	-0.303711	0.626709
864.0	-1.225708	-3.090186	11.571672	-1.141375	4.138798	0.767801	-0.422852	-0.303711	0.611572
865.0	-0.959352	-5.727375	8.542602	-0.350867	3.951426	0.885905	-0.462158	-0.301514	0.589844
866.0	3.120532	-0.438968	8.509643	-0.929777	4.140127	1.251597	-0.505615	-0.307617	0.559326
867.0	7.261135	-3.657309	6.295203	-1.49432	4.703975	1.537086	-0.555908	-0.301025	0.524658
868.0	7.300242	-2.874136	6.162343	-1.147235	5.577611	1.835146	-0.589111	-0.293945	0.476807
869.0	7.192654	-3.442856	5.451749	-1.252876	6.060125	2.067193	-0.632813	-0.289063	0.424805
870.0	6.167384	-3.410837	5.352409	-0.99496	6.415181	2.234885	-0.674805	-0.275635	0.372559
871.0	5.997964	-2.534221	5.493561	-0.755649	6.521844	2.300385	-0.70166	-0.26416	0.311768
872.0	6.709258	-1.012936	5.569932	-0.655607	6.545097	2.342516	-0.730469	-0.250488	0.250977
873.0	8.106841	-0.024342	5.936497	-0.726346	6.558439	2.389675	-0.750732	-0.236816	0.185791
874.0	8.848763	0.337487	6.256647	-1.080592	6.462345	2.396356	-0.768799	-0.225342	0.131592
875.0	9.771838	-0.055103	6.632956	-1.321293	6.303505	2.394394	-0.777832	-0.216064	0.077393
876.0	11.126909	-0.251395	7.095811	-1.460706	6.103586	2.38364	-0.785156	-0.202393	0.014404
877.0	13.035734	-0.402056	7.488165	-1.445492	5.995472	2.333509	-0.783691	-0.186523	-0.037842
878.0	14.606154	-0.280829	8.109432	-1.624993	5.847038	2.304827	-0.786621	-0.166504	-0.089844
879.0	15.823266	-0.953457	8.447327	-1.580572	5.739474	2.330778	-0.781006	-0.148438	-0.144043
880.0	16.205535	-0.728815	9.014926	-1.504767	5.569772	2.422525	-0.775146	-0.13501	-0.191895
881.0	16.955197	-1.510986	9.513416	-1.43876	5.317499	2.549667	-0.767334	-0.112793	-0.237549
882.0	17.487845	-1.933408	10.032273	-1.215436	5.039076	2.679608	-0.75293	-0.096924	-0.282959
883.0	17.382303	-1.581776	10.635009	-1.020111	4.703742	2.775674	-0.74292	-0.072754	-0.324219
884.0	17.410957	-1.02184	11.129529	-0.846859	4.340907	2.836754	-0.724121	-0.055176	-0.354736
885.0	17.923772	-0.657301	11.254806	-0.927964	3.864234	2.909144	-0.714111	-0.035156	-0.391602
886.0	19.550215	-1.800519	10.612635	-1.117596	3.310087	2.987416	-0.695313	-0.013184	-0.415527
887.0	22.168519	-2.422624	9.565576	-0.838905	2.78323	3.123376	-0.681152	0.008789	-0.44165
888.0	26.451265	0.615825	7.990899	-0.464747	2.291676	3.40893	-0.662598	0.034668	-0.446045
889.0	31.994647	0.042458	3.391067	-0.753307	2.361113	3.724708	-0.650146	0.052002	-0.463623
890.0	37.435556	-5.283393	-4.688231	-0.355751	3.246826	3.490006	-0.62915	0.071777	-0.487305
891.0	37.576445	4.416995	-10.117849	1.45071	4.824839	3.093167	-0.592285	0.074707	-0.519775
892.0	32.052212	16.600025	-13.882793	1.37552	5.706824	3.296447	-0.560303	0.090332	-0.55249
893.0	22.572196	15.908872	-18.650794	-0.048191	5.322063	3.362963	-0.532715	0.10376	-0.584961
894.0	7.617761	9.206606	-20.127957	0.198201	3.654427	2.595991	-0.509277	0.114746	-0.5979
895.0	2.768831	6.35969	-17.241626	1.007466	0.20868	1.175026	-0.513184	0.108154	-0.593506
896.0	12.905259	8.740386	-10.089811	0.078053	-2.240242	-0.112698	-0.52832	0.105713	-0.578369
897.0	22.755319	7.506189	-4.061925	0.168611	-2.338974	-0.832247	-0.547607	0.099121	-0.569824
898.0	18.620292	5.509253	4.013178	-0.742029	-1.517291	-1.290677	-0.558594	0.096924	-0.563232
899.0	14.863661	-14.81522	-3.567612	-0.073903	-3.45643	-2.753833	-0.570313	0.064209	-0.543701
900.0	-17.894189	-1.018764	11.751671	3.799681	-1.207214	-2.73775	-0.591064	0.038086	-0.530518
901.0	8.99191	12.352081	18.546973	0.676218	-5.805386	-1.594209	-0.614014	0.018311	-0.498047
902.0	16.701297	-1.730668	2.158445	0.570285	-4.956664	-0.536287	-0.635742	0.015625	-0.463379
903.0	20.592642	1.377554	8.757186	0.51243	-5.326584	-0.279666	-0.663818	0.010742	-0.439453
904.0	20.818271	0.366753	10.956624	0.593683	-4.57901	-0.675378	-0.678223	-0.004639	-0.406982
905.0	17.463819	4.554999	9.868549	0.373659	-4.114046	-1.235333	-0.690918	-0.011475	-0.383057
906.0	16.080216	-1.163354	8.019396	-0.837391	-3.713037	-1.022017	-0.699463	-0.018311	-0.359131
907.0	12.660942	-1.763976	8.271685	0.56822	-2.844315	-0.523455	-0.712158	-0.025146	-0.337402
908.0	13.156784	-0.981075	8.647138	-0.047839	-2.822771	-0.426229	-0.725098	-0.025391	-0.315918
909.0	19.191135	-3.678485	7.190906	-0.290381	-2.320917	-0.86114	-0.729004	-0.038574	-0.302734
910.0	13.64005	-2.830273	5.7156	0.350129	-1.279229	-0.718997	-0.731201	-0.038818	-0.291992
911.0	9.728815	-0.900246	8.071184	0.011496	-1.143825	-0.426428	-0.733154	-0.045166	-0.289795
912.0	9.546835	0.185663	7.845879	0.260637	-0.800267	-0.300912	-0.735107	-0.04541	-0.278809
913.0	8.543728	-2.498923	6.676805	-0.091833	-0.676434	-0.172546	-0.737305	-0.047607	-0.278809
914.0	7.879157	-2.06354	7.702808	-0.01664	-0.549173	-0.112354	-0.739502	-0.047607	-0.274658
915.0	7.805025	-1.780074	7.740877	-0.099903	-0.427413	-0.070433	-0.737305	-0.047607	-0.270264
916.0	7.947661	-0.657184	7.662084	-0.186845	-0.387521	0.021934	-0.741699	-0.047852	-0.265869
917.0	7.832487	-2.002641	6.87754	-0.454084	-0.312892	0.076112	-0.739746	-0.043457	-0.268066
918.0	7.02314	-2.115628	7.542611	-0.323817	-0.278485	0.109658	-0.737793	-0.037109	-0.259521
919.0	7.609579	-1.532724	7.250248	-0.319231	-0.265843	0.152146	-0.739746	-0.04126	-0.259521
920.0	7.161701	-2.526717	6.989801	-0.379079	-0.231498	0.17397	-0.741943	-0.041504	-0.257324
921.0	7.662279	-2.037159	6.592872	-0.350538	-0.197317	0.195139	-0.744141	-0.04126	-0.261719
922.0	7.396189	-2.134483	6.559898	-0.385235	-0.158275	0.234328	-0.744385	-0.034912	-0.255127
923.0	7.070014	-2.375694	6.559041	-0.383798	-0.135487	0.243092	-0.742188	-0.032715	-0.257324
924.0	7.037257	-2.871751	6.197056	-0.38289	-0.115931	0.223934	-0.744629	-0.028564	-0.255127
925.0	6.806977	-3.211372	6.0627	-0.338483	-0.092139	0.187762	-0.744385	-0.030762	-0.257324
926.0	6.779696	-3.388828	6.090153	-0.266629	-0.071031	0.141399	-0.744873	-0.021973	-0.255127
927.0	6.551774	-3.13008	6.098989	-0.209485	-0.069881	0.102661	-0.749023	-0.026367	-0.25293
928.0	6.805995	-2.814701	6.428809	-0.1863	-0.0999	0.064904	-0.742676	-0.022217	-0.25293
929.0	6.895446	-2.213307	6.608162	-0.183637	-0.092383	0.07081	-0.744873	-0.022217	-0.250977
930.0	6.468519	-2.789311	6.431157	-0.248509	-0.141813	0.047383	-0.749512	-0.013428	-0.253174
931.0	6.642681	-2.710939	6.343963	-0.180671	-0.184143	0.032319	-0.744873	-0.022217	-0.250977
932.0	6.48719	-2.732314	6.268111	-0.162369	-0.219815	0.001533	-0.738281	-0.02002	-0.244385
933.0	6.565185	-2.934514	6.284336	-0.125087	-0.264108	-0.033761	-0.744873	-0.017822	-0.248779
934.0	6.76807	-2.884865	6.432556	-0.099668	-0.28478	-0.062706	-0.74707	-0.02002	-0.246582
935.0	6.674835	-2.894772	6.361308	-0.099815	-0.29758	-0.097689	-0.746826	-0.026611	-0.246582
936.0	6.910219	-3.078937	6.251837	-0.092924	-0.319589	-0.129308	-0.749023	-0.024414	-0.23999
937.0	6.77839	-3.113176	6.086077	-0.084191	-0.317973	-0.177954	-0.749023	-0.022461	-0.237793
938.0	6.767596	-3.314025	6.192032	-0.038529	-0.335728	-0.216507	-0.753174	-0.026611	-0.237793
939.0	6.855358	-2.970334	6.349759	0.031932	-0.334218	-0.25449	-0.750977	-0.026611	-0.235596
940.0	6.796647	-2.833934	6.316491	0.027581	-0.366664	-0.285044	-0.750977	-0.029053	-0.227051
941.0	6.723013	-2.904341	6.28131	0.048476	-0.413785	-0.324847	-0.750732	-0.0354	-0.231445
942.0	6.667828	-2.955058	6.309965	0.079231	-0.469924	-0.362148	-0.75708	-0.039795	-0.220459
943.0	6.693871	-3.129366	6.189078	0.135175	-0.527159	-0.407038	-0.750488	-0.039795	-0.216064
944.0	6.635051	-3.167435	6.253668	0.186435	-0.591969	-0.461848	-0.754639	-0.046387	-0.216064
945.0	6.922188	-3.045391	6.27533	0.268805	-0.659676	-0.500364	-0.754395	-0.050781	-0.200928
946.0	7.552078	-2.462435	6.554405	0.375851	-0.693588	-0.494432	-0.754395	-0.050781	-0.203125
947.0	7.092809	-2.433961	6.693842	0.360003	-0.785109	-0.488848	-0.758545	-0.057373	-0.200928
948.0	7.555276	-1.573957	7.230303	0.469308	-0.951243	-0.459767	-0.762695	-0.05957	-0.189941
949.0	7.756222	-2.101142	7.493986	0.279309	-1.065105	-0.452706	-0.755859	-0.066162	-0.179199
950.0	7.911845	-1.548058	7.832854	0.379504	-1.117145	-0.410376	-0.758057	-0.068359	-0.17041
951.0	7.385713	-3.230089	6.972415	0.520837	-1.259352	-0.397	-0.764404	-0.075195	-0.159668
952.0	7.83856	0.04151	8.061933	0.540716	-1.436118	-0.322635	-0.770508	-0.07959	-0.144531
953.0	7.824649	-2.625111	7.194576	0.420899	-1.611203	-0.279847	-0.763916	-0.082031	-0.131348
954.0	7.579865	-0.990118	8.009212	0.54797	-1.768851	-0.23526	-0.770508	-0.080078	-0.114014
955.0	7.396568	-2.731173	7.532635	0.560865	-2.008946	-0.204624	-0.770264	-0.08667	-0.09668
956.0	6.969077	-2.04633	8.034803	0.475132	-2.279006	-0.246947	-0.770264	-0.084717	-0.079346
957.0	6.956882	-2.342378	8.055897	0.463994	-2.583591	-0.259407	-0.771973	-0.095947	-0.057617
958.0	6.631143	-1.365407	8.810744	0.305019	-2.923929	-0.298223	-0.769775	-0.096191	-0.033936
959.0	6.108934	-2.056164	8.895784	0.200817	-3.425812	-0.290528	-0.773926	-0.098877	0.000977
960.0	6.02638	-1.162261	9.239128	0.214202	-4.046353	-0.374937	-0.769531	-0.099121	0.026855
961.0	5.893011	-1.862171	8.80005	-0.031074	-4.459175	-0.462617	-0.76709	-0.104004	0.065918
962.0	5.037532	-1.318103	9.086211	-0.126485	-5.029278	-0.599944	-0.762451	-0.108887	0.109375
963.0	4.74152	-2.678402	9.380049	-0.377119	-5.75668	-0.774316	-0.753174	-0.122314	0.144043
964.0	4.810049	-5.576386	8.841021	-0.498621	-6.625334	-1.08089	-0.730957	-0.129395	0.202637
965.0	7.928013	-8.147627	8.245207	-0.568733	-7.592753	-1.479089	-0.717041	-0.147217	0.259033
966.0	13.994357	-9.926743	6.142514	-0.355426	-8.366207	-2.004481	-0.681641	-0.160889	0.315674
967.0	22.440564	-7.872446	4.319533	-0.282526	-8.403676	-2.401993	-0.648193	-0.178711	0.369873
968.0	26.077157	-4.297801	4.046009	0.073736	-8.000327	-2.604192	-0.605713	-0.200684	0.424316
969.0	26.532262	-6.238832	5.873066	-0.553205	-7.937741	-2.760124	-0.570068	-0.218506	0.467773
970.0	29.169067	-7.95963	7.088735	0.432298	-6.98874	-3.054746	-0.526123	-0.231689	0.509033
971.0	24.509983	-9.157378	12.724192	0.447608	-6.387946	-3.265339	-0.479736	-0.244873	0.539551
972.0	22.286954	-7.326542	18.330995	1.036703	-5.423314	-3.037911	-0.44458	-0.253662	0.565674
973.0	16.589939	-6.104161	21.178773	0.555277	-4.602353	-2.595167	-0.413574	-0.266846	0.591797
974.0	4.211989	-6.739391	18.356605	0.111681	-3.467993	-2.081533	-0.389404	-0.269043	0.602783
975.0	17.04012	-1.247555	14.888975	-0.633477	-2.737622	-1.178609	-0.373779	-0.279785	0.609375
976.0	31.938071	-12.423713	17.97695	-1.436436	0.392339	-0.444193	-0.384521	-0.283936	0.596436
977.0	10.773568	-13.017339	15.954068	0.520185	3.986742	0.557676	-0.406494	-0.279541	0.581055
978.0	2.490569	-11.511291	14.149729	0.611346	4.442184	0.404772	-0.435059	-0.275146	0.563721
979.0	-2.41144	-6.625619	12.577192	1.676459	5.108523	0.202529	-0.465576	-0.270752	0.546387
980.0	-2.642475	-1.711593	11.416474	0.882673	4.677986	0.104038	-0.485596	-0.266113	0.524658
981.0	1.351747	-1.097072	8.665529	0.802906	4.474921	-0.124994	-0.511475	-0.270508	0.511475
982.0	3.684055	2.457947	8.270107	0.361611	5.002511	-0.092028	-0.533447	-0.267822	0.476807
983.0	5.467296	1.696623	7.25792	-1.04099	5.382539	0.044707	-0.561279	-0.282715	0.442139
984.0	7.097773	1.101574	6.555923	-1.569766	6.102233	0.230553	-0.593994	-0.284424	0.405273
985.0	6.974535	-1.058135	5.327571	-2.093715	6.647495	0.304465	-0.621826	-0.294678	0.357666
986.0	6.883372	-2.261374	5.488882	-2.153429	7.075599	0.313401	-0.649902	-0.304688	0.303467
987.0	7.943031	-3.554896	4.798508	-2.043797	7.339855	0.301539	-0.671875	-0.306152	0.24707
988.0	8.417674	-3.520241	4.543328	-1.724976	7.628871	0.278338	-0.693604	-0.307617	0.184082
989.0	8.503736	-2.826628	4.365416	-1.444002	7.812885	0.350582	-0.710938	-0.313232	0.123535
990.0	8.107215	-1.433547	5.039088	-1.473313	7.766277	0.475952	-0.722168	-0.308105	0.064941
991.0	8.381907	-2.174174	4.734211	-1.75098	7.462991	0.623978	-0.72876	-0.307373	0.00415
992.0	8.174472	-1.684045	5.361748	-1.81341	7.147964	0.777597	-0.735596	-0.302246	-0.062988
993.0	9.491616	-2.137859	5.582867	-2.1521	6.547929	0.921936	-0.733887	-0.294922	-0.117188
994.0	12.483265	-1.577576	6.36601	-2.420755	5.97047	1.150133	-0.730469	-0.274902	-0.173828
995.0	14.933243	-3.492431	6.02708	-2.607304	5.541601	1.476687	-0.730957	-0.265625	-0.22583
996.0	16.076459	-5.819407	6.411545	-2.282337	5.040426	1.747768	-0.723145	-0.243408	-0.264893
997.0	17.991407	-5.315806	7.186282	-1.678894	4.5377	2.073907	-0.710938	-0.223389	-0.30835
998.0	18.247254	-3.475287	8.125724	-1.180447	4.088409	2.43058	-0.703125	-0.201416	-0.341064
999.0	18.678638	-2.464899	9.478679	-0.871643	3.621721	2.732188	-0.69751	-0.179443	-0.369141
1000.0	20.424353	-1.417882	11.013152	-0.625325	3.330192	2.878443	-0.692139	-0.15332	-0.393066
1001.0	23.817517	-0.80975	11.322924	-0.984351	3.147806	2.906779	-0.679688	-0.135742	-0.416992
1002.0	28.061283	1.161521	10.801249	-1.029186	3.413169	3.012011	-0.672363	-0.103027	-0.445313
1003.0	29.645003	4.972911	9.735712	-1.17736	3.923398	3.306309	-0.651611	-0.078857	-0.47583
1004.0	28.477818	1.695821	6.163643	-1.333799	4.459608	3.527809	-0.635254	-0.052734	-0.508545
1005.0	26.275838	-3.851452	0.927407	-0.454661	4.932464	3.206083	-0.607666	-0.034912	-0.538818
1006.0	24.621355	0.556546	-1.990843	1.116338	5.303733	2.627756	-0.584229	-0.025635	-0.571289
1007.0	22.599171	11.005153	-4.964164	0.913879	5.089021	2.267833	-0.554199	-0.014404	-0.604004
1008.0	21.61518	18.977475	-10.954435	-0.407614	4.400034	2.128426	-0.5354	0.000977	-0.621338
1009.0	18.615302	21.272492	-16.33374	-2.756024	3.294881	1.924117	-0.510498	0.031494	-0.643066
1010.0	16.751236	14.300643	-19.050024	-4.35698	1.715444	1.39354	-0.505371	0.068115	-0.645508
1011.0	14.430508	7.347147	-16.010873	-4.106633	0.245399	0.526689	-0.506348	0.09375	-0.638916
1012.0	18.06694	-1.531263	-11.330002	-2.867464	-0.912138	-0.737016	-0.513184	0.102295	-0.632568
1013.0	21.001383	-3.751184	-5.993271	-0.882669	-1.330983	-1.424898	-0.528076	0.093506	-0.628174
1014.0	19.431024	-0.28093	1.31614	0.788105	-0.906999	-1.502109	-0.533936	0.078369	-0.628174
1015.0	6.968926	-21.494293	3.581223	1.336536	-2.38972	-2.711006	-0.548096	0.048096	-0.612793
1016.0	-15.691717	-7.057958	18.903567	5.622539	-1.000081	-2.86744	-0.565674	-0.001709	-0.601807
1017.0	4.103472	7.876058	15.148457	5.415388	-3.102001	-2.072066	-0.579102	-0.044922	-0.586426
1018.0	12.903683	22.821439	5.232226	3.620375	-3.738927	-1.56399	-0.602051	-0.069092	-0.560303
1019.0	16.748987	6.130064	10.34021	1.275529	-4.503095	-1.561369	-0.618652	-0.093018	-0.531982
1020.0	17.416225	9.691574	13.966983	1.696059	-3.948412	-1.375795	-0.64209	-0.104248	-0.508301
1021.0	16.797976	0.622231	8.887595	1.098688	-3.615998	-1.018829	-0.66333	-0.111084	-0.482178
1022.0	11.712536	1.744325	9.145536	0.715144	-3.648326	-0.69049	-0.682861	-0.115967	-0.460449
1023.0	15.315811	-1.857041	8.89768	0.860213	-2.930288	-0.245232	-0.691162	-0.124756	-0.443115
1024.0	10.228883	5.690927	9.089587	0.762063	-2.649984	-0.304899	-0.706055	-0.129395	-0.421387
1025.0	9.561731	1.42487	7.64613	0.097164	-2.356995	-0.610876	-0.710205	-0.13623	-0.397705
1026.0	11.683584	-1.170138	7.436623	-0.105601	-2.186186	-0.722508	-0.720703	-0.142822	-0.386719
1027.0	12.624337	-3.230937	6.893523	0.207714	-1.811165	-0.642794	-0.716064	-0.149414	-0.371582
1028.0	10.06401	-2.619644	7.131362	0.294203	-1.490523	-0.65392	-0.726807	-0.156006	-0.36084
1029.0	10.813393	-0.916973	8.566335	0.36768	-1.339662	-0.713135	-0.733154	-0.158447	-0.356445
1030.0	11.459279	-2.11318	6.943708	0.404695	-0.81704	-0.74325	-0.730469	-0.169189	-0.349854
1031.0	7.668428	-0.687844	7.918584	0.450905	-0.663866	-0.567209	-0.732666	-0.171387	-0.347656
1032.0	8.538534	0.963481	8.434037	0.561088	-0.522441	-0.484251	-0.732422	-0.175781	-0.338867
1033.0	8.00424	0.206366	7.690749	0.252742	-0.455388	-0.378101	-0.72998	-0.184326	-0.334473
1034.0	8.022676	-0.799018	7.588597	0.264473	-0.360391	-0.290022	-0.732178	-0.182373	-0.33252
1035.0	7.034425	-1.201699	7.245658	0.225772	-0.327986	-0.260177	-0.738525	-0.186768	-0.321533
1036.0	7.222722	-2.051196	6.888079	0.268981	-0.290025	-0.258151	-0.736084	-0.193115	-0.328125
1037.0	7.222438	-2.539847	6.683019	0.404377	-0.236762	-0.235482	-0.742676	-0.193359	-0.321533
1038.0	7.436418	-1.921847	6.989216	0.529336	-0.176735	-0.21713	-0.733887	-0.195313	-0.325928
1039.0	7.67551	-1.244379	6.938536	0.445847	-0.106371	-0.21872	-0.740234	-0.199951	-0.312744
1040.0	7.439448	-1.002781	7.031633	0.373908	-0.037145	-0.220582	-0.740234	-0.199707	-0.317139
1041.0	6.903836	-1.054524	6.983762	0.348086	0.009467	-0.225304	-0.742188	-0.206299	-0.312744
1042.0	6.101546	-1.51221	7.30013	0.345687	-0.004328	-0.22747	-0.742188	-0.206299	-0.319336
1043.0	6.340671	-1.670153	7.047639	0.394041	-0.036348	-0.227542	-0.735596	-0.208496	-0.30835
1044.0	6.372778	-1.29982	7.143046	0.414339	-0.055882	-0.2274	-0.737549	-0.210693	-0.312744
1045.0	6.516873	-1.389518	7.037426	0.403	-0.084687	-0.232698	-0.735352	-0.215088	-0.306152
1046.0	6.506444	-1.079705	7.063354	0.487324	-0.081173	-0.233513	-0.73291	-0.217041	-0.303955
1047.0	6.631645	-0.43007	6.992614	0.46078	-0.092594	-0.21786	-0.730713	-0.221436	-0.312744
1048.0	6.1431	-0.543494	7.017136	0.395501	-0.123496	-0.185644	-0.732666	-0.22583	-0.303955
1049.0	5.737437	-0.031923	7.407526	0.434579	-0.187596	-0.146242	-0.730225	-0.22998	-0.310547
1050.0	6.646031	-0.284902	7.233345	0.18947	-0.332659	-0.137497	-0.73877	-0.234375	-0.301758
1051.0	6.515873	0.010965	7.149434	0.408975	-0.297832	-0.108317	-0.740967	-0.234375	-0.299561
1052.0	6.884634	-0.011571	7.21563	0.32615	-0.361098	-0.080815	-0.73877	-0.232422	-0.291016
1053.0	7.113492	0.659744	7.304841	0.31807	-0.386699	-0.043967	-0.743164	-0.236816	-0.288818
1054.0	7.032576	0.456679	7.325527	0.178213	-0.460256	-0.00929	-0.745361	-0.234619	-0.284424
1055.0	7.256433	0.576603	7.525628	0.169782	-0.553841	0.02789	-0.745117	-0.236816	-0.284424
1056.0	7.513264	-0.112528	6.951982	0.003355	-0.611898	0.048036	-0.740967	-0.232666	-0.273682
1057.0	7.110826	-0.218361	7.289896	0.111536	-0.598619	0.035436	-0.751709	-0.237061	-0.273682
1058.0	7.15281	-0.168398	7.206834	0.079163	-0.644076	0.027473	-0.751953	-0.232666	-0.271484
1059.0	7.093447	0.174798	7.439744	0.068369	-0.685775	0.001899	-0.747314	-0.237061	-0.264893
1060.0	7.034393	0.548845	7.76883	-0.034964	-0.797651	-0.017949	-0.753906	-0.23291	-0.249756
1061.0	7.560738	-1.182059	7.672074	-0.177574	-0.984531	-0.088153	-0.753906	-0.235107	-0.249756
1062.0	7.095857	-1.426275	8.629971	-0.022192	-1.005213	-0.183066	-0.758301	-0.233154	-0.241211
1063.0	8.362794	-1.372373	8.291977	0.176456	-1.087935	-0.187095	-0.753662	-0.239746	-0.234619
1064.0	6.632725	-0.025495	9.791831	-0.147168	-1.24683	-0.228832	-0.758057	-0.23999	-0.217285
1065.0	7.915336	-0.659398	8.211108	-0.201131	-1.611069	-0.27155	-0.766602	-0.242188	-0.206543
1066.0	7.620148	1.906827	8.664876	-0.049408	-1.711174	-0.124553	-0.764404	-0.240234	-0.191406
1067.0	7.405455	0.898912	8.496623	-0.38361	-2.016156	0.04064	-0.773193	-0.238525	-0.174072
1068.0	7.348849	-0.163155	8.337591	-0.240504	-2.20162	0.172068	-0.770996	-0.236328	-0.163086
1069.0	6.737189	-0.129039	8.680689	-0.251177	-2.517423	0.205965	-0.781982	-0.234619	-0.139404
1070.0	6.52181	-0.188726	8.638312	-0.322254	-2.928536	0.205411	-0.781982	-0.23291	-0.115479
1071.0	6.554613	-1.411376	8.656704	-0.586784	-3.303656	0.127003	-0.783936	-0.239746	-0.089355
1072.0	6.696103	-2.906192	8.700363	-0.443354	-3.653753	-0.021887	-0.78833	-0.235596	-0.063477
1073.0	6.86437	-2.404369	10.062216	-0.282765	-3.906992	-0.174326	-0.78833	-0.233887	-0.031006
1074.0	4.205007	-4.583973	9.039416	-0.56163	-4.290245	-0.494788	-0.785889	-0.240723	-0.002686
1075.0	3.88319	-4.187081	10.40398	-0.488832	-5.105461	-0.928105	-0.789551	-0.254395	0.042725
1076.0	3.688402	-5.019875	9.716106	-0.680097	-5.811635	-1.496364	-0.77832	-0.263672	0.090576
1077.0	5.042526	-6.26432	9.578065	-0.602562	-6.661183	-2.214413	-0.757568	-0.287842	0.144775
1078.0	7.448025	-5.131204	10.300195	-0.428222	-7.337764	-2.782144	-0.743408	-0.312256	0.197021
1079.0	14.824016	-2.803759	8.326924	-0.713556	-8.167354	-3.029071	-0.707764	-0.334473	0.253662
1080.0	22.357662	2.177214	5.606444	-0.367312	-8.393273	-2.772107	-0.67627	-0.352295	0.320801
1081.0	26.371089	1.41207	5.626575	-1.04791	-8.558357	-2.23765	-0.638428	-0.370117	0.37085
1082.0	31.392685	-11.109329	6.076334	-0.786369	-8.071458	-2.061783	-0.60083	-0.383545	0.416504
1083.0	23.403106	-5.674122	10.062477	0.767982	-6.633877	-2.361226	-0.559082	-0.392578	0.455811
1084.0	23.208457	-7.634878	13.547238	0.270576	-6.569713	-2.477278	-0.523438	-0.412354	0.499268
1085.0	22.673535	-6.875699	17.082589	0.674515	-5.282253	-2.334948	-0.486328	-0.414551	0.523193
1086.0	9.193816	-4.83636	18.206537	0.504155	-3.407799	-2.157122	-0.463867	-0.427734	0.540527
1087.0	11.703699	-7.24868	17.288009	-0.339943	-1.937097	-1.414588	-0.452881	-0.429932	0.544922
1088.0	29.929111	-11.939836	20.699564	-0.480165	1.233794	-0.229094	-0.46167	-0.431885	0.540527
1089.0	3.860584	-13.369894	19.791547	1.182272	4.12393	0.448687	-0.488037	-0.42749	0.525391
1090.0	-5.811172	-10.956936	17.958318	1.227456	4.055007	0.373173	-0.508057	-0.416748	0.520996
1091.0	-4.537039	-3.165361	17.333791	1.251259	4.083043	0.492903	-0.53418	-0.412354	0.507813
1092.0	-0.511901	-4.63066	14.016718	0.628821	3.966135	0.529415	-0.560791	-0.405762	0.490479
1093.0	2.613077	0.344584	13.00858	0.539475	4.532027	0.854664	-0.580566	-0.401367	0.470947
1094.0	6.416102	-1.222261	10.945579	-0.374349	5.39685	1.008019	-0.617676	-0.396729	0.442627
1095.0	5.959461	-1.110678	9.832325	-0.74942	6.287768	1.166672	-0.644043	-0.394287	0.401367
1096.0	6.49166	-1.490108	9.030204	-1.09474	6.868101	1.241767	-0.683594	-0.387451	0.35791
1097.0	8.124612	-1.412994	8.231438	-1.344398	7.289887	1.251321	-0.71875	-0.384521	0.308105
1098.0	9.172329	-0.320329	7.459812	-1.425546	7.672875	1.276718	-0.745361	-0.375488	0.255859
1099.0	9.790719	0.802939	6.659052	-1.66122	7.852701	1.304336	-0.773926	-0.368164	0.195068
1100.0	9.459901	1.284397	5.968701	-2.046291	7.788592	1.331231	-0.79834	-0.361084	0.138672
1101.0	8.876241	0.872421	5.430261	-2.239068	7.47453	1.320138	-0.818359	-0.354004	0.08667
1102.0	9.033991	0.374175	5.302122	-2.341439	6.927719	1.282965	-0.836426	-0.340576	0.038818
1103.0	10.385176	-0.456839	5.828683	-2.115096	6.391253	1.244292	-0.86084	-0.327148	-0.006836
1104.0	12.763346	0.13913	6.824735	-2.288675	5.768226	1.229249	-0.876709	-0.313965	-0.035156
1105.0	14.914598	1.740599	7.886404	-2.399018	5.345261	1.334774	-0.905518	-0.302734	-0.067627
1106.0	16.708208	-0.287461	7.356912	-2.765836	4.968539	1.559748	-0.940918	-0.289551	-0.106934
1107.0	16.873676	-1.292264	7.650012	-2.469359	4.794268	1.731399	-0.980713	-0.27832	-0.148193
1108.0	16.715362	-2.417776	7.503822	-2.495368	4.494511	1.91932	-1.031982	-0.245605	-0.198242
1109.0	16.680445	-2.595493	7.579602	-2.013001	4.269527	2.184958	-1.087646	-0.218994	-0.267822
1110.0	16.434917	-2.344933	7.455267	-1.761728	3.890419	2.506775	-1.130859	-0.175293	-0.337402
1111.0	17.162698	-2.682551	7.127381	-1.483903	3.407682	2.879939	-1.172363	-0.118408	-0.411621
1112.0	19.411218	-3.922621	6.564752	-1.11953	2.93945	3.233719	-1.205566	-0.050781	-0.483398
1113.0	23.086603	-4.573491	6.196146	-0.566218	2.75348	3.48939	-1.228271	0.02124	-0.568359
1114.0	26.282147	-2.373838	5.426021	0.119447	2.961183	3.755556	-1.233643	0.102051	-0.655518
1115.0	26.842783	1.65263	4.796974	0.771832	3.396632	4.186302	-1.193359	0.180908	-0.749023
1116.0	25.062027	3.179462	3.250366	1.059085	3.831018	4.583892	-1.148926	0.263916	-0.840332
1117.0	21.313012	-2.001693	-0.348878	1.304603	4.015367	4.462881	-1.070801	0.32373	-0.931641
1118.0	16.41826	-5.354594	-3.421727	2.432651	3.919881	3.780462	-0.987549	0.359375	-0.998779
1119.0	17.08274	-1.816951	-5.854555	3.865244	3.137042	2.931922	-0.911865	0.368896	-1.055176
1120.0	21.843212	9.510883	-8.181131	4.483757	2.853784	2.371839	-0.835449	0.359131	-1.104736
1121.0	19.807483	21.637792	-9.545819	3.058224	2.413418	2.19265	-0.774658	0.366211	-1.132813
1122.0	17.85594	21.841243	-10.964118	-0.53941	1.273444	1.843318	-0.719971	0.411621	-1.139404
1123.0	16.925404	11.15695	-12.536021	-2.445101	0.300776	1.008725	-0.692871	0.441895	-1.139648
1124.0	15.869356	4.741237	-9.692651	-2.147892	-0.442824	-0.34276	-0.683105	0.474365	-1.139648
1125.0	18.491066	1.544276	-6.977881	-2.157682	-1.160058	-1.617185	-0.683838	0.493652	-1.139893
1126.0	10.390542	-1.200414	2.695196	-1.811905	-1.347465	-3.137373	-0.710449	0.501953	-1.124756
1127.0	12.446218	0.975462	-6.482398	-0.372085	-2.340589	-4.055933	-0.727295	0.486816	-1.131104
1128.0	-14.208549	-13.608233	15.310757	-0.935261	-4.217961	-4.251264	-0.788086	0.484131	-1.107422
1129.0	20.463295	-3.792534	10.555848	0.780046	-4.259389	-2.371606	-0.82251	0.477295	-1.090088
1130.0	15.016546	-7.514862	-0.490766	0.23328	-5.193704	-1.028144	-0.862061	0.485352	-1.062012
1131.0	21.902896	-5.235375	9.158081	1.102691	-5.324926	-0.354068	-0.887939	0.484863	-1.031738
1132.0	22.069972	-0.402807	9.683127	1.209638	-4.506709	-0.693469	-0.924561	0.47583	-1.014404
1133.0	18.572368	9.119839	11.473389	0.463633	-3.933839	-1.262894	-0.955078	0.479736	-0.986328
1134.0	15.475668	-1.460136	8.067853	-0.09362	-3.089899	-1.285617	-0.980957	0.4729	-0.973389
1135.0	10.175579	-1.733245	7.506254	0.643938	-2.644087	-0.958876	-1.000244	0.461914	-0.958252
1136.0	8.318487	-0.582538	7.484351	0.249128	-2.529118	-0.836355	-1.019775	0.463867	-0.938721
1137.0	19.161978	-4.540857	7.404854	-0.068519	-2.476828	-1.294123	-1.034424	0.448486	-0.923584
1138.0	14.822936	-2.313488	5.322838	0.782538	-1.090111	-1.313568	-1.047119	0.437744	-0.92334
1139.0	8.701268	-1.668439	7.571492	0.885475	-0.742774	-1.045462	-1.055176	0.424561	-0.919189
1140.0	8.515059	-0.4172	7.462392	0.901953	-0.640135	-1.019304	-1.06543	0.407471	-0.918945
1141.0	9.41877	-1.564595	6.599774	0.654649	-0.507214	-0.8539	-1.069092	0.392334	-0.918945
1142.0	8.786713	-0.621342	7.636642	0.847953	-0.279804	-0.678432	-1.066406	0.379395	-0.921143
1143.0	7.853983	-0.106257	7.803832	0.607713	-0.236815	-0.507489	-1.072754	0.373047	-0.920898
1144.0	7.650988	-0.519822	7.542464	0.501797	-0.242082	-0.345278	-1.079102	0.368652	-0.920898
1145.0	7.403619	-0.639822	7.469495	0.403822	-0.256294	-0.252579	-1.081055	0.362305	-0.925293
1146.0	7.515357	-0.199839	7.332052	0.317963	-0.268639	-0.190608	-1.085449	0.364258	-0.910156
1147.0	7.383358	-0.247917	7.227007	0.153693	-0.276145	-0.124813	-1.083252	0.359863	-0.916748
1148.0	7.191552	-1.053308	7.056409	0.02397	-0.277063	-0.082703	-1.085449	0.359863	-0.918701
1149.0	6.898601	-0.686803	7.176024	0.076469	-0.291899	-0.050791	-1.0896	0.355469	-0.914551
1150.0	6.900103	-0.721751	7.117671	0.030406	-0.319418	-0.03237	-1.087402	0.359863	-0.907959
1151.0	7.156582	-1.182155	6.799798	0.047994	-0.330488	-0.026009	-1.096191	0.357666	-0.903564
1152.0	7.362546	-0.818131	6.767928	0.03559	-0.301064	-0.019837	-1.09375	0.355469	-0.89917
1153.0	7.092539	-1.2985	6.891386	0.020856	-0.283563	-0.023315	-1.096191	0.357422	-0.901367
1154.0	7.235152	-1.754779	6.67976	0.052644	-0.270805	-0.055493	-1.100342	0.355469	-0.901367
1155.0	7.468214	-1.750726	6.453315	0.131116	-0.222154	-0.093604	-1.0979	0.348877	-0.89917
1156.0	7.458385	-1.680204	6.332297	0.190923	-0.136062	-0.10832	-1.102295	0.348877	-0.890625
1157.0	7.451885	-1.587351	6.563475	0.246452	-0.08931	-0.136056	-1.100098	0.34668	-0.903564
1158.0	7.478352	-1.124007	6.650206	0.253096	-0.053715	-0.132237	-1.099854	0.344482	-0.892822
1159.0	7.478109	-1.082241	6.458263	0.313565	-0.037189	-0.112922	-1.091064	0.342529	-0.903564
1160.0	7.470637	-0.998741	6.40134	0.31502	-0.020526	-0.09564	-1.093262	0.338135	-0.901367
1161.0	7.393703	-0.712662	6.571114	0.316579	-0.018578	-0.07069	-1.099365	0.331787	-0.905762
1162.0	7.277986	-0.520413	6.859804	0.448437	0.008777	-0.03599	-1.101563	0.32959	-0.907959
1163.0	7.150313	-0.790004	6.771289	0.183958	-0.05429	-0.03195	-1.101563	0.32959	-0.901367
1164.0	7.191419	-0.956894	6.651743	0.256377	-0.067984	-0.030224	-1.101318	0.323242	-0.903564
1165.0	7.196787	-0.799105	6.646825	0.212721	-0.081034	-0.024083	-1.103516	0.322998	-0.89917
1166.0	7.065969	-1.407939	6.657216	0.188044	-0.08804	-0.040834	-1.109863	0.321045	-0.903564
1167.0	7.084947	-1.511363	6.62976	0.301949	-0.075892	-0.071469	-1.101074	0.314453	-0.90332
1168.0	7.081467	-0.691932	7.162476	0.343487	-0.086126	-0.069962	-1.105469	0.321045	-0.901367
1169.0	6.955979	-0.587127	7.442651	0.246285	-0.160434	-0.068195	-1.103027	0.314453	-0.89917
1170.0	7.023556	-0.521832	7.479901	0.205254	-0.236696	-0.064318	-1.107422	0.310059	-0.896973
1171.0	6.899778	-0.476603	7.734054	0.116737	-0.329231	-0.075232	-1.109375	0.303711	-0.89917
1172.0	6.898976	-0.755903	7.952506	0.040202	-0.440125	-0.084517	-1.11377	0.310059	-0.892578
1173.0	6.839906	-0.901752	8.188954	0.004917	-0.589185	-0.110411	-1.11377	0.307617	-0.881836
1174.0	6.886664	-0.063635	8.770848	0.019196	-0.770808	-0.103885	-1.115723	0.303223	-0.864502
1175.0	7.077897	-1.127973	8.452383	-0.07922	-1.037557	-0.113351	-1.119873	0.300781	-0.853516
1176.0	7.21179	-1.195651	8.151809	0.111	-1.221097	-0.142138	-1.126465	0.300537	-0.836182
1177.0	7.192511	-1.178128	8.005745	0.128491	-1.421125	-0.152324	-1.134766	0.289551	-0.81665
1178.0	7.467272	-1.075878	7.641964	0.255821	-1.616804	-0.181096	-1.141357	0.293457	-0.792969
1179.0	7.287326	-0.513647	7.827906	0.275046	-1.828925	-0.174757	-1.142822	0.275879	-0.764648
1180.0	7.585052	-0.86134	7.398813	0.267937	-2.041006	-0.183332	-1.153564	0.275391	-0.738525
1181.0	7.495847	-1.208897	7.422731	0.358853	-2.181089	-0.198	-1.162109	0.272949	-0.710449
1182.0	7.541636	-1.519722	7.655308	0.415891	-2.341072	-0.254483	-1.168457	0.268066	-0.675781
1183.0	7.314001	-1.792284	7.878506	0.350837	-2.551144	-0.368478	-1.172119	0.252441	-0.638916
1184.0	7.456708	-1.808998	7.929189	0.371711	-2.7861	-0.470496	-1.178223	0.247559	-0.593262
1185.0	7.089462	-0.393509	8.681777	0.227341	-3.072895	-0.567715	-1.184082	0.229736	-0.547607
1186.0	7.047792	-1.400259	8.829897	0.006043	-3.447972	-0.667416	-1.19043	0.227051	-0.502197
1187.0	6.178109	-1.453911	9.068829	0.009772	-3.843254	-0.824728	-1.185303	0.208984	-0.449951
1188.0	5.691469	-0.893924	9.590428	-0.342572	-4.231746	-0.989912	-1.182373	0.19751	-0.38501
1189.0	4.25942	-1.127091	9.636262	-0.478965	-4.793114	-1.187208	-1.183838	0.179199	-0.31543
1190.0	3.576868	-1.958927	9.896994	-0.894582	-5.491941	-1.510661	-1.165527	0.165283	-0.237305
1191.0	4.319693	-3.160833	9.584291	-0.857875	-6.324151	-1.957762	-1.15332	0.13623	-0.148438
1192.0	6.580448	-1.468232	10.299845	-0.684466	-7.247432	-2.262382	-1.125977	0.106934	-0.050537
1193.0	11.28959	0.909265	9.551611	-1.337923	-8.235104	-2.198886	-1.100586	0.077637	0.051514
1194.0	20.30781	0.937156	5.169218	-1.763079	-8.979306	-1.735802	-1.051758	0.054932	0.159912
1195.0	30.582545	0.82565	1.275899	-1.894432	-8.867243	-1.151826	-0.991455	0.025879	0.264404
1196.0	33.417609	-5.214731	4.147433	-2.311266	-7.763015	-1.111581	-0.931152	-0.009766	0.359863
1197.0	28.377856	-9.641771	5.069194	-0.854194	-6.431168	-1.759039	-0.870605	-0.05127	0.433838
1198.0	21.177326	-8.296355	10.301579	-0.457386	-5.805459	-2.461179	-0.805664	-0.095215	0.516602
1199.0	16.011604	-11.141513	15.635358	0.323517	-5.12233	-2.737701	-0.743164	-0.130127	0.571045
1200.0	10.116004	-8.141576	17.877474	0.683675	-4.435027	-2.735432	-0.685059	-0.169434	0.625488
1201.0	8.718976	-3.250353	13.152949	0.640799	-3.829574	-2.785022	-0.639893	-0.204346	0.666992
1202.0	22.608311	-3.256671	12.94076	-0.569078	-1.936176	-1.959286	-0.60376	-0.23877	0.691162
1203.0	22.46284	-8.423771	14.36586	-0.468594	1.603802	-0.33917	-0.611816	-0.255859	0.682617
1204.0	10.864718	-10.608027	12.813644	-0.172401	3.62208	0.295517	-0.628906	-0.262451	0.671631
1205.0	1.217949	-8.714086	11.536994	0.633373	4.698974	0.511856	-0.661621	-0.262207	0.647705
1206.0	-3.443287	-6.482693	9.897271	0.713161	4.605658	0.3854	-0.687744	-0.266357	0.634766
1207.0	-2.17293	-3.4447	8.515819	0.623356	4.39752	0.386273	-0.71167	-0.270264	0.606445
1208.0	0.396748	-4.484521	6.31758	0.538408	4.287079	0.259228	-0.748779	-0.268066	0.584717
1209.0	2.403989	-0.986533	6.187253	0.594518	4.563397	0.314772	-0.774902	-0.27002	0.556641
1210.0	5.340748	-1.038101	5.95595	-0.00459	4.911106	0.442671	-0.811768	-0.273682	0.510986
1211.0	6.76337	0.159206	6.261342	-0.338678	5.451883	0.702721	-0.848877	-0.273193	0.456787
1212.0	7.636171	0.095546	6.306778	-0.866246	5.970735	0.989472	-0.886475	-0.263672	0.380859
1213.0	8.40171	-0.79885	5.961049	-1.250631	6.48081	1.219522	-0.915283	-0.251953	0.29834
1214.0	8.729564	-1.682917	5.474567	-1.458228	6.964031	1.332162	-0.92749	-0.227051	0.200684
1215.0	9.130068	-1.847113	4.911724	-1.380147	7.371585	1.391389	-0.915283	-0.208496	0.105225
1216.0	8.925981	-1.025125	4.990626	-1.481882	7.542728	1.391246	-0.888916	-0.16626	0.022705
1217.0	8.93789	-0.964158	4.907552	-1.828122	7.441424	1.421305	-0.852783	-0.141602	-0.04248
1218.0	8.752756	-0.957428	5.022049	-2.041027	7.133852	1.499834	-0.81958	-0.108398	-0.094482
1219.0	9.561689	-0.911243	5.183596	-2.010973	6.715953	1.613899	-0.781494	-0.082031	-0.129395
1220.0	10.902516	-1.307387	4.977616	-1.935907	6.244543	1.747891	-0.752197	-0.051514	-0.155273
1221.0	11.570416	-1.097661	6.321394	-2.034692	5.729513	1.862045	-0.722412	-0.036133	-0.172852
1222.0	13.439456	-3.35489	6.305123	-2.346392	5.090612	2.007137	-0.708008	-0.01416	-0.187988
1223.0	13.80924	-3.868224	7.748084	-1.614575	4.877552	2.279498	-0.691406	0.007568	-0.198975
1224.0	14.840211	-1.795065	10.229317	-1.302301	4.555783	2.592976	-0.683594	0.03125	-0.198975
1225.0	16.502299	0.086623	11.660351	-1.425187	4.262492	2.975601	-0.675781	0.052734	-0.203369
1226.0	16.903224	0.304826	12.253625	-1.679765	4.038667	3.254659	-0.678955	0.078613	-0.214355
1227.0	16.844422	0.832087	12.581023	-1.907643	3.764671	3.357073	-0.679932	0.104736	-0.225342
1228.0	18.664666	0.997152	12.313838	-2.063607	3.318822	3.406201	-0.694336	0.136963	-0.238525
1229.0	22.287095	1.200206	11.994715	-2.214295	3.043786	3.37001	-0.682617	0.171875	-0.260498
1230.0	26.488572	2.000823	10.747352	-2.333061	3.11903	3.445379	-0.681885	0.206543	-0.277832
1231.0	29.240771	3.375405	8.742991	-2.035966	3.456205	3.695713	-0.661621	0.243652	-0.30835
1232.0	28.862785	1.13044	4.211927	-1.543	4.035376	3.919234	-0.643311	0.27417	-0.341064
1233.0	27.884663	-4.989352	-2.398594	-0.182926	4.644118	3.488564	-0.611328	0.294189	-0.380127
1234.0	25.869739	4.039674	-7.859738	2.220486	5.198879	2.75106	-0.58374	0.307861	-0.423584
1235.0	22.19167	17.527337	-12.726029	2.376685	5.0336	2.294979	-0.549072	0.308594	-0.4646
1236.0	15.716172	22.91349	-17.468805	0.334222	3.685345	1.97023	-0.525879	0.330322	-0.479736
1237.0	11.953093	16.439944	-17.60047	-1.418112	1.571661	1.12442	-0.517578	0.336914	-0.47998
1238.0	10.432306	8.440541	-13.433124	-1.717035	-0.316441	-0.171264	-0.528809	0.347412	-0.467041
1239.0	13.246477	6.593089	-6.428541	-1.90173	-1.52187	-1.56987	-0.531006	0.351563	-0.456055
1240.0	17.478963	3.847595	-1.522981	-1.742899	-1.828671	-2.326574	-0.548096	0.342529	-0.443115
1241.0	18.752649	1.953567	2.630683	-1.580134	-1.399862	-2.719632	-0.562988	0.335938	-0.430176
1242.0	18.070523	0.380818	4.832891	-1.426267	-0.703388	-2.81412	-0.56958	0.337891	-0.416992
1243.0	6.686519	-11.15218	12.781741	-2.142758	-0.06317	-3.112891	-0.584229	0.318359	-0.404053
1244.0	7.8999	-22.484193	-2.454547	2.989846	-1.347758	-4.421062	-0.599854	0.273193	-0.416748
1245.0	-11.099178	3.207457	13.199463	3.661893	-1.096587	-3.660912	-0.609619	0.247314	-0.412354
1246.0	0.346415	0.877478	11.465892	1.507627	-3.032325	-2.346378	-0.62207	0.231934	-0.390625
1247.0	5.176367	2.310461	3.902753	1.812424	-4.244732	-0.885675	-0.641357	0.2229	-0.360352
1248.0	19.826083	-3.043795	7.192696	0.635102	-5.195407	-0.444237	-0.662598	0.21167	-0.336426
1249.0	21.680429	0.748033	10.224548	1.898233	-4.048618	-0.470864	-0.67334	0.211182	-0.310547
1250.0	18.202846	3.061751	9.544148	0.789845	-3.82766	-1.017622	-0.683838	0.202148	-0.280029
1251.0	16.253816	-0.293965	8.057306	0.640573	-2.614961	-1.240926	-0.696533	0.193604	-0.277832
1252.0	10.905257	-3.404156	7.073232	1.123439	-2.496576	-0.858698	-0.698486	0.18457	-0.256104
1253.0	9.065961	-2.825563	7.1567	1.479658	-2.237478	-0.380293	-0.700195	0.177979	-0.240967
1254.0	10.748787	-1.299101	8.178618	1.235146	-2.433512	-0.327776	-0.710938	0.175537	-0.22583
1255.0	14.542665	4.778044	7.469302	1.699377	-1.55668	-1.03349	-0.709961	0.147461	-0.223389
1256.0	8.629684	0.56964	7.151995	0.965323	-1.084422	-1.12624	-0.714355	0.149414	-0.208252
1257.0	14.615973	-2.647378	8.448596	0.932543	-1.108678	-0.850194	-0.716064	0.140869	-0.214844
1258.0	10.175983	5.115548	8.588899	1.341156	-0.240135	-0.551226	-0.718018	0.130127	-0.212646
1259.0	7.953472	0.790165	7.660507	0.427804	-0.331764	-0.322996	-0.718262	0.136475	-0.203857
1260.0	7.935122	-1.747047	7.074273	0.452701	-0.24332	-0.306505	-0.724365	0.125732	-0.210449
1261.0	7.368882	-0.210113	7.446548	0.503698	-0.207488	-0.265176	-0.717773	0.125732	-0.210449
1262.0	7.787226	-0.427954	6.989909	0.382787	-0.185673	-0.214646	-0.715576	0.123535	-0.203857
1263.0	7.175343	-0.603866	7.34417	0.29282	-0.130705	-0.181506	-0.717773	0.125732	-0.206055
1264.0	6.978956	-0.487051	7.608119	0.241656	-0.166665	-0.158939	-0.717529	0.119385	-0.210449
1265.0	7.284662	-0.374711	7.194161	0.198313	-0.187501	-0.118889	-0.726074	0.11499	-0.203857
1266.0	7.269123	-0.066309	7.32811	0.141433	-0.180708	-0.06933	-0.717529	0.119141	-0.199463
1267.0	7.240755	0.291466	7.261904	0.068188	-0.21363	-0.006788	-0.724121	0.121338	-0.199463
1268.0	7.360382	-0.744191	6.894238	-0.013366	-0.227234	0.029287	-0.726318	0.121338	-0.19751
1269.0	7.391973	-1.036478	6.678702	0.014694	-0.19351	0.026654	-0.717529	0.119141	-0.197266
1270.0	7.405008	-0.947375	6.619895	0.026697	-0.153073	0.019156	-0.726074	0.116943	-0.197266
1271.0	7.472533	-1.504988	6.383571	0.042209	-0.103043	0.015183	-0.724121	0.119141	-0.199463
1272.0	7.394675	-1.373328	6.416855	0.109114	-0.037598	0.00558	-0.728516	0.121338	-0.193115
1273.0	7.308612	-1.137897	6.532065	0.124597	0.008517	-0.002808	-0.719482	0.116943	-0.195068
1274.0	7.201742	-1.320008	6.63845	0.144808	0.033476	-0.007713	-0.730469	0.119141	-0.193115
1275.0	7.117052	-1.180084	6.680357	0.175131	0.0489	-0.035625	-0.72168	0.117188	-0.199463
1276.0	7.050615	-0.986496	6.795264	0.171942	0.038507	-0.040607	-0.721924	0.123535	-0.195313
1277.0	6.986033	-0.773847	6.830037	0.170431	0.030799	-0.041913	-0.728271	0.116943	-0.195313
1278.0	6.933001	-0.439036	7.057667	0.14902	-0.018512	-0.020745	-0.72168	0.112793	-0.195068
1279.0	6.902762	-0.722125	6.880386	0.112994	-0.059996	-0.018291	-0.730469	0.116943	-0.199463
1280.0	6.851601	-0.334324	6.954958	0.108109	-0.109841	-0.018845	-0.726074	0.116943	-0.195313
1281.0	6.860358	-0.274761	7.05597	0.088917	-0.171308	0.004874	-0.723877	0.116943	-0.199463
1282.0	6.930011	-0.546142	7.183379	0.034027	-0.23973	0.032241	-0.726074	0.119141	-0.193115
1283.0	7.0399	-0.884108	7.089563	0.035181	-0.252373	0.036564	-0.732422	0.114746	-0.195313
1284.0	7.116961	-0.9444	6.960417	0.039928	-0.253833	0.029674	-0.723877	0.119141	-0.186523
1285.0	7.141067	-1.183567	6.948482	0.013595	-0.242895	0.026153	-0.728271	0.119141	-0.190918
1286.0	7.134942	-1.537049	6.812747	-0.006569	-0.229573	0.008526	-0.730469	0.118896	-0.184326
1287.0	7.213767	-1.576162	6.75013	0.004788	-0.217445	-0.009268	-0.726074	0.116943	-0.190918
1288.0	7.073625	-1.468454	6.7662	0.006455	-0.224837	-0.033121	-0.730469	0.118896	-0.179932
1289.0	7.105331	-1.563073	6.727439	0.03654	-0.230299	-0.072105	-0.730469	0.118896	-0.182129
1290.0	7.106888	-1.524684	6.70222	0.04878	-0.263552	-0.105273	-0.730469	0.118896	-0.175781
1291.0	7.211419	-1.557237	6.711358	0.107286	-0.255604	-0.138446	-0.728027	0.114502	-0.175781
1292.0	7.250165	-1.090591	6.652124	0.120794	-0.276762	-0.152226	-0.732422	0.114502	-0.171387
1293.0	7.363863	-1.018961	6.553359	0.14922	-0.269613	-0.165458	-0.732422	0.112305	-0.171387
1294.0	7.332502	-1.026922	6.604273	0.144585	-0.278567	-0.169326	-0.730469	0.116699	-0.173584
1295.0	7.231347	-1.161134	6.778639	0.209447	-0.292234	-0.181717	-0.734375	0.108154	-0.173584
1296.0	7.075595	-1.164888	6.860186	0.287305	-0.364069	-0.193494	-0.72998	0.10791	-0.169189
1297.0	7.220289	-1.156474	6.796309	0.310184	-0.429772	-0.20799	-0.734131	0.10376	-0.169189
1298.0	6.981567	-0.978093	7.25671	0.166505	-0.528964	-0.260192	-0.738525	0.103516	-0.1604
1299.0	7.241561	-2.307609	6.730877	-0.067891	-0.615169	-0.378306	-0.738281	0.097168	-0.156006
1300.0	7.290315	-2.030798	6.822233	0.082552	-0.59321	-0.494773	-0.740723	0.101318	-0.151855
1301.0	7.428985	-1.175711	6.959925	0.058088	-0.670539	-0.574228	-0.740234	0.092529	-0.147461
1302.0	7.626013	-1.187373	6.984478	-0.055055	-0.731331	-0.659998	-0.73999	0.088135	-0.138672
1303.0	7.386826	-0.957354	7.287282	-0.09274	-0.7913	-0.761556	-0.744141	0.079346	-0.130127
1304.0	7.24309	-0.784144	7.756682	-0.382933	-0.96189	-0.871929	-0.743896	0.072998	-0.12793
1305.0	7.52613	-1.05897	7.734317	-0.742788	-1.155853	-1.038648	-0.743652	0.066406	-0.119141
