Acquisition frequency: 100 Hz
PacketCounter	Acc_X	Acc_Y	Acc_Z	Gyr_X	Gyr_Y	Gyr_Z	Mag_X	Mag_Y	Mag_Z
0.0	6.386025	1.026701	8.069053	-0.009886	0.019593	-0.01549	-0.65625	0.013672	-0.358887
1.0	6.39336	1.010948	8.054028	-0.012784	0.016052	-0.016172	-0.65625	0.015869	-0.361328
2.0	6.381108	1.009034	8.087891	-0.011087	0.015649	-0.019732	-0.656494	0.020264	-0.363525
3.0	6.392359	1.029483	8.03977	-0.009707	0.014095	-0.019038	-0.662598	0.013672	-0.358887
4.0	6.373437	0.973442	8.049757	-0.007203	0.019392	-0.017647	-0.658691	0.020264	-0.361328
5.0	6.412059	1.03535	8.049753	-0.009914	0.01036	-0.021873	-0.658447	0.018066	-0.363525
6.0	6.377319	1.028801	8.075667	-0.011641	0.016822	-0.016901	-0.658447	0.018066	-0.354492
7.0	6.386564	1.031306	8.044141	-0.006815	0.017625	-0.018363	-0.658447	0.015869	-0.361328
8.0	6.369459	0.993165	8.037714	-0.010494	0.017601	-0.017624	-0.649658	0.015869	-0.354492
9.0	6.383429	1.032073	8.04653	-0.009113	0.016049	-0.016929	-0.656494	0.020264	-0.359131
10.0	6.38005	1.014426	8.064139	-0.010496	0.017595	-0.017628	-0.65625	0.015869	-0.356689
11.0	6.378451	1.014699	8.065369	-0.009507	0.017803	-0.016221	-0.658447	0.015869	-0.361328
12.0	6.385814	0.999228	8.050339	-0.009349	0.018375	-0.01835	-0.660645	0.018066	-0.358887
13.0	6.375489	1.015286	8.067637	-0.010784	0.010376	-0.014796	-0.65625	0.015869	-0.356689
14.0	6.398727	1.038302	8.059975	-0.011094	0.015615	-0.019756	-0.656494	0.022461	-0.359131
15.0	6.372936	1.015936	8.069572	-0.00833	0.012518	-0.018363	-0.65625	0.015869	-0.358887
16.0	6.403434	1.005685	8.061926	-0.005246	0.01057	-0.021224	-0.654053	0.015869	-0.363525
17.0	6.370772	1.017327	8.071106	-0.008096	0.010181	-0.01695	-0.654053	0.015869	-0.358887
18.0	6.373457	1.053708	8.038998	-0.009085	0.009967	-0.018361	-0.658691	0.020264	-0.363525
19.0	6.400492	1.007283	8.064061	-0.007703	0.008419	-0.017664	-0.654297	0.018066	-0.363525
20.0	6.367928	1.018697	8.073177	-0.009087	0.009963	-0.018364	-0.660645	0.015869	-0.358887
21.0	6.400346	1.026137	8.04911	-0.008494	0.011931	-0.016243	-0.65625	0.018066	-0.363525
22.0	6.374881	1.003795	8.058431	-0.005568	0.009412	-0.016975	-0.660645	0.018066	-0.354492
23.0	6.375652	1.022345	8.042789	-0.008336	0.012501	-0.018374	-0.658447	0.013672	-0.358887
24.0	6.372663	1.0046	8.060085	-0.00921	0.012535	-0.011278	-0.6521	0.018066	-0.361328
25.0	6.394101	1.009698	8.068828	-0.007348	0.01271	-0.016965	-0.658447	0.018066	-0.361328
26.0	6.347711	1.000447	8.054	-0.006361	0.012921	-0.015555	-0.654053	0.013672	-0.361084
27.0	6.384468	1.044435	8.070483	-0.008338	0.012493	-0.018379	-0.658447	0.018066	-0.356689
28.0	6.390443	1.011133	8.071546	-0.007747	0.014461	-0.016257	-0.662842	0.018066	-0.356689
29.0	6.400011	1.013759	8.03987	-0.004784	0.015099	-0.012024	-0.654053	0.013672	-0.356689
30.0	6.380452	1.045651	8.073501	-0.009132	0.016001	-0.01696	-0.651855	0.013672	-0.358887
31.0	6.372812	0.99146	8.050533	-0.011428	0.014425	-0.015528	-0.651855	0.015869	-0.363525
32.0	6.386912	1.030493	8.059218	-0.006794	0.011514	-0.019816	-0.654053	0.013672	-0.354248
33.0	6.383894	1.013001	8.076493	-0.010872	0.013236	-0.018372	-0.656494	0.020264	-0.363525
34.0	6.395384	1.033538	8.028385	-0.008898	0.013662	-0.015549	-0.654297	0.018066	-0.358887
35.0	6.360682	1.026881	8.054056	-0.005808	0.011722	-0.018408	-0.658447	0.015869	-0.361328
36.0	6.366943	0.993628	8.054908	-0.00925	0.009358	-0.016259	-0.654297	0.018066	-0.361328
37.0	6.388333	0.998661	8.063725	-0.009857	0.016595	-0.011999	-0.656006	0.011475	-0.361084
38.0	6.366327	1.011862	8.040422	-0.010636	0.010896	-0.016963	-0.654053	0.015869	-0.356689
39.0	6.389597	1.035132	8.032785	-0.006368	0.012899	-0.015571	-0.658691	0.020264	-0.361328
40.0	6.362262	0.994731	8.05847	-0.007944	0.010712	-0.019111	-0.65625	0.013672	-0.358887
41.0	6.385526	1.018191	8.05082	-0.007357	0.01268	-0.016986	-0.654297	0.020264	-0.356689
42.0	6.372785	1.01609	8.011071	-0.006958	0.010923	-0.0177	-0.658447	0.018066	-0.358887
43.0	6.404022	1.006158	8.076763	-0.007358	0.012676	-0.016989	-0.658447	0.015869	-0.361328
44.0	6.389552	0.985917	8.053344	-0.011226	0.008912	-0.019098	-0.658447	0.018066	-0.356689
45.0	6.381097	1.020015	8.054099	-0.006773	0.014643	-0.014865	-0.65625	0.013672	-0.356689
46.0	6.381678	1.038591	8.038633	-0.005813	0.011704	-0.018421	-0.65625	0.015869	-0.361328
47.0	6.345177	1.01393	8.080576	-0.008347	0.012453	-0.018409	-0.654053	0.015869	-0.356689
48.0	6.386611	1.005922	8.0405	-0.007762	0.014421	-0.016284	-0.654053	0.013672	-0.361084
49.0	6.400582	1.044981	8.049275	-0.008509	0.011876	-0.016281	-0.651611	0.011475	-0.365723
50.0	6.386668	1.024994	8.099138	-0.009495	0.011658	-0.017698	-0.65625	0.013672	-0.356689
51.0	6.351524	1.017929	8.051355	-0.00656	0.009152	-0.018424	-0.660645	0.018066	-0.361328
52.0	6.404747	1.012697	8.051717	-0.007364	0.012659	-0.017001	-0.65625	0.015869	-0.358887
53.0	6.396274	1.046702	8.052475	-0.008832	0.010725	-0.012025	-0.658447	0.018066	-0.356689
54.0	6.38016	1.008379	8.045312	-0.007547	0.00893	-0.019843	-0.660645	0.018066	-0.356689
55.0	6.371842	1.042752	8.045893	-0.005576	0.009362	-0.017014	-0.653809	0.009277	-0.356445
56.0	6.423333	1.019557	8.062578	-0.006964	0.010898	-0.017718	-0.654053	0.015869	-0.358887
57.0	6.367987	1.025884	8.063724	-0.006965	0.010896	-0.017719	-0.665039	0.015869	-0.361328
58.0	6.3779	1.028694	8.03189	-0.007529	0.012076	-0.014877	-0.656006	0.011475	-0.365723
59.0	6.395689	0.998005	8.073419	-0.007369	0.012646	-0.01701	-0.663086	0.020264	-0.356689
60.0	6.342106	1.022233	8.058232	-0.008112	0.010101	-0.017008	-0.65625	0.013672	-0.354248
61.0	6.386085	1.032465	8.074989	-0.00908	0.013035	-0.013453	-0.660645	0.015869	-0.358887
62.0	6.373615	1.030214	8.035095	-0.007306	0.006591	-0.018435	-0.658447	0.015869	-0.361328
63.0	6.370838	1.012599	8.052167	-0.008921	0.013603	-0.015587	-0.651855	0.013672	-0.361084
64.0	6.369717	1.012946	8.05301	-0.007129	0.010313	-0.015596	-0.658447	0.018066	-0.354492
65.0	6.413683	1.023389	8.069771	-0.008358	0.012417	-0.018434	-0.656494	0.020264	-0.356689
66.0	6.367409	1.013793	8.054728	-0.008924	0.013597	-0.015591	-0.65625	0.013672	-0.363525
67.0	6.390533	1.037158	8.047275	-0.00852	0.011842	-0.016305	-0.651855	0.013672	-0.358887
68.0	6.365038	1.014424	8.056522	-0.00991	0.013374	-0.017011	-0.654053	0.013672	-0.354248
69.0	6.371194	0.980956	8.057577	-0.009331	0.015343	-0.014882	-0.6521	0.020264	-0.359131
70.0	6.386568	1.037885	8.050328	-0.009736	0.017093	-0.014171	-0.654053	0.013672	-0.356689
71.0	6.374259	1.035747	8.083908	-0.008116	0.010082	-0.017023	-0.654053	0.015869	-0.354492
72.0	6.391583	1.004672	8.052264	-0.011869	0.01608	-0.014878	-0.660645	0.015869	-0.356689
73.0	6.390169	1.004769	8.053375	-0.009333	0.015335	-0.014888	-0.658447	0.015869	-0.358887
74.0	6.36806	1.018025	8.03011	-0.010319	0.015113	-0.016308	-0.65625	0.015869	-0.356689
75.0	6.378046	1.020768	8.071868	-0.008756	0.017302	-0.01276	-0.651855	0.015869	-0.361328
76.0	6.365125	1.018412	8.032388	-0.009174	0.015899	-0.017025	-0.649902	0.018066	-0.361328
77.0	6.386346	1.023788	8.041384	-0.008523	0.011823	-0.016319	-0.65625	0.013672	-0.358887
78.0	6.349688	0.998578	8.083259	-0.007207	0.016334	-0.01419	-0.658447	0.015869	-0.356689
79.0	6.372645	1.022091	8.075965	-0.008362	0.01239	-0.018455	-0.6521	0.018066	-0.361328
80.0	6.403265	1.012002	8.068586	-0.007378	0.012608	-0.017037	-0.658447	0.015869	-0.354492
81.0	6.362724	1.05677	8.0777	-0.007379	0.012606	-0.017039	-0.65625	0.015869	-0.356689
82.0	6.399209	0.994883	8.086581	-0.008117	0.010062	-0.017039	-0.65625	0.018066	-0.356689
83.0	6.379221	1.026397	8.046705	-0.008526	0.011811	-0.016328	-0.65625	0.013672	-0.36792
84.0	6.398717	1.013563	8.071997	-0.009504	0.01474	-0.012771	-0.658447	0.015869	-0.352051
85.0	6.376818	1.026916	8.048543	-0.007956	0.010628	-0.019176	-0.65625	0.018066	-0.358887
86.0	6.386934	1.029937	8.090127	-0.007215	0.016319	-0.0142	-0.658447	0.015869	-0.358887
87.0	6.381885	0.993971	8.05044	-0.012623	0.010349	-0.019881	-0.658447	0.018066	-0.358887
88.0	6.371328	1.009786	8.067662	-0.008362	0.015523	-0.013489	-0.662842	0.015869	-0.358887
89.0	6.388748	0.978939	8.036053	-0.007383	0.012591	-0.017049	-0.65625	0.015869	-0.358887
90.0	6.393067	1.03384	8.061305	-0.006238	0.013381	-0.017763	-0.660645	0.013672	-0.361084
91.0	6.376956	0.995655	8.054137	-0.007384	0.012587	-0.017052	-0.65625	0.013672	-0.363525
92.0	6.400054	1.019252	8.046773	-0.009513	0.011572	-0.017762	-0.654297	0.020264	-0.359131
93.0	6.365254	1.012163	8.072157	-0.00624	0.013375	-0.017767	-0.660645	0.013672	-0.356689
94.0	6.341598	1.007398	8.064972	-0.011232	0.011956	-0.014206	-0.658447	0.013672	-0.361084
95.0	6.375965	1.033408	8.024951	-0.003616	0.009748	-0.014218	-0.654297	0.018066	-0.358887
96.0	6.393981	1.002925	8.066259	-0.007548	0.008857	-0.019905	-0.656494	0.020264	-0.356689
97.0	6.357457	0.977807	8.03449	-0.00796	0.010604	-0.019194	-0.651855	0.013672	-0.354248
98.0	6.38435	1.037727	8.067712	-0.00714	0.010256	-0.015639	-0.660645	0.015869	-0.365723
99.0	6.370363	1.017531	8.043996	-0.006729	0.008505	-0.016353	-0.660645	0.015869	-0.361328
100.0	6.367726	0.999826	8.06092	-0.010251	0.009015	-0.017774	-0.65625	0.013672	-0.358887
101.0	6.390863	1.023503	8.053536	-0.006246	0.013361	-0.017777	-0.654297	0.018066	-0.363525
102.0	6.368982	1.036842	8.030051	-0.013203	0.011492	-0.017062	-0.651855	0.015869	-0.356689
103.0	6.38665	1.005895	8.071695	-0.007233	0.016286	-0.014219	-0.65625	0.015869	-0.361328
104.0	6.3647	1.019174	8.04827	-0.009682	0.010978	-0.015645	-0.65625	0.015869	-0.358887
105.0	6.38611	1.024501	8.057179	-0.009682	0.010977	-0.015646	-0.658447	0.015869	-0.361328
106.0	6.362513	1.019641	8.049939	-0.009933	0.013292	-0.017069	-0.658447	0.015869	-0.361328
107.0	6.391362	0.99144	8.059	-0.006824	0.01453	-0.014936	-0.654053	0.015869	-0.358887
108.0	6.380776	1.007404	8.076151	-0.009108	0.009792	-0.018498	-0.656006	0.011475	-0.356689
109.0	6.379626	1.007827	8.077007	-0.006826	0.014527	-0.014938	-0.654053	0.015869	-0.358887
110.0	6.389672	1.010839	8.045308	-0.008127	0.010012	-0.017077	-0.658203	0.011475	-0.361084
111.0	6.379107	1.026726	8.062441	-0.008954	0.013505	-0.015653	-0.654297	0.018066	-0.361328
112.0	6.363128	0.988216	8.055222	-0.008955	0.013504	-0.015654	-0.654297	0.018066	-0.361328
113.0	6.376606	1.027273	8.06435	-0.007973	0.013726	-0.014232	-0.65625	0.015869	-0.358887
114.0	6.386605	1.030093	8.032733	-0.011082	0.012482	-0.01637	-0.65625	0.015869	-0.358887
115.0	6.38362	1.012068	8.049956	-0.010515	0.014451	-0.014234	-0.656006	0.011475	-0.361084
116.0	6.393655	1.014722	8.091567	-0.008705	0.011181	-0.014237	-0.660645	0.018066	-0.361328
117.0	6.381203	1.012304	8.051842	-0.011913	0.015969	-0.014949	-0.658447	0.015869	-0.361328
118.0	6.357563	1.00736	8.044621	-0.006165	0.01045	-0.014238	-0.65625	0.013672	-0.361084
119.0	6.380657	1.03112	8.037328	-0.010343	0.011862	-0.021363	-0.656006	0.011475	-0.361084
120.0	6.356989	1.026258	8.030114	-0.009538	0.014666	-0.012816	-0.658447	0.018066	-0.354492
121.0	6.40838	1.003121	8.047322	-0.007563	0.011966	-0.014954	-0.660889	0.020264	-0.363525
122.0	6.384848	0.998319	8.039994	-0.008545	0.011738	-0.016381	-0.658447	0.018066	-0.356689
123.0	6.361321	0.993516	8.032657	-0.008545	0.011737	-0.016382	-0.65625	0.015869	-0.356689
124.0	6.37309	1.014607	8.057976	-0.009363	0.012077	-0.019946	-0.65625	0.018066	-0.358887
125.0	6.362426	1.030517	8.075129	-0.006585	0.012185	-0.013533	-0.65625	0.013672	-0.356689
126.0	6.37076	1.015335	8.059727	-0.008963	0.013477	-0.015673	-0.651855	0.015869	-0.361328
127.0	6.345467	0.992247	8.068647	-0.008711	0.011161	-0.014251	-0.65625	0.015869	-0.361328
128.0	6.391013	1.02126	8.069524	-0.007387	0.009372	-0.022088	-0.65625	0.015869	-0.358887
129.0	6.369355	1.034859	8.045807	-0.007151	0.010206	-0.015677	-0.654053	0.013672	-0.363525
130.0	6.389084	1.022242	8.070927	-0.009276	0.009183	-0.016395	-0.658447	0.018066	-0.363525
131.0	6.388006	1.022531	8.071744	-0.008967	0.013467	-0.015679	-0.658447	0.015869	-0.358887
132.0	6.397998	1.025568	8.040196	-0.006844	0.014486	-0.014964	-0.658447	0.013672	-0.361084
133.0	6.395159	1.007764	8.057254	-0.010257	0.008951	-0.017826	-0.658691	0.020264	-0.363525
134.0	6.384531	1.023521	8.074367	-0.008969	0.013461	-0.015683	-0.658447	0.018066	-0.361328
135.0	6.362746	1.036848	8.050778	-0.008133	0.009969	-0.017111	-0.654297	0.020264	-0.361328
136.0	6.372957	1.039844	8.01908	-0.009135	0.012889	-0.013549	-0.65625	0.013672	-0.356689
137.0	6.390727	1.008834	8.060636	-0.009135	0.012888	-0.01355	-0.658447	0.018066	-0.363525
138.0	6.357654	1.019253	8.069575	-0.009697	0.010914	-0.015692	-0.65625	0.015869	-0.363525
139.0	6.399847	1.012028	8.029795	-0.008553	0.011707	-0.016403	-0.660645	0.018066	-0.361328
140.0	6.366805	1.022555	8.03869	-0.009698	0.01091	-0.015695	-0.660645	0.015869	-0.358887
141.0	6.386423	1.009968	8.063904	-0.004052	0.01144	-0.013543	-0.6521	0.022461	-0.361328
142.0	6.394925	0.995155	8.048386	-0.005848	0.011549	-0.018539	-0.65625	0.015869	-0.358887
143.0	6.406667	1.016375	8.073682	-0.006177	0.010413	-0.014265	-0.654297	0.022461	-0.368164
144.0	6.360921	1.006357	8.057938	-0.008136	0.009954	-0.017123	-0.658447	0.015869	-0.358887
145.0	6.382358	1.012125	8.066852	-0.006573	0.009005	-0.018547	-0.651855	0.015869	-0.356689
146.0	6.360747	1.025619	8.043095	-0.007158	0.01018	-0.015697	-0.649902	0.022461	-0.359131
147.0	6.380364	1.013048	8.068313	-0.007579	0.011921	-0.014984	-0.658447	0.013672	-0.356689
148.0	6.379212	1.013455	8.069172	-0.005457	0.012945	-0.014265	-0.662598	0.013672	-0.361084
149.0	6.367055	1.011515	8.029244	-0.007974	0.010512	-0.019268	-0.6604	0.011475	-0.363525
150.0	6.38845	1.01737	8.038192	-0.005595	0.009226	-0.017124	-0.654297	0.018066	-0.363525
151.0	6.376168	1.015134	8.071367	-0.008139	0.009942	-0.017132	-0.65625	0.018066	-0.356689
152.0	6.397595	1.020748	8.08032	-0.009283	0.009144	-0.016425	-0.660889	0.020264	-0.356689
153.0	6.364966	1.031593	8.015825	-0.007161	0.010168	-0.015705	-0.654053	0.013672	-0.358887
154.0	6.40531	1.006133	8.065443	-0.007162	0.010167	-0.015706	-0.6604	0.009277	-0.363281
155.0	6.381933	1.001373	8.057922	-0.006019	0.010961	-0.016416	-0.654297	0.018066	-0.365723
156.0	6.371	1.017284	8.075177	-0.006143	0.016984	-0.014985	-0.660645	0.015869	-0.358887
157.0	6.390765	1.004961	8.027338	-0.01085	0.010081	-0.01501	-0.654053	0.013672	-0.361084
158.0	6.380171	1.020722	8.04434	-0.005597	0.009214	-0.017133	-0.6521	0.020264	-0.359131
159.0	6.399811	1.008465	8.069515	-0.005856	0.011521	-0.018559	-0.65625	0.018066	-0.354492
160.0	6.355685	1.016651	8.037598	-0.006608	0.012129	-0.013569	-0.654297	0.018066	-0.361328
161.0	6.37526	1.004165	8.062855	-0.006021	0.010952	-0.016423	-0.662842	0.015869	-0.363525
162.0	6.36623	1.038312	8.063742	-0.005043	0.011181	-0.014993	-0.658691	0.022461	-0.359131
163.0	6.405224	0.995106	8.056343	-0.007165	0.010152	-0.015717	-0.65625	0.015869	-0.354492
164.0	6.405946	1.013752	8.040889	-0.008143	0.009919	-0.01715	-0.658447	0.018066	-0.356689
165.0	6.374463	1.042479	8.033583	-0.006871	0.014429	-0.015	-0.65625	0.013672	-0.361084
166.0	6.369967	1.006588	8.066735	-0.007555	0.008739	-0.020006	-0.658447	0.013672	-0.363525
167.0	6.393026	1.030532	8.05958	-0.008734	0.011089	-0.014301	-0.65625	0.018066	-0.358887
168.0	6.367853	1.007448	8.068297	-0.007262	0.013016	-0.019289	-0.65625	0.015869	-0.358887
169.0	6.389013	1.01324	8.07747	-0.007592	0.011883	-0.015011	-0.658447	0.013672	-0.358887
170.0	6.367321	1.026549	8.053774	-0.008146	0.009908	-0.017158	-0.65625	0.018066	-0.361328
171.0	6.376128	1.011667	8.038128	-0.007721	0.008165	-0.017873	-0.6521	0.020264	-0.359131
172.0	6.386021	1.014508	8.079676	-0.008998	0.013386	-0.015733	-0.649658	0.015869	-0.356689
173.0	6.373923	1.012386	8.039787	-0.008573	0.011643	-0.016448	-0.65625	0.013672	-0.356689
174.0	6.361377	1.009943	8.073092	-0.008408	0.012207	-0.01859	-0.658447	0.013672	-0.361084
175.0	6.382559	1.015868	8.082241	-0.005863	0.011495	-0.018579	-0.658447	0.015869	-0.361328
176.0	6.394509	1.037402	8.034483	-0.009165	0.012813	-0.013599	-0.654297	0.018066	-0.358887
177.0	6.389845	1.001177	8.067795	-0.008285	0.015914	-0.015734	-0.654053	0.015869	-0.361328
178.0	6.367761	1.014419	8.044411	-0.008286	0.015912	-0.015735	-0.658203	0.011475	-0.365723
179.0	6.388635	1.020261	8.053828	-0.005575	0.015766	-0.017865	-0.658447	0.015869	-0.356689
180.0	6.377497	1.036149	8.071154	-0.00786	0.014168	-0.016452	-0.65625	0.018066	-0.361328
181.0	6.395281	1.005513	8.112656	-0.007983	0.010452	-0.019315	-0.65625	0.018066	-0.361328
182.0	6.374028	1.019566	8.015777	-0.004173	0.014254	-0.017148	-0.658691	0.020264	-0.356689
183.0	6.36144	1.01725	8.049053	-0.008149	0.009883	-0.017177	-0.654053	0.013672	-0.361084
184.0	6.382679	1.023069	8.058193	-0.008412	0.012185	-0.018606	-0.654297	0.018066	-0.358887
185.0	6.357594	1.000019	8.066784	-0.007008	0.010678	-0.017887	-0.651855	0.015869	-0.361328
186.0	6.380463	1.024155	8.05981	-0.008413	0.012181	-0.018609	-0.65625	0.013672	-0.361084
187.0	6.38089	1.042863	8.044597	-0.007866	0.014153	-0.016462	-0.660889	0.020264	-0.365967
188.0	6.387781	1.009594	8.045373	-0.011127	0.012318	-0.016486	-0.662842	0.018066	-0.361328
189.0	6.38642	1.009809	8.046427	-0.009702	0.017392	-0.016473	-0.656494	0.020264	-0.363525
190.0	6.384949	1.010222	8.047542	-0.006726	0.014946	-0.017173	-0.660645	0.013672	-0.356689
191.0	6.383748	1.010619	8.048445	-0.010699	0.010573	-0.017205	-0.658447	0.015869	-0.361328
192.0	6.382583	1.010946	8.049327	-0.007869	0.014143	-0.016469	-0.65625	0.013672	-0.358887
193.0	6.358924	1.005955	8.04198	-0.009276	0.015644	-0.017193	-0.65625	0.015869	-0.361328
194.0	6.371619	1.045228	8.051636	-0.009276	0.015641	-0.017195	-0.660645	0.015869	-0.363525
195.0	6.378409	1.012248	8.052472	-0.006133	0.013761	-0.020036	-0.658447	0.018066	-0.363525
196.0	6.387822	1.015215	8.094306	-0.008302	0.015872	-0.015762	-0.658447	0.013672	-0.358887
197.0	6.365958	1.028552	8.070712	-0.007987	0.01042	-0.019341	-0.658447	0.018066	-0.358887
198.0	6.39518	1.000855	8.079852	-0.007329	0.016104	-0.014328	-0.65625	0.018066	-0.356689
199.0	6.384832	1.016998	8.02386	-0.010701	0.010555	-0.01722	-0.651855	0.015869	-0.361328
200.0	6.370434	0.996018	8.073328	-0.007331	0.0161	-0.014331	-0.658203	0.011475	-0.356689
201.0	6.380706	0.999459	8.041842	-0.006037	0.010886	-0.016473	-0.658447	0.015869	-0.356689
202.0	6.391911	1.020695	8.067444	-0.007709	0.014685	-0.018627	-0.658447	0.018066	-0.356689
203.0	6.38074	1.03639	8.084722	-0.009993	0.013083	-0.017218	-0.65625	0.015869	-0.361328
204.0	6.399143	1.006176	8.053141	-0.007334	0.016092	-0.014336	-0.658447	0.013672	-0.358887
205.0	6.399563	1.024925	8.037957	-0.009937	0.009931	-0.02223	-0.660889	0.020264	-0.359131
206.0	6.372764	0.983432	8.062652	-0.007337	0.016087	-0.014339	-0.654053	0.015869	-0.358887
207.0	6.387107	1.040958	8.056203	-0.00902	0.013311	-0.015787	-0.660645	0.018066	-0.358887
208.0	6.349555	0.996932	8.040093	-0.006905	0.014347	-0.015055	-0.654297	0.020264	-0.359131
209.0	6.372161	1.021044	8.033413	-0.00788	0.014108	-0.016495	-0.65625	0.015869	-0.363525
210.0	6.391567	1.008578	8.058855	-0.008588	0.011569	-0.016505	-0.651855	0.015869	-0.363525
211.0	6.379664	1.006577	8.01892	-0.006907	0.014341	-0.015059	-0.654297	0.018066	-0.358887
212.0	6.377534	1.00644	8.093096	-0.007281	0.012928	-0.019356	-0.65625	0.018066	-0.358887
213.0	6.377131	1.007635	8.020802	-0.006909	0.014337	-0.015062	-0.658447	0.018066	-0.356689
214.0	6.365875	1.023347	8.038102	-0.006742	0.014898	-0.017207	-0.6604	0.011475	-0.365723
215.0	6.375244	1.02613	8.079933	-0.007077	0.013771	-0.012921	-0.65625	0.013672	-0.358887
216.0	6.384026	1.011503	8.064464	-0.005272	0.01025	-0.021494	-0.658447	0.018066	-0.356689
217.0	6.382985	1.012266	8.065192	-0.007016	0.01062	-0.017934	-0.660645	0.013672	-0.356689
218.0	6.361346	1.025679	8.04139	-0.006042	0.010857	-0.016495	-0.65625	0.015869	-0.363525
219.0	6.360306	1.026249	8.04214	-0.007016	0.010616	-0.017937	-0.654053	0.013672	-0.358887
220.0	6.392921	1.035355	8.019119	-0.006747	0.014886	-0.017215	-0.65625	0.015869	-0.358887
221.0	6.391686	1.035818	8.020043	-0.008594	0.011546	-0.016522	-0.654053	0.013672	-0.363525
222.0	6.355096	1.009403	8.060857	-0.008427	0.012107	-0.018668	-0.654053	0.015869	-0.358887
223.0	6.376228	1.015229	8.070163	-0.008762	0.010981	-0.01438	-0.654053	0.013672	-0.358887
224.0	6.38669	1.018751	8.038637	-0.006314	0.013144	-0.017934	-0.65625	0.015869	-0.361328
225.0	6.383959	1.000995	8.055513	-0.009132	0.009564	-0.018682	-0.65625	0.018066	-0.358887
226.0	6.372922	1.016669	8.072593	-0.007456	0.012338	-0.017233	-0.660645	0.018066	-0.358887
227.0	6.383295	1.020247	8.041143	-0.008867	0.013831	-0.017962	-0.651855	0.013672	-0.363525
228.0	6.382827	1.038178	8.099125	-0.010274	0.008756	-0.017983	-0.654053	0.015869	-0.361328
229.0	6.357335	0.997053	8.050307	-0.009203	0.012704	-0.013674	-0.65625	0.015869	-0.358887
230.0	6.390614	1.023534	8.084495	-0.008431	0.012091	-0.01868	-0.658447	0.018066	-0.358887
231.0	6.388847	1.006493	8.02819	-0.006486	0.01257	-0.015798	-0.654053	0.015869	-0.352051
232.0	6.366025	1.018926	8.077748	-0.01001	0.013018	-0.017266	-0.654053	0.015869	-0.361328
233.0	6.388592	1.043095	8.07116	-0.007898	0.014059	-0.016529	-0.654053	0.013672	-0.358887
234.0	6.373533	1.004561	8.063321	-0.00746	0.012324	-0.017244	-0.651855	0.015869	-0.356689
235.0	6.373951	1.023448	8.048146	-0.006321	0.013124	-0.017948	-0.653809	0.011475	-0.358887
236.0	6.361117	1.020694	8.081391	-0.012125	0.011966	-0.018012	-0.65625	0.013672	-0.358887
237.0	6.403758	1.014489	8.042205	-0.006928	0.014292	-0.015092	-0.6521	0.018066	-0.358887
238.0	6.361906	1.05817	8.051111	-0.003938	0.011868	-0.01578	-0.65625	0.015869	-0.361328
239.0	6.389832	1.012339	8.076234	-0.010715	0.010467	-0.017288	-0.658447	0.018066	-0.363525
240.0	6.390286	1.030997	8.061064	-0.007903	0.014045	-0.016539	-0.65625	0.018066	-0.354492
241.0	6.365176	1.007563	8.069545	-0.007903	0.014043	-0.01654	-0.658447	0.018066	-0.358887
242.0	6.377187	1.029426	8.022115	-0.009044	0.013238	-0.015839	-0.654053	0.013672	-0.356689
243.0	6.352699	1.023379	8.08767	-0.009576	0.011262	-0.017998	-0.660889	0.020264	-0.359131
244.0	6.397195	1.03571	8.032303	-0.009136	0.009527	-0.018713	-0.649658	0.015869	-0.356689
245.0	6.36063	1.009189	8.072926	-0.006326	0.013106	-0.017962	-0.65625	0.013672	-0.358887
246.0	6.393327	1.01825	8.050025	-0.011326	0.011624	-0.01444	-0.654297	0.018066	-0.358887
247.0	6.382161	1.033747	8.067147	-0.005886	0.011371	-0.018678	-0.662842	0.015869	-0.358887
248.0	6.391133	1.019158	8.051653	-0.008607	0.011494	-0.016561	-0.658447	0.018066	-0.358887
249.0	6.391574	1.037819	8.036504	-0.008078	0.013467	-0.014404	-0.658447	0.013672	-0.356689
250.0	6.354871	1.011158	8.077214	-0.006329	0.013097	-0.017968	-0.660645	0.013672	-0.356689
251.0	6.363757	0.9966	8.061792	-0.007469	0.012292	-0.017268	-0.658447	0.015869	-0.361328
252.0	6.386331	1.02107	8.05522	-0.00633	0.013093	-0.017971	-0.658447	0.013672	-0.352051
253.0	6.383725	1.003405	8.071956	-0.005172	0.007337	-0.017967	-0.656006	0.009277	-0.358887
254.0	6.374353	1.037453	8.072842	-0.008168	0.009751	-0.017284	-0.653809	0.011475	-0.358887
255.0	6.393656	1.007882	8.040883	-0.003062	0.008382	-0.017226	-0.654053	0.013672	-0.358887
256.0	6.392852	1.008499	8.041444	-0.007894	0.007456	-0.015853	-0.658447	0.013672	-0.363525
257.0	6.373283	1.057602	8.058693	-0.00492	0.011597	-0.017245	-0.656006	0.011475	-0.361084
258.0	6.380795	1.024821	8.059129	-0.005617	0.009061	-0.017259	-0.658447	0.013672	-0.361084
259.0	6.379795	1.025327	8.059857	-0.008614	0.011472	-0.016577	-0.658447	0.013672	-0.358887
260.0	6.410949	1.016247	8.052997	-0.007475	0.012275	-0.01728	-0.662842	0.018066	-0.356689
261.0	6.345246	1.035696	8.069234	-0.008615	0.011469	-0.016579	-0.658447	0.018066	-0.361328
262.0	6.388095	1.029784	8.030103	-0.009059	0.013197	-0.015867	-0.654053	0.015869	-0.361328
263.0	6.375178	1.026909	8.063308	-0.008447	0.012024	-0.01873	-0.654053	0.015869	-0.361328
264.0	6.396133	1.032902	8.072812	-0.009061	0.013193	-0.01587	-0.651855	0.015869	-0.363525
265.0	6.350642	1.022105	8.056481	-0.008448	0.01202	-0.018733	-0.658203	0.011475	-0.361084
266.0	6.383461	1.031465	8.033572	-0.007202	0.009974	-0.015854	-0.65625	0.015869	-0.358887
267.0	6.380748	1.013516	8.050422	-0.006954	0.014237	-0.015128	-0.65625	0.015869	-0.363525
268.0	6.391599	1.034627	8.076181	-0.009143	0.00948	-0.018751	-0.651855	0.015869	-0.363525
269.0	6.354772	0.990385	8.059479	-0.005015	0.014725	-0.012236	-0.658447	0.013672	-0.363525
270.0	6.375778	0.996405	8.06895	-0.008173	0.009722	-0.017306	-0.653809	0.011475	-0.356689
271.0	6.37643	1.01534	8.053613	-0.007559	0.008549	-0.020171	-0.65625	0.013672	-0.361084
272.0	6.385583	1.000869	8.038055	-0.007482	0.012253	-0.017296	-0.660645	0.013672	-0.358887
273.0	6.374305	1.016469	8.055152	-0.007036	0.010521	-0.018012	-0.65625	0.015869	-0.363525
274.0	6.385185	1.037621	8.08087	-0.008622	0.011444	-0.016598	-0.658447	0.015869	-0.356689
275.0	6.394279	1.022927	8.065395	-0.007652	0.011688	-0.015151	-0.662842	0.015869	-0.361328
276.0	6.359249	1.014373	8.089885	-0.005545	0.012739	-0.014404	-0.658447	0.018066	-0.358887
277.0	6.403852	1.026961	8.034763	-0.0109	0.009827	-0.015201	-0.656494	0.020264	-0.361328
278.0	6.377671	0.98493	8.058773	-0.005621	0.009032	-0.017283	-0.656006	0.011475	-0.358887
279.0	6.379772	1.02227	8.027548	-0.006516	0.012487	-0.015856	-0.658447	0.015869	-0.358887
280.0	6.400828	1.028375	8.036991	-0.007208	0.009951	-0.015871	-0.65625	0.015869	-0.361328
281.0	6.36593	1.019878	8.061342	-0.00607	0.010756	-0.016573	-0.654053	0.013672	-0.361084
282.0	6.397205	1.01096	8.054489	-0.008625	0.011429	-0.016609	-0.656494	0.020264	-0.356689
283.0	6.384322	1.008141	8.087566	-0.005901	0.011311	-0.018725	-0.658447	0.015869	-0.361328
284.0	6.386345	1.045475	8.056406	-0.009596	0.011177	-0.018062	-0.65625	0.015869	-0.354492
285.0	6.392337	0.993906	8.072925	-0.007307	0.013089	-0.01085	-0.658447	0.015869	-0.363525
286.0	6.392867	1.012694	8.057714	-0.007561	0.008524	-0.020193	-0.662842	0.015869	-0.352051
287.0	6.381593	1.028295	8.074754	-0.006521	0.012474	-0.015866	-0.656494	0.020264	-0.356689
288.0	6.392263	1.032099	8.043328	-0.00766	0.011666	-0.015167	-0.656006	0.011475	-0.356689
289.0	6.379363	1.029069	8.076418	-0.008629	0.011416	-0.016619	-0.65625	0.018066	-0.358887
290.0	6.37675	0.993778	8.035899	-0.007211	0.009935	-0.015884	-0.656006	0.011475	-0.361084
291.0	6.387566	1.014859	8.061645	-0.00863	0.011412	-0.016622	-0.658447	0.013672	-0.365723
292.0	6.374687	0.994483	8.037449	-0.010737	0.010355	-0.017374	-0.65625	0.013672	-0.358887
293.0	6.376798	1.031821	8.006238	-0.005456	0.009567	-0.019452	-0.664795	0.013672	-0.352051
294.0	6.384498	1.016078	8.063921	-0.009421	0.012019	-0.01161	-0.65625	0.013672	-0.363525
295.0	6.384917	1.034723	8.048824	-0.006526	0.012461	-0.015875	-0.654053	0.015869	-0.358887
296.0	6.394036	1.020229	8.033386	-0.007495	0.01221	-0.017328	-0.651611	0.011475	-0.358887
297.0	6.38105	1.017316	8.066495	-0.008463	0.011958	-0.018781	-0.65625	0.013672	-0.363525
298.0	6.379889	1.017817	8.06735	-0.006528	0.012456	-0.015879	-0.651611	0.011475	-0.358887
299.0	6.378725	1.01831	8.068208	-0.007496	0.012204	-0.017332	-0.660645	0.013672	-0.358887
300.0	6.358522	1.049995	8.028467	-0.004424	0.013509	-0.015129	-0.660645	0.018066	-0.358887
301.0	6.386694	1.004492	8.053612	-0.008013	0.010224	-0.019502	-0.654053	0.013672	-0.356689
302.0	6.376935	1.038408	8.054676	-0.008184	0.009665	-0.017352	-0.654053	0.015869	-0.356689
303.0	6.39641	1.026167	8.08013	-0.006531	0.012447	-0.015885	-0.658203	0.011475	-0.361084
304.0	6.3513	1.01536	8.06336	-0.00711	0.006766	-0.020935	-0.658691	0.020264	-0.356689
305.0	6.406372	1.030812	8.049236	-0.00767	0.011636	-0.015189	-0.649414	0.011475	-0.358887
306.0	6.369889	1.003602	8.089452	-0.008185	0.009657	-0.017357	-0.654053	0.013672	-0.363525
307.0	6.380758	1.007585	8.05793	-0.007049	0.010463	-0.018057	-0.654053	0.015869	-0.361328
308.0	6.367905	1.004625	8.090886	-0.008186	0.009654	-0.01736	-0.658447	0.015869	-0.358887
309.0	6.368668	1.023607	8.075479	-0.004893	0.004978	-0.016598	-0.660645	0.015869	-0.356689
310.0	6.39023	1.030061	8.084523	-0.006374	0.002748	-0.02022	-0.654053	0.013672	-0.361084
311.0	6.388426	0.995193	8.043432	-0.00444	0.00325	-0.017314	-0.65625	0.013672	-0.358887
312.0	6.379258	1.029475	8.043948	-0.003364	0.000354	-0.020897	-0.65625	0.013672	-0.361084
313.0	6.368593	1.045429	8.060365	-0.002851	0.002329	-0.01873	-0.65625	0.015869	-0.361328
314.0	6.366966	1.010739	8.019124	-0.003534	-0.000206	-0.018747	-0.658447	0.013672	-0.358887
315.0	6.400553	1.037917	8.052951	-0.006262	-9.8e-05	-0.016636	-0.660889	0.022461	-0.359131
316.0	6.388488	1.017834	8.028123	-0.00393	0.005221	-0.01515	-0.6521	0.018066	-0.356689
317.0	6.421792	1.045028	8.06217	-0.003989	0.001516	-0.018035	-0.654053	0.013672	-0.358887
318.0	6.385949	1.00088	8.044693	-0.005638	0.008972	-0.017329	-0.662598	0.011475	-0.358887
319.0	6.39846	1.040713	8.054253	-0.004444	0.003239	-0.017322	-0.6521	0.018066	-0.361328
320.0	6.38612	1.020545	8.029662	-0.008367	0.009077	-0.015219	-0.654297	0.018066	-0.361328
321.0	6.373394	1.017431	8.062519	-0.006776	0.008159	-0.016634	-0.65625	0.015869	-0.358887
322.0	6.372504	1.017911	8.063162	-0.008199	0.009629	-0.017375	-0.654297	0.018066	-0.356689
323.0	6.405471	1.02767	8.04039	-0.008199	0.009627	-0.017376	-0.654053	0.015869	-0.356689
324.0	6.382336	1.022427	8.032431	-0.005416	0.013222	-0.016604	-0.658691	0.020264	-0.359131
325.0	6.401936	1.010208	8.057817	-0.010016	0.006281	-0.016697	-0.65625	0.015869	-0.363525
326.0	6.38047	1.02326	8.033807	-0.008488	0.011902	-0.018819	-0.662842	0.018066	-0.354492
327.0	6.390849	1.044491	8.059805	-0.006842	0.014688	-0.017348	-0.6521	0.020264	-0.363525
328.0	6.410437	1.01515	8.028117	-0.007691	0.011597	-0.015213	-0.658447	0.018066	-0.358887
329.0	6.376945	1.024544	8.036442	-0.009794	0.010531	-0.015972	-0.658447	0.013672	-0.363525
330.0	6.408245	1.01578	8.029787	-0.00798	0.013873	-0.016654	-0.65625	0.013672	-0.358887
331.0	6.38474	1.027498	8.079195	-0.008659	0.011337	-0.016673	-0.658447	0.015869	-0.358887
332.0	6.371879	1.007142	8.055062	-0.006506	0.016102	-0.013029	-0.660645	0.015869	-0.363525
333.0	6.372208	1.025919	8.040024	-0.010304	0.008545	-0.018149	-0.65625	0.013672	-0.356689
334.0	6.37106	1.026244	8.040892	-0.007474	0.015844	-0.014488	-0.65625	0.018066	-0.361328
335.0	6.402306	1.017466	8.03431	-0.010762	0.010265	-0.017438	-0.658447	0.015869	-0.356689
336.0	6.346615	1.020993	8.033944	-0.007475	0.01584	-0.01449	-0.654297	0.018066	-0.358887
337.0	6.410329	1.003166	8.019868	-0.009797	0.010516	-0.015984	-0.658203	0.011475	-0.356689
338.0	6.367843	1.045853	8.028561	-0.008661	0.011325	-0.016683	-0.654297	0.020264	-0.359131
339.0	6.387202	1.033417	8.054175	-0.009749	0.014214	-0.013099	-0.651855	0.013672	-0.354248
340.0	6.406984	1.003853	8.022455	-0.011729	0.009999	-0.018903	-0.660645	0.015869	-0.363525
341.0	6.39515	1.019003	8.039813	-0.008228	0.019831	-0.015221	-0.651611	0.011475	-0.358887
342.0	6.384637	1.052516	8.041404	-0.009751	0.014208	-0.013104	-0.6604	0.011475	-0.358887
343.0	6.380294	1.01556	8.074292	-0.014532	0.016627	-0.017507	-0.65625	0.013672	-0.358887
344.0	6.380296	1.033987	8.059574	-0.009247	0.016182	-0.010933	-0.65625	0.018066	-0.356689
345.0	6.390778	1.037559	8.028564	-0.012603	0.017134	-0.014595	-0.654053	0.013672	-0.363525
346.0	6.38627	1.000571	8.061575	-0.010503	0.018199	-0.013835	-0.658447	0.018066	-0.356689
347.0	6.409705	1.043406	8.039845	-0.012144	0.015407	-0.015314	-0.660645	0.018066	-0.358887
348.0	6.364156	1.031704	8.023403	-0.01193	0.019659	-0.014582	-0.65625	0.018066	-0.361328
349.0	6.415503	1.010083	8.041996	-0.010505	0.018191	-0.01384	-0.65625	0.013672	-0.361084
350.0	6.381311	1.01896	8.050806	-0.013528	0.020564	-0.013175	-0.658447	0.018066	-0.356689
351.0	6.401505	1.024564	8.061117	-0.013528	0.020561	-0.013178	-0.65625	0.015869	-0.354492
352.0	6.411674	1.02807	8.030422	-0.013358	0.021112	-0.015335	-0.658447	0.015869	-0.354492
353.0	6.375907	1.018482	8.055147	-0.012897	0.019388	-0.016053	-0.656006	0.011475	-0.361084
354.0	6.362136	1.014837	8.088698	-0.010799	0.020453	-0.015291	-0.654297	0.018066	-0.356689
355.0	6.372415	1.018503	8.057908	-0.014034	0.01857	-0.015362	-0.65625	0.015869	-0.356689
356.0	6.38143	1.003806	8.042802	-0.010377	0.01503	-0.0189	-0.656006	0.011475	-0.354248
357.0	6.367803	1.000323	8.0762	-0.008875	0.02096	-0.012375	-0.654297	0.018066	-0.361328
358.0	6.378218	1.004245	8.045295	-0.009414	0.015283	-0.017443	-0.658447	0.015869	-0.361328
359.0	6.400447	1.028914	8.039265	-0.008833	0.010733	-0.014562	-0.658447	0.015869	-0.356689
360.0	6.363795	1.001199	8.07925	-0.006854	0.014629	-0.017395	-0.654053	0.015869	-0.356689
361.0	6.385837	1.026026	8.073349	-0.00749	0.015792	-0.014526	-0.65625	0.015869	-0.356689
362.0	6.384445	1.026466	8.074394	-0.006855	0.014625	-0.017398	-0.654297	0.018066	-0.358887
363.0	6.371745	1.006289	8.050167	-0.00799	0.013811	-0.016705	-0.651855	0.015869	-0.361328
364.0	6.393789	1.030955	8.0443	-0.009091	0.016693	-0.013121	-0.658447	0.018066	-0.363525
365.0	6.390837	1.012728	8.06128	-0.00732	0.016338	-0.016688	-0.654297	0.018066	-0.361328
366.0	6.400113	0.998452	8.045964	-0.00849	0.011827	-0.018887	-0.660645	0.015869	-0.356689
367.0	6.388239	1.01365	8.063223	-0.007494	0.01578	-0.014535	-0.649902	0.018066	-0.361328
368.0	6.354439	1.023047	8.071517	-0.005928	0.011176	-0.018837	-0.65625	0.018066	-0.358887
369.0	6.387353	1.033418	8.049096	-0.004966	0.011433	-0.017376	-0.654053	0.015869	-0.361328
370.0	6.395508	1.000634	8.049354	-0.008371	0.008994	-0.015294	-0.65625	0.013672	-0.356689
371.0	6.383879	1.015793	8.066406	-0.006567	0.012335	-0.015969	-0.660645	0.018066	-0.361328
372.0	6.394877	1.019927	8.035092	-0.0098	0.010449	-0.016045	-0.653809	0.011475	-0.354248
373.0	6.392305	1.001838	8.051748	-0.006396	0.012886	-0.018129	-0.65625	0.013672	-0.361084
374.0	6.36006	1.029522	8.04414	-0.009478	0.011869	-0.011713	-0.658447	0.013672	-0.358887
375.0	6.379409	1.017123	8.069774	-0.004645	0.012848	-0.013047	-0.65625	0.015869	-0.356689
376.0	6.390443	1.021367	8.038436	-0.0082	0.009537	-0.01746	-0.65625	0.013672	-0.363525
377.0	6.389459	1.021884	8.039153	-0.006104	0.010608	-0.016691	-0.65625	0.013672	-0.361084
378.0	6.386922	1.003702	8.055787	-0.009307	0.012416	-0.013875	-0.654053	0.013672	-0.354248
379.0	6.38723	1.022556	8.040838	-0.006571	0.012323	-0.015979	-0.658447	0.015869	-0.358887
380.0	6.386187	1.022853	8.041629	-0.010937	0.009621	-0.015363	-0.654053	0.013672	-0.361084
381.0	6.382037	0.985923	8.074226	-0.006051	0.017992	-0.010909	-0.653809	0.011475	-0.354248
382.0	6.371506	1.019661	8.075695	-0.005931	0.011154	-0.018855	-0.651855	0.015869	-0.358887
383.0	6.38092	1.005473	8.060321	-0.009431	0.015229	-0.017484	-0.654053	0.013672	-0.363525
384.0	6.400047	0.993078	8.08614	-0.010739	0.01386	-0.014634	-0.65625	0.015869	-0.361328
385.0	6.357	1.035293	8.094895	-0.008176	0.013216	-0.014579	-0.660645	0.013672	-0.361084
386.0	6.377168	1.006242	8.063194	-0.007535	0.012051	-0.017453	-0.658447	0.015869	-0.356689
387.0	6.38721	1.027292	8.089361	-0.008177	0.013212	-0.014581	-0.660645	0.018066	-0.363525
388.0	6.376193	1.025537	8.049214	-0.008965	0.013502	-0.018207	-0.665039	0.015869	-0.361328
389.0	6.406231	0.998483	8.058564	-0.009018	0.010126	-0.012447	-0.65625	0.015869	-0.361328
390.0	6.372492	1.007547	8.066727	-0.006871	0.014574	-0.017437	-0.654053	0.015869	-0.356689
391.0	6.372266	0.991147	8.010219	-0.010766	0.010152	-0.01754	-0.658447	0.015869	-0.363525
392.0	6.371621	1.026837	8.052668	-0.007046	0.014017	-0.015281	-0.658691	0.020264	-0.361328
393.0	6.368896	1.00869	8.069424	-0.008007	0.013754	-0.016748	-0.658691	0.020264	-0.359131
394.0	6.369058	1.027673	8.054588	-0.008008	0.013752	-0.01675	-0.658447	0.013672	-0.358887
395.0	6.380039	1.031945	8.023387	-0.008672	0.01122	-0.016774	-0.658447	0.018066	-0.361328
396.0	6.377527	1.013753	8.039981	-0.008673	0.011218	-0.016775	-0.654297	0.018066	-0.363525
397.0	6.374886	0.995474	8.056685	-0.009614	0.014647	-0.015347	-0.665039	0.015869	-0.361328
398.0	6.386258	1.03515	8.067123	-0.004015	0.011654	-0.015944	-0.654053	0.015869	-0.361328
399.0	6.394433	1.002513	8.067429	-0.0085	0.011765	-0.018939	-0.658447	0.018066	-0.358887
400.0	6.372786	1.015388	8.043533	-0.009791	0.014088	-0.013192	-0.658691	0.022461	-0.359131
401.0	6.360486	0.994942	8.019106	-0.008675	0.011209	-0.016783	-0.651855	0.015869	-0.361328
402.0	6.370545	1.015972	8.045235	-0.008675	0.011207	-0.016784	-0.656006	0.011475	-0.356689
403.0	6.389939	1.003862	8.070822	-0.00611	0.010569	-0.016724	-0.65625	0.015869	-0.361328
404.0	6.379275	1.002298	8.030424	-0.008204	0.009489	-0.017501	-0.662842	0.015869	-0.356689
405.0	6.356749	1.032029	8.06375	-0.008677	0.011202	-0.016788	-0.658447	0.018066	-0.361328
406.0	6.386838	1.005223	8.073107	-0.006584	0.012278	-0.016013	-0.65625	0.013672	-0.358887
407.0	6.376018	1.003639	8.032843	-0.006585	0.012277	-0.016015	-0.649658	0.015869	-0.365723
408.0	6.396834	1.010114	8.042671	-0.007246	0.009746	-0.016039	-0.658447	0.013672	-0.361084
409.0	6.363279	1.019301	8.050562	-0.00564	0.008846	-0.017447	-0.658447	0.013672	-0.361084
410.0	6.384244	1.025964	8.060246	-0.004681	0.009108	-0.015979	-0.65625	0.018066	-0.361328
411.0	6.392683	0.993463	8.060365	-0.005466	0.009394	-0.01961	-0.651855	0.013672	-0.358887
412.0	6.382364	1.027325	8.061561	-0.008207	0.009475	-0.017513	-0.65625	0.015869	-0.358887
413.0	6.392202	1.013307	8.045951	-0.003549	0.00992	-0.016674	-0.658447	0.013672	-0.358887
414.0	6.367853	0.989224	8.053436	-0.009156	0.012898	-0.016086	-0.6521	0.018066	-0.358887
415.0	6.37927	1.028948	8.063803	-0.005642	0.008837	-0.017454	-0.65625	0.018066	-0.356689
416.0	6.390469	1.033498	8.032488	-0.00755	0.011996	-0.017496	-0.658447	0.018066	-0.358887
417.0	6.376984	0.994729	8.023645	-0.008209	0.009466	-0.01752	-0.654053	0.015869	-0.356689
418.0	6.407339	1.003267	8.074676	-0.007067	0.013971	-0.015314	-0.660645	0.015869	-0.356689
419.0	6.387037	1.034838	8.035045	-0.008026	0.013704	-0.016785	-0.658691	0.022461	-0.359131
420.0	6.384457	1.01664	8.051678	-0.008684	0.011173	-0.01681	-0.660645	0.013672	-0.361084
421.0	6.395418	1.021056	8.020596	-0.007369	0.016229	-0.016765	-0.658447	0.018066	-0.368164
422.0	6.360167	1.011582	8.044405	-0.005643	0.008826	-0.017464	-0.660645	0.015869	-0.358887
423.0	6.368812	1.014076	8.086229	-0.008861	0.010617	-0.014653	-0.658447	0.013672	-0.361084
424.0	6.392224	1.022443	8.022965	-0.007553	0.011982	-0.017507	-0.65625	0.015869	-0.361328
425.0	6.358471	1.031527	8.030938	-0.00612	0.010534	-0.016752	-0.660645	0.013672	-0.358887
426.0	6.388733	1.00497	8.04023	-0.007078	0.010266	-0.018225	-0.654053	0.015869	-0.354492
427.0	6.38766	1.005523	8.041014	-0.007555	0.011976	-0.017512	-0.660645	0.015869	-0.361328
428.0	6.397521	1.026635	8.06723	-0.009646	0.010891	-0.018294	-0.65625	0.018066	-0.361328
429.0	6.385392	1.006376	8.042708	-0.007075	0.013951	-0.015328	-0.656494	0.020264	-0.361328
430.0	6.393736	0.973513	8.043015	-0.010779	0.01007	-0.017606	-0.65625	0.015869	-0.358887
431.0	6.407824	1.050513	8.021976	-0.005947	0.011074	-0.018923	-0.6604	0.011475	-0.356689
432.0	6.37114	1.022239	8.061511	-0.008688	0.014839	-0.013927	-0.658447	0.018066	-0.358887
433.0	6.382171	1.02663	8.03043	-0.007558	0.011965	-0.01752	-0.660889	0.020264	-0.359131
434.0	6.379613	1.008412	8.047038	-0.009169	0.012857	-0.016117	-0.654053	0.015869	-0.356689
435.0	6.356639	1.002721	8.038779	-0.007559	0.011962	-0.017523	-0.65625	0.013672	-0.358887
436.0	6.399084	1.015314	8.057924	-0.010127	0.012586	-0.017592	-0.65625	0.018066	-0.358887
437.0	6.375948	1.009612	8.049792	-0.007384	0.016197	-0.016787	-0.660645	0.013672	-0.358887
438.0	6.374613	1.009994	8.050802	-0.009171	0.012849	-0.016123	-0.65625	0.015869	-0.356689
439.0	6.408857	1.038969	8.013176	-0.009826	0.014008	-0.013247	-0.654053	0.015869	-0.358887
440.0	6.372081	1.010472	8.052746	-0.006907	0.014481	-0.017506	-0.65625	0.015869	-0.356689
441.0	6.391054	0.998356	8.078705	-0.008998	0.017081	-0.015388	-0.654297	0.022461	-0.361328
442.0	6.381585	1.015239	8.022877	-0.009172	0.012841	-0.01613	-0.654053	0.015869	-0.358887
443.0	6.36939	1.030209	8.040114	-0.006908	0.014475	-0.017511	-0.658447	0.018066	-0.365723
444.0	6.366742	1.012007	8.056775	-0.01013	0.012568	-0.017607	-0.658447	0.018066	-0.361328
445.0	6.398073	1.00376	8.050739	-0.010614	0.017964	-0.013991	-0.658447	0.015869	-0.358887
446.0	6.362678	0.993665	8.074566	-0.00887	0.010574	-0.014687	-0.658691	0.020264	-0.361328
447.0	6.385984	1.037238	8.05328	-0.010135	0.01625	-0.014708	-0.658447	0.015869	-0.356689
448.0	6.381825	1.000296	8.085758	-0.00691	0.014466	-0.017518	-0.658447	0.015869	-0.356689
449.0	6.371072	0.998771	8.045563	-0.007087	0.013914	-0.015356	-0.65625	0.013672	-0.358887
450.0	6.358875	1.013631	8.062781	-0.00822	0.013094	-0.014668	-0.654297	0.018066	-0.356689
451.0	6.390441	1.005645	8.056564	-0.008518	0.011663	-0.019023	-0.654053	0.013672	-0.358887
452.0	6.411074	1.012303	8.066594	-0.007563	0.011931	-0.01755	-0.658447	0.018066	-0.356689
453.0	6.376995	1.021052	8.074693	-0.008053	0.017324	-0.013932	-0.654053	0.013672	-0.363525
454.0	6.366473	1.019485	8.034337	-0.00725	0.005983	-0.019008	-0.65625	0.018066	-0.361328
455.0	6.407691	1.013584	8.069121	-0.009179	0.012815	-0.016151	-0.658447	0.015869	-0.356689
456.0	6.363069	1.001733	8.051526	-0.007083	0.010215	-0.01827	-0.6521	0.018066	-0.361328
457.0	6.396212	1.012559	8.02947	-0.00726	0.009665	-0.016107	-0.65625	0.015869	-0.363525
458.0	6.384143	1.027602	8.046536	-0.006435	0.012739	-0.018247	-0.654053	0.015869	-0.365723
459.0	6.359847	1.003357	8.05387	-0.006612	0.012188	-0.016084	-0.658691	0.020264	-0.359131
460.0	6.368153	1.00588	8.095838	-0.006129	0.010479	-0.0168	-0.653809	0.011475	-0.363525
461.0	6.382398	1.012847	7.991529	-0.006436	0.012733	-0.018251	-0.658447	0.015869	-0.361328
462.0	6.368903	1.009007	8.024343	-0.011446	0.011162	-0.014784	-0.660645	0.015869	-0.358887
463.0	6.377179	1.011251	8.066365	-0.006614	0.012182	-0.016089	-0.658447	0.018066	-0.361328
464.0	6.388484	1.015991	8.035187	-0.00804	0.00993	-0.019759	-0.65625	0.013672	-0.358887
465.0	6.386029	0.997771	8.051681	-0.008231	0.013066	-0.014688	-0.658447	0.018066	-0.361328
466.0	6.362839	1.027037	8.085094	-0.008702	0.011086	-0.016882	-0.65625	0.013672	-0.363525
467.0	6.406891	1.023394	8.046918	-0.007571	0.011903	-0.017572	-0.6521	0.020264	-0.361328
468.0	6.383853	1.017708	8.038649	-0.007409	0.016135	-0.016832	-0.654297	0.018066	-0.356689
469.0	6.382531	1.017917	8.039673	-0.011935	0.012854	-0.014081	-0.658447	0.013672	-0.363525
470.0	6.381191	1.017848	8.040745	-0.012728	0.016813	-0.01482	-0.660645	0.013672	-0.356689
471.0	6.390418	1.038634	8.067408	-0.009496	0.015038	-0.017627	-0.660645	0.015869	-0.356689
472.0	6.352911	0.956331	8.080378	-0.007069	0.006503	-0.021202	-0.65625	0.018066	-0.358887
473.0	6.343775	1.044783	8.107244	0.005041	-0.003663	-0.030284	-0.65625	0.015869	-0.356689
474.0	6.3699	0.822077	8.068306	0.01217	-0.008372	-0.03878	-0.660645	0.013672	-0.361084
475.0	6.352382	0.911084	8.052928	0.020269	-0.016498	-0.04871	-0.654053	0.013672	-0.356689
476.0	6.387413	0.962387	8.070304	0.040869	-0.028791	-0.053936	-0.65625	0.015869	-0.361328
477.0	6.423374	0.980076	8.045244	0.052276	-0.030444	-0.054344	-0.656006	0.011475	-0.361084
478.0	6.416068	0.986044	8.00144	0.062378	-0.033466	-0.0519	-0.656006	0.011475	-0.358887
479.0	6.410744	1.064772	7.967986	0.067473	-0.027336	-0.04596	-0.654053	0.015869	-0.361328
480.0	6.399898	1.068991	7.997628	0.065884	-0.023137	-0.050369	-0.658203	0.009277	-0.356445
481.0	6.400947	1.077305	7.995672	0.064882	-0.016049	-0.046054	-0.654053	0.013672	-0.358887
482.0	6.435637	1.095385	7.971334	0.055842	-0.011895	-0.040517	-0.658447	0.013672	-0.354248
483.0	6.439051	1.192841	7.964681	0.043257	-0.003698	-0.033616	-0.658203	0.011475	-0.356689
484.0	6.390421	1.110646	8.008875	0.030207	0.002517	-0.028901	-0.660645	0.013672	-0.352051
485.0	6.412456	1.139278	8.002495	0.020834	0.012643	-0.021901	-0.660645	0.015869	-0.358887
486.0	6.377587	1.184889	8.052073	0.003597	0.020369	-0.015845	-0.6604	0.009277	-0.358887
487.0	6.397182	1.102822	7.995207	-0.009258	0.023428	-0.016203	-0.656006	0.009277	-0.354248
488.0	6.415395	1.090464	8.021999	-0.014132	0.029801	-0.009082	-0.658447	0.013672	-0.361084
489.0	6.426324	1.112473	7.976478	-0.017683	0.033827	-0.007731	-0.660645	0.013672	-0.356689
490.0	6.420902	1.074037	8.01055	-0.021898	0.039023	-0.003498	-0.65625	0.015869	-0.356689
491.0	6.396567	1.119782	8.030093	-0.026579	0.042225	-0.00146	-0.6604	0.011475	-0.356689
492.0	6.391992	1.099184	8.048771	-0.027998	0.039947	-0.005139	-0.658447	0.013672	-0.358887
493.0	6.355964	1.105457	8.058516	-0.022079	0.03846	-0.001345	-0.660645	0.013672	-0.361084
494.0	6.361776	1.052483	8.076203	-0.010989	0.03206	-0.000301	-0.658447	0.013672	-0.356689
495.0	6.392086	1.079503	8.112425	0.003537	0.01371	-0.004239	-0.657959	0.00708	-0.356445
496.0	6.367564	1.001994	8.09358	0.019808	0.009421	-0.008839	-0.658203	0.011475	-0.363525
497.0	6.361035	1.093494	8.046782	0.024862	-0.003426	-0.01523	-0.658203	0.011475	-0.361084
498.0	6.370023	1.045161	8.061377	0.03451	-0.008396	-0.014949	-0.658203	0.011475	-0.354248
499.0	6.3961	1.111296	8.022325	0.038062	-0.012428	-0.016302	-0.656006	0.011475	-0.358887
500.0	6.396892	1.114863	8.021198	0.024567	-0.011911	-0.016702	-0.658447	0.015869	-0.358887
501.0	6.342749	1.119062	8.018243	0.013444	-0.001821	-0.014851	-0.653809	0.009277	-0.361084
502.0	6.331178	1.134692	8.034579	-0.004124	0.008137	-0.010283	-0.654053	0.013672	-0.352051
503.0	6.260281	1.129575	8.13811	-0.033015	0.008615	-0.014034	-0.658203	0.011475	-0.358887
504.0	6.29265	1.119059	8.131881	-0.046196	-0.000135	-0.010072	-0.65625	0.013672	-0.361084
505.0	6.186511	1.098891	8.330053	-0.051367	-0.031991	-0.01678	-0.658447	0.013672	-0.356689
506.0	6.212886	1.009237	8.529324	-0.053275	-0.083381	-0.02343	-0.654053	0.015869	-0.356689
507.0	6.225589	0.992186	8.464021	-0.006299	-0.179833	-0.044025	-0.656006	0.011475	-0.354248
508.0	5.760075	0.983489	9.15414	0.065959	-0.318427	-0.03663	-0.660645	0.015869	-0.356689
509.0	5.597265	0.803861	9.418115	0.168525	-0.52326	-0.00815	-0.660645	0.013672	-0.349854
510.0	4.36746	-0.029852	10.769738	0.465336	-0.899499	0.009429	-0.668945	0.009277	-0.340576
511.0	3.510457	-1.503993	11.662953	0.638599	-1.323402	0.004753	-0.671143	0.00708	-0.340576
512.0	4.452235	1.502491	11.480124	0.93504	-1.976385	-0.021009	-0.67749	0.004639	-0.320068
513.0	3.858786	1.150081	11.902118	0.941438	-2.566632	0.023422	-0.686035	-0.001953	-0.306152
514.0	4.831016	2.871285	11.613911	0.917072	-3.183294	0.150016	-0.697021	0.000244	-0.285645
515.0	5.43982	4.30841	11.431633	0.733808	-3.770156	0.407322	-0.701416	0.0	-0.262939
516.0	7.077308	5.075908	10.974474	0.41253	-4.234668	0.746129	-0.716797	0.006348	-0.240234
517.0	10.5075	5.658584	10.608637	0.07539	-4.397592	1.019711	-0.721436	0.008545	-0.212891
518.0	14.758214	5.897567	10.158316	-0.117141	-4.110673	1.141946	-0.734863	0.019287	-0.194824
519.0	14.12771	6.679013	10.6611	-0.383849	-3.51299	1.380137	-0.730957	0.030273	-0.172363
520.0	9.240477	5.389437	13.029066	-0.571274	-2.826946	1.583698	-0.733887	0.047607	-0.163574
521.0	5.776399	3.515918	12.37735	-0.651784	-2.260791	1.753399	-0.728027	0.058594	-0.152344
522.0	3.983757	0.378615	12.4565	-0.224071	-1.537003	1.613768	-0.717529	0.067383	-0.147949
523.0	0.620044	1.719976	11.808794	0.486317	-0.85471	1.347403	-0.717529	0.06958	-0.16626
524.0	1.937209	4.183834	12.457673	0.979997	-0.209518	1.081725	-0.709229	0.078369	-0.166504
525.0	-0.947773	6.61329	12.071742	0.899951	0.453955	0.862562	-0.696045	0.076172	-0.186768
526.0	-2.26646	6.67384	11.442975	0.645446	0.737615	0.672565	-0.682861	0.076416	-0.200684
527.0	-2.3381	5.90849	10.620818	0.393322	0.878429	0.426609	-0.672119	0.078613	-0.225586
528.0	-1.239021	4.92211	10.394333	0.26237	1.049723	0.114497	-0.650146	0.074463	-0.248535
529.0	-0.334004	4.420894	10.581067	0.203132	1.296613	-0.205397	-0.625977	0.068115	-0.278076
530.0	0.394714	4.041066	10.658065	0.126705	1.521607	-0.478903	-0.594971	0.062012	-0.300781
531.0	1.254223	3.772744	10.69316	-0.01136	1.698108	-0.659937	-0.560059	0.057861	-0.33252
532.0	2.337198	3.025286	10.522699	-0.174282	1.855291	-0.788474	-0.518311	0.051758	-0.355225
533.0	3.447358	2.272827	10.386422	-0.292916	1.995949	-0.897268	-0.474609	0.047607	-0.380371
534.0	4.556811	1.451631	10.244855	-0.338183	2.146195	-0.991492	-0.424072	0.041504	-0.389404
535.0	5.587568	0.854776	10.156094	-0.294192	2.266132	-1.095368	-0.365479	0.04834	-0.414551
536.0	6.791058	0.452511	10.141576	-0.217524	2.390007	-1.182584	-0.304688	0.05542	-0.412598
537.0	7.624362	0.216128	10.012545	-0.099985	2.507898	-1.279252	-0.244141	0.06665	-0.415039
538.0	8.314341	0.272442	9.889848	0.005143	2.609444	-1.355375	-0.172852	0.082275	-0.404053
539.0	8.635126	0.436138	9.680248	0.091757	2.679002	-1.420827	-0.108154	0.095947	-0.381592
540.0	8.638708	0.661617	9.504377	0.118484	2.697441	-1.470559	-0.054443	0.115723	-0.3479
541.0	8.661179	0.75386	9.435094	0.107005	2.674925	-1.497739	-0.000977	0.14209	-0.302979
542.0	8.692134	0.704557	9.430595	0.040747	2.618198	-1.521715	0.045654	0.170654	-0.241943
543.0	8.783483	0.813974	9.534388	-0.055592	2.565523	-1.507055	0.07251	0.201172	-0.181152
544.0	9.000668	0.772175	9.603165	-0.212608	2.502746	-1.461288	0.088623	0.233887	-0.108887
545.0	9.384573	0.554818	9.656298	-0.371277	2.464773	-1.408784	0.085205	0.26416	-0.036621
546.0	9.66073	0.153917	9.525916	-0.507694	2.451109	-1.353958	0.060303	0.283447	0.036133
547.0	9.713446	-0.066733	9.414919	-0.611932	2.428574	-1.28985	0.018066	0.29834	0.094971
548.0	9.916794	-0.120307	9.259716	-0.700344	2.3888	-1.172533	-0.032471	0.311035	0.151855
549.0	10.219634	-0.122621	8.930917	-0.76714	2.348798	-1.009671	-0.087158	0.310547	0.186035
550.0	10.55161	-0.120573	8.404387	-0.797869	2.326864	-0.834231	-0.145752	0.307861	0.211182
551.0	10.795973	-0.029745	7.684428	-0.790087	2.318663	-0.666817	-0.20166	0.290039	0.220947
552.0	10.852848	0.109625	6.774638	-0.742278	2.345494	-0.524472	-0.253906	0.287598	0.22998
553.0	10.353012	0.578444	5.831302	-0.707885	2.331588	-0.396024	-0.30542	0.269775	0.223633
554.0	9.905935	0.788664	4.895526	-0.694767	2.214679	-0.301783	-0.348633	0.258545	0.212402
555.0	9.943906	0.854312	3.984613	-0.647038	2.05514	-0.24004	-0.380371	0.23877	0.197021
556.0	9.721895	0.796675	3.017489	-0.555577	1.841513	-0.212956	-0.416992	0.227783	0.185791
557.0	9.970732	0.75537	2.167384	-0.407189	1.618256	-0.204585	-0.438477	0.221191	0.160889
558.0	10.189063	0.513884	1.374364	-0.223274	1.422791	-0.205403	-0.461914	0.205811	0.143066
559.0	9.788636	0.265725	0.880153	-0.026192	1.220969	-0.179369	-0.479004	0.198975	0.134033
560.0	9.616012	-0.047129	0.578499	0.134262	0.961157	-0.11692	-0.493896	0.187988	0.125244
561.0	10.081793	-0.451147	0.729302	0.258391	0.704715	-0.035373	-0.51123	0.187988	0.116211
562.0	11.035514	-0.255944	2.55391	0.574266	0.096939	0.079761	-0.517822	0.190186	0.106934
563.0	6.340733	-1.129867	-3.292526	0.122568	-0.243634	0.329082	-0.528564	0.183594	0.100342
564.0	13.195149	1.948375	-1.98549	-0.147501	-0.983975	0.637359	-0.539551	0.187744	0.102539
565.0	4.274134	0.369578	-7.481506	-0.851411	-2.037139	0.989904	-0.543945	0.189941	0.127441
566.0	1.634099	-3.503481	5.827336	-0.160622	-3.437335	0.776619	-0.552979	0.196289	0.150146
567.0	17.101375	1.057952	16.690863	-0.45001	-3.102883	0.569758	-0.55542	0.200684	0.166016
568.0	12.052808	0.972752	8.324525	-0.239637	-2.46496	0.326649	-0.55542	0.200684	0.181885
569.0	7.399443	-0.34054	10.267319	-0.026359	-2.460316	0.148706	-0.557861	0.207275	0.193359
570.0	10.711869	-0.558649	10.449839	0.090658	-2.339664	0.077674	-0.559814	0.200439	0.21167
571.0	11.073444	0.527943	11.028134	0.124456	-2.075448	0.236566	-0.559814	0.202637	0.227539
572.0	12.154303	0.008616	9.018017	0.448387	-1.860077	0.210126	-0.5625	0.213623	0.236328
573.0	10.421028	6.209995	11.087755	0.576536	-1.624265	-0.105093	-0.560059	0.209229	0.245605
574.0	7.115675	3.685422	9.351326	0.270503	-1.469514	-0.256057	-0.558105	0.211426	0.25708
575.0	6.172867	0.145743	8.459449	0.340559	-1.455272	-0.337972	-0.564697	0.213379	0.261475
576.0	6.906226	1.216415	8.82918	0.423222	-1.381366	-0.249418	-0.560059	0.209229	0.277588
577.0	7.599782	3.413261	8.861762	0.350715	-1.278019	-0.20485	-0.564697	0.211182	0.281982
578.0	8.373021	3.012021	9.088568	0.177515	-1.129958	-0.213321	-0.5625	0.211182	0.288818
579.0	8.347871	0.46347	8.83075	0.095559	-0.971409	-0.176521	-0.571045	0.208984	0.295898
580.0	7.92794	0.744025	9.031034	0.172553	-0.849396	-0.106116	-0.562012	0.20459	0.298096
581.0	11.121424	3.706229	9.618281	-0.022405	-0.683181	0.064993	-0.5625	0.211182	0.298096
582.0	7.320901	1.584953	8.188044	-0.14538	-0.436916	0.004055	-0.5625	0.211182	0.300293
583.0	6.775679	-0.518067	8.639685	-0.037369	-0.420043	-0.006199	-0.562744	0.217773	0.304688
584.0	7.370906	0.914201	8.35439	0.067703	-0.343519	-0.028133	-0.5625	0.213379	0.309326
585.0	7.021926	1.067411	8.400192	0.071906	-0.278504	-0.071117	-0.558105	0.213379	0.309326
586.0	6.643518	0.844483	8.332894	0.102448	-0.22681	-0.086048	-0.560303	0.213379	0.316162
587.0	5.786692	1.102859	8.213061	0.131625	-0.249403	-0.110754	-0.558105	0.211182	0.309326
588.0	6.989634	1.35777	8.33504	0.12201	-0.274494	-0.107958	-0.56665	0.206787	0.316406
589.0	6.170698	1.172141	8.017468	0.148168	-0.221451	-0.12172	-0.55835	0.215576	0.316162
590.0	6.256325	1.70091	8.158011	0.152491	-0.253882	-0.124447	-0.557861	0.206787	0.323242
591.0	6.342594	1.939365	7.981299	0.124027	-0.246923	-0.112201	-0.559814	0.20459	0.321045
592.0	6.469945	2.171645	7.838821	0.087803	-0.237175	-0.082089	-0.560059	0.206787	0.318604
593.0	6.639215	2.249509	7.668764	0.040689	-0.187002	-0.044997	-0.557861	0.20459	0.325439
594.0	6.554618	2.399789	7.612298	-0.020222	-0.137684	0.00757	-0.555664	0.20459	0.321045
595.0	6.430226	2.430006	7.619656	-0.089278	-0.101466	0.07782	-0.557861	0.206787	0.330078
596.0	6.350656	2.450956	7.591588	-0.158263	-0.077166	0.177105	-0.558105	0.211182	0.322998
597.0	6.242	2.538146	7.628044	-0.267502	-0.033665	0.287168	-0.551514	0.208984	0.325439
598.0	6.25328	2.225545	7.808027	-0.368279	-0.029878	0.373973	-0.558105	0.213379	0.325439
599.0	6.635139	2.019712	7.809026	-0.432779	-0.038217	0.451407	-0.555908	0.213379	0.329834
600.0	6.93528	1.906399	7.709165	-0.445872	0.036733	0.516653	-0.556152	0.215576	0.322998
601.0	6.9112	2.01614	7.954428	-0.445152	0.137436	0.562591	-0.551758	0.217773	0.325195
602.0	6.979506	1.140074	7.897995	-0.464084	0.178885	0.523923	-0.556396	0.224365	0.325195
603.0	6.308291	-0.044454	8.152617	-0.411863	0.093626	0.398505	-0.552002	0.222168	0.327393
604.0	6.708448	-1.811516	8.596614	-0.215759	0.024783	0.207508	-0.552002	0.222168	0.327393
605.0	6.515267	-1.014479	8.576123	-0.024874	-0.029281	0.050801	-0.549805	0.224365	0.32959
606.0	6.252468	-0.14789	8.498744	0.064133	-0.072291	-0.051172	-0.554199	0.222168	0.32959
607.0	6.178093	0.686338	8.159926	0.115713	-0.111733	-0.121352	-0.552002	0.222168	0.327393
608.0	6.36298	1.171868	7.954502	0.140202	-0.137312	-0.154582	-0.552002	0.219971	0.332031
609.0	6.489033	1.333764	7.884186	0.148751	-0.139614	-0.159711	-0.549805	0.222168	0.325195
610.0	6.463996	1.38083	7.865972	0.154165	-0.131242	-0.162474	-0.547607	0.222168	0.334229
611.0	6.39418	1.408562	7.902123	0.166932	-0.139146	-0.169867	-0.54541	0.222168	0.334229
612.0	6.539025	1.118785	7.839337	0.199095	-0.166131	-0.183077	-0.54541	0.222168	0.332031
613.0	6.783083	1.429948	8.021842	0.198767	-0.159463	-0.197375	-0.552002	0.219971	0.33667
614.0	6.755576	1.196364	7.795441	0.195461	-0.144878	-0.183311	-0.556152	0.219971	0.33667
615.0	6.870437	1.445616	7.866204	0.164981	-0.101132	-0.173043	-0.556152	0.219971	0.334229
616.0	6.662241	1.677894	7.581747	0.130845	-0.052845	-0.141081	-0.551758	0.217773	0.332031
617.0	6.602134	1.637123	7.507339	0.099325	-0.026303	-0.10201	-0.547363	0.217773	0.334229
618.0	6.5635	1.518897	7.577961	0.070361	-0.009252	-0.07345	-0.547363	0.217773	0.334229
619.0	6.550007	1.559794	7.578495	0.059182	0.006743	-0.04586	-0.549805	0.222168	0.332031
620.0	6.524248	1.549897	7.715818	0.050834	0.023305	-0.022637	-0.551758	0.217773	0.334229
621.0	6.466502	1.612082	7.597243	0.027421	0.041018	-0.00056	-0.553955	0.219971	0.33667
622.0	6.396637	1.583581	7.647312	-0.030275	0.084206	0.011388	-0.552002	0.222168	0.336426
623.0	6.357407	1.809344	7.98563	-0.099121	0.125588	0.016191	-0.556152	0.219971	0.334229
624.0	6.105177	1.659893	8.421666	-0.195617	0.081519	0.01968	-0.554199	0.222168	0.338867
625.0	6.190472	1.386428	8.575929	-0.27174	-0.055132	0.020021	-0.549805	0.219971	0.33667
626.0	6.473389	1.013743	8.434146	-0.267895	-0.162575	0.000143	-0.553955	0.219971	0.338867
627.0	6.510963	0.818908	8.395987	-0.20317	-0.237133	-0.032844	-0.549561	0.217773	0.338867
628.0	6.43105	0.691895	8.393579	-0.125877	-0.333271	-0.060295	-0.549805	0.219971	0.345703
629.0	6.209735	0.441251	8.658438	-0.017284	-0.451904	-0.081959	-0.551514	0.213379	0.343506
630.0	5.825602	0.289612	8.797909	0.162509	-0.626427	-0.099078	-0.547119	0.213379	0.352539
631.0	5.698029	0.22301	8.837334	0.477089	-0.837235	-0.088605	-0.547607	0.219971	0.3479
632.0	5.378133	0.913724	9.623096	0.49616	-1.056973	-0.108162	-0.538574	0.217773	0.354736
633.0	5.878207	1.712633	9.111936	0.619963	-1.329667	-0.087408	-0.545166	0.215576	0.357178
634.0	5.586139	0.721304	8.921813	0.68783	-1.587833	-0.095772	-0.536377	0.215576	0.366211
635.0	5.547376	1.229495	9.221615	0.760574	-1.871778	-0.093037	-0.536377	0.215576	0.377686
636.0	5.29383	1.600086	9.628635	0.795391	-2.216327	-0.07601	-0.527588	0.211182	0.382324
637.0	5.130898	1.978494	9.906948	0.769652	-2.649365	-0.047971	-0.516602	0.213379	0.38916
638.0	4.740634	2.137897	10.278656	0.692373	-3.155312	0.038925	-0.512207	0.213379	0.409668
639.0	4.362664	2.386204	10.479521	0.624985	-3.804978	0.14003	-0.494873	0.211426	0.418701
640.0	3.970031	2.924038	10.573239	0.541969	-4.619807	0.325172	-0.483887	0.213623	0.443848
641.0	4.555783	3.008825	10.005134	0.467847	-5.476496	0.548661	-0.462158	0.211426	0.45752
642.0	4.356496	3.325615	9.983813	0.362209	-6.240341	0.780424	-0.438232	0.213623	0.489258
643.0	4.942903	3.445369	9.66528	0.252731	-7.057414	1.022558	-0.409912	0.218262	0.511963
644.0	5.79715	2.941789	9.522749	0.263719	-7.966027	1.272886	-0.374756	0.209717	0.537109
645.0	10.861748	2.761579	8.611903	0.530766	-8.89049	1.506364	-0.333496	0.211914	0.562012
646.0	19.966412	3.522035	8.068109	0.894095	-9.487093	1.198559	-0.296631	0.21875	0.586914
647.0	24.966517	0.263818	8.236328	0.999892	-9.503667	0.805371	-0.250732	0.218994	0.605225
648.0	29.173755	6.703129	9.413927	0.926812	-9.320711	0.840644	-0.208984	0.212646	0.612061
649.0	31.175768	9.153935	8.645326	0.003847	-8.825164	1.318182	-0.169434	0.204102	0.623535
650.0	29.253974	7.237854	13.932213	-0.200312	-7.957389	1.402251	-0.145264	0.197754	0.632813
651.0	28.563345	6.218704	21.351317	0.468757	-6.613653	1.203837	-0.134033	0.191406	0.621582
652.0	20.910686	4.446967	24.432502	0.823258	-4.984089	1.096729	-0.125244	0.191406	0.623779
653.0	5.745397	9.58151	22.331366	1.188775	-3.723056	1.148176	-0.125	0.184814	0.614746
654.0	4.39961	10.75392	17.449076	-0.601776	-3.071945	1.527841	-0.133545	0.18042	0.617188
655.0	22.945745	2.396398	26.937866	0.217639	-0.252247	0.644994	-0.163574	0.171387	0.619629
656.0	9.674915	6.234233	23.226677	0.521947	2.649191	0.075337	-0.200439	0.164795	0.606201
657.0	-4.579394	6.435022	17.913634	-0.048964	3.438947	0.232444	-0.241699	0.160156	0.592529
658.0	-6.609328	2.872543	14.359839	-0.537792	3.358553	0.567309	-0.271729	0.14917	0.581543
659.0	-4.856597	-0.017098	12.663143	-0.62954	3.195247	0.810593	-0.297363	0.140137	0.568115
660.0	-3.270646	-2.121704	10.933451	-0.243004	3.204295	0.860402	-0.336426	0.133545	0.552246
661.0	-0.428815	-2.965385	9.88113	0.439578	3.468542	0.710031	-0.358154	0.131104	0.53418
662.0	2.704282	-2.489968	9.619791	1.190583	4.010517	0.459345	-0.388916	0.137695	0.506592
663.0	4.947251	-1.009999	9.351754	1.729625	4.676424	0.233201	-0.421875	0.139648	0.483887
664.0	6.539497	0.732547	9.20435	1.947359	5.401214	0.073458	-0.456787	0.143799	0.449707
665.0	7.677792	1.603814	8.906688	1.928062	6.116572	-0.040518	-0.491699	0.143799	0.420166
666.0	8.245768	1.819542	8.513102	1.771783	6.672911	-0.132901	-0.526611	0.141357	0.381348
667.0	8.443716	2.156045	7.532276	1.498464	6.986942	-0.20284	-0.557129	0.141357	0.335938
668.0	8.786486	2.355535	6.74413	1.153288	6.998085	-0.185543	-0.576172	0.130371	0.290527
669.0	9.740148	1.791492	6.150576	0.787294	6.8119	-0.142025	-0.604736	0.132568	0.233643
670.0	10.921818	0.889736	6.241869	0.554239	6.517414	-0.195679	-0.617432	0.125977	0.19043
671.0	12.142939	1.276107	6.915882	0.316172	6.181269	-0.253041	-0.632568	0.121582	0.147217
672.0	13.874707	0.090741	6.734236	0.129118	5.857745	-0.239086	-0.638672	0.11084	0.094971
673.0	14.540262	-0.657724	6.224585	0.173337	5.60772	-0.323352	-0.634033	0.104492	0.053955
674.0	14.15663	-0.814544	5.97737	0.238656	5.338516	-0.377761	-0.633301	0.091553	0.010986
675.0	14.684273	-1.10843	6.821042	0.471803	5.020563	-0.506327	-0.622314	0.085205	-0.027588
676.0	14.135982	-1.719399	6.555188	0.675343	4.688536	-0.735138	-0.617188	0.067871	-0.068359
677.0	13.830228	-1.141673	6.623853	0.916539	4.26357	-0.985854	-0.594727	0.052734	-0.104492
678.0	14.108872	-0.804358	6.972417	1.021504	3.809865	-1.204133	-0.574463	0.041992	-0.115723
679.0	14.97897	-0.404025	7.618414	1.038371	3.42417	-1.374017	-0.552246	0.029053	-0.12915
680.0	16.121051	-0.140365	8.182573	1.06922	3.127103	-1.523049	-0.534668	0.0271	-0.138184
681.0	17.951884	0.206258	9.278537	1.07824	2.981659	-1.673355	-0.518555	0.011719	-0.142578
682.0	21.59833	0.512287	10.958435	1.059094	3.031256	-1.87161	-0.511475	-0.001221	-0.146729
683.0	25.343054	1.743838	12.012758	1.010984	3.491514	-2.074018	-0.504883	-0.003418	-0.153564
684.0	26.939231	3.530899	11.796359	0.760289	4.282653	-2.183575	-0.490967	-0.020752	-0.155518
685.0	25.887097	5.359429	10.79263	0.192872	5.081544	-2.216766	-0.478027	-0.020508	-0.176025
686.0	23.524568	2.55091	8.722076	-0.564084	5.670364	-2.256559	-0.473389	-0.0271	-0.19873
687.0	21.274857	-2.42959	5.529596	-0.622807	5.896094	-2.592947	-0.459717	-0.035645	-0.209961
688.0	20.457699	1.696569	3.899513	-0.543257	5.995699	-2.69206	-0.446533	-0.041992	-0.232666
689.0	21.368472	4.558665	0.513687	-0.994154	5.844028	-2.44411	-0.430664	-0.052734	-0.259766
690.0	23.591497	4.703827	-5.134786	-1.648258	5.6291	-1.878046	-0.415527	-0.050537	-0.280518
691.0	23.148484	-6.089938	-13.267466	-1.354108	5.415834	-1.582459	-0.400146	-0.054688	-0.300781
692.0	18.846721	-15.141342	-19.884584	0.684787	4.695267	-2.264986	-0.379883	-0.067627	-0.309814
693.0	13.984743	-11.014274	-22.715565	2.723233	3.182484	-2.979124	-0.370117	-0.089355	-0.316162
694.0	10.364524	-3.059634	-19.847492	3.152981	0.927005	-2.644384	-0.369385	-0.106934	-0.311279
695.0	10.774102	1.491415	-13.720301	2.235852	-1.314053	-1.404327	-0.373535	-0.111328	-0.306641
696.0	15.040086	4.052813	-6.01006	0.820444	-2.764136	-0.023026	-0.373779	-0.106934	-0.299805
697.0	15.336027	4.624319	-0.304754	-0.416791	-2.905669	0.926697	-0.383057	-0.095947	-0.297852
698.0	15.115412	-1.164045	11.356749	-0.845037	-3.86619	1.769325	-0.400635	-0.091797	-0.28418
699.0	-11.513831	14.796685	15.124004	-1.565974	-3.883358	1.838396	-0.406006	-0.070068	-0.282471
700.0	-0.02202	9.628398	10.276555	-4.604228	-5.796595	2.599395	-0.426758	-0.041748	-0.266846
701.0	18.939278	-13.163211	-4.957323	-3.790332	-5.564938	1.923154	-0.429688	-0.026611	-0.253662
702.0	20.496394	1.5409	14.010317	-1.662968	-4.922161	0.176468	-0.443359	-0.015869	-0.249268
703.0	10.911001	1.89129	7.123731	-2.23709	-4.524188	-0.076082	-0.447754	-0.011475	-0.237793
704.0	15.210661	-4.931041	9.495027	-1.784815	-4.583606	0.021257	-0.456543	-0.009277	-0.226563
705.0	23.854403	-14.318835	9.371792	-0.601143	-3.994309	0.222507	-0.465576	-0.00293	-0.222168
706.0	20.789373	-10.412361	13.321192	0.687026	-3.460439	0.773274	-0.469971	-0.005127	-0.217529
707.0	12.008878	6.077935	11.704292	0.521629	-2.936692	0.697215	-0.474609	0.003662	-0.213135
708.0	8.795573	4.490315	9.61349	-0.222748	-2.81889	0.494974	-0.474365	-0.000732	-0.206055
709.0	6.312201	-2.993887	8.611468	-0.275076	-2.685587	0.470087	-0.485596	0.001221	-0.199219
710.0	6.511026	-1.251804	7.929965	0.03666	-2.875558	0.528684	-0.490479	0.014404	-0.197266
711.0	38.757287	8.022722	16.53246	-0.210751	-1.116201	0.578179	-0.485596	0.005615	-0.190186
712.0	7.500076	-2.322825	7.297519	-0.524387	-0.32932	0.4572	-0.486084	0.014404	-0.195068
713.0	7.010702	-1.945431	8.520211	-0.076655	-0.142379	0.20716	-0.496826	0.012207	-0.195068
714.0	7.046707	0.295841	8.226458	-0.144321	-0.059028	0.142994	-0.488281	0.016602	-0.192871
715.0	6.764125	-0.555738	8.01813	-0.045646	-0.056093	0.072723	-0.492676	0.014404	-0.195068
716.0	6.86776	1.039157	7.983872	-0.001131	-0.03591	0.047761	-0.488525	0.020996	-0.190674
717.0	6.757974	0.539531	7.957626	0.010532	-0.036528	0.036508	-0.490479	0.014404	-0.195068
718.0	6.737639	0.774114	7.905903	0.018299	-0.030465	0.023146	-0.488525	0.018799	-0.19751
719.0	6.710689	0.545868	7.878849	0.017436	-0.022484	0.014605	-0.494873	0.014404	-0.195068
720.0	6.728635	0.899184	7.907271	0.034269	-0.008293	0.011612	-0.49707	0.016357	-0.195068
721.0	6.749882	1.057314	7.875113	0.01207	0.00557	0.020709	-0.490479	0.016602	-0.195068
722.0	6.709564	0.868438	7.78206	0.009928	0.047641	0.023146	-0.490479	0.016602	-0.197266
723.0	6.54261	0.755251	7.79317	0.014247	0.062346	0.009982	-0.490479	0.016602	-0.195068
724.0	6.427785	0.526308	7.892196	0.033531	0.066984	-0.021299	-0.49707	0.014404	-0.195068
725.0	6.464179	0.307916	7.71022	0.066592	0.064286	-0.066958	-0.494873	0.014404	-0.197266
726.0	6.492735	0.393666	7.649384	0.112851	0.071831	-0.109374	-0.488281	0.016602	-0.197266
727.0	6.438039	0.515655	7.752347	0.173693	0.071844	-0.153685	-0.490479	0.014404	-0.19043
728.0	6.323303	0.050288	7.661487	0.159269	0.054613	-0.21943	-0.490479	0.014404	-0.195068
729.0	6.359287	-0.361252	7.393199	0.163789	0.048383	-0.308297	-0.494629	0.012207	-0.197266
730.0	6.349325	-0.474583	7.398421	0.239996	0.047612	-0.384916	-0.492432	0.01001	-0.192627
731.0	6.536243	1.218552	7.948409	0.33413	0.016245	-0.37861	-0.494385	0.007813	-0.199463
732.0	6.647403	1.342622	8.004458	0.315075	-0.010931	-0.326428	-0.490234	0.007813	-0.199463
733.0	6.885517	1.839076	7.867714	0.300626	-0.01337	-0.281097	-0.496338	0.001221	-0.208496
734.0	6.443462	1.738563	8.007443	0.243403	0.008208	-0.212952	-0.494385	0.007813	-0.204102
735.0	6.781481	-0.339471	6.873018	0.107222	-0.060554	-0.157519	-0.489746	-0.000977	-0.197021
736.0	7.576501	3.064557	7.916259	0.32267	-0.037252	-0.196009	-0.496338	0.001221	-0.199219
737.0	5.864469	1.506955	8.956668	0.252257	0.214397	-0.103555	-0.491943	-0.000977	-0.203857
738.0	6.741356	1.323798	8.271663	0.13513	-0.014469	-0.132198	-0.493896	-0.005371	-0.206055
739.0	6.62869	1.107927	8.082174	0.130339	-0.063107	-0.149456	-0.496094	-0.003174	-0.201416
740.0	6.704157	0.96688	8.107792	0.091004	-0.069672	-0.140217	-0.498047	-0.007568	-0.201416
741.0	6.739498	0.891337	7.981629	0.08608	-0.084391	-0.139427	-0.491455	-0.009766	-0.203613
742.0	6.708798	0.788027	7.900557	0.104032	-0.063661	-0.149447	-0.49585	-0.009766	-0.201416
743.0	6.58357	0.876247	8.067278	0.130747	-0.078133	-0.153386	-0.498047	-0.007568	-0.203613
744.0	6.739734	1.058076	7.904389	0.121501	-0.109703	-0.161421	-0.498047	-0.007568	-0.201416
745.0	6.535947	1.385421	8.180239	0.087635	-0.124778	-0.146833	-0.498047	-0.009766	-0.206055
746.0	6.535129	1.253628	8.061536	0.061085	-0.16089	-0.124262	-0.49585	-0.011963	-0.198975
747.0	6.559259	1.229474	8.120014	0.063965	-0.203262	-0.114981	-0.495605	-0.016357	-0.198975
748.0	6.409542	1.241818	8.23063	0.066359	-0.265423	-0.098108	-0.49585	-0.009766	-0.196777
749.0	6.214806	1.170587	8.468312	0.114127	-0.37432	-0.095393	-0.49585	-0.011963	-0.192139
750.0	5.946376	0.501702	8.845308	0.183342	-0.545525	-0.102556	-0.495361	-0.020508	-0.196533
751.0	5.59769	-0.013856	9.003096	0.413345	-0.788257	-0.115572	-0.495605	-0.018555	-0.1875
752.0	5.53423	0.434346	9.773016	0.574014	-1.052817	-0.140653	-0.5	-0.016357	-0.183105
753.0	4.987201	0.500352	9.709642	0.791104	-1.419625	-0.164874	-0.491211	-0.018555	-0.173828
754.0	5.210174	0.474798	9.47866	0.849528	-1.785248	-0.169425	-0.497559	-0.020752	-0.166992
755.0	5.138078	1.115469	9.750285	0.960351	-2.18996	-0.178271	-0.493164	-0.020752	-0.155518
756.0	5.081651	1.260127	9.782309	0.943415	-2.61436	-0.212744	-0.493164	-0.020752	-0.144287
757.0	5.091712	1.80312	9.738991	0.798076	-3.030775	-0.221945	-0.495361	-0.020752	-0.128174
758.0	4.750693	2.344686	9.85104	0.648383	-3.54702	-0.175074	-0.486816	-0.016357	-0.110107
759.0	4.70747	2.227459	9.546378	0.510454	-4.165417	-0.097828	-0.47998	-0.025146	-0.087158
760.0	4.81903	2.337001	9.100527	0.453504	-4.79815	-0.008361	-0.476074	-0.014404	-0.064453
761.0	4.49663	2.384812	9.318108	0.412797	-5.50659	0.080694	-0.469482	-0.016357	-0.043945
762.0	4.316425	3.404693	9.101831	0.304735	-6.304885	0.248008	-0.457031	-0.001221	-0.019287
763.0	4.134472	3.559253	8.513683	0.222952	-7.195805	0.488876	-0.443604	-0.005615	0.010498
764.0	5.817573	3.497071	8.208958	0.189443	-8.123572	0.754206	-0.422363	0.005371	0.039795
765.0	9.653607	3.971417	7.65723	0.457901	-8.990453	0.947252	-0.394531	0.014404	0.064697
766.0	17.215042	6.445017	8.071075	0.744417	-9.744064	1.038462	-0.357422	0.016602	0.101074
767.0	25.228054	2.942284	7.341507	0.728565	-10.019927	0.932787	-0.321289	0.038574	0.12793
768.0	27.126986	-0.120707	7.345291	1.209534	-10.048276	0.53273	-0.271484	0.047607	0.161865
769.0	30.926633	11.072951	6.219171	0.570027	-9.931411	0.838299	-0.219727	0.056641	0.193604
770.0	33.449289	7.119197	13.528225	0.302633	-9.166094	1.368149	-0.156738	0.065674	0.231934
771.0	31.83652	6.607364	20.754503	0.981052	-8.007603	1.138593	-0.10498	0.07666	0.263672
772.0	27.897022	5.622483	24.550381	1.349442	-6.359742	0.997547	-0.05127	0.094482	0.290527
773.0	21.324397	5.316802	29.065572	2.014577	-4.035748	0.683912	-0.001221	0.099121	0.313232
774.0	-1.815303	18.415309	20.547059	0.335922	-2.704981	1.378331	0.0354	0.110107	0.335693
775.0	18.853321	0.062897	23.6293	0.08903	-1.389937	0.975387	0.056885	0.114746	0.363037
776.0	24.575977	7.745355	28.376244	0.577685	2.913467	0.022565	0.058838	0.123291	0.396973
777.0	2.031241	6.837661	19.667211	0.039004	4.691673	0.065772	0.054199	0.127441	0.426514
778.0	-3.465679	4.088255	14.93125	-0.726393	4.859067	0.522682	0.036621	0.129639	0.45166
779.0	-2.306188	-0.376112	12.042354	-1.008659	4.656471	1.009358	0.019043	0.135986	0.469727
780.0	0.954049	-2.085265	10.379012	-0.82105	4.520524	1.36312	0.003662	0.137939	0.485596
781.0	3.738051	-2.647856	8.680379	-0.351981	4.763188	1.604239	-0.023193	0.150879	0.505859
782.0	5.68394	-2.464198	7.529618	0.277127	5.398448	1.708248	-0.047852	0.166016	0.521729
783.0	6.042814	-1.856461	6.883322	0.874478	6.130145	1.674803	-0.090088	0.185303	0.532715
784.0	5.158767	-0.934779	6.16766	1.3784	6.705818	1.529487	-0.143799	0.215576	0.543457
785.0	4.30041	0.084899	5.519097	1.714153	6.970893	1.333471	-0.20166	0.239014	0.53418
786.0	4.432806	1.568915	5.338439	1.797921	6.963599	1.125887	-0.263916	0.269287	0.515381
787.0	4.603319	3.08233	5.192786	1.595439	6.761955	0.963174	-0.348389	0.301514	0.473633
788.0	5.558078	2.435538	5.340389	1.359308	6.536067	0.718873	-0.412354	0.31665	0.407471
789.0	6.873104	3.20961	6.098002	1.246493	6.332557	0.28081	-0.453857	0.321045	0.307129
790.0	7.471927	4.866838	6.811825	0.746216	6.072716	0.053104	-0.44873	0.303955	0.209473
791.0	8.713685	3.296711	7.031076	0.240412	5.812415	-0.077253	-0.375977	0.287109	0.127686
792.0	9.441936	1.679048	7.053264	-0.01168	5.590667	-0.208469	-0.272949	0.272461	0.132324
793.0	10.964812	0.318369	7.536533	0.008991	5.389761	-0.284696	-0.179199	0.274902	0.216553
794.0	13.111157	-1.097083	8.067877	0.286724	5.236401	-0.371915	-0.193115	0.291992	0.334717
795.0	15.151152	-1.752375	8.533723	0.733791	5.127279	-0.495102	-0.2854	0.310791	0.425537
796.0	16.512144	-1.706131	8.660735	1.271565	5.018453	-0.684838	-0.425293	0.316406	0.446289
797.0	17.245698	-0.55202	8.918177	1.699458	4.853687	-0.904914	-0.564209	0.29834	0.405762
798.0	18.426746	0.320576	9.638556	1.864902	4.628744	-1.080783	-0.674072	0.269287	0.333496
799.0	20.421432	0.542677	10.565113	1.877647	4.42875	-1.228484	-0.743896	0.223389	0.240967
800.0	22.526941	0.744355	11.115697	1.919702	4.322608	-1.370535	-0.787842	0.181885	0.153076
801.0	24.893419	0.614869	11.615089	1.928836	4.38519	-1.524934	-0.816406	0.133789	0.06958
802.0	26.376036	0.34217	11.221176	1.904712	4.517984	-1.740107	-0.821045	0.090332	-0.00708
803.0	26.99631	1.165562	11.632185	1.846544	4.71332	-1.925426	-0.821289	0.046875	-0.081299
804.0	27.240133	1.317599	10.060082	1.669115	4.965778	-2.084146	-0.804199	0.007813	-0.148926
805.0	25.528395	-4.410086	7.017219	1.340492	5.281763	-2.376941	-0.780518	-0.033447	-0.205078
806.0	22.297491	-10.247154	1.992222	2.131107	5.39579	-3.253369	-0.743408	-0.081055	-0.249756
807.0	23.403389	2.994497	0.378763	2.19935	5.358206	-3.332621	-0.709473	-0.113525	-0.294922
808.0	25.486234	8.246723	-4.053147	0.327442	5.04841	-2.420459	-0.675781	-0.132813	-0.335449
809.0	27.452942	-0.233741	-11.895038	-1.263212	4.706543	-1.572873	-0.642822	-0.136719	-0.360596
810.0	27.258322	-12.268706	-17.933761	-0.825602	4.460344	-1.713701	-0.611816	-0.147461	-0.389893
811.0	22.839519	-13.084889	-20.296888	0.606463	3.845634	-2.37229	-0.586914	-0.166992	-0.410156
812.0	15.175633	-7.575998	-19.795096	1.455191	2.432558	-2.505302	-0.568848	-0.184326	-0.414307
813.0	9.051456	-2.925416	-16.177834	1.386002	0.366452	-1.835525	-0.557129	-0.20166	-0.411865
814.0	11.482675	-0.194919	-10.519353	0.791403	-1.614143	-0.801503	-0.563477	-0.203857	-0.395752
815.0	18.606246	0.903815	-4.854571	0.082288	-2.691696	-0.01517	-0.572021	-0.210449	-0.381836
816.0	17.018892	13.278713	9.570518	-2.147088	-3.788825	0.746067	-0.583496	-0.19751	-0.37085
817.0	1.123749	-1.171461	8.926402	-1.597995	-2.480843	0.11295	-0.594971	-0.182373	-0.362061
818.0	-12.466117	16.763617	20.429411	-4.430905	-4.82862	0.858642	-0.611572	-0.15625	-0.330566
819.0	14.298706	-13.539805	-4.569931	-6.174224	-5.19589	1.012908	-0.634033	-0.13916	-0.312744
820.0	19.450423	-8.699571	6.209942	-2.233965	-5.169885	-0.70511	-0.640381	-0.141357	-0.287598
821.0	14.614836	-3.683168	10.16094	-2.502069	-4.325333	-0.8981	-0.656006	-0.13501	-0.262451
822.0	12.9976	-10.058587	7.776187	-1.871231	-4.308487	-0.420475	-0.664795	-0.13501	-0.235107
823.0	23.271621	-19.521488	9.883596	-0.369357	-3.913502	0.331507	-0.673584	-0.133057	-0.212402
824.0	23.315007	-9.069679	13.39653	1.239321	-3.250064	0.83523	-0.678223	-0.126465	-0.189697
825.0	10.382563	10.005321	12.537155	0.867888	-2.737706	0.445333	-0.691162	-0.131104	-0.171387
826.0	7.543954	-0.374471	9.455709	0.167135	-2.824947	0.005076	-0.693604	-0.124512	-0.15332
827.0	9.026133	-7.130886	9.676081	0.508121	-2.607216	0.056975	-0.693359	-0.128906	-0.132813
828.0	11.14803	4.017233	10.916881	0.903057	-2.575204	0.259394	-0.697998	-0.124756	-0.121338
829.0	22.785974	16.444361	10.258894	-0.31726	-1.593941	0.559529	-0.700195	-0.120361	-0.10791
830.0	10.5274	-3.746805	8.429278	-0.721596	-1.000903	0.522002	-0.698242	-0.118164	-0.103271
831.0	8.425042	-1.035224	8.711932	-0.078149	-0.693772	0.483009	-0.705078	-0.111572	-0.101074
832.0	8.072635	1.541952	8.54144	-0.293866	-0.506701	0.389972	-0.705078	-0.109619	-0.09668
833.0	8.65007	-1.842406	8.409859	-0.122569	-0.334367	0.295308	-0.702881	-0.11377	-0.098877
834.0	7.525783	-0.044611	8.478253	0.021174	-0.166135	0.144945	-0.70752	-0.105225	-0.092041
835.0	6.937845	0.058782	8.228274	0.062734	-0.149087	0.058122	-0.709717	-0.105225	-0.089844
836.0	6.837634	0.34072	8.138616	0.091129	-0.14417	-0.001643	-0.709717	-0.107422	-0.092041
837.0	6.774027	0.420288	8.057615	0.114829	-0.122013	-0.043467	-0.709473	-0.111816	-0.087402
838.0	6.631514	0.859845	8.005003	0.116184	-0.113775	-0.069179	-0.705078	-0.109619	-0.085205
839.0	6.664501	0.906589	7.919538	0.106799	-0.095156	-0.073731	-0.709473	-0.107422	-0.089844
840.0	6.576504	0.793864	7.904939	0.120056	-0.080524	-0.080858	-0.71167	-0.111816	-0.0896
841.0	6.544556	0.77136	8.007774	0.149674	-0.079861	-0.116413	-0.709473	-0.109619	-0.087402
842.0	6.416692	0.776463	8.058053	0.18058	-0.093862	-0.151636	-0.709229	-0.114014	-0.0896
843.0	6.487178	0.766124	8.123283	0.199856	-0.123525	-0.181292	-0.707031	-0.114014	-0.085205
844.0	6.514436	0.932457	8.092202	0.216087	-0.140509	-0.186394	-0.708984	-0.118408	-0.084961
845.0	6.671716	0.789209	7.893969	0.219597	-0.158359	-0.197388	-0.711426	-0.116211	-0.084961
846.0	6.701231	1.217798	7.839212	0.214529	-0.152127	-0.192636	-0.711426	-0.114014	-0.080566
847.0	6.777632	1.216024	7.827285	0.188744	-0.149178	-0.174745	-0.708984	-0.118408	-0.084961
848.0	6.728829	1.348998	7.795757	0.151388	-0.15459	-0.164896	-0.70459	-0.122559	-0.080322
849.0	6.84174	1.301199	7.734494	0.113698	-0.13506	-0.136537	-0.706543	-0.126953	-0.078125
850.0	6.84286	1.301171	7.626208	0.069951	-0.093055	-0.107802	-0.706787	-0.120605	-0.075928
851.0	6.793127	1.270769	7.648449	0.045928	-0.047054	-0.075824	-0.706543	-0.126953	-0.084961
852.0	6.810952	1.211997	7.600878	0.024465	-0.023231	-0.045674	-0.706787	-0.122559	-0.075928
853.0	6.65537	1.240978	7.35971	-0.003614	0.01239	-0.008063	-0.706787	-0.122559	-0.075928
854.0	6.915307	1.596728	7.493426	0.008741	0.037256	-0.001796	-0.702393	-0.122559	-0.082764
855.0	6.44965	1.279367	7.900322	-0.07547	0.097711	0.042212	-0.713379	-0.118408	-0.07373
856.0	6.770496	1.044167	7.928435	-0.097163	0.075527	0.034805	-0.706543	-0.124756	-0.075684
857.0	6.608354	0.820643	8.018281	-0.080201	0.048136	0.018495	-0.708984	-0.122559	-0.082764
858.0	6.653112	0.699775	8.071643	-0.068246	0.009499	-0.002728	-0.70459	-0.120361	-0.080322
859.0	6.678086	0.550343	8.199702	-0.02345	-0.052996	-0.02531	-0.70874	-0.126953	-0.08252
860.0	6.654117	0.563656	8.128382	0.022855	-0.113529	-0.064209	-0.709229	-0.116211	-0.080566
861.0	6.614821	0.720024	8.110804	0.059277	-0.177793	-0.096289	-0.70874	-0.124756	-0.075684
862.0	6.647606	0.9327	7.956773	0.06874	-0.223722	-0.112813	-0.706543	-0.12915	-0.075684
863.0	6.648485	1.068991	7.940002	0.062118	-0.260067	-0.121658	-0.70459	-0.122559	-0.075928
864.0	6.652885	1.166372	7.950754	0.048926	-0.297532	-0.125645	-0.711182	-0.120605	-0.075928
865.0	6.560544	1.276775	7.981825	0.024334	-0.34172	-0.113156	-0.704346	-0.124756	-0.064453
866.0	6.543361	1.303128	7.981854	0.01198	-0.40106	-0.106711	-0.708496	-0.12915	-0.062012
867.0	6.42818	1.211886	7.992589	0.012416	-0.468309	-0.096544	-0.706543	-0.127197	-0.059814
868.0	6.165799	0.949077	7.985384	0.068737	-0.557099	-0.068478	-0.704346	-0.12915	-0.055176
869.0	5.946553	0.647864	8.272149	0.204525	-0.723626	-0.033261	-0.706543	-0.129395	-0.055176
870.0	5.950105	0.824394	8.654869	0.381089	-0.923643	-0.015025	-0.708984	-0.122803	-0.041748
871.0	5.277989	-0.036965	9.408431	0.420344	-1.155639	-0.020234	-0.70874	-0.125	-0.025635
872.0	6.024398	1.474624	9.233544	0.547442	-1.450302	-0.019277	-0.708496	-0.129395	-0.027832
873.0	5.588685	0.546521	9.56645	0.679351	-1.763145	-0.033823	-0.708496	-0.129395	-0.007324
874.0	5.443087	1.017858	9.832065	0.709629	-2.118843	-0.075679	-0.70874	-0.125	0.008545
875.0	5.184736	1.824194	10.309035	0.708589	-2.562843	-0.075748	-0.713379	-0.12085	0.03125
876.0	4.596102	1.20761	10.781176	0.669888	-3.138382	-0.038515	-0.706787	-0.123047	0.056396
877.0	4.084804	1.569999	10.989922	0.657551	-3.918882	0.016258	-0.70459	-0.123047	0.085938
878.0	4.207686	3.031622	10.468312	0.606389	-4.778025	0.199977	-0.696045	-0.118652	0.126953
879.0	4.008002	2.848249	10.376798	0.48077	-5.635682	0.476963	-0.69873	-0.105713	0.163086
880.0	3.524575	3.291603	10.800475	0.314272	-6.630491	0.727188	-0.679443	-0.099121	0.210938
881.0	3.452653	3.19752	11.072217	0.142186	-7.770104	0.9861	-0.666748	-0.086182	0.262939
882.0	5.370127	2.912182	10.72772	0.197945	-9.031741	1.21014	-0.636719	-0.075195	0.328857
883.0	13.026213	3.115882	9.255924	0.522836	-10.170649	1.291614	-0.604736	-0.062012	0.390137
884.0	25.333764	4.487592	8.235747	0.770774	-10.646293	1.109794	-0.561523	-0.048828	0.453613
885.0	28.164329	0.983268	8.796544	0.804116	-10.581107	0.904315	-0.511963	-0.037842	0.510254
886.0	31.637653	7.936413	8.240893	0.191938	-10.37719	1.278593	-0.460205	-0.026611	0.557861
887.0	32.476889	8.1743	10.949795	-0.611684	-9.69108	1.82591	-0.4021	-0.009033	0.593994
888.0	33.222167	6.115086	18.942037	-0.223063	-8.485534	1.507255	-0.361084	0.002197	0.625488
889.0	31.42278	6.362341	25.151648	0.198253	-6.523163	1.141894	-0.317871	0.01123	0.636719
890.0	19.859445	2.305654	28.005173	1.009744	-4.037055	0.633379	-0.296875	0.028809	0.645508
891.0	-0.781328	15.571987	17.336256	0.305713	-2.921711	0.957079	-0.275391	0.037598	0.6521
892.0	14.097845	0.541222	22.5415	-0.267535	-1.882564	0.962219	-0.26709	0.044189	0.651855
893.0	21.987253	5.702092	27.734276	0.653386	1.924752	0.088906	-0.287354	0.059326	0.644775
894.0	0.160655	7.197415	21.121502	0.247969	3.595029	0.166409	-0.300781	0.065918	0.628662
895.0	-5.897665	5.1105	16.60953	-0.515732	3.707882	0.574067	-0.322754	0.074463	0.61499
896.0	-3.664895	-0.032933	13.564841	-0.731167	3.632315	0.868038	-0.333984	0.07666	0.610352
897.0	-1.327973	-2.122074	11.751529	-0.335025	3.765038	0.961747	-0.356445	0.091797	0.598633
898.0	0.414312	-2.851657	9.942277	0.362896	4.147409	0.887487	-0.374512	0.104736	0.587158
899.0	2.558095	-2.231149	9.137883	1.091958	4.713745	0.719599	-0.396973	0.119873	0.570801
900.0	3.952082	-1.271591	8.67871	1.623156	5.385169	0.543015	-0.426514	0.145996	0.547607
901.0	4.284056	-0.725883	8.080139	1.971051	6.015393	0.340999	-0.453613	0.167725	0.524414
902.0	5.011148	-0.361095	7.590781	2.213948	6.494319	0.097511	-0.489258	0.185059	0.496826
903.0	5.531737	0.699202	7.253348	2.227548	6.74847	-0.104154	-0.520508	0.202393	0.466797
904.0	6.36323	1.712982	7.25912	1.924603	6.828398	-0.139867	-0.553955	0.219727	0.427734
905.0	7.298616	1.276961	7.096385	1.549184	6.860638	-0.077452	-0.587646	0.237061	0.393311
906.0	8.614798	1.165961	7.124614	1.254254	6.814374	0.00772	-0.616455	0.247803	0.352051
907.0	10.28204	1.003738	7.524278	0.918698	6.730231	0.093676	-0.643311	0.262939	0.308594
908.0	11.282908	0.644873	7.862365	0.596736	6.553728	0.145094	-0.667725	0.271729	0.271973
909.0	12.683954	-0.759114	7.801781	0.386503	6.337439	0.186937	-0.687744	0.284912	0.23291
910.0	13.578658	-1.423946	7.660697	0.452431	6.147703	0.15997	-0.705566	0.29126	0.185059
911.0	14.091341	-1.275123	7.895652	0.632724	5.976422	0.102968	-0.727783	0.300049	0.143799
912.0	15.129748	-1.073399	8.534865	0.814767	5.801671	-0.039565	-0.743652	0.313232	0.102539
913.0	15.763386	-0.762245	9.215914	0.986577	5.621219	-0.277413	-0.76123	0.313232	0.043213
914.0	16.473265	-0.669142	9.385646	1.141337	5.409149	-0.564883	-0.778564	0.313232	-0.011475
915.0	16.956759	-0.598511	9.400561	1.323008	5.101566	-0.863497	-0.791016	0.297852	-0.058838
916.0	18.837719	-0.516845	10.15432	1.565559	4.71902	-1.23164	-0.797119	0.287109	-0.129395
917.0	23.287394	-0.621563	11.054174	1.921452	4.510342	-1.73082	-0.800293	0.263184	-0.178955
918.0	27.70023	0.245927	12.0573	2.309238	4.660597	-2.304233	-0.796631	0.226318	-0.23291
919.0	30.576607	2.254692	12.825728	2.426358	5.123253	-2.827256	-0.781982	0.193848	-0.300781
920.0	30.39428	4.610267	12.332027	2.147374	5.663392	-3.139844	-0.756348	0.154785	-0.354736
921.0	29.430942	4.512894	9.993472	1.469676	6.08639	-3.247181	-0.734863	0.115967	-0.408691
922.0	23.18658	-7.986104	4.774799	0.892226	6.104156	-3.709785	-0.698486	0.081299	-0.448975
923.0	23.441012	-2.579697	1.358796	1.576698	5.937773	-4.368457	-0.663818	0.038086	-0.50293
924.0	26.230421	7.735624	-2.442383	0.549541	5.633399	-4.009866	-0.625488	0.01001	-0.531982
925.0	30.045034	6.740452	-11.490392	-1.460143	5.181123	-3.023728	-0.589844	-0.00708	-0.563721
926.0	27.041354	-8.990244	-23.255416	-1.864139	4.443533	-2.487143	-0.565674	-0.013428	-0.586426
927.0	19.934625	-15.395093	-27.216656	-0.529512	2.897133	-2.715691	-0.549805	-0.026367	-0.599854
928.0	13.465342	-9.694543	-26.050945	0.363226	0.42202	-2.336069	-0.551025	-0.046143	-0.594971
929.0	15.633101	-4.214925	-17.398743	0.394659	-1.835194	-1.129227	-0.568115	-0.052734	-0.581055
930.0	21.08611	-2.568421	-8.521401	0.172169	-2.913471	-0.08643	-0.581055	-0.055176	-0.562744
931.0	19.004996	3.023865	-1.623432	0.045453	-2.925999	0.39999	-0.598877	-0.046631	-0.549316
932.0	17.639717	7.855339	11.750362	-1.575453	-4.275703	0.831094	-0.616699	-0.04248	-0.533447
933.0	-9.178571	7.577407	13.104924	-1.4804	-3.491262	0.383402	-0.645508	-0.029541	-0.503906
934.0	-6.494021	14.676446	15.255946	-3.772525	-5.467256	0.11753	-0.668213	-0.01001	-0.470215
935.0	15.61121	-4.596979	-4.868398	-4.458085	-5.650543	-0.799094	-0.701416	-0.001709	-0.438232
936.0	22.679136	4.604523	6.053785	-1.720102	-5.480629	-2.5374	-0.722656	-0.010742	-0.401611
937.0	15.970191	4.505078	11.687821	-2.766072	-4.727918	-2.347628	-0.735596	-0.017334	-0.376465
938.0	15.04788	-9.076355	7.175783	-2.806026	-4.639716	-1.284254	-0.755127	-0.017578	-0.335449
939.0	23.014748	-26.992667	9.15767	-1.009286	-4.204101	-0.18219	-0.770508	-0.013428	-0.312744
940.0	23.618137	-21.050397	14.374286	0.938868	-3.459106	0.786951	-0.781494	-0.01123	-0.282959
941.0	10.612339	4.564738	12.376167	1.287732	-2.721525	0.791342	-0.790283	-0.009277	-0.264893
942.0	3.593663	5.704909	8.931134	0.301807	-2.906319	0.484089	-0.799072	-0.009277	-0.239746
943.0	24.307956	6.390244	13.862595	-0.223269	-3.129572	0.769843	-0.803955	0.003662	-0.224121
944.0	21.305126	4.555725	7.880974	-0.813127	-0.679539	1.029776	-0.804199	0.010254	-0.217285
945.0	12.071436	-2.15209	10.436399	-0.642046	-0.681499	0.712398	-0.811035	0.014404	-0.215088
946.0	6.94562	-2.860293	6.979145	-0.141067	-0.230498	0.281161	-0.813232	0.016602	-0.212891
947.0	6.703812	-0.822988	8.781436	0.01458	-0.295717	0.04501	-0.813232	0.014404	-0.208252
948.0	6.876411	-0.651351	8.137147	0.10973	-0.283246	-0.083539	-0.811279	0.020996	-0.208496
949.0	6.840968	0.472424	8.17661	0.219094	-0.262639	-0.157908	-0.811035	0.016602	-0.208252
950.0	6.829751	0.826899	8.080461	0.21033	-0.247158	-0.189364	-0.813232	0.014404	-0.206055
951.0	6.811368	1.27546	7.860624	0.200061	-0.202617	-0.181427	-0.81543	0.014404	-0.203857
952.0	6.86755	1.073412	7.711221	0.160781	-0.128948	-0.178995	-0.810547	0.003662	-0.201172
953.0	6.684843	0.895188	7.949472	0.202631	-0.07939	-0.196269	-0.810791	0.008057	-0.203613
954.0	6.736703	1.060881	7.967465	0.206353	-0.052559	-0.202859	-0.819336	0.007813	-0.201416
955.0	6.836897	1.4743	7.913677	0.187265	-0.021837	-0.181825	-0.812988	0.01001	-0.210449
956.0	6.844613	1.478506	7.792617	0.109273	-0.003818	-0.110811	-0.814941	0.003418	-0.198975
957.0	6.958201	1.437129	7.607338	0.038891	0.043127	-0.03943	-0.812744	0.003662	-0.201172
958.0	6.952715	1.386698	7.711536	-0.005252	0.117686	0.019667	-0.817139	0.003418	-0.205811
959.0	6.925251	1.194992	8.021468	-0.044988	0.176321	0.083291	-0.817139	0.005615	-0.203613
960.0	6.848305	1.109056	7.931285	-0.083744	0.235017	0.12764	-0.812988	0.008057	-0.212646
961.0	6.722389	0.910197	7.90692	-0.117291	0.264834	0.132	-0.815186	0.007813	-0.208252
962.0	6.666056	0.719338	7.796318	-0.100979	0.259962	0.115801	-0.812744	0.003662	-0.208008
963.0	6.709119	0.830399	7.820817	-0.086561	0.238971	0.104616	-0.810791	0.010254	-0.212891
964.0	6.698308	1.056387	7.803606	-0.098777	0.24664	0.108403	-0.811035	0.014404	-0.215088
965.0	6.606357	1.126787	7.782444	-0.115784	0.262706	0.108432	-0.811035	0.014404	-0.212891
966.0	6.487501	0.516698	7.836185	-0.116375	0.258924	0.100931	-0.810791	0.010254	-0.215088
967.0	6.367238	0.267114	7.94683	-0.075908	0.221537	0.080478	-0.813477	0.020996	-0.226563
968.0	6.218255	0.39448	8.048944	-0.036862	0.185236	0.050192	-0.811035	0.014648	-0.224365
969.0	6.38318	0.135715	7.597223	0.002802	0.1393	-0.007262	-0.808838	0.014648	-0.226563
970.0	6.098233	0.468496	8.189233	0.063416	0.137794	-0.048547	-0.808838	0.016602	-0.219727
971.0	6.31867	0.680858	7.947415	0.083389	0.085123	-0.069857	-0.811035	0.014648	-0.224365
972.0	6.48834	0.968666	7.961124	0.064463	0.085293	-0.064763	-0.802246	0.014648	-0.217529
973.0	6.520537	1.208788	7.826572	0.055803	0.115318	-0.045479	-0.811035	0.016602	-0.221924
974.0	6.407175	0.852297	7.864689	0.068276	0.111051	-0.033155	-0.806641	0.014648	-0.221924
975.0	6.353952	1.032837	8.144538	0.059022	0.096744	-0.008863	-0.804199	0.010254	-0.22876
976.0	6.405216	0.954549	8.10638	0.03235	0.057151	-0.003685	-0.804443	0.012451	-0.224121
977.0	6.340889	1.015271	8.337205	0.052913	0.03535	-0.007611	-0.811035	0.016846	-0.22876
978.0	6.307208	1.026135	8.444203	-0.005396	-0.014728	0.007855	-0.802246	0.014648	-0.224365
979.0	6.419496	0.962458	8.290834	-0.002294	-0.052772	0.018244	-0.808838	0.012451	-0.226563
980.0	6.306832	0.926776	8.420896	0.044516	-0.077916	0.018859	-0.806641	0.012451	-0.219727
981.0	6.258506	1.0322	8.442149	0.045807	-0.16361	0.023245	-0.808838	0.012451	-0.224121
982.0	6.263049	0.614193	8.500031	0.05665	-0.236216	0.020711	-0.808838	0.016602	-0.217529
983.0	6.227157	0.528304	8.661698	0.081615	-0.322138	0.002415	-0.806641	0.014648	-0.217529
984.0	5.640486	-0.320425	9.080299	0.168288	-0.434359	-0.011588	-0.812988	0.008057	-0.217285
985.0	5.061484	-0.759373	9.830768	0.361164	-0.7221	-0.104645	-0.813232	0.014404	-0.206055
986.0	5.039158	-0.404399	9.590735	0.584915	-1.062386	-0.208698	-0.812744	0.005615	-0.192139
987.0	5.011123	-0.426573	9.61797	0.813046	-1.392471	-0.286006	-0.819092	-0.000977	-0.1875
988.0	4.832926	0.058074	10.145338	1.052069	-1.795699	-0.354294	-0.823486	-0.000977	-0.169189
989.0	4.331518	0.658817	10.793376	1.218165	-2.303516	-0.385798	-0.827393	-0.007568	-0.14624
990.0	4.326966	1.706666	11.017271	1.198653	-2.866952	-0.341763	-0.831543	-0.016357	-0.118896
991.0	3.844668	1.846492	11.176831	1.09003	-3.45488	-0.231994	-0.833496	-0.016602	-0.095947
992.0	3.726723	2.326161	10.975606	0.91149	-4.184686	-0.08906	-0.84668	-0.014404	-0.045898
993.0	3.08254	2.25018	11.424343	0.68432	-5.036527	0.100439	-0.844482	-0.016846	-0.002441
994.0	2.988348	2.261221	11.31046	0.410414	-6.09383	0.263352	-0.851318	-0.012695	0.052002
995.0	3.144389	3.054267	11.085957	0.138883	-7.120365	0.39088	-0.842529	-0.010498	0.113525
996.0	2.709988	2.282298	11.039164	-0.160924	-8.245464	0.516702	-0.831787	-0.008545	0.186523
997.0	3.266018	2.157797	10.271885	-0.091281	-9.491302	0.601608	-0.814697	-0.001953	0.261475
998.0	8.190736	3.31656	8.969689	0.25187	-10.76954	0.834962	-0.784424	0.006592	0.359375
999.0	19.310665	4.456762	7.048324	0.615559	-11.589439	0.695745	-0.747559	0.013184	0.436523
1000.0	31.233321	1.975285	5.551364	0.593803	-11.600006	0.318363	-0.688721	0.013428	0.520752
1001.0	34.787663	-0.637241	5.961207	1.051253	-11.101275	-0.076622	-0.638672	0.015625	0.59375
1002.0	32.333435	10.069875	6.330401	0.092763	-10.477519	0.070056	-0.571045	0.016113	0.655029
1003.0	34.754749	4.998046	20.196858	0.488985	-9.356674	0.331036	-0.508057	0.022949	0.698242
1004.0	34.342456	5.867528	25.95834	1.053167	-7.458399	0.245286	-0.470947	0.022949	0.732422
1005.0	25.836723	2.93455	29.830566	1.578382	-5.002773	0.274337	-0.432617	0.040771	0.750244
1006.0	4.348279	15.430178	23.331509	0.936107	-2.868257	0.725932	-0.41333	0.047363	0.754639
1007.0	5.109767	-3.150206	20.242164	-0.372693	-2.246527	1.587132	-0.406494	0.045166	0.759277
1008.0	31.159393	4.481409	32.044057	1.349013	1.767346	0.8582	-0.428955	0.055908	0.747559
1009.0	3.805823	7.448915	22.414841	0.947232	4.488698	0.783804	-0.461914	0.060303	0.722412
1010.0	-5.472462	6.757551	17.752757	0.277996	4.699704	0.961464	-0.490479	0.068848	0.699463
1011.0	-4.948037	1.136704	13.367381	-0.039528	4.520314	1.017441	-0.520752	0.064209	0.679199
1012.0	-1.590707	-0.714366	11.356618	0.271861	4.343442	0.883508	-0.551514	0.064209	0.654053
1013.0	1.008534	-1.231799	9.428516	0.750011	4.517991	0.70749	-0.575439	0.066162	0.62915
1014.0	4.507598	-0.685198	8.765503	1.284681	5.103553	0.544522	-0.613037	0.076904	0.596924
1015.0	5.879322	-0.512747	8.402598	1.636289	5.905715	0.399172	-0.645752	0.076904	0.553711
1016.0	6.271852	-0.423259	8.010995	1.95846	6.660643	0.21777	-0.674316	0.079102	0.508057
1017.0	5.879823	0.343864	7.725138	1.982016	7.163621	0.104511	-0.705322	0.089844	0.455566
1018.0	6.350909	0.39141	7.214276	1.747564	7.343911	0.116145	-0.731445	0.089844	0.398682
1019.0	7.110777	-0.082705	6.586959	1.481196	7.414228	0.189996	-0.759277	0.078857	0.344238
1020.0	6.829153	-0.609109	6.112916	1.29651	7.369777	0.330558	-0.7771	0.085449	0.293945
1021.0	7.849402	-1.224545	6.215954	1.205802	7.221747	0.446066	-0.790283	0.089844	0.239258
1022.0	8.573869	-1.746003	6.308905	1.176041	6.988667	0.512073	-0.798828	0.083496	0.18457
1023.0	10.528033	-1.893038	7.108472	1.219977	6.721664	0.481555	-0.80957	0.079102	0.129883
1024.0	12.256663	-1.402763	7.782977	1.185639	6.463573	0.447381	-0.813965	0.079102	0.08667
1025.0	13.998073	-0.938275	8.241236	1.167824	6.26786	0.450014	-0.811768	0.081543	0.036621
1026.0	16.480449	-1.664714	8.014496	1.239348	6.158448	0.332703	-0.811523	0.077148	-0.006836
1027.0	18.551219	-1.770312	8.224534	1.519833	6.018413	0.015113	-0.806885	0.070801	-0.054443
1028.0	20.472954	-1.328156	8.668125	1.881138	5.886626	-0.41604	-0.800049	0.064453	-0.099854
1029.0	22.776102	0.092755	9.199356	2.158134	5.794041	-0.863299	-0.791016	0.053711	-0.1521
1030.0	25.246323	2.114111	9.67411	2.266291	5.850101	-1.325298	-0.783691	0.036377	-0.188232
1031.0	26.39639	3.863171	9.574727	2.113734	5.98853	-1.856587	-0.769775	0.019287	-0.238037
1032.0	27.029473	5.024404	9.271657	1.691072	5.961326	-2.377824	-0.751221	-0.006836	-0.276367
1033.0	27.343739	5.725791	8.877249	1.091912	5.920342	-2.876876	-0.730225	-0.034912	-0.316895
1034.0	25.792639	1.387426	6.727623	0.370907	5.833798	-3.387376	-0.705322	-0.058594	-0.357422
1035.0	23.572196	-9.715092	3.253721	0.421521	5.556428	-4.326013	-0.67749	-0.095459	-0.390869
1036.0	25.148335	-1.252437	2.696222	0.779015	5.309133	-4.806896	-0.656494	-0.12793	-0.433594
1037.0	25.946208	9.555357	-0.037828	-0.857188	4.912122	-4.32824	-0.618652	-0.142822	-0.469727
1038.0	23.225935	11.122298	-7.108769	-3.662849	4.108536	-3.510508	-0.598877	-0.14502	-0.49707
1039.0	27.855222	0.451042	-16.6276	-5.218711	3.326728	-2.468953	-0.575684	-0.129395	-0.524902
1040.0	26.034422	-20.375394	-25.505225	-3.466219	2.639884	-2.147474	-0.560547	-0.127197	-0.540771
1041.0	18.989479	-23.370554	-27.233237	0.382644	1.24264	-2.579359	-0.555176	-0.148926	-0.544922
1042.0	18.068763	-11.986681	-21.963019	2.728834	-0.485659	-2.430493	-0.553467	-0.183838	-0.530518
1043.0	20.9343	-2.739501	-12.728471	3.060668	-1.74971	-1.529007	-0.563477	-0.203613	-0.518799
1044.0	22.126691	10.154405	-0.617523	0.5721	-3.755974	-0.554999	-0.587402	-0.208252	-0.493652
1045.0	-5.711225	1.24569	0.972234	0.229133	-4.226119	0.364708	-0.614014	-0.19751	-0.464111
1046.0	-4.97255	13.612734	20.394478	-2.146998	-5.710445	1.677564	-0.650146	-0.171631	-0.437256
1047.0	19.02334	-2.527128	-0.327185	-4.061492	-5.754689	1.930154	-0.677002	-0.1521	-0.407959
1048.0	22.598612	0.270111	6.914584	-1.131023	-5.316027	0.287668	-0.701416	-0.145996	-0.376221
1049.0	13.581079	8.213188	11.332641	-1.680673	-4.612668	-0.343711	-0.716553	-0.148193	-0.344238
1050.0	16.50587	0.741831	8.028866	-1.68768	-4.65626	-0.496408	-0.732422	-0.135254	-0.314941
1051.0	24.800792	-14.494221	9.809429	-0.480263	-4.186323	-0.466756	-0.74707	-0.146484	-0.289551
1052.0	22.082919	-12.757717	17.260384	0.596552	-3.340639	0.165346	-0.758057	-0.144287	-0.26001
1053.0	9.837184	-2.487066	11.713244	0.698577	-2.624052	0.453908	-0.760254	-0.144531	-0.246338
1054.0	4.93111	6.353836	10.117395	0.50337	-2.925924	0.082269	-0.773682	-0.137939	-0.223633
1055.0	35.513209	8.180953	13.268437	-0.636067	-2.401427	0.840889	-0.780518	-0.133789	-0.212158
1056.0	6.777593	-2.489292	5.404046	-0.538235	-0.534167	0.753601	-0.782959	-0.125	-0.212402
1057.0	11.484427	0.66956	9.867552	-0.333938	-0.616868	0.596971	-0.7854	-0.120605	-0.208008
1058.0	7.77394	-0.96313	7.463256	-0.250142	-0.191606	0.359409	-0.783203	-0.118408	-0.208008
1059.0	7.268329	-1.534685	8.265013	0.027131	-0.204492	0.108676	-0.783447	-0.116211	-0.205811
1060.0	6.959704	0.05772	8.167732	0.147358	-0.194366	-0.033416	-0.783447	-0.116211	-0.201172
1061.0	6.950956	0.177981	8.178075	0.190114	-0.169213	-0.119143	-0.787354	-0.122803	-0.196533
1062.0	6.921177	0.539966	8.102402	0.231523	-0.132542	-0.167881	-0.785156	-0.122803	-0.19873
1063.0	6.932045	0.720573	8.140949	0.237045	-0.1096	-0.206124	-0.782715	-0.129395	-0.196289
1064.0	6.749989	0.974785	8.262746	0.226967	-0.09092	-0.215438	-0.787354	-0.127197	-0.19873
1065.0	6.726663	1.024633	8.016451	0.231409	-0.080803	-0.217169	-0.787354	-0.127197	-0.19873
1066.0	6.750126	0.893364	8.158138	0.209192	-0.084538	-0.217242	-0.782715	-0.131592	-0.194092
1067.0	6.703246	0.756926	8.385903	0.230005	-0.090059	-0.236917	-0.786865	-0.138184	-0.19165
1068.0	6.752238	0.863694	8.126099	0.24835	-0.115311	-0.258737	-0.789063	-0.133789	-0.19165
1069.0	6.843351	1.016695	7.972298	0.22016	-0.123657	-0.271041	-0.788818	-0.140381	-0.189453
1070.0	6.91237	1.009301	7.93435	0.215338	-0.109513	-0.271901	-0.784424	-0.140381	-0.19165
1071.0	7.001109	0.810879	7.789717	0.185755	-0.094166	-0.282955	-0.786621	-0.142578	-0.189209
1072.0	6.994209	0.865964	7.900304	0.19027	-0.056798	-0.295719	-0.78418	-0.144775	-0.189209
1073.0	6.891345	0.926742	7.730326	0.189094	-0.014692	-0.296392	-0.788574	-0.146973	-0.191406
1074.0	6.754784	1.304983	7.514394	0.160805	0.022434	-0.272304	-0.78418	-0.14917	-0.18457
1075.0	6.589109	1.548972	7.462207	0.124273	0.04326	-0.231025	-0.779785	-0.146973	-0.189209
1076.0	6.491719	1.843764	7.397198	0.105426	0.063985	-0.176039	-0.781738	-0.151367	-0.186768
1077.0	6.399528	1.990701	7.216454	0.062681	0.078042	-0.085146	-0.785889	-0.155762	-0.18457
1078.0	6.279248	2.329218	7.029263	0.037336	0.10145	0.016766	-0.786133	-0.153564	-0.186768
1079.0	6.225332	2.306625	6.973324	-0.024494	0.10513	0.134385	-0.781738	-0.151123	-0.193604
1080.0	6.482302	1.941828	7.129936	-0.074398	0.132995	0.244526	-0.781982	-0.14917	-0.189209
1081.0	6.642482	1.819665	7.022366	-0.083197	0.181764	0.337461	-0.78418	-0.14917	-0.191406
1082.0	6.429425	2.293486	6.938557	-0.177193	0.230673	0.441324	-0.782471	-0.138184	-0.196289
1083.0	6.798613	1.766132	7.041889	-0.318418	0.305413	0.512725	-0.784912	-0.131592	-0.194092
1084.0	7.110919	0.666272	7.469702	-0.415759	0.467451	0.497655	-0.780518	-0.131592	-0.200928
1085.0	6.60927	0.176184	9.147758	-0.489883	0.592568	0.371621	-0.784912	-0.129395	-0.207764
1086.0	6.461302	-0.49839	9.026497	-0.479212	0.427348	0.228709	-0.782959	-0.127197	-0.210205
1087.0	6.26599	-0.534524	9.118552	-0.306597	0.280043	0.090821	-0.791748	-0.125	-0.207764
1088.0	6.284953	-0.214974	8.805	-0.183064	0.095767	-0.018643	-0.780762	-0.127197	-0.217041
1089.0	6.35669	0.177645	8.478554	-0.100368	-0.03695	-0.076343	-0.782959	-0.127197	-0.2146
1090.0	6.429817	0.476683	8.34363	-0.023464	-0.126942	-0.110348	-0.784912	-0.129395	-0.212402
1091.0	6.529669	0.611712	8.079172	-0.035653	-0.209226	-0.117304	-0.778564	-0.125	-0.212402
1092.0	6.49207	0.975746	7.944587	0.049059	-0.18565	-0.115302	-0.77832	-0.131592	-0.205566
1093.0	6.547779	1.523738	8.687057	0.222612	-0.144092	-0.099729	-0.785156	-0.127197	-0.210205
1094.0	6.314959	0.770272	7.932892	-0.032935	-0.269905	-0.099666	-0.789307	-0.127197	-0.205566
1095.0	6.560234	0.901641	7.950542	0.039365	-0.26974	-0.084303	-0.787109	-0.131592	-0.200928
1096.0	6.166783	0.909128	8.810842	0.07127	-0.317932	-0.072904	-0.787354	-0.125	-0.19873
1097.0	5.837789	0.253982	8.834308	0.122609	-0.469536	-0.071917	-0.782715	-0.129395	-0.194092
1098.0	5.43863	-0.464395	9.13991	0.440488	-0.708588	-0.067987	-0.791016	-0.138184	-0.187012
1099.0	5.111249	-0.082058	10.293441	0.553758	-1.00106	-0.134889	-0.792969	-0.146973	-0.175537
1100.0	4.949332	0.098986	9.948862	0.726246	-1.405871	-0.190577	-0.79126	-0.135986	-0.166748
1101.0	4.628371	0.174423	10.094854	0.823714	-1.810834	-0.242581	-0.799561	-0.142822	-0.150635
1102.0	4.61384	1.069256	10.355808	0.906944	-2.297307	-0.274322	-0.799561	-0.14502	-0.125488
1103.0	4.398165	1.635876	10.543853	0.902621	-2.832417	-0.260321	-0.803467	-0.151611	-0.100342
1104.0	4.403338	1.536478	10.566326	0.802056	-3.403356	-0.18295	-0.810303	-0.147461	-0.066162
1105.0	4.226024	1.715748	10.628336	0.687919	-4.085102	-0.073956	-0.814209	-0.15625	-0.031738
1106.0	4.055704	2.252214	10.60384	0.478781	-4.871138	0.091564	-0.81665	-0.149902	0.011475
1107.0	3.71288	2.324199	10.464871	0.252998	-5.788275	0.286605	-0.812256	-0.149902	0.061523
1108.0	3.797429	2.477266	10.018103	0.081799	-6.671087	0.436526	-0.814941	-0.13916	0.115967
1109.0	3.760143	2.829741	9.625583	-0.075027	-7.569478	0.604018	-0.806396	-0.134766	0.172852
1110.0	4.252975	2.603631	9.703151	-0.072922	-8.591262	0.80707	-0.793701	-0.128418	0.248047
1111.0	7.85691	3.337466	9.403317	0.257192	-9.684807	1.047622	-0.767578	-0.128418	0.330078
1112.0	18.007496	3.534722	7.921151	0.812932	-10.631625	1.021441	-0.73999	-0.111084	0.407227
1113.0	29.586168	4.360083	6.414216	1.026571	-10.736915	0.783932	-0.690186	-0.102051	0.479736
1114.0	29.950678	0.131176	7.795318	1.420688	-10.416889	0.499219	-0.640381	-0.093262	0.545654
1115.0	31.580813	10.139042	7.266544	1.096437	-10.018762	0.697266	-0.590332	-0.088867	0.611572
1116.0	27.181134	5.902209	11.733215	0.092077	-9.176608	1.363184	-0.536621	-0.068848	0.6521
1117.0	32.50383	4.460235	22.423537	1.114299	-7.980766	0.958421	-0.495361	-0.064453	0.695313
1118.0	27.084143	3.263719	24.463487	1.578968	-5.933441	0.824645	-0.459229	-0.044434	0.719971
1119.0	17.066745	1.322781	25.138585	2.650365	-3.580659	0.264274	-0.438232	-0.029053	0.72876
1120.0	-0.043441	14.429583	17.646026	1.088744	-2.584176	0.88045	-0.423584	-0.016113	0.73999
1121.0	21.192794	0.99908	23.707758	1.40487	-0.809356	0.550743	-0.430664	-0.00293	0.737305
1122.0	20.058975	8.420498	27.329485	1.278067	3.146615	0.03947	-0.454834	0.001221	0.723633
1123.0	0.708243	8.626135	20.996743	0.293492	4.589936	0.279462	-0.487549	0.001221	0.69873
1124.0	-3.10628	5.65243	17.365537	-0.724522	4.818018	0.750819	-0.522217	-0.003418	0.666748
1125.0	-3.394718	0.980302	13.977668	-1.187412	4.775159	1.117156	-0.561523	-0.003662	0.648682
1126.0	-1.784823	-1.287802	12.17159	-1.018267	4.70774	1.311131	-0.583252	-0.001465	0.621338
1127.0	0.39517	-3.14979	10.454954	-0.43465	4.881253	1.356595	-0.620605	0.000488	0.587158
1128.0	2.351893	-3.880341	9.298108	0.44456	5.298622	1.249883	-0.643311	0.022461	0.554932
1129.0	3.448872	-3.805842	8.412207	1.316577	5.839667	1.079467	-0.682861	0.028809	0.518311
1130.0	3.994684	-3.362546	7.557931	2.08895	6.354059	0.882695	-0.70752	0.043945	0.467773
1131.0	4.102898	-2.256694	7.016656	2.70707	6.705949	0.699103	-0.740967	0.059082	0.415283
1132.0	5.218433	-0.517303	7.069261	2.965257	6.847664	0.636151	-0.761475	0.07666	0.371582
1133.0	6.95895	1.315083	7.209382	2.792796	6.814176	0.716093	-0.792236	0.085205	0.321289
1134.0	8.933872	1.264028	7.355285	2.475419	6.790205	0.789712	-0.806152	0.102783	0.261719
1135.0	10.721022	-0.037885	7.437244	2.346248	6.754381	0.624295	-0.828369	0.109375	0.206787
1136.0	11.156057	1.920539	7.537029	2.063659	6.662496	0.34513	-0.8396	0.115967	0.1521
1137.0	11.965463	1.750494	7.574808	1.606691	6.415642	0.256745	-0.846191	0.118164	0.099609
1138.0	13.533838	0.590847	7.406842	1.323247	6.176413	0.059769	-0.853027	0.124756	0.056152
1139.0	14.467904	0.065302	7.379011	1.143513	5.921491	-0.185976	-0.857422	0.125	0.003906
1140.0	16.160001	-1.531474	7.635882	1.198467	5.641227	-0.493233	-0.859375	0.122803	-0.039551
1141.0	17.650435	-2.304219	8.247453	1.443045	5.401162	-0.888377	-0.856689	0.107666	-0.08252
1142.0	18.192596	-2.168267	8.184726	1.750181	5.129039	-1.285186	-0.854004	0.099121	-0.125488
1143.0	18.593049	-1.533818	8.052614	2.01286	4.772385	-1.667158	-0.853516	0.086182	-0.16626
1144.0	20.99671	-1.658886	8.501289	2.305611	4.379703	-2.143978	-0.848145	0.064453	-0.207031
1145.0	25.678077	-0.384667	9.490373	2.51407	4.210492	-2.586104	-0.842773	0.040527	-0.236084
1146.0	29.664178	1.740178	9.87724	2.495713	4.407443	-2.910476	-0.834961	0.014404	-0.279053
1147.0	30.700117	3.257851	9.203161	2.078177	4.845199	-3.160016	-0.816406	-0.013672	-0.319336
1148.0	27.594351	-1.415615	6.539142	1.407963	5.081531	-3.510651	-0.802002	-0.039551	-0.35083
1149.0	24.735511	-10.565935	2.177792	1.407785	4.860372	-4.037384	-0.778564	-0.076416	-0.393555
1150.0	25.152757	-5.768078	1.148488	1.698647	4.474588	-3.993417	-0.757813	-0.102539	-0.422607
1151.0	25.11237	-0.511872	-0.665127	0.882743	4.135417	-3.269988	-0.739258	-0.128418	-0.449463
1152.0	23.072216	5.115673	-2.640178	-0.654562	3.849049	-2.431075	-0.721924	-0.126221	-0.481445
1153.0	25.958498	4.04832	-6.559022	-2.346114	3.656956	-1.742481	-0.700195	-0.123779	-0.518066
1154.0	27.359319	-3.738795	-12.003139	-2.901507	3.757532	-1.213303	-0.692139	-0.108398	-0.536621
1155.0	23.259618	-12.780884	-16.31344	-1.763251	3.586569	-1.145757	-0.668213	-0.105957	-0.568604
1156.0	16.907999	-13.987445	-17.343762	0.116397	2.713785	-1.518008	-0.661377	-0.116699	-0.582031
1157.0	13.507608	-8.534893	-15.941672	1.298552	1.429513	-1.661341	-0.651611	-0.138428	-0.593018
1158.0	11.32051	-2.965209	-12.447714	1.542404	-0.096974	-1.336804	-0.659912	-0.14502	-0.579102
1159.0	12.243194	1.003424	-9.008499	1.18013	-1.465833	-0.754405	-0.67041	-0.154053	-0.565186
1160.0	1.744901	15.992179	4.845883	-1.019824	-3.375795	-0.037606	-0.70166	-0.141113	-0.538086
1161.0	-0.051036	7.013685	6.776788	-1.731345	-3.801825	0.244669	-0.724121	-0.123779	-0.515625
1162.0	0.24529	6.52762	16.166905	-3.320025	-5.054216	-0.064204	-0.753418	-0.102295	-0.481934
1163.0	6.716989	8.962893	4.611537	-4.96735	-5.094274	-0.681542	-0.782715	-0.085205	-0.450195
1164.0	14.900325	-6.780288	-3.575116	-3.690886	-5.274702	-1.636469	-0.811035	-0.083252	-0.406982
1165.0	17.441372	5.059703	10.069251	-2.838258	-4.95391	-2.367442	-0.832764	-0.085693	-0.370361
1166.0	15.162312	-1.358586	8.234448	-3.596841	-4.664582	-1.510949	-0.852539	-0.079346	-0.331787
1167.0	23.571838	-23.563525	8.445122	-1.833808	-4.226858	-0.658185	-0.863525	-0.079346	-0.299805
1168.0	22.736902	-21.888315	12.503132	-0.105782	-3.631888	0.275539	-0.875	-0.068604	-0.263672
1169.0	15.281114	-11.382533	12.388094	0.401325	-2.92554	1.131222	-0.883789	-0.06665	-0.238525
1170.0	4.975841	2.561317	10.604486	0.43559	-2.750022	0.729491	-0.890869	-0.053711	-0.209229
1171.0	5.398296	1.679857	7.805305	0.013598	-3.065527	0.400302	-0.897461	-0.053711	-0.184082
1172.0	44.026862	3.693911	19.083189	-0.366595	-2.263361	0.825405	-0.902588	-0.036377	-0.173096
1173.0	4.125012	3.941434	4.2888	-0.515877	-0.383859	0.64186	-0.906738	-0.038574	-0.173096
1174.0	8.85681	-3.799235	8.036282	-0.32842	-0.118506	0.344745	-0.905029	-0.029785	-0.168701
1175.0	7.851403	0.281351	8.324226	-0.098079	-0.156166	0.141705	-0.913574	-0.03418	-0.16626
1176.0	6.970393	-0.420038	8.422838	-0.088215	-0.08266	0.093846	-0.907227	-0.027588	-0.161865
1177.0	6.739812	-0.1452	7.961344	-0.006587	-0.051343	0.03873	-0.900635	-0.029785	-0.159424
1178.0	6.880106	0.635999	7.91509	0.03363	-0.030286	0.020609	-0.905273	-0.025391	-0.166504
1179.0	6.730181	0.541442	8.09105	0.049409	-0.004356	0.007882	-0.909424	-0.027832	-0.161865
1180.0	6.712255	0.887752	8.044761	0.009777	-0.000132	0.00405	-0.909424	-0.027832	-0.161865
1181.0	6.758973	0.660235	7.907297	-0.007363	0.005498	0.011017	-0.907227	-0.027588	-0.161865
1182.0	6.747686	0.611038	8.06425	-0.023376	0.006594	0.011715	-0.90332	-0.02124	-0.161865
1183.0	6.712062	0.626224	7.957439	-0.031946	0.005052	0.01987	-0.902832	-0.027588	-0.170898
1184.0	6.720633	0.577521	8.025097	-0.037404	0.001036	0.029709	-0.907471	-0.02124	-0.161865
1185.0	6.79922	0.614438	7.857216	-0.039957	0.008139	0.039791	-0.909668	-0.023438	-0.164063
1186.0	6.726186	0.533015	7.880207	-0.04098	0.023461	0.048267	-0.907471	-0.023438	-0.164063
1187.0	7.170634	0.552346	7.807046	-0.05034	0.018154	0.060642	-0.911865	-0.023438	-0.168701
1188.0	6.628424	0.471728	7.76825	-0.038537	0.045774	0.078085	-0.900879	-0.025391	-0.166504
1189.0	6.66101	0.657243	7.994343	-0.060133	0.063208	0.097447	-0.907471	-0.023438	-0.164063
1190.0	6.705398	0.56454	7.913773	-0.089327	0.073197	0.113964	-0.901123	-0.019043	-0.159668
1191.0	6.62721	0.469076	7.840165	-0.11447	0.080287	0.126863	-0.911865	-0.02124	-0.164307
1192.0	6.677157	0.369911	7.80224	-0.099704	0.090964	0.118364	-0.907471	-0.02124	-0.161865
1193.0	6.597612	0.255308	7.742223	-0.082446	0.105487	0.111166	-0.905518	-0.016846	-0.164307
1194.0	6.486878	0.297265	7.842158	-0.048192	0.109078	0.100576	-0.905762	-0.014648	-0.17334
1195.0	6.562411	0.164297	7.78335	-0.023689	0.112862	0.085939	-0.905518	-0.016846	-0.171143
1196.0	6.345263	0.078079	7.947809	-0.003596	0.115562	0.060904	-0.90332	-0.019043	-0.171143
1197.0	6.270372	-0.005909	7.91656	0.01708	0.109958	0.024799	-0.907715	-0.016846	-0.164307
1198.0	6.244584	-0.17732	8.01346	0.057629	0.112626	-0.021478	-0.903564	-0.012451	-0.168945
1199.0	6.387701	0.040095	7.982716	0.09223	0.098535	-0.062635	-0.903564	-0.014648	-0.171143
1200.0	6.337814	-0.154459	7.837351	0.114329	0.095722	-0.09691	-0.90332	-0.016846	-0.175781
1201.0	6.371783	-0.146284	7.7791	0.159535	0.094479	-0.140738	-0.905518	-0.019043	-0.175537
1202.0	6.331812	-0.164814	7.716373	0.212022	0.107931	-0.186808	-0.90332	-0.018799	-0.175537
1203.0	6.392989	0.070026	7.726152	0.237605	0.102707	-0.231051	-0.905273	-0.025391	-0.168701
1204.0	6.300439	-0.028067	7.708924	0.237533	0.113534	-0.253727	-0.900635	-0.027588	-0.175537
1205.0	6.216608	0.214969	7.910951	0.270187	0.08283	-0.268324	-0.898438	-0.029785	-0.175537
1206.0	6.391576	0.390227	7.665861	0.281442	0.048069	-0.254995	-0.900635	-0.029785	-0.170898
1207.0	6.241416	0.210503	7.605861	0.281179	0.003831	-0.215079	-0.905029	-0.029785	-0.179932
1208.0	6.189857	0.797816	7.926135	0.315776	-0.028677	-0.213476	-0.895996	-0.03418	-0.173096
1209.0	6.367388	1.494063	8.752341	0.351421	-0.077423	-0.193536	-0.902344	-0.042969	-0.175293
1210.0	6.796722	1.151007	8.800904	0.245766	-0.142308	-0.19462	-0.897949	-0.038574	-0.16626
1211.0	6.562188	1.047268	8.589747	0.19762	-0.266544	-0.206123	-0.900146	-0.042969	-0.166016
1212.0	6.72342	1.039933	8.458778	0.164089	-0.333255	-0.192682	-0.897949	-0.042969	-0.15918
1213.0	6.608765	1.083826	8.514131	0.176617	-0.387889	-0.177167	-0.908447	-0.049561	-0.163574
1214.0	6.521849	0.789989	8.408271	0.174888	-0.427614	-0.168611	-0.9021	-0.047363	-0.15918
1215.0	6.468119	0.859607	8.452049	0.186568	-0.462193	-0.15789	-0.903809	-0.056152	-0.149902
1216.0	5.299297	-0.284012	9.370984	0.318619	-0.574675	-0.14439	-0.908691	-0.047363	-0.143066
1217.0	5.593247	0.546413	9.897398	0.654594	-0.98119	-0.129274	-0.9104	-0.056152	-0.13623
1218.0	4.465378	0.511124	10.593229	0.790853	-1.110886	-0.13551	-0.9104	-0.056152	-0.11792
1219.0	4.820949	-0.110685	10.317005	0.972045	-1.569097	-0.151889	-0.905762	-0.060547	-0.108643
1220.0	4.049523	0.133623	11.229705	1.142482	-2.227352	-0.212018	-0.916748	-0.058594	-0.076904
1221.0	3.9903	0.635454	11.349847	1.157067	-2.944195	-0.252388	-0.916504	-0.065186	-0.051758
1222.0	4.124708	1.385922	10.963863	1.165612	-3.587106	-0.176843	-0.923096	-0.061035	-0.015381
1223.0	3.975277	2.391043	11.072415	1.05563	-4.26051	0.027657	-0.921143	-0.058838	0.037109
1224.0	3.419698	2.488487	11.209968	0.83312	-5.014038	0.277374	-0.923828	-0.048096	0.089355
1225.0	2.569177	3.491368	12.012411	0.54236	-6.058821	0.580752	-0.921631	-0.046143	0.14624
1226.0	3.538908	4.797746	10.78331	0.071531	-7.124032	0.883092	-0.906982	-0.030762	0.218994
1227.0	4.080928	4.256146	9.935413	-0.66168	-8.197406	1.166708	-0.89209	-0.022217	0.29834
1228.0	3.771684	2.465645	9.309026	-0.972596	-9.493498	1.368331	-0.866455	-0.011475	0.394043
1229.0	9.826662	0.667555	9.521709	-0.531157	-10.653707	1.337534	-0.821045	-0.002686	0.491699
1230.0	22.689389	3.879973	7.007855	0.128382	-11.203861	0.893859	-0.760742	0.012695	0.587158
1231.0	32.034176	0.113004	5.577378	0.255963	-11.03302	0.570173	-0.70874	0.023926	0.671143
1232.0	34.172272	5.608135	6.49909	0.241235	-10.534457	0.488608	-0.641357	0.02832	0.755127
1233.0	32.251606	10.019904	8.21071	-0.915513	-9.766292	0.842778	-0.575928	0.028564	0.819092
1234.0	34.593563	3.245778	19.182793	0.093027	-8.174779	0.645117	-0.528809	0.046387	0.871094
1235.0	29.203979	6.379981	23.650276	0.660798	-6.091436	0.688328	-0.496826	0.061768	0.918457
1236.0	17.650079	1.292101	25.369102	1.403601	-3.954067	0.434781	-0.487061	0.090088	0.94751
1237.0	-1.208749	13.468887	17.198569	0.582236	-2.625659	1.077238	-0.481201	0.103027	0.974609
1238.0	11.68557	-6.683409	18.387211	0.708693	-1.516921	1.285058	-0.491211	0.133545	0.987793
1239.0	22.08053	2.957639	25.55805	2.258524	2.04009	0.529259	-0.551758	0.170166	0.987061
1240.0	0.195449	5.56684	17.932744	2.111228	3.727269	0.554058	-0.605713	0.204834	0.968262
1241.0	-5.234624	5.077773	14.365888	1.585024	3.801786	0.804152	-0.672363	0.235107	0.954102
1242.0	-4.234648	1.761342	11.317095	1.236313	3.66792	0.917369	-0.739258	0.267334	0.9375
1243.0	-2.542881	0.933528	9.929633	1.194844	3.568723	0.901074	-0.812744	0.299805	0.925537
1244.0	-0.813359	1.098956	8.764081	1.188709	3.635994	0.793832	-0.88208	0.336426	0.893066
1245.0	0.666133	0.577115	8.055318	1.206225	3.864133	0.616571	-0.970459	0.366455	0.851563
1246.0	2.803334	0.058394	8.02841	1.327213	4.256311	0.353547	-1.052734	0.401123	0.793945
1247.0	4.202019	-0.402771	7.851731	1.460082	4.797593	0.052118	-1.149902	0.426758	0.709229
1248.0	5.18764	-0.450057	7.75431	1.577352	5.309247	-0.243329	-1.242432	0.448486	0.597168
1249.0	5.397587	-0.582974	7.499497	1.555747	5.700041	-0.448036	-1.323486	0.452637	0.458252
1250.0	6.000226	-0.438131	7.444996	1.408349	5.958003	-0.499695	-1.367188	0.454834	0.301025
1251.0	6.379503	-1.28531	6.952818	1.237242	6.121044	-0.399422	-1.390625	0.444336	0.116699
1252.0	7.663397	-1.871702	6.826999	1.133858	6.201362	-0.219193	-1.370361	0.429443	-0.051758
1253.0	8.323986	-2.663908	6.437599	1.100464	6.1858	0.019938	-1.313232	0.415039	-0.220215
1254.0	9.767743	-3.141234	6.336409	1.226359	6.152573	0.271339	-1.200928	0.39209	-0.356689
1255.0	11.543862	-3.221934	6.630017	1.483005	6.087691	0.443702	-1.05835	0.373535	-0.44751
1256.0	12.998069	-3.299271	6.703351	1.781658	6.02752	0.499156	-0.900879	0.36377	-0.46582
1257.0	14.591871	-2.52639	6.82955	2.113248	5.947643	0.474414	-0.794434	0.375244	-0.406982
1258.0	16.071695	-1.389289	7.059841	2.327432	5.859351	0.401393	-0.758789	0.403564	-0.345947
1259.0	17.150878	-0.777793	7.307586	2.466105	5.744709	0.200389	-0.799072	0.431641	-0.310059
1260.0	17.772851	0.367591	7.562933	2.544016	5.577127	-0.111383	-0.862793	0.442383	-0.335205
1261.0	18.02262	1.640444	7.785716	2.492047	5.31339	-0.508514	-0.9104	0.43335	-0.401123
1262.0	18.565556	1.760063	7.810383	2.434538	4.982386	-1.045555	-0.917725	0.398682	-0.473389
1263.0	19.283619	2.174173	8.071995	2.410675	4.636294	-1.746013	-0.907227	0.359619	-0.524902
1264.0	20.899804	2.993447	9.003206	2.31397	4.295316	-2.591122	-0.898438	0.30957	-0.553711
1265.0	23.483321	4.720292	10.337066	1.973928	4.06772	-3.465737	-0.89624	0.261475	-0.584473
1266.0	26.692774	6.394465	10.789815	1.204099	4.052468	-4.23109	-0.895996	0.207031	-0.617676
1267.0	28.717379	6.664348	10.037882	0.200705	4.269005	-4.914083	-0.888672	0.139648	-0.675537
1268.0	29.202795	3.403311	6.803844	-1.155418	4.426391	-5.404295	-0.851074	0.078857	-0.713135
1269.0	28.035863	3.806966	2.603551	-2.170963	4.604632	-5.429355	-0.789795	0.026855	-0.755615
1270.0	26.319382	6.520133	-1.823889	-3.602613	4.602787	-4.821781	-0.724121	0.020996	-0.791992
1271.0	24.480485	7.063075	-6.567588	-5.206868	4.377785	-3.979466	-0.663086	0.019043	-0.807861
1272.0	28.866972	-2.522378	-14.863444	-6.122372	4.115549	-3.030257	-0.607666	0.050049	-0.813232
1273.0	26.855238	-19.108148	-20.996844	-4.680016	3.930967	-2.533773	-0.55127	0.054688	-0.815674
1274.0	20.58783	-25.163669	-22.917072	-1.186592	3.493105	-2.811112	-0.513672	0.041992	-0.817627
1275.0	10.832676	-19.19226	-16.805399	1.432349	2.102134	-2.975131	-0.492188	0.004883	-0.817139
1276.0	7.105208	-3.793891	-16.967413	2.356426	-1.026668	-3.094909	-0.489014	-0.019043	-0.812012
1277.0	4.5933	7.18431	-12.631925	0.846036	-3.467759	-1.920747	-0.510254	-0.034424	-0.786621
1278.0	-7.133774	-4.799042	-9.366366	-0.8395	-5.019442	-0.635802	-0.53418	-0.034668	-0.752441
1279.0	7.718882	1.155822	13.96204	-0.477135	-6.897899	-0.128784	-0.569092	-0.035156	-0.713623
1280.0	30.806661	-1.703946	9.474218	-1.518895	-5.844149	0.09685	-0.595703	-0.022217	-0.675049
1281.0	16.719042	2.394435	8.273647	-0.738976	-4.506623	-0.171372	-0.608643	-0.024658	-0.649902
1282.0	6.72608	3.173473	7.44659	-1.127907	-4.588952	0.086999	-0.61792	-0.015869	-0.615967
1283.0	20.43436	-1.8088	7.545637	-0.626918	-4.797398	0.192207	-0.633057	-0.016113	-0.59082
1284.0	24.326575	-4.990365	12.785346	0.618028	-4.050705	0.233013	-0.643799	-0.018555	-0.561035
1285.0	20.649196	-0.390421	16.847481	0.583263	-3.210576	0.395399	-0.6521	-0.027344	-0.542725
1286.0	7.087745	-0.854001	9.686431	0.445604	-2.798238	0.41518	-0.655029	-0.01416	-0.517822
1287.0	18.161916	5.724681	12.899696	-0.085166	-3.270305	0.691322	-0.680908	-0.016602	-0.488281
1288.0	22.780349	7.447978	8.87201	-0.83882	-1.547428	1.01072	-0.67749	0.00293	-0.493164
1289.0	10.569417	-3.906441	8.639699	-0.767721	-1.211375	0.854902	-0.681885	0.005127	-0.484131
1290.0	8.946668	-2.892716	7.202898	-0.179344	-0.416496	0.397387	-0.675537	0.009521	-0.481934
1291.0	7.854297	0.117331	8.927795	-0.064107	-0.415423	0.144583	-0.682129	0.009521	-0.479492
1292.0	7.441179	-0.622924	8.256316	0.019619	-0.356027	0.001343	-0.679932	0.007324	-0.472656
1293.0	7.287973	-0.522214	7.743114	0.102025	-0.221734	-0.116008	-0.682129	0.007324	-0.475098
1294.0	7.271797	1.289625	7.593502	0.183197	-0.099202	-0.158649	-0.681885	0.005127	-0.474854
1295.0	7.099105	1.185566	7.984977	0.158022	0.049407	-0.150669	-0.679688	0.00293	-0.472656
1296.0	6.716924	0.480449	8.316956	0.179287	0.080752	-0.195269	-0.679199	-0.005859	-0.474609
1297.0	6.746757	0.77769	7.944694	0.214034	0.020436	-0.224968	-0.678955	-0.012451	-0.476807
1298.0	6.839829	1.171808	7.908918	0.228913	0.007033	-0.21384	-0.677002	-0.008057	-0.474609
1299.0	6.721235	0.763544	8.198253	0.19488	-0.042506	-0.203002	-0.681396	-0.010254	-0.479248
1300.0	6.760683	1.066148	8.118061	0.164646	-0.084428	-0.191022	-0.681396	-0.008057	-0.474609
1301.0	6.771426	0.926016	8.026258	0.131501	-0.121083	-0.170982	-0.681152	-0.014648	-0.479004
1302.0	6.890329	0.9177	7.850272	0.113692	-0.137757	-0.151599	-0.678955	-0.012451	-0.479248
1303.0	6.83885	1.111153	7.905364	0.096173	-0.13308	-0.132788	-0.680908	-0.016846	-0.474609
1304.0	6.984129	0.920888	7.670574	0.072724	-0.118758	-0.105092	-0.683105	-0.016846	-0.472168
1305.0	6.918728	0.9137	7.646198	0.066651	-0.103063	-0.092759	-0.678955	-0.014648	-0.472168
1306.0	6.890931	1.137145	7.572062	0.042615	-0.08746	-0.073546	-0.687256	-0.02124	-0.465332
1307.0	6.968669	1.169441	7.310064	0.018322	-0.046402	-0.04203	-0.680908	-0.016846	-0.472168
1308.0	6.992074	1.255355	7.251952	0.013306	0.019541	0.005254	-0.683105	-0.016846	-0.467773
1309.0	6.927249	1.430037	7.320743	0.013404	0.08946	0.042325	-0.683105	-0.019043	-0.472168
1310.0	6.91569	1.41122	7.400795	-0.003716	0.152744	0.098298	-0.680908	-0.020996	-0.469971
1311.0	6.910942	1.395685	7.353989	-0.009582	0.20019	0.151625	-0.678711	-0.016846	-0.472168
1312.0	6.984301	1.153729	7.354953	-0.04958	0.270399	0.179444	-0.676758	-0.014404	-0.474609
1313.0	6.955307	1.047583	7.516958	-0.080545	0.346255	0.191799	-0.677002	-0.010254	-0.483643
1314.0	6.750658	0.646155	7.896949	-0.116102	0.410599	0.170237	-0.677002	-0.010254	-0.481445
1315.0	6.637207	0.630784	7.853548	-0.116074	0.395637	0.147936	-0.672607	-0.007813	-0.481445
1316.0	6.599654	0.681254	8.043488	-0.120547	0.382826	0.143432	-0.675049	-0.005859	-0.488525
1317.0	6.636524	0.56414	8.036776	-0.125729	0.351607	0.135999	-0.674805	-0.007813	-0.490723
1318.0	6.716402	0.819792	7.97539	-0.11943	0.335468	0.148319	-0.668457	-0.003418	-0.49292
1319.0	6.660559	0.836439	7.920231	-0.099722	0.336789	0.15174	-0.668457	-0.005615	-0.497559
1320.0	6.570616	0.639684	8.083873	-0.090646	0.332089	0.152734	-0.664063	-0.003418	-0.495361
1321.0	6.432003	0.471788	8.154416	-0.067804	0.291884	0.123237	-0.664307	-0.001221	-0.497559
1322.0	6.402491	0.483386	8.11767	-0.05182	0.243763	0.106666	-0.662109	-0.001221	-0.495361
1323.0	6.359898	0.467471	8.077972	-0.039165	0.190885	0.089529	-0.659912	-0.001221	-0.5
1324.0	6.340657	0.464028	8.046935	-0.000412	0.142969	0.063614	-0.657715	0.000977	-0.502197
