Acquisition frequency: 100 Hz
PacketCounter	Acc_X	Acc_Y	Acc_Z	Gyr_X	Gyr_Y	Gyr_Z	Mag_X	Mag_Y	Mag_Z
0.0	5.852462	-2.06456	7.708881	-0.002985	0.007699	-0.006536	-0.543945	0.083984	-0.097168
1.0	5.808151	-2.063818	7.750214	-0.000703	0.011311	-0.005839	-0.541748	0.081787	-0.092773
2.0	5.830903	-2.07602	7.703233	-0.003007	0.012982	-0.008237	-0.541748	0.084229	-0.101563
3.0	5.839362	-2.07215	7.757604	0.001846	0.010913	-0.004482	-0.541748	0.083984	-0.094971
4.0	5.823833	-2.079741	7.728004	-0.006548	0.013566	-0.007122	-0.543945	0.083984	-0.094971
5.0	5.823046	-2.079624	7.728629	0.001604	0.009639	-0.003437	-0.545898	0.081787	-0.094971
6.0	5.809676	-2.058151	7.730133	0.001779	0.013483	-0.012862	-0.541748	0.083984	-0.097168
7.0	5.839746	-2.095187	7.705776	-0.004387	0.009899	-0.007541	-0.541748	0.081787	-0.090576
8.0	5.82845	-2.045406	7.738232	0.001195	0.011654	-0.006913	-0.539551	0.083984	-0.094971
9.0	5.83288	-2.098698	7.730441	-0.001595	0.010776	-0.007227	-0.539551	0.082031	-0.094971
10.0	5.824982	-2.073393	7.708419	-0.003245	0.011704	-0.007191	-0.544189	0.088379	-0.094971
11.0	5.818752	-2.077269	7.732495	0.001197	0.011653	-0.006911	-0.543945	0.086182	-0.094971
12.0	5.82355	-2.072809	7.709658	-0.003731	0.009155	-0.005106	-0.537354	0.082031	-0.094971
13.0	5.797283	-2.088723	7.726764	0.000301	0.01112	-0.008302	-0.539551	0.083984	-0.094971
14.0	5.834919	-2.093003	7.710025	-0.002488	0.010241	-0.008616	-0.543701	0.07959	-0.090576
15.0	5.809063	-2.051052	7.712064	-0.002976	0.007693	-0.006532	-0.541748	0.086182	-0.092773
16.0	5.82123	-2.071826	7.711674	-0.004625	0.008621	-0.006497	-0.537109	0.077637	-0.099365
17.0	5.795111	-2.087922	7.728609	-0.002975	0.007693	-0.006531	-0.541748	0.086182	-0.097168
18.0	5.832906	-2.092406	7.71171	-0.00273	0.008967	-0.007573	-0.541748	0.086182	-0.088623
19.0	5.852548	-2.080407	7.718969	-0.007414	0.007742	-0.006811	-0.541748	0.083984	-0.097168
20.0	5.813687	-2.075724	7.736719	-0.000938	0.010031	-0.004787	-0.541504	0.079834	-0.094971
21.0	5.813112	-2.075455	7.737223	-0.004276	0.009174	-0.011398	-0.543945	0.086182	-0.092773
22.0	5.812608	-2.075116	7.737692	-0.000183	0.00857	-0.006214	-0.539551	0.086182	-0.092773
23.0	5.850337	-2.079607	7.720861	-0.006923	0.010287	-0.008893	-0.541748	0.083984	-0.094971
24.0	5.816961	-2.070624	7.715217	-0.002727	0.008965	-0.00757	-0.541748	0.082031	-0.094971
25.0	5.816428	-2.070499	7.715653	-0.004621	0.008618	-0.006494	-0.539551	0.083984	-0.090576
26.0	5.797678	-2.053814	7.740288	-0.004376	0.009892	-0.007534	-0.543945	0.086182	-0.094971
27.0	5.82991	-2.062564	7.746861	-0.002075	0.008223	-0.005135	-0.541504	0.079834	-0.094971
28.0	5.827555	-2.091159	7.716092	-0.006004	0.005537	-0.005803	-0.546143	0.086182	-0.092773
29.0	5.814485	-2.070208	7.717195	-0.004269	0.009172	-0.011394	-0.539795	0.088379	-0.092773
30.0	5.814059	-2.069948	7.717586	-0.00067	0.006022	-0.004128	-0.541748	0.086182	-0.090576
31.0	5.8409	-2.083039	7.747454	-0.006513	0.008269	-0.005416	-0.546143	0.083984	-0.092773
32.0	5.81855	-2.065654	7.694968	-0.002478	0.010237	-0.008607	-0.543701	0.079834	-0.094971
33.0	5.793937	-2.110986	7.758027	-0.003478	0.010422	-0.006139	-0.543945	0.086182	-0.092773
34.0	5.837347	-2.053318	7.702968	-0.000933	0.010028	-0.004781	-0.543701	0.077637	-0.090576
35.0	5.829284	-2.085831	7.695847	6.8e-05	0.009842	-0.007248	-0.539307	0.079834	-0.094971
36.0	5.823089	-2.089977	7.719783	-0.007021	0.011	-0.005028	-0.537354	0.083984	-0.094971
37.0	5.804234	-2.073326	7.744456	-0.000176	0.008568	-0.006207	-0.543945	0.081787	-0.092773
38.0	5.841839	-2.077656	7.727817	-0.005281	0.014634	-0.010616	-0.541748	0.081787	-0.090576
39.0	5.815412	-2.093681	7.744948	-0.000931	0.010027	-0.004778	-0.543701	0.079834	-0.094971
40.0	5.827595	-2.056323	7.729893	-0.000439	0.012574	-0.006858	-0.541748	0.086182	-0.094971
41.0	5.812158	-2.063777	7.7003	-0.002088	0.013499	-0.006823	-0.546143	0.088379	-0.09082
42.0	5.838561	-2.076615	7.730573	-0.00298	0.012966	-0.008215	-0.541748	0.083984	-0.090576
43.0	5.799538	-2.071887	7.748358	-0.004611	0.008612	-0.006488	-0.539551	0.084229	-0.099365
44.0	5.837232	-2.076174	7.731695	0.000566	0.012387	-0.009322	-0.541748	0.083984	-0.092773
45.0	5.816338	-2.087757	7.725471	-0.002978	0.012964	-0.008213	-0.539551	0.082031	-0.097168
46.0	5.815587	-2.087472	7.726114	0.001615	0.009632	-0.003416	-0.545898	0.081787	-0.092773
47.0	5.827693	-2.050072	7.711138	-0.001837	0.01477	-0.007859	-0.539551	0.084229	-0.097168
48.0	5.793731	-2.09872	7.7207	0.002355	0.013452	-0.006533	-0.539551	0.082031	-0.094971
49.0	5.812954	-2.086147	7.728453	0.001464	0.012918	-0.007925	-0.539551	0.086182	-0.094971
50.0	5.83221	-2.073668	7.736156	-0.000432	0.012569	-0.006852	-0.543945	0.086182	-0.092773
51.0	5.83145	-2.07329	7.736831	-0.002216	0.011502	-0.009638	-0.541748	0.086182	-0.099365
52.0	5.792256	-2.068357	7.754745	0.001354	0.013636	-0.004064	-0.543945	0.083984	-0.094971
53.0	5.82979	-2.072499	7.738293	0.000328	0.011109	-0.008277	-0.546143	0.082031	-0.099365
54.0	5.834706	-2.067841	7.715505	-0.00246	0.010227	-0.008598	-0.541748	0.083984	-0.097168
55.0	5.802769	-2.088076	7.755936	-0.002969	0.012958	-0.008209	-0.541748	0.083984	-0.092773
56.0	5.813117	-2.079309	7.709828	-0.000675	0.011294	-0.00581	-0.546143	0.084229	-0.099365
57.0	5.819748	-2.046132	7.718182	-0.00221	0.011499	-0.009635	-0.541992	0.088379	-0.094971
58.0	5.806069	-2.082951	7.734488	-0.002323	0.012218	-0.005775	-0.543945	0.082031	-0.097168
59.0	5.825349	-2.070663	7.742129	-0.001317	0.012032	-0.00824	-0.537354	0.086182	-0.092773
60.0	5.811675	-2.107694	7.75837	-0.007007	0.010986	-0.005025	-0.541748	0.082031	-0.094971
61.0	5.823985	-2.070557	7.743183	-0.004236	0.009157	-0.011382	-0.541748	0.082031	-0.099365
62.0	5.82907	-2.066167	7.720211	-0.003956	0.007864	-0.004052	-0.541748	0.086182	-0.099365
63.0	5.802891	-2.082534	7.736985	-0.007138	0.008993	-0.007845	-0.541504	0.079834	-0.094971
64.0	5.828011	-2.066284	7.72098	-0.004598	0.008602	-0.006483	-0.539551	0.084229	-0.097168
65.0	5.807381	-2.078191	7.714451	-0.00181	0.009485	-0.00616	-0.539551	0.084229	-0.099365
66.0	5.814132	-2.045183	7.722664	-0.005239	0.00934	-0.008914	-0.541748	0.081787	-0.092773
67.0	5.811873	-2.073693	7.691964	-0.004596	0.008601	-0.006482	-0.537109	0.079834	-0.094971
68.0	5.787441	-2.061177	7.739908	-0.001691	0.008765	-0.010017	-0.544189	0.088379	-0.101563
69.0	5.799612	-2.081718	7.739663	-0.003457	0.010407	-0.006125	-0.545898	0.081787	-0.092773
70.0	5.824737	-2.065278	7.723719	-0.000655	0.006015	-0.004116	-0.546143	0.086182	-0.092773
71.0	5.824282	-2.065172	7.724091	-0.004594	0.0086	-0.006481	-0.543945	0.084229	-0.099365
72.0	5.803731	-2.077134	7.717482	-0.006125	0.008804	-0.010306	-0.539551	0.086182	-0.090576
73.0	5.804894	-2.048495	7.749028	-0.003704	0.009133	-0.005086	-0.543945	0.083984	-0.097168
74.0	5.835508	-2.085747	7.724558	-0.003834	0.007142	-0.007907	-0.539307	0.079834	-0.097168
75.0	5.811006	-2.0732	7.772532	0.000982	0.010366	-0.005832	-0.546143	0.086182	-0.090576
76.0	5.814539	-2.097228	7.718393	-0.006749	0.004266	-0.011052	-0.541748	0.081787	-0.092773
77.0	5.81026	-2.072812	7.773193	-0.001164	0.008743	-0.003724	-0.539551	0.081787	-0.092773
78.0	5.8153	-2.068416	7.75028	-0.005232	0.009336	-0.00891	-0.539551	0.083984	-0.094971
79.0	5.853178	-2.07272	7.733633	-0.002693	0.008947	-0.007548	-0.539551	0.082031	-0.094971
80.0	5.807112	-2.04287	7.728556	-0.001044	0.008024	-0.007581	-0.541748	0.086182	-0.092773
81.0	5.826448	-2.088478	7.750946	-0.004092	0.011142	-0.008551	-0.539551	0.083984	-0.092773
82.0	5.813069	-2.06737	7.752232	-0.000793	0.009296	-0.008616	-0.541504	0.075439	-0.094971
83.0	5.799725	-2.046304	7.753476	-0.00434	0.009868	-0.007514	-0.539551	0.086182	-0.097168
84.0	5.830318	-2.083538	7.729072	-0.001412	0.007469	-0.002685	-0.541748	0.083984	-0.090576
85.0	5.811355	-2.066966	7.753624	-0.007515	0.010993	-0.011305	-0.543945	0.084229	-0.099365
86.0	5.802146	-2.070303	7.700216	-0.002427	0.004943	-0.0069	-0.541748	0.086182	-0.097168
87.0	5.816164	-2.062313	7.730969	-0.002689	0.008945	-0.007545	-0.539307	0.079834	-0.092773
88.0	5.82837	-2.083043	7.730674	-0.006235	0.009516	-0.006443	-0.541748	0.083984	-0.094971
89.0	5.800667	-2.069996	7.701413	-0.002937	0.007672	-0.006508	-0.541748	0.083984	-0.097168
90.0	5.829033	-2.054305	7.762587	-0.003825	0.007137	-0.007902	-0.543945	0.083984	-0.094971
91.0	5.819884	-2.057614	7.709152	-0.003824	0.007137	-0.007902	-0.537598	0.088379	-0.097168
92.0	5.821012	-2.086873	7.755462	-0.003186	0.006399	-0.005472	-0.543701	0.077637	-0.092773
93.0	5.813333	-2.061827	7.733227	-0.00852	0.011173	-0.008839	-0.539551	0.084229	-0.097168
94.0	5.812943	-2.06178	7.733533	-0.004198	0.003873	-0.009687	-0.537354	0.086182	-0.094971
95.0	5.807102	-2.065965	7.757078	-0.003435	0.005125	-0.004435	-0.541748	0.083984	-0.094971
96.0	5.825149	-2.082482	7.733253	-0.004833	0.007319	-0.005438	-0.541748	0.082031	-0.097168
97.0	5.824619	-2.082459	7.733658	-0.004333	0.009864	-0.007508	-0.543945	0.081787	-0.094971
98.0	5.803995	-2.09432	7.727114	-0.002434	0.010215	-0.008575	-0.539551	0.083984	-0.094971
99.0	5.823437	-2.081981	7.734677	-0.002683	0.008942	-0.00754	-0.535156	0.084229	-0.099365
100.0	5.810031	-2.06089	7.735958	-0.002182	0.011487	-0.009609	-0.543945	0.084229	-0.101563
101.0	5.803736	-2.064939	7.759869	-0.001159	0.008739	-0.003714	-0.537354	0.082031	-0.097168
102.0	5.803055	-2.064851	7.760401	-0.005728	0.012055	-0.008508	-0.543945	0.083984	-0.092773
103.0	5.807954	-2.06048	7.737626	-0.002556	0.010931	-0.004716	-0.541748	0.083984	-0.092773
104.0	5.820076	-2.081168	7.737425	-0.004328	0.009861	-0.007505	-0.539551	0.083984	-0.092773
105.0	5.800974	-2.064608	7.762022	-0.003442	0.010395	-0.00611	-0.539551	0.081787	-0.090576
106.0	5.805951	-2.060104	7.73923	-0.001542	0.010747	-0.007176	-0.539551	0.086182	-0.094971
107.0	5.818143	-2.080509	7.739056	-0.000779	0.009292	-0.008603	-0.537354	0.082031	-0.097168
108.0	5.817573	-2.080285	7.739545	-0.003691	0.009122	-0.005074	-0.539551	0.081787	-0.090576
109.0	5.824124	-2.047382	7.747854	-0.00344	0.010394	-0.006108	-0.545898	0.081787	-0.090576
110.0	5.79619	-2.09224	7.733533	-0.001668	0.011464	-0.003318	-0.539551	0.082031	-0.099365
111.0	5.815578	-2.079836	7.741165	-1.3e-05	0.007836	-0.010029	-0.537354	0.084229	-0.099365
112.0	5.820786	-2.075216	7.718244	-0.004575	0.008585	-0.006468	-0.537354	0.083984	-0.092773
113.0	5.814581	-2.079407	7.742029	-0.002675	0.008938	-0.007534	-0.539551	0.081787	-0.092773
114.0	5.781243	-2.0706	7.736094	-0.004574	0.008585	-0.006468	-0.541748	0.083984	-0.094971
115.0	5.800663	-2.058452	7.743633	-0.004322	0.009857	-0.007501	-0.539307	0.079834	-0.099365
116.0	5.807156	-2.083506	7.766746	-0.00597	0.010776	-0.007468	-0.535156	0.081787	-0.090576
117.0	5.805096	-2.054258	7.721188	-0.009005	0.008615	-0.006764	-0.543945	0.083984	-0.094971
118.0	5.817462	-2.075196	7.720755	-0.005708	0.006776	-0.006828	-0.534912	0.079834	-0.090576
119.0	5.831344	-2.067483	7.751509	-0.004823	0.007311	-0.005432	-0.543945	0.081787	-0.094971
120.0	5.80384	-2.054527	7.72206	-0.006591	0.00624	-0.008222	-0.539551	0.081787	-0.092773
121.0	5.810518	-2.079586	7.74503	-0.004319	0.009855	-0.007498	-0.543701	0.077637	-0.094971
122.0	5.809878	-2.079595	7.745508	-0.005334	0.010037	-0.005037	-0.543945	0.084229	-0.101563
123.0	5.777966	-2.042338	7.770749	-0.000389	0.00728	-0.005133	-0.541748	0.081787	-0.092773
124.0	5.796031	-2.058821	7.747003	-0.009253	0.007339	-0.005729	-0.537354	0.086182	-0.092773
125.0	5.803047	-2.08415	7.769644	-0.005184	-0.001223	-0.005549	-0.543945	0.083984	-0.094971
126.0	5.821675	-2.042843	7.730679	-0.01076	0.00227	-0.007881	-0.539551	0.083984	-0.092773
127.0	5.808757	-2.080427	7.746125	-0.008991	0.00334	-0.005089	-0.541748	0.084229	-0.099365
128.0	5.814298	-2.076482	7.722792	-0.008991	0.00334	-0.005089	-0.541504	0.07959	-0.090576
129.0	5.839771	-2.060289	7.706658	-0.006839	0.004966	-0.007186	-0.543945	0.081787	-0.094971
130.0	5.82245	-2.073446	7.776822	-0.006838	0.004966	-0.007186	-0.5354	0.086182	-0.094971
131.0	5.807981	-2.081512	7.746416	-0.011521	0.003721	-0.006451	-0.541748	0.083984	-0.097168
132.0	5.780672	-2.068717	7.716775	-0.004938	0.00532	-0.00825	-0.543945	0.081787	-0.092773
133.0	5.827658	-2.069531	7.753734	-0.004676	0.001322	-0.007613	-0.541748	0.082031	-0.097168
134.0	5.813226	-2.077259	7.723391	-0.005702	0.006773	-0.006821	-0.539551	0.084229	-0.097168
135.0	5.820135	-2.102373	7.746164	-0.006071	0.003512	-0.008612	-0.539307	0.079834	-0.097168
136.0	5.799942	-2.056459	7.724474	-0.004053	0.005855	-0.006853	-0.539551	0.083984	-0.094971
137.0	5.806851	-2.081517	7.747261	-0.005188	0.004046	-0.007217	-0.548096	0.081787	-0.092773
138.0	5.825239	-2.097823	7.723328	-0.002657	0.003664	-0.005854	-0.543945	0.083984	-0.092773
139.0	5.832117	-2.064962	7.731389	-0.005952	0.005499	-0.005788	-0.541748	0.083984	-0.097168
140.0	5.825993	-2.069274	7.755054	-0.002665	0.008935	-0.00752	-0.539551	0.081787	-0.092773
141.0	5.798388	-2.056083	7.72574	-0.002917	0.007662	-0.006488	-0.543945	0.083984	-0.094971
142.0	5.837889	-2.089673	7.755126	-0.002916	0.007662	-0.006488	-0.541748	0.083984	-0.097168
143.0	5.791867	-2.05997	7.749812	-0.001133	0.006029	-0.010376	-0.5354	0.086182	-0.094971
144.0	5.810039	-2.075968	7.726136	-0.002663	0.008933	-0.007519	-0.541748	0.084229	-0.099365
145.0	5.830782	-2.093029	7.779781	-0.001276	0.012014	-0.008186	-0.539551	0.082031	-0.097168
146.0	5.808746	-2.07536	7.727271	-0.002662	0.008933	-0.007518	-0.541748	0.083984	-0.097168
147.0	5.828085	-2.063034	7.734943	-0.004057	0.011122	-0.008516	-0.537354	0.086182	-0.088623
148.0	5.807644	-2.075125	7.728162	-0.005948	0.005496	-0.005787	-0.543945	0.084229	-0.099365
149.0	5.807186	-2.075032	7.728531	-0.002408	0.010204	-0.008548	-0.543701	0.079834	-0.094971
150.0	5.806652	-2.074801	7.728995	-0.002913	0.007659	-0.006485	-0.545898	0.082031	-0.097168
151.0	5.819097	-2.095272	7.728649	-0.001893	0.007479	-0.008944	-0.537598	0.090576	-0.092773
152.0	5.805763	-2.074295	7.729798	-0.005188	0.009311	-0.008879	-0.537354	0.084229	-0.099365
153.0	5.818102	-2.094853	7.729512	-0.002659	0.008931	-0.007515	-0.541748	0.086182	-0.092773
154.0	5.804661	-2.074002	7.730705	-0.003678	0.00911	-0.005056	-0.541748	0.081787	-0.092773
155.0	5.79114	-2.053074	7.731975	-0.002151	0.011475	-0.009575	-0.537354	0.084229	-0.097168
156.0	5.830377	-2.086506	7.761627	-0.00317	0.011654	-0.007116	-0.537354	0.082031	-0.097168
157.0	5.802652	-2.073267	7.732409	-0.000128	0.00855	-0.00615	-0.539551	0.083984	-0.094971
158.0	5.82201	-2.060804	7.740111	-0.002402	0.010201	-0.008543	-0.541748	0.081787	-0.092773
159.0	5.807208	-2.068287	7.710133	-0.001775	0.009465	-0.006117	-0.541748	0.082031	-0.097168
160.0	5.793933	-2.105286	7.725977	-0.00126	0.006741	-0.006515	-0.539551	0.086182	-0.094971
161.0	5.820476	-2.060026	7.741471	-0.003534	0.008392	-0.008908	-0.541748	0.082031	-0.094971
162.0	5.780162	-2.084001	7.72752	-0.001006	0.008013	-0.007544	-0.537354	0.083984	-0.090576
163.0	5.805401	-2.067105	7.711811	-0.001886	0.007476	-0.00894	-0.539551	0.083984	-0.094971
164.0	5.824859	-2.05466	7.719435	-0.002653	0.008927	-0.007511	-0.539551	0.081787	-0.092773
165.0	5.83162	-2.079548	7.742379	-0.002392	0.004931	-0.006879	-0.539307	0.07959	-0.086426
166.0	5.798452	-2.070698	7.736248	-0.004157	0.009126	-0.011332	-0.539551	0.082031	-0.099365
167.0	5.805137	-2.09573	7.759207	-0.007334	0.007675	-0.006782	-0.546143	0.083984	-0.094971
168.0	5.817484	-2.058475	7.744133	-0.003784	0.007118	-0.007876	-0.539551	0.082031	-0.097168
169.0	5.811343	-2.062709	7.767784	-0.003784	0.007117	-0.007875	-0.548096	0.081787	-0.094971
170.0	5.809698	-2.091113	7.736842	-0.005685	0.00676	-0.006814	-0.539551	0.083984	-0.092773
171.0	5.802166	-2.065937	7.714558	-0.003783	0.007117	-0.007875	-0.543945	0.083984	-0.090576
172.0	5.828874	-2.07867	7.744682	-0.002135	0.006202	-0.007906	-0.541748	0.082031	-0.097168
173.0	5.834205	-2.07406	7.721744	-0.005175	0.009303	-0.008871	-0.541748	0.082031	-0.094971
174.0	5.814997	-2.05743	7.746278	-0.001371	0.010018	-0.010993	-0.539551	0.084229	-0.097168
175.0	5.813115	-2.085584	7.715593	-0.002538	0.010912	-0.004682	-0.541748	0.083984	-0.092773
176.0	5.788004	-2.073544	7.763486	-0.001769	0.009461	-0.00611	-0.539551	0.083984	-0.094971
177.0	5.807258	-2.061129	7.771258	-0.001514	0.010733	-0.007138	-0.541748	0.083984	-0.092773
178.0	5.798318	-2.064247	7.717903	-0.002901	0.007651	-0.006476	-0.537354	0.083984	-0.092773
179.0	5.772159	-2.080674	7.734395	-0.002022	0.008188	-0.00508	-0.539551	0.084229	-0.101563
180.0	5.811384	-2.056068	7.74935	0.000135	0.009818	-0.007169	-0.537354	0.084229	-0.099365
181.0	5.829539	-2.072071	7.725801	-0.002899	0.007651	-0.006476	-0.541504	0.079834	-0.092773
182.0	5.809078	-2.084114	7.71903	-0.003414	0.010373	-0.006076	-0.539551	0.086182	-0.094971
183.0	5.809744	-2.055532	7.750722	-0.003776	0.007113	-0.007871	-0.539551	0.086182	-0.094971
184.0	5.83372	-2.067165	7.70383	-0.002388	0.010194	-0.008531	-0.541748	0.083984	-0.094971
185.0	5.807407	-2.083443	7.720468	-0.00151	0.01073	-0.007134	-0.541748	0.086182	-0.092773
186.0	5.813762	-2.05031	7.728952	-0.002642	0.008921	-0.007502	-0.537354	0.081787	-0.092773
187.0	5.800447	-2.087325	7.744802	-0.002386	0.010193	-0.00853	-0.541748	0.081787	-0.092773
188.0	5.812614	-2.049651	7.72999	0.002408	0.008168	-0.004772	-0.5354	0.086182	-0.094971
189.0	5.812003	-2.049166	7.730578	0.000395	0.011088	-0.008192	-0.545898	0.079834	-0.092773
190.0	5.785604	-2.065272	7.747309	-0.001874	0.012735	-0.010585	-0.541992	0.088379	-0.094971
191.0	5.830664	-2.094035	7.753774	0.000141	0.009815	-0.007163	-0.545898	0.082031	-0.097168
192.0	5.79002	-2.060005	7.725262	-0.001251	0.011999	-0.008159	-0.537354	0.084229	-0.099365
193.0	5.809173	-2.047384	7.733177	0.000398	0.011086	-0.00819	-0.539551	0.083984	-0.094971
194.0	5.801511	-2.079711	7.725905	0.000654	0.012358	-0.009217	-0.539307	0.079834	-0.092773
195.0	5.80659	-2.074848	7.703267	-0.001504	0.010726	-0.00713	-0.541748	0.086182	-0.097168
196.0	5.819983	-2.066833	7.734404	-0.000883	0.009992	-0.004706	-0.537354	0.084229	-0.097168
197.0	5.799432	-2.078663	7.727748	0.0004	0.011085	-0.008188	-0.537354	0.083984	-0.094971
198.0	5.804514	-2.073752	7.705126	-0.001866	0.012731	-0.01058	-0.543701	0.077637	-0.094971
199.0	5.817778	-2.065674	7.736372	-0.002273	0.012174	-0.005701	-0.537354	0.083984	-0.088379
200.0	5.802936	-2.073115	7.706486	0.001278	0.011621	-0.006789	-0.543945	0.081787	-0.090576
201.0	5.796366	-2.077106	7.730467	-0.001244	0.011995	-0.008155	-0.543945	0.084229	-0.099365
202.0	5.796661	-2.048286	7.762427	-0.000368	0.012532	-0.006757	-0.537109	0.077637	-0.090576
203.0	5.808746	-2.068669	7.762461	-0.002014	0.013444	-0.006726	-0.543945	0.084229	-0.099365
204.0	5.788202	-2.080522	7.755787	-0.001601	0.008736	-0.009951	-0.541748	0.083984	-0.094971
205.0	5.807405	-2.067974	7.76365	-0.002888	0.012905	-0.008122	-0.539551	0.084229	-0.097168
206.0	5.798488	-2.071128	7.710368	-0.001136	0.008717	-0.003675	-0.541748	0.083984	-0.094971
207.0	5.793158	-2.046874	7.765414	-0.000106	0.008539	-0.006129	-0.539795	0.088379	-0.094971
208.0	5.824378	-2.083613	7.741194	-0.004532	0.008553	-0.006438	-0.539307	0.079834	-0.094971
209.0	5.803898	-2.037766	7.719588	-0.004891	0.005294	-0.008237	-0.539307	0.079834	-0.097168
210.0	5.785076	-2.079419	7.758414	-0.004016	0.005832	-0.006839	-0.541504	0.077637	-0.094971
211.0	5.810333	-2.062564	7.742794	-0.000105	0.008539	-0.006127	-0.539551	0.083984	-0.094971
212.0	5.791142	-2.046103	7.767121	-0.004889	0.005293	-0.008236	-0.541748	0.083984	-0.090576
213.0	5.828338	-2.078672	7.719454	-0.004943	0.007995	-0.00156	-0.545898	0.079834	-0.092773
214.0	5.814918	-2.058054	7.720467	-0.004631	0.006564	-0.009262	-0.537354	0.081787	-0.092773
215.0	5.822697	-2.054721	7.774633	-0.007308	0.007652	-0.006777	-0.541504	0.079834	-0.094971
216.0	5.788399	-2.074766	7.737061	-0.005403	0.008012	-0.007833	-0.539551	0.086182	-0.092773
217.0	5.802083	-2.066868	7.767923	-0.00324	0.004382	-0.008265	-0.539551	0.082031	-0.097168
218.0	5.813528	-2.057821	7.721576	-0.004012	0.00583	-0.006837	-0.543945	0.081787	-0.094971
219.0	5.813218	-2.057791	7.721817	-0.006533	0.006202	-0.008204	-0.541992	0.088379	-0.092773
220.0	5.801184	-2.066665	7.768649	-0.003138	0.006368	-0.005439	-0.539795	0.088379	-0.090576
221.0	5.786737	-2.074337	7.73842	-0.005143	0.009282	-0.008857	-0.539551	0.083984	-0.094971
222.0	5.800295	-2.066426	7.769376	-0.004627	0.006562	-0.009259	-0.541748	0.082031	-0.094971
223.0	5.773165	-2.053509	7.739593	-0.005656	0.001477	-0.005157	-0.539551	0.084229	-0.097168
224.0	5.813258	-2.087334	7.768636	-0.010438	-0.00177	-0.007268	-0.539551	0.083984	-0.088623
225.0	5.806477	-2.062532	7.745695	-0.009664	-0.003218	-0.008696	-0.539551	0.086182	-0.094971
226.0	5.807022	-2.062895	7.74519	-0.010435	-0.007033	-0.00562	-0.539307	0.079834	-0.097168
227.0	5.806831	-2.091764	7.713167	-0.013926	-0.009186	-0.011208	-0.541504	0.077637	-0.092773
228.0	5.814646	-2.059291	7.720342	-0.011662	-0.01083	-0.008816	-0.541748	0.081787	-0.092773
229.0	5.841441	-2.101205	7.718158	-0.013984	-0.006488	-0.00453	-0.539551	0.086182	-0.099365
230.0	5.821837	-2.056044	7.695714	-0.012438	-0.00412	-0.009033	-0.537354	0.083984	-0.090576
231.0	5.810451	-2.065437	7.74194	-0.010952	0.000947	-0.006859	-0.543701	0.077637	-0.094971
232.0	5.843379	-2.074251	7.748365	-0.009304	3.7e-05	-0.006891	-0.541748	0.086182	-0.097168
233.0	5.829492	-2.08227	7.717612	-0.009047	0.001309	-0.007915	-0.543945	0.083984	-0.092773
234.0	5.830431	-2.05409	7.748912	-0.007044	0.003657	-0.006145	-0.543945	0.081787	-0.094971
235.0	5.822196	-2.057458	7.695064	-0.00627	0.002209	-0.007574	-0.541748	0.082031	-0.097168
236.0	5.810589	-2.066662	7.741509	-0.008687	-0.000698	-0.004468	-0.537109	0.079834	-0.094971
237.0	5.810658	-2.067053	7.741353	-0.010692	0.002216	-0.007882	-0.541748	0.082031	-0.094971
238.0	5.816595	-2.062781	7.717941	-0.005135	-0.001244	-0.005556	-0.541504	0.07959	-0.090576
239.0	5.836911	-2.108564	7.739666	-0.004622	0.0013	-0.007604	-0.539307	0.079834	-0.099365
240.0	5.829799	-2.083439	7.717065	-0.006525	0.000937	-0.006548	-0.539551	0.082031	-0.094971
241.0	5.815806	-2.091213	7.686455	-0.006011	0.003481	-0.008596	-0.543945	0.086182	-0.099365
242.0	5.830514	-2.054946	7.748623	-0.001235	0.006731	-0.006485	-0.541748	0.082031	-0.097168
243.0	5.817599	-2.092067	7.764112	-0.003235	0.004382	-0.008255	-0.546143	0.084229	-0.099365
244.0	5.829149	-2.082976	7.71768	-0.005395	0.002746	-0.006174	-0.539551	0.081787	-0.092773
245.0	5.810165	-2.066648	7.741831	-0.00133	0.004746	-0.00931	-0.541748	0.083984	-0.094971
246.0	5.848594	-2.07033	7.725406	-0.003394	0.005094	-0.004404	-0.539551	0.086182	-0.092773
247.0	5.828474	-2.082375	7.718353	-0.002719	0.006926	-0.010301	-0.543945	0.083984	-0.090576
248.0	5.828954	-2.0537	7.750127	-0.001752	0.009449	-0.006078	-0.541748	0.082031	-0.094971
249.0	5.83318	-2.077367	7.696075	-0.003141	0.011628	-0.007069	-0.541748	0.083984	-0.094971
250.0	5.820771	-2.086046	7.743251	0.00041	0.011085	-0.008156	-0.543945	0.083984	-0.092773
251.0	5.83178	-2.076464	7.69738	0.002929	0.010715	-0.006791	-0.546143	0.083984	-0.097168
252.0	5.833273	-2.077253	7.775245	-0.000364	0.01253	-0.006727	-0.541748	0.082031	-0.097168
253.0	5.811316	-2.059541	7.722782	-0.002881	0.012898	-0.008091	-0.537598	0.088379	-0.097168
254.0	5.810525	-2.059275	7.723447	-0.00062	0.011257	-0.005702	-0.541748	0.083984	-0.094971
255.0	5.816945	-2.084088	7.746653	-0.001233	0.01199	-0.008122	-0.539551	0.082031	-0.097168
256.0	5.821976	-2.07927	7.724092	-0.002008	0.013436	-0.006693	-0.541748	0.083984	-0.088623
257.0	5.807999	-2.058263	7.725618	0.000155	0.015072	-0.008769	-0.541504	0.079834	-0.094971
258.0	5.820166	-2.078384	7.725694	0.001287	0.011621	-0.006754	-0.544189	0.088379	-0.092773
259.0	5.786581	-2.069577	7.719724	-0.001229	0.011988	-0.00812	-0.541748	0.082031	-0.097168
260.0	5.83253	-2.069836	7.757714	-0.000358	0.012527	-0.006722	-0.541748	0.082031	-0.094971
261.0	5.817749	-2.077176	7.727839	-9.9e-05	0.013798	-0.007744	-0.541748	0.083984	-0.094971
262.0	5.791261	-2.093587	7.744445	-0.000615	0.011254	-0.005698	-0.543701	0.079834	-0.099365
263.0	5.816127	-2.076442	7.729257	-0.000967	0.013258	-0.00914	-0.543945	0.081787	-0.094971
264.0	5.816178	-2.047657	7.761316	-0.001225	0.011986	-0.008117	-0.541748	0.082031	-0.094971
265.0	5.808656	-2.080334	7.753878	-0.004776	0.012527	-0.007032	-0.543945	0.081787	-0.094971
266.0	5.820515	-2.042867	7.73929	-0.003387	0.010348	-0.006041	-0.539307	0.079834	-0.092773
267.0	5.799269	-2.083401	7.701057	-0.004256	0.009809	-0.007438	-0.543945	0.086182	-0.094971
268.0	5.831492	-2.091602	7.708243	-0.004865	0.010541	-0.009857	-0.539551	0.081787	-0.090576
269.0	5.81216	-2.075396	7.732522	-0.005123	0.004009	-0.007197	-0.537354	0.082031	-0.097168
270.0	5.831761	-2.06301	7.740075	-0.006341	0.005474	-0.012036	-0.541748	0.082031	-0.094971
271.0	5.831596	-2.062998	7.740203	-0.007027	0.003643	-0.006144	-0.539551	0.082031	-0.094971
272.0	5.817601	-2.070814	7.709621	-0.00599	0.00347	-0.008594	-0.541748	0.083984	-0.092773
273.0	5.798444	-2.054727	7.733732	-0.006508	0.006186	-0.008187	-0.541748	0.081787	-0.090576
274.0	5.810543	-2.10368	7.70179	-0.006857	0.00293	-0.009991	-0.539551	0.082031	-0.097168
275.0	5.825116	-2.067505	7.763904	-0.005729	0.00474	-0.009615	-0.546143	0.083984	-0.092773
276.0	5.830853	-2.063165	7.740718	-0.011445	0.003641	-0.006457	-0.537354	0.081787	-0.090576
277.0	5.81101	-2.075672	7.733312	-0.006855	0.002929	-0.00999	-0.541748	0.081787	-0.090576
278.0	5.830716	-2.063454	7.740744	-0.007892	0.003101	-0.00754	-0.543945	0.081787	-0.094971
279.0	5.81084	-2.075912	7.733375	-0.007024	0.003641	-0.006142	-0.546143	0.083984	-0.097168
280.0	5.830473	-2.063706	7.74086	-0.005986	0.003468	-0.008591	-0.541748	0.086182	-0.092773
281.0	5.83639	-2.059088	7.717615	-0.005466	0.000752	-0.008999	-0.541748	0.082031	-0.094971
282.0	5.810828	-2.075721	7.733436	-0.002692	0.001658	-0.008653	-0.541748	0.082031	-0.097168
283.0	5.843683	-2.083901	7.740157	-0.003122	0.001098	-0.003785	-0.541748	0.083984	-0.092773
284.0	5.810683	-2.075239	7.733674	0.001725	0.00692	-0.009973	-0.541504	0.077637	-0.094971
285.0	5.810477	-2.074969	7.733901	-0.00789	0.003099	-0.007538	-0.543945	0.083984	-0.092773
286.0	5.82421	-2.06752	7.764579	-0.008928	0.003271	-0.005088	-0.537354	0.081787	-0.092773
287.0	5.779141	-2.096975	7.772657	-0.010226	-0.007767	-0.009485	-0.539551	0.081787	-0.092773
288.0	5.831354	-2.063847	7.740159	-0.014812	-0.012319	-0.004318	-0.546143	0.088379	-0.094971
289.0	5.814023	-2.106743	7.777435	-0.016544	-0.013399	-0.007112	-0.541748	0.083984	-0.097168
290.0	5.819938	-2.073273	7.707197	-0.016888	-0.016656	-0.008916	-0.545898	0.079834	-0.094971
291.0	5.828135	-2.041148	7.713982	-0.015498	-0.018833	-0.007926	-0.541748	0.086426	-0.10376
292.0	5.855711	-2.082873	7.711307	-0.013338	-0.011932	-0.01163	-0.539551	0.081787	-0.092773
293.0	5.842792	-2.091033	7.679799	-0.01065	-0.008332	-0.004611	-0.539551	0.081787	-0.092773
294.0	5.850814	-2.116532	7.701601	-0.008574	-0.008673	-0.009511	-0.541748	0.082031	-0.094971
295.0	5.852165	-2.08843	7.732524	-0.011005	-0.001066	-0.009679	-0.539551	0.086182	-0.092773
296.0	5.831202	-2.071064	7.679234	-0.00373	0.00183	-0.006198	-0.543945	0.081787	-0.092773
297.0	5.852286	-2.088413	7.732437	-0.004339	0.002563	-0.008615	-0.5354	0.086182	-0.092773
298.0	5.845002	-2.063075	7.710028	-0.003472	0.003103	-0.007218	-0.541748	0.083984	-0.094971
299.0	5.864584	-2.050752	7.717576	-0.006764	0.004909	-0.007151	-0.541504	0.079834	-0.094971
300.0	5.805061	-2.08787	7.695481	-0.006936	0.005619	-0.003304	-0.541748	0.083984	-0.094971
301.0	5.85735	-2.083917	7.709779	-0.002347	0.004915	-0.00684	-0.541748	0.086182	-0.090576
302.0	5.824118	-2.075465	7.703448	-0.005123	0.009267	-0.008813	-0.539307	0.079834	-0.092773
303.0	5.85063	-2.0882	7.733748	-0.003734	0.007091	-0.007826	-0.537354	0.082031	-0.099365
304.0	5.817248	-2.07969	7.727541	-0.001486	0.010715	-0.007071	-0.541748	0.083984	-0.097168
305.0	5.855232	-2.083242	7.71157	-0.004171	0.011787	-0.004588	-0.543945	0.083984	-0.092773
306.0	5.808522	-2.054211	7.706258	0.001027	0.010352	-0.005707	-0.543701	0.07959	-0.090576
307.0	5.828187	-2.099672	7.728588	-0.003996	0.011077	-0.008434	-0.543945	0.083984	-0.090576
308.0	5.839151	-2.090414	7.682736	-0.002438	0.012866	-0.001793	-0.539307	0.079834	-0.090576
309.0	5.833195	-2.066625	7.73803	-0.002348	0.010174	-0.008466	-0.544189	0.088379	-0.094971
310.0	5.818649	-2.074142	7.707935	-0.001657	0.011423	-0.003222	-0.539551	0.083984	-0.090576
311.0	5.811896	-2.078602	7.731859	-0.002004	0.013428	-0.006657	-0.546143	0.083984	-0.090576
312.0	5.830757	-2.066042	7.740023	0.000249	0.011792	-0.004273	-0.539551	0.086182	-0.092773
313.0	5.823262	-2.098683	7.732568	-0.001138	0.013967	-0.005259	-0.539307	0.077637	-0.092773
314.0	5.847915	-2.08144	7.717607	0.000768	0.014337	-0.00631	-0.544189	0.088379	-0.09082
315.0	5.820005	-2.068203	7.688494	-0.001741	0.014698	-0.007674	-0.546143	0.086182	-0.090576
316.0	5.826252	-2.09306	7.711809	0.001375	0.013603	-0.003892	-0.541748	0.083984	-0.094971
317.0	5.831972	-2.059772	7.720771	-0.001822	0.012715	-0.0105	-0.543945	0.083984	-0.097168
318.0	5.818606	-2.096923	7.73655	-0.001134	0.013964	-0.005256	-0.543945	0.081787	-0.090576
319.0	5.817079	-2.038719	7.722964	-0.001652	0.011419	-0.003219	-0.541748	0.083984	-0.097168
320.0	5.829361	-2.059349	7.722856	-0.005808	0.012682	-0.004552	-0.541748	0.083984	-0.094971
321.0	5.802338	-2.104641	7.707711	-0.003639	0.009066	-0.004995	-0.541992	0.088379	-0.092773
322.0	5.841194	-2.080041	7.723072	-0.007012	0.008887	-0.007758	-0.543945	0.083984	-0.097168
323.0	5.813682	-2.06718	7.693551	-0.003378	0.010338	-0.006012	-0.537109	0.079834	-0.092773
324.0	5.840037	-2.080183	7.723909	-0.009176	0.007243	-0.005689	-0.541748	0.082031	-0.097168
325.0	5.826372	-2.059765	7.725	-0.007353	0.010891	-0.01119	-0.546143	0.086182	-0.101563
326.0	5.825799	-2.05955	7.725489	-8.5e-05	0.008535	-0.006075	-0.545898	0.082031	-0.097168
327.0	5.818749	-2.092243	7.717693	-0.005363	0.007984	-0.007788	-0.543945	0.086182	-0.092773
328.0	5.824809	-2.05922	7.726324	-0.002593	0.008896	-0.00744	-0.545898	0.081787	-0.094971
329.0	5.830912	-2.11253	7.717777	-0.005362	0.007984	-0.007787	-0.541748	0.083984	-0.090576
330.0	5.823927	-2.058916	7.72707	-0.00207	0.006182	-0.007851	-0.543945	0.083984	-0.092773
331.0	5.823081	-2.08675	7.695918	0.001222	0.004381	-0.007915	-0.541748	0.083984	-0.092773
332.0	5.823615	-2.058016	7.727544	-0.003272	0.002388	-0.011059	-0.539551	0.081787	-0.088379
333.0	5.823556	-2.057694	7.727675	-8.2e-05	0.003277	-0.00445	-0.543945	0.086182	-0.097168
334.0	5.822727	-2.085735	7.696461	-0.004577	0.006541	-0.009216	-0.539307	0.079834	-0.090576
335.0	5.855849	-2.065613	7.734938	-0.006483	0.006169	-0.008167	-0.543945	0.081787	-0.092773
336.0	5.822696	-2.057309	7.728426	-0.001466	0.005449	-0.005434	-0.539551	0.086182	-0.092773
337.0	5.821767	-2.085331	7.697297	-0.004315	0.007813	-0.010232	-0.541748	0.083984	-0.090576
338.0	5.862014	-2.090254	7.758368	-0.003713	0.00708	-0.007817	-0.539307	0.077637	-0.090576
339.0	5.82737	-2.051991	7.706348	-0.001467	0.010706	-0.007054	-0.541748	0.083984	-0.094971
340.0	5.847291	-2.097522	7.728508	-0.004834	0.005267	-0.008197	-0.543945	0.081787	-0.094971
341.0	5.820464	-2.056235	7.730392	-0.000605	0.011246	-0.005655	-0.546143	0.084229	-0.099365
342.0	5.83295	-2.076597	7.730226	-0.007342	0.010882	-0.011183	-0.539551	0.081787	-0.092773
343.0	5.812602	-2.088968	7.72321	-0.004417	0.0105	-0.003557	-0.541504	0.077637	-0.092773
344.0	5.811933	-2.088984	7.72371	-0.004233	0.009791	-0.007401	-0.545898	0.081787	-0.094971
345.0	5.817724	-2.056069	7.732498	-0.004155	0.011771	-0.004573	-0.543701	0.079834	-0.092773
346.0	5.824189	-2.081298	7.755536	-0.005877	0.01069	-0.007369	-0.543945	0.083984	-0.092773
347.0	5.822195	-2.051398	7.710416	-0.002247	0.012144	-0.00562	-0.541748	0.083984	-0.094971
348.0	5.80317	-2.093587	7.749037	-0.00812	0.007063	-0.008132	-0.543945	0.083984	-0.088623
349.0	5.853844	-2.059745	7.718083	-0.006659	0.012128	-0.005937	-0.541748	0.086182	-0.092773
350.0	5.813773	-2.084488	7.703564	-0.003368	0.01033	-0.006	-0.541748	0.083984	-0.090576
351.0	5.846495	-2.064547	7.742296	-0.008042	0.009042	-0.005303	-0.541748	0.083984	-0.090576
352.0	5.826201	-2.077012	7.735203	-0.003367	0.01033	-0.005999	-0.539551	0.086182	-0.090576
353.0	5.838714	-2.097563	7.734979	-0.005273	0.009956	-0.004951	-0.544189	0.088379	-0.09082
354.0	5.811709	-2.0565	7.736905	-0.004226	0.009788	-0.007396	-0.543945	0.083984	-0.094971
355.0	5.857024	-2.085084	7.743577	-0.002243	0.012142	-0.005614	-0.541748	0.081787	-0.092773
356.0	5.823504	-2.076828	7.737283	-0.00759	0.009605	-0.010161	-0.541748	0.086182	-0.090576
357.0	5.815705	-2.051793	7.715208	-0.007178	0.00958	-0.003903	-0.543945	0.081787	-0.090576
358.0	5.821806	-2.105317	7.70665	-0.001121	0.008698	-0.003614	-0.543945	0.081787	-0.090576
359.0	5.833585	-2.067614	7.692275	-0.003101	0.0116	-0.007011	-0.541992	0.088379	-0.094971
360.0	5.814823	-2.08151	7.762503	-0.004745	0.012497	-0.006979	-0.541748	0.081787	-0.092773
361.0	5.825993	-2.072182	7.716714	-0.004147	0.011766	-0.004564	-0.543945	0.086182	-0.099365
362.0	5.792409	-2.063998	7.710432	-0.003361	0.010327	-0.005994	-0.541748	0.086182	-0.097168
363.0	5.857344	-2.080206	7.724726	-0.002239	0.012139	-0.00561	-0.545898	0.081787	-0.094971
364.0	5.823905	-2.072041	7.718328	-0.008107	0.007057	-0.008129	-0.539307	0.079834	-0.094971
365.0	5.82338	-2.072072	7.718715	-0.003359	0.010326	-0.005993	-0.539551	0.082031	-0.097168
366.0	5.836025	-2.092683	7.718392	-0.006651	0.006866	-0.004316	-0.537109	0.077637	-0.094971
367.0	5.809209	-2.051624	7.720145	-0.00119	0.006717	-0.006439	-0.539551	0.086182	-0.094971
368.0	5.835269	-2.092541	7.719002	-0.00646	0.006158	-0.00816	-0.541748	0.081787	-0.092773
369.0	5.821724	-2.072049	7.719971	-0.005601	0.006699	-0.006761	-0.541748	0.082031	-0.094971
370.0	5.828507	-2.097356	7.742729	-0.007245	0.007596	-0.006729	-0.537598	0.086426	-0.101563
371.0	5.820864	-2.072207	7.720577	-0.002238	0.006883	-0.003993	-0.539551	0.084229	-0.097168
372.0	5.820342	-2.072285	7.720949	-0.008626	0.009764	-0.007711	-0.541748	0.083984	-0.092773
373.0	5.839153	-2.088116	7.69735	-0.002309	0.004904	-0.006822	-0.541748	0.083984	-0.092773
374.0	5.833186	-2.064318	7.752389	-0.004023	0.009076	-0.011231	-0.539551	0.083984	-0.092773
375.0	5.832443	-2.092504	7.721148	-0.008627	0.004509	-0.006099	-0.537354	0.084229	-0.097168
376.0	5.818891	-2.072123	7.722086	-0.005334	0.007969	-0.007772	-0.541748	0.086182	-0.088623
377.0	5.851355	-2.0803	7.729238	-0.00586	0.005424	-0.005744	-0.539551	0.084229	-0.097168
378.0	5.837872	-2.059896	7.730131	-0.006717	0.004883	-0.007143	-0.537354	0.083984	-0.088379
379.0	5.817872	-2.072312	7.722803	-0.004476	0.008509	-0.006371	-0.543945	0.086182	-0.092773
380.0	5.856357	-2.07568	7.706803	-0.004809	0.005259	-0.008188	-0.539551	0.081787	-0.090576
381.0	5.784163	-2.064132	7.716585	-0.004405	0.010487	-0.003541	-0.541748	0.083984	-0.094971
382.0	5.829525	-2.092908	7.723242	-0.008357	0.011032	-0.00872	-0.541748	0.083984	-0.092773
383.0	5.802183	-2.079957	7.693598	-0.001778	0.007447	-0.008845	-0.541748	0.082031	-0.099365
384.0	5.834607	-2.08792	7.700849	-0.004737	0.007236	-0.005357	-0.537354	0.084229	-0.097168
385.0	5.828549	-2.064318	7.755876	-0.002041	0.006175	-0.007832	-0.541748	0.083984	-0.092773
386.0	5.853605	-2.075246	7.709009	-0.005069	0.003985	-0.007174	-0.543945	0.086182	-0.090576
387.0	5.808503	-2.076525	7.748632	-0.004212	0.004526	-0.005774	-0.543945	0.086182	-0.101563
388.0	5.847076	-2.080004	7.732556	-0.008093	0.007048	-0.008123	-0.543945	0.083984	-0.094971
389.0	5.827091	-2.092486	7.725192	-0.005592	0.006693	-0.006754	-0.541748	0.086182	-0.088623
390.0	5.833086	-2.059634	7.733813	-0.005591	0.006693	-0.006754	-0.537354	0.083984	-0.088379
391.0	5.832195	-2.087848	7.702696	-0.004995	0.011215	-0.005948	-0.543945	0.081787	-0.092773
392.0	5.837496	-2.083168	7.680066	-0.004995	0.011215	-0.005948	-0.539307	0.079834	-0.092773
393.0	5.805499	-2.076887	7.750786	-0.00697	0.00886	-0.007734	-0.544189	0.088379	-0.094971
394.0	5.830377	-2.088009	7.704028	-0.005589	0.006692	-0.006753	-0.537354	0.082031	-0.094971
395.0	5.824031	-2.092801	7.727414	-0.006708	0.004878	-0.00714	-0.539551	0.086182	-0.094971
396.0	5.830083	-2.060037	7.73597	-0.008088	0.007045	-0.00812	-0.541748	0.086182	-0.092773
397.0	5.842881	-2.080757	7.735523	-0.008876	0.008481	-0.006688	-0.543945	0.081787	-0.092773
398.0	5.815633	-2.067888	7.705783	-0.001771	0.007446	-0.008838	-0.543701	0.079834	-0.099365
399.0	5.815179	-2.067734	7.706167	-0.003876	0.007773	-0.003952	-0.543945	0.086182	-0.097168
400.0	5.827906	-2.088144	7.705861	-0.002558	0.008882	-0.007406	-0.543945	0.086182	-0.101563
401.0	5.821248	-2.09261	7.729563	-0.001439	0.010695	-0.007018	-0.541748	0.082031	-0.094971
402.0	5.826902	-2.059421	7.73853	-0.001438	0.010695	-0.007017	-0.543945	0.086182	-0.090576
403.0	5.819853	-2.092023	7.730773	-0.000582	0.011236	-0.005617	-0.545898	0.079834	-0.094971
404.0	5.805539	-2.099371	7.700626	-0.000317	0.012508	-0.006628	-0.530762	0.082031	-0.094971
405.0	5.837927	-2.07896	7.739746	-0.002291	0.010152	-0.008416	-0.54834	0.083984	-0.092773
406.0	5.837394	-2.078726	7.740211	-0.002819	0.007608	-0.006393	-0.543945	0.083984	-0.097168
407.0	5.823704	-2.057869	7.74135	0.000144	0.007822	-0.009877	-0.539795	0.088379	-0.097168
408.0	5.80359	-2.069987	7.734164	-0.002754	0.009584	-0.003562	-0.539307	0.077637	-0.090576
409.0	5.822397	-2.085595	7.710714	-0.001174	0.006713	-0.006424	-0.546143	0.083984	-0.094971
410.0	5.815873	-2.09018	7.734265	-0.004462	0.0085	-0.006361	-0.541748	0.081787	-0.092773
411.0	5.808189	-2.064867	7.712205	-0.002818	0.007606	-0.006392	-0.539551	0.083984	-0.092773
412.0	5.834361	-2.077725	7.742766	-0.006895	0.010829	-0.004898	-0.537109	0.079834	-0.094971
413.0	5.820193	-2.085362	7.712441	-0.002286	0.01015	-0.008412	-0.541748	0.082031	-0.097168
414.0	5.806391	-2.064648	7.713617	-0.002816	0.007606	-0.006391	-0.541748	0.082031	-0.094971
415.0	5.819178	-2.085142	7.713267	-0.006369	0.00812	-0.005318	-0.535156	0.079834	-0.092773
416.0	5.838257	-2.072635	7.721341	-0.000906	0.007984	-0.007432	-0.543945	0.083984	-0.094971
417.0	5.824523	-2.051898	7.722469	-0.002815	0.007605	-0.00639	-0.545898	0.081787	-0.092773
418.0	5.831013	-2.104971	7.713818	-0.00064	0.009256	-0.008441	-0.537354	0.081787	-0.090576
419.0	5.823447	-2.051165	7.723475	0.000214	0.009797	-0.007041	-0.541504	0.079834	-0.092773
420.0	5.822797	-2.079155	7.692301	-0.005842	0.005411	-0.005738	-0.537354	0.086182	-0.092773
421.0	5.849097	-2.091859	7.722812	-0.002282	0.010148	-0.008409	-0.541748	0.082031	-0.094971
422.0	5.835284	-2.071151	7.723986	-0.002813	0.007604	-0.006388	-0.539551	0.086182	-0.092773
423.0	5.828477	-2.103764	7.716064	-0.002868	0.010878	-0.010818	-0.539551	0.084229	-0.099365
424.0	5.834138	-2.070554	7.725012	-0.001693	0.009417	-0.005997	-0.541748	0.081787	-0.088379
425.0	5.807956	-2.087446	7.74095	-0.000902	0.007982	-0.007428	-0.541748	0.082031	-0.094971
426.0	5.826919	-2.102835	7.717493	-0.001167	0.00671	-0.006418	-0.539795	0.088379	-0.090576
427.0	5.826552	-2.074509	7.749505	-0.003336	0.010309	-0.005966	-0.543701	0.077637	-0.088379
428.0	5.825916	-2.074459	7.749997	-0.003602	0.009036	-0.004956	-0.535156	0.083984	-0.092773
429.0	5.864255	-2.077572	7.734345	-0.002277	0.010146	-0.008405	-0.543945	0.082031	-0.097168
430.0	5.82456	-2.102217	7.719442	-0.001105	0.008686	-0.003585	-0.541748	0.083984	-0.092773
431.0	5.830282	-2.069132	7.728304	-0.003394	0.008331	-0.008796	-0.541748	0.084229	-0.101563
432.0	5.810246	-2.081429	7.720999	-0.004452	0.008493	-0.006355	-0.541748	0.081787	-0.092773
433.0	5.82926	-2.06892	7.729131	-0.005037	0.009223	-0.008764	-0.541748	0.086182	-0.094971
434.0	5.803078	-2.086002	7.744997	-0.005036	0.009222	-0.008764	-0.539551	0.083984	-0.092773
435.0	5.828196	-2.06862	7.730013	-0.00254	0.008872	-0.007393	-0.539551	0.086182	-0.090576
436.0	5.820552	-2.043238	7.707948	-0.003073	0.006328	-0.005375	-0.541748	0.083984	-0.092773
437.0	5.820988	-2.101394	7.72236	-0.008322	0.011004	-0.008702	-0.541504	0.07959	-0.088379
438.0	5.826731	-2.068566	7.731133	-0.003339	0.005056	-0.004366	-0.541748	0.086182	-0.090576
439.0	5.814185	-2.078021	7.777684	-0.004508	0.006515	-0.009184	-0.535156	0.083984	-0.094971
440.0	5.81263	-2.076029	7.70083	-0.0053	0.007949	-0.007753	-0.543945	0.083984	-0.094971
441.0	5.845044	-2.055945	7.739829	-0.006092	0.009382	-0.006321	-0.541748	0.082031	-0.097168
442.0	5.805464	-2.080867	7.724747	-0.005299	0.007948	-0.007752	-0.539551	0.081787	-0.090576
443.0	5.818481	-2.07303	7.755963	-0.002011	0.006166	-0.007813	-0.543945	0.082031	-0.097168
444.0	5.85703	-2.076194	7.740187	-0.006358	0.008109	-0.005312	-0.541748	0.081787	-0.088379
445.0	5.823673	-2.06843	7.733472	-0.008851	0.008457	-0.006682	-0.543945	0.083984	-0.094971
446.0	5.823196	-2.068709	7.733758	-0.006624	0.006836	-0.004303	-0.546143	0.088379	-0.094971
447.0	5.836212	-2.08917	7.733281	-0.003126	0.004351	-0.008204	-0.541748	0.083984	-0.086426
448.0	5.822617	-2.068518	7.734244	-0.003652	0.007056	-0.00778	-0.543945	0.086182	-0.092773
449.0	5.855072	-2.076342	7.741629	-0.003652	0.007056	-0.00778	-0.543945	0.084229	-0.099365
450.0	5.81555	-2.101156	7.726521	-0.003595	0.009031	-0.004947	-0.539551	0.086182	-0.092773
451.0	5.815075	-2.072863	7.758561	-0.00089	0.007979	-0.007417	-0.545898	0.081787	-0.092773
452.0	5.833096	-2.058155	7.689526	-0.002007	0.006165	-0.00781	-0.541748	0.083984	-0.090576
453.0	5.801033	-2.079938	7.728324	-0.002274	0.004893	-0.006802	-0.543945	0.081787	-0.094971
454.0	5.839816	-2.083003	7.712426	-0.005034	0.003968	-0.007164	-0.537354	0.086182	-0.092773
455.0	5.820078	-2.067305	7.736479	-0.003067	0.006325	-0.00537	-0.539551	0.082031	-0.099365
456.0	5.839171	-2.082825	7.712963	-0.003649	0.007054	-0.007778	-0.539795	0.088379	-0.094971
457.0	5.819248	-2.095178	7.705545	-0.005292	0.007944	-0.007747	-0.537109	0.079834	-0.097168
458.0	5.838362	-2.054508	7.745252	-0.003648	0.007054	-0.007777	-0.541748	0.081787	-0.092773
459.0	5.824531	-2.090273	7.683089	-0.006353	0.008104	-0.005308	-0.541992	0.090576	-0.101563
460.0	5.818098	-2.066886	7.73808	-0.001477	0.00346	-0.008231	-0.539551	0.082031	-0.094971
461.0	5.83135	-2.087221	7.737474	-0.007791	0.003042	-0.007527	-0.545898	0.081787	-0.090576
462.0	5.831203	-2.087514	7.737507	-0.011077	0.00482	-0.007465	-0.541504	0.079834	-0.092773
463.0	5.811629	-2.100314	7.729699	-0.011979	0.002303	-0.011698	-0.544189	0.088379	-0.092773
464.0	5.825163	-2.093082	7.760354	-0.015272	-0.001167	-0.010047	-0.541748	0.081787	-0.092773
465.0	5.812515	-2.101209	7.72879	-0.012313	-0.011441	-0.010346	-0.541992	0.088379	-0.094971
466.0	5.781062	-2.093568	7.720594	-0.012372	-0.018664	-0.011589	-0.543945	0.086182	-0.090576
467.0	5.82832	-2.064265	7.711283	-0.015988	-0.030631	-0.010174	-0.541748	0.083984	-0.094971
468.0	5.844212	-2.085394	7.708449	-0.017627	-0.029745	-0.010139	-0.543701	0.081787	-0.086426
469.0	5.852704	-2.053161	7.714987	-0.019049	-0.024311	-0.015531	-0.543945	0.086182	-0.097168
470.0	5.848431	-2.086491	7.704952	-0.010665	-0.017584	-0.00878	-0.539795	0.088379	-0.090576
471.0	5.855937	-2.082053	7.680648	-0.012836	-0.013992	-0.00832	-0.546143	0.086182	-0.094971
472.0	5.864168	-2.07965	7.733852	-0.011453	-0.005654	-0.01052	-0.539551	0.086182	-0.092773
473.0	5.851321	-2.08742	7.702506	-0.007581	-0.002911	-0.009766	-0.543945	0.081787	-0.090576
474.0	5.85157	-2.087538	7.702284	-0.008906	0.001223	-0.007907	-0.541748	0.081787	-0.092773
475.0	5.851524	-2.08753	7.702322	-0.003125	0.004352	-0.008192	-0.543945	0.086182	-0.090576
476.0	5.864602	-2.079763	7.733493	-0.005298	0.007944	-0.007732	-0.539551	0.081787	-0.090576
477.0	5.850579	-2.087242	7.703118	-0.002805	0.012848	-0.007951	-0.545898	0.081787	-0.094971
478.0	5.855867	-2.082136	7.680679	-0.002804	0.012848	-0.007951	-0.539551	0.084229	-0.097168
479.0	5.862151	-2.07895	7.735569	0.001334	0.016865	-0.008201	-0.539795	0.088379	-0.090576
480.0	5.867287	-2.073619	7.71331	-0.000311	0.012502	-0.006582	-0.541992	0.088379	-0.090576
481.0	5.854121	-2.11094	7.728746	0.001069	0.015591	-0.007193	-0.541504	0.07959	-0.090576
482.0	5.852021	-2.052241	7.715749	0.0016	0.012887	-0.007619	-0.537354	0.086182	-0.094971
483.0	5.85833	-2.077026	7.73898	-0.001419	0.015934	-0.00856	-0.543945	0.083984	-0.092773
484.0	5.837839	-2.089158	7.732057	0.001386	0.013587	-0.00378	-0.541748	0.083984	-0.090576
485.0	5.842958	-2.083947	7.709791	-0.004487	0.017006	-0.012332	-0.54834	0.088379	-0.09082
486.0	5.867477	-2.066105	7.695417	0.004411	0.015787	-0.004421	-0.539551	0.086182	-0.090576
487.0	5.834648	-2.087979	7.734784	-0.002745	0.014816	-0.005114	-0.543945	0.086182	-0.094971
488.0	5.839669	-2.082792	7.712595	0.00219	0.017403	-0.006792	-0.546143	0.083984	-0.094971
489.0	5.838507	-2.082266	7.713617	0.001924	0.01613	-0.005786	-0.546143	0.086182	-0.092773
490.0	5.850733	-2.074133	7.7455	0.001079	0.015586	-0.007186	-0.541992	0.088379	-0.090576
491.0	5.824	-2.119128	7.730174	-0.001093	0.019174	-0.006726	-0.541748	0.081787	-0.092773
492.0	5.835133	-2.080936	7.716528	-0.001456	0.013954	-0.011386	-0.539551	0.083984	-0.090576
493.0	5.840321	-2.075817	7.694214	-0.004383	0.015699	-0.00508	-0.541504	0.07959	-0.086426
494.0	5.840319	-2.105759	7.740593	0.001661	0.014855	-0.004777	-0.539551	0.082031	-0.094971
495.0	5.857585	-2.062745	7.703851	0.000286	0.017013	-0.005749	-0.539551	0.083984	-0.094971
496.0	5.817416	-2.087426	7.689251	-0.001087	0.019171	-0.006722	-0.543945	0.086182	-0.088623
497.0	5.842669	-2.071872	7.752189	-0.001354	0.017898	-0.005716	-0.541748	0.083984	-0.097168
498.0	5.834237	-2.074389	7.699214	-0.000239	0.019713	-0.005319	-0.543945	0.083984	-0.092773
499.0	5.846196	-2.066316	7.731264	0.002203	0.017396	-0.00678	-0.541748	0.083984	-0.094971
500.0	5.838822	-2.071089	7.755297	-0.007931	0.016193	-0.004011	-0.539551	0.083984	-0.090576
501.0	5.811348	-2.086331	7.694135	-0.001711	0.012677	-0.010375	-0.54834	0.086182	-0.092773
502.0	5.811498	-2.088146	7.77192	-0.003315	0.01029	-0.005931	-0.541748	0.086182	-0.090576
503.0	5.798409	-1.986675	7.944579	-0.025605	-0.006942	-0.001871	-0.541504	0.079834	-0.094971
504.0	5.849061	-2.219363	7.881465	-0.087644	-0.027229	-0.013736	-0.541748	0.086182	-0.092773
505.0	5.868933	-2.181827	7.762841	-0.130008	-0.022045	-0.025899	-0.545898	0.081787	-0.092773
506.0	5.908305	-2.401832	7.774473	-0.171919	-0.025505	-0.046945	-0.543945	0.086182	-0.092773
507.0	5.933419	-2.220835	7.712617	-0.196633	-0.027414	-0.058938	-0.539551	0.082031	-0.097168
508.0	5.925591	-2.243188	7.75179	-0.219433	-0.051929	-0.068503	-0.539795	0.088379	-0.097168
509.0	6.040134	-2.263987	7.564261	-0.22225	-0.054255	-0.06772	-0.550537	0.088379	-0.092773
510.0	6.074256	-2.456932	7.472108	-0.18551	-0.039629	-0.079809	-0.541992	0.090332	-0.088623
511.0	6.280549	-2.558147	7.344397	-0.148485	0.003244	-0.090612	-0.543945	0.081787	-0.092773
512.0	6.51039	-2.376064	7.317811	-0.078805	0.083147	-0.114899	-0.543945	0.086182	-0.092773
513.0	7.208147	-2.312509	6.723008	-0.035019	0.155445	-0.157187	-0.546143	0.084229	-0.099365
514.0	5.408665	-3.373406	8.340514	0.035997	0.206261	-0.161524	-0.537354	0.083984	-0.094971
515.0	5.906642	-2.786756	7.870908	0.106266	0.204769	-0.190157	-0.537354	0.079834	-0.10376
516.0	6.291495	-3.167088	7.722094	0.174353	0.225828	-0.206	-0.534912	0.077637	-0.094971
517.0	6.210902	-2.827796	7.717465	0.279118	0.251203	-0.209455	-0.532715	0.077637	-0.097168
518.0	6.179313	-2.477371	7.729955	0.359897	0.261355	-0.17372	-0.534912	0.077637	-0.101563
519.0	6.198095	-1.941797	7.692417	0.374413	0.237088	-0.094548	-0.532715	0.077637	-0.101563
520.0	6.482402	-2.293549	7.534273	0.350541	0.220253	0.051	-0.530518	0.075684	-0.103516
521.0	7.340743	-2.058319	8.732957	0.314958	0.243004	0.289311	-0.532715	0.075684	-0.101563
522.0	7.125288	-0.593501	8.917554	0.207216	0.477782	0.472467	-0.526367	0.080078	-0.110107
523.0	5.683435	0.541297	8.888366	0.061102	0.560522	0.418497	-0.528564	0.080078	-0.114502
524.0	5.303891	0.037535	8.619749	-0.101444	0.613687	0.344922	-0.522461	0.088867	-0.118896
525.0	5.038628	-1.329572	8.022915	-0.199738	0.595096	0.307578	-0.52002	0.08667	-0.114502
526.0	4.91971	-2.427791	7.673707	-0.207352	0.526387	0.32549	-0.520264	0.093018	-0.118896
527.0	4.862517	-2.757104	7.391531	-0.175105	0.454768	0.342741	-0.518311	0.095215	-0.123291
528.0	4.322435	-2.612928	7.306342	-0.114342	0.371989	0.335546	-0.507324	0.093018	-0.118896
529.0	4.215813	-2.449114	7.358183	-0.066724	0.274264	0.305157	-0.509766	0.097656	-0.127441
530.0	4.479057	-2.222863	7.487793	-0.026114	0.205095	0.249117	-0.51416	0.099609	-0.123291
531.0	4.538374	-2.127073	7.648795	-0.011024	0.142298	0.20643	-0.509766	0.099609	-0.127441
532.0	4.801142	-2.105851	7.753873	0.002469	0.097349	0.173118	-0.509766	0.101807	-0.121094
533.0	4.865246	-1.86372	7.861511	0.015555	0.073357	0.136162	-0.505615	0.104004	-0.127441
534.0	4.800711	-1.529599	7.994647	-0.005552	0.053212	0.092418	-0.505371	0.101807	-0.125488
535.0	4.860514	-1.551921	8.014724	-0.03156	0.030537	0.056399	-0.51001	0.106201	-0.123291
536.0	4.798337	-2.000012	7.744074	-0.052365	-0.005417	0.048523	-0.509766	0.099609	-0.127441
537.0	4.776182	-2.164341	7.67421	-0.034078	-0.054378	0.034868	-0.509766	0.101807	-0.127441
538.0	4.689468	-1.994443	7.701211	-0.019663	-0.093566	0.007588	-0.509766	0.101807	-0.121094
539.0	4.803242	-2.188345	7.795878	-0.003165	-0.136337	-0.020135	-0.516113	0.097412	-0.127441
540.0	5.138117	-2.445594	7.843393	0.015061	-0.168365	-0.036791	-0.507813	0.104004	-0.121094
541.0	5.119149	-2.318194	7.875573	0.040339	-0.182548	-0.055546	-0.512207	0.105957	-0.121094
542.0	5.382287	-2.300833	8.055848	0.059926	-0.208983	-0.065903	-0.509766	0.099609	-0.121094
543.0	5.654726	-2.13321	8.216075	0.052305	-0.195528	-0.061516	-0.518555	0.10376	-0.121094
544.0	5.237346	-2.052087	7.974154	0.04631	-0.183575	-0.067299	-0.516357	0.099609	-0.121094
545.0	5.315619	-2.207787	8.055824	0.056445	-0.20667	-0.074219	-0.518555	0.099609	-0.123291
546.0	6.035875	-2.249016	8.472687	0.045053	-0.197875	-0.067336	-0.518555	0.099609	-0.116699
547.0	6.502027	-2.333766	8.616588	0.021192	-0.118661	-0.044928	-0.522705	0.095215	-0.118896
548.0	5.919363	-2.268996	8.32985	0.011911	-0.053325	-0.024963	-0.518311	0.097168	-0.108154
549.0	5.694914	-2.208406	8.135809	0.008419	-0.031925	-0.015084	-0.520508	0.095215	-0.114502
550.0	5.380147	-2.031652	8.043488	-0.001823	-0.006896	-0.011479	-0.518555	0.099365	-0.114502
551.0	4.969885	-1.800639	7.879618	-0.020208	-0.033555	-0.01573	-0.522949	0.101563	-0.116699
552.0	4.586372	-1.757646	7.578568	-0.046644	-0.08189	-0.021013	-0.522705	0.095215	-0.118896
553.0	3.668123	-1.710007	7.025323	-0.079891	-0.197177	-0.036761	-0.522705	0.099365	-0.112305
554.0	3.011426	-1.593072	6.772584	-0.112645	-0.396272	-0.081424	-0.524902	0.095215	-0.110107
555.0	4.042769	-1.72538	7.11515	-0.204642	-0.585087	-0.099122	-0.524902	0.097168	-0.110107
556.0	3.915109	-1.308079	7.43434	-0.294701	-0.736098	-0.129899	-0.533691	0.101563	-0.105957
557.0	10.20061	-0.023553	11.176526	-0.497315	-0.727585	-0.022651	-0.537842	0.096924	-0.094971
558.0	6.58961	-3.279354	7.804846	-0.618097	-0.177866	0.087445	-0.538086	0.101318	-0.097168
559.0	5.670386	-2.880988	7.891252	-0.413828	-0.26534	0.05202	-0.54248	0.105713	-0.101563
560.0	6.431739	-2.848997	7.885244	-0.387809	-0.214156	0.036677	-0.549072	0.107666	-0.095215
561.0	5.932496	-3.166598	7.70017	-0.287341	-0.215484	0.014345	-0.544922	0.107666	-0.097412
562.0	6.255339	-2.875971	7.65646	-0.236823	-0.2235	0.008075	-0.53833	0.107666	-0.095215
563.0	5.991027	-2.807862	7.60467	-0.183168	-0.211513	-0.000597	-0.54248	0.105469	-0.09082
564.0	5.903204	-2.574549	7.695841	-0.142925	-0.207536	-0.000589	-0.540527	0.109863	-0.093018
565.0	5.802978	-2.575227	7.727745	-0.116019	-0.229994	0.005925	-0.546875	0.103271	-0.084229
566.0	6.022672	-2.566317	7.640212	-0.084627	-0.24633	8.2e-05	-0.544922	0.109863	-0.088623
567.0	5.910859	-2.536943	7.596481	-0.054605	-0.256039	0.002898	-0.540527	0.109863	-0.088623
568.0	5.943186	-2.646185	7.557744	-0.026831	-0.260712	-0.001034	-0.546875	0.105469	-0.088623
569.0	6.020889	-2.579522	7.522043	0.004383	-0.252753	-0.002398	-0.546875	0.107422	-0.082031
570.0	6.06807	-2.721104	7.351445	0.029484	-0.222131	-0.006199	-0.55127	0.107422	-0.082031
571.0	6.064091	-2.701879	7.365211	0.070315	-0.179869	-0.011961	-0.549316	0.109619	-0.080078
572.0	6.038815	-2.664994	7.406583	0.093671	-0.153585	-0.014325	-0.547119	0.111816	-0.077881
573.0	6.025536	-2.561145	7.469064	0.120851	-0.135149	-0.012952	-0.551025	0.103027	-0.075684
574.0	6.101346	-2.48288	7.497774	0.131053	-0.116983	-0.006393	-0.55127	0.105225	-0.077881
575.0	6.073356	-2.32997	7.596588	0.137345	-0.104281	0.007674	-0.553467	0.105469	-0.082031
576.0	6.121347	-2.269019	7.641782	0.147917	-0.098766	0.020662	-0.551514	0.109619	-0.075684
577.0	6.080946	-2.186195	7.799359	0.127358	-0.092648	0.029424	-0.555664	0.109619	-0.077881
578.0	6.042497	-2.267816	7.815892	0.079892	-0.093098	0.032895	-0.557861	0.105225	-0.077881
579.0	5.938016	-2.362461	7.786431	0.041162	-0.111147	0.023673	-0.555908	0.111572	-0.073486
580.0	5.8402	-2.291999	7.871742	0.004578	-0.15321	0.009036	-0.553467	0.109619	-0.077881
581.0	5.792972	-2.311279	7.970614	-0.032895	-0.203069	-0.008219	-0.551514	0.109619	-0.075684
582.0	5.581528	-2.394948	8.215151	-0.107396	-0.279037	-0.050843	-0.560059	0.107422	-0.073486
583.0	5.377206	-2.277885	8.371738	-0.230417	-0.401574	-0.10151	-0.559814	0.103027	-0.066895
584.0	5.497602	-2.577737	8.188388	-0.291997	-0.537442	-0.143137	-0.560303	0.11377	-0.062744
585.0	5.302864	-2.896133	8.507891	-0.179011	-0.660077	-0.152195	-0.56665	0.111572	-0.060547
586.0	5.403912	-2.612702	8.385879	-0.213675	-0.821532	-0.218206	-0.571045	0.109131	-0.056152
587.0	5.259789	-2.954254	8.454412	-0.234901	-1.089531	-0.260965	-0.575439	0.111328	-0.051758
588.0	5.168559	-3.131362	8.504357	-0.18668	-1.382548	-0.3234	-0.575439	0.113281	-0.041016
589.0	5.161372	-3.295762	8.555239	-0.08368	-1.67708	-0.400628	-0.58374	0.106689	-0.028076
590.0	5.309656	-3.432352	8.645683	0.031052	-1.955574	-0.500462	-0.594727	0.106445	-0.015137
591.0	5.602608	-3.634967	8.413658	0.183057	-2.211244	-0.631244	-0.603027	0.099854	-0.00415
592.0	5.71184	-4.372327	8.236267	0.342975	-2.372367	-0.834622	-0.607422	0.097412	0.013184
593.0	5.394641	-3.526397	8.599533	0.508502	-2.509692	-1.078556	-0.620117	0.088623	0.023926
594.0	5.28011	-4.052453	8.730323	0.56629	-2.711573	-1.324172	-0.619629	0.079834	0.043701
595.0	5.10058	-4.059	8.506549	0.584093	-2.97005	-1.636674	-0.63208	0.066406	0.061035
596.0	4.853122	-4.141241	8.321025	0.531783	-3.29498	-2.003075	-0.642578	0.057617	0.086914
597.0	4.539282	-4.088912	8.255485	0.469679	-3.667332	-2.403184	-0.650879	0.044434	0.102295
598.0	4.580311	-4.440066	7.642319	0.429712	-4.07004	-2.879778	-0.654297	0.024658	0.128418
599.0	4.843102	-4.462494	6.81498	0.547542	-4.472842	-3.394677	-0.662109	0.002686	0.160889
600.0	6.450759	-4.31359	5.727069	0.783291	-4.934715	-3.844323	-0.667725	-0.021484	0.199951
601.0	9.422507	-3.680351	5.661493	1.078545	-5.298677	-4.232167	-0.672852	-0.052002	0.228271
602.0	13.665052	-2.391886	6.384009	1.180794	-5.652977	-4.543814	-0.671875	-0.074219	0.269775
603.0	18.182132	-1.048778	7.237516	0.833861	-6.190674	-4.489793	-0.668945	-0.096191	0.306641
604.0	21.260716	-5.09417	7.118489	1.042569	-6.300262	-4.503302	-0.650146	-0.124756	0.352295
605.0	22.388608	-5.388083	6.860451	1.554231	-6.087036	-4.822327	-0.636475	-0.144531	0.38501
606.0	24.033907	-4.205073	8.632908	1.190017	-6.022209	-4.669466	-0.620361	-0.164307	0.421875
607.0	24.418953	-5.540575	9.870604	0.450572	-5.996281	-4.246887	-0.595947	-0.173096	0.45459
608.0	24.778302	-7.517845	12.830392	-0.065705	-5.592465	-3.853046	-0.569824	-0.17334	0.478516
609.0	23.247514	-11.053351	16.732378	-0.492501	-4.474408	-3.316113	-0.543701	-0.173584	0.491455
610.0	12.005021	-21.223252	14.073863	-0.032437	-3.244718	-3.26428	-0.524414	-0.164795	0.49585
611.0	9.22152	-30.011453	4.418852	2.619733	-2.04451	-2.708164	-0.499023	-0.145508	0.506592
612.0	19.589677	-25.148941	14.256813	4.182109	-0.418609	-0.54976	-0.47876	-0.102295	0.495605
613.0	14.960096	-15.369043	19.395004	4.138674	1.645017	1.787897	-0.460938	-0.056885	0.482422
614.0	-0.61718	-12.531547	15.966835	3.695296	2.564036	2.822688	-0.432861	-0.000488	0.458252
615.0	-7.109187	-6.320345	14.998432	3.019431	2.464239	2.745486	-0.397461	0.042725	0.445068
616.0	-3.526044	-2.390372	16.343485	1.932486	2.547726	2.497803	-0.347168	0.090332	0.442871
617.0	0.34022	-0.205004	16.937455	0.64264	3.075131	2.33374	-0.291992	0.129395	0.436279
618.0	1.745511	0.225553	16.294299	-0.680332	3.891625	2.264991	-0.23877	0.159668	0.44043
619.0	2.083369	-0.617833	14.690194	-1.775793	4.742043	2.222243	-0.169678	0.176758	0.475098
620.0	2.212297	-1.714535	12.764952	-2.487631	5.42599	2.134226	-0.115234	0.17627	0.516602
621.0	3.158372	-2.090696	11.384711	-2.895149	5.911408	2.024903	-0.087891	0.147705	0.575195
622.0	4.281919	-2.093941	10.329316	-3.134972	6.232558	2.01802	-0.081543	0.10376	0.63623
623.0	5.716081	-1.996982	9.873814	-3.280473	6.382154	2.136555	-0.103027	0.042725	0.690674
624.0	6.968213	-1.755244	9.46041	-3.346295	6.435243	2.4106	-0.155273	-0.013672	0.721191
625.0	7.226058	-2.109554	8.759265	-3.255458	6.351774	2.746316	-0.222656	-0.074463	0.727783
626.0	7.239751	-2.484958	8.333706	-2.974786	6.104784	3.013812	-0.301758	-0.11084	0.699707
627.0	7.140746	-1.790847	8.48412	-2.586776	5.721726	3.153013	-0.370605	-0.134277	0.660645
628.0	7.719426	-1.406063	9.500049	-2.202033	5.259055	3.13593	-0.435547	-0.146729	0.61084
629.0	9.549512	-0.419494	11.049811	-1.860881	4.806698	2.953145	-0.48584	-0.141846	0.552002
630.0	11.188291	0.862353	11.958059	-1.686382	4.461442	2.74056	-0.523682	-0.128174	0.489014
631.0	12.979392	0.2781	12.514066	-1.580112	4.159402	2.520482	-0.555176	-0.104004	0.434814
632.0	14.90318	-0.171848	12.883109	-1.455904	3.946807	2.366736	-0.562988	-0.072998	0.375977
633.0	14.373982	-0.914376	12.206635	-1.316074	3.760403	2.338786	-0.570557	-0.048584	0.315186
634.0	12.948	-2.073922	11.158821	-1.101495	3.399973	2.325559	-0.565186	-0.02002	0.269531
635.0	12.864056	-3.049375	10.241622	-0.866883	2.873478	2.326624	-0.559814	0.006348	0.226074
636.0	14.605824	-3.691367	9.430041	-0.678262	2.284587	2.484946	-0.542969	0.02002	0.189209
637.0	17.135723	-4.300457	8.572825	-0.539017	1.714608	2.887671	-0.539551	0.039795	0.156738
638.0	19.959111	-4.809897	8.023122	-0.367175	1.211179	3.442038	-0.531494	0.05957	0.130615
639.0	24.315285	-2.749377	9.336921	-0.15435	0.913272	4.071849	-0.523926	0.083496	0.11084
640.0	30.064312	1.49895	11.74253	-0.293359	1.06451	4.81217	-0.518311	0.109619	0.089111
641.0	33.898565	3.092286	10.765585	-0.54382	2.142514	5.481295	-0.502197	0.140137	0.058594
642.0	30.430633	0.846985	6.030498	-0.180739	3.497678	5.592472	-0.486084	0.170898	0.026123
643.0	24.623689	0.338721	1.07516	0.748024	4.47784	4.973407	-0.460938	0.192871	-0.006592
644.0	22.874431	5.337379	-2.024032	1.520572	5.055166	4.00376	-0.430908	0.202148	-0.039063
645.0	21.268024	12.342243	-4.418874	1.37093	5.086168	3.421377	-0.405029	0.209229	-0.080322
646.0	18.546387	16.719082	-7.523971	0.415002	4.367213	3.025626	-0.381836	0.226563	-0.095459
647.0	16.262042	18.255211	-10.342635	-1.041999	3.062433	2.505585	-0.367188	0.241943	-0.110596
648.0	17.513318	15.731752	-11.154592	-2.229027	1.732734	1.789905	-0.352539	0.255127	-0.117188
649.0	18.18162	12.075138	-10.273562	-2.671288	0.799433	0.843761	-0.342529	0.276611	-0.11084
650.0	17.269331	6.860529	-8.552995	-2.332554	0.146345	-0.269311	-0.344727	0.282959	-0.11084
651.0	13.360635	-3.456547	-4.005303	-1.416332	-0.11283	-1.489272	-0.344727	0.276611	-0.115234
652.0	9.146805	0.805076	-12.05532	0.581442	-1.66455	-3.697523	-0.361328	0.259033	-0.102051
653.0	-18.709833	-19.026133	0.130788	1.664898	-4.15062	-5.67818	-0.390137	0.218018	-0.093262
654.0	30.845283	5.006216	11.418955	3.452427	-3.97192	-6.210754	-0.410645	0.18335	-0.077881
655.0	21.280972	1.154604	9.327127	1.504499	-3.820836	-3.356931	-0.434082	0.170166	-0.071533
656.0	9.783018	-9.559174	3.684188	1.613607	-4.392318	-2.504172	-0.444092	0.148193	-0.04541
657.0	20.182366	-4.068943	10.854804	1.564691	-4.672094	-1.780385	-0.462891	0.132813	-0.023682
658.0	19.889215	0.710042	11.634599	1.50127	-4.08046	-1.739647	-0.47998	0.121826	-0.012695
659.0	19.028758	6.048342	17.638865	0.805859	-3.246297	-1.635675	-0.492676	0.11499	0.009033
660.0	13.405102	-0.248856	12.99689	0.424128	-2.745747	-1.40992	-0.498779	0.104004	0.026367
661.0	10.796447	-4.402161	9.424682	0.300586	-2.515323	-1.0479	-0.513672	0.099609	0.030762
662.0	8.781772	-3.362629	9.059158	0.374059	-2.287705	-0.846798	-0.515869	0.097168	0.048096
663.0	9.008272	-2.560006	9.144711	0.323394	-2.12884	-0.708107	-0.526367	0.088623	0.056641
664.0	24.725957	-6.487992	11.619461	0.715709	-1.462092	-1.005661	-0.523926	0.082031	0.058838
665.0	7.790143	-3.039381	6.992226	0.655234	-0.007604	-0.521826	-0.525879	0.073486	0.056885
666.0	6.587001	-2.009547	8.638929	0.661416	-0.111743	-0.55039	-0.525635	0.071289	0.061035
667.0	8.17218	-3.14236	7.759314	0.533138	0.02835	-0.426671	-0.52124	0.071289	0.061035
668.0	6.529456	-2.835795	7.812735	0.498212	0.079516	-0.34688	-0.520996	0.064697	0.06543
669.0	6.745402	-2.541305	7.868385	0.425559	0.08961	-0.305673	-0.527344	0.05835	0.061279
670.0	6.939651	-2.671374	7.518531	0.38406	0.131023	-0.26997	-0.520996	0.0625	0.06543
671.0	7.016903	-2.753877	7.18458	0.357603	0.256048	-0.263484	-0.5271	0.054199	0.056885
672.0	7.20878	-2.921586	7.054688	0.420297	0.444342	-0.289648	-0.518555	0.054199	0.050293
673.0	6.889312	-2.837538	7.449996	0.458428	0.634399	-0.311141	-0.518311	0.047852	0.050537
674.0	6.519367	-3.593565	7.409262	0.563818	0.751844	-0.384007	-0.511719	0.047852	0.050537
675.0	6.751299	-2.624255	7.964772	0.674748	0.855415	-0.436414	-0.517822	0.037109	0.043945
676.0	6.891648	-1.946571	8.510802	0.718305	0.964705	-0.453257	-0.509033	0.034912	0.041748
677.0	6.484583	-2.165342	8.435774	0.735893	0.981693	-0.402125	-0.509277	0.037354	0.028809
678.0	6.561308	-2.007108	8.694097	0.581689	0.996505	-0.208042	-0.498047	0.028809	0.031006
679.0	5.201544	-1.365017	8.223766	0.486413	0.907783	-0.145016	-0.502197	0.026611	0.026611
680.0	4.778169	-1.434685	8.053154	0.366124	0.779284	-0.109761	-0.502197	0.022461	0.018066
681.0	4.43365	-1.626537	7.695603	0.279601	0.631874	-0.094277	-0.495605	0.024658	0.013672
682.0	4.53544	-1.528	7.700039	0.226669	0.488111	-0.085777	-0.491211	0.020508	0.011719
683.0	4.491813	-1.405789	7.680164	0.183347	0.387696	-0.074272	-0.495605	0.022461	0.013672
684.0	3.459853	-1.73263	7.135519	0.140784	0.257034	-0.094298	-0.489014	0.022461	0.013672
685.0	2.957051	-2.238368	6.489913	0.133721	0.033583	-0.129167	-0.490967	0.018311	0.011719
686.0	2.954349	-2.188539	6.234045	0.164887	-0.194879	-0.171516	-0.495117	0.013916	0.020264
687.0	1.606867	-2.009047	5.41076	0.237401	-0.479869	-0.245622	-0.501953	0.018311	0.013672
688.0	6.450162	1.276886	10.18458	0.286039	-0.957623	-0.218531	-0.493164	0.015869	0.029053
689.0	7.739345	0.415203	9.676657	-0.459453	-0.137094	0.156435	-0.501953	0.018066	0.024658
690.0	5.443279	-5.034343	8.159939	-0.33004	-0.240353	0.184875	-0.499756	0.020264	0.026855
691.0	5.59481	-1.669552	8.623205	-0.19581	-0.230851	0.192452	-0.502197	0.022461	0.020264
692.0	6.349455	-3.180517	8.079234	-0.242129	-0.284939	0.186616	-0.502197	0.024414	0.024658
693.0	5.803655	-1.854019	8.052669	-0.28755	-0.354861	0.163614	-0.504395	0.024414	0.024658
694.0	5.879236	-2.554289	8.006703	-0.331193	-0.418716	0.135578	-0.506836	0.030762	0.028809
695.0	5.984424	-2.151694	8.429544	-0.295174	-0.483096	0.10678	-0.508789	0.026611	0.033203
696.0	6.298941	-2.51268	8.192762	-0.320827	-0.588752	0.10058	-0.51123	0.032959	0.039795
697.0	6.383952	-2.441643	8.219155	-0.301188	-0.666499	0.091561	-0.513184	0.030762	0.039795
698.0	6.361437	-2.648377	7.897207	-0.264061	-0.673582	0.075107	-0.51123	0.032715	0.043945
699.0	6.264757	-2.473503	7.711876	-0.253071	-0.634978	0.053725	-0.513184	0.030518	0.046143
700.0	6.315656	-2.903524	7.511737	-0.236993	-0.559576	0.010885	-0.52002	0.037109	0.04834
701.0	6.210679	-2.856073	7.370661	-0.208531	-0.480969	-0.027115	-0.517822	0.034912	0.050537
702.0	6.142957	-2.893663	7.436832	-0.144594	-0.403865	-0.071984	-0.518066	0.04126	0.052734
703.0	6.042397	-2.999516	7.642501	-0.115258	-0.367229	-0.124054	-0.521973	0.032715	0.052734
704.0	5.7227	-2.561634	8.028995	-0.135436	-0.391663	-0.180442	-0.52417	0.034668	0.054932
705.0	5.411899	-1.968101	8.613729	-0.226291	-0.529216	-0.222444	-0.524414	0.036865	0.063477
706.0	5.07834	-2.033165	9.039234	-0.219274	-0.678399	-0.22968	-0.52417	0.034668	0.065674
707.0	5.296721	-2.603916	8.833179	-0.376157	-0.98336	-0.278019	-0.52417	0.032471	0.072266
708.0	5.043037	-2.29267	9.324671	-0.4688	-1.222684	-0.326069	-0.532715	0.032227	0.078613
709.0	4.922593	-2.694052	9.359246	-0.559731	-1.609243	-0.406396	-0.534912	0.027832	0.085205
710.0	4.5808	-3.573111	8.97469	-0.495635	-2.081207	-0.510363	-0.541504	0.029785	0.102539
711.0	4.489172	-3.709948	8.937368	-0.292918	-2.527811	-0.635282	-0.545654	0.025391	0.113281
712.0	4.908314	-3.741674	8.737817	-0.077819	-2.912177	-0.771384	-0.547607	0.024902	0.137207
713.0	5.272502	-3.844212	8.488712	0.073436	-3.173669	-0.975019	-0.556152	0.022705	0.145752
714.0	5.159415	-3.654073	8.69226	0.150168	-3.35084	-1.213907	-0.557861	0.011475	0.171875
715.0	4.584062	-3.743923	8.851557	0.133391	-3.601514	-1.500069	-0.563965	0.000488	0.193604
716.0	4.584944	-4.527173	8.244925	0.164172	-3.90389	-1.848246	-0.563477	-0.014893	0.217529
717.0	4.450671	-5.924052	6.956687	0.224855	-4.155733	-2.362019	-0.571533	-0.030273	0.237061
718.0	4.060006	-5.608818	6.733935	0.356111	-4.562529	-2.945494	-0.562012	-0.050049	0.269775
719.0	5.116011	-5.56634	6.005015	0.647703	-5.020857	-3.482472	-0.556641	-0.069824	0.304443
720.0	6.64602	-5.825617	5.574324	0.98187	-5.472023	-4.032777	-0.549072	-0.096191	0.334961
721.0	9.059911	-5.592336	5.574977	1.308248	-5.954129	-4.550471	-0.543701	-0.118164	0.369873
722.0	14.035155	-4.806627	5.868078	1.441107	-6.441112	-5.011563	-0.5271	-0.150879	0.411133
723.0	22.154815	-2.651495	6.547142	1.284546	-6.874781	-5.160596	-0.50415	-0.179199	0.448242
724.0	22.263039	-3.319377	8.163249	0.83388	-7.278517	-5.075527	-0.477051	-0.205322	0.483154
725.0	29.884814	-7.78089	8.786911	1.225526	-7.263025	-5.307072	-0.447754	-0.227295	0.524414
726.0	34.92573	-7.215462	11.739037	1.298625	-6.772337	-5.305703	-0.410156	-0.244873	0.554932
727.0	33.19208	-8.688845	14.990891	0.515758	-6.377369	-4.479407	-0.382813	-0.270752	0.578857
728.0	30.070705	-12.826406	21.605581	-0.572238	-5.466073	-3.483081	-0.354248	-0.279541	0.589844
729.0	15.952139	-21.980283	20.472923	-0.446714	-4.050068	-3.316638	-0.325195	-0.294678	0.603027
730.0	1.985705	-34.734222	3.898372	2.323402	-3.037493	-3.197647	-0.301514	-0.290283	0.61377
731.0	23.799588	-25.040396	18.696988	4.422494	-1.378072	-0.963267	-0.29541	-0.279785	0.626709
732.0	18.240765	-12.500781	24.545454	3.668606	1.154336	1.7515	-0.293945	-0.262695	0.626709
733.0	-3.365824	-11.066668	18.166395	2.771216	1.695877	2.60076	-0.291992	-0.251709	0.620117
734.0	-4.265252	-5.178037	17.059891	1.886619	1.420569	2.370292	-0.294678	-0.23877	0.61792
735.0	1.158317	-3.116754	17.651717	0.896668	1.849193	2.121647	-0.297119	-0.234375	0.613525
736.0	2.519143	-1.629154	16.860589	-0.120362	2.790848	1.977253	-0.297607	-0.225586	0.602783
737.0	2.031135	-1.763164	14.796227	-1.000268	3.877664	1.875156	-0.30835	-0.229736	0.581055
738.0	0.906189	-2.207432	12.239423	-1.593793	4.77782	1.704715	-0.315186	-0.220947	0.561523
739.0	-0.059097	-2.096548	9.979119	-1.966247	5.304551	1.49171	-0.325928	-0.227295	0.552734
740.0	0.860711	-1.390723	8.738353	-2.266469	5.543063	1.374127	-0.334473	-0.231201	0.53125
741.0	2.482006	-1.032372	8.152521	-2.567169	5.656477	1.440753	-0.35376	-0.237549	0.505127
742.0	3.757907	-1.212536	7.687936	-2.798724	5.711278	1.674005	-0.365234	-0.226563	0.487793
743.0	5.110027	-2.043928	7.509418	-2.88239	5.755516	2.000002	-0.387207	-0.219727	0.457275
744.0	6.193406	-3.394465	7.378451	-2.688193	5.806854	2.342518	-0.405518	-0.199951	0.426758
745.0	6.719359	-4.05979	7.552914	-2.254524	5.834182	2.60084	-0.417725	-0.171631	0.387695
746.0	7.107654	-3.075675	8.213797	-1.801412	5.807748	2.730991	-0.406738	-0.117188	0.352783
747.0	7.956217	-1.177547	9.272567	-1.567214	5.767878	2.769864	-0.358887	-0.060791	0.326416
748.0	9.07664	0.372286	10.394757	-1.607143	5.697174	2.736274	-0.286621	-0.015625	0.341553
749.0	10.424774	1.527939	11.558599	-1.828039	5.615527	2.631173	-0.228271	-0.001221	0.404541
750.0	12.154541	0.790021	11.532518	-2.054897	5.54539	2.427935	-0.194824	-0.01709	0.480469
751.0	13.6678	1.462137	11.398287	-2.236874	5.410516	2.128663	-0.213135	-0.048096	0.54126
752.0	14.165514	0.871717	10.61982	-2.475358	5.128136	1.956402	-0.238525	-0.065918	0.575928
753.0	12.737616	-0.300038	9.672263	-2.516894	4.534183	1.871573	-0.272461	-0.085693	0.597656
754.0	12.30041	-1.967209	9.341492	-2.422281	3.699716	1.988757	-0.309326	-0.088135	0.617188
755.0	13.634475	-4.441562	9.46444	-2.161415	2.765635	2.368255	-0.352783	-0.09082	0.634521
756.0	17.659178	-6.677431	9.546775	-1.708455	1.854059	3.019343	-0.394531	-0.080566	0.651611
757.0	22.938814	-7.912792	10.183943	-1.032968	1.149251	3.931007	-0.460205	-0.069824	0.64502
758.0	30.647138	-5.760285	12.860697	-0.307058	0.851065	5.018475	-0.533447	-0.03125	0.629395
759.0	36.591796	-0.298875	15.146169	0.141343	1.245151	6.149054	-0.608154	0.033936	0.561768
760.0	39.481399	0.958337	13.139566	0.437848	2.547867	6.877425	-0.644043	0.116699	0.485596
761.0	37.332036	0.082308	7.216269	1.23645	4.217348	6.69115	-0.654297	0.204346	0.365967
762.0	31.310136	1.469933	0.080065	2.37026	5.480747	5.803884	-0.626465	0.270508	0.255127
763.0	30.7725	8.753507	-4.794929	2.987552	6.085552	4.805995	-0.561035	0.316895	0.177002
764.0	28.306751	21.06565	-8.26994	2.287159	5.873996	4.043257	-0.505615	0.345947	0.114014
765.0	24.5124	32.695774	-13.529607	-0.163041	4.820936	3.534311	-0.45459	0.372314	0.087891
766.0	19.199708	29.156583	-19.211947	-3.16863	2.773418	2.711939	-0.413818	0.389648	0.090088
767.0	17.709607	18.85899	-18.68878	-4.577118	0.941415	1.189436	-0.392578	0.404541	0.109619
768.0	17.064822	6.36547	-21.607333	-2.673885	-0.933803	-1.318184	-0.375244	0.408447	0.139893
769.0	19.456895	-13.301023	-27.969021	0.555234	-3.262836	-4.162287	-0.378418	0.380127	0.163818
770.0	-1.617481	6.913036	-3.683787	3.497177	-4.307388	-6.766229	-0.370605	0.349609	0.203125
771.0	33.076008	3.476432	21.29298	3.473791	-4.614943	-6.220609	-0.361084	0.32959	0.242188
772.0	25.781373	-3.169991	7.795014	1.805095	-3.622473	-2.96765	-0.338867	0.316406	0.268311
773.0	8.573674	-10.752361	3.202752	1.926025	-4.548701	-1.850396	-0.323242	0.311768	0.30957
774.0	24.789628	-3.347433	11.705645	2.030867	-4.673666	-1.353717	-0.29248	0.304932	0.348633
775.0	22.46273	6.954811	13.20805	1.804789	-3.691358	-1.503817	-0.270752	0.306885	0.372559
776.0	14.470458	11.789852	20.651901	1.110792	-2.695832	-2.039032	-0.259521	0.297852	0.396484
777.0	9.620473	-3.797702	8.899721	0.780861	-2.341511	-1.771177	-0.241943	0.29541	0.418213
778.0	8.96506	-4.338671	8.49471	1.176777	-2.477012	-1.508202	-0.22876	0.29541	0.43335
779.0	17.079009	3.476689	14.943755	1.261365	-2.062911	-1.506286	-0.216064	0.301758	0.444092
780.0	22.207514	-4.760657	12.877403	0.724767	0.858437	-0.593956	-0.207275	0.299561	0.439941
781.0	11.038185	-2.766783	9.554243	1.020936	0.313511	-0.464877	-0.213623	0.299561	0.437744
782.0	5.365756	1.407248	9.394793	0.44107	0.395767	-0.147672	-0.213867	0.306152	0.431152
783.0	5.780276	-2.23504	8.295746	0.177247	0.095083	-0.014644	-0.207275	0.299805	0.43335
784.0	5.474398	-0.883486	8.405984	0.022583	-0.089219	0.069908	-0.205322	0.306152	0.441895
785.0	5.768882	-2.342427	7.949913	-0.042516	-0.192159	0.116285	-0.20752	0.310303	0.439697
786.0	5.615789	-2.012169	7.762247	-0.103333	-0.29046	0.154884	-0.203125	0.30835	0.437744
787.0	5.792598	-2.100062	7.69808	-0.198612	-0.394905	0.192307	-0.20752	0.310303	0.441895
788.0	6.055891	-2.797557	7.733616	-0.272767	-0.409433	0.206073	-0.203125	0.308105	0.441895
789.0	5.96626	-2.417518	7.930342	-0.278131	-0.348635	0.19106	-0.205322	0.310303	0.444092
790.0	6.119257	-2.77759	7.560158	-0.275051	-0.299835	0.153413	-0.201172	0.316895	0.446289
791.0	6.156245	-2.876965	7.48502	-0.208143	-0.265147	0.104419	-0.196777	0.310303	0.448486
792.0	6.201025	-3.247314	7.748205	-0.130413	-0.194603	0.053533	-0.194824	0.318848	0.448486
793.0	6.337549	-2.885353	7.565117	-0.070289	-0.135085	0.006051	-0.198975	0.310303	0.448486
794.0	6.306635	-3.096991	7.332485	0.006891	-0.059936	-0.037049	-0.194824	0.319092	0.441895
795.0	6.26563	-2.818607	7.24222	0.080809	0.013081	-0.065191	-0.200928	0.310303	0.448486
796.0	6.210968	-2.507297	7.357103	0.125546	0.043993	-0.068143	-0.201172	0.314697	0.448486
797.0	6.110661	-2.565321	7.335836	0.126215	0.060042	-0.064966	-0.197021	0.31665	0.450684
798.0	6.086076	-2.374805	7.326084	0.124733	0.07918	-0.065527	-0.194824	0.321045	0.448486
799.0	6.056522	-2.293357	7.308569	0.121005	0.100906	-0.064718	-0.194824	0.316895	0.448486
800.0	5.992739	-2.225254	7.333916	0.131709	0.12013	-0.055098	-0.198975	0.314453	0.452881
801.0	5.651202	-1.919106	7.787595	0.132295	0.082367	-0.03187	-0.198975	0.31665	0.454834
802.0	5.845323	-2.143042	7.770916	0.099898	-0.027428	-0.006543	-0.192383	0.3125	0.448486
803.0	5.562753	-1.901346	8.144499	0.125264	-0.120704	0.000155	-0.194824	0.321045	0.446289
804.0	5.871109	-1.852117	7.881469	0.041799	-0.202624	0.012273	-0.192627	0.31665	0.450684
805.0	5.78011	-1.92744	7.888621	-0.02469	-0.257769	0.022505	-0.192627	0.321045	0.448486
806.0	5.77459	-1.999548	7.884502	-0.089374	-0.341569	0.036642	-0.19043	0.318848	0.450684
807.0	5.845551	-2.072433	7.914488	-0.179015	-0.435391	0.041501	-0.19043	0.318848	0.448486
808.0	5.992869	-2.625782	7.971834	-0.22144	-0.455547	0.014582	-0.197021	0.321045	0.454834
809.0	5.935192	-2.685664	7.841819	-0.200431	-0.428277	-0.055031	-0.194824	0.31665	0.457031
810.0	5.935331	-2.660979	7.779728	-0.225598	-0.459045	-0.112345	-0.192627	0.31665	0.461426
811.0	5.709931	-2.549382	7.824967	-0.241569	-0.511782	-0.151518	-0.194824	0.318848	0.457031
812.0	5.394251	-2.469027	8.474097	-0.117521	-0.554915	-0.181744	-0.19458	0.312256	0.470215
813.0	5.797732	-3.01197	8.010387	-0.158982	-0.694565	-0.257757	-0.192383	0.314453	0.468018
814.0	5.563962	-2.827192	8.342108	-0.207176	-0.871885	-0.312152	-0.192383	0.314209	0.472412
815.0	5.315313	-2.985543	8.431939	-0.236545	-1.123757	-0.38346	-0.200928	0.312012	0.483154
816.0	5.09061	-2.905372	8.680348	-0.195074	-1.467528	-0.446079	-0.194336	0.309814	0.491943
817.0	5.050654	-2.96517	8.804194	-0.109011	-1.840526	-0.506117	-0.19165	0.296875	0.496338
818.0	5.31848	-3.201616	8.660195	0.015794	-2.181778	-0.587297	-0.196045	0.294434	0.511475
819.0	5.540012	-2.998121	8.550903	0.112248	-2.465429	-0.698596	-0.193848	0.294434	0.517822
820.0	5.694129	-2.911543	8.554413	0.177969	-2.664229	-0.823004	-0.186768	0.285645	0.533203
821.0	5.501326	-3.432595	8.503059	0.231171	-2.81686	-1.008303	-0.186768	0.283203	0.546143
822.0	5.261372	-3.47002	8.526965	0.244206	-3.034414	-1.237456	-0.186035	0.27002	0.567871
823.0	4.955278	-3.671886	8.573558	0.211901	-3.318882	-1.509292	-0.179443	0.263428	0.583008
824.0	4.417671	-3.763561	8.488585	0.179635	-3.669085	-1.861237	-0.176514	0.250244	0.600586
825.0	3.668641	-4.227843	8.510124	0.15672	-4.132063	-2.284333	-0.169189	0.230469	0.626709
826.0	3.960343	-4.911075	7.079219	0.238164	-4.67139	-2.771448	-0.15332	0.215088	0.652832
827.0	4.340369	-4.876969	6.97801	0.472315	-5.253456	-3.314292	-0.143799	0.191162	0.681152
828.0	5.140998	-4.698	7.466358	0.766742	-5.989195	-3.833363	-0.117188	0.180176	0.709473
829.0	7.605471	-4.946204	7.568653	1.017615	-6.81652	-4.350345	-0.094238	0.151855	0.746338
830.0	14.732649	-3.876841	7.39857	1.105209	-7.724111	-4.793036	-0.060791	0.134277	0.774658
831.0	26.472019	-2.340118	7.224987	0.90096	-8.436034	-4.755423	-0.031006	0.097412	0.807373
832.0	26.949185	-1.019812	8.648283	0.510017	-8.736839	-4.4911	0.000488	0.071533	0.827148
833.0	32.383006	-2.446868	11.83354	0.163464	-8.85944	-4.095334	0.026367	0.028076	0.849121
834.0	35.224794	-7.851061	12.313867	0.189489	-8.291828	-3.802536	0.03418	-0.006348	0.85791
835.0	32.235041	-8.921769	18.748752	-0.251299	-7.383145	-3.297028	0.047119	-0.060059	0.866943
836.0	27.27067	-12.365557	25.220995	-0.908274	-5.618223	-2.587886	0.045166	-0.120605	0.873779
837.0	7.748046	-18.789137	23.396024	-0.833532	-3.49053	-2.447661	0.031738	-0.165771	0.878174
838.0	-0.85516	-21.992156	13.210233	0.912406	-1.63316	-2.829176	0.015625	-0.202637	0.88501
839.0	19.471174	-14.547732	26.775628	1.034129	0.26111	-1.503675	-0.013184	-0.243652	0.889404
840.0	10.984785	-12.343931	23.396226	0.100104	2.878384	0.42892	-0.05542	-0.280029	0.874268
841.0	-5.360144	-12.958954	14.828481	-0.346222	3.391281	1.083229	-0.108398	-0.318848	0.861328
842.0	-5.695622	-8.409369	12.733103	-0.570003	3.11426	1.045263	-0.153076	-0.342529	0.846191
843.0	-1.450407	-5.637394	12.244099	-1.0293	3.131762	1.159191	-0.193115	-0.381104	0.820313
844.0	1.970184	-5.2434	11.240641	-1.505082	3.477804	1.427418	-0.242432	-0.402344	0.785645
845.0	3.937953	-4.903224	10.192521	-1.848677	4.082747	1.795292	-0.291504	-0.427734	0.746826
846.0	5.268236	-4.555583	9.118611	-2.062289	4.811421	2.219662	-0.341064	-0.442139	0.694824
847.0	5.869273	-3.967569	8.067681	-2.158961	5.47076	2.629713	-0.393311	-0.450439	0.642578
848.0	5.604639	-3.66354	7.20587	-2.135672	5.898346	2.972132	-0.437012	-0.445557	0.588379
849.0	5.508267	-3.38337	7.011841	-2.006523	6.072015	3.183536	-0.475098	-0.42334	0.531982
850.0	6.610161	-2.626209	7.461232	-1.835102	6.130283	3.287891	-0.512695	-0.407471	0.470947
851.0	7.723418	-1.748375	7.914697	-1.753487	6.23074	3.359681	-0.533691	-0.378906	0.414551
852.0	8.165283	-1.249062	8.090461	-1.743763	6.302774	3.34896	-0.550293	-0.345947	0.364502
853.0	8.629442	-1.016391	8.369598	-1.7521	6.318441	3.223845	-0.558105	-0.311035	0.325195
854.0	9.471475	-0.515043	8.816756	-1.781202	6.276567	3.013197	-0.566162	-0.276123	0.281738
855.0	10.578252	0.200688	9.451791	-1.896815	6.171322	2.772939	-0.563232	-0.241211	0.251221
856.0	11.243846	0.932882	10.016065	-2.108435	5.962066	2.546471	-0.555664	-0.214844	0.216309
857.0	12.465953	1.558292	10.409258	-2.390067	5.663556	2.318484	-0.556885	-0.186523	0.190186
858.0	13.13754	1.632859	10.230387	-2.668347	5.308665	2.107157	-0.553467	-0.162598	0.159912
859.0	13.634389	1.037623	10.208901	-2.876196	4.821087	1.953034	-0.55249	-0.129883	0.135742
860.0	15.028421	0.798142	10.645659	-3.006095	4.263371	1.912447	-0.555664	-0.104004	0.124756
861.0	16.582095	0.34224	10.763365	-3.093047	3.771861	2.072642	-0.541504	-0.077881	0.107422
862.0	16.821221	-1.24948	10.222068	-3.018686	3.31398	2.312287	-0.546631	-0.05835	0.096436
863.0	16.543462	-2.699335	9.646076	-2.693903	2.840336	2.545333	-0.552002	-0.034668	0.087646
864.0	17.150078	-3.497312	9.147026	-2.213268	2.359756	2.731609	-0.554932	-0.017334	0.07666
865.0	19.670937	-3.905597	9.359234	-1.666077	2.03773	2.961841	-0.560303	0.008545	0.074463
866.0	22.814207	-4.692192	9.565356	-1.068809	1.958163	3.33658	-0.56543	0.028076	0.063477
867.0	25.355656	-5.119828	9.367583	-0.416817	2.147883	3.831318	-0.572754	0.051758	0.056885
868.0	26.351078	-3.515084	8.500183	0.241682	2.508106	4.428787	-0.572021	0.088623	0.034912
869.0	25.438883	1.102505	7.883564	0.751193	2.804439	5.127251	-0.577637	0.118896	0.015381
870.0	23.563151	1.270036	3.466841	1.028662	3.096792	5.674314	-0.572754	0.157959	-0.002197
871.0	21.96792	-1.050863	-1.400921	1.80497	3.152739	5.509587	-0.560791	0.184082	-0.026123
872.0	24.389312	2.475059	-4.57297	2.70023	3.070747	4.834356	-0.54834	0.20166	-0.050049
873.0	24.418143	13.007304	-6.118882	2.747901	2.87371	4.340716	-0.540527	0.223633	-0.073975
874.0	18.745794	21.631319	-8.156031	1.510611	2.033499	4.069613	-0.526367	0.247314	-0.078369
875.0	15.623674	22.568122	-9.123241	-0.541655	0.63472	3.42804	-0.5271	0.266846	-0.083008
876.0	15.448807	18.165694	-8.964098	-2.15134	-0.542078	2.354463	-0.521729	0.298828	-0.067871
877.0	15.770248	10.51423	-7.616948	-2.752148	-1.44127	0.989668	-0.541992	0.315918	-0.063721
878.0	17.605081	3.800416	-4.963976	-2.520648	-1.731516	-0.5485	-0.548584	0.322021	-0.039795
879.0	17.892745	-8.313851	0.815042	-1.041924	-1.434983	-1.997335	-0.56543	0.308838	-0.026855
880.0	12.526613	-6.367651	-9.789343	0.80541	-2.395707	-3.44567	-0.57959	0.280762	-0.013672
881.0	-5.222819	-11.372208	2.389664	2.439083	-3.307988	-4.712223	-0.61084	0.243896	0.003662
882.0	13.776035	-3.581518	11.738884	3.725953	-3.444609	-5.149655	-0.626465	0.196045	0.025635
883.0	22.01964	10.548208	10.851593	2.13868	-3.54452	-3.054351	-0.641113	0.182861	0.045166
884.0	12.232325	-6.308801	9.121753	1.455735	-3.661906	-1.648503	-0.65332	0.165283	0.077881
885.0	13.862931	-0.051171	10.869567	1.633395	-3.552685	-1.784396	-0.667969	0.147461	0.101563
886.0	13.83147	2.627355	11.187455	1.338567	-3.104475	-1.92586	-0.673584	0.130127	0.121338
887.0	16.36839	5.394445	12.612333	0.984269	-2.622277	-2.408753	-0.681641	0.110352	0.143066
888.0	11.045397	-2.297889	10.653188	0.45786	-2.44115	-1.893817	-0.685547	0.099365	0.1604
889.0	9.246709	-3.749859	8.759094	0.762757	-2.511883	-1.784801	-0.691162	0.077637	0.177734
890.0	9.382926	-1.405018	10.089673	0.779463	-2.363106	-1.586185	-0.697266	0.070801	0.199463
891.0	17.427498	-6.80237	13.339454	0.8606	-2.141025	-1.671131	-0.69873	0.053467	0.206055
892.0	22.060997	-5.522616	8.07428	1.55914	0.639098	-0.902073	-0.696533	0.049316	0.206055
893.0	8.719909	2.112314	12.749858	1.425844	0.13137	-0.780338	-0.700439	0.03833	0.208496
894.0	8.499695	-2.466405	8.690169	1.058302	0.513851	-0.538935	-0.693848	0.03418	0.204102
895.0	6.887501	-1.807898	8.720293	0.795702	0.456971	-0.355524	-0.695801	0.030029	0.199707
896.0	6.452611	-2.451442	8.490007	0.571466	0.341134	-0.245364	-0.697998	0.030029	0.19751
897.0	6.144558	-1.645089	8.32794	0.479446	0.267535	-0.201134	-0.697998	0.028076	0.186768
898.0	6.057197	-2.157681	8.210952	0.37939	0.189746	-0.166598	-0.693604	0.027832	0.199707
899.0	6.085755	-1.843927	7.929201	0.365448	0.128774	-0.161964	-0.688965	0.023682	0.197754
900.0	6.127169	-1.824616	7.725704	0.321811	0.095555	-0.161281	-0.688965	0.025635	0.19751
901.0	5.898156	-1.758392	7.855479	0.284109	0.093378	-0.151334	-0.690918	0.014893	0.195557
902.0	5.58806	-1.635698	7.864327	0.238743	0.095011	-0.122791	-0.690918	0.01709	0.195557
903.0	5.409133	-2.24886	7.837493	0.17124	0.138031	-0.080739	-0.695313	0.019287	0.195557
904.0	5.427679	-1.75862	7.784952	0.143318	0.158845	-0.045703	-0.690918	0.019287	0.191162
905.0	5.407985	-1.738555	7.617143	0.079842	0.181687	-0.00574	-0.693359	0.023682	0.193359
906.0	5.360292	-1.552825	7.706151	0.058573	0.189701	0.027251	-0.682373	0.021484	0.188965
907.0	5.282844	-1.656068	7.819561	0.048208	0.168564	0.055652	-0.693115	0.017334	0.188965
908.0	5.314327	-1.68314	7.914404	0.010357	0.109189	0.073775	-0.686768	0.023682	0.18457
909.0	5.297881	-1.612461	7.917626	-0.041426	-0.023473	0.091988	-0.691162	0.023682	0.195557
910.0	5.306923	-1.513612	7.895258	-0.107456	-0.119314	0.121672	-0.686768	0.023682	0.197754
911.0	5.256191	-1.012045	7.949146	-0.184741	-0.215198	0.156592	-0.695313	0.019287	0.195557
912.0	5.210932	-0.491123	8.051464	-0.304993	-0.294838	0.214257	-0.697754	0.027832	0.19751
913.0	5.515122	-1.858633	8.124574	-0.391467	-0.351787	0.250956	-0.695557	0.023438	0.19751
914.0	5.819139	-2.383997	8.264033	-0.384633	-0.448945	0.236483	-0.697998	0.032227	0.19751
915.0	6.068536	-2.69182	7.959974	-0.340419	-0.555376	0.200835	-0.695557	0.027832	0.204102
916.0	6.162574	-2.566261	7.94153	-0.305665	-0.609823	0.165069	-0.693604	0.031982	0.212646
917.0	6.22108	-2.699002	7.918373	-0.275269	-0.588752	0.1426	-0.702637	0.03833	0.212646
918.0	6.218781	-2.702655	7.690119	-0.272197	-0.545698	0.110665	-0.698242	0.040527	0.219238
919.0	6.118186	-2.66058	7.622686	-0.266567	-0.487652	0.079186	-0.700439	0.040283	0.223633
920.0	6.184311	-2.724229	7.541087	-0.24924	-0.447426	0.049089	-0.696045	0.038086	0.22998
921.0	6.104639	-2.717367	7.45888	-0.227815	-0.417407	0.017988	-0.697998	0.036133	0.22583
922.0	6.125389	-2.573333	7.589931	-0.219811	-0.416419	-0.011321	-0.700684	0.044434	0.236572
923.0	6.041836	-2.48151	7.591671	-0.22387	-0.438578	-0.030163	-0.702637	0.040283	0.232178
924.0	5.92611	-2.267924	7.821785	-0.237058	-0.485115	-0.054965	-0.702637	0.038086	0.236572
925.0	5.894819	-2.318491	7.916301	-0.282601	-0.558035	-0.074725	-0.702637	0.042236	0.240967
926.0	5.702261	-2.020866	8.229015	-0.336258	-0.673743	-0.09032	-0.702637	0.040039	0.247314
927.0	5.64854	-2.267357	8.40677	-0.444458	-0.839007	-0.123203	-0.702393	0.035645	0.256104
928.0	5.63588	-2.532199	8.275632	-0.489141	-1.011875	-0.157462	-0.708984	0.037598	0.260498
929.0	4.733298	-1.90344	9.243012	-0.427285	-1.220414	-0.184059	-0.710938	0.0354	0.275635
930.0	5.16833	-2.354532	8.943607	-0.580012	-1.564596	-0.241666	-0.70874	0.030762	0.290771
931.0	4.996735	-2.087111	9.200185	-0.640227	-1.912316	-0.256646	-0.70874	0.032959	0.292969
932.0	5.080809	-2.512803	9.041114	-0.65264	-2.280392	-0.26371	-0.717529	0.034668	0.318848
933.0	5.14089	-3.273562	8.683677	-0.590809	-2.647165	-0.288332	-0.719482	0.032227	0.340576
934.0	5.188271	-3.952361	8.314602	-0.410429	-2.934734	-0.384888	-0.712646	0.023438	0.355713
935.0	5.246945	-4.462949	7.85872	-0.20661	-3.23087	-0.548346	-0.712402	0.018799	0.38623
936.0	5.210936	-4.480526	7.588718	-0.066145	-3.528517	-0.751235	-0.710205	0.018311	0.414307
937.0	5.434492	-4.063911	7.028031	-0.022642	-3.796744	-0.997642	-0.70752	0.011475	0.44043
938.0	5.151987	-3.897662	7.287002	0.016378	-4.118937	-1.266209	-0.700684	0.002441	0.477295
939.0	4.978711	-3.789963	7.176618	0.035915	-4.508483	-1.544075	-0.697754	-0.015137	0.507813
940.0	4.74666	-4.485609	6.579712	0.153052	-4.973772	-1.85611	-0.681885	-0.030762	0.55127
941.0	4.857615	-5.548925	5.48226	0.250229	-5.451362	-2.304253	-0.674561	-0.044189	0.594727
942.0	5.55972	-4.919907	5.632289	0.384902	-6.015687	-2.802148	-0.6521	-0.059814	0.633789
943.0	8.273973	-5.065441	4.933714	0.530828	-6.519051	-3.25407	-0.627197	-0.081787	0.688232
944.0	12.763662	-5.24571	5.020702	0.558529	-6.857225	-3.685013	-0.597656	-0.110352	0.740234
945.0	19.919788	-5.22219	5.120849	0.397033	-7.014963	-4.070386	-0.562012	-0.128174	0.785889
946.0	24.401249	-4.774347	5.518743	0.156351	-7.044015	-4.282855	-0.526123	-0.158691	0.82959
947.0	25.080056	-3.592333	7.72058	0.066103	-7.19618	-4.42987	-0.483398	-0.187012	0.866699
948.0	30.804864	-6.487847	7.985564	0.229202	-7.022491	-4.543443	-0.432861	-0.197998	0.901367
949.0	31.444857	-9.112776	11.472729	0.218382	-6.762806	-4.339405	-0.38623	-0.221924	0.931885
950.0	29.095345	-10.078352	16.547102	-0.137261	-6.261227	-3.794682	-0.348633	-0.235107	0.956055
951.0	25.227908	-9.346428	21.958587	-0.937282	-5.058518	-3.013189	-0.31958	-0.254395	0.971191
952.0	13.410746	-12.791917	22.723126	-1.994839	-3.716958	-2.180328	-0.30127	-0.275879	0.973633
953.0	4.55375	-17.118123	10.112164	-0.686824	-2.305353	-2.495182	-0.283691	-0.282471	0.986572
954.0	14.078652	-20.296781	15.700724	0.644517	-1.778894	-1.79344	-0.285645	-0.284668	0.982422
955.0	18.985948	-15.447633	21.820736	0.699847	0.593634	-0.058771	-0.314209	-0.276123	0.986572
956.0	7.637327	-13.730177	17.651103	0.782545	2.435799	1.168344	-0.343018	-0.265381	0.971191
957.0	-4.247816	-11.200546	13.169929	0.91796	2.891368	1.424848	-0.37207	-0.250244	0.962402
958.0	-4.910637	-6.988873	12.269081	0.904027	2.882363	1.270728	-0.40918	-0.243652	0.945068
959.0	-2.767226	-4.345843	11.82236	0.600276	2.971307	1.140854	-0.440186	-0.235107	0.934082
960.0	-0.873182	-3.019444	11.418832	0.111795	3.215528	1.138249	-0.470947	-0.230469	0.897217
961.0	0.790768	-2.329193	10.831331	-0.451594	3.557476	1.217837	-0.505859	-0.228027	0.871094
962.0	2.630192	-2.004028	10.379208	-1.005394	4.035598	1.412436	-0.538574	-0.225586	0.834229
963.0	4.280415	-2.281286	9.714778	-1.47501	4.585489	1.633992	-0.571533	-0.220703	0.792969
964.0	5.415612	-2.613253	9.116514	-1.800825	5.152646	1.844959	-0.606689	-0.21582	0.740723
965.0	6.48741	-2.924651	8.50847	-1.985693	5.663441	2.034739	-0.63501	-0.215332	0.69751
966.0	6.788832	-2.939954	7.988885	-2.061558	6.063447	2.217422	-0.666016	-0.206055	0.632324
967.0	7.135578	-2.853912	7.661369	-2.086387	6.30231	2.383047	-0.694824	-0.196777	0.569336
968.0	8.074228	-2.755961	7.55331	-2.057164	6.439864	2.503357	-0.708496	-0.185303	0.515137
969.0	9.576572	-2.51815	7.899098	-2.008251	6.517164	2.605408	-0.724609	-0.169434	0.45874
970.0	10.882463	-2.129124	8.309218	-1.969493	6.517773	2.70296	-0.738281	-0.153564	0.38916
971.0	12.023335	-1.495104	8.793417	-1.981669	6.475905	2.799955	-0.74585	-0.133301	0.330566
972.0	13.276411	-0.969578	9.245557	-2.022579	6.390701	2.874976	-0.744629	-0.106689	0.27417
973.0	14.422298	-1.168963	9.355629	-1.984978	6.250917	2.903086	-0.751953	-0.09082	0.211182
974.0	15.784566	0.549332	10.366356	-2.008464	6.05464	2.868519	-0.73584	-0.062012	0.152588
975.0	16.982166	0.798335	10.4003	-2.228709	5.881358	2.890177	-0.730225	-0.039795	0.095947
976.0	16.740616	-0.506364	9.769189	-2.316366	5.618256	2.890816	-0.709717	-0.008789	0.043945
977.0	15.887703	-2.382053	9.337587	-2.174822	5.224004	2.886086	-0.693115	0.006836	-0.001709
978.0	16.128859	-3.648793	10.022692	-1.894639	4.719402	2.941893	-0.672852	0.041992	-0.038574
979.0	16.548768	-5.140069	10.408478	-1.521088	4.267288	3.09839	-0.651855	0.062012	-0.079834
980.0	17.872938	-6.447759	10.625471	-1.07627	3.861215	3.319232	-0.626709	0.085938	-0.099609
981.0	19.110177	-7.27771	10.185647	-0.580905	3.489057	3.581543	-0.610107	0.10791	-0.125488
982.0	20.775836	-7.09848	9.54587	-0.117266	3.085195	3.914239	-0.584961	0.127441	-0.138672
983.0	21.799282	-4.154811	8.557133	0.605215	2.498225	3.986315	-0.57251	0.142822	-0.153809
984.0	22.117134	-0.200782	7.996668	0.270762	1.965931	4.70375	-0.553955	0.171143	-0.171387
985.0	29.241872	-1.27229	7.175768	0.29685	1.951582	5.05338	-0.537354	0.188477	-0.184326
986.0	30.772392	-4.850574	1.207543	0.834022	2.480361	4.86151	-0.518555	0.208252	-0.19751
987.0	36.652634	-0.082418	-2.598352	1.752442	3.371951	4.021115	-0.492676	0.212891	-0.218994
988.0	37.616371	16.031188	-5.476054	1.729313	4.599933	3.708399	-0.460693	0.228516	-0.245117
989.0	30.475394	28.961257	-11.60518	0.213999	4.811402	3.878539	-0.428467	0.243896	-0.264648
990.0	16.378619	25.832105	-17.115145	-1.686408	3.653556	3.207258	-0.409912	0.267822	-0.275635
991.0	6.067693	16.524804	-19.665305	-2.363707	1.243242	1.326574	-0.399658	0.282959	-0.277832
992.0	10.11292	10.242736	-13.760826	-2.310595	-0.928009	-0.805713	-0.410645	0.287109	-0.26709
993.0	17.907621	-7.481775	-8.464071	-0.468428	-1.782994	-2.910626	-0.427246	0.267334	-0.256104
994.0	15.357073	-5.758036	-15.141845	1.288986	-3.380519	-3.783022	-0.456543	0.237061	-0.240967
995.0	-1.525163	-1.702346	3.896039	3.477198	-4.020143	-5.264237	-0.489258	0.180664	-0.229736
996.0	22.337507	5.105498	13.937301	3.240609	-4.838935	-4.487767	-0.524658	0.145752	-0.201416
997.0	25.856844	-1.730541	9.470974	1.585679	-4.687556	-1.909393	-0.539307	0.126221	-0.179688
998.0	12.723019	-5.071553	8.711945	1.790747	-4.637662	-1.253688	-0.564453	0.104004	-0.14502
999.0	17.192242	2.040185	12.573959	1.726424	-4.529456	-1.356853	-0.587646	0.086426	-0.123291
1000.0	21.023732	7.489052	13.462401	1.356129	-3.732416	-1.768988	-0.599854	0.064453	-0.099365
1001.0	16.943187	7.079686	16.768596	0.685458	-2.855534	-2.195482	-0.612305	0.049316	-0.084229
1002.0	8.506331	-6.271283	8.609998	0.611365	-2.508113	-1.87073	-0.622559	0.033936	-0.06665
1003.0	7.2269	-3.731793	8.186308	0.983573	-2.699194	-1.781085	-0.630615	0.018555	-0.049316
1004.0	8.598535	-0.657053	11.007942	1.066222	-2.448143	-1.751987	-0.636475	0.003418	-0.036133
1005.0	41.767002	-6.136863	16.862372	1.472611	0.187019	-1.103018	-0.631592	-0.007324	-0.03833
1006.0	5.490646	-2.166375	9.285476	1.5137	0.259452	-0.671711	-0.626953	-0.016113	-0.033936
1007.0	5.982226	1.278952	9.479157	0.856016	0.321188	-0.354465	-0.626709	-0.024658	-0.04248
1008.0	6.555116	-3.369847	8.0061	0.699238	0.130272	-0.27895	-0.626465	-0.028809	-0.036133
1009.0	6.434321	-1.880692	8.315845	0.529763	0.115022	-0.221696	-0.634766	-0.037598	-0.036133
1010.0	6.449973	-2.917214	8.108076	0.421263	0.165777	-0.188089	-0.626221	-0.033203	-0.033936
1011.0	6.041915	-1.846866	8.095275	0.349027	0.200572	-0.15675	-0.628418	-0.037354	-0.04248
1012.0	6.025299	-2.423664	7.943641	0.314835	0.174368	-0.145184	-0.623779	-0.041748	-0.038086
1013.0	5.894313	-1.805916	7.838001	0.27728	0.143203	-0.128328	-0.630371	-0.043945	-0.046875
1014.0	6.129135	-2.184809	7.740718	0.241083	0.142612	-0.106684	-0.623779	-0.043945	-0.044678
1015.0	5.960498	-2.408751	7.671517	0.239314	0.177672	-0.101354	-0.62793	-0.048096	-0.049072
1016.0	5.741796	-2.168846	7.898387	0.239631	0.229122	-0.105413	-0.623779	-0.043701	-0.049072
1017.0	5.61309	-1.592925	7.992035	0.209738	0.235299	-0.110513	-0.619141	-0.05249	-0.040283
1018.0	5.621008	-1.332214	7.799047	0.166937	0.216872	-0.076624	-0.630371	-0.039551	-0.049072
1019.0	5.482242	-1.628762	8.090653	0.110622	0.184062	-0.046177	-0.629883	-0.054688	-0.049072
1020.0	5.531111	-1.787369	8.008497	0.098729	0.147118	-0.038891	-0.623535	-0.05249	-0.046875
1021.0	5.560417	-1.528679	7.838064	0.078109	0.117233	-0.035798	-0.623535	-0.050293	-0.049072
1022.0	5.660507	-1.880229	7.83244	0.051366	0.093351	-0.018815	-0.619141	-0.052246	-0.051025
1023.0	5.652307	-1.828058	7.764232	0.051776	0.09058	-0.019037	-0.616699	-0.056641	-0.048828
1024.0	5.579865	-1.623665	7.913561	0.046885	0.081255	-0.000247	-0.619141	-0.050293	-0.053223
1025.0	5.589308	-1.859586	7.910824	0.052094	0.061516	-0.000483	-0.623291	-0.054443	-0.053223
1026.0	5.593384	-1.775974	7.845018	0.04494	0.054435	-0.0009	-0.616943	-0.052246	-0.053223
1027.0	5.574176	-1.666404	7.899559	0.029015	0.030331	0.004579	-0.621094	-0.058838	-0.053223
1028.0	5.57842	-1.548048	7.958265	-0.000232	-0.01836	0.017074	-0.616943	-0.052246	-0.05542
1029.0	5.55004	-1.328879	8.135582	-0.010685	-0.069379	0.039414	-0.619141	-0.050293	-0.053223
1030.0	5.459133	-1.262997	8.231635	-0.031152	-0.133003	0.05783	-0.621338	-0.050293	-0.046875
1031.0	5.514626	-1.497423	8.19752	-0.04442	-0.208345	0.073418	-0.623535	-0.050293	-0.04248
1032.0	5.664788	-1.883926	8.126356	-0.06517	-0.274021	0.077777	-0.619141	-0.048096	-0.044678
1033.0	5.681406	-1.894662	8.131292	-0.07027	-0.333387	0.065812	-0.62793	-0.045898	-0.046875
1034.0	5.627704	-1.94052	8.160192	-0.077032	-0.400978	0.056755	-0.623779	-0.045898	-0.044678
1035.0	5.528036	-2.056863	8.294087	-0.070168	-0.480396	0.032998	-0.625732	-0.046143	-0.038086
1036.0	4.640142	-1.311349	9.112615	-0.139725	-0.595309	0.003121	-0.62793	-0.046143	-0.033936
1037.0	5.152081	-1.942152	8.834228	-0.208617	-0.797312	-0.038694	-0.636719	-0.046387	-0.027344
1038.0	5.374371	-2.286991	8.574636	-0.292205	-0.967794	-0.086147	-0.636719	-0.046387	-0.020752
1039.0	5.334591	-2.252639	8.683527	-0.315804	-1.124098	-0.143135	-0.640625	-0.057129	-0.01416
1040.0	5.510878	-2.864325	8.664354	-0.335128	-1.305724	-0.200515	-0.647461	-0.046631	-0.005615
1041.0	5.438096	-2.766255	8.466625	-0.311162	-1.489747	-0.267348	-0.647217	-0.051025	0.007324
1042.0	5.26633	-2.89845	8.673283	-0.265041	-1.724229	-0.331013	-0.651611	-0.049072	0.018066
1043.0	4.99035	-2.024828	8.921822	-0.188008	-2.050103	-0.360498	-0.662354	-0.053711	0.037598
1044.0	4.961048	-1.563907	9.074148	-0.146628	-2.436547	-0.369264	-0.664551	-0.053955	0.054932
1045.0	5.314916	-3.098106	8.936002	-0.150874	-2.765898	-0.421529	-0.673096	-0.056396	0.068115
1046.0	5.684568	-3.740598	8.563716	-0.074574	-2.941658	-0.598205	-0.677246	-0.058838	0.098389
1047.0	5.74978	-3.511838	8.389624	-0.013142	-2.992538	-0.858316	-0.68335	-0.072021	0.11792
1048.0	5.362688	-4.275716	8.294333	0.021385	-3.027671	-1.139313	-0.69165	-0.076904	0.148193
1049.0	4.963434	-3.561196	8.437936	0.045119	-3.28348	-1.455125	-0.691162	-0.092285	0.169922
1050.0	4.251677	-3.661897	8.769873	0.017766	-3.641041	-1.787634	-0.694824	-0.107666	0.196045
1051.0	3.728896	-4.672082	8.481522	0.002478	-4.120595	-2.226151	-0.694092	-0.123291	0.233154
1052.0	3.28543	-5.552402	7.974433	0.018418	-4.665479	-2.884861	-0.688721	-0.145264	0.267822
1053.0	3.843484	-4.947535	6.770776	0.22696	-5.337913	-3.553975	-0.683105	-0.175781	0.304932
1054.0	5.606977	-4.999283	6.843681	0.707252	-6.02263	-4.05624	-0.671143	-0.204346	0.350586
1055.0	8.197408	-5.184323	7.933361	0.930023	-6.853105	-4.608502	-0.654297	-0.239502	0.413574
1056.0	17.928579	-4.312041	8.113377	0.97586	-7.819615	-5.074651	-0.633301	-0.276855	0.470215
1057.0	29.121133	-3.047415	7.400872	0.842227	-8.436868	-5.00963	-0.599121	-0.312012	0.531006
1058.0	29.261012	-2.151327	9.509504	0.806974	-8.516252	-4.82368	-0.556641	-0.338379	0.592041
1059.0	32.277337	-3.863667	12.223373	0.769297	-8.252096	-4.461776	-0.51416	-0.360352	0.635498
1060.0	30.853261	-8.705278	13.536828	0.663389	-7.753092	-4.036131	-0.480957	-0.371582	0.687744
1061.0	26.98225	-10.364684	19.171585	0.167352	-6.847141	-3.422842	-0.434326	-0.393555	0.722412
1062.0	19.230079	-13.396727	24.978804	-0.345895	-5.409164	-2.863777	-0.403564	-0.404541	0.744385
1063.0	5.262489	-17.946685	21.968835	-0.052717	-3.571295	-3.058945	-0.376465	-0.423828	0.755371
1064.0	8.873373	-18.284818	16.707839	0.623723	-1.505207	-2.649062	-0.361328	-0.421875	0.766113
1065.0	16.129119	-15.677707	24.022181	0.596611	0.387883	-0.903336	-0.365479	-0.428223	0.768311
1066.0	9.561507	-12.187964	21.591579	-0.154803	2.876169	0.782592	-0.385254	-0.423828	0.750977
1067.0	-3.400623	-12.849186	14.043677	-0.445025	3.707174	1.485348	-0.409668	-0.417236	0.727051
1068.0	-5.947889	-8.943262	11.107019	-0.444331	3.635311	1.398481	-0.431396	-0.419189	0.711914
1069.0	-3.079452	-5.08945	10.489671	-0.690029	3.537034	1.365861	-0.453369	-0.412598	0.692139
1070.0	0.424596	-3.759167	9.968429	-1.181823	3.685597	1.506023	-0.475098	-0.416504	0.664063
1071.0	2.973521	-3.50942	9.140431	-1.597238	4.089631	1.721594	-0.501221	-0.414063	0.631592
1072.0	4.755815	-3.598525	8.353002	-1.898946	4.6586	1.981663	-0.525879	-0.402832	0.594482
1073.0	6.450039	-3.371051	8.094481	-2.090189	5.271279	2.245239	-0.552246	-0.398193	0.551025
1074.0	7.235835	-2.732244	7.677738	-2.227719	5.838178	2.52991	-0.583252	-0.384521	0.496826
1075.0	6.730811	-2.577646	7.296833	-2.30608	6.191094	2.764529	-0.603271	-0.377441	0.451172
1076.0	6.5438	-2.193001	7.07397	-2.330743	6.343871	2.898018	-0.625732	-0.361816	0.392578
1077.0	7.163649	-1.570608	7.330727	-2.349816	6.355749	2.950527	-0.641846	-0.341797	0.340332
1078.0	8.036627	-1.036144	7.741841	-2.423362	6.290499	2.950138	-0.6604	-0.317383	0.277344
1079.0	9.257958	-0.442001	8.182494	-2.563189	6.190129	2.901541	-0.659424	-0.290771	0.225342
1080.0	10.734895	-0.416559	8.782236	-2.704231	6.017072	2.834484	-0.669189	-0.261963	0.162354
1081.0	12.033398	-0.17111	9.532351	-2.808219	5.802016	2.763926	-0.665771	-0.243896	0.105713
1082.0	13.459428	0.374698	10.293465	-2.918395	5.602791	2.685547	-0.660645	-0.213135	0.053711
1083.0	14.670236	0.80856	10.742974	-3.023563	5.432496	2.568742	-0.655029	-0.188721	0.005859
1084.0	15.049821	0.577668	10.702611	-3.058969	5.233489	2.379044	-0.636719	-0.155762	-0.041992
1085.0	15.250125	0.113757	10.545252	-2.978254	4.95364	2.146744	-0.620361	-0.131592	-0.085449
1086.0	15.365141	-0.311202	10.554067	-2.869393	4.578585	2.011764	-0.608398	-0.109619	-0.11377
1087.0	15.119965	-0.714475	10.929558	-2.753651	4.138444	2.035976	-0.585449	-0.081055	-0.150635
1088.0	15.05471	-1.998447	11.28776	-2.618314	3.620163	2.215422	-0.575684	-0.054688	-0.178955
1089.0	14.54719	-3.102388	11.397872	-2.348915	3.045302	2.419459	-0.568115	-0.026367	-0.200684
1090.0	15.159733	-3.566441	11.387875	-2.094962	2.441701	2.644175	-0.553955	-0.000244	-0.222412
1091.0	16.949637	-3.531625	11.051252	-1.910436	1.850071	3.005585	-0.552979	0.030029	-0.233398
1092.0	19.318498	-3.331975	10.50369	-1.72065	1.273247	3.554604	-0.550049	0.064453	-0.242432
1093.0	21.848395	-1.692652	10.430187	-1.473482	0.791792	4.254966	-0.544678	0.096924	-0.249023
1094.0	24.976412	1.763393	11.262425	-1.254089	0.421458	5.02583	-0.546143	0.135742	-0.253418
1095.0	31.635306	-1.117626	7.947181	-0.826999	1.0472	5.713073	-0.534668	0.172363	-0.258057
1096.0	35.23982	-2.533717	0.610489	0.684803	2.355829	5.650332	-0.507324	0.196289	-0.275391
1097.0	37.711654	7.267603	-5.027195	2.157243	3.878031	5.08599	-0.481689	0.205566	-0.303467
1098.0	35.837321	20.258843	-9.556592	2.522539	4.877248	4.833315	-0.443115	0.220947	-0.327393
1099.0	24.171266	25.299721	-14.940432	2.171401	4.647918	4.508259	-0.410645	0.223633	-0.349121
1100.0	6.731237	22.279724	-18.39946	1.791568	2.735788	3.044036	-0.401855	0.223877	-0.362061
1101.0	3.539703	18.753927	-16.085205	1.568149	0.006128	0.984866	-0.406006	0.215088	-0.362061
1102.0	11.234025	16.664584	-6.383217	1.170475	-1.894377	-0.467595	-0.420654	0.206299	-0.346924
1103.0	17.474518	12.196508	1.334219	0.47602	-2.514408	-1.117769	-0.440186	0.201904	-0.344727
1104.0	16.583458	2.393217	8.025343	-0.062661	-2.077765	-1.453374	-0.446045	0.186768	-0.338135
1105.0	16.147207	-8.686028	11.36314	2.409908	-1.272696	-2.548522	-0.466797	0.158447	-0.324951
1106.0	-4.313965	-5.303517	8.044417	1.379959	-2.049836	-2.813459	-0.483154	0.132568	-0.318359
1107.0	-6.62794	-4.634102	7.914027	2.168323	-3.708478	-3.045914	-0.514648	0.102051	-0.298828
1108.0	13.052	6.767051	1.928315	1.104326	-5.10051	-1.344883	-0.551025	0.092773	-0.261963
1109.0	23.747715	-8.722876	12.592446	0.421145	-5.225738	0.271823	-0.581543	0.092285	-0.236084
1110.0	13.516891	-7.141664	8.056334	0.994633	-4.33947	0.170606	-0.605469	0.093994	-0.207764
1111.0	11.350958	2.754189	11.412812	1.274789	-3.9431	-0.620232	-0.628662	0.074219	-0.184082
1112.0	15.816141	4.603452	11.684866	1.004472	-3.400028	-1.177077	-0.638916	0.058838	-0.157959
1113.0	14.764186	6.236461	13.020305	0.704692	-2.781144	-1.700043	-0.653564	0.045654	-0.144775
1114.0	11.377327	-3.335802	12.318419	0.345127	-2.225122	-1.42729	-0.66626	0.036865	-0.134033
1115.0	7.792595	-4.365393	7.038547	0.480051	-2.214346	-1.26367	-0.676514	0.023438	-0.110107
1116.0	6.119569	-1.356023	9.244094	0.566275	-2.316095	-1.154418	-0.684814	0.014648	-0.090576
1117.0	26.548169	-2.585236	17.589737	0.69411	-2.079204	-1.230727	-0.688721	-0.000488	-0.086182
1118.0	9.869624	-6.43114	4.999085	0.736983	0.648206	-0.376822	-0.688477	-0.002686	-0.083984
1119.0	8.758212	1.338989	11.627639	0.72712	-0.202825	-0.363059	-0.692627	-0.009277	-0.083984
1120.0	7.548478	-2.390165	8.35296	0.380741	-0.156316	-0.161198	-0.686035	-0.011475	-0.07959
1121.0	6.391937	-1.67889	8.430552	0.226777	-0.194177	-0.047537	-0.688477	-0.00708	-0.07959
1122.0	6.270167	-2.518052	8.061179	0.093513	-0.249061	0.02332	-0.697021	-0.011475	-0.075195
1123.0	6.263782	-2.743578	8.020872	0.008404	-0.277493	0.047956	-0.697021	-0.011475	-0.071045
1124.0	6.122785	-2.468082	8.211809	-0.072887	-0.288765	0.071298	-0.697021	-0.009277	-0.075195
1125.0	6.182905	-2.175416	8.048388	-0.170333	-0.307124	0.089894	-0.69458	-0.013672	-0.068848
1126.0	6.240973	-2.460683	7.633285	-0.266949	-0.305781	0.102172	-0.699219	-0.009521	-0.068848
1127.0	6.171126	-2.362594	7.923827	-0.306972	-0.305786	0.113346	-0.697266	-0.005127	-0.068848
1128.0	6.074227	-2.261534	8.005766	-0.382749	-0.331732	0.123689	-0.70166	-0.00293	-0.06665
1129.0	6.103952	-2.705267	7.51133	-0.430729	-0.355149	0.125484	-0.699463	-0.000977	-0.062256
1130.0	6.138041	-2.901115	7.2893	-0.429858	-0.348748	0.111826	-0.704102	0.003418	-0.060303
1131.0	6.258183	-3.133565	6.907311	-0.393281	-0.315764	0.093792	-0.704102	0.003418	-0.058105
1132.0	6.152181	-3.058058	6.961605	-0.307273	-0.277423	0.076047	-0.701904	0.003418	-0.058105
1133.0	6.203114	-2.908081	7.138822	-0.255266	-0.249857	0.051421	-0.708252	0.003418	-0.058105
1134.0	6.233895	-3.051501	6.956383	-0.18922	-0.229344	0.040983	-0.702393	0.016113	-0.053711
1135.0	6.263688	-3.135047	6.783954	-0.1349	-0.174357	0.02335	-0.708496	0.005371	-0.058105
1136.0	6.283518	-3.137209	6.724111	-0.07061	-0.117734	-0.007843	-0.706543	0.011963	-0.051514
1137.0	6.294581	-3.002725	6.68316	-0.005764	-0.063058	-0.026384	-0.706299	0.009766	-0.051514
1138.0	6.30953	-2.994734	6.734923	0.055986	-0.005558	-0.040948	-0.706299	0.007568	-0.045166
1139.0	6.250716	-3.061673	6.567624	0.121704	0.05892	-0.069925	-0.703857	-0.000977	-0.051514
1140.0	6.280707	-3.031436	6.637255	0.228238	0.114563	-0.08533	-0.701904	0.005371	-0.055908
1141.0	6.279506	-2.823498	6.950202	0.268751	0.150597	-0.097213	-0.706055	0.001221	-0.055908
1142.0	6.255936	-2.777701	7.094039	0.317258	0.201134	-0.089739	-0.706055	0.000977	-0.051514
1143.0	6.197988	-2.556039	7.276264	0.340551	0.212365	-0.082249	-0.708008	-0.005371	-0.058105
1144.0	6.217738	-2.750602	7.033274	0.374591	0.230936	-0.085893	-0.705811	-0.005371	-0.051514
1145.0	6.169154	-2.624632	7.135488	0.436377	0.243696	-0.082655	-0.699219	-0.005371	-0.058105
1146.0	6.209048	-2.399426	7.466644	0.464788	0.20932	-0.066693	-0.703613	-0.003174	-0.055908
1147.0	5.97822	-2.024668	8.044553	0.415107	0.128888	-0.021179	-0.701172	-0.011719	-0.060059
1148.0	5.923479	-2.231348	8.025309	0.323331	0.00486	-0.001276	-0.705811	-0.007324	-0.058105
1149.0	5.916106	-2.053001	8.113296	0.205478	-0.108229	0.013584	-0.705566	-0.011719	-0.057861
1150.0	5.979177	-2.314257	8.072201	0.096511	-0.208888	0.016426	-0.701172	-0.009766	-0.051514
1151.0	5.891354	-2.171486	8.120295	-0.012174	-0.290696	0.022891	-0.703369	-0.011719	-0.051514
1152.0	5.886808	-2.378307	8.151039	-0.116253	-0.401361	0.006362	-0.707764	-0.011963	-0.049316
1153.0	5.917796	-2.552948	8.107581	-0.178746	-0.479372	-0.021999	-0.709961	-0.011963	-0.040527
1154.0	5.649034	-2.543747	8.406806	-0.253265	-0.59708	-0.065259	-0.7146	-0.005615	-0.038574
1155.0	5.195097	-2.338973	8.82347	-0.385557	-0.8118	-0.132259	-0.714111	-0.012207	-0.03418
1156.0	5.299032	-2.683416	8.713648	-0.507036	-1.083226	-0.203215	-0.71875	-0.01001	-0.027588
1157.0	4.348271	-2.084605	9.799633	-0.449568	-1.349856	-0.235996	-0.720703	-0.012451	-0.010254
1158.0	5.299028	-3.074095	8.637056	-0.572327	-1.733592	-0.342789	-0.729248	-0.012695	0.002686
1159.0	4.952509	-3.082885	8.768309	-0.547479	-2.028121	-0.407154	-0.735596	-0.01709	0.009277
1160.0	5.083151	-3.999777	8.139207	-0.435901	-2.323777	-0.514325	-0.738037	-0.010986	0.032959
1161.0	5.462581	-4.342997	7.826037	-0.250879	-2.565357	-0.659835	-0.755127	-0.021973	0.054688
1162.0	5.681095	-4.254441	7.824359	-0.064307	-2.747608	-0.828013	-0.756836	-0.028809	0.074219
1163.0	5.680537	-4.161007	7.62887	0.07314	-2.95498	-1.028641	-0.760986	-0.035645	0.104492
1164.0	5.346919	-3.69018	8.036649	0.166047	-3.227175	-1.241465	-0.76709	-0.040283	0.126221
1165.0	5.328119	-3.849507	7.788705	0.180337	-3.563335	-1.461298	-0.770752	-0.060059	0.158936
1166.0	5.176477	-5.212149	7.069353	0.211758	-3.851713	-1.794418	-0.780762	-0.077881	0.189209
1167.0	4.823132	-4.578979	7.299242	0.259214	-4.164125	-2.228972	-0.780029	-0.0979	0.237061
1168.0	4.951495	-4.358395	6.84874	0.339029	-4.602486	-2.631477	-0.78125	-0.119873	0.27417
1169.0	5.200346	-4.612476	6.566195	0.476594	-5.161357	-3.072294	-0.775635	-0.150635	0.323975
1170.0	7.034681	-5.005973	6.768374	0.613724	-5.818376	-3.523407	-0.76123	-0.179199	0.374023
1171.0	9.596822	-5.226022	7.835	0.723941	-6.561371	-3.987425	-0.748779	-0.220703	0.42627
1172.0	17.469311	-3.580926	8.178165	0.679076	-7.354912	-4.287256	-0.728027	-0.245117	0.493652
1173.0	24.21916	-2.061906	7.028632	0.507742	-7.784353	-4.145693	-0.700684	-0.271973	0.561035
1174.0	23.24445	-1.209855	8.430181	0.389219	-8.064581	-3.924479	-0.666992	-0.29834	0.621826
1175.0	28.531083	-2.897483	9.521226	0.31096	-7.996662	-3.694657	-0.630859	-0.326904	0.674072
1176.0	28.68955	-6.252616	11.128163	0.260868	-7.483292	-3.423104	-0.59082	-0.344727	0.721924
1177.0	25.50874	-7.274629	15.932274	-0.06047	-6.833437	-3.010157	-0.546387	-0.368652	0.765625
1178.0	21.081999	-7.003093	20.502625	-0.827742	-5.769457	-2.43712	-0.510742	-0.384033	0.793945
1179.0	13.489238	-8.115476	24.019385	-1.88365	-4.585896	-1.709698	-0.483643	-0.407715	0.809326
1180.0	3.666672	-16.422211	14.076495	-1.265445	-2.854205	-2.035822	-0.46167	-0.412109	0.824463
1181.0	12.817912	-14.618284	17.516743	-0.041054	-1.275606	-1.904124	-0.452393	-0.427246	0.828857
1182.0	19.995606	-12.839976	24.386187	-0.242543	1.465058	-0.271836	-0.461182	-0.427246	0.818115
1183.0	4.966255	-12.675356	17.350226	-0.147791	3.285797	0.755856	-0.480957	-0.422607	0.800537
1184.0	-3.719834	-11.794637	12.794989	0.174623	3.714793	0.932068	-0.505371	-0.412109	0.796143
1185.0	-4.736534	-8.061562	11.464496	0.449683	3.747804	0.806434	-0.529785	-0.401123	0.778809
1186.0	-2.61155	-5.649886	10.988021	0.402747	3.784251	0.748419	-0.547119	-0.40332	0.77002
1187.0	-0.583406	-4.555484	10.383834	0.176267	3.98496	0.811295	-0.567139	-0.392334	0.748291
1188.0	1.338532	-3.66474	10.016708	-0.118709	4.348451	0.966436	-0.595947	-0.381348	0.730957
1189.0	2.979369	-2.693472	9.820131	-0.487649	4.81845	1.198369	-0.62207	-0.383301	0.709229
1190.0	4.416226	-1.97774	9.548459	-0.919164	5.31138	1.482368	-0.646484	-0.37207	0.676514
1191.0	5.29226	-1.867683	8.89505	-1.313989	5.748616	1.758667	-0.679443	-0.365479	0.650391
1192.0	5.744773	-1.907597	8.361884	-1.611481	6.063588	1.967453	-0.712646	-0.354248	0.606934
1193.0	6.694332	-1.694241	8.223839	-1.841155	6.251213	2.117021	-0.747803	-0.349609	0.572266
1194.0	8.140603	-1.434709	8.221304	-2.057211	6.377752	2.231767	-0.776611	-0.334229	0.539551
1195.0	9.471208	-1.158412	8.179016	-2.261833	6.47449	2.349159	-0.820557	-0.32959	0.496094
1196.0	10.945806	-1.395898	7.95509	-2.436466	6.498022	2.427925	-0.875	-0.327148	0.465576
1197.0	12.211338	-1.418327	7.516361	-2.491569	6.460609	2.457851	-0.938965	-0.309326	0.404785
1198.0	12.531543	-2.429807	7.575127	-2.48784	6.300989	2.49343	-1.012207	-0.280762	0.337402
1199.0	14.368675	-7.655732	6.267632	-1.941844	6.102595	2.527956	-1.09375	-0.258545	0.265625
1200.0	13.572718	-0.876423	8.816732	-0.797654	5.688643	2.054724	-1.166992	-0.223389	0.180664
1201.0	16.936128	3.083183	10.88587	-1.62114	5.517396	2.236162	-1.239014	-0.168457	0.080566
1202.0	15.59422	1.142561	9.568986	-2.269889	5.137898	2.431658	-1.309326	-0.104736	-0.039063
1203.0	15.069937	-1.223953	8.824561	-2.657581	4.695604	2.399982	-1.358398	-0.023438	-0.16748
1204.0	15.225137	-3.165816	8.669053	-2.674185	4.203364	2.3507	-1.393555	0.087891	-0.304688
1205.0	15.678523	-4.610353	8.780019	-2.389314	3.704915	2.348564	-1.372803	0.216797	-0.44165
1206.0	16.087729	-5.322715	8.541338	-1.987499	3.133043	2.420108	-1.315186	0.358398	-0.550781
1207.0	17.260871	-4.987537	8.201276	-1.627961	2.479711	2.601913	-1.216309	0.495117	-0.614014
1208.0	19.347439	-4.415985	7.641354	-1.370598	1.827607	2.981732	-1.10083	0.607666	-0.631836
1209.0	22.1394	-3.752975	7.180641	-1.149464	1.309378	3.524297	-0.969482	0.698486	-0.623291
1210.0	24.821088	-0.999454	7.804307	-0.87109	1.018012	4.17337	-0.841309	0.762939	-0.591064
1211.0	29.170501	2.629483	8.030992	-0.799529	0.979852	4.97478	-0.699219	0.808105	-0.538818
1212.0	32.577671	-0.565705	3.171244	-0.345951	1.859878	5.618498	-0.577393	0.814209	-0.478027
1213.0	30.487101	-2.401678	-3.512148	1.176473	2.834701	5.380942	-0.487061	0.785889	-0.440918
1214.0	30.735884	5.507309	-7.64256	2.809057	3.611423	4.522628	-0.421875	0.738525	-0.416748
1215.0	29.511251	18.362956	-9.372954	3.204465	4.014028	3.981399	-0.372559	0.699951	-0.40332
1216.0	22.102773	23.612137	-12.867963	2.520936	3.591219	3.580205	-0.341064	0.67627	-0.392334
1217.0	13.843955	24.241034	-12.100485	1.720261	2.422506	2.137658	-0.329346	0.652344	-0.383545
1218.0	-1.226997	18.135014	-18.350568	-0.037083	-0.757052	0.510044	-0.357178	0.643066	-0.340332
1219.0	13.566573	8.272132	-15.949823	-0.577654	-3.641609	-1.308352	-0.406494	0.629639	-0.307861
1220.0	9.663533	2.047287	-18.250757	0.36001	-4.955717	-2.653888	-0.462158	0.603027	-0.264404
1221.0	4.291901	1.497231	6.932761	0.92201	-6.427701	-3.648446	-0.530029	0.563232	-0.216553
1222.0	34.250801	-3.932734	15.777522	0.920898	-5.802642	-2.744331	-0.585693	0.541016	-0.17334
1223.0	22.48923	-7.711293	7.099196	0.943106	-4.375623	-1.699568	-0.619629	0.516846	-0.13623
1224.0	11.069356	-5.393468	5.79697	1.331044	-4.466464	-1.913698	-0.675049	0.488037	-0.093018
1225.0	25.248707	3.510452	11.347074	1.229811	-4.453021	-2.413868	-0.70874	0.463623	-0.058105
1226.0	26.904636	-0.974204	19.67432	1.027657	-2.872612	-2.115215	-0.733643	0.435303	-0.040771
1227.0	8.35113	-5.223459	10.033137	1.376653	-1.787825	-1.840333	-0.76123	0.415527	-0.014648
1228.0	22.785623	-1.444432	16.642383	1.760636	-2.22998	-1.682118	-0.775635	0.394043	-0.012451
1229.0	15.268269	4.682898	12.262636	1.257963	1.411875	-0.702378	-0.777832	0.391846	-0.023193
1230.0	12.318974	-5.170332	7.519783	1.076135	0.391897	-0.413183	-0.777588	0.385498	-0.027588
1231.0	5.845404	-1.161227	8.639946	0.895327	0.499184	-0.253208	-0.772705	0.376953	-0.029785
1232.0	6.29917	-2.093504	7.682002	0.690461	0.387945	-0.201699	-0.777344	0.37915	-0.033936
1233.0	5.731753	-0.770508	8.460884	0.522263	0.288104	-0.155365	-0.774902	0.377197	-0.036133
1234.0	6.090571	-1.944827	7.871533	0.361321	0.213524	-0.11351	-0.7771	0.377197	-0.042725
1235.0	6.006115	-1.680873	7.845576	0.287469	0.202382	-0.092777	-0.770752	0.377197	-0.03833
1236.0	5.821863	-1.739879	8.017092	0.19432	0.18207	-0.062827	-0.7771	0.375	-0.03833
1237.0	5.803507	-1.919769	7.777286	0.123129	0.193414	-0.03909	-0.770508	0.372803	-0.036133
1238.0	5.711643	-1.940032	7.819954	0.090864	0.197188	-0.022383	-0.770508	0.375	-0.042725
1239.0	5.644446	-1.701526	7.919379	0.069556	0.235739	-0.025797	-0.772705	0.373047	-0.053467
1240.0	5.820397	-2.247102	7.587483	0.051443	0.247496	-0.027151	-0.772949	0.377441	-0.053467
1241.0	5.648284	-1.855577	7.986192	0.034644	0.21782	-0.022856	-0.768555	0.377197	-0.05127
1242.0	5.601424	-2.102026	8.041382	0.031252	0.168005	-0.019758	-0.770264	0.368652	-0.046875
1243.0	5.637354	-1.826298	8.112511	0.039087	0.123473	-0.026294	-0.768311	0.373047	-0.053467
1244.0	5.66787	-1.790919	8.02846	0.017251	0.093509	-0.026858	-0.766113	0.37085	-0.053467
1245.0	5.712267	-1.724735	7.945576	0.005976	0.064912	-0.016745	-0.768311	0.371094	-0.060059
1246.0	5.71403	-1.768013	8.001663	-0.00655	0.043426	-0.004921	-0.766113	0.371094	-0.062256
1247.0	5.666509	-1.854602	7.914709	-0.013814	0.025964	-0.003629	-0.763916	0.37085	-0.049072
1248.0	5.657212	-1.866136	7.862788	-0.012183	0.020945	-0.002534	-0.766113	0.37085	-0.049072
1249.0	5.738459	-1.890998	7.812022	-0.005472	0.020568	-0.002876	-0.766113	0.373047	-0.053467
1250.0	5.654049	-1.954022	7.815485	-0.000561	0.03978	-0.00693	-0.763916	0.37085	-0.053467
1251.0	5.721968	-2.141094	7.789567	0.005833	0.045196	-0.011976	-0.766357	0.375244	-0.049072
1252.0	5.617379	-1.798233	7.861345	0.008881	0.045793	-0.011468	-0.763916	0.373047	-0.053467
1253.0	5.538637	-1.642137	7.865543	0.00349	0.036934	-0.003983	-0.768311	0.373047	-0.053467
1254.0	5.426354	-1.355552	7.9594	-0.010215	0.020422	0.018412	-0.770508	0.375244	-0.055664
1255.0	5.487065	-1.524839	7.927747	-0.04239	-0.016349	0.037581	-0.763916	0.368652	-0.05127
1256.0	5.333315	-1.384237	7.928588	-0.052192	-0.057816	0.050592	-0.770508	0.375244	-0.055664
1257.0	5.354728	-1.197039	8.128106	-0.073885	-0.159685	0.086321	-0.76416	0.379395	-0.05127
1258.0	5.3273	-1.055592	8.20366	-0.093885	-0.266115	0.132439	-0.768555	0.377197	-0.049316
1259.0	5.171033	-0.827538	8.410343	-0.132429	-0.394555	0.18207	-0.766357	0.377197	-0.042725
1260.0	5.039857	-0.759427	8.436272	-0.2079	-0.582509	0.237539	-0.770752	0.381348	-0.040527
1261.0	5.3216	-1.447163	8.388117	-0.297604	-0.791	0.280314	-0.775391	0.385742	-0.03833
1262.0	6.264468	-3.463733	8.071944	-0.277436	-0.840663	0.229565	-0.777344	0.383301	-0.027588
1263.0	6.277201	-3.042721	7.699207	-0.233953	-0.750999	0.159503	-0.781494	0.378906	-0.020996
1264.0	6.09991	-2.897303	7.690282	-0.274638	-0.680235	0.114209	-0.779541	0.383301	-0.016846
1265.0	5.829683	-2.619136	7.814832	-0.339338	-0.678143	0.052642	-0.781738	0.385254	-0.012451
1266.0	5.916188	-2.717245	7.74754	-0.416466	-0.679872	0.010509	-0.792725	0.385254	-0.005859
1267.0	5.069267	-2.325565	8.745665	-0.352472	-0.755093	-0.019991	-0.790527	0.387207	0.000488
1268.0	5.602752	-2.208915	8.42184	-0.471676	-0.927165	-0.066871	-0.799072	0.380615	0.011475
1269.0	5.342949	-2.109616	8.657961	-0.550532	-1.098279	-0.111302	-0.805664	0.382568	0.022217
1270.0	5.348529	-2.350795	8.703831	-0.646531	-1.312891	-0.164707	-0.811768	0.375977	0.031006
1271.0	5.368778	-2.847168	8.526061	-0.651368	-1.529475	-0.237167	-0.813965	0.373535	0.04834
1272.0	5.369527	-3.006801	8.338314	-0.606511	-1.79859	-0.312138	-0.826904	0.373535	0.05249
1273.0	5.554484	-3.082451	8.093191	-0.498305	-2.046203	-0.374522	-0.8396	0.366699	0.083008
1274.0	5.880362	-3.245399	7.648016	-0.365783	-2.239378	-0.442368	-0.852295	0.357666	0.098145
1275.0	6.20316	-3.65778	7.319749	-0.19299	-2.341536	-0.529773	-0.862793	0.34668	0.12207
1276.0	6.335219	-3.820475	7.322743	0.006602	-2.403188	-0.666783	-0.869141	0.344238	0.137207
1277.0	6.006625	-3.897399	7.548486	0.148166	-2.531877	-0.838174	-0.883789	0.330811	0.161133
1278.0	5.91239	-3.76253	7.903838	0.228735	-2.740872	-1.033574	-0.905029	0.31543	0.185059
1279.0	5.834735	-5.000169	7.477042	0.311816	-2.970938	-1.306768	-0.916992	0.291504	0.211182
1280.0	5.334436	-4.637936	8.108721	0.327202	-3.201775	-1.746286	-0.927002	0.271484	0.24585
1281.0	4.771432	-4.292525	8.454598	0.30387	-3.537244	-2.167082	-0.949951	0.247314	0.27832
1282.0	4.479073	-4.646937	7.896828	0.318985	-3.968356	-2.606245	-0.963867	0.216553	0.323975
1283.0	3.980035	-4.29787	8.263897	0.413429	-4.564517	-3.088279	-0.979736	0.177246	0.365479
1284.0	4.465428	-3.940228	8.536836	0.460112	-5.377112	-3.539155	-0.990723	0.128906	0.42627
1285.0	6.955629	-3.136785	8.487169	0.48443	-6.376653	-3.913552	-0.995361	0.082764	0.49585
1286.0	12.546115	-2.238264	8.183953	0.320136	-7.394172	-4.081705	-0.993408	0.036621	0.574219
1287.0	21.888648	-1.972369	7.661163	0.120374	-8.166621	-4.047778	-0.976074	-0.013916	0.648193
1288.0	22.053481	-1.545227	6.951347	0.130543	-8.366178	-3.892994	-0.955078	-0.049316	0.730713
1289.0	23.767719	-0.058532	9.081332	0.128293	-8.451918	-3.7015	-0.90332	-0.084473	0.80249
1290.0	25.94256	-5.464568	7.734379	0.163967	-8.055853	-3.542962	-0.854004	-0.121826	0.874268
1291.0	23.060451	-7.238329	10.597594	0.414589	-7.43928	-3.589996	-0.800293	-0.150391	0.933105
1292.0	21.452119	-8.186898	14.894295	0.444787	-6.565306	-3.538955	-0.749268	-0.176758	0.97876
1293.0	21.12789	-10.313346	19.649304	0.303594	-5.399776	-3.275501	-0.700195	-0.200684	1.024414
1294.0	14.96966	-10.552359	19.852708	0.078292	-4.017184	-2.635753	-0.660156	-0.224609	1.044189
1295.0	1.839384	-12.41351	12.23566	0.873339	-1.968182	-2.486282	-0.640137	-0.235352	1.055176
1296.0	23.499171	-8.769707	23.884286	0.808666	0.56966	-1.507941	-0.644287	-0.239502	1.048584
1297.0	16.374277	-6.898483	21.242337	-0.278545	3.659989	0.530624	-0.678955	-0.247803	1.011719
1298.0	0.657161	-9.920716	12.56946	-0.585035	4.709519	1.232579	-0.718262	-0.247314	0.966309
1299.0	-3.812836	-8.365416	8.274735	-0.364173	4.702204	1.15547	-0.755371	-0.244629	0.91626
1300.0	-2.860913	-5.696881	6.699808	-0.17419	4.484977	0.902295	-0.79248	-0.244141	0.870605
1301.0	0.349854	-4.781926	6.259256	-0.121132	4.414362	0.775443	-0.827637	-0.241455	0.816406
1302.0	1.930715	-4.391954	5.787071	-0.126022	4.514271	0.779998	-0.856445	-0.229736	0.74707
1303.0	3.499121	-3.635281	5.975947	-0.201634	4.775104	0.908284	-0.868408	-0.209473	0.662354
1304.0	5.170923	-2.530056	6.73001	-0.41867	5.144267	1.225932	-0.867188	-0.186768	0.588623
1305.0	6.092954	-1.721665	7.154436	-0.764184	5.553254	1.683808	-0.851074	-0.157715	0.510254
1306.0	5.93704	-1.701713	6.918203	-1.091218	5.913192	2.11593	-0.830811	-0.124512	0.438721
1307.0	6.0568	-1.866076	6.746724	-1.306838	6.151395	2.407376	-0.794922	-0.095459	0.384521
1308.0	6.549559	-1.336186	6.800239	-1.468378	6.298914	2.553742	-0.76123	-0.068848	0.332275
1309.0	7.228276	-0.738702	6.937904	-1.655123	6.402298	2.621058	-0.727539	-0.040283	0.299805
1310.0	7.754712	-0.266031	6.767819	-1.87592	6.444331	2.602688	-0.69165	-0.013916	0.262939
1311.0	8.804005	-0.193498	6.750785	-2.103773	6.403907	2.498393	-0.660156	0.010254	0.236816
1312.0	10.317245	-0.326262	6.850666	-2.304909	6.276925	2.292852	-0.632568	0.030029	0.221436
