Acquisition frequency: 100 Hz
PacketCounter	Acc_X	Acc_Y	Acc_Z	Gyr_X	Gyr_Y	Gyr_Z	Mag_X	Mag_Y	Mag_Z
2.0	6.453931	0.915304	7.816006	-0.005158	0.006601	-0.015763	-0.672852	0.046143	-0.254639
3.0	6.44013	0.893779	7.793166	-0.016627	0.010152	-0.01676	-0.673096	0.050537	-0.25708
4.0	6.42936	0.871472	7.794604	-0.011591	0.007971	-0.017157	-0.672852	0.04834	-0.261475
5.0	6.456796	0.860587	7.840636	-0.008799	0.009593	-0.013583	-0.670898	0.04834	-0.263916
6.0	6.440596	0.893562	7.819493	-0.013356	0.010555	-0.018748	-0.675293	0.050293	-0.25708
7.0	6.436565	0.894289	7.796053	-0.01102	0.010063	-0.01526	-0.670898	0.04834	-0.25708
8.0	6.438664	0.893789	7.821057	-0.011846	0.011344	-0.015148	-0.672852	0.046143	-0.254639
9.0	6.44005	0.839445	7.820184	-0.01031	0.008804	-0.017192	-0.672852	0.046143	-0.259277
10.0	6.462155	0.8839	7.843547	-0.008774	0.006263	-0.019237	-0.666504	0.04834	-0.263916
11.0	6.436111	0.894657	7.823059	-0.014068	0.011813	-0.016829	-0.672852	0.046143	-0.25708
12.0	6.457259	0.884992	7.820788	-0.006809	0.009166	-0.015547	-0.674805	0.041748	-0.254639
13.0	6.434238	0.895284	7.824528	-0.01125	0.010106	-0.018901	-0.668701	0.04834	-0.254639
14.0	6.445537	0.863508	7.822913	-0.009144	0.009658	-0.019043	-0.672852	0.04834	-0.252441
15.0	6.429248	0.896918	7.801786	-0.006583	0.011325	-0.019096	-0.668701	0.04834	-0.263916
16.0	6.428226	0.897163	7.8026	-0.015236	0.010954	-0.014997	-0.670898	0.050537	-0.254883
17.0	6.430336	0.896368	7.827611	-0.014409	0.009673	-0.015112	-0.66626	0.046143	-0.261475
18.0	6.426249	0.897161	7.804228	-0.005902	0.013396	-0.015379	-0.670898	0.052734	-0.259277
19.0	6.45035	0.886703	7.826294	-0.018623	0.010565	-0.014839	-0.670654	0.046143	-0.25708
20.0	6.427288	0.896513	7.830097	-0.00903	0.009637	-0.017236	-0.675049	0.046143	-0.25708
21.0	6.426345	0.89674	7.830845	-0.013243	0.010529	-0.016961	-0.670898	0.04834	-0.254639
22.0	6.459864	0.854832	7.826182	-0.010196	0.00878	-0.015397	-0.675293	0.050293	-0.25708
23.0	6.421501	0.897687	7.808075	-0.009743	0.010894	-0.01531	-0.677246	0.046143	-0.259277
24.0	6.460993	0.854336	7.851955	-0.017344	0.011396	-0.014874	-0.675049	0.046143	-0.259277
25.0	6.45375	0.855888	7.804462	4.2e-05	0.015456	-0.015597	-0.67749	0.050293	-0.25708
26.0	6.420953	0.898078	7.835114	-0.007785	0.016004	-0.018797	-0.672852	0.04834	-0.25708
27.0	6.441714	0.88874	7.833172	-0.008952	0.015145	-0.016958	-0.670654	0.046143	-0.259277
28.0	6.453073	0.911186	7.857882	-0.000447	0.018874	-0.017218	-0.675293	0.050293	-0.25708
29.0	6.438662	0.889994	7.835539	-0.013994	0.017313	-0.016577	-0.668701	0.04834	-0.259277
30.0	6.436821	0.890528	7.836991	-0.001312	0.025687	-0.018637	-0.670654	0.046143	-0.25708
31.0	6.409502	0.901706	7.817466	-0.010193	0.025349	-0.018184	-0.672852	0.043945	-0.263672
32.0	6.429478	0.892316	7.816207	-0.008914	0.026184	-0.018211	-0.668701	0.050537	-0.259277
33.0	6.408169	0.90189	7.845136	-0.007862	0.024857	-0.01469	-0.672607	0.041748	-0.261475
34.0	6.425319	0.892804	7.81957	-0.012417	0.023606	-0.012693	-0.670898	0.04834	-0.25708
35.0	6.436074	0.91469	7.844819	-0.004364	0.025225	-0.013035	-0.672852	0.043945	-0.256836
36.0	6.440171	0.884107	7.79588	-0.013507	0.030464	-0.017756	-0.670654	0.043945	-0.256836
37.0	6.396507	0.903517	7.827893	0.00124	0.025151	-0.011513	-0.668457	0.046143	-0.259277
38.0	6.451444	0.905969	7.8473	-0.012796	0.026997	-0.012509	-0.673096	0.050537	-0.263916
39.0	6.436182	0.884011	7.825772	-0.012165	0.034596	-0.010319	-0.670654	0.046143	-0.259277
40.0	6.443008	0.906784	7.827566	0.005218	0.038676	-0.011011	-0.670898	0.04834	-0.254639
41.0	6.401116	0.871459	7.858424	-0.015931	0.037594	-0.009979	-0.672852	0.046143	-0.261475
42.0	6.402286	0.949163	7.837863	0.005327	0.038652	-0.009198	-0.675049	0.04834	-0.259277
43.0	6.370417	0.935727	7.867935	-0.017454	0.032382	0.000767	-0.668457	0.046143	-0.254639
44.0	6.414628	0.860183	7.862718	-0.024594	0.037199	-0.005924	-0.672852	0.04834	-0.259277
45.0	6.403366	0.914607	7.818517	-0.013512	0.034865	0.002514	-0.670898	0.050537	-0.259277
46.0	6.418889	0.879713	7.866971	-0.021781	0.03329	-0.000807	-0.670898	0.04834	-0.263916
47.0	6.444906	0.837974	7.815654	-0.013603	0.037102	-0.006502	-0.672852	0.04834	-0.261475
48.0	6.400536	0.910827	7.874289	0.007274	0.041555	-0.005497	-0.66626	0.046143	-0.261475
49.0	6.400191	0.91057	7.901085	-0.005444	0.0387	-0.005015	-0.670898	0.050537	-0.266113
50.0	6.397951	0.881	7.804421	-0.002225	0.042437	-0.001334	-0.670654	0.046143	-0.266113
51.0	6.413083	0.955014	7.905449	-0.001563	0.044501	0.002386	-0.670898	0.04834	-0.263916
52.0	6.440534	0.805629	7.82715	-0.012013	0.054433	-0.003896	-0.672852	0.04834	-0.261475
53.0	6.435689	0.807368	7.830955	0.04819	0.068314	-0.006148	-0.672852	0.04834	-0.263916
54.0	6.369599	0.946636	7.944045	0.027895	0.068159	-0.012488	-0.670654	0.046143	-0.263916
55.0	6.383587	0.778044	7.842728	0.001734	0.054873	-0.015558	-0.668701	0.04834	-0.263916
56.0	6.326833	0.964364	7.856797	0.059108	0.053887	-0.012921	-0.670898	0.050537	-0.261719
57.0	6.279853	1.064447	7.818125	-0.005733	0.050889	0.002826	-0.672852	0.04834	-0.259277
58.0	6.399612	0.982016	7.80517	-0.018282	0.045774	0.01412	-0.675049	0.046143	-0.263916
59.0	6.503315	0.828913	7.915474	-0.003604	0.06257	0.016074	-0.670654	0.046143	-0.270752
60.0	6.440785	0.881188	7.927812	0.044013	0.084609	0.014893	-0.670654	0.046143	-0.266113
61.0	6.43416	0.884166	7.932859	0.057762	0.086136	0.017939	-0.670898	0.04834	-0.266113
62.0	6.317909	0.906299	7.852417	0.042416	0.092669	0.01529	-0.668945	0.054932	-0.266357
63.0	6.269338	1.035661	7.939051	0.057422	0.087294	0.027073	-0.666504	0.050537	-0.268555
64.0	6.218669	0.947566	7.89745	-0.013629	0.07572	0.024303	-0.66626	0.046143	-0.261475
65.0	6.288197	0.698486	7.862843	-0.014938	0.051713	0.012259	-0.668945	0.054932	-0.270752
66.0	6.298758	0.799635	7.84215	0.058512	0.047324	-0.00043	-0.664063	0.043945	-0.272949
67.0	6.263155	1.006806	7.951162	0.049567	0.04478	0.00714	-0.666504	0.050537	-0.266113
68.0	6.2673	0.922528	7.87704	-0.01716	0.035622	0.013382	-0.668701	0.04834	-0.268311
69.0	6.289276	0.910725	7.901117	0.013268	0.04025	0.026812	-0.670654	0.046143	-0.268311
70.0	6.11666	0.956041	7.873187	-0.024487	0.022799	0.02952	-0.664307	0.050537	-0.266113
71.0	6.26641	0.913787	7.931246	-0.024789	0.009607	0.034388	-0.664063	0.046143	-0.268311
72.0	6.320495	0.912142	7.926205	-0.027228	0.002386	0.037802	-0.668701	0.050537	-0.268555
73.0	6.354425	0.998554	7.876473	-0.008292	0.016045	0.04853	-0.666504	0.04834	-0.266113
74.0	6.351381	1.022776	7.977111	-0.040435	0.02171	0.064795	-0.668701	0.052734	-0.272949
75.0	6.335139	0.884169	7.879231	-0.095116	0.022222	0.072667	-0.666748	0.054932	-0.266357
76.0	6.323781	0.904866	7.908155	-0.052718	0.036398	0.086022	-0.671143	0.054932	-0.268555
77.0	6.290146	0.935146	7.939836	-0.092278	0.027125	0.085428	-0.67334	0.057129	-0.273193
78.0	6.330133	0.76961	7.958536	-0.120422	0.030912	0.081287	-0.668945	0.057129	-0.270752
79.0	6.328073	0.702389	7.935125	-0.095974	0.029045	0.070997	-0.668945	0.054932	-0.266357
80.0	6.333683	0.768946	7.939275	-0.050178	0.036946	0.069429	-0.668701	0.052734	-0.263916
81.0	6.306689	0.770074	7.920392	-0.0839	0.035336	0.065251	-0.666748	0.057129	-0.273193
82.0	6.237391	0.681706	7.878464	-0.087935	0.032899	0.061615	-0.668701	0.052734	-0.266113
83.0	6.183742	0.535632	7.954708	-0.087851	0.003167	0.038272	-0.664795	0.059326	-0.273193
84.0	6.314637	0.470442	7.914757	-0.028032	-0.015046	0.011293	-0.666992	0.059326	-0.26416
85.0	6.354537	0.721455	7.967409	0.035183	-0.015268	-0.003997	-0.671387	0.059082	-0.266357
86.0	6.376435	0.875162	8.018437	0.008432	-0.012877	0.002657	-0.664551	0.057129	-0.270752
87.0	6.411316	0.857713	7.915733	-0.017311	-0.000759	0.009759	-0.666748	0.057129	-0.268555
88.0	6.398481	0.834202	7.892225	-0.014282	0.011818	0.015721	-0.669189	0.059326	-0.270996
89.0	6.350608	0.826617	7.971696	-0.027931	0.019144	0.020272	-0.666992	0.061523	-0.273193
90.0	6.370586	0.705279	7.917847	-0.043878	0.018181	0.015398	-0.664795	0.061523	-0.273193
91.0	6.386516	0.72162	7.991947	-0.016204	0.023275	0.016366	-0.664795	0.061523	-0.270996
92.0	6.385361	0.773086	8.01978	-0.011533	0.018945	0.017779	-0.669189	0.059326	-0.275391
93.0	6.363375	0.672684	7.995284	-0.02253	0.021367	0.009237	-0.67334	0.059082	-0.270996
94.0	6.344615	0.705879	7.950548	0.014123	0.023458	0.00426	-0.666992	0.063477	-0.268799
95.0	6.340895	0.761377	7.953904	0.011555	0.018533	-0.003164	-0.669189	0.061279	-0.268555
96.0	6.307395	0.749586	7.957754	-0.005949	0.014573	-0.004496	-0.671387	0.061279	-0.268555
97.0	6.338106	0.707959	7.929399	-0.005492	0.011148	-0.002867	-0.666992	0.061523	-0.270996
98.0	6.30557	0.749127	7.959243	-0.005127	0.007755	-0.003051	-0.666992	0.059326	-0.266357
99.0	6.324671	0.73871	7.932961	-0.029594	0.006371	-0.000349	-0.669434	0.065674	-0.270996
100.0	6.32703	0.816074	7.887	0.001471	0.011837	0.000535	-0.666992	0.063477	-0.270996
101.0	6.317235	1.008071	7.993937	0.002387	0.022589	0.015588	-0.669189	0.061523	-0.277832
102.0	6.304682	0.84801	8.040339	-0.082292	0.019684	0.035074	-0.669434	0.065674	-0.270996
103.0	6.316893	0.64577	7.984519	-0.068002	0.014399	0.034238	-0.665039	0.067871	-0.277832
104.0	6.348659	0.706268	8.00933	-0.013481	0.011504	0.032008	-0.677979	0.063477	-0.268799
105.0	6.358559	0.77908	8.036391	-0.011835	0.008939	0.031811	-0.666992	0.061279	-0.266357
106.0	6.328465	0.734242	7.940228	-0.032371	0.004483	0.03781	-0.665039	0.063721	-0.270996
107.0	6.317683	0.627346	8.011482	-0.043005	-0.002006	0.0306	-0.669434	0.067871	-0.273438
108.0	6.345245	0.5852	8.154253	-0.028815	-0.019315	0.014636	-0.669434	0.065674	-0.273193
109.0	6.413701	0.4188	8.18806	-0.047014	-0.066005	-0.012536	-0.669189	0.063477	-0.273193
110.0	6.607194	0.4154	8.188673	0.030033	-0.085735	-0.041937	-0.671387	0.061279	-0.266357
111.0	6.546054	0.856395	8.230936	0.098405	-0.076187	-0.042282	-0.666992	0.063477	-0.266357
112.0	6.569709	1.202461	8.211981	0.006238	-0.072051	-0.005785	-0.669189	0.059326	-0.268555
113.0	6.409372	1.028544	8.120467	-0.171528	-0.084792	0.027755	-0.666992	0.061279	-0.26416
114.0	6.443258	0.730526	8.053871	-0.195697	-0.079776	0.050652	-0.669189	0.061279	-0.266357
115.0	6.567958	0.741242	8.012819	-0.124442	-0.124139	0.072614	-0.669434	0.067871	-0.268799
116.0	6.733427	0.683002	8.110436	-0.132042	-0.112525	0.069802	-0.671631	0.067871	-0.26416
117.0	6.780504	-0.344402	8.372226	-0.287974	-0.175528	0.019432	-0.66748	0.070068	-0.261963
118.0	6.669941	-1.158526	7.498718	0.00809	-0.22136	-0.042365	-0.669434	0.067871	-0.26416
119.0	6.58922	0.943614	7.688003	1.22623	-0.068226	0.020432	-0.669189	0.063477	-0.261963
120.0	6.037305	2.671977	8.444655	1.237701	-0.036555	0.172946	-0.671387	0.059082	-0.26416
121.0	6.138374	2.92051	8.337905	0.207089	-0.239649	0.27618	-0.666992	0.061279	-0.259521
122.0	6.030994	4.544402	7.842586	0.545664	-0.123372	0.011575	-0.671387	0.059082	-0.259521
123.0	6.199048	5.955366	8.937002	1.563527	0.084584	-0.449451	-0.668701	0.04834	-0.261475
124.0	6.656874	6.0168	10.351018	0.462674	0.216397	-0.842966	-0.668701	0.04834	-0.263916
125.0	4.275588	3.914891	8.648319	-0.744155	0.228042	-1.049735	-0.670654	0.043945	-0.268311
126.0	4.1491	2.227997	8.27234	-0.828881	0.176139	-1.010554	-0.668213	0.039551	-0.272705
127.0	4.520386	0.741434	8.730325	-0.338177	0.299591	-0.923942	-0.670166	0.032959	-0.274902
128.0	4.846573	-0.192933	8.898737	0.014993	0.450133	-0.850499	-0.667725	0.026611	-0.2771
129.0	4.450878	-0.515673	8.269767	0.43386	0.601359	-0.785246	-0.662842	0.015625	-0.283691
130.0	4.263589	0.262217	7.846357	0.830748	0.64939	-0.72361	-0.666748	0.009033	-0.288086
131.0	4.311995	1.093455	7.584701	0.882637	0.623072	-0.70831	-0.660156	0.004639	-0.288086
132.0	3.974021	1.087754	6.66982	0.642112	0.526379	-0.767394	-0.655518	0.000488	-0.294922
133.0	3.626775	3.391651	4.184358	1.322905	0.298812	-0.659549	-0.663574	-0.014893	-0.299072
134.0	4.874952	-0.022769	2.478721	1.222616	-0.275976	-0.123	-0.656982	-0.01709	-0.294434
135.0	7.639475	-0.677274	4.814365	-2.603966	-1.15053	0.439312	-0.670898	0.002441	-0.290283
136.0	6.879565	-2.064889	5.46301	-5.227485	-1.610655	0.702912	-0.68042	0.021973	-0.279297
137.0	18.591754	-4.731965	10.522521	-3.056419	-1.439721	0.682717	-0.680908	0.032959	-0.2771
138.0	6.818584	-3.195398	5.639303	2.07141	0.502506	0.010047	-0.67627	0.02417	-0.2771
139.0	8.225442	1.556313	10.780314	2.013081	-0.407829	0.21794	-0.678223	0.019775	-0.276855
140.0	6.615144	2.740974	8.707411	-0.215315	0.139698	-0.006128	-0.682617	0.019775	-0.276855
141.0	6.823183	1.646938	8.295045	-0.724475	-0.252464	0.075674	-0.680664	0.02417	-0.274658
142.0	6.707622	-0.153548	7.73316	-0.838875	-0.103813	0.022332	-0.687256	0.026367	-0.2771
143.0	6.67151	-0.377035	7.380106	0.083646	-0.054572	-0.04802	-0.687256	0.02417	-0.272461
144.0	6.362961	0.927629	7.930002	0.645336	0.018305	-0.103925	-0.687256	0.02417	-0.265625
145.0	6.363444	1.389049	8.110075	0.20164	-0.053983	-0.131862	-0.684814	0.019775	-0.272461
146.0	6.405987	0.80594	7.712995	-0.14494	-0.097054	-0.152552	-0.680664	0.02417	-0.267822
147.0	6.537968	0.556826	7.61044	0.103088	-0.077408	-0.162079	-0.686768	0.017578	-0.27002
148.0	6.574936	1.148445	7.838581	0.321365	-0.045663	-0.154868	-0.687012	0.019775	-0.263184
149.0	6.633819	1.840479	7.989692	0.304936	-0.02308	-0.097336	-0.68457	0.015381	-0.263184
150.0	6.491812	1.965234	8.005175	0.075179	-0.003657	-0.033991	-0.684814	0.019775	-0.272461
151.0	6.428476	1.722991	7.810707	-0.107596	-0.001483	0.02241	-0.687012	0.021973	-0.270264
152.0	6.346605	1.507787	7.768478	-0.08722	0.004692	0.066294	-0.684814	0.019775	-0.265625
153.0	6.347902	1.470746	7.84329	-0.081255	0.007943	0.116347	-0.684814	0.019775	-0.267822
154.0	6.386945	1.596052	7.918587	-0.15908	0.008763	0.168709	-0.687256	0.026367	-0.265625
155.0	6.600772	1.224384	7.911568	-0.324591	0.005814	0.200933	-0.689453	0.02417	-0.265625
156.0	6.642558	0.90782	7.828523	-0.322613	0.021883	0.203114	-0.678467	0.026367	-0.270264
157.0	6.569939	0.928019	7.745604	-0.152108	0.065253	0.200639	-0.685059	0.026367	-0.270264
158.0	6.479335	1.252335	7.873453	-0.109224	0.082459	0.219779	-0.689697	0.032959	-0.268066
159.0	6.506728	1.186523	8.023602	-0.25096	0.086749	0.226425	-0.685303	0.032959	-0.272705
160.0	6.540086	0.845237	7.818369	-0.323313	0.083785	0.221675	-0.687744	0.037354	-0.268066
161.0	6.553255	0.723507	7.820504	-0.232529	0.096484	0.210575	-0.681152	0.035156	-0.272705
162.0	6.530773	0.911167	7.865335	-0.145208	0.111907	0.205633	-0.679199	0.039551	-0.268311
163.0	6.547776	0.954297	7.850238	-0.183334	0.115905	0.199807	-0.683594	0.041748	-0.279541
164.0	6.446882	0.779423	7.78885	-0.229524	0.104012	0.183972	-0.686035	0.045898	-0.270508
165.0	6.450337	0.431908	7.827341	-0.227078	0.075663	0.133723	-0.683594	0.041748	-0.275146
166.0	6.39576	0.484561	7.842337	-0.083602	0.071721	0.098316	-0.685791	0.043945	-0.277344
167.0	6.385046	0.817942	7.965416	-0.013028	0.070406	0.086313	-0.679443	0.046143	-0.272949
168.0	6.35706	0.765135	7.920939	-0.113475	0.054748	0.077854	-0.688232	0.048096	-0.275146
169.0	6.387955	0.527213	7.858699	-0.143328	0.032269	0.057076	-0.686035	0.048096	-0.272949
170.0	6.349775	0.557321	7.867724	-0.05167	0.034697	0.035493	-0.679443	0.046143	-0.275146
171.0	6.407554	0.764761	7.875947	-0.033115	0.025783	0.025012	-0.686035	0.050293	-0.272949
172.0	6.413433	0.834714	7.906267	-0.062541	0.025905	0.02972	-0.688232	0.050293	-0.277588
173.0	6.433443	0.81747	7.906099	-0.08704	0.043666	0.040949	-0.686279	0.05249	-0.277588
174.0	6.419438	0.813028	7.813052	-0.096314	0.052828	0.05843	-0.684326	0.056885	-0.273193
175.0	6.446212	0.787183	7.886912	-0.117382	0.051374	0.060818	-0.684082	0.050293	-0.279785
176.0	6.384591	0.6395	7.86432	-0.132505	0.054424	0.055917	-0.684082	0.050293	-0.272949
177.0	6.38537	0.704116	7.873396	-0.087974	0.067716	0.057184	-0.684082	0.05249	-0.277588
178.0	6.410745	0.863441	7.984698	-0.081561	0.064057	0.065892	-0.684082	0.05249	-0.277588
179.0	6.396741	0.723172	7.90873	-0.152533	0.074342	0.079745	-0.679688	0.054688	-0.280029
180.0	6.450721	0.603938	7.876632	-0.13763	0.076879	0.081208	-0.688477	0.054688	-0.280029
181.0	6.321056	0.613726	7.872522	-0.115294	0.079145	0.078785	-0.684082	0.054688	-0.282227
182.0	6.296775	0.474904	7.91991	-0.116457	0.063426	0.055546	-0.680176	0.061279	-0.282227
183.0	6.373223	0.40467	7.911084	-0.087696	0.041706	0.03661	-0.677734	0.054932	-0.277588
184.0	6.382114	0.521988	8.020046	-0.034165	0.032626	0.021627	-0.68457	0.061279	-0.282227
185.0	6.35259	0.530724	7.976538	-0.042459	0.022499	0.008238	-0.682129	0.059082	-0.275391
186.0	6.377809	0.543933	7.927351	-0.044958	0.017687	0.000593	-0.680176	0.063477	-0.280029
187.0	6.373861	0.542937	7.904509	-0.029568	0.01921	-0.005226	-0.677979	0.061279	-0.277832
188.0	6.381307	0.482988	7.949655	-0.039454	0.011555	-0.016564	-0.682373	0.061279	-0.277832
189.0	6.337085	0.448	7.927515	-0.017486	0.003092	-0.026939	-0.682129	0.056885	-0.280029
190.0	6.384405	0.694863	7.941514	0.04314	0.016689	-0.034885	-0.68457	0.061279	-0.275391
191.0	6.400189	0.877294	7.929656	0.025778	0.029539	-0.016965	-0.677979	0.063477	-0.280029
192.0	6.341497	0.741554	7.927526	-0.04434	0.041635	0.005928	-0.675537	0.059082	-0.275391
193.0	6.325842	0.452432	7.910172	-0.057567	0.03658	0.004047	-0.679932	0.056885	-0.284424
194.0	6.305155	0.302516	7.829026	0.001549	0.024452	-0.018545	-0.679932	0.056885	-0.282227
195.0	6.37829	0.273733	7.89391	0.042901	0.010773	-0.057373	-0.677734	0.057129	-0.286865
196.0	6.366529	0.579238	7.917671	0.14738	0.024718	-0.070081	-0.679932	0.059082	-0.280029
197.0	6.313348	0.822862	8.038488	0.129253	0.021608	-0.068082	-0.679932	0.059082	-0.282227
198.0	6.377813	0.756396	7.977434	0.06646	0.016974	-0.05211	-0.681885	0.054688	-0.277588
199.0	6.356444	0.588917	7.967324	0.070179	0.014097	-0.054273	-0.681885	0.054688	-0.284424
200.0	6.399965	0.580258	7.961995	0.076164	0.013119	-0.061895	-0.682129	0.056885	-0.282227
201.0	6.516481	0.438476	7.915572	0.071343	0.016761	-0.081829	-0.684326	0.059082	-0.282227
202.0	6.425795	0.436932	7.899797	0.152966	0.03437	-0.101298	-0.686035	0.050293	-0.279785
203.0	6.343255	0.777738	7.930624	0.177835	0.038391	-0.10367	-0.681885	0.05249	-0.277588
204.0	6.285589	0.922598	7.945662	0.123967	0.047508	-0.094345	-0.67749	0.050537	-0.286621
205.0	6.251558	0.788234	7.965719	0.043937	0.038354	-0.076204	-0.675049	0.04834	-0.284424
206.0	6.299158	0.619945	7.877583	0.031935	0.028649	-0.080225	-0.681885	0.05249	-0.282227
207.0	6.332491	0.639757	7.925549	0.068047	0.035035	-0.086376	-0.684082	0.05249	-0.284424
208.0	6.313236	0.814685	7.914775	0.064374	0.043348	-0.082093	-0.679443	0.04834	-0.284424
209.0	6.250498	0.873075	7.925878	0.037713	0.04494	-0.07206	-0.67749	0.050537	-0.275391
210.0	6.296247	0.806719	7.919069	0.000425	0.0376	-0.064137	-0.681641	0.046143	-0.281982
211.0	6.312848	0.854416	7.946977	0.006162	0.046081	-0.048994	-0.675049	0.04834	-0.288818
212.0	6.286404	0.864919	7.952588	-0.029861	0.042679	-0.031615	-0.677246	0.04834	-0.279785
213.0	6.219436	0.785288	7.907661	-0.040546	0.044746	-0.033061	-0.675049	0.04834	-0.286621
214.0	6.179762	0.82493	7.916446	-0.028389	0.037925	-0.028282	-0.679688	0.050537	-0.286621
215.0	6.235891	0.774102	7.910013	-0.049628	0.02315	-0.023124	-0.677246	0.04834	-0.286621
216.0	6.223198	0.619104	7.878476	-0.061941	0.013643	-0.034513	-0.677246	0.04834	-0.288818
217.0	6.242301	0.662283	7.90486	-0.018309	0.008896	-0.045191	-0.679443	0.046143	-0.281982
218.0	6.187094	0.841871	7.970678	0.001662	-0.001466	-0.046369	-0.681641	0.046143	-0.288818
219.0	6.216381	0.859129	7.944098	-0.021231	-0.008299	-0.038827	-0.677246	0.046143	-0.281982
220.0	6.225688	0.933819	7.996635	-0.006466	-0.01036	-0.022693	-0.679443	0.046143	-0.279785
221.0	6.181252	0.950971	8.001505	-0.025404	-0.011649	-0.001944	-0.679443	0.046143	-0.281982
222.0	6.255173	0.866678	7.988783	-0.056471	-0.022571	0.011093	-0.67749	0.050537	-0.286621
223.0	6.334317	0.727004	7.971709	-0.04105	-0.023364	0.014338	-0.675293	0.050537	-0.29126
224.0	6.336084	0.723291	7.970642	-0.027875	-0.018201	0.016179	-0.684082	0.050537	-0.282227
225.0	6.346525	0.742509	7.970402	-0.036531	-0.016484	0.012806	-0.67749	0.050537	-0.279785
226.0	6.312126	0.647784	7.967093	-0.047035	-0.017625	0.005593	-0.679443	0.046143	-0.284424
227.0	6.333686	0.689148	7.991772	-0.011835	-0.015298	-0.002551	-0.677246	0.04834	-0.279785
228.0	6.25847	0.691466	7.99832	-0.032277	-0.023438	-0.006268	-0.679688	0.052734	-0.289063
229.0	6.334753	0.636931	7.912527	-0.020087	-0.025469	-0.017814	-0.679688	0.050537	-0.282227
230.0	6.318972	0.642809	7.962067	-0.004977	-0.031521	-0.022303	-0.684082	0.050293	-0.277588
231.0	6.300675	0.731631	7.943276	-0.000237	-0.033334	-0.02995	-0.684082	0.050293	-0.279785
232.0	6.361887	0.735205	7.984806	-0.006776	-0.032016	-0.033402	-0.679688	0.050537	-0.282227
233.0	6.339196	0.696089	7.908843	-0.011107	-0.031158	-0.035091	-0.683838	0.04834	-0.281982
234.0	6.313917	0.760908	7.913898	0.003014	-0.027309	-0.031508	-0.677246	0.046143	-0.277588
235.0	6.284464	0.799481	7.96684	-0.016522	-0.031288	-0.033119	-0.679443	0.04834	-0.279785
236.0	6.354749	0.722231	7.903851	-0.029336	-0.036708	-0.027599	-0.681641	0.046143	-0.284424
237.0	6.379749	0.713556	7.899091	-0.012463	-0.028886	-0.027529	-0.67749	0.050537	-0.277588
238.0	6.347869	0.752563	7.927968	-0.020854	-0.027362	-0.025358	-0.681885	0.052734	-0.284424
239.0	6.363516	0.720991	7.922942	-0.021712	-0.026104	-0.025256	-0.677246	0.046143	-0.284424
240.0	6.315288	0.792822	7.931306	-0.013499	-0.024434	-0.021664	-0.679443	0.046143	-0.284424
241.0	6.326061	0.815399	7.930464	-0.019041	-0.026873	-0.014277	-0.681885	0.050537	-0.284424
242.0	6.338177	0.705294	7.920367	-0.047418	-0.036905	-0.016058	-0.679688	0.052734	-0.277588
243.0	6.379764	0.611095	7.883394	-0.019318	-0.037618	-0.022429	-0.686035	0.050293	-0.282227
244.0	6.384046	0.741735	7.9144	0.008421	-0.035012	-0.026712	-0.686279	0.05249	-0.277588
245.0	6.414298	0.680062	7.904963	-0.023573	-0.039896	-0.031743	-0.681885	0.05249	-0.279785
246.0	6.389324	0.693435	7.85719	0.005564	-0.031047	-0.03194	-0.681396	0.043945	-0.279785
247.0	6.363915	0.809646	7.91507	0.005203	-0.027732	-0.029854	-0.683838	0.04834	-0.279785
248.0	6.354651	0.789716	7.888411	-0.019055	-0.029949	-0.023781	-0.684082	0.050293	-0.272949
249.0	6.393089	0.749646	7.880261	-0.012461	-0.02582	-0.018124	-0.681641	0.046143	-0.281982
250.0	6.392426	0.751143	7.854558	-0.020945	-0.024247	-0.017782	-0.681885	0.050537	-0.277588
251.0	6.437923	0.706174	7.919422	-0.009511	-0.019598	-0.025197	-0.686035	0.050293	-0.275391
252.0	6.442907	0.733154	7.870581	-0.007348	-0.014556	-0.023056	-0.681641	0.04834	-0.279785
253.0	6.389714	0.728598	7.875025	-0.009066	-0.012042	-0.022835	-0.679199	0.043945	-0.275146
254.0	6.379014	0.759265	7.902289	-0.004878	-0.007329	-0.022626	-0.679443	0.046143	-0.275146
255.0	6.368066	0.738842	7.877035	-0.014625	-0.006624	-0.022304	-0.683838	0.04834	-0.279785
256.0	6.402493	0.700716	7.845816	-0.014168	-0.010002	-0.022556	-0.686035	0.048096	-0.275146
257.0	6.391596	0.731143	7.873261	-0.006694	-0.004751	-0.024256	-0.681885	0.05249	-0.279785
258.0	6.400644	0.754915	7.873623	-0.005739	-0.006071	-0.022523	-0.684082	0.050293	-0.275391
259.0	6.383345	0.761137	7.924714	-0.011531	-0.005962	-0.027919	-0.679443	0.046143	-0.277588
260.0	6.374955	0.738922	7.92368	-0.015027	-0.008749	-0.022454	-0.69043	0.048096	-0.277588
261.0	6.399088	0.758367	7.848436	-0.011511	-0.002904	-0.018433	-0.686035	0.048096	-0.277588
262.0	6.379075	0.765171	7.875564	-0.018944	-0.002726	-0.014502	-0.679688	0.050537	-0.275391
263.0	6.355551	0.694673	7.897605	-0.019938	-0.00684	-0.018478	-0.686035	0.050293	-0.279785
264.0	6.382508	0.712252	7.846359	-0.012446	-0.012515	-0.022804	-0.679443	0.04834	-0.275146
265.0	6.363272	0.720052	7.872773	-0.004056	-0.01401	-0.025005	-0.686035	0.050293	-0.277588
266.0	6.386929	0.713037	7.868829	-0.000503	-0.016717	-0.030868	-0.683838	0.04834	-0.277588
267.0	6.419607	0.729351	7.865283	0.002844	-0.021674	-0.033176	-0.681641	0.046143	-0.275146
268.0	6.400855	0.738668	7.891173	0.004503	-0.018687	-0.033016	-0.681641	0.046143	-0.270752
269.0	6.388209	0.721705	7.840854	0.002284	-0.018234	-0.034782	-0.681641	0.048096	-0.268311
270.0	6.409176	0.768402	7.865373	0.00965	-0.012905	-0.038334	-0.683838	0.048096	-0.272949
271.0	6.389929	0.778025	7.891638	0.00056	-0.015726	-0.034564	-0.679443	0.04834	-0.277588
272.0	6.391081	0.729338	7.837807	-0.001863	-0.017525	-0.03277	-0.684082	0.050293	-0.279785
273.0	6.440933	0.791842	7.835649	0.015908	-0.016378	-0.033209	-0.686035	0.045898	-0.272949
274.0	6.432779	0.822002	7.886996	-0.00933	-0.00643	-0.026195	-0.683838	0.048096	-0.266113
275.0	6.433325	0.771686	7.833831	-0.018416	-0.009257	-0.022419	-0.685791	0.043701	-0.268311
276.0	6.416018	0.777468	7.885062	-0.00244	-9.6e-05	-0.022233	-0.681641	0.046143	-0.275146
277.0	6.410626	0.781155	7.836777	-0.02396	0.001578	-0.01963	-0.681641	0.04834	-0.275146
278.0	6.398247	0.731586	7.884088	-0.020877	-0.000127	-0.017986	-0.688232	0.045898	-0.275146
279.0	6.43533	0.770318	7.858491	-0.00994	0.005565	-0.017898	-0.683838	0.048096	-0.272949
280.0	6.437432	0.768896	7.883076	-0.013816	0.003025	-0.019828	-0.683838	0.046143	-0.270508
281.0	6.408166	0.752775	7.910056	-0.01969	0.006238	-0.017571	-0.681641	0.046143	-0.272949
282.0	6.411106	0.77865	7.862792	-0.016606	0.004534	-0.015926	-0.685547	0.039551	-0.270508
283.0	6.356568	0.772474	7.868601	-0.017371	0.005722	-0.013961	-0.679443	0.04834	-0.270752
284.0	6.421676	0.74832	7.835649	-0.017495	0.000355	-0.018064	-0.686035	0.048096	-0.275146
285.0	6.426569	0.745034	7.884287	-0.008214	0.003061	-0.018137	-0.686035	0.048096	-0.277588
286.0	6.421191	0.748833	7.835998	-0.011029	-0.000864	-0.016481	-0.683838	0.046143	-0.281982
287.0	6.423557	0.747466	7.860356	-0.008215	0.003062	-0.018139	-0.683838	0.046143	-0.279785
288.0	6.391808	0.733611	7.862974	-0.009079	0.004315	-0.018026	-0.686035	0.048096	-0.270752
289.0	6.397224	0.809449	7.892574	-0.005228	0.001425	-0.018345	-0.683838	0.046143	-0.272949
290.0	6.39986	0.757389	7.864061	-0.014015	0.000771	-0.016284	-0.685791	0.043701	-0.263672
291.0	6.419806	0.750672	7.836957	-0.011893	0.000387	-0.016374	-0.686035	0.048096	-0.272949
292.0	6.418855	0.722968	7.908917	-0.006783	-0.001632	-0.016666	-0.686035	0.048096	-0.272949
293.0	6.424866	0.747896	7.885404	-0.011029	-0.000866	-0.016492	-0.686035	0.048096	-0.277588
294.0	6.419565	0.751572	7.837068	-0.010635	0.001256	-0.01635	-0.683838	0.048096	-0.270752
295.0	6.410418	0.77977	7.889388	-0.005033	0.001295	-0.014647	-0.684082	0.05249	-0.277588
296.0	6.38485	0.78988	7.868442	-0.017574	0.003457	-0.010415	-0.688232	0.048096	-0.272949
297.0	6.441417	0.742567	7.834789	-0.019599	0.003773	-0.008476	-0.683838	0.046143	-0.272949
298.0	6.435039	0.717352	7.858623	-0.01207	0.003563	-0.010565	-0.683838	0.048096	-0.272949
299.0	6.446768	0.766302	7.811941	-0.011205	0.002311	-0.010682	-0.681641	0.046143	-0.272949
300.0	6.440314	0.741237	7.835821	-0.018048	0.006831	-0.010162	-0.686035	0.048096	-0.268311
301.0	6.428176	0.770285	7.864348	-0.013998	0.006201	-0.014044	-0.688232	0.048096	-0.277588
302.0	6.407222	0.776464	7.892309	-0.018129	0.012328	-0.009762	-0.688232	0.045898	-0.272949
303.0	6.426335	0.768656	7.866011	-0.023437	0.012086	-0.005913	-0.681885	0.050293	-0.275391
304.0	6.437035	0.737636	7.838855	-0.026443	0.008289	-0.007971	-0.688232	0.050293	-0.270752
305.0	6.419108	0.690913	7.838043	-0.017851	0.00909	-0.013734	-0.683838	0.048096	-0.272949
306.0	6.412787	0.744966	7.843245	-0.009554	0.0077	-0.017787	-0.684082	0.050293	-0.277588
307.0	6.434604	0.736735	7.840935	-0.014275	0.011837	-0.017357	-0.688232	0.045898	-0.279785
308.0	6.410895	0.744936	7.844795	-0.01524	0.010762	-0.011827	-0.686035	0.050293	-0.270752
309.0	6.412405	0.742745	7.869903	-0.017167	0.013401	-0.015307	-0.69043	0.050293	-0.275146
310.0	6.417299	0.766858	7.847437	-0.01823	0.012393	-0.011631	-0.686035	0.048096	-0.275146
311.0	6.410204	0.741496	7.871814	-0.020451	0.012842	-0.013402	-0.686035	0.048096	-0.277588
312.0	6.420775	0.711557	7.844676	-0.015435	0.010899	-0.015544	-0.688232	0.048096	-0.270752
313.0	6.422362	0.709681	7.869682	-0.013409	0.010588	-0.017484	-0.686035	0.048096	-0.272949
314.0	6.450082	0.725834	7.844096	-0.016302	0.01215	-0.015433	-0.679443	0.04834	-0.272949
315.0	6.406116	0.740807	7.875206	-0.012249	0.011528	-0.019312	-0.683838	0.048096	-0.272949
316.0	6.411013	0.765571	7.852699	-0.015143	0.01309	-0.017261	-0.688232	0.045898	-0.272949
317.0	6.392984	0.719672	7.851851	-0.013508	0.008257	-0.012075	-0.686035	0.050293	-0.266113
318.0	6.425884	0.732235	7.874624	-0.014373	0.011908	-0.019235	-0.683838	0.046143	-0.270508
319.0	6.422276	0.734328	7.851261	-0.008772	0.011953	-0.017517	-0.683838	0.046143	-0.275146
320.0	6.421243	0.734716	7.85207	-0.010029	0.011081	-0.017551	-0.686035	0.050293	-0.275391
321.0	6.397477	0.74325	7.855901	-0.014277	0.011838	-0.017387	-0.681641	0.04834	-0.272949
322.0	6.387952	0.720556	7.855864	-0.011382	0.010278	-0.019442	-0.684082	0.050293	-0.268555
323.0	6.404141	0.767017	7.858164	-0.002018	0.007515	-0.019888	-0.688232	0.045898	-0.270508
324.0	6.394937	0.744578	7.857843	-0.016216	0.006647	-0.015863	-0.684082	0.05249	-0.275391
325.0	6.428705	0.707109	7.827319	-0.007619	0.00747	-0.021614	-0.686035	0.045898	-0.272949
326.0	6.422159	0.761886	7.832615	-0.007039	0.009452	-0.017758	-0.681885	0.050293	-0.272949
327.0	6.392609	0.745922	7.859609	-0.011676	0.008084	-0.017742	-0.690674	0.054688	-0.277588
328.0	6.391861	0.746366	7.860176	-0.007523	0.0074	-0.019764	-0.686035	0.048096	-0.272949
329.0	6.40543	0.715422	7.856859	-0.016313	0.006714	-0.01773	-0.686035	0.045898	-0.272949
330.0	6.404809	0.715613	7.857348	-0.006463	0.00601	-0.016168	-0.683838	0.048096	-0.272949
331.0	6.435404	0.730834	7.855678	-0.008971	0.006668	-0.023515	-0.683838	0.048096	-0.270752
332.0	6.412038	0.739773	7.859114	-0.007719	0.005136	-0.016204	-0.686279	0.05249	-0.272949
333.0	6.434162	0.732071	7.856581	-0.00762	0.007471	-0.021629	-0.686035	0.048096	-0.275146
334.0	6.410606	0.741133	7.860154	-0.008489	0.008721	-0.021516	-0.683838	0.048096	-0.275146
335.0	6.430105	0.735187	7.833517	-0.010809	0.006831	-0.017871	-0.681396	0.043945	-0.275146
336.0	6.417593	0.764922	7.862145	-0.00965	0.007776	-0.019696	-0.686035	0.050293	-0.275391
337.0	6.410844	0.74059	7.886093	-0.010424	0.008955	-0.017727	-0.683838	0.048096	-0.272949
338.0	6.452997	0.72629	7.856577	-0.009264	0.0099	-0.019552	-0.683838	0.048096	-0.275146
339.0	6.389816	0.776423	7.842832	-0.011001	0.006973	-0.021594	-0.683838	0.046143	-0.277344
340.0	6.43454	0.760046	7.837508	-0.013228	0.010435	-0.013822	-0.688232	0.048096	-0.272949
341.0	6.40488	0.743385	7.864608	-0.015449	0.010881	-0.015602	-0.679688	0.052734	-0.277588
342.0	6.435174	0.757774	7.863288	-0.014484	0.009561	-0.01386	-0.683594	0.043945	-0.275146
343.0	6.400492	0.744886	7.841972	-0.01294	0.01263	-0.015537	-0.681396	0.043945	-0.272949
344.0	6.418836	0.709897	7.887327	-0.014579	0.009632	-0.015722	-0.69043	0.048096	-0.275146
345.0	6.392662	0.720305	7.866806	-0.005789	0.010332	-0.01775	-0.681641	0.046143	-0.268311
346.0	6.425513	0.733747	7.889569	-0.007523	0.007405	-0.019794	-0.683838	0.048096	-0.272949
347.0	6.399545	0.744365	7.868857	-0.010809	0.006832	-0.017893	-0.69043	0.048096	-0.277588
348.0	6.421455	0.73668	7.86654	-0.006851	0.011725	-0.021358	-0.688477	0.05249	-0.275391
349.0	6.38935	0.722829	7.869265	-0.007618	0.007477	-0.021658	-0.681641	0.04834	-0.277588
350.0	6.417162	0.740274	7.843645	-0.004727	0.011352	-0.021441	-0.681641	0.04834	-0.270752
351.0	6.395949	0.747518	7.871481	-0.007618	0.007477	-0.021662	-0.686035	0.045898	-0.270508
352.0	6.409678	0.717215	7.868055	-0.008096	0.005425	-0.023673	-0.688232	0.048096	-0.277588
353.0	6.397068	0.747657	7.896606	-8.3e-05	0.007309	-0.023725	-0.681641	0.04834	-0.277588
354.0	6.416736	0.742553	7.869837	-0.005876	0.00498	-0.021896	-0.686035	0.048096	-0.272949
355.0	6.407937	0.720806	7.869145	-0.00345	0.001382	-0.025958	-0.683838	0.048096	-0.272949
356.0	6.415727	0.745336	7.870397	0.00098	0.008331	-0.027415	-0.686035	0.048096	-0.270752
357.0	6.420908	0.771531	7.847559	-0.005877	0.004979	-0.021902	-0.684082	0.05249	-0.277588
358.0	6.412022	0.749727	7.84695	-0.001625	0.004238	-0.02206	-0.686035	0.048096	-0.277588
359.0	6.396994	0.781717	7.851232	-0.008687	0.006451	-0.017994	-0.681885	0.05249	-0.272949
360.0	6.405027	0.726176	7.87102	-0.012542	0.003893	-0.019964	-0.686035	0.048096	-0.275146
361.0	6.424908	0.720622	7.84415	-0.001531	0.004167	-0.020204	-0.683838	0.046143	-0.272949
362.0	6.435211	0.742664	7.869624	-0.005783	0.004906	-0.02005	-0.681641	0.046143	-0.275146
363.0	6.411996	0.751838	7.872818	-0.003259	0.001238	-0.022253	-0.69043	0.045898	-0.272949
364.0	6.409147	0.754958	7.848797	-0.001626	0.00424	-0.022069	-0.688232	0.048096	-0.275146
365.0	6.419382	0.777083	7.874304	-0.0081	0.005419	-0.023701	-0.683838	0.04834	-0.277588
366.0	6.402301	0.731958	7.872702	-0.007323	0.001831	-0.018382	-0.685791	0.043945	-0.275146
367.0	6.410343	0.755778	7.873788	-0.003259	0.001239	-0.02226	-0.681641	0.04834	-0.277588
368.0	6.430353	0.750711	7.846782	-0.00288	0.003363	-0.022112	-0.688232	0.048096	-0.266113
369.0	6.415379	0.782757	7.850969	-0.007039	0.004027	-0.020098	-0.681641	0.046143	-0.279785
370.0	6.42952	0.752409	7.847302	-0.007417	0.001902	-0.02025	-0.683838	0.048096	-0.272949
371.0	6.437379	0.776066	7.848543	-0.004346	0.005638	-0.016304	-0.679443	0.04834	-0.275146
372.0	6.374469	0.746895	7.853051	-0.011694	0.008059	-0.017824	-0.683838	0.048096	-0.268311
373.0	6.442446	0.722921	7.844561	-0.01089	0.001464	-0.022077	-0.688232	0.045898	-0.270508
374.0	6.396295	0.740006	7.850795	-0.003377	0.006736	-0.021858	-0.686035	0.050293	-0.270752
375.0	6.443851	0.723157	7.869445	-0.003069	0.003512	-0.025849	-0.688232	0.045898	-0.268311
376.0	6.426377	0.757909	7.849346	0.003122	0.002558	-0.029806	-0.683838	0.046143	-0.275146
377.0	6.413758	0.78881	7.87772	-0.003945	0.004756	-0.025741	-0.683838	0.046143	-0.272949
378.0	6.408203	0.793973	7.829672	-0.004914	0.006074	-0.027493	-0.681641	0.046143	-0.272949
379.0	6.39339	0.747201	7.852479	-0.008509	0.008712	-0.021603	-0.683594	0.041748	-0.277344
380.0	6.429564	0.787631	7.827758	-0.007916	0.005269	-0.020006	-0.688232	0.045898	-0.270508
381.0	6.414924	0.740409	7.850475	-0.012358	0.006145	-0.023583	-0.683838	0.046143	-0.270508
382.0	6.401199	0.722037	7.801472	-0.003662	0.004539	-0.020161	-0.686035	0.046143	-0.277344
383.0	6.442432	0.759025	7.825029	-0.005978	0.00505	-0.023815	-0.688232	0.045898	-0.275146
384.0	6.406716	0.796904	7.856618	-0.011796	0.008122	-0.019711	-0.684082	0.050293	-0.275391
385.0	6.420567	0.766525	7.853263	-0.004164	0.007909	-0.019902	-0.686035	0.045898	-0.268311
386.0	6.430446	0.788084	7.879056	-0.01383	0.008412	-0.017776	-0.688232	0.048096	-0.268311
387.0	6.393665	0.777121	7.833236	-0.010358	0.008855	-0.015951	-0.686035	0.048096	-0.272949
388.0	6.418209	0.767551	7.855091	-0.007448	0.00732	-0.018005	-0.683594	0.043945	-0.272949
389.0	6.417298	0.767827	7.855808	-0.012988	0.012587	-0.015615	-0.677246	0.046143	-0.268311
390.0	6.393539	0.77552	7.859514	-0.016833	0.007599	-0.010289	-0.683838	0.048096	-0.272949
391.0	6.409864	0.742265	7.880457	-0.011142	0.010026	-0.013979	-0.681641	0.04834	-0.275146
392.0	6.414798	0.767234	7.857908	-0.011609	0.007975	-0.015997	-0.686035	0.050293	-0.268311
393.0	6.426296	0.738421	7.830327	-0.009575	0.007686	-0.017938	-0.688232	0.050293	-0.263916
394.0	6.4133	0.767944	7.85906	-0.009669	0.00776	-0.019804	-0.686035	0.048096	-0.272949
395.0	6.412514	0.768446	7.859653	-0.008325	0.008567	-0.017902	-0.688232	0.048096	-0.268311
396.0	6.401143	0.747932	7.834992	-0.007448	0.007323	-0.018017	-0.686035	0.048096	-0.268311
397.0	6.44444	0.7824	7.883128	-0.009017	0.009662	-0.014062	-0.683594	0.039551	-0.275146
398.0	6.433157	0.761398	7.858447	-0.013139	0.004891	-0.014332	-0.683838	0.048096	-0.275146
399.0	6.420132	0.790498	7.887221	-0.009988	0.01098	-0.015817	-0.683594	0.043945	-0.275146
400.0	6.406132	0.771267	7.838578	-0.017528	0.011108	-0.013773	-0.683594	0.043945	-0.272949
401.0	6.399461	0.746097	7.862548	-0.011145	0.010024	-0.013994	-0.683838	0.046143	-0.272949
402.0	6.375691	0.753882	7.866219	-0.016651	0.009864	-0.01389	-0.69043	0.050293	-0.268311
403.0	6.42069	0.737996	7.860977	-0.00879	0.006519	-0.019932	-0.683838	0.046143	-0.270508
404.0	6.405379	0.769367	7.865379	-0.00754	0.004976	-0.012581	-0.681885	0.050293	-0.272949
405.0	6.427679	0.761344	7.862933	-0.018459	0.007005	-0.01782	-0.681885	0.050293	-0.275391
406.0	6.424429	0.763268	7.839405	-0.009991	0.010981	-0.015827	-0.681641	0.046143	-0.270752
407.0	6.41368	0.790373	7.892481	-0.012768	0.007015	-0.014195	-0.685791	0.043945	-0.272949
408.0	6.417171	0.738308	7.863821	-0.013739	0.008334	-0.015951	-0.681641	0.04834	-0.275146
409.0	6.422121	0.76338	7.841285	-0.008141	0.008421	-0.014189	-0.683594	0.043945	-0.272949
410.0	6.423846	0.76131	7.866069	-0.016053	0.006416	-0.012303	-0.685791	0.043945	-0.272949
411.0	6.443555	0.755156	7.839585	-0.0099	0.010907	-0.013966	-0.683838	0.046143	-0.275146
412.0	6.41407	0.738022	7.866377	-0.015775	0.008617	-0.01402	-0.686035	0.048096	-0.270752
413.0	6.413313	0.73771	7.867024	-0.013555	0.008182	-0.012226	-0.683838	0.046143	-0.272949
414.0	6.412542	0.737817	7.867642	-0.008326	0.008575	-0.017929	-0.686035	0.045898	-0.275146
415.0	6.417476	0.763108	7.845113	-0.011612	0.007974	-0.016034	-0.681641	0.04834	-0.275146
416.0	6.433866	0.730321	7.86597	-0.012583	0.009293	-0.017791	-0.686035	0.045898	-0.270508
417.0	6.384901	0.748703	7.848159	-0.00319	0.006616	-0.018186	-0.683838	0.048096	-0.268311
418.0	6.425724	0.785465	7.872122	-0.010916	0.006884	-0.019887	-0.683838	0.048096	-0.268311
419.0	6.414575	0.76484	7.847317	-0.008604	0.006373	-0.016223	-0.686035	0.050293	-0.266113
420.0	6.41634	0.763048	7.872025	-0.014202	0.006282	-0.017994	-0.681396	0.043945	-0.270508
421.0	6.413344	0.765254	7.848282	-0.009945	0.005566	-0.018136	-0.685791	0.043945	-0.272949
422.0	6.412741	0.765486	7.848753	-0.010642	0.006654	-0.014289	-0.686035	0.048096	-0.272949
423.0	6.403974	0.742572	7.848202	-0.011614	0.007972	-0.016047	-0.683594	0.043945	-0.277344
424.0	6.411257	0.765806	7.849933	-0.010458	0.008933	-0.017874	-0.683838	0.048096	-0.275146
425.0	6.404756	0.740976	7.873685	-0.013835	0.008406	-0.01785	-0.688232	0.050293	-0.277588
426.0	6.399106	0.745276	7.825949	-0.007962	0.010702	-0.017792	-0.681641	0.04834	-0.272949
427.0	6.416695	0.789779	7.853099	-0.01055	0.009011	-0.019749	-0.684082	0.050293	-0.275391
428.0	6.42749	0.731901	7.897004	-0.01846	0.006992	-0.017874	-0.686035	0.046143	-0.277344
429.0	6.562488	0.626426	8.023185	-0.018826	0.007302	-0.025353	-0.683838	0.046143	-0.275146
430.0	6.671345	0.593652	7.960881	0.03091	0.013574	-0.037103	-0.683838	0.046143	-0.275146
431.0	6.742322	0.680666	7.912542	0.066265	0.037504	-0.045371	-0.683838	0.04834	-0.277588
432.0	6.733952	0.830837	7.705828	0.099786	0.06447	-0.036515	-0.681396	0.041748	-0.277344
433.0	6.712446	1.016916	7.947633	0.145026	0.109721	-0.009686	-0.683594	0.041748	-0.277344
434.0	7.321402	0.598445	8.03328	0.01679	0.102659	-0.007788	-0.688232	0.045898	-0.277344
435.0	8.208151	0.140825	7.997141	0.153472	0.218495	-0.028322	-0.681641	0.046143	-0.279785
436.0	8.184068	-0.035205	7.983642	0.500338	0.449748	-0.066008	-0.683594	0.039551	-0.286377
437.0	7.153365	0.829495	8.535102	0.643466	0.577364	-0.082764	-0.681396	0.039551	-0.286377
438.0	5.554198	1.715269	8.160598	0.500123	0.65501	-0.049809	-0.674561	0.037354	-0.28418
439.0	5.118056	1.932727	8.055614	0.180432	0.529188	0.058937	-0.674805	0.039551	-0.293213
440.0	5.453195	1.70659	8.408548	-0.220628	0.384159	0.218903	-0.672607	0.037354	-0.293213
441.0	6.935648	1.850819	9.057865	-0.09348	0.433581	0.320484	-0.67041	0.041748	-0.297852
442.0	7.179561	2.629277	8.516287	0.009157	0.618673	0.324332	-0.664063	0.043945	-0.297852
443.0	5.061811	2.962923	7.927889	0.226249	0.590544	0.476922	-0.66626	0.046143	-0.304932
444.0	6.056521	2.717669	8.387313	-0.519415	0.455885	0.548842	-0.666748	0.057129	-0.30957
445.0	6.080797	0.45241	8.277162	-1.613342	0.310638	0.543335	-0.658447	0.063721	-0.307373
446.0	6.823066	-1.368662	7.633932	-1.175197	0.376583	0.464223	-0.663086	0.070313	-0.309814
447.0	6.064474	-1.354388	7.079112	0.075822	0.642956	0.29545	-0.658691	0.070313	-0.319092
448.0	5.236225	-0.243497	7.954306	0.124286	0.567281	0.191975	-0.654541	0.074707	-0.319092
449.0	5.893157	-0.3066	8.132694	-0.388346	0.447772	0.147931	-0.6521	0.068115	-0.318848
450.0	6.03034	-0.337527	8.05756	-0.057123	0.480271	0.100782	-0.645996	0.076904	-0.325928
451.0	5.390004	0.851009	8.528092	0.238114	0.50961	0.096115	-0.647705	0.070313	-0.328125
452.0	5.406289	1.625274	8.550854	0.077235	0.441226	0.10207	-0.647949	0.074707	-0.330566
453.0	5.060133	1.565054	8.423273	-0.212669	0.383501	0.086179	-0.643555	0.074707	-0.330566
454.0	5.319976	1.081053	8.228424	-0.322249	0.30921	0.06534	-0.643799	0.079102	-0.332764
455.0	5.011372	0.729235	8.139332	-0.268179	0.266289	-0.002188	-0.645996	0.079102	-0.332764
456.0	6.11874	0.531062	8.682103	-0.335679	0.224789	-0.062919	-0.639404	0.079102	-0.3396
457.0	6.335794	-0.575538	8.536199	-0.531912	0.281472	-0.074342	-0.637207	0.079346	-0.3396
458.0	5.961815	-1.922111	8.252219	-0.476298	0.305607	0.056137	-0.637451	0.081299	-0.337402
459.0	5.757619	-2.24384	7.936205	-0.162233	0.414507	0.188671	-0.630859	0.08374	-0.342041
460.0	5.133179	-0.512667	8.128278	0.371451	0.452872	0.224938	-0.631104	0.085938	-0.344482
461.0	4.508726	0.993632	7.813384	0.482524	0.471283	0.157614	-0.628662	0.081543	-0.351074
462.0	5.664562	1.934756	9.042715	0.152945	0.331354	0.107642	-0.633057	0.08374	-0.34668
463.0	6.091397	0.7449	8.581444	-0.407103	0.333967	0.05402	-0.626709	0.088135	-0.351318
464.0	5.051445	-0.860508	7.851026	-0.364824	0.36723	0.082773	-0.624512	0.085938	-0.351318
465.0	4.269091	-0.44688	7.469362	0.180886	0.351963	0.109197	-0.620117	0.085938	-0.355713
466.0	3.546554	1.269279	7.716498	0.447619	0.271282	0.06522	-0.624512	0.085938	-0.358154
467.0	3.099442	1.990587	8.142925	0.18789	0.051948	0.009328	-0.622314	0.08374	-0.355713
468.0	4.62574	0.688677	9.127828	-0.808892	-0.221494	0.026329	-0.622314	0.088135	-0.353516
469.0	5.136244	-1.886382	8.27664	-1.15038	-0.265709	0.079878	-0.622803	0.094727	-0.35376
470.0	5.560055	-1.827154	8.062651	0.146128	-0.189328	0.079211	-0.62915	0.092529	-0.35376
471.0	6.290122	0.711805	9.476911	0.582373	-0.136429	0.037556	-0.624756	0.090332	-0.353516
472.0	6.117045	1.259562	9.472214	-0.03675	-0.158162	0.001461	-0.622559	0.092529	-0.346924
473.0	5.835809	0.383536	8.858932	-0.313069	-0.13611	-0.019278	-0.62915	0.092529	-0.35376
474.0	6.220688	0.523482	8.983265	0.046507	-0.056566	-0.011206	-0.631348	0.092285	-0.351318
475.0	6.254779	1.067357	9.196761	0.003735	0.018836	-0.03028	-0.626953	0.092529	-0.351318
476.0	6.448435	0.630222	9.253257	-0.206697	0.086855	-0.037334	-0.631592	0.09668	-0.344727
477.0	5.888228	0.109429	8.785104	-0.081919	0.151665	-0.07863	-0.631104	0.088135	-0.349121
478.0	5.778379	0.068757	8.810215	0.008527	0.168318	-0.14095	-0.631348	0.094482	-0.35376
479.0	5.150332	-0.338436	8.424401	0.015905	0.169822	-0.218384	-0.62915	0.090332	-0.353516
480.0	4.417749	-0.548702	8.129287	0.199481	0.125125	-0.296702	-0.624512	0.088135	-0.358154
481.0	4.259223	-0.571471	8.022752	0.294124	0.039803	-0.371624	-0.622314	0.085938	-0.358154
482.0	3.719872	-0.853347	7.644881	0.307295	-0.057054	-0.407737	-0.626465	0.079346	-0.348877
483.0	2.28291	-0.904366	6.496635	0.481157	-0.212806	-0.426167	-0.628418	0.074951	-0.351074
484.0	1.632894	0.055326	6.669066	0.725336	-0.521981	-0.452632	-0.630371	0.068359	-0.346436
485.0	3.949527	0.88281	7.925108	0.479878	-0.804289	-0.51264	-0.636719	0.063965	-0.341797
486.0	3.288953	0.170725	7.432816	0.207877	-0.866018	-0.602709	-0.638672	0.061768	-0.337158
487.0	3.357236	0.064496	7.336649	0.365694	-1.06647	-0.689	-0.647217	0.057373	-0.327881
488.0	3.336542	0.270047	6.625259	0.548153	-1.214692	-0.710081	-0.653564	0.050781	-0.323242
489.0	2.636393	-0.539265	5.880531	0.424622	-1.52467	-0.743674	-0.659668	0.044189	-0.309326
490.0	16.346718	-2.249346	17.494442	-2.271269	-1.952495	-0.446868	-0.666504	0.04834	-0.30249
491.0	8.24229	1.266923	3.169509	2.791629	0.323685	-0.540851	-0.665527	0.028809	-0.306885
492.0	4.254778	5.017855	11.831208	4.528055	-0.607315	-0.110043	-0.66748	0.024414	-0.297607
493.0	9.764586	4.66261	8.563027	0.14505	-0.915711	-0.004091	-0.667725	0.026611	-0.292969
494.0	6.887937	4.486688	9.888599	-1.991835	-0.625974	-0.197316	-0.674561	0.032959	-0.288574
495.0	7.180351	0.933793	7.938542	-2.793005	-0.87108	0.001222	-0.677002	0.039551	-0.279541
496.0	7.569564	-2.125498	6.67415	-0.901669	-0.439575	-0.014477	-0.676758	0.037354	-0.28418
497.0	6.719531	-0.345278	7.680846	1.229291	-0.264545	-0.103539	-0.681152	0.035156	-0.279541
498.0	6.82305	1.783545	8.664416	1.04926	-0.296345	-0.123578	-0.683105	0.028564	-0.279297
499.0	6.693278	1.603741	8.582549	-0.117345	-0.361965	-0.178611	-0.68335	0.035156	-0.277344
500.0	6.640215	0.399003	7.748927	-0.336977	-0.370351	-0.192651	-0.680908	0.030762	-0.274902
501.0	6.397112	0.606674	7.543526	0.356998	-0.328765	-0.174879	-0.685059	0.026367	-0.270264
502.0	6.406923	2.039408	8.32203	0.631619	-0.336504	-0.107534	-0.687256	0.026367	-0.270264
503.0	6.395709	1.902923	8.383189	0.013052	-0.427971	-0.067377	-0.691406	0.02417	-0.270264
504.0	6.423566	0.938655	7.977561	-0.233429	-0.502466	-0.048903	-0.687256	0.026367	-0.265625
505.0	5.803127	0.883162	8.334517	0.246175	-0.555771	-0.048335	-0.691406	0.021973	-0.256348
506.0	5.630975	2.389725	8.772684	0.672024	-0.745305	0.053194	-0.69165	0.026367	-0.254395
507.0	6.017689	2.783926	9.013232	0.276537	-0.933729	0.183454	-0.700439	0.02832	-0.238281
508.0	6.430176	1.337892	8.682645	-0.410943	-1.204663	0.228994	-0.702637	0.030518	-0.238281
509.0	6.051112	-0.418298	8.256232	-0.411539	-1.470926	0.131983	-0.709229	0.02832	-0.231445
510.0	5.837047	-0.693221	7.999721	0.428751	-1.850165	-0.013619	-0.711182	0.023926	-0.210938
511.0	5.556763	0.562483	8.675993	0.902256	-2.26281	-0.099683	-0.717773	0.023682	-0.197266
512.0	4.673234	1.096174	8.811741	0.70959	-2.778754	-0.098478	-0.726318	0.021484	-0.183594
513.0	4.224852	0.974566	8.778666	0.521372	-3.34448	-0.067415	-0.73291	0.021484	-0.15625
514.0	4.59262	0.718795	8.513867	0.530407	-3.845171	-0.099009	-0.745605	0.016846	-0.128662
515.0	4.667676	0.568948	8.526893	0.741271	-4.326777	-0.1097	-0.747803	0.016846	-0.099121
516.0	4.254057	0.578109	8.499692	1.015907	-4.840526	-0.122904	-0.758545	0.01001	-0.060059
517.0	3.323507	1.605294	8.124525	1.323712	-5.460275	0.061392	-0.760986	0.016602	-0.01709
518.0	4.972757	3.004671	8.04803	1.35437	-6.281383	0.448612	-0.77417	0.020752	0.028564
519.0	5.903883	4.172573	8.381766	1.119092	-6.869311	0.959591	-0.772217	0.0271	0.080811
520.0	11.299045	5.53869	9.963941	0.403291	-7.793651	1.855632	-0.775146	0.044434	0.125977
521.0	3.944397	4.841489	6.41645	-1.545808	-8.494423	2.365768	-0.77124	0.052979	0.205566
522.0	23.776729	5.626893	12.092277	-3.021032	-11.153887	2.592477	-0.758545	0.063721	0.285156
523.0	24.931798	2.293937	9.318362	-3.8123	-11.238038	1.787121	-0.732666	0.068115	0.35791
524.0	28.224272	0.113379	12.312037	-2.52592	-11.650139	1.638707	-0.697754	0.068115	0.430908
525.0	36.367806	1.262364	15.904834	-0.922998	-10.110543	1.238049	-0.671875	0.074707	0.478516
526.0	40.462091	1.821111	23.240448	1.703477	-7.790388	0.532128	-0.652832	0.085693	0.496582
527.0	28.523078	1.95331	24.444891	3.029891	-3.612011	0.214043	-0.651123	0.09668	0.47583
528.0	10.110228	4.547875	16.976339	4.58003	-3.426707	1.223373	-0.636963	0.123047	0.466309
529.0	40.626608	16.960847	39.209817	3.862746	-4.54708	2.898417	-0.626709	0.13623	0.429443
530.0	11.833338	11.704887	25.979044	-0.555886	2.575919	1.570557	-0.622314	0.136475	0.365723
531.0	-2.424875	7.735423	18.483259	-1.223586	0.594519	2.751987	-0.609619	0.145508	0.303955
532.0	-0.108757	5.248673	17.725772	-1.775638	0.745533	2.709148	-0.579102	0.145752	0.237793
533.0	3.908015	4.08671	17.397328	-1.453493	1.213892	2.35823	-0.533691	0.152832	0.173828
534.0	3.989376	3.489504	15.449812	0.314229	2.443088	1.872325	-0.477051	0.15332	0.10083
535.0	2.240886	5.738461	14.564306	1.661671	3.496378	1.427721	-0.398682	0.158447	0.039063
536.0	-0.32386	7.122326	12.466153	1.804111	4.120394	1.063817	-0.307129	0.15918	-0.006592
537.0	-0.225494	7.89649	11.993602	0.949651	4.321608	0.755601	-0.191895	0.166504	-0.022949
538.0	2.945804	7.150692	12.439992	-1.142063	4.518696	0.469678	-0.070068	0.175781	0.006348
539.0	6.096506	4.561071	11.392337	-2.675285	5.038205	0.164053	0.029297	0.195801	0.083496
540.0	7.775785	1.613626	8.903234	-2.187692	5.782587	-0.045742	0.087891	0.200439	0.194824
541.0	8.129444	0.147731	6.625014	0.015199	6.55854	-0.194204	0.087158	0.217529	0.31543
542.0	8.346986	1.908802	5.729227	1.750506	7.002115	-0.332177	0.027588	0.236572	0.413086
543.0	9.452855	3.48619	5.09384	1.966791	7.048508	-0.488249	-0.067139	0.255371	0.476563
544.0	11.291977	4.252678	4.763137	1.475243	7.006687	-0.67048	-0.174316	0.265625	0.506104
545.0	14.364744	4.082107	5.385004	0.798938	6.952438	-0.861768	-0.274902	0.271484	0.49707
546.0	17.575966	3.136996	5.766029	0.465031	7.113032	-1.116264	-0.368164	0.26001	0.456299
547.0	19.116828	1.911019	5.11662	0.834643	7.411655	-1.463941	-0.444824	0.26416	0.401611
548.0	18.577764	1.580669	3.927732	1.770533	7.637264	-1.866783	-0.510254	0.261719	0.32666
549.0	16.623488	2.778679	3.189086	2.588388	7.553881	-2.246914	-0.557617	0.248535	0.258545
550.0	15.080528	3.949588	3.229826	2.582448	7.118329	-2.565124	-0.589355	0.22876	0.181396
551.0	14.527733	4.372662	4.40922	1.45868	6.468223	-2.773313	-0.60376	0.209229	0.108887
552.0	16.737343	2.905894	6.23676	-0.465574	5.792861	-2.83327	-0.617676	0.178711	0.059326
553.0	18.942646	0.629664	7.664667	-1.664253	5.541803	-2.83494	-0.618652	0.152588	0.000732
554.0	19.228587	-2.291753	7.47583	-1.002557	5.652652	-2.724246	-0.617676	0.128906	-0.05127
555.0	17.96075	-3.401308	7.582195	1.071307	5.846265	-2.568606	-0.616455	0.100586	-0.098633
556.0	17.214471	-1.623859	9.589631	1.815449	5.712519	-2.396131	-0.608887	0.078857	-0.150635
557.0	20.184313	-2.760519	11.200208	0.493045	5.307437	-2.229436	-0.597168	0.061768	-0.197998
558.0	26.579659	-7.344274	10.825951	-0.419721	5.311898	-2.039387	-0.5896	0.035645	-0.236328
559.0	28.632645	-12.49563	6.200027	1.211198	6.091948	-2.06998	-0.562012	0.007568	-0.285889
560.0	25.986562	-9.255141	3.694159	4.31072	6.483347	-1.918135	-0.541016	-0.0271	-0.321777
561.0	22.739728	-4.298431	1.02724	4.877321	6.22078	-1.596271	-0.502441	-0.05957	-0.355469
562.0	21.599533	-1.87303	-2.88786	4.293235	5.268786	-1.107582	-0.477051	-0.087646	-0.377686
563.0	22.886834	-1.443032	-6.219141	2.909451	4.090401	-0.65437	-0.458984	-0.102783	-0.395508
564.0	24.005269	-3.111862	-9.169107	0.398876	2.88735	-0.191439	-0.445801	-0.10498	-0.404785
565.0	25.986036	-6.440782	-11.40645	-1.336279	1.567062	0.344941	-0.437256	-0.104736	-0.416016
566.0	25.45888	-9.557788	-12.995235	-0.88606	0.743829	0.376661	-0.432617	-0.106934	-0.422852
567.0	24.540354	-8.761487	-12.764619	1.706823	-0.157014	0.349506	-0.43457	-0.113525	-0.418213
568.0	22.942974	-3.587552	-9.897882	3.713692	-0.889512	0.360483	-0.438232	-0.131104	-0.411133
569.0	22.467826	1.474823	-5.128932	2.564447	-1.689742	0.494402	-0.446289	-0.14209	-0.397217
570.0	17.848174	2.579164	1.196832	-2.058277	-2.287796	0.690918	-0.453857	-0.122314	-0.4021
571.0	-10.673494	4.416792	27.491577	-7.563674	-2.621344	0.809192	-0.468994	-0.074463	-0.393799
572.0	-9.393249	-0.642999	7.947646	-8.139002	-4.422396	3.078813	-0.492432	-0.039795	-0.378662
573.0	-17.866122	-9.053302	-4.816861	-0.274835	-5.668584	4.253751	-0.516846	-0.029053	-0.35376
574.0	40.153095	-10.66684	8.479248	0.88227	-9.336298	3.021593	-0.550293	-0.01416	-0.312988
575.0	30.805627	2.41527	17.369295	-1.507177	-2.709549	-0.897911	-0.553955	-0.029541	-0.30127
576.0	12.423045	2.02085	9.337424	3.072142	-4.472858	-0.549524	-0.573486	-0.031738	-0.271484
577.0	31.59708	3.218756	21.049954	-1.069507	-3.706257	0.086801	-0.580078	-0.029785	-0.262451
578.0	10.14607	-6.03688	10.058571	-6.092756	-2.140792	-0.117421	-0.587158	-0.014404	-0.249023
579.0	4.869913	-9.833477	3.701326	0.096956	-2.355758	0.035372	-0.587158	-0.019043	-0.235352
580.0	9.022149	-0.355964	9.247672	4.183637	-1.976768	-0.02162	-0.597412	-0.032227	-0.22583
581.0	10.278086	4.388021	10.267316	2.642637	-1.893378	0.069327	-0.60791	-0.038818	-0.214355
582.0	10.457455	8.471813	11.604739	1.278239	-1.661747	-0.020282	-0.605957	-0.036621	-0.205322
583.0	14.27031	7.471043	11.7067	0.278925	-1.028886	-0.036061	-0.609863	-0.043213	-0.202881
584.0	6.883056	1.348244	10.944993	-3.478311	-0.826914	-0.147043	-0.610596	-0.030029	-0.203125
585.0	8.859908	-1.028511	7.997988	-3.914797	-0.871613	0.046607	-0.611084	-0.019287	-0.196533
586.0	7.651717	-3.755938	6.487566	0.06329	-0.262111	0.006722	-0.608887	-0.02124	-0.194092
587.0	6.716208	0.699871	8.420123	2.127013	-0.062585	0.031995	-0.61499	-0.027832	-0.194092
588.0	6.443593	2.669034	9.177712	1.432553	-0.08297	0.028182	-0.614746	-0.032227	-0.196289
589.0	5.903297	2.472863	9.399358	-0.503089	-0.17743	0.001831	-0.617188	-0.030273	-0.184814
590.0	6.794015	0.671204	9.056511	-1.494426	-0.34293	-0.058498	-0.616943	-0.032227	-0.187012
591.0	7.145982	-1.410656	7.880525	-0.863132	-0.168342	-0.181255	-0.612793	-0.030029	-0.19165
592.0	6.959647	-0.678007	8.122852	0.676509	-0.051566	-0.296217	-0.612793	-0.027832	-0.19165
593.0	6.83345	1.144079	8.591416	0.94481	0.029596	-0.386578	-0.616943	-0.032227	-0.187012
594.0	6.099812	1.853223	8.266653	0.461514	0.040723	-0.428709	-0.614502	-0.041016	-0.187012
595.0	6.112862	2.009615	7.873037	0.159079	-0.003719	-0.427276	-0.616455	-0.04541	-0.191406
596.0	5.934738	2.0916	7.808048	0.188418	-0.010972	-0.401696	-0.618896	-0.038818	-0.184814
597.0	5.721074	2.288543	7.551027	0.309818	-0.030665	-0.343234	-0.612061	-0.043213	-0.189209
598.0	5.97055	2.462965	7.824098	0.241516	-0.056118	-0.28148	-0.618408	-0.052002	-0.188965
599.0	6.019334	2.320167	7.980176	-0.070703	-0.10324	-0.225068	-0.61377	-0.054199	-0.184326
600.0	6.338755	1.770572	7.86648	-0.280291	-0.066666	-0.184596	-0.615967	-0.054199	-0.184326
601.0	5.887449	1.570341	7.766916	-0.138757	-0.067019	-0.144738	-0.61377	-0.054199	-0.186768
602.0	5.897662	1.622928	7.69116	-0.019827	-0.101109	-0.144785	-0.614014	-0.049805	-0.182129
603.0	5.795082	1.878577	7.823226	0.019814	-0.128519	-0.135212	-0.620361	-0.054199	-0.179932
604.0	5.923165	1.802394	7.950845	-0.135838	-0.188247	-0.138888	-0.611816	-0.052002	-0.182129
605.0	6.113763	1.436246	7.71991	-0.241218	-0.206532	-0.171212	-0.614258	-0.047607	-0.179932
606.0	5.919994	1.396391	7.134785	0.016347	-0.204861	-0.145595	-0.620361	-0.056396	-0.179688
607.0	5.78528	2.118381	7.377247	0.323454	-0.251394	-0.080747	-0.61792	-0.060791	-0.181885
608.0	5.709751	2.584063	7.452671	0.19374	-0.287336	0.004339	-0.620605	-0.052002	-0.175293
609.0	5.854296	2.831586	7.603138	-0.060461	-0.338098	0.110039	-0.618408	-0.049805	-0.173096
610.0	5.75899	2.540347	7.417059	-0.248627	-0.343081	0.241668	-0.622559	-0.052002	-0.173096
611.0	4.68698	2.692765	6.941732	-0.146075	-0.458685	0.387794	-0.627197	-0.047607	-0.175293
612.0	5.660679	3.386999	7.645612	-0.041819	-0.597078	0.642224	-0.618652	-0.043213	-0.17334
613.0	6.165789	3.456237	8.270176	-0.541118	-0.631871	0.870592	-0.623291	-0.036865	-0.166504
614.0	6.602496	2.525136	9.213388	-1.364428	-0.708164	1.035439	-0.628174	-0.028076	-0.159912
615.0	7.430659	0.944139	8.776599	-1.890134	-0.742182	1.015364	-0.630615	-0.021484	-0.157715
616.0	5.647559	-1.070166	8.699159	-1.42789	-0.808753	0.935826	-0.633301	-0.010742	-0.148682
617.0	6.563825	-0.796899	8.321212	-0.109868	-0.946007	0.781289	-0.631348	-0.006348	-0.144287
618.0	6.264207	-0.05147	9.423625	0.329664	-1.134007	0.607175	-0.635986	0.000244	-0.137695
619.0	6.778366	-0.793271	9.087062	-0.286767	-1.456549	0.299461	-0.635498	-0.006348	-0.137451
620.0	6.236644	-2.008545	8.794388	-0.168747	-1.830603	-0.099512	-0.644287	-0.006592	-0.114746
621.0	5.291833	-1.527824	8.727543	0.776989	-2.362827	-0.467219	-0.641846	-0.010986	-0.093994
622.0	4.362043	-0.092922	9.09544	1.120833	-2.983665	-0.697283	-0.643799	-0.019775	-0.077881
623.0	3.678279	0.590834	9.087801	0.914512	-3.675654	-0.806737	-0.654541	-0.021973	-0.057373
624.0	3.725139	0.228285	8.860586	0.77231	-4.412998	-0.954922	-0.649902	-0.028564	-0.018555
625.0	3.779336	-0.169547	8.665942	0.894374	-5.059222	-1.165471	-0.655762	-0.041748	0.013672
626.0	3.230245	-0.229558	8.517793	1.233631	-5.697341	-1.312359	-0.653076	-0.054932	0.052734
627.0	2.862716	0.271871	8.663563	1.674692	-6.496624	-1.317422	-0.652832	-0.05957	0.086914
628.0	3.225435	1.092118	9.806746	2.104932	-7.420074	-1.280658	-0.643799	-0.068359	0.144043
629.0	4.606897	2.352348	8.371301	2.78425	-8.504547	-0.968542	-0.630615	-0.070557	0.203369
630.0	10.638008	4.572186	8.430508	3.092321	-10.164808	-0.357447	-0.615479	-0.066162	0.269287
631.0	28.726015	9.521563	11.546398	1.370445	-11.86432	1.468064	-0.57666	-0.057373	0.337402
632.0	27.082397	5.484617	13.068032	-1.003081	-12.397509	1.080122	-0.539307	-0.05957	0.396729
633.0	42.201999	6.658752	18.244656	-2.309637	-12.643926	1.235319	-0.490967	-0.065918	0.456055
634.0	42.460756	4.528497	24.464031	-0.543456	-9.533084	0.684094	-0.445068	-0.070068	0.490234
635.0	33.721782	1.920607	33.318371	1.839884	-6.193849	0.565269	-0.419678	-0.05249	0.508057
636.0	5.329594	7.250846	27.015506	5.671927	-3.978166	0.992883	-0.399414	-0.017578	0.518799
637.0	17.703243	20.723248	30.848969	9.733017	-4.936689	2.467695	-0.36499	0.041748	0.526855
638.0	34.510422	32.527957	54.921641	2.398584	-0.104168	1.609992	-0.37085	0.026367	0.508789
639.0	-1.057187	12.733737	30.066114	-8.31547	2.780162	1.037589	-0.368896	-0.019287	0.496094
640.0	-5.040349	-2.161212	16.325464	-8.080276	1.761001	1.399635	-0.363525	-0.04126	0.48291
641.0	-1.092772	-7.311511	10.772786	2.530565	2.206641	1.337238	-0.360596	-0.008301	0.482178
642.0	2.218395	7.727931	17.010164	8.306263	3.233441	1.046922	-0.373291	0.030762	0.479004
643.0	4.709507	14.943794	18.743091	6.150866	3.740411	0.505383	-0.378662	0.052734	0.458252
644.0	8.283021	16.936699	18.765372	-0.36979	4.738598	-0.063765	-0.395752	0.046143	0.44458
645.0	7.593426	10.418928	14.007218	-4.164348	5.756983	-0.274162	-0.399414	0.028564	0.435791
646.0	6.787961	5.990466	9.974504	-3.959676	6.464896	-0.147851	-0.429688	0.021973	0.420166
647.0	6.625664	3.486813	7.520124	-2.516742	6.872948	0.066306	-0.458008	0.023926	0.390381
648.0	7.617452	2.862511	6.773324	-1.595232	7.080966	0.219224	-0.491211	0.032471	0.365234
649.0	9.208832	2.281735	6.421012	-1.558989	7.193141	0.293509	-0.521484	0.030273	0.319824
650.0	10.826716	1.722455	5.55512	-1.324286	7.30942	0.347318	-0.550293	0.039063	0.258057
651.0	12.4979	2.403021	5.124178	-0.27717	7.484119	0.282355	-0.532471	0.02832	0.1604
652.0	13.248438	4.321191	4.875021	1.076749	7.687271	0.079127	-0.467041	0.029053	0.080322
653.0	13.551358	6.582747	5.041066	1.744714	7.691095	-0.276203	-0.343018	0.03418	0.062012
654.0	14.039737	8.255047	5.513469	1.00289	7.524247	-0.66292	-0.228027	0.050049	0.116211
655.0	14.385309	8.027448	5.378367	-0.523053	7.256263	-0.977144	-0.19043	0.084961	0.218018
656.0	14.659764	6.619808	5.047889	-0.928512	6.980183	-1.29333	-0.210938	0.104248	0.297363
657.0	15.52796	5.918459	5.774059	-0.512065	6.715756	-1.668848	-0.268311	0.123535	0.335938
658.0	17.077571	5.358159	6.872245	-0.370047	6.493544	-2.115525	-0.318848	0.127441	0.347168
659.0	18.398782	4.242189	7.101978	-0.61759	6.340367	-2.518511	-0.362549	0.133789	0.328857
660.0	18.709435	3.084837	6.510424	-0.43886	6.245476	-2.762953	-0.398438	0.155518	0.310303
661.0	17.886549	3.067982	6.422755	0.478111	6.088209	-2.836654	-0.453857	0.172607	0.284912
662.0	18.617897	4.31146	8.624155	0.677443	5.761178	-2.733779	-0.52002	0.187744	0.236816
663.0	22.471743	3.246266	10.811259	-0.865309	5.465901	-2.556391	-0.590088	0.193848	0.16626
664.0	27.568055	-0.860867	10.190193	-2.708364	5.51343	-2.313222	-0.64624	0.185059	0.072998
665.0	27.599134	-7.899741	5.377839	-2.33306	6.047715	-2.274123	-0.656494	0.165771	-0.049561
666.0	25.108002	-10.862967	0.759577	1.416096	6.102955	-2.187366	-0.637939	0.14209	-0.163086
667.0	24.163434	-5.202377	1.321546	4.346289	5.841204	-1.897512	-0.593018	0.112061	-0.256104
668.0	25.119268	-1.367874	0.597115	3.962322	5.233274	-1.457562	-0.526367	0.084229	-0.317139
669.0	27.212652	0.588401	-0.484086	2.319184	4.648463	-0.897708	-0.471191	0.07373	-0.339844
670.0	26.279048	-0.351351	-5.028013	0.66357	4.208731	-0.327765	-0.416748	0.072021	-0.348877
671.0	23.399628	-2.030689	-10.003641	0.048451	3.317082	0.176631	-0.395264	0.078613	-0.337646
672.0	22.540897	-3.058067	-13.247025	0.445794	2.094974	0.458706	-0.37793	0.085205	-0.322021
673.0	24.288995	-2.569745	-12.940307	0.875711	0.762613	0.499021	-0.362793	0.085205	-0.299072
674.0	26.772853	-1.669059	-11.924626	1.14473	0.020299	0.319538	-0.36084	0.0896	-0.278809
675.0	24.35467	-1.242975	-12.431793	1.564999	-0.563068	0.290922	-0.361328	0.100342	-0.262939
676.0	21.955255	0.518599	-11.109917	1.832679	-1.493507	0.649475	-0.362061	0.119873	-0.222412
677.0	21.863361	3.592532	-6.41976	1.083557	-2.422636	1.208532	-0.365234	0.139648	-0.195313
678.0	3.536564	4.923275	7.252435	-1.341299	-2.093832	1.19104	-0.35791	0.174316	-0.159668
679.0	-11.256301	7.453508	37.867083	-7.744935	-3.918194	0.281787	-0.370605	0.211426	-0.110107
680.0	-35.610217	11.32174	-4.041596	1.080359	-3.829915	5.393675	-0.376465	0.248291	-0.07666
681.0	28.784516	-9.01169	-15.381171	3.915847	-11.094045	3.721013	-0.397705	0.284912	0.027344
682.0	63.680128	15.994849	40.497978	-14.574483	-7.12415	-0.849462	-0.400146	0.289307	0.08667
683.0	13.647952	-20.929539	2.829117	-4.740598	-5.678982	-2.080186	-0.406982	0.293457	0.129883
684.0	32.589036	-14.284731	20.847304	1.154539	-3.773224	-0.336522	-0.411621	0.304199	0.163818
685.0	9.344028	-9.923101	6.100107	0.2042	-2.500767	0.076587	-0.407715	0.310791	0.186523
686.0	3.964916	4.965915	4.872821	6.096572	-2.730086	0.067841	-0.399902	0.33252	0.192871
687.0	11.018374	13.244326	11.894899	5.959101	-2.425463	-0.126295	-0.400391	0.343506	0.206299
688.0	10.736901	10.052771	14.492666	-2.970704	-2.559203	0.126907	-0.393555	0.339111	0.24292
689.0	12.515117	3.15868	11.216849	-7.214397	-2.292015	0.297348	-0.393555	0.33667	0.274902
690.0	14.599181	-2.80926	7.435458	-2.900108	-1.04008	0.133703	-0.393555	0.334473	0.281738
691.0	7.359942	-3.076529	8.36985	1.135736	-0.609528	0.04688	-0.391357	0.338867	0.286133
692.0	10.051416	0.702565	10.115014	0.791406	-0.558956	0.19171	-0.395996	0.343262	0.281494
693.0	8.636149	0.828266	9.585023	-0.194393	-0.282866	0.180693	-0.391846	0.345459	0.290527
694.0	6.892759	0.156635	8.003134	-0.369716	-0.131766	0.167679	-0.391846	0.347656	0.290527
695.0	6.019772	0.888156	8.219783	0.397981	-0.098214	0.172048	-0.387451	0.347656	0.285889
696.0	6.483492	1.04308	8.864542	-0.057654	-0.152567	0.145971	-0.389893	0.352051	0.292725
697.0	6.133767	0.026414	8.43643	-0.471689	-0.195067	0.051472	-0.387695	0.349854	0.297363
698.0	6.262749	-0.869323	8.427718	-0.247452	-0.198232	-0.087811	-0.383301	0.349854	0.295166
699.0	6.351924	-0.716949	8.158093	0.240339	-0.161489	-0.227965	-0.391846	0.347656	0.295166
700.0	6.140595	0.435347	8.183115	0.514996	-0.130119	-0.335886	-0.387695	0.352051	0.301758
701.0	6.060681	1.292656	8.078189	0.466402	-0.115112	-0.381146	-0.389893	0.352051	0.297363
702.0	6.064332	1.815294	8.119492	0.344484	-0.128131	-0.391269	-0.387695	0.349854	0.299561
703.0	6.171597	2.044483	7.895961	0.323348	-0.113282	-0.377178	-0.389893	0.352051	0.302002
704.0	6.092247	2.226499	8.125954	0.252838	-0.123426	-0.335104	-0.394043	0.347656	0.304199
705.0	6.074083	2.292017	7.846637	0.210203	-0.137805	-0.270513	-0.394287	0.352051	0.306396
706.0	6.095841	2.243133	7.848637	0.157311	-0.156555	-0.21207	-0.389648	0.347656	0.313477
707.0	6.273953	1.894419	7.7844	-0.022633	-0.183017	-0.172586	-0.387451	0.347656	0.308838
708.0	6.218559	1.647375	7.67855	-0.033733	-0.20297	-0.125923	-0.389648	0.347656	0.313477
709.0	6.206652	1.519302	7.826919	0.016801	-0.202719	-0.111894	-0.389648	0.349854	0.315674
710.0	6.112384	1.586842	7.878737	0.04209	-0.222348	-0.099723	-0.394287	0.352051	0.311035
711.0	6.131179	1.736751	7.952306	0.049233	-0.228216	-0.100552	-0.389648	0.345459	0.317871
712.0	6.103805	1.717894	7.987987	-0.070078	-0.293882	-0.059825	-0.387695	0.352051	0.320068
713.0	6.192455	1.541675	7.872648	-0.105001	-0.302906	-0.073177	-0.387451	0.347656	0.317871
714.0	6.090332	1.527563	7.64394	-0.024612	-0.318011	-0.07148	-0.389648	0.349854	0.326904
715.0	6.064248	1.966024	7.574106	0.137154	-0.351067	-0.009213	-0.387451	0.347656	0.327148
716.0	6.397946	2.179175	7.809397	0.03356	-0.371758	0.042039	-0.385498	0.349854	0.326904
717.0	6.306711	2.042544	7.738414	-0.160795	-0.367839	0.088759	-0.383301	0.352051	0.329102
718.0	5.854487	2.27874	7.578962	-0.038667	-0.345715	0.182419	-0.383301	0.354248	0.335938
719.0	5.390531	3.073408	7.851162	-0.000807	-0.444233	0.371883	-0.383301	0.352051	0.33374
720.0	5.736043	3.486103	8.40951	-0.286418	-0.541283	0.605424	-0.37915	0.356445	0.33374
721.0	6.135198	2.493306	8.744293	-0.971477	-0.717286	0.715487	-0.376953	0.358398	0.349609
722.0	5.782529	0.87264	8.865119	-1.058798	-0.969991	0.832637	-0.376953	0.356201	0.354248
723.0	7.419295	-0.64855	8.393241	-0.935795	-1.016017	0.622689	-0.372314	0.352051	0.356445
724.0	6.136594	-0.458028	7.868135	-0.021346	-1.138396	0.476432	-0.372559	0.356201	0.363281
725.0	6.26054	0.841956	8.397357	0.692683	-1.330879	0.441699	-0.370605	0.358643	0.361084
726.0	6.676677	0.935419	9.23078	0.319317	-1.72847	0.330875	-0.366211	0.358643	0.365479
727.0	5.966571	-0.729198	8.877137	-0.306075	-2.261421	0.024096	-0.365967	0.356201	0.383789
728.0	4.901105	-1.301086	8.767911	0.222813	-2.796263	-0.274932	-0.363525	0.349854	0.390869
729.0	3.506536	-0.599655	8.53811	0.967771	-3.372662	-0.474197	-0.357178	0.352051	0.404297
730.0	3.824314	-0.105342	8.506629	0.919432	-4.145511	-0.698972	-0.350586	0.349854	0.418213
731.0	4.274463	0.414701	8.347763	1.003325	-4.739454	-0.867382	-0.343262	0.33667	0.443359
732.0	3.498688	0.705542	8.175673	1.207416	-5.330135	-0.908932	-0.336914	0.338867	0.466064
733.0	3.827986	0.905668	7.857103	1.179927	-5.986481	-0.891829	-0.321533	0.33667	0.498047
734.0	3.99865	1.193214	8.337915	1.144303	-6.651252	-0.867005	-0.303955	0.334473	0.532227
735.0	4.139578	1.447377	9.426458	1.153266	-7.556864	-0.966853	-0.281982	0.330078	0.568848
736.0	7.688216	3.075409	9.106602	1.062101	-8.114425	-0.557215	-0.253418	0.328125	0.60083
737.0	18.180814	5.664474	7.91677	1.259491	-10.658325	0.294803	-0.200684	0.31958	0.639648
738.0	23.244106	2.714821	11.118571	0.47812	-11.847557	0.820633	-0.1521	0.304688	0.671631
739.0	29.281812	3.724172	11.735223	2.099871	-11.939716	0.414783	-0.103516	0.291748	0.690186
740.0	36.923146	4.892275	14.585809	0.637346	-11.916176	-0.256135	-0.058594	0.263672	0.704346
741.0	46.379663	5.324305	26.427921	1.952522	-9.371666	0.288657	-0.048584	0.230957	0.709473
742.0	34.140015	1.660936	31.2037	3.09759	-6.092576	-0.115257	-0.049805	0.213379	0.716797
743.0	8.881296	5.259475	17.733646	6.593783	-3.929068	1.139759	-0.054932	0.22876	0.711914
744.0	29.233108	20.006927	25.450511	10.960526	-6.126974	3.046862	-0.043457	0.261475	0.71582
745.0	35.845613	34.67725	49.386348	3.743577	0.109058	1.767113	-0.100098	0.215332	0.737305
746.0	5.317609	15.94867	27.869512	-6.960602	1.947522	1.937388	-0.141846	0.123291	0.748291
747.0	-1.481792	2.800237	18.392258	-8.61142	2.099157	1.684065	-0.188721	0.051025	0.75415
748.0	-2.58095	-7.122028	8.959695	-1.753275	1.630732	1.390391	-0.224854	0.026611	0.75708
749.0	1.792055	2.678794	13.585669	6.517952	2.364849	1.135047	-0.272217	0.061279	0.747314
750.0	2.161645	10.823967	15.796046	7.22658	3.070571	0.601903	-0.310547	0.09375	0.746826
751.0	3.463905	15.786973	17.167188	2.470252	3.538392	0.165704	-0.353271	0.071777	0.729004
752.0	5.20687	11.997748	15.441827	-3.514998	4.213565	0.020552	-0.406006	0.030029	0.695557
753.0	5.351181	5.91241	11.740566	-5.211159	5.001713	0.004422	-0.44751	-0.013672	0.664795
754.0	5.038551	1.996926	8.730889	-3.717279	5.570694	0.130698	-0.492432	-0.033691	0.619629
755.0	5.287166	0.879538	7.729513	-1.198062	6.125249	0.177371	-0.527344	-0.033691	0.583008
756.0	6.159083	2.044071	8.328417	-0.330826	6.458242	0.124673	-0.55835	-0.027344	0.530518
757.0	7.903552	1.952914	7.826677	-1.00525	6.699726	0.05985	-0.576172	-0.01416	0.482422
758.0	9.981718	0.950931	6.753551	-1.079596	6.952162	0.14625	-0.600586	-0.005371	0.427734
759.0	11.857207	1.374498	5.986772	0.104408	7.337521	0.242576	-0.616699	0.011963	0.379395
760.0	13.148612	3.464447	5.84644	1.386339	7.669182	0.259366	-0.633301	0.040527	0.324219
761.0	13.876493	5.610275	5.87519	1.816156	7.839167	0.093501	-0.643066	0.062256	0.275879
762.0	15.13993	6.847012	6.203368	1.050459	7.811163	-0.171905	-0.654785	0.079834	0.22998
763.0	16.727309	6.163918	5.829497	-0.259356	7.770602	-0.425972	-0.663818	0.086426	0.17749
764.0	16.653543	4.579709	4.425839	-0.34427	7.720132	-0.678638	-0.66626	0.093018	0.136475
765.0	16.478231	4.599461	4.036714	0.579884	7.592461	-1.016631	-0.670654	0.097656	0.095215
766.0	15.946948	5.826639	4.696292	0.847028	7.337593	-1.35735	-0.679688	0.102051	0.054199
767.0	16.288445	6.044283	6.504843	0.156817	6.960159	-1.697893	-0.690674	0.104248	0.017578
768.0	18.778331	3.751222	7.972279	-1.003476	6.659137	-1.952215	-0.698975	0.095459	-0.025391
769.0	20.179056	1.088188	7.652335	-1.14623	6.582238	-2.238306	-0.712158	0.095459	-0.062012
770.0	19.896714	-0.050939	6.903922	0.465414	6.586496	-2.414634	-0.716064	0.084717	-0.116455
771.0	19.503132	2.027606	8.097542	2.334539	6.477298	-2.465044	-0.712891	0.065186	-0.166016
772.0	19.943103	4.617749	10.912518	2.063622	6.186352	-2.405304	-0.712646	0.058838	-0.218506
773.0	24.409807	3.316501	13.441335	-0.554212	5.828115	-2.15946	-0.705811	0.050293	-0.259277
774.0	29.633561	-5.563528	10.836872	-3.613372	5.898652	-2.081798	-0.69043	0.050537	-0.304932
775.0	31.453919	-16.277184	1.134836	-1.690704	6.347817	-2.433248	-0.674805	0.039795	-0.359375
776.0	28.532872	-11.939194	-3.800326	6.423142	6.415132	-2.314952	-0.653076	-0.005859	-0.408691
777.0	27.163597	-0.81576	-4.608317	9.185503	5.652151	-2.355019	-0.628906	-0.060059	-0.444092
778.0	28.761548	5.782682	-5.618011	6.875197	4.341596	-2.126523	-0.618408	-0.097168	-0.470703
779.0	29.978955	6.436962	-6.185887	0.077014	3.247492	-1.069984	-0.599121	-0.092529	-0.502686
780.0	29.034962	-3.221524	-12.620334	-6.107261	2.070094	0.034159	-0.590088	-0.048828	-0.531006
781.0	26.025784	-13.524912	-21.000395	-5.789112	1.08702	0.323127	-0.591553	-0.018066	-0.540771
782.0	29.12993	-14.24614	-20.111075	0.806336	-0.696839	0.92838	-0.599854	-0.029053	-0.538086
783.0	30.772764	-4.638138	-11.555644	5.602824	-0.996404	1.21288	-0.609619	-0.053223	-0.528564
784.0	25.639569	2.226047	-3.854268	3.167899	-1.281803	1.601812	-0.618408	-0.053223	-0.526367
785.0	-1.034739	2.750455	9.488187	-4.415826	-1.995556	1.984194	-0.644775	0.003174	-0.518311
786.0	-28.568956	6.895219	16.720152	-7.911105	-4.81106	3.235151	-0.68042	0.068359	-0.478516
787.0	-15.509739	-7.447772	-14.477259	0.513707	-8.633132	7.487841	-0.727783	0.100586	-0.410645
788.0	74.666508	2.740424	26.433313	-2.43661	-11.436499	0.25517	-0.760742	0.106934	-0.365234
789.0	17.290205	-1.513154	7.577537	-1.262358	-3.428483	-2.603784	-0.783936	0.091309	-0.328369
790.0	28.28375	-1.562205	19.825684	-0.563885	-5.835144	-0.51808	-0.80835	0.099854	-0.285156
791.0	23.733299	-13.522109	17.305789	-6.168679	-3.637983	-0.41415	-0.81543	0.11499	-0.260498
792.0	7.120267	-17.173023	-1.719643	0.408673	-2.692722	-0.071964	-0.825439	0.095215	-0.234863
793.0	8.509609	7.680222	6.050165	10.711079	-2.586331	-0.039724	-0.828857	0.071045	-0.223145
794.0	13.713546	18.327712	15.46535	7.130698	-2.131273	-0.471086	-0.839111	0.055664	-0.208984
795.0	16.457036	20.322201	17.721453	-3.798607	-2.492001	0.334607	-0.848633	0.073242	-0.186523
796.0	10.375045	3.75629	8.807465	-8.542326	-1.13141	-0.145693	-0.849609	0.094971	-0.180176
797.0	8.415681	-6.434895	7.048509	-8.474951	-1.66152	-0.12181	-0.850098	0.10791	-0.157715
798.0	9.708446	-9.895154	3.420783	1.028264	-0.445409	0.000964	-0.854248	0.101318	-0.159912
799.0	9.301364	0.500643	10.268724	4.846307	-0.166617	0.113357	-0.849609	0.094971	-0.162109
800.0	6.747242	4.690227	10.112496	2.554357	-0.009744	0.124171	-0.85376	0.094727	-0.157471
801.0	6.012337	4.89696	9.908407	-0.874064	-0.226933	0.189452	-0.851807	0.094971	-0.155273
802.0	5.937211	1.446796	8.23319	-2.780513	-0.302454	0.217897	-0.854492	0.10791	-0.14624
803.0	6.851047	-1.729549	7.920189	-2.256509	-0.38262	0.249324	-0.859131	0.112305	-0.148682
804.0	6.266304	-2.373521	6.939396	0.028589	-0.137329	0.143983	-0.856689	0.110107	-0.14624
805.0	6.409428	0.254449	8.429242	1.2159	-0.071942	0.053456	-0.852539	0.112305	-0.146484
806.0	5.955746	1.536416	8.83663	0.485321	-0.143671	-0.010441	-0.852051	0.103516	-0.14624
807.0	5.833146	1.242581	8.286381	-0.39838	-0.22097	-0.072182	-0.858643	0.105713	-0.144043
808.0	5.647663	0.63117	7.514018	-0.23424	-0.249344	-0.086454	-0.854492	0.10791	-0.137207
809.0	5.878343	1.528566	7.701763	0.339173	-0.246807	-0.038123	-0.854492	0.10791	-0.13501
810.0	5.873052	2.509706	7.902189	0.346955	-0.219179	0.027381	-0.863281	0.110107	-0.141846
811.0	5.700515	2.788608	8.021777	-0.0177	-0.233904	0.118152	-0.852539	0.114502	-0.137207
812.0	6.071921	2.270475	8.11337	-0.404875	-0.256825	0.174231	-0.856934	0.114502	-0.132813
813.0	5.895915	1.761991	7.851429	-0.386481	-0.225007	0.245779	-0.859131	0.114258	-0.128174
814.0	6.030403	1.591943	7.944099	-0.227491	-0.248818	0.314317	-0.857178	0.12085	-0.128418
815.0	5.906094	1.675213	7.957598	-0.316338	-0.264786	0.354907	-0.859375	0.118652	-0.125977
816.0	6.314467	1.616283	8.28795	-0.424633	-0.281651	0.426505	-0.864258	0.129639	-0.124023
817.0	6.377632	1.283893	8.096509	-0.592669	-0.266732	0.455663	-0.862061	0.131836	-0.124023
818.0	6.533757	0.793717	8.395501	-0.680382	-0.25657	0.421051	-0.862549	0.140625	-0.119629
819.0	6.715437	0.426207	7.813245	-0.500323	-0.231886	0.387839	-0.855957	0.140625	-0.11499
820.0	6.966193	0.36632	7.657029	-0.229971	-0.179935	0.364001	-0.858398	0.14502	-0.11499
821.0	6.647336	1.213253	7.821113	0.092712	-0.123118	0.395571	-0.858398	0.14917	-0.108398
822.0	6.5418	1.555993	8.319604	0.004656	-0.088907	0.460195	-0.860596	0.14917	-0.112793
823.0	6.39172	1.291143	8.347537	-0.361116	-0.146423	0.495268	-0.854492	0.157959	-0.11084
824.0	6.47732	0.641662	8.226568	-0.521615	-0.218781	0.514784	-0.863281	0.160156	-0.115479
825.0	6.79301	0.434389	7.968851	-0.334338	-0.262408	0.546246	-0.859375	0.168945	-0.104248
826.0	6.217907	1.443343	8.314111	0.137169	-0.289409	0.682038	-0.857178	0.168945	-0.104248
827.0	5.952152	1.632968	9.421507	-0.095615	-0.437178	0.794261	-0.855713	0.184082	-0.095459
828.0	6.633472	-0.52768	8.931371	-1.316117	-0.813147	0.609945	-0.858154	0.188477	-0.093262
829.0	6.021553	-2.607699	7.929358	-0.791977	-0.992217	0.409953	-0.858154	0.188477	-0.081787
830.0	6.141834	-2.19823	7.931731	0.479009	-1.14765	0.112408	-0.858154	0.190674	-0.072754
831.0	5.972623	0.234788	8.823115	1.199238	-1.397594	-0.001858	-0.862549	0.190674	-0.054443
832.0	5.74091	1.361027	9.462886	0.901249	-1.785342	0.000783	-0.862549	0.192627	-0.04541
833.0	5.077599	1.020293	9.267581	0.210047	-2.356285	-0.022925	-0.866943	0.19043	-0.024902
834.0	3.658847	0.336721	8.742574	0.077131	-2.92945	-0.059335	-0.868896	0.188232	-0.001953
835.0	2.755576	0.080886	8.544079	0.285962	-3.522752	-0.068043	-0.866699	0.186035	0.027588
836.0	3.812893	-0.263285	8.512814	0.045641	-4.382243	-0.138251	-0.862061	0.183594	0.068848
837.0	4.525062	-1.123181	8.481761	-0.268822	-5.048173	-0.337011	-0.860107	0.185791	0.109619
838.0	4.811393	-1.889292	7.485595	0.197136	-5.583673	-0.517433	-0.857422	0.177002	0.159912
839.0	3.708382	-0.76542	6.75577	1.299407	-5.958761	-0.578035	-0.855225	0.176758	0.205566
840.0	2.481721	1.000989	7.218708	1.778262	-6.889023	-0.420694	-0.843994	0.170166	0.262695
841.0	7.917202	2.894084	10.02286	0.830499	-8.286781	-0.158288	-0.817871	0.167969	0.331055
842.0	5.859669	2.975385	10.65634	0.044848	-6.912393	-0.068365	-0.79834	0.170166	0.387939
843.0	20.604056	3.613035	7.296393	1.056903	-10.940447	1.221068	-0.753174	0.185547	0.481201
844.0	24.758934	6.91002	13.909016	-1.55087	-11.203892	0.824857	-0.702881	0.183594	0.556152
845.0	23.563693	4.653664	7.348086	-0.108036	-10.863819	1.701402	-0.644287	0.187988	0.615479
846.0	31.261947	3.408505	15.91169	-1.46492	-11.726209	2.28274	-0.57666	0.188232	0.69043
847.0	40.302931	4.067719	24.872069	-2.133467	-9.06569	1.238563	-0.523926	0.179932	0.720215
848.0	37.148913	0.680583	28.743696	1.065647	-7.651467	0.250517	-0.480713	0.188721	0.738281
849.0	18.406571	0.915049	26.17593	3.115669	-3.090883	0.542392	-0.4729	0.210693	0.73999
850.0	23.407894	7.863863	27.806087	4.545507	-4.804357	1.948185	-0.432861	0.241455	0.750732
851.0	39.587788	15.804732	49.155585	2.584429	0.077411	1.260868	-0.459717	0.258789	0.732178
852.0	-1.96024	7.248821	20.793885	0.896107	2.652978	1.477442	-0.475342	0.267578	0.707031
853.0	-4.174488	7.547777	19.583366	1.069578	1.487467	2.038173	-0.484375	0.273926	0.702393
854.0	-2.737809	6.651626	16.982711	0.584792	1.366227	1.801923	-0.5	0.27832	0.684082
855.0	1.881675	7.17934	18.120082	0.457361	1.706907	1.369738	-0.515137	0.27832	0.677246
856.0	6.041036	6.920079	18.88725	0.173572	2.629717	0.774072	-0.534668	0.275879	0.652344
857.0	6.763311	5.830966	17.991492	-0.126064	4.02465	0.131865	-0.564453	0.260498	0.623047
858.0	4.696732	4.700535	15.149236	0.120353	5.161792	-0.307753	-0.592773	0.258301	0.593506
859.0	3.310527	4.132664	12.803307	0.067166	5.781528	-0.584491	-0.627197	0.247314	0.561768
860.0	3.526581	2.999349	11.25324	-0.44677	6.046718	-0.753324	-0.668213	0.236084	0.523193
861.0	6.301693	0.99628	11.161775	-1.071759	6.213867	-0.868309	-0.699951	0.214355	0.478271
862.0	9.49612	-2.308297	9.637089	-1.367302	6.658834	-1.05711	-0.733887	0.192383	0.428467
863.0	11.371256	-4.605969	6.861505	0.400539	7.349201	-1.226515	-0.768311	0.183594	0.374023
864.0	11.24071	-1.279774	6.244138	2.972841	7.930109	-1.287115	-0.798584	0.174805	0.30127
865.0	11.210937	2.063418	6.198036	3.486529	8.018649	-1.325562	-0.811279	0.166016	0.237793
866.0	11.774113	3.528629	6.323805	2.605605	7.78472	-1.367405	-0.832275	0.150879	0.169678
867.0	13.789281	3.600428	7.274056	0.819971	7.342272	-1.352052	-0.840088	0.126953	0.11084
868.0	17.081191	1.594792	7.988473	-1.012527	7.018562	-1.362058	-0.841064	0.103027	0.052002
869.0	19.707554	-1.066349	6.950505	-0.967752	7.122561	-1.528889	-0.837891	0.079346	-0.006836
870.0	18.296809	-0.930282	5.469218	1.698775	7.430253	-1.813861	-0.83252	0.05542	-0.067871
871.0	16.554964	3.127387	6.698876	3.275059	7.385299	-2.173543	-0.820068	0.020752	-0.124023
872.0	16.244486	5.1893	8.539202	2.143154	6.964188	-2.46171	-0.801025	-0.016113	-0.168945
873.0	18.362882	4.101141	10.185411	-0.905225	6.472638	-2.555261	-0.780518	-0.031006	-0.21875
874.0	20.270775	0.167916	9.884137	-2.961146	6.314039	-2.500847	-0.757813	-0.052734	-0.25708
875.0	20.996418	-4.5966	8.325861	-1.236938	6.543589	-2.357273	-0.735107	-0.072021	-0.297852
876.0	21.585217	-2.736587	9.615611	2.413845	6.760535	-2.287529	-0.707764	-0.100098	-0.340576
877.0	22.416973	0.818494	11.59846	2.441555	6.723671	-2.290033	-0.684814	-0.126221	-0.381104
878.0	23.487453	-0.912215	10.504987	0.396751	6.574976	-2.254059	-0.64917	-0.141113	-0.419678
879.0	23.707231	-6.131423	7.301409	-0.376623	6.417823	-2.243626	-0.613525	-0.158203	-0.455811
880.0	23.850549	-7.032655	4.429477	2.10188	6.274407	-2.089304	-0.582031	-0.179688	-0.48291
881.0	24.465457	-1.462625	4.208521	3.797963	5.890482	-1.86507	-0.547852	-0.214355	-0.500488
882.0	25.384972	1.426308	1.510227	3.244924	5.263652	-1.570447	-0.516357	-0.236084	-0.525146
883.0	26.866394	2.17674	-1.894512	1.471509	4.430882	-1.225004	-0.491943	-0.246582	-0.540771
884.0	28.74969	-0.039914	-6.360466	-0.938657	3.473818	-0.788641	-0.470459	-0.237793	-0.557129
885.0	28.594765	-4.531674	-12.668414	-1.867282	2.664803	-0.518262	-0.450928	-0.235352	-0.577637
886.0	27.567619	-7.230491	-16.428933	-0.281164	1.535821	-0.499058	-0.44873	-0.237549	-0.579834
887.0	26.943928	-5.116989	-15.450087	1.9708	0.49659	-0.520515	-0.447998	-0.255127	-0.572754
888.0	25.831312	-1.938021	-12.188803	1.993763	-0.464076	-0.371425	-0.449707	-0.263916	-0.561035
889.0	25.466731	-1.38345	-7.231557	-0.99592	-1.475724	0.294856	-0.465332	-0.257324	-0.565674
890.0	24.122706	-5.460623	-5.286246	-4.4464	-2.186704	1.096106	-0.482422	-0.213867	-0.562012
891.0	14.637481	-9.278757	-1.030115	-4.828499	-2.656149	1.757858	-0.499023	-0.185547	-0.569336
892.0	-16.210107	-10.258084	37.543627	-5.738351	-3.219866	0.823013	-0.524658	-0.146484	-0.558838
893.0	-33.970015	1.030486	-2.489808	6.130364	-1.452254	7.171419	-0.553955	-0.172852	-0.523926
894.0	1.224697	5.376433	-27.341052	15.791329	-7.422955	6.355286	-0.637939	-0.199951	-0.423096
895.0	77.751455	38.100285	54.632439	-12.922369	-12.346751	1.716132	-0.665527	-0.119385	-0.427002
896.0	0.969946	-15.711127	-9.610382	-7.422328	-3.950285	-3.592672	-0.684082	-0.143555	-0.385498
897.0	31.612391	-4.770502	21.151489	3.108116	-5.519847	-0.92948	-0.701172	-0.152588	-0.346436
898.0	22.677508	-8.063034	19.364765	-2.596258	-3.646273	-0.604673	-0.714844	-0.137451	-0.330811
899.0	13.269325	-20.890488	5.362141	-2.455587	-2.726321	0.029015	-0.725342	-0.144043	-0.310059
900.0	8.23146	4.305986	4.59316	9.256416	-2.053144	0.198186	-0.730469	-0.176758	-0.279785
901.0	8.677435	17.956037	11.398361	9.828025	-1.345437	-0.544114	-0.744873	-0.196777	-0.254395
902.0	8.451041	16.335623	14.800052	-2.772371	-2.531181	0.381859	-0.747803	-0.179199	-0.245605
903.0	17.229443	11.185204	13.907473	-8.213183	-2.570898	0.628919	-0.75293	-0.161865	-0.248291
904.0	7.802561	-2.767262	5.213785	-5.38212	-0.618412	-0.357514	-0.751221	-0.150879	-0.248535
905.0	9.516451	-5.676071	7.684641	-1.296129	-0.82586	0.103741	-0.755859	-0.144287	-0.250732
906.0	7.228786	1.02349	7.893094	2.717922	-0.020128	0.132239	-0.755615	-0.153076	-0.241455
907.0	5.822287	4.339018	9.322482	2.132358	-0.056458	0.181642	-0.757568	-0.155273	-0.232422
908.0	6.141902	4.802234	9.849471	-0.820701	-0.30706	0.241384	-0.755615	-0.150879	-0.237061
909.0	6.467593	1.533727	8.891174	-2.669574	-0.408063	0.223691	-0.758545	-0.135742	-0.246338
910.0	6.930552	-1.724876	8.1988	-2.20016	-0.365413	0.15701	-0.758545	-0.133545	-0.235107
911.0	6.418462	-2.520762	7.728425	-0.085507	-0.162817	0.01903	-0.762695	-0.137939	-0.237305
912.0	6.650137	0.096415	8.969523	1.014527	-0.079662	-0.087528	-0.760498	-0.137939	-0.237305
913.0	5.911549	1.388672	8.776023	0.500994	-0.073542	-0.173403	-0.756104	-0.142334	-0.234863
914.0	5.72925	1.498546	8.330471	-0.059996	-0.149695	-0.242852	-0.756104	-0.140137	-0.237305
915.0	5.375047	1.329846	7.656475	-0.034796	-0.158427	-0.244995	-0.762695	-0.142334	-0.234863
916.0	5.135677	2.209038	7.36387	0.478311	-0.177967	-0.202498	-0.757813	-0.150879	-0.230225
917.0	5.199882	3.074303	7.786106	0.557115	-0.247043	-0.126862	-0.762451	-0.146729	-0.230225
918.0	5.431692	3.418384	8.236338	-0.025713	-0.291961	-0.026494	-0.762207	-0.151123	-0.225586
919.0	5.175336	2.846308	7.649984	-0.454584	-0.325647	0.084161	-0.76001	-0.148926	-0.221191
920.0	5.154688	2.128177	7.397637	-0.458516	-0.393187	0.180457	-0.764648	-0.144531	-0.223389
921.0	5.286058	2.00467	7.696424	-0.412713	-0.475015	0.272093	-0.766846	-0.146729	-0.216553
922.0	6.531678	1.344768	8.840059	-0.775159	-0.551342	0.345241	-0.771729	-0.133545	-0.212402
923.0	5.633332	0.812098	7.819788	-0.826176	-0.413475	0.306556	-0.765137	-0.131348	-0.207764
924.0	6.392244	1.12868	8.408873	-0.178484	-0.463227	0.343267	-0.771729	-0.131592	-0.207764
925.0	6.116689	1.686194	8.263327	-0.08169	-0.391543	0.39166	-0.77417	-0.127197	-0.203369
926.0	6.142276	2.044011	7.950094	-0.161458	-0.39135	0.458938	-0.776611	-0.118408	-0.205811
927.0	6.057445	2.119	7.947121	-0.31215	-0.333285	0.53641	-0.779053	-0.114014	-0.198975
928.0	6.316512	2.031562	8.314645	-0.508633	-0.344015	0.579681	-0.78125	-0.114014	-0.201172
929.0	6.657609	1.34707	8.339481	-0.759255	-0.338416	0.610467	-0.783936	-0.105469	-0.196777
930.0	6.913561	0.733677	8.098626	-0.78486	-0.294612	0.585342	-0.788574	-0.09668	-0.20166
931.0	6.92163	0.441204	8.140998	-0.464301	-0.201356	0.567871	-0.784424	-0.092285	-0.199463
932.0	6.36575	1.071507	8.085339	-0.094099	-0.144659	0.614617	-0.784668	-0.087891	-0.197266
933.0	6.054748	1.993567	8.61143	0.021916	-0.123244	0.749759	-0.784912	-0.079346	-0.190674
934.0	6.5816	1.768896	8.682389	-0.417194	-0.189264	0.875767	-0.783203	-0.072754	-0.192871
935.0	7.010858	0.095515	8.432737	-1.118238	-0.341014	0.826141	-0.790039	-0.063965	-0.184082
936.0	6.209059	-1.253247	8.288027	-0.958616	-0.453224	0.636391	-0.79248	-0.05957	-0.193115
937.0	6.315988	-1.248611	8.450653	-0.136084	-0.630246	0.522534	-0.790527	-0.055176	-0.184082
938.0	6.045535	-0.802143	9.082442	-0.072719	-0.840793	0.241666	-0.794922	-0.053223	-0.175049
939.0	5.91985	-0.312495	9.078892	0.377696	-1.179261	0.224166	-0.790527	-0.053223	-0.166016
940.0	5.934238	0.0905	9.305217	0.24333	-1.522844	0.108124	-0.80127	-0.05542	-0.154541
941.0	5.698737	-0.040099	9.028879	0.193788	-2.040345	-0.037331	-0.803711	-0.053223	-0.131836
942.0	4.838857	-0.215813	8.996701	0.31613	-2.59726	-0.193951	-0.807861	-0.053467	-0.108887
943.0	2.762793	-0.132345	8.985143	0.403745	-3.280539	-0.366317	-0.812256	-0.055664	-0.083984
944.0	1.915722	0.036414	8.613337	0.308888	-4.03615	-0.415803	-0.818604	-0.060303	-0.042725
945.0	4.182152	-0.399868	8.462165	0.042395	-4.959306	-0.536054	-0.820557	-0.066895	-0.001709
946.0	5.245814	-1.274824	8.063434	0.026314	-5.437331	-0.831934	-0.820313	-0.071289	0.041748
947.0	4.357728	-0.890532	7.280374	1.143837	-5.757379	-0.93093	-0.819824	-0.082275	0.089844
948.0	2.586654	1.16165	7.183426	2.145064	-6.267441	-0.61107	-0.813232	-0.080322	0.142334
949.0	3.989869	3.013345	9.171701	1.599877	-7.530813	-0.175333	-0.800293	-0.078125	0.215088
950.0	19.968359	5.201572	12.707859	0.182261	-8.557081	0.810471	-0.789551	-0.073975	0.271973
951.0	-8.425128	3.147677	6.036881	-0.165799	-6.989826	0.385388	-0.768066	-0.067383	0.340332
952.0	33.121879	8.624823	10.360572	1.086048	-11.151317	2.892345	-0.732178	-0.04126	0.419434
953.0	21.148375	7.421389	12.455903	-1.49038	-11.080018	2.624666	-0.688965	-0.032471	0.499023
954.0	25.975051	4.157229	13.123416	-2.598083	-11.251752	2.380312	-0.643555	-0.023438	0.573975
955.0	38.092364	5.408085	18.615795	-1.750901	-9.994865	2.521815	-0.591553	-0.014648	0.614746
956.0	35.990759	2.913873	24.654808	-0.039722	-7.641835	1.712401	-0.550537	-0.005615	0.664551
957.0	30.224967	2.76989	31.090845	0.576814	-4.757376	1.607363	-0.529541	0.011963	0.680176
958.0	4.432553	6.386794	27.335017	3.653388	-2.600061	1.406197	-0.513672	0.05127	0.693115
959.0	40.845599	16.784099	49.377383	2.900255	-2.561463	1.944518	-0.520996	0.066406	0.69043
960.0	0.741718	8.61745	25.08243	-0.132809	4.041933	0.531337	-0.538818	0.072998	0.669922
961.0	-11.314193	7.18214	16.433245	2.037844	1.46952	1.67766	-0.552979	0.099121	0.6604
962.0	-2.066789	10.156386	18.324906	1.269268	1.23595	1.812432	-0.562256	0.112061	0.648682
963.0	1.991148	9.398744	19.203018	-1.428537	1.530232	1.406638	-0.577148	0.103271	0.637451
964.0	6.115639	5.97673	19.14757	-2.78355	2.407636	0.823172	-0.596191	0.090088	0.628662
965.0	7.45295	1.855898	17.063745	-1.649755	3.945913	0.205965	-0.62207	0.085693	0.596924
966.0	4.838332	2.481452	14.428675	1.179852	5.336853	-0.169	-0.661865	0.094238	0.560303
967.0	3.615197	5.148916	13.279664	1.49855	5.966973	-0.452318	-0.692139	0.092041	0.519287
968.0	4.788723	4.644115	12.237239	-0.236234	6.069097	-0.619667	-0.71582	0.083252	0.473877
969.0	7.595157	1.126917	10.47133	-1.740194	6.270287	-0.72129	-0.747803	0.067871	0.428711
970.0	9.979815	-3.353625	7.329006	-0.773829	6.750779	-0.82535	-0.775879	0.059082	0.369629
971.0	10.85788	-2.625476	6.118581	2.066189	7.232667	-0.938418	-0.799805	0.056885	0.317383
972.0	11.64069	1.346337	6.094253	3.252061	7.389903	-1.100365	-0.821777	0.059082	0.253418
973.0	12.916071	3.871964	6.058023	3.009753	7.365266	-1.302955	-0.838623	0.045898	0.198975
974.0	13.71219	5.311034	6.538049	2.094485	7.207134	-1.478159	-0.855469	0.032959	0.137695
975.0	15.124255	4.838432	7.164188	0.387272	6.922277	-1.629906	-0.854736	0.02002	0.081055
976.0	16.13734	2.243898	6.517376	-1.016818	6.693477	-1.770451	-0.858398	0.002686	0.024414
977.0	16.087302	-0.067805	5.335221	-0.725274	6.552173	-1.963089	-0.853271	-0.014648	-0.034424
978.0	15.403416	0.224785	5.136992	0.970401	6.405598	-2.166913	-0.852295	-0.038574	-0.081787
979.0	14.887139	3.041891	6.40214	1.740154	6.133133	-2.416243	-0.84668	-0.064453	-0.124756
980.0	14.891665	4.782505	7.80725	0.82159	5.723411	-2.628182	-0.834473	-0.092773	-0.171875
981.0	15.541342	3.988964	8.613167	-0.852748	5.389107	-2.753054	-0.822754	-0.114258	-0.212646
982.0	15.80606	1.571881	8.732466	-1.626355	5.218729	-2.782004	-0.808838	-0.131592	-0.248779
983.0	16.100532	-0.608732	8.887315	-1.037193	5.183089	-2.73603	-0.797119	-0.151123	-0.291748
984.0	17.396321	-1.065969	10.414576	0.220559	5.166715	-2.665825	-0.780762	-0.174805	-0.336914
985.0	20.460273	-0.638708	12.255188	0.634438	5.229492	-2.588441	-0.758057	-0.196533	-0.36377
986.0	23.7675	-2.185633	12.31432	0.538268	5.511802	-2.514672	-0.735352	-0.21582	-0.406738
987.0	24.653935	-5.856789	10.155045	0.863126	5.906722	-2.678308	-0.705811	-0.241699	-0.445068
988.0	25.826065	-5.489513	7.664872	2.81087	6.178447	-2.687011	-0.678223	-0.271973	-0.47168
989.0	26.514794	-1.23215	5.596717	3.968828	6.160737	-2.55702	-0.644043	-0.304443	-0.503174
990.0	27.263975	0.989041	1.043643	3.794378	5.839123	-2.239074	-0.610107	-0.334717	-0.525391
991.0	26.385161	1.674176	-4.387269	3.052012	5.28176	-1.769856	-0.580566	-0.363037	-0.54541
992.0	25.815836	0.058195	-9.685203	1.361773	4.257512	-1.158839	-0.560791	-0.36499	-0.565918
993.0	25.582681	-3.521147	-13.7748	-0.923722	2.810709	-0.55343	-0.556641	-0.360596	-0.588623
994.0	27.66338	-7.188819	-16.392208	-1.18566	1.433593	-0.163041	-0.55249	-0.355957	-0.5979
995.0	28.485883	-6.36985	-15.532642	1.512787	0.641064	-0.265798	-0.551758	-0.371338	-0.593018
996.0	26.32526	-1.981159	-13.770938	3.491202	-0.043585	-0.35151	-0.55957	-0.393311	-0.578857
997.0	23.893898	1.076421	-9.951454	1.407628	-0.963891	-0.031708	-0.57251	-0.393311	-0.569824
998.0	22.933552	-1.632092	-6.897938	-3.50176	-2.421324	0.751659	-0.600342	-0.356445	-0.572754
999.0	21.012222	-5.849423	-3.04636	-6.613988	-3.096984	1.506228	-0.619873	-0.312988	-0.591797
1000.0	-21.354869	-7.380163	36.968273	-8.604101	-3.669937	1.004604	-0.66626	-0.247803	-0.579346
1001.0	-8.657111	-3.088906	11.40212	2.589993	-3.969942	5.176327	-0.710205	-0.243652	-0.536133
1002.0	-6.535956	-3.271328	-16.462273	8.631519	-3.898375	6.237578	-0.773682	-0.237793	-0.474609
1003.0	52.477548	18.339863	32.30851	-5.322726	-9.517538	5.000273	-0.807861	-0.155029	-0.44873
1004.0	16.850477	-5.745461	6.465685	-11.198085	-3.039258	-0.095545	-0.831055	-0.124756	-0.428955
1005.0	19.229998	-5.872535	6.162569	4.180936	-4.300185	-0.174653	-0.851563	-0.15332	-0.378174
1006.0	25.608115	5.61704	21.256272	3.774064	-3.088424	-0.113679	-0.864502	-0.153564	-0.359863
1007.0	11.335363	-2.157239	12.743533	-4.607007	-2.439748	0.139472	-0.876465	-0.129639	-0.348877
1008.0	7.016127	-6.255539	4.297287	-2.586785	-2.42504	0.162087	-0.882813	-0.13623	-0.328369
1009.0	10.926603	3.279507	8.353755	4.930688	-1.925152	0.192052	-0.893311	-0.14502	-0.30542
1010.0	9.909058	8.400555	12.618135	3.252915	-1.355335	-0.094073	-0.895508	-0.147461	-0.291748
1011.0	8.793556	5.791501	11.875944	-2.75639	-1.807642	0.25133	-0.911133	-0.138672	-0.280273
1012.0	8.664363	0.621523	8.516724	-4.337258	-1.569684	0.132733	-0.91626	-0.119141	-0.271729
1013.0	8.232345	-2.775571	7.777921	-1.286133	-1.167918	0.048367	-0.914063	-0.119141	-0.26709
1014.0	9.974943	0.164052	9.738621	1.408261	-0.755229	0.072741	-0.913818	-0.123535	-0.250977
1015.0	6.90468	1.737191	9.306469	1.054068	-0.407957	-0.019148	-0.920654	-0.119141	-0.246582
1016.0	6.492456	1.694216	9.213386	-0.503088	-0.562474	0.070605	-0.922607	-0.121338	-0.241943
1017.0	7.129618	0.481525	8.637381	-0.968945	-0.489366	0.013309	-0.925049	-0.119385	-0.246582
1018.0	6.43789	-0.502402	8.447488	-0.340131	-0.401608	-0.06908	-0.922852	-0.119385	-0.239746
1019.0	6.400915	-0.314148	8.419298	0.231519	-0.324702	-0.136214	-0.92041	-0.125732	-0.232666
1020.0	5.899738	0.595041	8.323592	0.487197	-0.298898	-0.233061	-0.924561	-0.130127	-0.232666
1021.0	6.035767	1.276713	8.579857	0.449763	-0.321085	-0.295211	-0.924805	-0.125977	-0.230469
1022.0	5.800134	1.3536	8.148016	0.261557	-0.311314	-0.319351	-0.922119	-0.134521	-0.22583
1023.0	6.173418	1.62146	7.988982	0.285944	-0.324538	-0.284476	-0.924316	-0.134521	-0.216553
1024.0	6.367603	1.941482	8.131234	0.310206	-0.270845	-0.189508	-0.928467	-0.141113	-0.21875
1025.0	6.043696	2.278345	7.778341	0.339902	-0.190385	-0.092747	-0.92627	-0.138916	-0.21875
1026.0	5.649608	2.62395	8.066781	0.42627	-0.169243	0.029794	-0.926025	-0.143311	-0.214111
1027.0	5.915259	2.468332	8.152041	0.065866	-0.142793	0.154198	-0.930664	-0.141113	-0.214111
1028.0	5.748314	2.003822	7.849472	-0.233498	-0.132748	0.250835	-0.933105	-0.134766	-0.209717
1029.0	5.658847	1.973491	7.678529	-0.21372	-0.157627	0.353455	-0.930908	-0.132568	-0.214355
1030.0	5.600823	2.010281	7.829854	-0.234181	-0.17484	0.421401	-0.929199	-0.123779	-0.209961
1031.0	5.754615	1.974454	8.286676	-0.464947	-0.255665	0.48183	-0.936035	-0.117188	-0.207764
1032.0	6.330042	1.448901	8.268015	-0.85896	-0.295625	0.476161	-0.931641	-0.11499	-0.203369
1033.0	6.367635	0.926185	7.972417	-0.841667	-0.308885	0.445339	-0.934326	-0.106445	-0.205811
1034.0	6.382099	0.894495	7.989325	-0.487811	-0.303631	0.439426	-0.936523	-0.104248	-0.203613
1035.0	6.422678	1.328117	8.273516	-0.230766	-0.284129	0.483947	-0.941406	-0.095459	-0.201416
1036.0	6.636886	1.424545	8.341626	-0.409048	-0.261439	0.516118	-0.939453	-0.08667	-0.197021
1037.0	6.875216	0.998203	8.352006	-0.719596	-0.276285	0.503881	-0.944092	-0.08252	-0.197021
1038.0	6.721395	0.282375	7.976067	-0.724407	-0.235381	0.442674	-0.944092	-0.080322	-0.192627
1039.0	6.311831	0.461087	7.922414	-0.245481	-0.208336	0.444489	-0.946777	-0.07373	-0.192627
1040.0	6.466522	1.246042	8.357454	0.08664	-0.202716	0.528538	-0.948975	-0.069336	-0.19043
1041.0	6.331085	1.644799	8.560539	-0.139231	-0.254871	0.632929	-0.95166	-0.058594	-0.190674
1042.0	6.558637	0.9054	8.66434	-0.61515	-0.355578	0.694265	-0.951904	-0.052002	-0.184082
1043.0	6.031868	0.119099	8.531301	-0.722296	-0.498537	0.665652	-0.948242	-0.041016	-0.179688
1044.0	6.486284	-0.372583	8.651642	-0.506075	-0.707423	0.621331	-0.957031	-0.036621	-0.170654
1045.0	6.296441	-0.561627	8.798893	-0.381671	-0.885148	0.485635	-0.957275	-0.030273	-0.16626
1046.0	6.272919	-0.078588	9.050421	0.275302	-1.156931	0.549963	-0.961914	-0.025879	-0.150391
1047.0	5.899645	0.200908	9.288852	0.114437	-1.447359	0.475378	-0.964355	-0.019531	-0.132324
1048.0	5.443407	-0.595706	8.962581	-0.178854	-1.991924	0.277727	-0.970947	-0.017334	-0.111816
1049.0	4.570183	-1.183652	8.672538	0.022305	-2.554467	0.049034	-0.973145	-0.017334	-0.084473
1050.0	2.934295	-0.91248	8.603673	0.514345	-3.118277	-0.145777	-0.973145	-0.017578	-0.050293
1051.0	2.661466	-0.314513	8.754845	0.534285	-3.850366	-0.260205	-0.984131	-0.017578	-0.009277
1052.0	4.26517	-1.10851	8.45058	-0.218622	-4.757543	-0.479108	-0.981445	-0.028564	0.034424
1053.0	5.586957	-1.944312	7.686441	-0.093196	-5.260504	-0.784151	-0.979248	-0.028809	0.084473
1054.0	5.131643	-1.975068	7.427187	1.007079	-5.529826	-0.954265	-0.976563	-0.039795	0.139404
1055.0	3.338359	0.108843	6.368722	2.00799	-5.910854	-0.999631	-0.967529	-0.044189	0.203369
1056.0	3.338072	1.912432	7.524572	2.161394	-6.9567	-0.65769	-0.950195	-0.044434	0.280762
1057.0	16.566349	4.337957	12.548212	0.74035	-8.096126	-0.195004	-0.937256	-0.037842	0.351318
1058.0	-7.082375	1.915606	5.818545	-0.296482	-6.652847	-0.493083	-0.898438	-0.029053	0.416992
1059.0	28.004491	5.348001	8.450953	0.904154	-10.518214	1.166788	-0.857666	-0.013916	0.514648
1060.0	22.701195	7.56721	12.191324	-0.396247	-10.850102	1.241592	-0.803467	-0.00293	0.60791
1061.0	23.419765	2.568188	11.329468	-1.022432	-10.470076	1.668768	-0.743164	0.012695	0.68042
1062.0	34.768098	5.272642	15.532679	-1.409262	-11.100214	1.74634	-0.669189	0.017334	0.762451
1063.0	40.815065	3.84998	22.303272	-0.66906	-7.452177	1.395041	-0.615234	0.030518	0.807617
1064.0	32.736893	2.933624	27.949682	0.940556	-6.382147	0.887094	-0.576904	0.05249	0.841309
1065.0	8.566364	5.766894	25.523679	2.851553	-2.683222	0.814464	-0.559326	0.094238	0.863281
1066.0	20.558039	13.927048	32.074021	4.486994	-4.136134	1.911251	-0.522217	0.144531	0.894043
1067.0	22.534393	16.412237	43.06547	-0.596416	1.074036	0.507495	-0.557129	0.14209	0.901123
1068.0	-7.93662	3.909046	17.749967	-2.451261	1.186824	0.549462	-0.572266	0.139648	0.923828
1069.0	-0.444024	1.432937	17.932146	-1.060879	0.576191	1.081631	-0.59082	0.163574	0.94165
1070.0	2.445997	1.671346	16.635836	1.535678	1.565703	0.781343	-0.62915	0.196045	0.947998
1071.0	2.346636	5.504457	16.551697	2.723237	2.476181	0.512861	-0.690186	0.243652	0.947021
1072.0	2.174108	7.237561	15.596832	2.204117	3.169003	0.18791	-0.761475	0.273682	0.951172
1073.0	3.053503	7.753629	15.191744	0.828327	3.702152	-0.110109	-0.840576	0.288574	0.944092
1074.0	5.090001	6.473162	14.354022	-0.588971	4.265499	-0.391795	-0.938721	0.290039	0.93042
1075.0	6.762109	4.494331	12.802736	-1.143114	4.973598	-0.642352	-1.049805	0.287354	0.896484
1076.0	7.420389	2.746287	11.050298	-0.96479	5.680924	-0.840495	-1.184814	0.280029	0.833008
1077.0	8.227756	1.412168	9.427469	-0.700672	6.168513	-0.936978	-1.332764	0.272705	0.749023
1078.0	9.256055	0.293654	7.786994	-0.662918	6.495993	-0.928355	-1.480225	0.250488	0.617432
1079.0	10.337157	-0.478016	6.431466	-0.17676	6.704547	-0.797297	-1.610107	0.232666	0.428711
1080.0	11.457137	0.565702	5.779118	0.734294	6.920817	-0.63728	-1.676758	0.210938	0.187744
1081.0	11.939203	2.499751	5.530148	1.255987	7.018951	-0.50842	-1.677734	0.183105	-0.064697
1082.0	12.94529	3.960086	5.99238	1.097189	6.910132	-0.468083	-1.609131	0.155762	-0.299072
1083.0	14.660104	4.242203	6.346498	0.174129	6.733829	-0.545955	-1.480957	0.120117	-0.510498
1084.0	15.787588	3.261785	5.772392	-0.653832	6.603864	-0.710537	-1.26123	0.084717	-0.667236
1085.0	16.112878	2.597962	5.001856	-0.260908	6.539088	-0.922986	-1.004883	0.058105	-0.689941
1086.0	15.2558	3.663439	4.693823	0.848901	6.521124	-1.194627	-0.810303	0.043945	-0.582764
1087.0	14.593912	5.475936	5.337015	1.282508	6.270144	-1.502722	-0.751465	0.048096	-0.42334
1088.0	15.167593	6.457333	7.0183	0.446179	5.936403	-1.791546	-0.812256	0.041016	-0.341064
1089.0	16.068871	5.089064	7.981913	-1.168337	5.70625	-2.055916	-0.891602	0.01001	-0.338135
1090.0	15.86449	2.656259	7.857071	-1.859097	5.61269	-2.241141	-0.918701	-0.018555	-0.389893
1091.0	15.464979	0.805325	7.750011	-1.035336	5.559971	-2.341344	-0.921387	-0.05542	-0.448486
1092.0	16.143281	0.620235	9.264922	0.493731	5.478971	-2.374134	-0.907227	-0.081543	-0.493408
1093.0	18.277193	1.043094	11.49523	0.77344	5.397994	-2.423333	-0.886475	-0.103027	-0.543213
1094.0	21.488092	-0.692731	11.687943	0.148648	5.441027	-2.416848	-0.856934	-0.131104	-0.599609
1095.0	22.543106	-2.896069	9.220504	0.85927	5.791284	-2.374958	-0.811523	-0.169922	-0.669678
1096.0	20.459788	-3.385936	7.233391	2.345131	5.903339	-2.395101	-0.746582	-0.208496	-0.718994
1097.0	20.132787	-1.383509	6.720574	2.662374	5.571993	-2.334553	-0.659912	-0.24292	-0.74585
1098.0	22.285231	0.746674	6.726111	2.640959	5.152073	-2.032429	-0.57666	-0.255371	-0.761719
1099.0	24.649257	1.318556	4.690769	2.02516	4.864513	-1.683984	-0.513428	-0.25293	-0.761719
1100.0	24.622199	0.533468	0.211789	1.104348	4.607753	-1.398226	-0.457031	-0.243652	-0.761963
1101.0	23.056419	-1.105415	-5.354756	0.853765	4.038152	-1.052513	-0.407471	-0.232422	-0.750977
1102.0	22.151296	-2.659203	-10.141187	1.0661	3.14073	-0.798839	-0.38623	-0.219238	-0.742188
1103.0	22.771827	-2.959085	-11.437491	1.074601	1.993472	-0.58042	-0.364258	-0.221436	-0.73291
1104.0	23.095724	-2.386658	-11.191859	0.989786	1.181083	-0.694751	-0.355957	-0.212646	-0.724121
1105.0	21.01131	-2.381041	-11.020701	0.919246	0.476725	-0.933011	-0.354004	-0.208252	-0.712646
1106.0	21.256631	-1.271367	-10.280421	0.516089	-0.433163	-0.829692	-0.352051	-0.203857	-0.701416
1107.0	21.37946	-0.223568	-7.499048	-0.437014	-1.059194	-0.380143	-0.361084	-0.195313	-0.692383
1108.0	20.683418	-2.419475	-4.383211	-2.866457	-1.629931	0.16005	-0.374023	-0.153809	-0.686523
1109.0	3.504017	-7.276769	1.136161	-5.890663	-1.632977	-0.101054	-0.38916	-0.105957	-0.682861
1110.0	-19.629493	1.405827	-6.311067	0.246229	-4.312301	1.518801	-0.425781	-0.11499	-0.641602
1111.0	-21.908774	7.383106	16.461717	5.549119	-7.836929	7.926533	-0.494873	-0.082764	-0.598877
1112.0	57.999678	6.593341	9.117728	-8.807655	-11.455027	3.634003	-0.553467	0.006104	-0.559326
1113.0	22.34486	-4.995341	7.365815	-8.021	-5.178953	-2.116554	-0.578125	0.023438	-0.516357
1114.0	30.424526	-2.418008	14.420649	2.845412	-6.164468	-1.347291	-0.609863	0.001221	-0.479492
1115.0	26.477516	-5.242922	22.091777	-2.799869	-4.717737	-1.238473	-0.628418	0.0271	-0.454834
1116.0	11.342322	-17.422441	5.599717	-6.859391	-3.705265	-1.068242	-0.646484	0.042236	-0.427734
1117.0	9.208498	-8.260415	1.876692	5.377299	-3.513402	-0.406728	-0.651367	0.005127	-0.411133
1118.0	12.552591	11.658064	8.7207	11.301228	-2.475383	-0.791163	-0.662354	-0.045166	-0.378174
1119.0	18.292384	30.600078	21.35363	4.599314	-2.087557	-0.202121	-0.668945	-0.043213	-0.373779
1120.0	10.489128	9.293469	12.509837	-10.106004	-1.831718	0.009101	-0.675781	0.011475	-0.363281
1121.0	11.10682	-6.130914	5.792383	-12.664194	-1.838976	0.359143	-0.686523	0.057129	-0.357422
1122.0	9.369919	-16.314129	0.326616	-0.655368	-0.570041	0.326382	-0.681396	0.039795	-0.352539
1123.0	10.683211	-1.238703	9.634432	6.983897	-0.393642	0.435994	-0.689209	0.022217	-0.347656
1124.0	7.0048	6.452628	9.350526	5.223614	0.553898	0.464144	-0.682129	0.01123	-0.349609
1125.0	5.556611	8.864154	10.823674	-0.600882	-0.224288	0.626197	-0.689453	0.028809	-0.352295
1126.0	6.848644	2.292413	8.174498	-4.324962	-0.48523	0.607813	-0.692627	0.04834	-0.341309
1127.0	7.258438	-2.140671	7.205566	-3.860817	-0.349876	0.478827	-0.693115	0.061523	-0.346191
1128.0	7.001877	-4.41313	6.400617	-0.8052	-0.129046	0.305881	-0.693359	0.063477	-0.339355
1129.0	6.865054	-1.612012	7.706927	1.698999	0.003678	0.14836	-0.693115	0.057129	-0.345947
1130.0	6.491136	1.082829	8.626778	1.67863	0.012314	0.018999	-0.692871	0.054932	-0.350586
1131.0	6.180658	2.069685	8.710711	0.31769	-0.081291	-0.068946	-0.692627	0.050537	-0.341309
1132.0	5.81235	1.068486	7.878587	-0.684268	-0.200564	-0.137081	-0.688477	0.052734	-0.339111
1133.0	5.58433	0.209991	7.308245	-0.389856	-0.265852	-0.111711	-0.690674	0.052734	-0.336914
1134.0	6.376043	1.352548	7.590619	0.440478	-0.241945	-0.019538	-0.692627	0.050537	-0.341309
1135.0	6.566592	2.432206	8.027992	0.422227	-0.199858	0.068956	-0.692871	0.054932	-0.336914
1136.0	6.39383	2.71207	7.933177	-0.141721	-0.203072	0.164218	-0.697266	0.054932	-0.336914
1137.0	6.253543	1.98178	7.688492	-0.545591	-0.175546	0.231682	-0.697266	0.054932	-0.339111
1138.0	6.362591	1.142551	7.972038	-0.494081	-0.20038	0.257913	-0.695557	0.065674	-0.330322
1139.0	6.547695	0.720962	7.871275	-0.430488	-0.211487	0.238471	-0.693359	0.063477	-0.327881
1140.0	6.86375	0.500091	7.765912	-0.227684	-0.189341	0.220025	-0.702148	0.065674	-0.33252
1141.0	6.926873	0.470211	7.748704	-0.125511	-0.165978	0.168664	-0.695801	0.070068	-0.323486
1142.0	6.859886	0.686287	7.971765	-0.066818	-0.162747	0.148284	-0.702148	0.067871	-0.323486
1143.0	6.755225	0.495574	7.887158	-0.123218	-0.1629	0.095286	-0.702393	0.072266	-0.325928
1144.0	6.805857	0.100662	7.76542	-0.148908	-0.185455	0.006545	-0.698242	0.07666	-0.32373
1145.0	6.817037	0.215571	7.677865	0.083611	-0.170948	-0.059252	-0.702148	0.067871	-0.318848
1146.0	6.813892	0.728612	7.697956	0.258789	-0.150637	-0.087002	-0.702393	0.070068	-0.323486
1147.0	6.753137	1.012767	7.775485	0.137887	-0.138299	-0.079555	-0.704346	0.065674	-0.321045
1148.0	6.699135	0.998822	7.667484	0.015718	-0.133662	-0.07093	-0.702393	0.072266	-0.328125
1149.0	6.709913	0.865013	7.729769	0.005389	-0.129601	-0.064468	-0.70459	0.070068	-0.31665
1150.0	6.705394	0.827576	7.813978	-0.001305	-0.144557	-0.075595	-0.706543	0.065674	-0.309814
1151.0	6.65334	0.860384	7.691921	0.016543	-0.152908	-0.063832	-0.702148	0.065674	-0.318848
1152.0	6.686967	1.208695	7.700219	0.017917	-0.155841	-0.024464	-0.704346	0.067871	-0.318848
1153.0	6.706748	1.251687	7.722289	-0.007347	-0.173543	0.030542	-0.706543	0.065674	-0.318848
1154.0	6.530875	1.280345	7.742226	-0.060587	-0.20153	0.078715	-0.704102	0.063477	-0.316406
1155.0	6.592759	1.316849	7.83393	-0.108242	-0.254064	0.14179	-0.706787	0.074463	-0.314453
1156.0	6.37313	0.867963	7.684716	-0.228684	-0.291477	0.135507	-0.708984	0.074219	-0.312256
1157.0	6.669452	1.345199	7.45579	0.125142	-0.336303	0.209426	-0.706543	0.070068	-0.314453
1158.0	6.771668	1.742273	7.882183	0.19895	-0.404309	0.33518	-0.713379	0.076416	-0.309814
1159.0	6.939278	1.345932	7.883365	-0.262957	-0.43422	0.406437	-0.711426	0.080811	-0.301025
1160.0	6.900624	0.523085	7.7031	-0.596922	-0.47278	0.378348	-0.713867	0.085205	-0.298828
1161.0	6.813938	0.050041	7.548104	-0.34685	-0.501669	0.337339	-0.711914	0.0896	-0.296631
1162.0	6.779276	0.297789	7.536829	0.089073	-0.5316	0.303471	-0.716064	0.087402	-0.287354
1163.0	6.79482	0.998689	7.713051	0.201319	-0.606128	0.336143	-0.7229	0.09375	-0.282959
1164.0	6.760703	1.385716	7.95125	-0.020005	-0.684393	0.385683	-0.720947	0.098145	-0.278564
1165.0	6.682921	1.133026	8.032498	-0.381975	-0.822539	0.425277	-0.727539	0.100342	-0.271729
1166.0	6.709222	0.795967	8.101859	-0.510984	-0.950964	0.482551	-0.730225	0.106934	-0.26709
1167.0	6.457659	0.484021	7.864886	-0.314688	-1.058276	0.572734	-0.726074	0.113281	-0.258301
1168.0	6.076708	0.141612	8.047823	-0.089233	-1.251126	0.688169	-0.732666	0.115479	-0.244629
1169.0	5.890058	0.290455	7.789653	0.388842	-1.53319	0.908704	-0.737305	0.12207	-0.240234
1170.0	6.354367	1.494411	7.692269	1.411537	-1.817371	1.402963	-0.742188	0.132813	-0.224365
1171.0	6.984775	2.028925	7.887811	1.525219	-2.095405	1.941727	-0.742676	0.141602	-0.204102
1172.0	7.155172	2.174961	7.676923	1.348042	-2.416553	2.516819	-0.748047	0.167725	-0.188721
1173.0	7.310747	2.136465	7.445965	1.735174	-2.674536	3.187726	-0.75293	0.180664	-0.170654
1174.0	7.731591	2.111556	7.070107	1.999931	-2.978445	3.850769	-0.752197	0.211182	-0.153076
1175.0	8.583127	1.925074	6.392669	2.166806	-3.159273	4.444778	-0.751465	0.243896	-0.133057
1176.0	8.114526	2.023261	6.692628	2.751878	-3.268911	4.862313	-0.73999	0.281006	-0.113281
1177.0	8.916707	2.056968	6.184902	3.89407	-3.282157	5.126013	-0.730469	0.309326	-0.100342
1178.0	10.401567	2.165101	5.607447	5.133531	-3.120521	5.084494	-0.723145	0.339844	-0.091797
1179.0	12.039507	2.20352	5.57902	6.237259	-2.87101	5.14126	-0.709229	0.370605	-0.094727
1180.0	15.234122	3.731368	6.843997	7.389528	-2.396818	5.403142	-0.692871	0.394775	-0.102051
1181.0	12.737532	4.978153	7.078716	8.004282	-1.539712	5.779581	-0.683594	0.429688	-0.123291
1182.0	8.865079	4.311221	6.937467	7.472205	-1.269047	6.127671	-0.6521	0.460693	-0.14209
1183.0	7.075621	1.672145	5.997081	6.289245	-1.272249	6.202166	-0.631836	0.495605	-0.158691
1184.0	7.308179	0.210906	5.847355	6.339056	-1.297566	6.250206	-0.606934	0.52417	-0.188965
1185.0	7.766435	1.159838	6.194893	8.094913	-0.94073	6.218229	-0.579346	0.537598	-0.223389
1186.0	6.00571	5.35311	7.738121	9.439783	-0.413209	5.947478	-0.54248	0.542236	-0.266846
1187.0	4.697491	13.642915	5.320261	11.985111	0.481817	4.906302	-0.52002	0.527344	-0.3396
1188.0	3.321732	22.10891	6.757106	13.882601	0.886322	2.849584	-0.509766	0.49707	-0.400391
1189.0	1.761924	20.766738	13.826555	5.234312	-0.228896	1.464389	-0.505615	0.499268	-0.400635
1190.0	3.602316	4.703191	13.149228	-1.964006	-0.950802	0.899614	-0.504395	0.523193	-0.38501
1191.0	4.521137	-12.025784	8.511178	-1.077955	-0.748225	0.317978	-0.502197	0.520996	-0.391846
1192.0	6.890094	-17.037811	5.236599	9.066538	0.695236	1.245471	-0.485352	0.486328	-0.450439
1193.0	6.098196	-1.65765	11.1413	11.141868	1.26761	2.088616	-0.466309	0.45166	-0.5
1194.0	5.869617	-0.108691	12.041304	6.429299	1.020976	2.856588	-0.446533	0.44751	-0.518066
1195.0	7.437017	-4.269103	10.983703	2.723519	0.720123	3.531318	-0.429688	0.456543	-0.538818
1196.0	8.135262	-11.106469	7.631924	3.504885	0.982817	4.165037	-0.405518	0.452393	-0.561523
1197.0	6.586939	-9.071723	6.905369	5.711043	1.317047	4.931176	-0.374512	0.446045	-0.595703
1198.0	6.250835	-7.902911	7.619111	4.353477	0.832546	5.485333	-0.348145	0.441895	-0.616211
1199.0	7.570108	-10.122989	6.455884	4.188642	0.426678	5.832536	-0.317139	0.431152	-0.641113
1200.0	7.573933	-4.957412	5.141011	6.475444	0.817621	5.663336	-0.289795	0.403076	-0.674805
1201.0	6.918601	1.108171	5.643598	7.356371	0.724341	5.160159	-0.26416	0.368408	-0.706055
1202.0	6.850519	3.955858	6.709232	6.438287	0.675357	4.390643	-0.245361	0.335938	-0.732666
1203.0	6.308712	3.417856	8.123557	4.660489	0.427363	3.886763	-0.235596	0.314209	-0.752686
1204.0	5.915021	-0.111834	8.689567	3.112787	0.260713	3.613171	-0.221924	0.296875	-0.759277
1205.0	5.034345	-4.560392	8.460011	3.240873	0.260171	3.559341	-0.212402	0.279541	-0.779541
1206.0	4.938643	-5.561654	8.688188	4.831248	0.483918	3.663679	-0.191162	0.244873	-0.797119
1207.0	4.996101	-2.741379	9.322881	5.305842	0.569025	3.681673	-0.183105	0.209961	-0.816895
1208.0	5.498812	-0.883854	9.283472	4.986016	0.52208	3.560165	-0.176758	0.168457	-0.825195
1209.0	4.84529	0.249523	9.231479	4.872794	0.64365	3.391045	-0.170898	0.133789	-0.833496
1210.0	5.307749	0.329874	10.330782	4.221184	0.577897	3.370886	-0.158447	0.098877	-0.84668
1211.0	4.475867	-0.616991	8.786182	4.027333	0.612605	3.268366	-0.148438	0.070557	-0.853027
1212.0	4.888209	0.251487	9.007001	4.20176	0.572794	3.09321	-0.144531	0.033447	-0.856689
1213.0	5.274674	0.521106	8.512689	3.927633	0.573003	2.804809	-0.140869	-0.001465	-0.860596
1214.0	5.143906	1.014725	8.263468	3.96955	0.589743	2.49206	-0.143555	-0.036377	-0.857666
1215.0	4.230163	1.339262	8.950942	3.628349	0.624887	2.155376	-0.133545	-0.066895	-0.861572
1216.0	3.209966	4.004651	9.448212	3.456319	0.57057	1.822686	-0.136475	-0.099609	-0.858643
1217.0	3.029506	3.197244	15.124616	1.199192	0.3937	1.428569	-0.134277	-0.097412	-0.858643
1218.0	0.74386	-2.731	12.477323	-2.314919	0.182499	0.928893	-0.135254	-0.075439	-0.870605
1219.0	-1.172571	-9.000956	11.004048	-1.156434	0.068781	0.193558	-0.133301	-0.073242	-0.86377
1220.0	-1.010473	-6.780143	14.704241	1.216276	0.662907	-0.528651	-0.125977	-0.088623	-0.86792
1221.0	-0.301871	-3.159203	11.84249	1.527703	0.508484	-1.020027	-0.12085	-0.105957	-0.863037
1222.0	5.198029	0.730047	6.633896	2.817613	0.019176	-0.84498	-0.126465	-0.130127	-0.862549
1223.0	10.069866	7.047367	10.771745	3.054631	-0.022228	-0.34686	-0.125244	-0.154053	-0.857666
1224.0	4.603786	6.240722	9.23616	1.201644	0.208076	-0.032244	-0.12085	-0.15625	-0.862061
1225.0	5.216625	3.765527	10.228487	-1.6469	-0.610776	0.226299	-0.130371	-0.138916	-0.860107
1226.0	5.700071	-0.959528	8.921865	-2.937845	-0.835747	0.265158	-0.135986	-0.110596	-0.858398
1227.0	6.615748	-3.677233	7.128488	-0.326311	-0.69033	0.345404	-0.144043	-0.123535	-0.860596
1228.0	4.628754	-1.853965	10.213722	1.340307	-0.571324	0.281492	-0.145996	-0.12793	-0.858154
1229.0	6.315697	-1.73121	10.610381	0.67575	-0.902389	0.569928	-0.161133	-0.132568	-0.851074
1230.0	9.519012	-2.977862	11.615325	0.707147	-0.627837	0.698844	-0.160889	-0.138916	-0.851074
1231.0	8.072921	-0.638937	10.844746	2.524591	-0.017372	0.872191	-0.155518	-0.163086	-0.839111
1232.0	6.027966	3.194252	11.597295	2.596036	0.24993	1.074381	-0.15918	-0.178467	-0.834229
1233.0	4.032283	4.258119	11.119778	1.282593	0.16528	1.219405	-0.161377	-0.178467	-0.827393
1234.0	3.529642	3.524875	10.692575	-0.131301	-0.053118	1.23384	-0.165771	-0.17627	-0.829834
1235.0	3.503387	2.142261	9.873445	-0.3605	-0.110038	1.132767	-0.172607	-0.16748	-0.827637
1236.0	2.87157	2.870197	9.717526	0.51336	-0.032686	0.995293	-0.168213	-0.169678	-0.822998
1237.0	2.137597	4.630208	10.11389	0.721718	-0.046997	0.835176	-0.172363	-0.174072	-0.816162
1238.0	1.494318	5.135432	10.171176	0.191	-0.152271	0.627655	-0.172363	-0.17627	-0.820557
1239.0	0.92328	4.419002	9.8887	-0.204062	-0.260614	0.377511	-0.176758	-0.171875	-0.809326
1240.0	0.797941	3.647757	10.296309	-0.080312	-0.273233	0.074887	-0.179199	-0.169922	-0.800293
1241.0	1.277372	3.684984	11.090184	0.187915	-0.188933	-0.23465	-0.181152	-0.172119	-0.800293
1242.0	1.219314	4.099074	11.878043	0.285639	-0.02005	-0.483939	-0.179443	-0.16333	-0.798096
1243.0	1.060093	3.804592	12.218425	0.018872	0.098914	-0.685255	-0.179199	-0.169922	-0.788818
1244.0	1.110226	2.919644	12.233639	-0.180732	0.229423	-0.852623	-0.17041	-0.169922	-0.779785
1245.0	1.113049	2.029762	11.980864	-0.122982	0.381189	-0.973224	-0.168213	-0.167725	-0.770752
1246.0	1.234125	1.423355	11.698201	0.041978	0.546344	-1.04059	-0.161865	-0.167725	-0.766113
1247.0	1.057158	1.228392	11.449358	0.24156	0.696785	-1.059275	-0.159424	-0.171875	-0.766113
1248.0	1.41944	1.553769	11.639962	0.331858	0.783587	-1.023423	-0.157227	-0.169678	-0.761475
1249.0	2.13321	1.704553	11.75479	0.268362	0.919055	-0.967595	-0.144043	-0.171875	-0.754639
1250.0	2.479319	1.525497	11.684619	0.217188	1.085251	-0.910109	-0.137695	-0.171875	-0.750244
1251.0	2.633258	1.122781	11.543055	0.152459	1.23149	-0.863624	-0.131104	-0.169678	-0.745605
1252.0	2.690543	0.292598	10.989605	0.092642	1.349864	-0.811342	-0.124756	-0.16748	-0.73877
1253.0	2.771037	-0.290638	10.253677	0.229462	1.437956	-0.750183	-0.12207	-0.17627	-0.729492
1254.0	2.985575	0.172445	9.746606	0.516906	1.4921	-0.631898	-0.111328	-0.171631	-0.736572
1255.0	3.463534	1.070915	9.69576	0.491721	1.498999	-0.467354	-0.104736	-0.176025	-0.729492
1256.0	4.333394	1.4866	9.606776	0.206189	1.482495	-0.261517	-0.098389	-0.171631	-0.729736
1257.0	5.214582	1.412383	9.023545	0.172388	1.532815	-0.038408	-0.098633	-0.167236	-0.734375
1258.0	5.377116	1.441861	8.066684	0.357805	1.589907	0.15615	-0.087402	-0.173828	-0.727295
1259.0	5.47427	1.502802	6.755996	0.59394	1.572858	0.264201	-0.085205	-0.173828	-0.734131
1260.0	5.633577	1.856779	5.399886	1.027541	1.496835	0.261577	-0.082764	-0.18042	-0.727295
1261.0	6.055113	2.9249	4.631762	1.49182	1.374095	0.189958	-0.075684	-0.191162	-0.733887
1262.0	6.813378	3.973971	4.151553	1.549556	1.220226	0.058404	-0.069092	-0.193359	-0.727051
1263.0	7.918322	4.619294	3.589255	1.108102	0.978197	-0.032467	-0.06665	-0.197754	-0.722412
1264.0	9.09051	4.312966	2.536072	0.418408	0.722814	-0.145996	-0.06665	-0.199951	-0.731445
1265.0	9.494426	3.119662	1.37795	0.061589	0.431904	-0.340694	-0.068848	-0.195557	-0.736084
1266.0	9.557798	2.061943	0.744554	0.174552	0.105641	-0.582228	-0.071289	-0.193359	-0.733887
1267.0	10.930309	1.187195	1.31049	0.177935	-0.119491	-0.781012	-0.071045	-0.197754	-0.738281
1268.0	11.329249	0.060339	1.909957	0.094493	-0.092837	-0.748457	-0.077881	-0.191162	-0.736084
1269.0	10.548303	-1.540777	1.796844	-0.087238	-0.032244	-0.36284	-0.076172	-0.180176	-0.736328
1270.0	8.605627	-3.608685	0.593027	-0.379541	0.008067	0.144766	-0.087402	-0.173828	-0.73877
1271.0	4.676344	0.156827	-1.516072	0.321526	-0.044808	0.712604	-0.095459	-0.184814	-0.731689
1272.0	3.937191	3.070982	-18.182712	4.232384	-0.865373	2.369875	-0.116455	-0.20459	-0.719971
1273.0	-14.495846	-5.038062	2.207968	-5.954341	-3.973289	0.402202	-0.170898	-0.111084	-0.733154
1275.0	51.538389	-15.023419	23.419006	-5.768938	-6.044496	0.728105	-0.237793	-0.07666	-0.708496
1276.0	-0.430737	3.729634	2.739122	9.153429	2.712185	-0.48738	-0.216797	-0.157227	-0.697998
1277.0	-18.935921	11.21338	5.508368	8.967791	-0.889566	0.595941	-0.24585	-0.190186	-0.678955
1278.0	20.37633	19.907161	26.513934	-5.976035	-4.834282	2.320133	-0.282715	-0.098877	-0.685303
1279.0	28.197897	-2.648472	4.575977	-15.092936	0.530424	0.43405	-0.26709	-0.004639	-0.707764
1280.0	-4.531032	-19.797859	-1.226451	-2.355718	-0.804418	-0.85465	-0.275146	-0.022217	-0.702881
1281.0	12.591225	-3.784166	8.900718	7.159417	-0.017576	0.471389	-0.276855	-0.081299	-0.694824
1282.0	6.675075	4.313092	8.860077	6.408585	0.343646	-0.392448	-0.270752	-0.118408	-0.682617
1283.0	7.278674	9.035	11.435183	2.01944	0.034511	-0.046595	-0.274902	-0.122803	-0.684814
1284.0	6.050222	4.515557	9.463474	-3.114379	-0.246219	-0.127401	-0.27417	-0.090088	-0.690186
1285.0	6.758499	0.158162	7.846345	-4.26372	-0.313473	-0.135793	-0.281982	-0.061523	-0.692871
1287.0	6.602611	-2.626038	6.395036	0.228631	0.056014	-0.212241	-0.272461	-0.081299	-0.692627
1288.0	6.068588	1.905507	8.48124	2.985305	0.209628	-0.242139	-0.269531	-0.098633	-0.689941
1290.0	5.607504	3.141136	8.865014	0.552299	0.013935	-0.251578	-0.277832	-0.107422	-0.689697
1291.0	6.288263	1.332908	8.056476	-1.315622	-0.162692	-0.255524	-0.276367	-0.092285	-0.689941
1292.0	6.517217	0.026907	7.390981	-0.720622	-0.073956	-0.27112	-0.271973	-0.094238	-0.69458
1293.0	6.382313	0.146268	7.298918	0.45602	0.00967	-0.27319	-0.269531	-0.098633	-0.689941
1294.0	5.751849	1.447123	7.514195	1.019535	0.025369	-0.254423	-0.273682	-0.105225	-0.685303
1295.0	5.447575	2.400085	7.720989	0.742381	-0.055384	-0.196284	-0.270996	-0.116211	-0.689453
1296.0	5.833823	2.549733	7.9491	-0.049449	-0.16115	-0.122923	-0.273193	-0.114014	-0.685059
1298.0	6.085963	1.624153	7.660674	-0.473604	-0.214483	-0.039762	-0.273682	-0.105225	-0.682861
1299.0	5.857019	1.377496	7.558623	-0.101825	-0.203358	0.044314	-0.280029	-0.109619	-0.685059
1301.0	5.814123	1.795159	7.783661	-0.089143	-0.276325	0.102941	-0.282471	-0.101074	-0.683105
1304.0	6.200088	2.418711	7.882303	-0.285095	-0.317982	0.310912	-0.285156	-0.090088	-0.67627
1305.0	6.844261	2.118955	8.375397	-0.826112	-0.269718	0.452796	-0.293945	-0.087891	-0.680908
1306.0	7.075617	0.716719	7.869338	-1.234996	-0.273845	0.384007	-0.294678	-0.070557	-0.678955
1308.0	6.890203	-0.404384	7.644878	-0.558042	-0.189898	0.259124	-0.297363	-0.063965	-0.676758
1309.0	6.757124	0.285278	7.784331	0.369509	-0.113987	0.139011	-0.299316	-0.068359	-0.676758
1310.0	6.628352	1.344026	8.090148	0.428308	-0.086342	0.137277	-0.303467	-0.070557	-0.678955
1311.0	6.579463	1.35992	8.087463	0.01716	-0.118187	0.132541	-0.301514	-0.066162	-0.674561
1312.0	6.500942	0.778417	7.869069	-0.294132	-0.165213	0.097336	-0.299561	-0.061768	-0.679199
1313.0	6.450108	0.639096	7.778745	0.0217	-0.171642	0.09578	-0.303711	-0.066162	-0.676758
1314.0	6.423248	1.58686	7.989659	0.336635	-0.184299	0.17172	-0.310059	-0.070557	-0.674561
1317.0	6.335478	1.4396	8.379031	-0.203607	-0.380992	0.369531	-0.321533	-0.057617	-0.670166
1318.0	6.184764	-1.025493	8.054518	-0.408967	-0.719809	0.129425	-0.327881	-0.059814	-0.66333
1319.0	6.248861	-0.930339	7.837682	0.466118	-0.943991	-0.06741	-0.332031	-0.064209	-0.667725
1320.0	6.14715	0.740824	8.706914	1.176716	-1.230706	-0.131142	-0.342773	-0.070801	-0.658447
1323.0	5.421259	0.383668	8.873017	0.410748	-2.231183	-0.327889	-0.396729	-0.080078	-0.635498
1325.0	3.626733	-0.078202	8.518631	0.972518	-3.771994	-0.686854	-0.448486	-0.095703	-0.605469
1328.0	4.580563	1.222874	7.676603	1.055299	-5.022225	-0.621218	-0.552246	-0.114014	-0.525146
1330.0	5.220086	1.390871	8.282293	0.424259	-6.311636	-0.605272	-0.624023	-0.118896	-0.449707
1331.0	9.490831	2.295688	9.591945	0.157737	-7.232921	-0.74992	-0.656738	-0.121582	-0.399658
1333.0	13.870358	3.066509	7.626692	0.261786	-8.998793	-0.301613	-0.746338	-0.11377	-0.262939
1334.0	19.531202	0.791749	7.22386	0.120075	-10.466424	-0.459204	-0.781494	-0.112061	-0.187744
1335.0	24.678016	2.959319	11.524797	1.740259	-11.027213	-0.105446	-0.811768	-0.112305	-0.103271
1337.0	35.353935	4.856739	18.65769	0.251516	-10.375634	-0.029656	-0.869385	-0.095703	0.053711
1338.0	31.84401	2.022173	29.212092	0.586058	-6.866177	-0.380875	-0.887207	-0.087158	0.094727
1339.0	20.341098	-0.286272	29.24707	2.169683	-3.532976	0.262189	-0.917969	-0.078613	0.112793
1340.0	14.0552	0.962479	19.64111	4.892205	-3.575747	1.531606	-0.937256	-0.039551	0.141602
1341.0	44.829703	13.299143	48.240653	5.577011	-1.623752	2.611138	-0.958252	-0.009033	0.106934
