Acquisition frequency: 100 Hz
PacketCounter	Acc_X	Acc_Y	Acc_Z	Gyr_X	Gyr_Y	Gyr_Z	Mag_X	Mag_Y	Mag_Z
0.0	5.494626	-1.576084	8.179058	-0.079486	-0.035406	0.041975	-0.559326	0.138672	-0.158203
1.0	5.515309	-1.643963	8.227821	-0.076496	-0.032003	0.03565	-0.561768	0.147217	-0.158203
2.0	5.543016	-1.641686	8.204407	-0.068076	-0.028632	0.035931	-0.563965	0.147217	-0.158203
3.0	5.570398	-1.638905	8.181299	-0.067421	-0.023403	0.031325	-0.565918	0.143066	-0.1604
4.0	5.562058	-1.669009	8.155639	-0.055106	-0.016683	0.028996	-0.55957	0.147217	-0.158203
5.0	5.545231	-1.691517	8.152411	-0.050076	-0.013837	0.021863	-0.561768	0.14502	-0.158203
6.0	5.585066	-1.705693	8.195192	-0.036938	-0.014096	0.018735	-0.563721	0.14502	-0.158203
7.0	5.604547	-1.689007	8.141314	-0.021104	-0.000948	0.017864	-0.557373	0.147217	-0.162598
8.0	5.545806	-1.701459	8.14995	-0.003955	0.007217	0.01345	-0.563721	0.140869	-0.162598
9.0	5.478276	-1.705938	8.181352	0.006872	0.01651	0.009231	-0.568115	0.14502	-0.156006
10.0	5.475952	-1.602605	8.232275	0.008686	0.013523	0.002949	-0.568115	0.142822	-0.158203
11.0	5.435214	-1.489593	8.238501	0.004746	0.003271	0.001069	-0.55957	0.147217	-0.156006
12.0	5.525655	-1.479243	8.241771	-0.01229	0.000183	0.006802	-0.557373	0.147217	-0.1604
13.0	5.556821	-1.510663	8.207634	-0.017782	-0.0065	0.013486	-0.557373	0.147217	-0.1604
14.0	5.538219	-1.559987	8.159716	-0.025976	-0.00929	0.015464	-0.561768	0.147217	-0.162598
15.0	5.568209	-1.596006	8.179504	-0.027999	-0.008721	0.016287	-0.563965	0.147217	-0.156006
16.0	5.492879	-1.626422	8.185641	-0.027347	-0.011213	0.014511	-0.563965	0.149414	-0.158203
17.0	5.521709	-1.692091	8.159627	-0.023905	-0.011694	0.01146	-0.566162	0.151611	-0.156006
18.0	5.540258	-1.677557	8.160099	-0.021586	-0.012677	0.002444	-0.566406	0.153564	-0.156006
19.0	5.568454	-1.639299	8.184183	-0.019303	-0.012666	0.003901	-0.563721	0.14502	-0.1604
20.0	5.551679	-1.657585	8.181735	-0.015679	-0.009899	-0.000994	-0.561768	0.147217	-0.158203
21.0	5.568701	-1.671675	8.136872	-0.014341	-0.007143	-0.007348	-0.561768	0.14502	-0.1604
22.0	5.530168	-1.636271	8.192209	-0.013569	-0.004561	-0.007796	-0.563965	0.147217	-0.1604
23.0	5.530686	-1.636659	8.191782	-0.008432	-0.004364	-0.010784	-0.561523	0.142822	-0.158203
24.0	5.554046	-1.65968	8.179704	-0.007927	-0.002363	-0.013517	-0.561523	0.142822	-0.158203
25.0	5.594888	-1.66557	8.169358	-0.00463	0.001652	-0.017523	-0.566162	0.147217	-0.156006
26.0	5.56003	-1.591943	8.162268	0.003179	0.007517	-0.015438	-0.561768	0.14502	-0.1604
27.0	5.573076	-1.637239	8.127322	0.002079	0.006178	-0.014104	-0.55957	0.149414	-0.158203
28.0	5.541736	-1.606714	8.161555	0.00089	0.007504	-0.016899	-0.55957	0.147217	-0.1604
29.0	5.57884	-1.64503	8.160741	0.004123	0.013346	-0.017732	-0.565918	0.14502	-0.1604
30.0	5.545535	-1.643692	8.149813	0.01003	0.016128	-0.021169	-0.568115	0.14502	-0.156006
31.0	5.544481	-1.641537	8.150965	0.012223	0.018804	-0.023842	-0.561768	0.14502	-0.1604
32.0	5.557867	-1.655511	8.162743	0.014856	0.025307	-0.026076	-0.561768	0.147217	-0.156006
33.0	5.600796	-1.595815	8.191242	0.016983	0.02981	-0.025578	-0.568115	0.14502	-0.1604
34.0	5.53398	-1.593705	8.169365	0.013831	0.029872	-0.030727	-0.566162	0.149414	-0.158203
35.0	5.556025	-1.583943	8.20536	0.01622	0.034958	-0.027944	-0.566162	0.147217	-0.153809
36.0	5.561995	-1.587338	8.185416	0.022101	0.030006	-0.028575	-0.566162	0.149414	-0.158203
37.0	5.501909	-1.594914	8.195855	0.015926	0.026635	-0.02743	-0.563965	0.147217	-0.158203
38.0	5.530129	-1.518684	8.213831	0.015749	0.023389	-0.025585	-0.568115	0.14502	-0.162598
39.0	5.546396	-1.499344	8.216756	0.012788	0.018129	-0.022464	-0.561523	0.138672	-0.158203
40.0	5.571179	-1.487151	8.197322	0.005194	0.014665	-0.019094	-0.563721	0.140869	-0.1604
41.0	5.549837	-1.536198	8.205404	-0.000775	0.013709	-0.012487	-0.566162	0.151611	-0.162598
42.0	5.539572	-1.559212	8.182471	-0.005582	0.01226	-0.01039	-0.563721	0.142822	-0.158203
43.0	5.536026	-1.592227	8.191838	-0.002636	0.009788	-0.010701	-0.559326	0.140869	-0.164795
44.0	5.567649	-1.59099	8.204471	0.004358	0.013912	-0.015472	-0.563721	0.143066	-0.162598
45.0	5.534286	-1.590324	8.193384	0.004885	0.015081	-0.0109	-0.566162	0.149414	-0.156006
46.0	5.527871	-1.54955	8.207443	0.003525	0.013158	-0.01185	-0.561768	0.14502	-0.158203
47.0	5.550094	-1.571575	8.196529	0.002166	0.011234	-0.012801	-0.561523	0.142822	-0.158203
48.0	5.516924	-1.571305	8.185224	0.000408	0.012386	-0.009692	-0.563721	0.140869	-0.158203
49.0	5.548513	-1.570251	8.197853	0.001334	0.010481	-0.009178	-0.565918	0.143066	-0.1604
50.0	5.515419	-1.570137	8.186463	-0.001547	0.011122	-0.012043	-0.563721	0.140869	-0.164795
51.0	5.555386	-1.575279	8.177047	0.006205	0.010101	-0.014448	-0.561523	0.140869	-0.158203
52.0	5.531662	-1.551372	8.18931	0.000736	0.01114	-0.01058	-0.563721	0.14502	-0.156006
53.0	5.563171	-1.550151	8.202031	0.003781	0.013742	-0.009567	-0.563721	0.142822	-0.158203
54.0	5.52988	-1.549753	8.19082	0.004112	0.012496	-0.010454	-0.563721	0.143066	-0.162598
55.0	5.55027	-1.575107	8.234476	0.003184	0.0144	-0.01097	-0.565674	0.138672	-0.158203
56.0	5.516965	-1.574702	8.223268	0.004111	0.012496	-0.010455	-0.563965	0.147217	-0.158203
57.0	5.506795	-1.597012	8.200455	0.007225	0.013268	-0.012615	-0.559326	0.140869	-0.156006
58.0	5.531806	-1.585378	8.180839	0.004677	0.012661	-0.016368	-0.561768	0.14502	-0.1604
59.0	5.525454	-1.543985	8.194895	0.011763	0.014132	-0.016998	-0.561523	0.140869	-0.162598
60.0	5.565178	-1.548345	8.185844	0.008908	0.013946	-0.012553	-0.568115	0.143066	-0.162598
61.0	5.506035	-1.557707	8.195149	0.007454	0.014676	-0.017645	-0.563721	0.14502	-0.1604
62.0	5.531003	-1.54581	8.17562	0.009239	0.0127	-0.013441	-0.561523	0.140869	-0.158203
63.0	5.536677	-1.554314	8.208885	0.005527	0.012585	-0.012685	-0.559326	0.140869	-0.1604
64.0	5.529221	-1.5431	8.177337	0.009399	0.01594	-0.015297	-0.563965	0.14502	-0.162598
65.0	5.53742	-1.518115	8.20194	0.007709	0.01526	-0.015362	-0.561523	0.143066	-0.162598
66.0	5.551021	-1.533224	8.213437	0.005279	0.018901	-0.010485	-0.563721	0.14502	-0.1604
67.0	5.517559	-1.532687	8.202332	0.005523	0.012583	-0.012688	-0.561768	0.147217	-0.162598
68.0	5.539699	-1.554474	8.191658	0.003661	0.016388	-0.013724	-0.565918	0.140869	-0.158203
69.0	5.538513	-1.553279	8.192687	0.007034	0.017748	-0.013596	-0.565674	0.136475	-0.1604
70.0	5.514072	-1.52914	8.205338	0.003819	0.019627	-0.015583	-0.565918	0.14502	-0.156006
71.0	5.527524	-1.544327	8.216935	0.004413	0.018969	-0.014181	-0.561523	0.143066	-0.1604
72.0	5.511334	-1.52689	8.207596	0.004671	0.019556	-0.011895	-0.559326	0.140869	-0.158203
73.0	5.535854	-1.515446	8.188327	0.005601	0.017653	-0.011377	-0.563721	0.143066	-0.162598
74.0	5.526244	-1.507872	8.211362	0.003317	0.017629	-0.012847	-0.559326	0.142822	-0.156006
75.0	5.565685	-1.512892	8.202487	0.001033	0.017605	-0.014316	-0.55957	0.147217	-0.1604
76.0	5.509086	-1.489925	8.202754	4.1e-05	0.013615	-0.008834	-0.563721	0.140869	-0.166748
77.0	5.529282	-1.515416	8.246542	0.002817	0.015633	-0.010107	-0.563721	0.138672	-0.166748
78.0	5.535775	-1.551244	8.179817	0.001725	0.014295	-0.00877	-0.565918	0.143066	-0.1604
79.0	5.529059	-1.510979	8.193743	-0.00258	0.014835	-0.009421	-0.561523	0.142822	-0.158203
80.0	5.534523	-1.520508	8.226923	-0.003335	0.012252	-0.008968	-0.563477	0.138672	-0.162598
81.0	5.541971	-1.526684	8.205632	3.6e-05	0.013614	-0.008837	-0.561523	0.138672	-0.158203
82.0	5.540964	-1.526258	8.206392	0.00089	0.013545	-0.005145	-0.561523	0.143066	-0.164795
83.0	5.514112	-1.536147	8.227472	0.002654	0.012393	-0.008251	-0.561768	0.145264	-0.162598
84.0	5.513011	-1.535734	8.228287	-0.003259	0.017322	-0.007657	-0.561523	0.140869	-0.158203
85.0	5.543473	-1.564636	8.195683	0.004339	0.013074	-0.008186	-0.561523	0.143066	-0.162598
86.0	5.519253	-1.540999	8.20799	0.003404	0.014975	-0.008707	-0.561523	0.138672	-0.162598
87.0	5.503347	-1.523786	8.198386	0.004236	0.015724	-0.012334	-0.561523	0.138672	-0.1604
88.0	5.526325	-1.51562	8.233334	0.004416	0.01124	-0.01136	-0.563721	0.143066	-0.162598
89.0	5.513424	-1.465291	8.214622	0.001559	0.011054	-0.006916	-0.561523	0.142822	-0.158203
90.0	5.518409	-1.504935	8.20203	-0.007803	0.009546	-0.007771	-0.563721	0.140869	-0.162598
91.0	5.500283	-1.521951	8.200782	-0.002903	0.008352	-0.005712	-0.563721	0.140869	-0.1604
92.0	5.516453	-1.535138	8.157258	-0.006951	0.009478	-0.004078	-0.568115	0.14502	-0.162598
93.0	5.499056	-1.52225	8.20155	-0.004251	0.006426	-0.006663	-0.561768	0.14502	-0.1604
94.0	5.519787	-1.548255	8.244888	-0.003161	0.007764	-0.008001	-0.565918	0.14502	-0.162598
95.0	5.515646	-1.504873	8.2039	-0.000799	0.005957	-0.009702	-0.563721	0.142822	-0.158203
96.0	5.547588	-1.503706	8.216424	0.001482	0.005983	-0.00823	-0.55957	0.14502	-0.158203
97.0	5.546504	-1.533187	8.171212	-0.00233	0.008513	-0.011629	-0.559326	0.138672	-0.162598
98.0	5.543795	-1.535748	8.226254	0.007544	0.0112	-0.006194	-0.561523	0.140869	-0.164795
99.0	5.510699	-1.535717	8.214724	-0.000728	0.011027	-0.00839	-0.563477	0.138672	-0.1604
100.0	5.483955	-1.545275	8.235736	0.010061	0.012632	-0.009754	-0.563721	0.140869	-0.162598
101.0	5.532151	-1.556183	8.204938	0.009957	0.015281	-0.013904	-0.565918	0.140869	-0.1604
102.0	5.514261	-1.541446	8.249859	0.01198	0.014718	-0.014721	-0.563477	0.138672	-0.158203
103.0	5.509389	-1.496553	8.209624	0.014668	0.018571	-0.012821	-0.563477	0.136475	-0.153809
104.0	5.511865	-1.537753	8.25215	0.01104	0.016616	-0.015246	-0.561523	0.142822	-0.158203
105.0	5.521661	-1.509208	8.22254	0.013727	0.02047	-0.013347	-0.561523	0.140869	-0.164795
106.0	5.497076	-1.48476	8.235117	0.007328	0.016493	-0.014501	-0.563721	0.140869	-0.162598
107.0	5.536707	-1.489393	8.226364	0.004809	0.015062	-0.010942	-0.561523	0.138672	-0.164795
108.0	5.503936	-1.459188	8.260544	0.00144	0.013696	-0.011078	-0.563721	0.138672	-0.164795
109.0	5.5174	-1.504715	8.226222	0.002716	0.010552	-0.011438	-0.554932	0.140869	-0.1604
110.0	5.551515	-1.470155	8.230241	-0.001079	0.012264	-0.007519	-0.559326	0.140625	-0.153809
111.0	5.515737	-1.503866	8.227493	-0.002763	0.011581	-0.007588	-0.561523	0.140869	-0.162598
112.0	5.523379	-1.5102	8.206146	-0.002764	0.01158	-0.007588	-0.559326	0.140869	-0.1604
113.0	5.505138	-1.526906	8.205034	-0.000144	0.010365	-0.006996	-0.563721	0.14502	-0.158203
114.0	5.519684	-1.512808	8.261749	-0.00302	0.01099	-0.009879	-0.561523	0.138672	-0.164795
115.0	5.520927	-1.509278	8.207965	-0.002616	0.014816	-0.009453	-0.563477	0.134277	-0.162598
116.0	5.520104	-1.508967	8.208576	-0.001488	0.008436	-0.007948	-0.561523	0.143066	-0.164795
117.0	5.536771	-1.491396	8.210909	0.003713	0.013723	-0.009606	-0.561768	0.145264	-0.164795
118.0	5.524708	-1.517385	8.242487	0.002624	0.012385	-0.008268	-0.559082	0.134277	-0.156006
119.0	5.526419	-1.483607	8.234324	-0.001681	0.012916	-0.008931	-0.563477	0.136475	-0.158203
120.0	5.510703	-1.467015	8.224406	-0.00049	0.011607	-0.006117	-0.561768	0.147217	-0.164795
121.0	5.524659	-1.483291	8.235561	-0.005033	0.010736	-0.001744	-0.561768	0.14502	-0.156006
122.0	5.526619	-1.450333	8.227084	-0.008566	0.006944	-0.007344	-0.557129	0.143066	-0.162598
123.0	5.488695	-1.518105	8.23271	-0.011083	0.005512	-0.003785	-0.565674	0.138672	-0.158203
124.0	5.514076	-1.50826	8.212756	-0.008402	0.009367	-0.001882	-0.559326	0.140869	-0.164795
125.0	5.521937	-1.515383	8.191148	-0.009743	0.007439	-0.002834	-0.559326	0.138672	-0.162598
126.0	5.506896	-1.469608	8.226493	-0.006377	0.008807	-0.002696	-0.559326	0.140869	-0.1604
127.0	5.488834	-1.487122	8.225092	-0.009744	0.007439	-0.002835	-0.561523	0.138672	-0.1604
128.0	5.529081	-1.493617	8.215686	-0.010832	0.0061	-0.001498	-0.561523	0.140869	-0.164795
129.0	5.51114	-1.51136	8.214157	-0.009149	0.006784	-0.001428	-0.561523	0.138672	-0.164795
130.0	5.513165	-1.478798	8.205586	-0.009492	0.008028	-0.000546	-0.561523	0.140869	-0.164795
131.0	5.509908	-1.512874	8.214705	-0.011773	0.007998	-0.002024	-0.561279	0.134521	-0.164551
132.0	5.526688	-1.496966	8.216686	-0.014635	0.007807	0.002416	-0.559326	0.138672	-0.162598
133.0	5.508664	-1.51516	8.215117	-0.012266	0.006004	0.00072	-0.561523	0.138672	-0.162598
134.0	5.499112	-1.539572	8.191696	-0.010434	0.009925	-0.001072	-0.559326	0.143066	-0.164795
135.0	5.507304	-1.516871	8.215714	-0.008899	0.007372	0.00086	-0.561523	0.143066	-0.1604
136.0	5.509349	-1.484491	8.207121	-0.012863	0.006659	-0.000689	-0.563477	0.136475	-0.158203
137.0	5.514986	-1.495226	8.239885	-0.009244	0.008615	0.001743	-0.568115	0.142822	-0.1604
138.0	5.493685	-1.440261	8.242638	-0.016232	0.00529	-0.000832	-0.559326	0.140869	-0.162598
139.0	5.530865	-1.51055	8.196385	-0.012705	0.009077	0.004773	-0.563721	0.14502	-0.158203
140.0	5.498333	-1.483031	8.229811	-0.02281	0.004971	0.004345	-0.561279	0.136475	-0.162598
141.0	5.521337	-1.507838	8.218296	-0.021528	0.00183	0.003986	-0.559082	0.136475	-0.156006
142.0	5.518396	-1.543034	8.226934	-0.017909	0.003785	0.006419	-0.565918	0.140869	-0.158203
143.0	5.511682	-1.534946	8.194412	-0.016822	0.005124	0.005082	-0.563477	0.138672	-0.1604
144.0	5.487853	-1.513906	8.205801	-0.019103	0.005095	0.003602	-0.55957	0.147217	-0.1604
145.0	5.534051	-1.561156	8.183032	-0.0197	0.005751	0.002193	-0.559326	0.140869	-0.164795
146.0	5.516382	-1.5495	8.227069	-0.009501	0.008026	-0.000548	-0.563721	0.14502	-0.1604
147.0	5.509422	-1.54078	8.194837	-0.017273	0.009017	0.001812	-0.559082	0.136475	-0.1604
148.0	5.523568	-1.558176	8.20562	-0.009158	0.006784	-0.001432	-0.561523	0.140869	-0.164795
149.0	5.514454	-1.552341	8.227826	-0.007473	0.007468	-0.001359	-0.557129	0.140869	-0.1604
150.0	5.490224	-1.559957	8.193801	-0.007725	0.006882	-0.003651	-0.565918	0.140869	-0.162598
151.0	5.530783	-1.536187	8.23022	-0.006636	0.008222	-0.004986	-0.557373	0.145264	-0.162598
152.0	5.504238	-1.546925	8.250687	-0.004012	0.007008	-0.004389	-0.561523	0.140869	-0.162598
153.0	5.508985	-1.480576	8.233522	-0.008322	0.007538	-0.005059	-0.557129	0.138672	-0.162598
154.0	5.514393	-1.520435	8.220637	-0.002579	0.007107	-0.006607	-0.561523	0.143066	-0.162598
155.0	5.513941	-1.52083	8.220867	-0.012531	0.005413	-0.001581	-0.559326	0.143066	-0.166748
156.0	5.52202	-1.527797	8.199152	-0.007485	0.008293	-0.008686	-0.561523	0.140869	-0.158203
157.0	5.527664	-1.537997	8.231977	-0.008073	0.008122	-0.002769	-0.561768	0.145264	-0.166992
158.0	5.512255	-1.522085	8.221765	-0.00664	0.008222	-0.004987	-0.556885	0.136475	-0.162598
159.0	5.494126	-1.539312	8.220362	-0.005896	0.010804	-0.005439	-0.561523	0.142822	-0.158203
160.0	5.525658	-1.538724	8.233188	-0.005206	0.008321	-0.007206	-0.563721	0.143066	-0.164795
161.0	5.510218	-1.522437	8.223065	-0.003271	0.00959	-0.004841	-0.565918	0.140869	-0.164795
162.0	5.524323	-1.538848	8.234061	-0.007833	0.009534	-0.007805	-0.561523	0.138672	-0.164795
163.0	5.523729	-1.538903	8.234449	-0.006054	0.008392	-0.010907	-0.559082	0.136475	-0.1604
164.0	5.514514	-1.532387	8.25683	-0.000993	0.009618	-0.003359	-0.563721	0.14502	-0.1604
165.0	5.507628	-1.522275	8.22483	-0.002089	0.009105	-0.009351	-0.561523	0.143066	-0.166748
166.0	5.489502	-1.538897	8.223528	-0.001347	0.011687	-0.009802	-0.559326	0.143066	-0.164795
167.0	5.512228	-1.561128	8.212682	0.000536	0.007891	-0.008752	-0.563721	0.140869	-0.158203
168.0	5.514344	-1.527346	8.2044	-0.001745	0.007862	-0.010236	-0.559082	0.136475	-0.164551
169.0	5.534011	-1.476713	8.197846	-0.004172	0.004594	-0.00986	-0.557373	0.145264	-0.162598
170.0	5.537116	-1.519931	8.239367	-0.004712	0.009488	-0.002626	-0.563965	0.14502	-0.162598
171.0	5.50432	-1.520629	8.227349	-0.00343	0.007177	-0.010311	-0.565674	0.138672	-0.162598
172.0	5.512462	-1.526986	8.205731	-0.006301	0.006976	-0.005877	-0.557129	0.143066	-0.1604
173.0	5.511993	-1.527059	8.206033	-0.004866	0.007076	-0.008094	-0.559326	0.143066	-0.162598
174.0	5.5088	-1.560214	8.215155	-0.00244	0.010345	-0.00847	-0.563721	0.142822	-0.153809
175.0	5.487332	-1.503908	8.218328	-0.002094	0.009103	-0.009354	-0.563721	0.143066	-0.164795
176.0	5.52494	-1.542544	8.217992	-0.002095	0.009103	-0.009354	-0.557373	0.14502	-0.158203
177.0	5.526958	-1.508992	8.209732	-0.006657	0.009044	-0.012323	-0.561523	0.143066	-0.162598
178.0	5.49138	-1.542679	8.20658	0.002263	0.013642	-0.007362	-0.557373	0.145264	-0.162598
179.0	5.522746	-1.541579	8.219647	-0.004128	0.009658	-0.008548	-0.563721	0.140869	-0.1604
180.0	5.504619	-1.558115	8.218355	0.005236	0.01119	-0.007644	-0.563721	0.140869	-0.158203
181.0	5.50636	-1.523907	8.2104	0.003446	0.013158	-0.011873	-0.559326	0.143066	-0.158203
182.0	5.505473	-1.523023	8.211158	0.001165	0.013127	-0.013358	-0.565918	0.143066	-0.1604
183.0	5.524589	-1.471819	8.205078	0.004637	0.011846	-0.009055	-0.559326	0.138672	-0.162598
184.0	5.503783	-1.521461	8.212581	0.000921	0.011714	-0.008324	-0.565918	0.140869	-0.162598
185.0	5.509225	-1.530949	8.245641	-0.004976	0.009725	-0.012254	-0.563477	0.138672	-0.1604
186.0	5.519791	-1.503771	8.215509	-0.001852	0.009685	-0.007067	-0.565918	0.140869	-0.1604
187.0	5.507779	-1.530246	8.246737	0.002602	0.0124	-0.008249	-0.559326	0.140869	-0.158203
188.0	5.485862	-1.503629	8.204373	-0.001463	0.013508	-0.006635	-0.561523	0.138672	-0.162598
189.0	5.523434	-1.512399	8.24993	-0.00235	0.008514	-0.011654	-0.565918	0.140869	-0.1604
190.0	5.525281	-1.508471	8.196025	-0.000767	0.011026	-0.008402	-0.561279	0.136475	-0.158203
191.0	5.52204	-1.541429	8.205235	-0.001506	0.008443	-0.007952	-0.563721	0.138672	-0.166748
192.0	5.515211	-1.501449	8.219009	-0.003994	0.012891	-0.010417	-0.561523	0.138672	-0.158203
193.0	5.511906	-1.534351	8.228271	-0.000668	0.0092	-0.011579	-0.565918	0.143066	-0.1604
194.0	5.51993	-1.510255	8.252668	0.002946	0.011159	-0.009133	-0.563721	0.142822	-0.158203
195.0	5.495698	-1.516984	8.218821	-0.004138	0.009651	-0.008558	-0.559326	0.138672	-0.164795
196.0	5.521092	-1.47602	8.24508	0.003294	0.009918	-0.010017	-0.559326	0.138672	-0.162598
197.0	5.511705	-1.498909	8.221824	-0.002456	0.010338	-0.008482	-0.561523	0.140869	-0.1604
198.0	5.493666	-1.515783	8.220401	-0.003543	0.008995	-0.007149	-0.559082	0.136475	-0.164551
199.0	5.510395	-1.498622	8.222755	-0.003543	0.008995	-0.007149	-0.561523	0.140869	-0.162598
200.0	5.498545	-1.525346	8.253804	-0.002107	0.009097	-0.009366	-0.559326	0.138672	-0.162598
201.0	5.483142	-1.508761	8.243659	-0.001511	0.008441	-0.007955	-0.563721	0.143066	-0.1604
202.0	5.508633	-1.49769	8.224105	-0.002355	0.008511	-0.01166	-0.563721	0.143066	-0.164795
203.0	5.534126	-1.486613	8.204556	-0.001512	0.008441	-0.007956	-0.563721	0.143066	-0.162598
204.0	5.516167	-1.503335	8.203105	-0.002707	0.009751	-0.010778	-0.557129	0.138672	-0.164551
205.0	5.515595	-1.503192	8.203516	-0.004036	0.006996	-0.004407	-0.559326	0.138672	-0.162598
206.0	5.489083	-1.513931	8.223803	-0.004282	0.00641	-0.006701	-0.556885	0.136475	-0.1604
207.0	5.482541	-1.504026	8.19158	-0.004283	0.00641	-0.006701	-0.561523	0.140869	-0.156006
208.0	5.479516	-1.507523	8.246296	-0.00488	0.007065	-0.008113	-0.559082	0.136475	-0.162598
209.0	5.531366	-1.486022	8.206524	-0.004914	0.002001	-0.009428	-0.561523	0.138672	-0.162598
210.0	5.460937	-1.447857	8.194666	-0.00337	-0.000549	-0.007488	-0.559082	0.136475	-0.158203
211.0	5.563621	-1.485302	8.218977	-0.009224	0.001692	-0.00278	-0.563721	0.140869	-0.162598
212.0	5.522616	-1.480467	8.228318	-0.011856	0.002899	-0.003386	-0.559082	0.136475	-0.1604
213.0	5.496478	-1.521825	8.202485	-0.013539	0.002211	-0.003465	-0.561279	0.136475	-0.164551
214.0	5.49377	-1.55594	8.211119	-0.010174	0.003587	-0.003309	-0.561523	0.138672	-0.164795
215.0	5.517082	-1.549121	8.245595	-0.003475	0.001277	-0.004312	-0.559326	0.140869	-0.1604
216.0	5.492532	-1.42024	8.252768	-0.003859	-0.002546	-0.004745	-0.561523	0.143066	-0.162598
217.0	5.527689	-1.386787	8.256217	-0.019358	-0.007502	-0.004568	-0.554932	0.138672	-0.158203
218.0	5.514716	-1.47831	8.248936	-0.01732	-0.008884	0.001959	-0.561523	0.138672	-0.166748
219.0	5.539002	-1.502746	8.236767	-0.024406	-0.010399	0.002527	-0.568115	0.142822	-0.1604
220.0	5.554586	-1.550623	8.200748	-0.017674	-0.007645	0.00284	-0.559326	0.138672	-0.1604
221.0	5.537724	-1.569128	8.198202	-0.016101	-0.004301	-0.001236	-0.563721	0.140869	-0.158203
222.0	5.53798	-1.570285	8.197807	-0.013085	-0.001685	-0.000195	-0.561523	0.140869	-0.164795
223.0	5.534296	-1.498343	8.202307	-0.012701	0.002138	0.000241	-0.561523	0.140869	-0.166748
224.0	5.531395	-1.532481	8.211032	-0.007513	0.007443	-0.001381	-0.559326	0.138672	-0.1604
225.0	5.53328	-1.499561	8.20277	-0.003548	0.008164	0.000187	-0.561523	0.138672	-0.162598
226.0	5.538773	-1.539715	8.189833	-0.010744	0.009306	-0.003399	-0.565918	0.143066	-0.164795
227.0	5.526901	-1.567053	8.220739	-0.002956	0.008342	-0.005734	-0.559326	0.140869	-0.158203
228.0	5.528659	-1.533805	8.212627	-0.006291	0.012027	-0.004573	-0.559082	0.136475	-0.162598
229.0	5.504243	-1.511521	8.224514	-0.005096	0.010715	-0.001751	-0.563477	0.138672	-0.158203
230.0	5.529493	-1.501036	8.205053	-0.004745	0.009476	-0.002636	-0.557129	0.143066	-0.164795
231.0	5.519951	-1.494983	8.227481	-0.006293	0.012027	-0.004574	-0.561523	0.142822	-0.158203
232.0	5.519236	-1.495333	8.227897	-0.007762	0.006859	-0.00368	-0.561523	0.140869	-0.162598
233.0	5.527215	-1.502227	8.20637	-0.009169	0.011814	-0.000144	-0.559326	0.138672	-0.1604
234.0	5.524078	-1.536259	8.215251	-0.010779	0.004242	-0.004725	-0.557129	0.140869	-0.156006
235.0	5.500159	-1.514447	8.226708	-0.013765	0.006687	-0.004449	-0.565918	0.14502	-0.162598
236.0	5.514599	-1.561048	8.191664	-0.007764	0.006858	-0.003681	-0.559326	0.143066	-0.164795
237.0	5.546227	-1.560656	8.204501	-0.008362	0.007514	-0.005092	-0.559326	0.140869	-0.1604
238.0	5.513543	-1.561871	8.192218	-0.008363	0.007514	-0.005093	-0.561523	0.138672	-0.1604
239.0	5.530248	-1.545166	8.194566	-0.007031	0.009442	-0.004128	-0.563721	0.143066	-0.1604
240.0	5.520819	-1.539107	8.216909	-0.005594	0.009549	-0.006343	-0.565674	0.138672	-0.166748
241.0	5.496418	-1.516658	8.2288	-0.005213	0.013371	-0.005906	-0.561523	0.140869	-0.1604
242.0	5.504076	-1.523032	8.207592	-0.003284	0.014642	-0.00353	-0.561279	0.134277	-0.162598
243.0	5.561203	-1.51133	8.201019	-0.001494	0.01351	-0.006629	-0.563721	0.143066	-0.162598
244.0	5.516896	-1.539137	8.219537	-0.003667	0.010819	-0.003969	-0.559082	0.136475	-0.162598
245.0	5.501204	-1.522909	8.20954	-0.00546	0.012788	-0.008204	-0.559326	0.140869	-0.162598
246.0	5.500254	-1.522973	8.210165	-0.004619	0.012713	-0.004497	-0.563721	0.14502	-0.1604
247.0	5.540137	-1.498922	8.247222	-0.004999	0.008891	-0.004935	-0.559326	0.140869	-0.158203
248.0	5.492531	-1.483788	8.224422	-0.00872	0.00875	-0.004215	-0.563477	0.136475	-0.166748
249.0	5.539176	-1.529396	8.202002	-0.011979	0.005551	-0.007559	-0.563721	0.140869	-0.166748
250.0	5.489263	-1.547727	8.187596	-0.006684	0.008201	-0.005018	-0.557373	0.14502	-0.1604
251.0	5.52333	-1.514017	8.191953	-0.00921	0.006747	-0.001474	-0.563477	0.136475	-0.1604
252.0	5.511447	-1.541622	8.222727	-0.007039	0.009439	-0.004134	-0.561768	0.14502	-0.1604
253.0	5.515748	-1.475439	8.206017	-0.010163	0.008641	-0.002003	-0.563721	0.143066	-0.1604
254.0	5.495327	-1.526457	8.212816	-0.00837	0.007511	-0.005101	-0.561523	0.143066	-0.166748
255.0	5.552937	-1.515418	8.205863	-0.012446	0.008607	-0.003498	-0.563477	0.138672	-0.1604
256.0	5.500222	-1.53779	8.245824	-0.009457	0.006164	-0.003772	-0.559326	0.142822	-0.156006
257.0	5.517302	-1.550855	8.202214	-0.010055	0.006821	-0.005185	-0.559326	0.143066	-0.162598
258.0	5.534061	-1.534286	8.20454	-0.008128	0.008092	-0.002806	-0.561523	0.143066	-0.164795
259.0	5.507541	-1.545406	8.224633	-0.005625	0.004488	-0.007672	-0.561523	0.138672	-0.158203
260.0	5.533113	-1.534724	8.205098	-0.008239	0.010751	-0.00696	-0.557129	0.143066	-0.164795
261.0	5.523601	-1.528679	8.227461	-0.005603	0.009547	-0.006349	-0.565674	0.138672	-0.1604
262.0	5.508086	-1.512639	8.217312	-0.007044	0.009437	-0.004136	-0.559326	0.143066	-0.158203
263.0	5.522244	-1.529222	8.22827	-0.00669	0.0082	-0.005021	-0.563965	0.14502	-0.162598
264.0	5.530102	-1.506196	8.25263	-0.007045	0.009437	-0.004137	-0.559326	0.140869	-0.1604
265.0	5.529769	-1.536165	8.207083	-0.007777	0.006852	-0.003693	-0.568115	0.140869	-0.166748
266.0	5.529289	-1.536531	8.207338	-0.008618	0.006929	-0.007402	-0.559326	0.138672	-0.164795
267.0	5.513777	-1.520662	8.197156	-0.007757	0.011911	-0.002369	-0.563477	0.136475	-0.164551
268.0	5.51277	-1.491448	8.243462	-0.006337	0.006962	-0.005907	-0.563721	0.143066	-0.162598
269.0	5.50626	-1.482068	8.211193	-0.015225	0.006564	-0.002262	-0.559326	0.143066	-0.164795
270.0	5.535425	-1.515821	8.232432	-0.016312	0.005216	-0.000934	-0.563965	0.145264	-0.166992
271.0	5.511718	-1.524175	8.197888	-0.015715	0.004559	0.000478	-0.565674	0.138428	-0.151611
272.0	5.5322	-1.551945	8.240897	-0.019682	0.003835	-0.001105	-0.559326	0.138672	-0.158203
273.0	5.525794	-1.543359	8.20841	-0.016072	0.005795	0.001361	-0.565918	0.140869	-0.164795
274.0	5.493174	-1.545388	8.195858	-0.012947	0.006596	-0.000767	-0.561279	0.134277	-0.162598
275.0	5.54854	-1.567958	8.197256	-0.011881	0.002887	-0.003421	-0.565918	0.143066	-0.162598
276.0	5.51574	-1.539847	8.230651	-0.008978	0.008167	-0.006519	-0.555176	0.145264	-0.1604
277.0	5.532909	-1.552821	8.187028	-0.009955	0.004156	-0.00104	-0.561523	0.143066	-0.162598
278.0	5.514919	-1.541099	8.230967	-0.008869	0.005504	-0.002367	-0.55957	0.147217	-0.156006
279.0	5.517385	-1.537651	8.176736	-0.007071	0.004379	-0.005464	-0.561523	0.138672	-0.158203
280.0	5.508241	-1.531771	8.198809	-0.007428	0.005615	-0.00458	-0.563721	0.142822	-0.158203
281.0	5.516258	-1.508817	8.223085	-0.005501	0.006885	-0.002197	-0.568115	0.140869	-0.162598
282.0	5.518205	-1.475761	8.214943	-0.005502	0.006885	-0.002197	-0.559326	0.140869	-0.162598
283.0	5.538903	-1.532019	8.212264	-0.009711	0.005582	-0.006079	-0.563721	0.140869	-0.162598
284.0	5.521178	-1.549572	8.210345	-0.007785	0.006851	-0.003696	-0.557129	0.140869	-0.158203
285.0	5.514754	-1.539922	8.178084	-0.009712	0.005582	-0.00608	-0.561523	0.140869	-0.156006
286.0	5.537538	-1.533402	8.212926	-0.008142	0.008087	-0.002811	-0.557373	0.14502	-0.158203
287.0	5.519685	-1.550848	8.211109	-0.006942	0.007621	-0.007321	-0.559326	0.140869	-0.1604
288.0	5.501801	-1.568095	8.209346	-0.005615	0.009548	-0.00635	-0.565918	0.14502	-0.1604
289.0	5.518429	-1.550991	8.211926	-0.003574	0.009003	-0.007149	-0.561768	0.14502	-0.158203
290.0	5.502948	-1.534661	8.201823	-0.003333	0.009581	-0.004851	-0.561768	0.145264	-0.162598
291.0	5.516957	-1.55096	8.21292	-0.004887	0.012132	-0.006793	-0.559326	0.140869	-0.162598
292.0	5.516316	-1.550979	8.213347	-0.003706	0.00576	-0.005295	-0.55957	0.147217	-0.164795
293.0	5.501053	-1.534615	8.203103	-0.003218	0.007767	-0.008035	-0.559326	0.140869	-0.164795
294.0	5.547369	-1.550043	8.226779	-0.005019	0.008889	-0.004939	-0.561768	0.14502	-0.1604
295.0	5.497405	-1.567786	8.212349	-9.2e-05	0.008572	-0.01016	-0.55957	0.14502	-0.1604
296.0	5.522893	-1.556258	8.193136	0.001235	0.010499	-0.009188	-0.559326	0.143066	-0.158203
297.0	5.530714	-1.532284	8.217731	0.001949	0.008028	-0.010958	-0.559326	0.140869	-0.158203
298.0	5.521227	-1.525362	8.240201	0.002917	0.01119	-0.009102	-0.561523	0.140869	-0.158203
299.0	5.499671	-1.498412	8.197786	-0.000809	0.011042	-0.008392	-0.557373	0.147217	-0.153809
300.0	5.537595	-1.536691	8.19749	-0.000822	0.005986	-0.009721	-0.561523	0.143066	-0.162598
301.0	5.525697	-1.563422	8.22829	0.000873	0.011734	-0.008305	-0.561523	0.140869	-0.1604
302.0	5.521432	-1.519537	8.18799	-0.001896	0.009692	-0.007067	-0.559082	0.136475	-0.158203
303.0	5.544438	-1.541614	8.177191	-0.000454	0.009806	-0.009278	-0.559326	0.140869	-0.1604
304.0	5.491494	-1.563005	8.217214	0.00123	0.010498	-0.009191	-0.559326	0.138672	-0.164795
305.0	5.525173	-1.528079	8.222241	0.001357	0.01374	-0.011047	-0.563477	0.136475	-0.162598
306.0	5.526697	-1.494041	8.214565	0.000271	0.01239	-0.009722	-0.559326	0.140869	-0.1604
307.0	5.515112	-1.550045	8.199552	0.00327	0.009954	-0.009989	-0.55957	0.145264	-0.162598
308.0	5.531022	-1.502921	8.248348	-0.001533	0.013511	-0.006627	-0.563721	0.140869	-0.164795
309.0	5.521751	-1.525592	8.225001	0.003755	0.01196	-0.012731	-0.561768	0.149414	-0.166992
310.0	5.514904	-1.514681	8.193287	0.001592	0.014316	-0.008752	-0.570313	0.142822	-0.1604
311.0	5.511043	-1.517995	8.248374	0.000626	0.011153	-0.010609	-0.557129	0.140869	-0.1604
312.0	5.528118	-1.529756	8.20518	-0.000459	0.009803	-0.009283	-0.557129	0.140869	-0.164795
313.0	5.535744	-1.506017	8.229818	-0.000819	0.011038	-0.008399	-0.559326	0.138672	-0.164795
314.0	5.500537	-1.539874	8.226009	-0.00046	0.009803	-0.009284	-0.563477	0.136475	-0.162598
315.0	5.525823	-1.528376	8.206982	-0.001294	0.014936	-0.011672	-0.561523	0.138672	-0.158203
316.0	5.49887	-1.538947	8.227297	-0.001546	0.008453	-0.007959	-0.561279	0.136475	-0.1604
317.0	5.507029	-1.5446	8.20601	0.001945	0.01308	-0.009639	-0.563477	0.138672	-0.1604
318.0	5.508505	-1.510629	8.198338	0.0005	0.012965	-0.007429	-0.561523	0.140869	-0.1604
319.0	5.522473	-1.526332	8.209617	0.000621	0.011151	-0.010613	-0.561768	0.145264	-0.164795
320.0	5.512788	-1.519491	8.232139	0.002902	0.011188	-0.009109	-0.557129	0.140869	-0.164795
321.0	5.503698	-1.541887	8.208754	0.006627	0.011339	-0.009816	-0.563721	0.143066	-0.162598
322.0	5.520171	-1.52392	8.211613	-0.001663	0.011113	-0.012119	-0.561523	0.138672	-0.164795
323.0	5.484177	-1.528142	8.253891	0.003262	0.015007	-0.008669	-0.561523	0.142822	-0.158203
324.0	5.526709	-1.499092	8.237151	0.005902	0.008754	-0.009374	-0.563721	0.138672	-0.164795
325.0	5.511952	-1.51153	8.181115	-0.000705	0.00922	-0.01159	-0.563477	0.134277	-0.1604
326.0	5.517218	-1.521086	8.214123	-0.000467	0.009799	-0.009291	-0.561523	0.140869	-0.164795
327.0	5.525407	-1.526733	8.192849	0.000853	0.011728	-0.008318	-0.561768	0.14502	-0.158203
328.0	5.513413	-1.553339	8.223697	0.001936	0.008022	-0.01097	-0.561523	0.138672	-0.162598
329.0	5.51515	-1.519172	8.215865	0.002296	0.011842	-0.010529	-0.561523	0.140869	-0.162598
330.0	5.531601	-1.501226	8.218732	-0.000224	0.011224	-0.014335	-0.563721	0.143066	-0.1604
331.0	5.487459	-1.52882	8.236799	-0.002031	0.012344	-0.011242	-0.563721	0.138672	-0.164795
332.0	5.518457	-1.527134	8.250474	0.006615	0.016394	-0.008494	-0.557129	0.138672	-0.164551
333.0	5.511656	-1.51602	8.218792	0.004698	0.010065	-0.012209	-0.561523	0.142822	-0.158203
334.0	5.510796	-1.514998	8.219557	0.004694	0.01512	-0.010886	-0.563721	0.143066	-0.162598
335.0	5.503226	-1.474508	8.233829	0.003972	0.012535	-0.010443	-0.557129	0.140869	-0.1604
336.0	5.528532	-1.462752	8.214898	0.000845	0.011725	-0.008324	-0.559326	0.143066	-0.164795
337.0	5.516537	-1.489587	8.245689	-0.004074	0.007827	-0.011777	-0.563721	0.140869	-0.1604
338.0	5.481523	-1.523439	8.241747	0.002888	0.011185	-0.009117	-0.567871	0.138672	-0.158203
339.0	5.49223	-1.495909	8.211945	-0.006366	0.006941	-0.005941	-0.563477	0.138672	-0.1604
340.0	5.506441	-1.511901	8.223045	0.000606	0.011145	-0.010625	-0.561523	0.138672	-0.158203
341.0	5.479647	-1.52243	8.243181	-0.001795	0.007865	-0.010272	-0.559326	0.143066	-0.1604
342.0	5.522528	-1.493775	8.226188	-0.001196	0.00721	-0.008855	-0.561523	0.140869	-0.162598
343.0	5.504036	-1.481151	8.270309	-0.00156	0.008444	-0.007972	-0.559326	0.138672	-0.164795
344.0	5.527277	-1.503182	8.259547	-0.00156	0.008444	-0.007973	-0.559326	0.143066	-0.162598
345.0	5.529912	-1.49903	8.205573	-0.002043	0.006439	-0.005229	-0.561279	0.136475	-0.1604
346.0	5.479484	-1.487609	8.236701	-0.005759	0.007129	-0.011872	-0.559326	0.138672	-0.1604
347.0	5.502911	-1.509863	8.225783	-0.003725	0.005744	-0.00532	-0.561768	0.145264	-0.162598
348.0	5.496523	-1.499973	8.193613	-0.007097	0.009407	-0.004179	-0.565674	0.138672	-0.162598
349.0	5.527864	-1.499098	8.206941	-0.003607	0.008983	-0.007181	-0.561279	0.134521	-0.164551
350.0	5.515862	-1.526211	8.237668	-0.001927	0.009679	-0.007091	-0.559326	0.138672	-0.164795
351.0	5.500254	-1.509923	8.227548	-0.004336	0.011452	-0.005416	-0.565674	0.136475	-0.166748
352.0	5.542848	-1.481734	8.2107	-0.005054	0.008867	-0.004973	-0.559326	0.140869	-0.1604
353.0	5.533114	-1.475738	8.233015	-0.003138	0.010142	-0.002581	-0.561279	0.136475	-0.1604
354.0	5.483255	-1.494028	8.218283	-0.00529	0.008287	-0.007274	-0.561768	0.145264	-0.162598
355.0	5.529492	-1.509323	8.242241	-0.004456	0.008212	-0.003556	-0.561523	0.138672	-0.1604
356.0	5.514051	-1.493519	8.231919	-0.010463	0.008014	-0.004365	-0.557129	0.140869	-0.162598
357.0	5.5135	-1.493875	8.232224	-0.004092	0.006977	-0.004439	-0.559326	0.138672	-0.1604
358.0	5.4967	-1.540789	8.184279	-0.007819	0.00682	-0.00374	-0.570313	0.140869	-0.164795
359.0	5.506732	-1.484277	8.200271	-0.003728	0.005743	-0.005323	-0.561523	0.143066	-0.166748
360.0	5.503066	-1.488345	8.25491	-0.006973	0.007591	-0.007368	-0.565674	0.138672	-0.1604
361.0	5.505729	-1.484549	8.200895	-0.003858	0.007556	-0.002139	-0.565918	0.140869	-0.162598
362.0	5.51115	-1.494961	8.2336	-0.008172	0.003	-0.004182	-0.563477	0.138672	-0.162598
363.0	5.5198	-1.501477	8.211932	-0.00902	0.008129	-0.006577	-0.565918	0.143066	-0.162598
364.0	5.519308	-1.501793	8.212205	-0.005175	0.005626	-0.003115	-0.557129	0.140869	-0.164795
365.0	5.492669	-1.513131	8.232025	-0.006375	0.006936	-0.005951	-0.561523	0.140869	-0.162598
366.0	5.518311	-1.502372	8.212769	-0.008187	0.008052	-0.002859	-0.559326	0.138672	-0.1604
367.0	5.508669	-1.496669	8.23495	-0.006741	0.008169	-0.005068	-0.561523	0.138672	-0.1604
368.0	5.531972	-1.519307	8.224079	-0.008423	0.007473	-0.005161	-0.561523	0.140869	-0.162598
369.0	5.508532	-1.526905	8.18952	-0.009504	0.006122	-0.003836	-0.565918	0.143066	-0.164795
370.0	5.53089	-1.520205	8.22464	-0.004827	0.009444	-0.002674	-0.565674	0.138672	-0.164795
371.0	5.515315	-1.504155	8.214455	-0.006861	0.010831	-0.009231	-0.563721	0.140869	-0.1604
372.0	5.499808	-1.487947	8.204252	-0.003016	0.008328	-0.005767	-0.559326	0.138672	-0.1604
373.0	5.531098	-1.487122	8.217646	-0.006876	0.00998	-0.001885	-0.565674	0.136475	-0.162598
374.0	5.49609	-1.522052	8.213414	-0.008191	0.00805	-0.002862	-0.563477	0.138672	-0.1604
375.0	5.503566	-1.499129	8.237914	-0.007344	0.008824	-0.006489	-0.565674	0.138672	-0.1604
376.0	5.512024	-1.505486	8.21642	-0.006145	0.007513	-0.003652	-0.563965	0.147217	-0.1604
377.0	5.520588	-1.51188	8.19485	-0.00806	0.006238	-0.006048	-0.563477	0.138672	-0.162598
378.0	5.525738	-1.522039	8.227764	-2.2e-05	0.010954	-0.004696	-0.559326	0.138672	-0.158203
379.0	5.495317	-1.489566	8.206967	-0.005665	0.00952	-0.006397	-0.563477	0.138672	-0.1604
380.0	5.500387	-1.499926	8.239892	-0.007113	0.009401	-0.004189	-0.563721	0.143066	-0.1604
381.0	5.511095	-1.472873	8.210112	-0.007347	0.008823	-0.006492	-0.561279	0.136475	-0.162598
382.0	5.499137	-1.500692	8.240587	-0.009277	0.006696	-0.001541	-0.559326	0.138672	-0.1604
383.0	5.524802	-1.490025	8.221355	-0.006148	0.007512	-0.003655	-0.561523	0.138672	-0.164795
384.0	5.516069	-1.513753	8.197548	-0.009163	0.009936	-0.003401	-0.561768	0.145264	-0.162598
385.0	5.504049	-1.541656	8.228036	-0.010711	0.007429	-0.006682	-0.559326	0.138672	-0.1604
386.0	5.531963	-1.49732	8.200579	-0.003387	0.009561	-0.004885	-0.561768	0.147217	-0.164795
387.0	5.495958	-1.50261	8.242357	-0.007117	0.0094	-0.004191	-0.55957	0.14502	-0.1604
388.0	5.521394	-1.491781	8.223326	-0.005204	0.010674	-0.001794	-0.561523	0.138672	-0.162598
389.0	5.494537	-1.503112	8.243214	-0.004335	0.006398	-0.006747	-0.563477	0.138672	-0.162598
390.0	5.512237	-1.515299	8.199839	-0.006983	0.007589	-0.007378	-0.563477	0.136475	-0.1604
391.0	5.502598	-1.509467	8.222006	-0.006751	0.008166	-0.005076	-0.563477	0.138672	-0.162598
392.0	5.510103	-1.486419	8.246515	-0.006384	0.006933	-0.00596	-0.557129	0.140869	-0.162598
393.0	5.50151	-1.509887	8.222657	-0.004471	0.008208	-0.003562	-0.563721	0.140869	-0.1604
394.0	5.52731	-1.498857	8.203435	-0.00793	0.004426	-0.009242	-0.561279	0.138672	-0.153809
395.0	5.530293	-1.542573	8.244515	-0.005673	0.009518	-0.006401	-0.561523	0.140869	-0.164795
396.0	5.520426	-1.489058	8.171648	-0.007122	0.009398	-0.004194	-0.559326	0.138672	-0.1604
397.0	5.508352	-1.516699	8.20219	-0.005073	0.008862	-0.004982	-0.561523	0.140869	-0.162598
398.0	5.515737	-1.493615	8.226788	-0.007355	0.00882	-0.006498	-0.559326	0.138672	-0.162598
399.0	5.498001	-1.511115	8.224778	-0.006755	0.008165	-0.005079	-0.557129	0.140869	-0.162598
400.0	5.508908	-1.484029	8.194928	-0.007468	0.005579	-0.004639	-0.554932	0.140869	-0.162598
401.0	5.529098	-1.510683	8.238278	-0.0083	0.005658	-0.008362	-0.559326	0.143066	-0.162598
402.0	5.513773	-1.494628	8.227921	-0.002195	0.008249	-0.002047	-0.557129	0.143066	-0.162598
403.0	5.487977	-1.535233	8.201754	-0.005676	0.009517	-0.006403	-0.563721	0.140869	-0.164795
404.0	5.506906	-1.484746	8.196143	-0.007101	0.004346	-0.005524	-0.561279	0.136475	-0.162598
405.0	5.512216	-1.495088	8.22888	-0.004708	0.00763	-0.005867	-0.561523	0.138672	-0.162598
406.0	5.511706	-1.495219	8.229199	-0.006389	0.006931	-0.005964	-0.559326	0.143066	-0.1604
407.0	5.52613	-1.511588	8.240104	-0.005421	0.005044	-0.005428	-0.559326	0.143066	-0.1604
408.0	5.529074	-1.507644	8.18605	-0.006759	0.008163	-0.005081	-0.563721	0.140869	-0.166748
409.0	5.510236	-1.495706	8.230094	-0.003029	0.008327	-0.005771	-0.559326	0.143066	-0.162598
410.0	5.510788	-1.524973	8.184431	-0.00531	0.008285	-0.007288	-0.559326	0.143066	-0.162598
411.0	5.501069	-1.519058	8.206641	-0.00448	0.008205	-0.003565	-0.559326	0.143066	-0.158203
412.0	5.508409	-1.495816	8.231297	-0.004231	0.009638	-0.008612	-0.561523	0.143066	-0.164795
413.0	5.531692	-1.517884	8.220615	-0.004832	0.010294	-0.010032	-0.563477	0.138672	-0.1604
414.0	5.507137	-1.495525	8.232201	-0.002661	0.007095	-0.006656	-0.561523	0.138672	-0.162598
415.0	5.507748	-1.524676	8.186532	-0.003632	0.008982	-0.007193	-0.561279	0.136475	-0.164551
416.0	5.538003	-1.4943	8.246025	-0.003742	0.005741	-0.005334	-0.557129	0.138672	-0.166748
417.0	5.503385	-1.528675	8.241504	-0.003493	0.007174	-0.010381	-0.561523	0.140869	-0.164795
418.0	5.523375	-1.506981	8.190019	-0.001953	0.00968	-0.007096	-0.557129	0.138672	-0.162598
419.0	5.534225	-1.526777	8.255473	0.00517	0.006195	-0.008917	-0.561523	0.140869	-0.1604
420.0	5.513193	-1.49976	8.212765	-0.002785	0.009759	-0.010821	-0.557129	0.140869	-0.162598
421.0	5.509051	-1.503416	8.267637	0.004058	0.009889	-0.006266	-0.557129	0.140869	-0.164795
422.0	5.521003	-1.50456	8.192063	0.001546	0.009269	-0.010089	-0.559326	0.143066	-0.162598
423.0	5.511227	-1.497821	8.214438	0.003826	0.009313	-0.008571	-0.559326	0.138672	-0.164795
424.0	5.510693	-1.497075	8.214932	0.003117	0.006727	-0.008132	-0.561279	0.134521	-0.166748
425.0	5.553695	-1.378965	8.555932	0.020382	-0.009421	0.001358	-0.561523	0.138672	-0.168945
426.0	5.914216	-1.320774	9.316454	0.014223	-0.06317	0.024893	-0.563721	0.140869	-0.1604
427.0	6.555984	-1.339687	8.574304	-0.098502	-0.00805	0.077052	-0.565918	0.14502	-0.1604
428.0	6.271655	-2.284866	7.546017	-0.16431	0.242091	0.050883	-0.559326	0.140869	-0.1604
429.0	5.376085	-2.357731	7.781839	-0.057924	0.295772	-0.011849	-0.565674	0.136475	-0.166748
430.0	5.090379	-1.68121	8.018599	-0.021162	0.280428	-0.04759	-0.559326	0.143066	-0.171143
431.0	5.34641	-1.634848	8.219559	0.006454	0.223879	-0.056832	-0.556885	0.136719	-0.166748
432.0	5.598931	-1.067242	8.658731	-0.020946	0.203572	-0.032873	-0.561523	0.140869	-0.168945
433.0	5.896356	-0.381471	8.671824	-0.093278	0.183385	0.03207	-0.555176	0.145264	-0.17334
434.0	6.285463	0.16606	8.704633	-0.179878	0.166264	0.121585	-0.557373	0.145264	-0.168945
435.0	5.862534	-0.507216	8.573037	-0.257046	0.152974	0.199577	-0.557373	0.145264	-0.17334
436.0	5.366733	-1.089271	8.294105	-0.2919	0.095765	0.23215	-0.555176	0.147461	-0.171143
437.0	4.697778	-2.415706	8.322966	-0.254501	0.047992	0.183163	-0.557129	0.140869	-0.166748
438.0	3.710818	-3.137851	8.405407	-0.115732	0.01085	0.020229	-0.548828	0.151855	-0.175537
439.0	3.74863	-2.457539	8.292077	-0.004183	-0.052715	-0.172449	-0.553223	0.151855	-0.171143
440.0	4.541224	-2.329208	7.912299	0.017003	-0.141034	-0.219098	-0.552979	0.145264	-0.168945
441.0	5.528342	-2.256285	7.789641	0.023372	-0.210303	-0.196842	-0.555176	0.147461	-0.164795
442.0	5.875595	-1.804239	7.998627	0.082664	-0.195593	-0.241016	-0.559326	0.143066	-0.164795
443.0	5.246346	-1.30513	8.159395	0.101101	-0.172862	-0.359042	-0.561523	0.143066	-0.166748
444.0	4.728462	-1.311454	8.229552	0.093702	-0.183891	-0.492334	-0.561523	0.140869	-0.162598
445.0	5.377479	-1.963168	8.041279	0.056004	-0.15063	-0.536677	-0.563477	0.132324	-0.166748
446.0	5.45436	-2.418978	7.776246	0.084701	-0.103751	-0.518531	-0.554443	0.130127	-0.162354
447.0	5.69172	-2.222696	7.989804	0.067675	-0.064348	-0.415726	-0.561035	0.12793	-0.164551
448.0	5.764003	-1.950753	8.167275	-0.170135	-0.002911	-0.401544	-0.558838	0.130127	-0.164551
449.0	6.182308	-0.712585	8.121411	-0.288738	0.134272	-0.441118	-0.554199	0.123779	-0.164551
450.0	5.803323	-0.732884	7.893549	-0.258665	0.207648	-0.385738	-0.556641	0.130127	-0.166748
451.0	5.944268	-0.641074	7.923836	-0.110279	0.210178	-0.24886	-0.560791	0.121582	-0.166748
452.0	5.714537	-0.241398	8.157174	0.048419	0.216499	-0.049167	-0.558838	0.12793	-0.168945
453.0	5.301098	0.157689	8.551916	-0.091342	0.176327	0.038746	-0.558594	0.121582	-0.166748
454.0	6.218831	-1.745141	8.556444	-0.150994	0.208565	0.030889	-0.550293	0.130371	-0.17334
455.0	5.629716	-2.755671	7.896119	-0.081059	0.282684	0.012735	-0.561035	0.125977	-0.175537
456.0	5.400362	-2.146622	8.165045	-0.002822	0.291423	-0.01245	-0.554443	0.125977	-0.175537
457.0	5.660676	-0.412649	8.226373	-0.036488	0.318852	-0.021398	-0.550049	0.128174	-0.181885
458.0	5.9467	-0.174752	7.88919	-0.157839	0.322485	0.040373	-0.552002	0.121826	-0.184082
459.0	6.031284	-1.641805	7.778338	-0.210354	0.308182	0.131665	-0.543457	0.124023	-0.179688
460.0	5.531291	-2.986357	7.884816	-0.105073	0.281136	0.171815	-0.541504	0.130371	-0.179688
461.0	5.561445	-2.871361	7.841113	0.056257	0.274135	0.172033	-0.548096	0.130371	-0.184082
462.0	4.953593	-1.427159	8.204101	0.169288	0.233103	0.187818	-0.543701	0.130371	-0.179688
463.0	4.280782	-0.533886	8.825048	0.141147	0.173245	0.181733	-0.548096	0.132568	-0.186279
464.0	4.190356	-0.051698	9.313326	0.020963	0.094683	0.147877	-0.537354	0.132568	-0.186279
465.0	4.538897	-0.068155	9.209136	-0.120019	0.03103	0.145873	-0.543945	0.134766	-0.188477
466.0	4.518829	0.237321	9.340218	-0.27151	-0.039647	0.165006	-0.541992	0.141357	-0.188477
467.0	5.139532	-0.522223	9.358653	-0.449181	-0.09307	0.20812	-0.550781	0.145508	-0.184082
468.0	5.653429	-1.329311	8.856881	-0.520539	-0.074886	0.251364	-0.546387	0.143311	-0.179932
469.0	5.651346	-1.190159	8.714472	-0.562008	-0.053167	0.304976	-0.546631	0.147705	-0.186279
470.0	5.718436	-1.000614	8.788202	-0.618567	-0.020782	0.340445	-0.548828	0.151855	-0.182129
471.0	5.611762	-1.210973	8.598948	-0.654087	0.030695	0.368603	-0.544678	0.151855	-0.182129
472.0	5.381529	-1.402433	8.377221	-0.683276	0.059587	0.384218	-0.542725	0.162598	-0.179932
473.0	4.9618	-2.308232	7.999003	-0.687245	0.063296	0.383967	-0.547363	0.166992	-0.182129
474.0	4.743654	-3.030686	7.778596	-0.610619	0.028131	0.356629	-0.545166	0.166992	-0.182129
475.0	4.933655	-3.459833	7.738142	-0.491027	-0.016564	0.303364	-0.547607	0.17334	-0.182129
476.0	5.197137	-3.189401	7.75708	-0.361132	-0.028581	0.245261	-0.543213	0.17334	-0.179932
477.0	4.512461	-2.806662	7.704479	-0.269554	-0.049652	0.193987	-0.547607	0.177734	-0.177734
478.0	4.073945	-2.680391	7.870699	-0.219993	-0.1351	0.139402	-0.545654	0.179932	-0.175781
479.0	4.286195	-2.674005	7.917187	-0.188546	-0.222247	0.080578	-0.547607	0.175537	-0.177734
480.0	5.184399	-2.554937	8.139104	-0.162612	-0.256595	0.043546	-0.54126	0.179932	-0.175781
481.0	5.155308	-2.516171	7.981088	-0.142228	-0.258026	0.030658	-0.547852	0.184082	-0.169189
482.0	5.178474	-2.940833	7.772785	-0.092669	-0.257779	0.0037	-0.547852	0.181885	-0.175781
483.0	4.936357	-3.167242	7.872166	-0.013852	-0.274057	-0.040216	-0.552246	0.181885	-0.171387
484.0	5.049174	-2.619299	8.148287	0.038381	-0.278495	-0.087353	-0.550049	0.183838	-0.164795
485.0	5.31651	-2.504049	8.275363	0.057064	-0.278671	-0.117431	-0.554443	0.184082	-0.169189
486.0	5.489349	-2.11602	8.283039	0.067374	-0.26794	-0.120006	-0.556396	0.17749	-0.164795
487.0	5.378541	-2.509357	8.179237	0.077092	-0.267623	-0.119757	-0.554443	0.181885	-0.164795
488.0	5.128774	-3.189351	7.828586	0.120675	-0.277685	-0.181998	-0.554199	0.17749	-0.160645
489.0	5.402316	-3.9168	7.715248	0.221587	-0.26256	-0.284042	-0.560303	0.168701	-0.1604
490.0	5.754791	-3.000545	7.979712	0.333099	-0.219066	-0.341996	-0.562744	0.173096	-0.15625
491.0	5.728227	-2.438337	8.101466	0.367507	-0.159287	-0.357644	-0.5625	0.166748	-0.1604
492.0	5.415837	-2.480211	8.140959	0.433693	-0.162359	-0.363493	-0.5625	0.164551	-0.1604
493.0	5.435527	-2.316262	8.147763	0.49403	-0.179654	-0.370447	-0.562256	0.157959	-0.158203
494.0	5.475652	-2.530319	8.077119	0.537465	-0.188193	-0.39854	-0.559814	0.153809	-0.1604
495.0	5.441593	-3.097057	7.945181	0.62351	-0.154178	-0.45263	-0.568359	0.149414	-0.156006
496.0	5.822632	-1.771276	8.223101	0.712316	-0.140796	-0.469745	-0.568115	0.142822	-0.158203
497.0	6.077805	-0.372618	8.528459	0.652806	-0.155313	-0.391807	-0.563721	0.142822	-0.153809
498.0	6.013487	0.050373	8.678762	0.528809	-0.200985	-0.266095	-0.567871	0.136475	-0.156006
499.0	5.444492	-0.870428	8.716962	0.38371	-0.265872	-0.182363	-0.572021	0.13208	-0.158203
500.0	4.916956	-2.573585	8.785942	0.392684	-0.365656	-0.198736	-0.572021	0.13208	-0.153809
501.0	5.125114	-2.054767	9.328731	0.508856	-0.511065	-0.24461	-0.569824	0.131836	-0.143066
502.0	5.648242	-1.523731	9.813859	0.479447	-0.710737	-0.260211	-0.571777	0.125488	-0.140869
503.0	4.846222	-1.637543	10.24392	0.472263	-0.965149	-0.260171	-0.57373	0.121094	-0.138672
504.0	4.853249	0.212319	11.084639	0.236091	-1.384347	-0.178186	-0.588867	0.12085	-0.127686
505.0	4.389924	-1.119549	10.854257	0.077026	-1.831311	-0.158014	-0.595215	0.116455	-0.112549
506.0	4.124468	-0.743363	10.958104	-0.037177	-2.285292	-0.148063	-0.602051	0.122559	-0.099609
507.0	4.087699	-0.233371	10.868003	-0.207328	-2.761413	-0.131659	-0.604004	0.118164	-0.082275
508.0	3.832038	-0.551936	10.643759	-0.350214	-3.237379	-0.125789	-0.612793	0.12207	-0.060547
509.0	3.619471	-0.948988	10.285295	-0.449397	-3.727088	-0.186781	-0.625977	0.123779	-0.039063
510.0	3.29503	-1.547301	10.200937	-0.57769	-4.179903	-0.30271	-0.638916	0.125488	-0.010742
511.0	2.759612	-2.397424	10.294375	-0.648952	-4.699026	-0.498482	-0.649902	0.127197	0.015137
512.0	2.084099	-2.706671	10.599024	-0.656974	-5.369063	-0.751828	-0.653809	0.118164	0.056396
513.0	2.345168	-3.403739	9.752341	-0.539193	-6.164685	-1.008904	-0.664307	0.111084	0.097656
514.0	3.476738	-3.545492	8.660049	-0.30005	-7.073824	-1.282383	-0.675049	0.108154	0.145264
515.0	4.26815	-4.9947	6.797384	0.589756	-8.332937	-1.468757	-0.678711	0.098633	0.208008
516.0	4.87776	-5.060102	6.857696	2.113184	-9.804306	-1.532329	-0.684814	0.091309	0.270996
517.0	7.411798	-3.172025	8.392354	3.080721	-10.644689	-1.501701	-0.676025	0.092529	0.346924
518.0	15.307857	2.322166	11.463083	2.720234	-10.868173	-1.232787	-0.662598	0.083008	0.41626
519.0	18.252897	-0.636355	10.798018	1.353682	-10.193982	-1.041933	-0.640869	0.088623	0.479248
520.0	17.290644	-3.257435	9.411608	0.830319	-9.668571	-1.24087	-0.625244	0.081787	0.529053
521.0	19.296015	-0.11258	12.091664	0.236947	-9.090508	-0.879802	-0.596924	0.087402	0.587646
522.0	27.933104	-1.302737	13.765552	-0.762014	-7.69631	0.053931	-0.577637	0.091553	0.609375
523.0	23.668377	-1.414754	12.721156	-1.748406	-6.700422	0.101888	-0.553711	0.093506	0.635254
524.0	24.106707	-12.794378	16.814016	-2.273724	-5.599629	-0.03131	-0.536377	0.095703	0.637451
525.0	39.252555	-13.894889	26.496602	-1.914674	-1.719941	0.302545	-0.523682	0.108887	0.613525
526.0	18.897348	-13.430358	20.607764	-0.946477	1.541194	0.413801	-0.528809	0.122314	0.574463
527.0	6.910937	-9.797646	17.072146	-0.07951	2.467347	-0.687853	-0.511719	0.133545	0.537598
528.0	3.16371	-5.984998	15.503718	0.14091	2.623508	-1.979373	-0.494873	0.142822	0.494385
529.0	1.752395	-2.915677	15.372808	-0.381898	2.621826	-2.561485	-0.473389	0.149902	0.463867
530.0	4.459884	-3.175345	16.058031	-1.301716	2.705861	-2.488893	-0.443115	0.152344	0.437988
531.0	8.27348	-6.815344	16.190061	-1.963506	3.337085	-2.050998	-0.404297	0.163574	0.418457
532.0	6.630251	-12.058174	14.570243	-1.740369	4.2836	-1.540385	-0.36377	0.181152	0.40332
533.0	3.255496	-14.784869	12.587293	-0.554296	5.042119	-1.15678	-0.321045	0.205078	0.401123
534.0	1.728946	-12.243173	11.572965	0.817113	5.573951	-0.969085	-0.276123	0.222168	0.414063
535.0	2.727544	-6.289192	11.846432	1.362559	5.983306	-0.805588	-0.241455	0.230469	0.450928
536.0	5.932314	-0.851085	12.489193	0.811151	6.50138	-0.440366	-0.228516	0.236328	0.498535
537.0	7.394993	1.359201	11.692617	-0.49732	7.116093	0.112691	-0.240967	0.224854	0.541992
538.0	6.320664	-0.176547	9.819517	-1.757714	7.454504	0.712995	-0.2771	0.204834	0.581055
539.0	6.501441	-3.018488	7.047557	-2.43174	7.446391	1.225218	-0.337158	0.178467	0.602783
540.0	7.117261	-5.419915	5.308418	-2.395389	7.355524	1.679791	-0.410156	0.150391	0.596191
541.0	8.357665	-5.482621	5.52282	-1.999688	7.101947	2.073067	-0.481201	0.133301	0.574463
542.0	10.098673	-4.238649	6.517341	-1.685554	6.833395	2.484377	-0.544189	0.122803	0.529053
543.0	11.958931	-2.614774	7.697621	-1.609167	6.594642	2.89579	-0.609863	0.129883	0.474609
544.0	13.676273	-1.654324	8.457662	-1.796744	6.447714	3.283201	-0.663086	0.152344	0.389893
545.0	13.97561	-2.943099	8.469814	-1.999112	6.322619	3.535162	-0.686035	0.178955	0.311768
546.0	14.115823	-4.48096	8.633505	-1.910315	6.167172	3.660295	-0.68335	0.216797	0.220459
547.0	14.734128	-4.475118	9.502471	-1.587071	6.046183	3.733309	-0.6604	0.239746	0.133789
548.0	15.718258	-2.622117	10.870947	-1.313255	5.92994	3.811689	-0.617676	0.253662	0.064453
549.0	17.599594	0.140173	11.89123	-1.355536	5.821231	3.912698	-0.576172	0.250244	0.010254
550.0	19.051254	0.459527	11.53281	-1.581094	5.714255	3.988137	-0.541504	0.246826	-0.035156
551.0	19.958082	-0.288602	10.3472	-1.53886	5.550639	4.007962	-0.517334	0.24292	-0.06543
552.0	21.706337	1.489175	9.293265	-1.223176	5.368525	4.083082	-0.493408	0.241455	-0.106445
553.0	23.985498	5.842087	8.472367	-1.163307	5.222671	4.215177	-0.474121	0.246338	-0.13916
554.0	25.331309	7.720921	5.732789	-1.458695	5.044418	4.105229	-0.44873	0.266113	-0.165039
555.0	25.168312	5.958907	1.508964	-1.631141	4.525315	3.650697	-0.436279	0.277344	-0.199951
556.0	27.494587	1.687424	-2.916185	-1.100693	3.729818	2.770421	-0.412842	0.28833	-0.212891
557.0	32.100507	0.07675	-6.131226	-0.022795	3.076991	1.75114	-0.395752	0.295166	-0.236816
558.0	34.777171	2.570395	-8.208306	0.767159	2.675074	0.937799	-0.376221	0.297607	-0.253906
559.0	32.688188	6.987499	-11.461228	0.641843	2.082228	0.550778	-0.371582	0.293457	-0.262695
560.0	29.452925	7.232192	-15.169734	-0.11142	0.744382	0.401525	-0.363037	0.295898	-0.26709
561.0	30.900161	2.020217	-16.203187	-0.308574	-0.816693	0.203517	-0.371826	0.297852	-0.258301
562.0	33.271511	-0.953314	-13.280245	0.625864	-1.747336	-0.200161	-0.378418	0.295654	-0.260498
563.0	31.914113	3.630563	-7.864537	1.599685	-1.965345	-0.635091	-0.38208	0.282715	-0.256104
564.0	13.836877	15.4352	5.56106	0.563603	-2.046379	-1.616423	-0.401367	0.276123	-0.247559
565.0	-36.106057	-36.381221	28.141942	0.584269	-2.720332	-2.750122	-0.420166	0.25415	-0.236572
566.0	9.952333	-1.674799	3.528306	4.29899	-6.34277	-5.024175	-0.449219	0.219482	-0.212646
567.0	42.975053	20.456374	2.262409	1.286331	-8.014713	-0.930594	-0.479492	0.214355	-0.171387
568.0	34.702427	-5.360532	26.528696	0.599256	-5.132629	0.220046	-0.492676	0.216309	-0.15625
569.0	11.248146	7.579213	10.460386	0.421723	-3.396701	-1.249423	-0.507324	0.205322	-0.136719
570.0	5.949064	-1.168953	7.734595	-0.500989	-3.459593	-1.067062	-0.513916	0.205078	-0.123779
571.0	19.385275	-28.997604	12.388094	0.661311	-3.576523	-0.746802	-0.531006	0.200439	-0.102051
572.0	19.451081	4.16431	9.73523	2.626832	-1.659777	-1.128698	-0.528076	0.180908	-0.099854
573.0	10.751892	9.290974	10.693011	0.422476	-0.35622	-0.720743	-0.536621	0.178711	-0.099854
574.0	6.944279	-6.715954	7.581465	0.238887	-0.330363	-0.516215	-0.540771	0.172363	-0.095459
575.0	7.241867	0.752888	8.863891	0.360369	-0.213502	-0.451295	-0.53418	0.172363	-0.095459
576.0	6.363548	-2.9775	7.737233	0.105559	-0.090264	-0.372281	-0.529785	0.167969	-0.095459
577.0	5.392912	-3.476867	7.937351	0.276847	-0.08725	-0.45653	-0.536377	0.167969	-0.095459
578.0	5.998272	-2.164305	8.062316	0.285032	-0.064293	-0.547314	-0.536377	0.167969	-0.093262
579.0	5.673864	-2.779352	7.715772	0.319008	-0.016612	-0.589214	-0.536133	0.161621	-0.093262
580.0	5.596565	-2.534212	7.934047	0.369767	-0.008778	-0.596465	-0.537842	0.155029	-0.095459
581.0	5.321512	-2.501993	8.109498	0.42253	-0.019527	-0.571553	-0.537598	0.146484	-0.091064
582.0	5.430846	-3.62583	7.572634	0.524535	-0.002767	-0.60693	-0.537354	0.14209	-0.091064
583.0	5.945988	-2.679585	7.651593	0.654883	0.075647	-0.631393	-0.534912	0.135742	-0.093018
584.0	6.014772	-1.572081	7.919647	0.681054	0.129952	-0.596867	-0.532959	0.135742	-0.093018
585.0	5.822997	-2.096878	8.12733	0.672221	0.184107	-0.551743	-0.532471	0.125	-0.095215
586.0	5.719144	-1.816795	8.301376	0.7162	0.216117	-0.533975	-0.532471	0.122803	-0.095215
587.0	5.787172	-0.114015	8.627497	0.646511	0.195379	-0.458313	-0.534424	0.118652	-0.10376
588.0	5.725608	0.810969	8.983417	0.466968	0.128028	-0.328297	-0.532227	0.116455	-0.095215
589.0	5.473982	0.187035	9.069504	0.309395	0.04742	-0.220114	-0.532227	0.116455	-0.101563
590.0	5.552791	-0.34864	8.732292	0.216715	-0.029978	-0.152214	-0.542725	0.109863	-0.097412
591.0	5.502682	-1.46673	8.493154	0.174538	-0.055087	-0.126109	-0.53418	0.114258	-0.095215
592.0	5.611627	-1.607179	8.393767	0.176606	-0.072035	-0.141198	-0.533936	0.105713	-0.101563
593.0	5.823651	-0.542423	8.445207	0.141329	-0.084533	-0.139668	-0.540527	0.107666	-0.095215
594.0	5.508338	-1.275079	8.434742	0.084358	-0.127652	-0.129223	-0.533691	0.103516	-0.09082
595.0	5.382678	-3.149488	8.26337	0.143458	-0.147933	-0.211287	-0.533936	0.105469	-0.093018
596.0	5.462748	-3.765671	8.276363	0.292119	-0.143336	-0.357975	-0.529297	0.101318	-0.094971
597.0	5.468753	-2.569527	8.479573	0.430992	-0.171881	-0.486956	-0.535645	0.096924	-0.088623
598.0	5.43227	-0.119175	9.020459	0.377574	-0.271423	-0.496997	-0.53125	0.092773	-0.092773
599.0	5.300926	-0.265352	9.162942	0.117352	-0.436611	-0.447723	-0.533203	0.090576	-0.088623
600.0	5.011549	-1.831348	9.082035	0.272562	-0.612916	-0.4186	-0.5354	0.088379	-0.086426
601.0	5.55925	-0.493421	9.315354	0.364528	-0.819873	-0.373329	-0.541748	0.083984	-0.082031
602.0	5.376069	0.191821	9.116106	0.321601	-0.980955	-0.32259	-0.539307	0.077393	-0.075439
603.0	5.084602	1.332281	9.391868	0.288246	-1.191765	-0.192075	-0.545654	0.077148	-0.058105
604.0	5.240733	1.452585	9.736825	0.113829	-1.477043	-0.023681	-0.545654	0.077148	-0.053711
605.0	4.856519	-0.353236	10.245675	-0.049183	-1.769463	0.046241	-0.554443	0.076904	-0.042969
606.0	4.63011	-2.665453	10.603668	0.074409	-2.170358	0.015875	-0.558594	0.074463	-0.030029
607.0	4.122182	-3.58058	11.050835	0.281507	-2.630484	-0.136473	-0.56543	0.078613	-0.02124
608.0	3.839567	-1.44385	11.57072	0.294146	-3.207818	-0.292971	-0.575928	0.073975	0.01123
609.0	3.033521	-0.90731	11.7975	0.074609	-3.825427	-0.434431	-0.577881	0.067139	0.028564
610.0	2.387453	-0.810224	11.700923	-0.11915	-4.480804	-0.643698	-0.579834	0.064697	0.050293
611.0	2.006516	0.351124	11.53055	-0.330296	-5.115378	-0.878481	-0.588379	0.060059	0.082764
612.0	0.615765	0.806797	10.784891	-0.59746	-5.785144	-1.08599	-0.592285	0.052979	0.124023
613.0	-1.177522	-0.94766	9.721951	-0.653267	-6.79041	-1.401889	-0.5896	0.043701	0.171631
614.0	-0.589906	-1.191127	8.865587	-0.500581	-7.970426	-1.807163	-0.589355	0.036621	0.210693
615.0	3.333873	-0.837979	9.831914	-0.500995	-9.301945	-1.985972	-0.584229	0.020996	0.265137
616.0	4.835319	-4.565888	9.368802	-0.398164	-10.796248	-2.034188	-0.568604	0.011475	0.332275
617.0	8.158696	-5.659678	6.404436	0.312412	-11.651229	-2.347551	-0.543701	-0.006592	0.393066
618.0	19.817248	-1.782913	7.1504	0.7807	-11.908644	-2.312298	-0.51709	-0.013672	0.456055
619.0	27.538492	0.65037	9.414146	0.193755	-10.881037	-1.923208	-0.479736	-0.024902	0.503906
620.0	22.720026	4.967484	12.20097	-0.142784	-10.074492	-1.60997	-0.444336	-0.033936	0.545166
621.0	28.940537	-1.258094	16.708558	-1.905392	-9.248713	-0.570672	-0.415527	-0.049316	0.575684
622.0	28.628102	-12.208848	11.645754	-1.979388	-7.417893	-0.639218	-0.379883	-0.064453	0.588867
623.0	35.26237	-15.125173	12.400936	-1.364344	-6.467788	-1.13238	-0.355469	-0.077393	0.599609
624.0	38.949639	-14.670701	22.886024	-0.622328	-2.448958	0.187726	-0.342285	-0.081543	0.58667
625.0	21.475662	-17.47956	22.913559	-0.080399	1.084645	1.044418	-0.333496	-0.085693	0.571533
626.0	4.131165	-8.891752	19.94559	0.727495	1.809761	0.544746	-0.331055	-0.091797	0.556396
627.0	2.588293	-4.580553	18.460046	0.097382	1.634557	0.056069	-0.31543	-0.102539	0.550049
628.0	5.341987	-2.166517	17.196719	-0.993572	1.788181	0.102611	-0.30835	-0.119141	0.521973
629.0	6.783976	-3.701884	15.909045	-1.963666	2.443952	0.628648	-0.308105	-0.127686	0.509033
630.0	5.828591	-6.131993	14.374286	-2.297163	3.253671	1.086762	-0.302979	-0.144775	0.496094
631.0	3.448616	-8.357299	12.669878	-1.784893	3.891333	1.318352	-0.293701	-0.161621	0.487549
632.0	3.595177	-8.574849	11.778675	-0.70875	4.437823	1.42185	-0.29541	-0.172363	0.479004
633.0	4.923295	-6.589136	11.25418	0.481767	5.124377	1.538007	-0.301758	-0.181152	0.485352
634.0	5.121109	-3.056892	10.97361	1.21631	5.820299	1.676353	-0.319336	-0.174805	0.487549
635.0	4.832839	-0.345814	10.751457	1.36743	6.304817	1.819577	-0.341064	-0.177002	0.496094
636.0	5.990349	1.189087	10.505962	1.107782	6.664252	1.93097	-0.378662	-0.155762	0.506836
637.0	7.688877	1.537138	9.79924	0.639987	7.008148	1.988475	-0.416748	-0.129883	0.48291
638.0	8.092593	0.525612	8.524761	0.150564	7.345605	1.952854	-0.444336	-0.093018	0.460938
639.0	7.824423	-1.338418	7.331359	-0.096592	7.501798	1.744539	-0.46582	-0.049805	0.438965
640.0	8.304204	-2.563482	6.780899	-0.073066	7.507574	1.468094	-0.458984	0.001953	0.421387
641.0	9.728706	-2.729772	7.008989	0.014272	7.457934	1.238416	-0.467773	0.060059	0.431885
642.0	10.989996	-2.138796	7.688405	-0.042241	7.42392	1.137628	-0.485107	0.115479	0.464111
643.0	12.011794	-2.241951	7.991611	-0.308384	7.358189	1.157991	-0.530762	0.170654	0.496338
644.0	12.554042	-3.35738	7.854505	-0.569369	7.276375	1.239306	-0.609131	0.226074	0.510986
645.0	12.977056	-4.786276	7.793517	-0.672895	7.176232	1.369533	-0.689941	0.28833	0.493164
646.0	13.378209	-5.948654	8.050811	-0.604964	7.063129	1.556226	-0.761963	0.344727	0.438721
647.0	14.194836	-6.161438	8.991486	-0.429954	6.906274	1.798171	-0.823242	0.405762	0.364502
648.0	16.244475	-4.66526	10.62731	-0.377488	6.746916	2.129763	-0.864502	0.454346	0.273193
649.0	18.117999	-3.807578	11.563099	-0.629394	6.603654	2.537683	-0.892334	0.494385	0.166748
650.0	19.590752	-3.945787	11.459365	-0.936624	6.438341	2.919562	-0.88916	0.521729	0.051758
651.0	21.130974	-3.606973	10.459926	-1.102569	6.238826	3.302289	-0.870605	0.540771	-0.069824
652.0	23.415114	0.666076	9.677259	-1.266684	6.010917	3.791493	-0.817383	0.561768	-0.177979
653.0	25.8918	3.885067	8.161543	-1.99712	5.724115	4.220989	-0.737549	0.580566	-0.269043
654.0	27.425948	2.937842	4.028994	-2.642233	5.32373	4.183131	-0.647217	0.603271	-0.336182
655.0	28.148058	1.632875	-0.645151	-2.593786	4.691844	3.831753	-0.560791	0.619141	-0.368652
656.0	29.382674	0.370767	-4.983188	-1.804551	3.827329	3.258023	-0.478271	0.623779	-0.377197
657.0	31.552599	0.292979	-8.348648	-0.587137	2.980511	2.6	-0.415039	0.617676	-0.376953
658.0	32.529076	3.689518	-10.197151	0.477326	2.230874	1.863618	-0.373291	0.611328	-0.372559
659.0	31.809616	7.71912	-11.880996	0.588149	1.322394	0.992719	-0.340332	0.602539	-0.355225
660.0	31.58531	8.956072	-13.004568	0.027732	0.208268	0.074726	-0.324707	0.59375	-0.333496
661.0	32.762013	7.285461	-12.586828	-0.413017	-0.804213	-0.706358	-0.324951	0.599854	-0.305176
662.0	31.797524	5.21785	-10.491508	-0.33724	-1.582227	-1.311947	-0.32251	0.597412	-0.287842
663.0	29.050862	2.578218	-7.836234	0.003988	-2.221241	-1.788633	-0.331543	0.605713	-0.266357
664.0	12.187867	-0.351829	8.928293	0.620051	-2.354253	-2.227664	-0.340332	0.605469	-0.251221
665.0	-33.954424	-33.128342	36.697772	1.177698	-2.019959	-2.915763	-0.365479	0.587646	-0.218506
666.0	-10.535015	-12.552413	-6.694835	4.994638	-6.015403	-5.813279	-0.407471	0.543945	-0.181641
667.0	51.015934	35.321981	1.371205	1.77517	-9.425108	-1.676269	-0.43335	0.545166	-0.116699
668.0	40.034198	-1.830269	31.273608	0.486746	-5.692098	-0.094433	-0.444336	0.549072	-0.090576
669.0	17.00407	12.788196	12.022492	-0.218835	-3.360122	-1.907889	-0.455078	0.546631	-0.069092
670.0	7.320291	-3.967986	8.183557	-0.70207	-2.963195	-1.837191	-0.467773	0.539795	-0.042969
671.0	4.246841	-10.202102	4.584931	-0.194155	-3.308458	-1.424086	-0.479004	0.548096	-0.023438
672.0	30.245828	-26.63938	13.272156	2.427158	-2.481947	-1.187384	-0.480225	0.52417	-0.014648
673.0	13.97659	9.913485	10.458324	1.674424	-0.640557	-1.187668	-0.484619	0.521973	-0.016846
674.0	7.408213	0.747981	9.713214	0.694736	0.08981	-1.032783	-0.49292	0.513428	-0.012451
675.0	6.696623	-4.761059	8.008778	0.885043	-0.033584	-0.93698	-0.490479	0.504883	-0.012451
676.0	7.578093	2.47806	9.037623	0.683599	-0.021179	-0.681162	-0.490479	0.504639	-0.010254
677.0	6.061996	-2.721022	8.391638	0.505111	0.013453	-0.520469	-0.494629	0.500488	-0.010254
678.0	6.138656	-0.452975	8.622305	0.50749	-0.025885	-0.490767	-0.494385	0.498291	-0.012451
679.0	6.277527	-0.758765	8.418674	0.35452	0.024741	-0.418526	-0.494385	0.493896	-0.012451
680.0	5.618617	-1.597303	8.340505	0.318202	0.033126	-0.364663	-0.496094	0.485352	-0.014648
681.0	5.434048	-1.461475	8.295092	0.319323	0.0291	-0.334209	-0.498291	0.485352	-0.014648
682.0	5.334225	-1.365613	8.18682	0.322736	0.026561	-0.289217	-0.496338	0.487549	-0.008057
683.0	5.122205	-1.640446	8.063519	0.328952	0.026516	-0.284955	-0.498291	0.485352	-0.016846
684.0	5.011514	-1.905152	7.930904	0.382244	0.029745	-0.305934	-0.498047	0.480957	-0.008057
685.0	5.234247	-2.305109	7.963841	0.472505	0.057488	-0.340424	-0.498047	0.479004	-0.010254
686.0	5.188883	-2.754045	8.063066	0.612008	0.106045	-0.373884	-0.498047	0.476807	-0.018799
687.0	5.205135	-2.75735	8.06197	0.749143	0.171978	-0.402477	-0.497803	0.468262	-0.018799
688.0	5.298002	-2.001311	8.153053	0.855955	0.221454	-0.428544	-0.499756	0.468262	-0.014404
689.0	5.232975	0.304121	9.013592	0.781894	0.175601	-0.383032	-0.501953	0.468262	-0.014404
690.0	5.590294	0.604085	8.82842	0.578899	0.148504	-0.283738	-0.499512	0.46167	-0.014404
691.0	5.518756	-0.403611	8.582448	0.478628	0.154279	-0.226206	-0.499756	0.466064	-0.016602
692.0	5.604659	-0.703093	8.574031	0.403377	0.151808	-0.192648	-0.49707	0.455322	-0.023193
693.0	5.521254	-0.649601	8.489995	0.335891	0.144917	-0.171158	-0.497314	0.45752	-0.018799
694.0	5.308765	-0.714039	8.627759	0.30172	0.131977	-0.174162	-0.499268	0.455322	-0.016602
695.0	5.50699	-0.487822	8.76481	0.263875	0.099779	-0.174338	-0.499268	0.455322	-0.012207
696.0	5.750783	-0.836377	8.728385	0.227147	0.088496	-0.150001	-0.494873	0.450928	-0.014404
697.0	5.138842	-1.782225	8.786939	0.246803	0.063687	-0.177466	-0.501465	0.453125	-0.016602
698.0	5.118646	-1.623822	8.971567	0.270618	0.018819	-0.239671	-0.499268	0.450928	-0.016602
699.0	4.948947	-0.599184	9.315588	0.238601	-0.111447	-0.280727	-0.496826	0.44873	-0.01001
700.0	5.054959	-0.669211	9.269815	0.171212	-0.256722	-0.283681	-0.501221	0.44458	-0.018799
701.0	5.130557	-1.777149	9.006695	0.177615	-0.377172	-0.323263	-0.507568	0.442383	-0.007813
702.0	5.321869	-2.15361	8.992215	0.276062	-0.463263	-0.400494	-0.505127	0.435791	-0.005615
703.0	4.933325	-2.218145	9.104598	0.45672	-0.53929	-0.454107	-0.50708	0.431396	-0.003418
704.0	4.759919	1.198068	10.343125	0.660285	-0.745618	-0.384974	-0.509033	0.427002	0.00293
705.0	4.445265	0.660738	10.515961	0.306232	-1.096552	-0.26	-0.515381	0.422607	0.016113
706.0	4.208963	-0.677579	11.028618	0.300552	-1.50819	-0.206447	-0.521484	0.413818	0.029053
707.0	3.998007	-2.153641	11.428267	0.435784	-1.982907	-0.23948	-0.530029	0.407227	0.033447
708.0	3.511346	-2.013105	11.842784	0.6526	-2.501836	-0.32156	-0.536133	0.400391	0.057373
709.0	3.423054	-0.338046	12.118602	0.705603	-3.128407	-0.393083	-0.542236	0.387207	0.07251
710.0	2.834553	-0.578117	12.376877	0.593729	-3.749426	-0.452623	-0.545654	0.365479	0.098633
711.0	1.78929	-0.704169	12.544863	0.488105	-4.42464	-0.623718	-0.553955	0.356201	0.128906
712.0	1.060911	-0.570165	12.692957	0.24363	-5.110758	-0.901094	-0.562012	0.34082	0.161621
713.0	-0.280881	0.137587	11.630552	0.077326	-5.835368	-1.259676	-0.571533	0.310059	0.205078
714.0	-3.321298	-1.614252	11.521258	0.188034	-7.362805	-1.837058	-0.570557	0.287842	0.261475
715.0	-6.837993	-0.210598	12.216389	-0.018414	-8.585714	-2.81657	-0.567139	0.254639	0.315918
716.0	-1.925347	-1.318122	10.654067	0.063031	-9.758296	-3.654341	-0.55249	0.217285	0.383301
717.0	5.359288	-1.421152	9.328664	0.436841	-11.792942	-3.266089	-0.53125	0.179932	0.452881
718.0	15.975458	-3.475765	7.752949	0.465951	-12.66811	-3.181857	-0.486328	0.148926	0.529053
719.0	30.826631	5.559351	11.716224	0.898172	-12.21301	-2.644416	-0.439209	0.116211	0.576904
720.0	33.058165	-2.344477	15.280281	-0.080223	-10.963892	-1.821812	-0.39624	0.076904	0.622803
721.0	35.501635	-14.367098	14.746538	0.174971	-8.89728	-1.743541	-0.349121	0.040039	0.655518
722.0	29.440738	-12.295324	13.919152	1.16369	-8.037777	-2.435798	-0.301758	0.001221	0.67749
723.0	32.172014	-6.966772	22.599299	1.809865	-5.336913	-1.25525	-0.267822	-0.029053	0.701416
724.0	32.891831	-9.482237	28.354061	0.474573	-2.02438	0.523924	-0.253418	-0.063477	0.703857
725.0	9.169843	-10.248505	21.644789	0.358021	-0.483027	0.530122	-0.241455	-0.095703	0.701904
726.0	4.248745	-4.568372	19.249305	-0.069654	-0.413076	0.158118	-0.229004	-0.13208	0.699951
727.0	5.707278	-4.021625	17.263184	-0.923043	-0.41921	-0.232695	-0.221191	-0.166504	0.702148
728.0	5.809154	-4.989931	15.799568	-1.649596	0.002987	-0.19111	-0.211426	-0.196533	0.69165
729.0	5.600775	-7.250711	14.701085	-1.783514	0.590708	-0.021732	-0.2146	-0.22876	0.6875
730.0	5.275099	-8.174364	13.875282	-1.459477	1.360548	0.245256	-0.218018	-0.252441	0.685303
731.0	4.338378	-8.120122	12.989543	-0.78769	2.221949	0.5792	-0.230225	-0.269531	0.678955
732.0	3.330094	-6.375979	12.315787	-0.060986	3.080395	0.900807	-0.249512	-0.282471	0.674561
733.0	2.384067	-3.427532	11.833564	0.366948	3.821138	1.1642	-0.277832	-0.278076	0.672363
734.0	1.996751	-0.556314	11.288845	0.329733	4.407854	1.404659	-0.312744	-0.276123	0.665771
735.0	2.460254	1.099264	10.732238	-0.041316	4.872055	1.687332	-0.350098	-0.271729	0.650635
736.0	3.241228	1.323024	9.942738	-0.484281	5.306224	1.994002	-0.398193	-0.267334	0.637451
737.0	4.468103	0.755145	9.127588	-0.828342	5.710879	2.233386	-0.448975	-0.25	0.611328
738.0	5.88239	-0.13224	8.697295	-0.991141	6.139101	2.368798	-0.484619	-0.232422	0.578613
739.0	7.379043	-0.610394	8.603764	-1.006523	6.591699	2.422957	-0.529053	-0.206543	0.543701
740.0	8.409449	-0.794181	8.545254	-1.010891	7.076952	2.405037	-0.564941	-0.182129	0.489258
741.0	8.22622	-1.062531	8.438347	-1.052063	7.449314	2.301606	-0.596436	-0.160156	0.439209
742.0	8.402432	-1.264611	8.205544	-1.141946	7.638282	2.143223	-0.619385	-0.131592	0.393555
743.0	9.211137	-0.876884	7.966812	-1.301563	7.731306	2.02623	-0.635986	-0.103027	0.339355
744.0	10.220122	-0.177873	7.857965	-1.616154	7.729885	1.977181	-0.645752	-0.078613	0.289307
745.0	11.270144	-0.338043	7.931856	-2.018829	7.59142	1.992191	-0.657227	-0.060791	0.243652
746.0	12.996659	-1.571302	8.295148	-2.320294	7.398449	2.114839	-0.667236	-0.032227	0.197998
747.0	14.960603	-2.869567	9.486024	-2.342376	7.236061	2.37508	-0.667969	-0.014404	0.152344
748.0	17.541954	-2.610121	11.464508	-2.227434	7.140514	2.809039	-0.67334	0.009766	0.108887
749.0	19.614011	-2.129254	12.912052	-2.25278	7.123456	3.364964	-0.685791	0.044922	0.056641
750.0	20.282974	-3.203913	12.918325	-2.301385	7.026619	3.820828	-0.685303	0.084229	0.008789
751.0	21.027281	-4.942946	12.189928	-2.146801	6.775682	4.069701	-0.693359	0.121582	-0.043457
752.0	22.867767	-5.638793	10.61837	-1.755306	6.462362	4.118119	-0.679688	0.158691	-0.08252
753.0	25.051601	2.053578	10.782517	-1.539613	6.100635	4.361331	-0.67041	0.200195	-0.136963
754.0	28.475032	4.731086	9.0012	-2.249847	5.717403	4.681363	-0.657227	0.250244	-0.165283
755.0	30.074414	3.508086	4.592664	-2.826054	5.389787	4.547681	-0.637451	0.300293	-0.20459
756.0	29.384672	0.457036	-1.24762	-2.469135	4.880601	4.037299	-0.617676	0.348145	-0.230957
757.0	28.238705	-0.130065	-6.15425	-1.224185	3.965666	3.278923	-0.595215	0.38501	-0.259277
758.0	28.461238	1.656648	-9.602793	0.130224	2.737993	2.442808	-0.583008	0.408936	-0.272217
759.0	28.947551	4.647412	-12.102088	0.911314	1.199082	1.742222	-0.57251	0.415771	-0.287354
760.0	32.848107	6.203606	-13.276154	1.021198	-0.430515	1.354542	-0.577393	0.430664	-0.287598
761.0	37.859563	4.724003	-13.002959	1.000818	-1.620376	1.485074	-0.579834	0.439453	-0.287598
762.0	37.001281	4.170134	-11.769255	1.26726	-2.196742	1.717958	-0.588867	0.447754	-0.272461
763.0	26.943896	6.836953	-10.294237	2.090933	-3.063538	0.539288	-0.605957	0.438965	-0.259521
764.0	-13.583609	-7.391743	12.484762	2.989935	-5.125429	-1.954176	-0.643555	0.403809	-0.226807
765.0	-0.880262	-4.562955	28.197571	5.480726	-7.481887	-5.713323	-0.693604	0.345215	-0.191895
766.0	43.286794	38.152503	-8.161775	0.640415	-7.953868	-2.843527	-0.721191	0.331299	-0.12915
767.0	45.568862	5.58226	32.163138	-0.085548	-6.23847	-1.991552	-0.744629	0.317871	-0.098633
768.0	19.201885	-2.30424	10.232524	-0.409359	-3.520983	-2.118793	-0.761475	0.304443	-0.068359
769.0	8.810395	-4.589794	8.059681	-0.262678	-3.528319	-1.441564	-0.77417	0.297607	-0.040039
770.0	3.776061	-6.97006	6.140134	0.180222	-3.685887	-1.15884	-0.780273	0.290527	-0.007568
771.0	29.822873	-24.569579	13.403633	2.02224	-2.991674	-1.104858	-0.797119	0.273193	-0.000977
772.0	14.818704	4.663902	9.686773	2.128031	-1.211585	-1.197608	-0.794434	0.264404	0.009766
773.0	10.160161	6.173014	10.808839	0.802676	-0.199638	-0.956784	-0.79834	0.251709	0.005615
774.0	7.646077	-3.846667	8.512577	0.654044	-0.203818	-0.766653	-0.800293	0.247314	0.012207
775.0	6.701255	1.068259	8.797676	0.449747	-0.106838	-0.562917	-0.797852	0.23877	0.012207
776.0	5.939531	-3.757214	7.879011	0.287738	-0.060557	-0.528126	-0.802246	0.238525	0.016357
777.0	5.694705	-2.09515	8.112416	0.354785	-0.018587	-0.623397	-0.803955	0.228027	0.003418
778.0	5.676696	-2.208064	7.495692	0.362317	-0.03414	-0.673357	-0.797119	0.221436	0.014404
779.0	5.412646	-3.196794	7.878202	0.471452	-0.041367	-0.641003	-0.799072	0.212891	0.005859
780.0	5.836633	-1.152375	8.295082	0.591123	0.011336	-0.599749	-0.801025	0.210693	0.014404
781.0	5.426694	-0.604621	8.5083	0.553275	0.034896	-0.508162	-0.798828	0.208496	0.008057
782.0	5.725689	-0.094415	8.456752	0.487427	0.015389	-0.410971	-0.805176	0.204102	0.014404
783.0	5.844389	0.678998	8.708468	0.357846	-0.003202	-0.282431	-0.802734	0.195801	0.005859
784.0	5.66552	0.021125	8.726948	0.205446	-0.031419	-0.166604	-0.804932	0.197754	0.008057
785.0	5.60916	-0.986227	8.540861	0.131077	-0.053988	-0.1094	-0.804932	0.193604	0.008057
786.0	5.608229	-0.668861	8.664253	0.076721	-0.070343	-0.075616	-0.800293	0.191406	0.010254
787.0	5.427931	-1.307632	8.663467	0.020694	-0.105554	-0.053349	-0.806885	0.189209	0.012451
788.0	5.577873	-2.031973	8.387766	0.032353	-0.12663	-0.061267	-0.804688	0.193359	0.012451
789.0	5.619717	-1.98567	8.133748	0.063602	-0.129787	-0.077516	-0.806885	0.189209	0.014648
790.0	5.70116	-2.004173	7.836145	0.126224	-0.126341	-0.088259	-0.804443	0.187012	0.012451
791.0	5.65852	-1.888005	8.304983	0.216424	-0.115461	-0.109897	-0.806885	0.189209	0.010254
792.0	5.467357	-1.733718	8.590205	0.169735	-0.075468	-0.163059	-0.802246	0.182617	0.012451
793.0	5.904724	-2.489234	7.828865	0.193931	-0.041162	-0.234611	-0.808838	0.184814	0.016602
794.0	5.916064	-0.376889	8.541708	0.17467	-0.038097	-0.234697	-0.804443	0.182617	0.016846
795.0	5.540109	-1.437077	8.407173	0.149006	-0.058065	-0.240038	-0.806396	0.18042	0.012451
796.0	5.449169	-1.911241	8.572792	0.190715	-0.110729	-0.282182	-0.806396	0.178223	0.016846
797.0	5.428591	-2.018322	8.681291	0.303864	-0.178293	-0.349228	-0.80835	0.173828	0.020996
798.0	5.450327	-2.209384	8.720927	0.319014	-0.258128	-0.404998	-0.8125	0.165283	0.02124
799.0	5.464462	-0.494736	8.866357	0.235629	-0.376685	-0.435867	-0.810303	0.165283	0.027588
800.0	5.496866	-2.04484	8.264122	0.223195	-0.486048	-0.392574	-0.80542	0.156738	0.029785
801.0	5.771385	-0.119943	9.011232	0.415078	-0.599858	-0.354023	-0.805664	0.158691	0.03418
802.0	5.389705	-0.989384	8.860378	0.250307	-0.713272	-0.315	-0.809814	0.154297	0.036377
803.0	5.043331	-0.376688	9.646471	0.267651	-0.908397	-0.289604	-0.816162	0.149902	0.042969
804.0	4.879217	-0.028037	10.290968	0.208389	-1.230398	-0.227581	-0.815918	0.145508	0.053711
805.0	4.182334	-0.483249	11.112774	0.113091	-1.653447	-0.201945	-0.820557	0.151611	0.073242
806.0	4.016338	-1.981703	11.481754	0.073861	-2.175155	-0.231398	-0.82251	0.147217	0.090576
807.0	3.544989	-1.95341	11.904863	0.159035	-2.758763	-0.339723	-0.822266	0.144531	0.116699
808.0	3.297751	-0.942818	12.338292	0.12517	-3.41498	-0.450173	-0.828613	0.139893	0.144775
809.0	2.750395	0.007711	12.417812	-0.009358	-4.132137	-0.556873	-0.830322	0.132813	0.183838
810.0	1.77108	0.730734	12.148279	-0.21353	-4.850573	-0.698657	-0.836426	0.123779	0.218506
811.0	0.972665	2.16479	11.893862	-0.527258	-5.570966	-0.840994	-0.825439	0.123291	0.268311
812.0	-1.583842	-0.34068	10.942386	-0.787657	-6.474922	-1.036338	-0.825195	0.115967	0.324707
813.0	-2.589111	-1.61958	10.189099	-0.586402	-7.736701	-1.468064	-0.81543	0.095947	0.383545
814.0	0.283776	-1.006639	10.524086	-0.493147	-9.211375	-1.733143	-0.793213	0.086182	0.470215
815.0	4.199733	-2.260775	11.641226	-0.527927	-10.845479	-1.685676	-0.762207	0.076416	0.559082
816.0	6.888039	-6.779154	7.554851	0.132411	-12.196567	-1.91762	-0.715576	0.058105	0.650391
817.0	18.632173	-3.51234	7.503723	0.997812	-12.642945	-2.075157	-0.660645	0.052979	0.730713
818.0	29.508022	1.518153	12.576454	0.392757	-11.636292	-1.676963	-0.601318	0.043701	0.795898
819.0	28.715005	-1.832244	13.332728	-0.427099	-10.386592	-1.408947	-0.546387	0.030273	0.856689
820.0	30.482348	1.921223	19.876081	-1.725099	-8.858123	-0.366396	-0.495605	0.014893	0.889404
821.0	23.551457	-11.328193	14.431118	-2.379326	-7.468005	-0.707776	-0.449219	-0.002441	0.91333
822.0	29.290002	-16.071768	19.394797	-1.852835	-6.102177	-1.355718	-0.415771	-0.021729	0.920166
823.0	37.9771	-14.134023	29.073851	-1.489793	-2.05903	-0.420145	-0.424072	-0.034668	0.915771
824.0	17.879842	-15.803217	23.487558	-0.887441	1.17948	0.21029	-0.443359	-0.040771	0.889893
825.0	3.935037	-7.844172	18.50522	-0.348839	1.952222	-0.265233	-0.460938	-0.040527	0.86377
826.0	1.998807	-4.889379	15.837918	-0.918193	1.696472	-0.817196	-0.464355	-0.066162	0.85083
827.0	6.353568	-3.827663	14.209538	-1.770839	1.609958	-0.912699	-0.47876	-0.087402	0.829346
828.0	9.55719	-6.363501	12.560673	-2.315298	2.213539	-0.458496	-0.501953	-0.104492	0.799072
829.0	7.988204	-10.204425	11.184539	-2.10435	3.11813	0.080702	-0.518555	-0.127686	0.768799
830.0	4.088357	-12.397996	9.874617	-1.11501	3.779415	0.447125	-0.54248	-0.131836	0.740479
831.0	2.272172	-11.39693	8.729061	0.221668	4.199746	0.600302	-0.568604	-0.133545	0.710205
832.0	2.206053	-7.841072	8.23642	1.279162	4.50646	0.642665	-0.59082	-0.126709	0.679688
833.0	2.949747	-3.6548	8.597304	1.65516	4.788018	0.749389	-0.617188	-0.12207	0.649414
834.0	3.701751	-0.741774	9.127944	1.375605	5.077932	0.914756	-0.637207	-0.108887	0.612305
835.0	4.540985	0.307925	9.314294	0.72482	5.395543	1.058484	-0.663574	-0.108398	0.569092
836.0	5.978829	0.453762	9.28729	-0.025765	5.76893	1.227094	-0.687744	-0.105713	0.527832
837.0	6.50666	-0.77012	8.680979	-0.661635	6.18929	1.399531	-0.712158	-0.096436	0.477783
838.0	6.658162	-2.045997	7.969331	-0.99984	6.509966	1.550006	-0.725098	-0.100098	0.419189
839.0	6.932911	-2.667226	7.590757	-1.110076	6.715526	1.684327	-0.73877	-0.090576	0.354248
840.0	7.411191	-3.007341	7.554238	-1.128796	6.822784	1.821861	-0.75	-0.083496	0.293457
841.0	8.176763	-3.309942	7.975227	-1.10634	6.858946	1.962576	-0.752686	-0.071777	0.232666
842.0	9.638461	-2.979158	8.764054	-1.07022	6.902584	2.137751	-0.751221	-0.060059	0.167725
843.0	10.73937	-2.318781	9.328127	-1.184386	6.970097	2.338145	-0.740723	-0.050781	0.109131
844.0	11.443048	-1.891155	9.777402	-1.45371	6.968974	2.512472	-0.728516	-0.032715	0.046143
845.0	12.736167	-1.664035	10.376625	-1.835882	6.910106	2.716167	-0.716064	-0.019043	-0.001709
846.0	14.547545	-3.141822	10.570486	-2.164769	6.863729	2.927984	-0.692871	-0.000977	-0.051514
847.0	16.26938	-4.914388	11.181901	-2.1584	6.821618	3.161279	-0.678711	0.023438	-0.103516
848.0	17.731835	-5.554964	12.082389	-1.908905	6.781719	3.430532	-0.653564	0.047852	-0.146973
849.0	19.245017	-5.221014	12.651309	-1.62513	6.688468	3.635601	-0.63501	0.069824	-0.181885
850.0	21.433226	-5.276244	12.587157	-1.472394	6.57858	3.724419	-0.608154	0.102783	-0.229492
851.0	24.030645	-5.07647	11.123685	-1.311886	6.502149	3.681362	-0.587402	0.131348	-0.266602
852.0	26.116949	1.29978	10.753713	-1.344379	6.364509	3.935369	-0.547119	0.155762	-0.303467
853.0	28.073388	2.783359	8.51483	-1.919922	6.103766	4.169241	-0.513672	0.190674	-0.340332
854.0	29.844143	3.188588	4.397452	-2.401856	5.70766	4.107742	-0.478027	0.223633	-0.366455
855.0	29.855249	1.842804	-1.617201	-2.477114	5.022419	3.803448	-0.453125	0.256104	-0.38623
856.0	29.97232	-1.407261	-8.19004	-1.778198	3.907157	3.189527	-0.425781	0.278076	-0.401367
857.0	31.721838	-1.944564	-11.969275	-0.303215	2.58438	2.522648	-0.410889	0.286865	-0.420898
858.0	34.613354	0.729667	-12.332945	0.993352	1.337962	2.120155	-0.4021	0.284912	-0.425293
859.0	35.22158	3.761315	-12.281907	1.533432	0.325275	2.06563	-0.4021	0.282715	-0.429443
860.0	32.99221	5.179731	-12.413005	1.552228	-0.627884	2.130362	-0.404053	0.278564	-0.427246
861.0	30.728972	8.360982	-10.057572	1.253337	-1.554348	2.060614	-0.414795	0.276123	-0.416504
862.0	29.702413	7.761906	-8.177888	0.52819	-2.321186	1.514393	-0.43042	0.284668	-0.414551
863.0	27.057791	6.434774	-6.509896	0.399434	-2.80934	0.216585	-0.449951	0.280273	-0.407959
864.0	16.474127	5.413395	1.271413	0.397901	-2.886229	-1.131039	-0.46875	0.260498	-0.390625
865.0	-12.130865	-11.660286	41.498723	0.57725	-1.83835	-1.629919	-0.487549	0.243164	-0.388428
866.0	-52.532821	-26.394069	26.764315	3.307534	-2.777737	-5.311841	-0.517822	0.184814	-0.368652
867.0	31.808453	46.065231	-21.046136	4.651503	-9.226877	-4.293836	-0.575439	0.155762	-0.312256
868.0	56.205535	-8.635163	22.973588	-1.199061	-8.256214	-0.046731	-0.608154	0.159424	-0.268799
869.0	26.620337	10.067564	19.864127	0.955411	-4.682067	-1.13128	-0.633789	0.148193	-0.24292
870.0	16.359558	-1.358039	11.163385	-0.782271	-3.764675	-1.449221	-0.646484	0.141357	-0.216797
871.0	6.884793	-4.047624	8.353187	-0.473672	-3.299083	-0.969739	-0.666016	0.138672	-0.197266
872.0	8.45427	-14.747792	7.387423	-0.166192	-3.72448	-0.770485	-0.672119	0.129883	-0.171387
873.0	23.04581	-17.86445	9.187052	2.371169	-2.414901	-0.646779	-0.682617	0.118896	-0.1604
874.0	13.498261	4.17977	10.235808	1.58953	-1.172353	-1.01198	-0.690674	0.10376	-0.153809
875.0	7.496334	-2.449615	8.340101	0.700509	-0.456601	-0.887333	-0.688232	0.097168	-0.153809
876.0	7.547695	-1.363942	8.824113	0.817728	-0.359852	-0.821081	-0.692139	0.088623	-0.149414
877.0	7.151028	-0.744894	8.910238	0.434974	-0.13459	-0.691763	-0.685547	0.082031	-0.14502
878.0	6.135403	-3.748056	7.59209	0.433928	-0.007071	-0.644248	-0.687256	0.073486	-0.14502
879.0	6.37622	-1.857198	8.332651	0.43978	0.10122	-0.659996	-0.689453	0.071533	-0.156006
880.0	5.811992	-2.311241	8.051329	0.385801	0.173909	-0.674041	-0.686768	0.060547	-0.153564
881.0	5.670089	-2.074766	8.074456	0.406715	0.186333	-0.680518	-0.693115	0.053955	-0.147217
882.0	5.627067	-1.574224	8.062775	0.436266	0.174045	-0.673686	-0.69043	0.043213	-0.14502
883.0	5.244233	-1.735546	7.848827	0.428684	0.138594	-0.634446	-0.681641	0.04126	-0.151367
884.0	5.3498	-1.779101	8.049515	0.533879	0.085353	-0.566267	-0.681641	0.039063	-0.14917
885.0	5.494021	-1.240587	8.286295	0.576546	0.01336	-0.479503	-0.683594	0.034668	-0.14917
886.0	5.613986	-0.888019	8.476011	0.539088	-0.057939	-0.394894	-0.681152	0.026123	-0.144775
887.0	5.736942	-0.169391	8.794326	0.43984	-0.09187	-0.287819	-0.683105	0.021973	-0.151367
888.0	5.579136	-0.340429	8.563065	0.307275	-0.114898	-0.192245	-0.6875	0.021973	-0.151367
889.0	5.517238	-0.870661	8.504635	0.202757	-0.141886	-0.135265	-0.685303	0.019531	-0.142578
890.0	5.528622	-1.732204	8.411747	0.155533	-0.138165	-0.118121	-0.689209	0.013184	-0.14917
891.0	5.636309	-2.823955	7.966017	0.199064	-0.102462	-0.144821	-0.685059	0.013184	-0.144775
892.0	5.739299	-3.05805	7.621345	0.31027	-0.044669	-0.194187	-0.689209	0.010986	-0.144775
893.0	5.793974	-2.761224	7.736809	0.40541	0.025503	-0.246573	-0.682617	0.010986	-0.146973
894.0	5.724673	-1.973782	8.122153	0.460471	0.08113	-0.285114	-0.68457	0.004639	-0.144775
895.0	5.84826	-0.810782	8.415202	0.463611	0.099894	-0.282373	-0.682373	0.000244	-0.135986
896.0	5.836559	-1.353003	8.422173	0.41257	0.108961	-0.261269	-0.682373	0.000244	-0.140381
897.0	5.922882	-1.439595	8.491113	0.411785	0.101185	-0.268431	-0.682129	-0.001953	-0.140381
898.0	5.561481	-0.885415	8.817736	0.379119	0.07587	-0.250865	-0.682129	-0.006104	-0.144775
899.0	5.234532	0.311758	9.320803	0.305914	-0.076151	-0.219649	-0.679932	-0.00415	-0.140381
900.0	5.005006	0.17751	9.592778	0.136653	-0.29297	-0.163584	-0.683838	-0.012695	-0.133789
901.0	5.071149	-1.816818	9.202787	0.037986	-0.519101	-0.177938	-0.688477	-0.010498	-0.140381
902.0	5.301699	-1.895558	9.084529	0.083436	-0.675314	-0.251612	-0.688232	-0.010742	-0.125244
903.0	5.431502	-1.717385	8.933046	0.010633	-0.815905	-0.252264	-0.69043	-0.015137	-0.12085
904.0	5.178619	-2.452829	9.311198	0.430613	-0.950809	-0.265274	-0.687988	-0.019531	-0.114258
905.0	5.12916	-0.29482	9.922537	0.221583	-1.222986	-0.222171	-0.696777	-0.019531	-0.107666
906.0	4.642942	-1.045741	10.30899	0.120964	-1.566339	-0.200253	-0.700928	-0.02002	-0.088379
907.0	4.285579	-1.067725	11.158268	0.064469	-1.980579	-0.212415	-0.709473	-0.024414	-0.077393
908.0	3.885427	-1.712742	11.678202	0.099239	-2.51435	-0.230367	-0.71582	-0.026855	-0.062256
909.0	3.297891	-0.466766	12.189827	0.078456	-3.156539	-0.287924	-0.722168	-0.029297	-0.029785
910.0	2.984763	0.168868	12.296858	-0.172015	-3.855342	-0.329999	-0.72876	-0.027588	0.002686
911.0	1.974624	0.862044	12.133973	-0.435597	-4.577105	-0.420593	-0.737305	-0.032471	0.035156
912.0	1.365108	1.715841	11.609562	-0.761658	-5.329235	-0.515906	-0.754639	-0.033203	0.078613
913.0	0.035166	-1.144779	10.913364	-0.997117	-6.140212	-0.697276	-0.75415	-0.04248	0.128418
914.0	-1.597686	-2.581231	10.403859	-0.796853	-7.223034	-1.128071	-0.758057	-0.047607	0.182617
915.0	-0.492305	-2.655288	10.720219	-0.698862	-8.44989	-1.559233	-0.757324	-0.063477	0.256592
916.0	3.313578	-2.234614	11.269317	-0.610779	-9.970474	-1.710781	-0.739258	-0.073242	0.334473
917.0	4.781278	-9.157395	7.325375	-0.057861	-11.444521	-1.989375	-0.718994	-0.087402	0.430176
918.0	12.345267	-5.807098	8.493052	1.396936	-12.371221	-2.548782	-0.678955	-0.105713	0.52124
919.0	26.689471	1.939104	12.361651	0.958626	-11.79004	-2.091799	-0.641357	-0.117188	0.601563
920.0	27.013026	-2.789932	12.392237	0.060994	-10.736494	-1.741511	-0.585938	-0.135254	0.666748
921.0	32.581868	3.85706	19.241808	-1.378598	-9.456089	-0.750337	-0.548828	-0.140137	0.716797
922.0	26.84735	-10.273322	18.584562	-2.426113	-7.589491	-0.438786	-0.510986	-0.157471	0.751465
923.0	25.053349	-12.469518	19.071452	-2.159255	-6.586908	-1.682346	-0.477539	-0.177002	0.769043
924.0	28.928366	-9.19065	31.468322	-3.030822	-3.211002	-1.271482	-0.461426	-0.198486	0.773438
925.0	20.550598	-18.134411	30.908154	-2.992206	0.617936	-0.381382	-0.478271	-0.215576	0.749756
926.0	-1.1294	-17.026875	22.127906	-1.856451	1.695043	-0.78318	-0.482178	-0.226074	0.736816
927.0	1.664151	-10.036828	19.134498	-1.196333	1.760495	-1.171837	-0.49292	-0.234619	0.719482
928.0	5.655963	-5.953354	17.207956	-1.418391	1.942599	-1.054242	-0.503174	-0.249268	0.697754
929.0	8.520053	-5.46647	15.444165	-1.909684	2.541575	-0.436857	-0.518066	-0.259766	0.68042
930.0	9.101741	-6.778201	14.164575	-2.079032	3.487432	0.284222	-0.541992	-0.263916	0.647949
931.0	6.706406	-8.000742	12.694955	-1.782198	4.392348	0.887264	-0.565918	-0.265625	0.606689
932.0	4.946199	-7.845849	11.25863	-1.088112	5.040537	1.219005	-0.589844	-0.265137	0.574219
933.0	4.321568	-6.360732	9.819177	-0.332142	5.515105	1.32183	-0.62085	-0.256104	0.535156
934.0	4.653329	-4.997771	8.872654	0.263837	5.852097	1.275122	-0.640869	-0.244873	0.496094
935.0	5.858801	-2.398275	8.962793	0.58599	6.09287	1.244177	-0.669678	-0.23584	0.454834
936.0	7.427255	0.280648	9.343992	0.435326	6.323165	1.361451	-0.685303	-0.226563	0.406982
937.0	8.766216	1.846065	9.099157	-0.085812	6.579176	1.567642	-0.709717	-0.217529	0.352783
938.0	8.935363	1.131091	8.187565	-0.71415	6.812181	1.737281	-0.721191	-0.210205	0.300537
939.0	8.605267	-0.762577	7.194033	-1.082301	6.904198	1.795053	-0.732666	-0.196533	0.239746
940.0	8.501495	-2.087665	6.722536	-1.032205	6.851314	1.794131	-0.733154	-0.185059	0.185547
941.0	9.120914	-2.013682	7.146367	-0.830097	6.706895	1.803531	-0.738037	-0.173584	0.120605
942.0	10.776997	-0.792245	8.185764	-0.785381	6.591792	1.895615	-0.73877	-0.159912	0.077148
943.0	12.078297	-0.395991	8.832453	-0.98198	6.555179	2.060689	-0.730713	-0.148438	0.016357
944.0	12.795331	-1.011895	8.918966	-1.217831	6.568693	2.248912	-0.724609	-0.134766	-0.029297
945.0	12.713022	-2.378423	8.808579	-1.264615	6.546898	2.423924	-0.716797	-0.118896	-0.081299
946.0	12.844594	-2.734521	9.297943	-1.107972	6.449685	2.608517	-0.702393	-0.101074	-0.133301
947.0	14.148644	-1.59492	10.403676	-1.007371	6.332521	2.849771	-0.701172	-0.074707	-0.172607
948.0	15.45796	-0.280205	11.187365	-1.208381	6.215987	3.117479	-0.686768	-0.054688	-0.220215
949.0	16.697484	-0.571062	11.117582	-1.500632	6.029548	3.346854	-0.668457	-0.023926	-0.263672
950.0	17.9144	-2.288268	10.297843	-1.563893	5.855738	3.460619	-0.652344	0.004883	-0.304932
951.0	18.766372	-3.559049	9.491032	-1.193962	5.689183	3.478649	-0.634033	0.0354	-0.346436
952.0	20.407067	-0.991714	9.397487	-0.66521	5.486393	3.539803	-0.615479	0.059814	-0.378906
953.0	23.360997	5.867585	9.702189	-0.743626	5.312168	3.775123	-0.594971	0.092529	-0.416016
954.0	25.444092	7.09302	7.040331	-1.603448	5.112572	3.922433	-0.570557	0.134033	-0.446533
955.0	26.330344	2.874721	2.451588	-1.912662	4.791064	3.617026	-0.552002	0.1604	-0.481201
956.0	27.721951	0.24776	-1.555874	-1.213492	4.339623	2.951218	-0.53125	0.186523	-0.500732
957.0	28.970537	0.043477	-5.021241	-0.034355	3.737215	2.168171	-0.51416	0.193359	-0.520264
958.0	30.287358	3.191806	-7.982209	0.85594	2.973779	1.462846	-0.503662	0.197754	-0.5354
959.0	29.290566	8.450314	-10.986643	0.737834	1.9004	1.081598	-0.506104	0.204346	-0.546387
960.0	29.154557	8.701775	-13.565349	-0.1684	0.367663	0.847078	-0.512939	0.213135	-0.552979
961.0	31.575588	5.18622	-13.654791	-0.732328	-1.039114	0.58525	-0.535156	0.225586	-0.540039
962.0	33.715578	2.375776	-11.312819	-0.351449	-1.878146	0.198072	-0.557129	0.229736	-0.531494
963.0	29.695655	4.647164	-7.343137	0.476652	-2.175921	-0.336666	-0.578369	0.220947	-0.516357
964.0	11.987931	6.913653	2.010245	0.600533	-2.798632	-1.55876	-0.617432	0.218506	-0.501221
965.0	-51.8053	-37.381992	29.7608	1.330484	-4.792599	-4.447631	-0.669678	0.163818	-0.455322
966.0	36.639965	24.159458	-6.504157	4.517863	-8.69544	-5.257678	-0.739746	0.121826	-0.390381
967.0	49.126412	9.551188	10.722617	-0.057383	-9.053532	-0.846181	-0.796631	0.133545	-0.321045
968.0	32.997949	-0.26997	24.166574	0.747081	-5.72727	-0.871028	-0.81543	0.113525	-0.277588
969.0	16.103551	7.941624	10.189876	-0.285094	-4.214671	-1.72271	-0.841064	0.104248	-0.24292
970.0	6.744501	-2.502837	8.668469	-0.557265	-4.025424	-1.374122	-0.866943	0.097168	-0.204102
971.0	31.339845	-35.391388	13.231168	1.73919	-3.558479	-0.907103	-0.872559	0.07959	-0.171387
972.0	18.853815	8.984144	9.542404	1.940762	-1.065629	-1.122237	-0.874268	0.06665	-0.166992
973.0	7.703747	1.937175	9.052902	0.491078	-0.209543	-0.759015	-0.880615	0.064209	-0.160645
974.0	7.218858	-5.727543	7.679552	0.669741	-0.181644	-0.719173	-0.880127	0.05127	-0.156006
975.0	7.888123	2.283024	8.731856	0.46214	-0.127183	-0.548725	-0.875732	0.049316	-0.1604
976.0	5.911416	-3.41045	7.761935	0.29611	-0.098383	-0.361805	-0.875488	0.042725	-0.158203
977.0	6.372458	-1.427418	8.351241	0.337853	-0.108984	-0.367319	-0.879639	0.03833	-0.158203
978.0	6.244475	-1.564769	8.241189	0.244356	-0.062946	-0.310171	-0.881836	0.036133	-0.153809
979.0	5.684298	-1.965982	8.209531	0.268003	-0.024162	-0.285766	-0.875244	0.036133	-0.153809
980.0	5.681422	-1.002331	8.297628	0.249061	-0.028528	-0.255229	-0.875	0.029785	-0.153809
981.0	5.388089	-1.602087	8.396136	0.200303	-0.076838	-0.196935	-0.877197	0.027832	-0.1604
982.0	5.432597	-1.03352	8.598023	0.193191	-0.159812	-0.15843	-0.875	0.029785	-0.1604
983.0	5.925323	-0.755668	8.315029	0.114484	-0.215522	-0.087056	-0.881592	0.029541	-0.145264
984.0	6.090942	-1.26066	8.119134	0.041996	-0.203086	-0.021935	-0.879395	0.029785	-0.149414
985.0	5.746013	-1.596651	8.259616	0.015865	-0.204961	0.006062	-0.881592	0.031738	-0.147461
986.0	5.744985	-1.474744	8.241267	-0.022115	-0.229542	0.020607	-0.877441	0.033936	-0.143066
987.0	5.768448	-1.879861	8.147242	-0.046382	-0.234616	0.039962	-0.885742	0.027344	-0.138672
988.0	5.664016	-2.229001	8.03984	-0.053966	-0.233555	0.035995	-0.881348	0.025391	-0.140869
989.0	5.684124	-3.415345	7.587755	-0.012919	-0.209839	-0.004382	-0.883545	0.027344	-0.13208
990.0	5.731246	-3.23639	7.58389	0.064952	-0.160766	-0.07293	-0.881348	0.027344	-0.13208
991.0	5.853111	-3.097891	7.62736	0.120385	-0.108818	-0.135029	-0.883545	0.027344	-0.13208
992.0	5.721686	-2.375093	7.883483	0.161039	-0.069017	-0.178426	-0.889893	0.020752	-0.13208
993.0	5.867783	-2.417213	7.741064	0.206435	-0.036974	-0.216196	-0.881104	0.020996	-0.134277
994.0	5.796383	-2.163468	7.693848	0.240424	0.003103	-0.250229	-0.885254	0.016357	-0.123535
995.0	5.842018	-1.769423	7.752695	0.271257	0.030072	-0.270612	-0.883301	0.018555	-0.127686
996.0	5.904146	-1.643122	7.875457	0.271331	0.049111	-0.271957	-0.883057	0.016602	-0.127686
997.0	5.750596	-1.614853	7.981643	0.286114	0.064133	-0.289359	-0.882813	0.007813	-0.129883
998.0	5.866738	-1.074089	8.150818	0.278749	0.041883	-0.277233	-0.882568	0.003662	-0.129883
999.0	5.999263	-1.230344	7.820255	0.264622	0.023735	-0.24052	-0.878418	0.003662	-0.127686
1000.0	5.706191	-2.973702	7.672144	0.344786	0.052418	-0.260676	-0.884766	0.001465	-0.125488
1001.0	5.564483	-3.6696	7.731525	0.475065	0.085323	-0.345797	-0.880127	-0.004883	-0.13208
1002.0	6.017046	-1.405838	8.062822	0.503618	0.081444	-0.412149	-0.877686	-0.011475	-0.123291
1003.0	5.809763	-0.211346	8.734292	0.413861	0.011436	-0.347834	-0.879883	-0.011475	-0.129883
1004.0	5.459105	-1.442615	9.217355	0.347359	-0.145293	-0.302104	-0.875244	-0.017822	-0.125488
1005.0	5.034791	-2.290941	9.864682	0.1968	-0.357385	-0.358945	-0.879639	-0.02002	-0.123291
1006.0	4.600965	-3.114267	10.209463	0.325876	-0.650503	-0.422889	-0.879395	-0.024658	-0.112305
1007.0	4.574909	-0.148701	11.900703	0.482214	-1.122393	-0.409534	-0.887939	-0.029053	-0.105957
1008.0	3.892069	-1.239441	11.858498	0.206084	-1.702343	-0.321796	-0.893799	-0.040039	-0.077637
1009.0	3.35786	-0.563207	12.429668	0.201119	-2.360558	-0.318409	-0.89624	-0.036133	-0.049561
1010.0	3.371861	0.887043	12.612206	0.05493	-3.072506	-0.289983	-0.906738	-0.041016	-0.025635
1011.0	3.191333	0.229721	12.259223	-0.209423	-3.768856	-0.25789	-0.922119	-0.039307	0.01123
1012.0	2.283599	0.931144	12.24499	-0.415628	-4.508677	-0.281767	-0.928223	-0.044189	0.058838
1013.0	1.269933	0.379139	12.09549	-0.780967	-5.30363	-0.352353	-0.941162	-0.047363	0.113037
1014.0	-0.511188	-1.899448	11.745722	-0.985518	-6.189574	-0.612261	-0.945313	-0.048096	0.182373
1015.0	-2.374317	-2.749351	11.534864	-0.965286	-7.336341	-1.064395	-0.959961	-0.060059	0.262695
1016.0	-1.54803	-2.674384	12.443033	-0.848193	-8.769276	-1.522166	-0.948242	-0.074219	0.358154
1017.0	3.069771	-3.338902	11.37882	-0.758471	-10.317026	-1.678027	-0.934326	-0.088623	0.464355
1018.0	5.59029	-8.811507	7.471599	-0.173471	-11.687671	-2.018835	-0.896484	-0.107422	0.588135
1019.0	18.122583	-4.559997	9.894214	1.06642	-12.442831	-2.394645	-0.845703	-0.119629	0.71167
1020.0	28.997741	-1.058188	13.694651	0.513213	-11.285752	-2.078613	-0.788086	-0.137939	0.811768
1021.0	30.615126	-2.238519	15.869777	-0.155554	-9.892907	-1.829933	-0.73291	-0.151855	0.900635
1022.0	30.298907	-3.431113	20.144596	-1.394403	-8.144885	-0.712897	-0.688232	-0.176025	0.957275
1023.0	19.898313	-12.940546	16.38006	-1.384354	-7.134779	-1.594461	-0.6521	-0.208984	1.013916
1024.0	23.971557	-9.09185	23.738483	-1.444655	-5.31504	-2.022635	-0.622803	-0.235107	1.046631
1025.0	29.849645	-10.079229	32.187148	-1.943654	-1.748123	-1.524751	-0.634033	-0.27832	1.053223
1026.0	6.992612	-14.100801	24.974769	-2.066019	0.676021	-1.500503	-0.656738	-0.314941	1.046875
1027.0	-0.039591	-10.136441	19.479209	-1.721844	1.182683	-1.979386	-0.690186	-0.351563	1.042725
1028.0	3.642434	-7.947828	16.831943	-1.852641	1.35644	-2.077686	-0.7146	-0.392334	1.036377
1029.0	4.180601	-8.874409	14.399225	-2.001009	1.77638	-1.75865	-0.754395	-0.435303	1.019043
1030.0	3.158267	-10.749206	12.241327	-1.693747	2.202583	-1.213673	-0.809814	-0.465332	0.997559
1031.0	2.983074	-11.309005	11.083681	-1.035687	2.604887	-0.624793	-0.86792	-0.484863	0.982422
1032.0	3.698546	-10.323419	10.629142	-0.281077	3.081707	-0.065201	-0.943359	-0.503906	0.94751
1033.0	4.811961	-8.483013	10.245672	0.341932	3.673922	0.430053	-1.045898	-0.499756	0.919189
1034.0	5.308595	-6.24771	9.852336	0.668189	4.373384	0.830227	-1.146973	-0.481934	0.843018
1035.0	4.92564	-4.258137	9.48492	0.723475	4.952574	1.088783	-1.255127	-0.446533	0.749512
1036.0	5.356769	-2.268693	9.176168	0.491856	5.390079	1.279114	-1.339844	-0.40625	0.610352
1037.0	6.556473	-1.057721	8.814644	0.037817	5.750738	1.474092	-1.39502	-0.3396	0.44751
1038.0	7.852874	-0.365607	8.46061	-0.528777	6.088495	1.651441	-1.404785	-0.26416	0.278076
1039.0	8.8662	-0.726452	7.754314	-1.126486	6.408018	1.783513	-1.373779	-0.173584	0.112793
1040.0	9.194676	-1.960381	6.964034	-1.538302	6.680502	1.834413	-1.279785	-0.07666	-0.034912
1041.0	9.607212	-2.92574	6.729291	-1.68823	6.836087	1.842793	-1.146729	0.019775	-0.128174
1042.0	10.848746	-3.357182	6.809628	-1.675068	6.930927	1.868348	-1.007568	0.07666	-0.156494
1043.0	12.104845	-3.18091	7.197664	-1.632015	7.005775	1.965032	-0.89502	0.096191	-0.143311
1044.0	12.881631	-2.45161	7.493653	-1.660705	7.014211	2.134184	-0.824707	0.078857	-0.117188
1045.0	13.306118	-1.761076	7.476689	-1.824622	6.898426	2.369646	-0.797119	0.046875	-0.116943
1046.0	13.860935	-1.940203	7.421676	-2.043176	6.676274	2.590591	-0.789795	0.02124	-0.134033
1047.0	14.903849	-3.518927	7.386644	-2.16395	6.436147	2.783366	-0.802979	0.021484	-0.162354
1048.0	15.99381	-5.475768	7.965262	-1.914869	6.234669	2.99517	-0.806152	0.043945	-0.220947
1049.0	16.868536	-5.527374	9.620145	-1.331037	6.092399	3.27872	-0.800781	0.074707	-0.268799
1050.0	19.43662	-1.458187	11.990191	-0.983978	6.040451	3.620375	-0.771973	0.112305	-0.331787
1051.0	21.664681	2.519087	12.768833	-1.44956	6.126475	3.924522	-0.734863	0.162598	-0.379639
1052.0	21.513629	3.688007	11.547107	-2.282499	6.146821	4.03904	-0.697754	0.217041	-0.42749
1053.0	21.342485	3.852365	9.969101	-2.966223	5.917736	3.987072	-0.650391	0.282471	-0.468994
1054.0	23.563466	1.117774	8.656144	-3.254368	5.539771	3.717952	-0.605713	0.364502	-0.48877
1055.0	29.81381	1.621613	6.863663	-2.869889	5.300148	3.450514	-0.545166	0.431641	-0.501953
1056.0	34.19878	2.255082	1.416944	-2.280839	5.249497	3.522671	-0.481934	0.48584	-0.510986
1057.0	31.902292	1.504497	-6.901367	-1.124789	4.757188	3.401056	-0.422119	0.516113	-0.506592
1058.0	29.360191	3.518159	-13.279501	0.26234	3.334321	2.927038	-0.383545	0.529053	-0.5
1059.0	30.725242	7.61929	-14.636449	1.067715	1.538396	2.370717	-0.361816	0.53125	-0.491455
1060.0	32.839325	10.119501	-13.002411	0.889864	0.072032	2.056238	-0.34668	0.533203	-0.478271
1061.0	33.793687	8.275796	-11.686981	0.534641	-0.983017	1.951724	-0.342529	0.539551	-0.465332
1062.0	34.230505	6.162478	-10.114342	0.620021	-1.645401	1.833816	-0.338135	0.543701	-0.447998
1063.0	30.662478	6.517562	-8.250656	1.099037	-2.128166	1.473934	-0.344482	0.539063	-0.437256
1064.0	15.911809	8.332014	2.866415	1.563905	-2.672451	0.519923	-0.353027	0.536621	-0.417725
1065.0	-21.459301	-14.791707	32.203271	0.858425	-2.335106	-0.35146	-0.367676	0.51709	-0.406738
1066.0	-40.036523	-19.255815	13.769544	4.58044	-4.290039	-4.970542	-0.430664	0.460693	-0.389404
1067.0	32.073352	46.08651	-8.714254	3.411648	-9.23555	-3.584367	-0.482178	0.442627	-0.333008
1068.0	51.492037	1.935026	22.500157	-0.540974	-7.831824	-0.792606	-0.518799	0.439697	-0.287598
1069.0	28.311914	5.322489	19.863512	8.1e-05	-4.529126	-1.245428	-0.538086	0.43042	-0.25708
1070.0	14.733054	-3.46667	10.379248	-0.729401	-3.495178	-1.664393	-0.552979	0.423584	-0.235352
1071.0	4.424118	-3.104669	6.469715	-0.386545	-3.212641	-1.26849	-0.574463	0.418945	-0.218018
1072.0	15.038598	-25.787166	7.915704	0.416524	-3.64842	-1.083212	-0.589355	0.407959	-0.192139
1073.0	18.019829	-10.796043	6.999227	2.886942	-2.03407	-0.875981	-0.599365	0.388672	-0.200684
1074.0	14.043285	9.083512	12.860055	1.849898	-1.076043	-1.123809	-0.603271	0.377686	-0.18335
1075.0	7.306099	-2.604209	8.680067	0.725815	-0.476851	-0.890587	-0.607666	0.373291	-0.1875
1076.0	6.72151	-0.50505	9.173813	0.734015	-0.421661	-0.770949	-0.609619	0.368896	-0.176758
1077.0	6.457179	-2.239891	8.385829	0.458162	-0.264045	-0.678009	-0.613525	0.360352	-0.185303
1078.0	5.398805	-4.49582	7.794472	0.586519	-0.119673	-0.804724	-0.617676	0.354004	-0.189697
1079.0	6.026421	-3.236064	7.584818	0.634409	-0.038541	-0.96345	-0.615234	0.345459	-0.1875
1080.0	6.1134	-3.852134	7.254552	0.742992	-0.004878	-1.015964	-0.616943	0.33667	-0.1875
1081.0	6.947759	-1.609305	7.833063	0.90782	0.08645	-0.957275	-0.616455	0.323975	-0.19165
1082.0	6.022446	0.258953	8.675264	0.832835	0.021328	-0.742541	-0.620605	0.31958	-0.187256
1083.0	6.369017	0.870511	8.563733	0.608162	-0.021726	-0.53998	-0.620361	0.311035	-0.189453
1084.0	6.177203	-0.120937	8.558646	0.455933	-0.031182	-0.397962	-0.618408	0.312988	-0.189453
1085.0	6.268699	0.115026	8.422121	0.326892	-0.030004	-0.280782	-0.622314	0.306641	-0.187256
1086.0	6.056279	0.578006	8.583384	0.195679	-0.03875	-0.153125	-0.615723	0.304443	-0.19165
1087.0	5.677864	-0.223494	8.743732	0.076883	-0.074936	-0.044122	-0.624756	0.308838	-0.19165
1088.0	5.777544	-1.253309	8.348014	0.015028	-0.112703	0.013849	-0.620361	0.308594	-0.182861
1089.0	5.753319	-1.469064	8.235704	-0.006793	-0.113138	0.034191	-0.618164	0.308594	-0.180908
1090.0	5.803023	-1.45883	8.135091	-0.043062	-0.108816	0.054698	-0.622559	0.308594	-0.185059
1091.0	5.63929	-2.076139	7.962736	-0.054442	-0.10122	0.037943	-0.624756	0.308838	-0.187256
1092.0	5.553019	-3.042875	7.878013	0.025936	-0.073751	-0.032971	-0.626953	0.308838	-0.187256
1093.0	5.639621	-2.814498	7.92125	0.118392	-0.033875	-0.122325	-0.622314	0.302246	-0.180664
1094.0	5.816334	-2.097804	7.98862	0.183754	0.011973	-0.171867	-0.622314	0.302246	-0.180664
1095.0	5.77076	-1.408627	8.210032	0.183449	0.039844	-0.201645	-0.626221	0.295654	-0.182861
1096.0	6.060492	-2.051949	7.755954	0.108429	0.059103	-0.223411	-0.630859	0.302246	-0.185059
1097.0	5.862945	-0.827816	8.256364	0.107623	0.073147	-0.211967	-0.626465	0.300049	-0.182861
1098.0	5.696936	-0.894222	8.258195	0.068505	0.036132	-0.198275	-0.619873	0.300049	-0.182861
1099.0	5.648139	-0.575572	8.443328	0.017981	-0.020973	-0.163201	-0.62207	0.297852	-0.178467
1100.0	5.650639	-0.719241	8.38963	-0.012885	-0.093526	-0.120394	-0.624023	0.293701	-0.182861
1101.0	5.64453	-1.32779	8.234916	-0.017456	-0.142142	-0.10558	-0.628418	0.291504	-0.185059
1102.0	5.640571	-1.771939	8.096049	0.025953	-0.183512	-0.122621	-0.624023	0.293701	-0.185059
1103.0	5.731712	-1.760508	8.091846	0.049814	-0.204761	-0.154362	-0.632813	0.293457	-0.174316
1104.0	5.72903	-2.202169	8.006179	0.084192	-0.204422	-0.198304	-0.628174	0.287109	-0.17627
1105.0	5.748727	-2.484658	8.06195	0.120695	-0.203949	-0.258968	-0.628174	0.289307	-0.17627
1106.0	5.689421	-2.424675	8.281832	0.161802	-0.217164	-0.319954	-0.634521	0.280518	-0.172119
1107.0	5.366364	-1.573004	8.862819	0.200145	-0.304879	-0.353643	-0.636475	0.280518	-0.169922
1108.0	5.193056	-1.418994	9.052316	0.260002	-0.469159	-0.338652	-0.63208	0.27832	-0.161133
1109.0	5.30348	0.497967	10.135837	0.27479	-0.7163	-0.304463	-0.642822	0.273926	-0.16333
1110.0	4.835173	-0.789842	10.001929	0.069866	-0.994634	-0.249462	-0.645264	0.278076	-0.152588
1111.0	4.585474	-0.437897	10.501653	0.126807	-1.356235	-0.224494	-0.653564	0.271484	-0.143799
1112.0	4.621133	0.433761	10.862721	-0.003493	-1.786789	-0.165891	-0.662354	0.273438	-0.130859
1113.0	4.467157	0.068235	10.784466	-0.177486	-2.230295	-0.106803	-0.66626	0.264404	-0.109131
1114.0	4.27779	-0.078188	10.590853	-0.328995	-2.686198	-0.084535	-0.681641	0.266357	-0.0896
1115.0	4.199501	-0.007683	10.316218	-0.49656	-3.147476	-0.079361	-0.692383	0.263672	-0.052734
1116.0	3.810788	0.177429	10.069281	-0.651688	-3.623332	-0.081127	-0.698975	0.269775	-0.026855
1117.0	3.266771	0.385937	9.741581	-0.80614	-4.16735	-0.073959	-0.70752	0.26709	0.007813
1118.0	3.523869	0.456406	9.906213	-0.921482	-4.816938	-0.028293	-0.718262	0.26416	0.049072
1119.0	3.031944	-1.065106	10.354985	-0.980717	-5.543902	0.019473	-0.735596	0.267822	0.101074
1120.0	2.731237	-3.509131	10.676406	-0.889581	-6.338873	-0.123609	-0.737549	0.260498	0.159424
1121.0	4.389164	-5.472431	10.693005	-0.768666	-7.097383	-0.353607	-0.743896	0.259766	0.218018
1122.0	9.505719	-6.254648	11.165715	-0.812472	-7.621471	-0.4346	-0.745605	0.252441	0.283203
1123.0	18.244026	-4.701842	10.549617	-0.901924	-7.373996	-0.206344	-0.736572	0.249268	0.348145
1124.0	28.555592	4.989767	14.880129	-1.657423	-5.921061	0.090542	-0.736084	0.238037	0.393799
1125.0	19.058606	2.096864	13.227587	-3.453287	-4.561447	0.062838	-0.720459	0.22876	0.439209
1126.0	9.580979	-7.505295	15.429913	-4.041411	-4.03151	-0.569326	-0.723877	0.206787	0.480469
1127.0	1.576862	-19.170743	22.891549	-2.596923	-2.268876	-0.823775	-0.723145	0.191406	0.493652
1128.0	4.774412	-12.144455	24.393316	-0.31346	-0.3336	-1.523257	-0.724609	0.174072	0.504639
1129.0	0.399202	-5.739737	19.821811	-0.09422	0.949324	-1.780317	-0.728271	0.154785	0.509033
1130.0	-3.633627	-6.288412	15.11979	-0.31009	1.216083	-2.147043	-0.738037	0.126709	0.509033
1131.0	-3.412758	-8.548065	14.011277	-0.483921	1.312619	-2.164292	-0.746094	0.111572	0.509277
1132.0	-2.968517	-10.01032	13.781938	-0.410578	1.696598	-1.722451	-0.762939	0.096436	0.50708
1133.0	-3.461634	-10.254122	13.680086	-0.116798	2.136889	-1.042094	-0.780273	0.090088	0.500488
1134.0	-2.481901	-8.964835	13.542027	0.116049	2.599915	-0.376955	-0.797363	0.085938	0.487549
1135.0	-1.642217	-7.840865	12.747629	0.282382	3.064701	0.125121	-0.822021	0.101074	0.46582
1136.0	-0.667385	-6.65234	12.027392	0.392831	3.449948	0.405607	-0.844238	0.110107	0.439697
1137.0	1.412937	-4.985259	11.956156	0.380228	3.802576	0.516974	-0.875732	0.134033	0.404785
1138.0	5.277917	-2.822723	12.480054	0.037432	4.247272	0.611572	-0.895996	0.147461	0.35498
1139.0	7.658144	-2.698785	11.600333	-0.533096	4.825945	0.70842	-0.908203	0.18042	0.304932
1140.0	6.889486	-4.989537	9.251912	-0.827617	5.191143	0.690621	-0.911377	0.202637	0.248291
1141.0	6.417736	-7.027233	7.305658	-0.57915	5.218608	0.549394	-0.916748	0.227295	0.1875
1142.0	7.275359	-7.763966	6.691662	-0.024855	5.063542	0.451181	-0.90918	0.255859	0.128906
1143.0	8.991402	-6.979922	7.247676	0.43381	4.881917	0.51892	-0.89502	0.27832	0.074707
1144.0	10.582128	-5.682387	7.959042	0.525566	4.760702	0.771444	-0.87207	0.302734	0.016113
1145.0	11.061802	-5.321121	7.990631	0.286952	4.63672	1.114379	-0.842773	0.331543	-0.027344
1146.0	10.487905	-6.684738	6.8787	0.039054	4.437359	1.425267	-0.802734	0.358154	-0.068604
1147.0	9.921647	-8.504463	5.572427	0.106353	4.117885	1.622084	-0.770752	0.37793	-0.103271
1148.0	10.133676	-9.433419	5.138394	0.403373	3.7171	1.807981	-0.734619	0.397949	-0.129395
1149.0	11.15867	-9.385833	5.492018	0.757554	3.34048	2.029892	-0.69165	0.411133	-0.151123
1150.0	13.023492	-8.275881	6.463932	0.954649	3.056346	2.334167	-0.666016	0.422363	-0.168457
1151.0	14.44289	-7.920054	6.531001	0.916833	2.84622	2.695087	-0.634033	0.439697	-0.179199
1152.0	14.389717	-9.428816	5.291047	0.94365	2.583908	2.995418	-0.600098	0.459473	-0.198975
1153.0	14.468694	-11.035411	3.861572	1.286107	2.2148	3.199471	-0.559326	0.477295	-0.227051
1154.0	16.129327	-11.361558	3.588091	1.833489	1.85342	3.376626	-0.535645	0.481934	-0.248779
1155.0	18.275488	-11.002939	3.714757	2.267928	1.691757	3.653103	-0.485596	0.482422	-0.263916
1156.0	19.372706	-11.401005	3.248808	2.634251	1.647923	4.008988	-0.442139	0.480713	-0.283203
1157.0	19.849844	-12.515713	1.804878	3.12342	1.605459	4.426548	-0.404541	0.466064	-0.296143
1158.0	19.92385	-13.477796	-0.425921	3.899611	1.480727	4.829691	-0.362793	0.455566	-0.309082
1159.0	20.800794	-12.655234	-2.218839	4.759329	1.356245	5.185242	-0.331543	0.432129	-0.31958
1160.0	21.997877	-8.937443	-2.087001	5.162591	1.319543	5.500954	-0.30249	0.413086	-0.33252
1161.0	21.453165	-4.170334	-1.000868	4.671591	1.33682	5.800336	-0.278076	0.398193	-0.338867
1162.0	18.795602	0.024376	-0.357779	3.365974	1.162401	6.166022	-0.262451	0.394043	-0.33667
1163.0	16.449907	0.023163	-0.99104	1.846031	0.700252	6.620031	-0.243164	0.398438	-0.338867
1164.0	15.950146	-3.873568	-2.286069	0.980199	0.094605	6.94302	-0.228027	0.404785	-0.334473
1165.0	19.495722	-7.59939	-2.165212	1.091484	-0.313817	6.974139	-0.213135	0.411377	-0.334473
1166.0	22.271905	-7.87607	-1.437673	1.872801	-0.01745	6.846653	-0.202393	0.417725	-0.334473
1167.0	17.981455	-3.48862	-1.525091	2.65457	0.34758	6.618874	-0.182617	0.411621	-0.345215
1168.0	13.597618	3.074972	-1.642716	2.526176	0.099555	6.27207	-0.172119	0.417969	-0.345215
1169.0	12.329523	3.274018	-1.986145	1.644638	-0.514747	5.75976	-0.163086	0.413818	-0.343018
1170.0	15.932294	2.046316	-5.047704	0.294734	-1.452478	5.318082	-0.159424	0.430908	-0.33667
1171.0	19.593355	-5.520125	-7.031173	0.394122	-2.319788	4.6306	-0.159424	0.428711	-0.334473
1172.0	21.708422	1.425321	-6.260812	0.29758	-2.972444	3.899646	-0.168213	0.432861	-0.330078
1173.0	-5.284953	12.885342	1.4583	0.061338	-5.519413	3.401276	-0.196777	0.441162	-0.310791
1174.0	32.252063	0.412917	23.452666	-0.301459	-6.805082	1.345111	-0.225342	0.445068	-0.295654
1175.0	22.860078	15.119982	20.764905	-0.512171	-2.923389	0.110919	-0.234131	0.449219	-0.284912
1176.0	12.3979	5.326684	11.439715	-1.537071	-2.188621	-0.854055	-0.245117	0.455566	-0.276367
1177.0	11.207848	-2.364488	12.573912	-1.477	-1.470905	-0.943133	-0.260498	0.45752	-0.265381
1178.0	5.153428	-8.665908	5.387279	-1.513655	-1.503044	-0.272577	-0.269287	0.46167	-0.259033
1179.0	2.964955	-7.278329	5.022203	-0.979139	-2.032649	0.20375	-0.269287	0.463623	-0.243896
1180.0	22.911331	-5.42231	17.53205	-0.52288	-1.640116	0.378487	-0.276123	0.46582	-0.241699
1181.0	-0.468713	5.54653	6.414829	-1.003325	-0.446394	0.259559	-0.278564	0.474121	-0.233154
1182.0	8.979949	-7.13022	7.53547	-0.701407	-0.856736	0.43952	-0.283203	0.482666	-0.226563
1183.0	6.453873	-3.095947	8.130054	-0.504196	-0.845833	0.307865	-0.289795	0.484863	-0.224365
1184.0	5.760884	-4.507263	7.407226	-0.418516	-0.715883	0.205724	-0.291992	0.484863	-0.226563
1185.0	5.968121	-4.347143	7.492007	-0.187838	-0.660538	0.058363	-0.289795	0.484863	-0.222412
1186.0	6.087949	-3.763994	7.524743	-0.054646	-0.628531	0.00533	-0.292236	0.489014	-0.224365
1187.0	6.346301	-2.326455	7.74357	0.113708	-0.706772	0.073868	-0.300537	0.480225	-0.209229
1188.0	6.374245	-1.042112	8.182401	0.305773	-0.765419	0.248105	-0.29834	0.480225	-0.213623
1189.0	6.172436	-0.529484	8.408693	0.704673	-0.811768	0.543764	-0.300537	0.480225	-0.21582
1190.0	6.294956	-1.433878	8.917641	1.086646	-0.983531	0.963892	-0.29834	0.480469	-0.218018
1191.0	5.902138	-2.404407	8.494013	2.321525	-1.28641	1.861038	-0.293945	0.478271	-0.222168
1192.0	6.583114	4.73756	10.368622	3.552403	-1.523102	2.94696	-0.295898	0.471924	-0.22876
1193.0	6.552411	2.125782	9.652896	3.381356	-1.845922	3.786149	-0.289307	0.469971	-0.233154
1194.0	5.115264	1.9951	10.620329	4.27389	-1.994469	4.419788	-0.284668	0.463623	-0.239502
1195.0	5.076313	0.118778	9.557711	4.046878	-2.242372	4.908832	-0.280029	0.457275	-0.252441
1196.0	5.062498	-0.125458	9.262982	4.603335	-2.392348	5.295117	-0.273193	0.450928	-0.254639
1197.0	5.219459	1.140484	9.114333	4.801128	-2.554078	5.685477	-0.264648	0.453125	-0.260986
1198.0	5.301795	-0.287037	8.462673	4.849743	-2.624119	5.86941	-0.262207	0.442383	-0.265381
1199.0	5.4712	-2.070719	7.589299	4.696632	-2.618975	5.849387	-0.259766	0.438232	-0.271973
1200.0	5.578355	-2.804228	7.388864	4.668236	-2.507268	5.66358	-0.255371	0.434082	-0.276123
1201.0	5.892933	-3.090994	6.939135	4.45434	-2.35185	5.437961	-0.252686	0.42334	-0.282715
1202.0	5.916045	-3.618574	6.71647	4.308329	-2.142074	5.178089	-0.248047	0.416992	-0.286865
1203.0	6.015146	-3.286304	6.689895	4.112375	-1.925289	4.929318	-0.243652	0.412842	-0.293457
1204.0	6.11655	-3.385182	6.779967	3.916676	-1.717964	4.698389	-0.241211	0.406494	-0.304199
1205.0	5.892287	-3.829229	6.711016	3.69794	-1.494113	4.422019	-0.23877	0.397949	-0.30835
1206.0	5.656762	-3.781033	7.269801	3.418205	-1.294323	4.110945	-0.234131	0.391357	-0.304199
1207.0	5.791484	-3.516839	7.201213	3.104215	-1.126492	3.811031	-0.225098	0.38501	-0.30835
1208.0	6.04604	-2.786129	7.314014	2.827526	-1.000614	3.605401	-0.225098	0.380859	-0.319092
1209.0	5.757753	-4.441371	7.136132	2.67936	-0.931508	3.442873	-0.218262	0.372314	-0.323486
1210.0	5.991496	-3.162041	7.583652	2.632688	-0.855189	3.256005	-0.218262	0.372314	-0.323486
1211.0	5.632091	-3.606737	7.50695	2.260064	-0.733553	3.019035	-0.219971	0.365967	-0.327881
1212.0	5.779675	-4.905315	6.823835	1.862579	-0.52605	2.661116	-0.211182	0.361816	-0.332031
1213.0	6.462955	-4.697632	6.425789	1.664799	-0.226429	2.286347	-0.211182	0.357422	-0.334229
1214.0	6.444848	-4.554908	6.032513	1.450788	0.112615	1.982271	-0.202148	0.353271	-0.338623
1215.0	6.016922	-5.20405	6.005732	1.021003	0.48079	1.592526	-0.197998	0.359619	-0.334229
1216.0	4.860809	-5.3532	6.740811	0.535077	0.885588	1.012716	-0.186768	0.351318	-0.338379
1217.0	3.529338	-9.175348	7.974396	-0.031513	1.231403	0.284263	-0.184814	0.355713	-0.349365
1218.0	4.469456	-5.263275	9.612631	0.318172	1.198387	-0.101522	-0.185059	0.35791	-0.349365
1219.0	5.086401	-2.650685	9.740126	0.303868	0.896181	-0.074897	-0.17627	0.355713	-0.35376
1220.0	4.880556	-3.094644	8.935266	0.349129	0.649827	-0.106255	-0.169434	0.351563	-0.351563
1221.0	5.119498	-0.203487	9.586803	0.206363	0.388008	-0.081125	-0.169189	0.343018	-0.353516
1222.0	5.430413	-1.243605	8.4693	-0.00063	0.162855	0.008476	-0.169189	0.344971	-0.355713
1223.0	4.942647	-1.407601	8.415401	-0.063215	0.031978	0.040464	-0.169434	0.347168	-0.353516
1224.0	5.137235	-2.133509	7.97433	-0.110209	-0.067928	0.017614	-0.171875	0.35376	-0.35376
1225.0	5.632773	-3.179213	7.454955	-0.082238	-0.092924	-0.003794	-0.171631	0.349365	-0.351563
1226.0	6.111368	-2.904037	7.233493	-0.017675	-0.044044	-0.014095	-0.174072	0.355713	-0.351563
1227.0	5.878753	-2.893063	7.358731	0.017577	-0.013871	-0.015811	-0.173584	0.344971	-0.349365
1228.0	5.489539	-3.352689	7.375809	0.079075	-0.009188	-0.066853	-0.169434	0.347168	-0.349365
1229.0	5.436073	-2.925522	7.493161	0.151766	-0.016715	-0.129411	-0.173828	0.349365	-0.353516
1230.0	5.499924	-2.845085	7.437923	0.204742	-0.048573	-0.177166	-0.171387	0.342773	-0.347168
1231.0	5.486242	-2.417683	7.795432	0.246034	-0.097559	-0.210938	-0.169189	0.344971	-0.355713
1232.0	5.590438	-2.243927	7.899361	0.237314	-0.171445	-0.230464	-0.171143	0.338623	-0.353516
1233.0	5.573538	-2.993109	7.665773	0.272622	-0.230614	-0.254682	-0.17334	0.338623	-0.351318
1234.0	5.569099	-3.580668	7.673116	0.346797	-0.277146	-0.314886	-0.177734	0.338623	-0.353516
1235.0	5.719371	-4.269128	7.156033	0.501111	-0.306373	-0.371168	-0.184082	0.332031	-0.353516
1236.0	6.210008	-1.224458	8.639844	0.692933	-0.354867	-0.336946	-0.186035	0.329834	-0.353516
1237.0	5.748598	-2.60753	8.277057	0.650772	-0.442661	-0.286758	-0.19458	0.325684	-0.360107
1238.0	5.684786	-3.001657	8.416741	0.66351	-0.542119	-0.262872	-0.19458	0.323486	-0.353516
1239.0	5.595769	-4.048624	8.449303	0.834726	-0.656976	-0.323328	-0.200684	0.312744	-0.353516
1240.0	5.555223	-3.046929	9.090965	0.721414	-0.829859	-0.435355	-0.202637	0.30835	-0.35791
1241.0	5.681614	-3.064883	9.360655	0.472574	-1.039162	-0.54342	-0.20459	0.303955	-0.351318
1242.0	5.469931	-2.09378	9.823702	0.626005	-1.284552	-0.597242	-0.215576	0.301758	-0.351318
1243.0	5.574402	-1.99139	9.88433	0.352705	-1.677735	-0.565692	-0.226318	0.299561	-0.346924
1244.0	5.184264	-1.231593	10.555096	0.344586	-2.079295	-0.580601	-0.243164	0.288574	-0.342529
1245.0	4.221191	-1.704733	11.140645	0.170109	-2.635992	-0.556174	-0.25415	0.288574	-0.336182
1246.0	3.668927	-2.016913	11.423686	0.102645	-3.298041	-0.642997	-0.273438	0.283936	-0.327393
1247.0	2.761928	-4.127112	11.331635	0.004911	-3.943703	-0.853245	-0.297607	0.288086	-0.314453
1248.0	2.58339	-5.104128	11.068619	0.053444	-4.603249	-1.256056	-0.321045	0.2771	-0.297119
1249.0	2.777578	-6.608241	10.667481	0.126822	-5.184605	-1.800962	-0.353516	0.272217	-0.275635
1250.0	4.203792	-7.812452	10.004827	0.242973	-5.636665	-2.433055	-0.381104	0.256836	-0.260254
1251.0	6.832068	-11.437909	8.573746	0.69878	-5.893289	-3.19335	-0.413086	0.239258	-0.236328
1252.0	11.584514	-9.179649	9.244907	2.030509	-6.031362	-3.755321	-0.442383	0.210938	-0.2146
1253.0	17.871461	-3.288285	13.78181	2.863213	-5.89705	-3.7308	-0.469482	0.18042	-0.190674
1254.0	23.432152	-4.514111	16.312159	2.685849	-4.889477	-3.501775	-0.48999	0.151855	-0.168945
1255.0	19.574301	-13.467653	14.235666	2.969114	-4.139899	-3.466857	-0.506348	0.123779	-0.155762
1256.0	9.249449	-19.088736	19.758696	4.157382	-2.676162	-1.910959	-0.51416	0.097656	-0.140625
1257.0	4.938209	-13.434601	22.015601	4.005762	-1.708874	-0.159355	-0.522217	0.084717	-0.138428
1258.0	-0.601587	-13.531375	17.657969	2.909789	-1.409448	1.088667	-0.530518	0.075928	-0.134033
1259.0	-1.412465	-12.945691	15.270027	2.889211	-1.109623	1.647047	-0.539307	0.078125	-0.134033
1260.0	-1.001903	-10.016279	15.598116	2.980326	-0.66332	1.862017	-0.545898	0.078125	-0.131836
1261.0	-1.384566	-7.944557	15.569735	2.90321	-0.114914	1.879652	-0.561035	0.075928	-0.138428
1262.0	-1.324595	-6.570552	15.596777	2.771029	0.450688	1.756009	-0.56543	0.075928	-0.142578
1263.0	-0.520822	-5.794732	15.704137	2.562483	1.075593	1.536999	-0.570068	0.078369	-0.157959
1264.0	0.47757	-5.495782	15.483632	2.322282	1.769854	1.291473	-0.572021	0.074219	-0.170898
1265.0	1.257798	-5.906342	14.881544	2.075735	2.472028	1.018507	-0.563477	0.074707	-0.207764
1266.0	2.267488	-6.647163	13.909941	1.842161	3.129995	0.753814	-0.552734	0.077393	-0.23584
1267.0	3.161895	-7.641754	12.632553	1.652914	3.731486	0.537785	-0.535156	0.073486	-0.261719
1268.0	4.350349	-8.083669	11.644663	1.458355	4.219554	0.440905	-0.509277	0.078369	-0.300781
1269.0	5.45932	-8.284348	10.638316	1.195186	4.608137	0.483302	-0.489746	0.074707	-0.337646
1270.0	6.136851	-8.574113	9.532243	0.905681	4.85123	0.680546	-0.45752	0.08374	-0.36792
1271.0	6.59469	-8.68454	8.679019	0.635724	4.967568	0.986829	-0.425049	0.090576	-0.387451
1272.0	7.148948	-8.528744	8.420416	0.365778	4.983914	1.369621	-0.388672	0.104248	-0.417725
1273.0	7.86503	-8.190389	8.518318	0.072006	4.928023	1.774544	-0.36084	0.115234	-0.443848
1274.0	8.956727	-7.610845	8.76361	-0.293297	4.862027	2.097126	-0.317871	0.130859	-0.471924
1275.0	10.096532	-7.094303	8.8698	-0.719387	4.835059	2.308831	-0.279785	0.155029	-0.49585
1276.0	11.19618	-6.960927	8.839178	-1.149381	4.835583	2.438016	-0.230713	0.183594	-0.515381
1277.0	12.001772	-7.850191	8.549623	-1.451663	4.859272	2.473614	-0.179688	0.214111	-0.532959
1278.0	12.182489	-8.876316	8.346158	-1.463539	4.869907	2.480233	-0.126465	0.242188	-0.535156
1279.0	12.386715	-8.264259	8.735915	-1.270219	4.821334	2.556441	-0.072754	0.257568	-0.535156
1280.0	12.822902	-6.945847	9.176769	-1.20959	4.725705	2.686452	-0.014648	0.2771	-0.52417
1281.0	13.020448	-6.079436	9.502118	-1.310892	4.56929	2.825391	0.02832	0.294189	-0.502441
1282.0	13.350394	-5.901915	9.485918	-1.408536	4.343088	2.922872	0.077881	0.306885	-0.487305
1283.0	14.115303	-5.933248	9.349353	-1.370431	4.074283	2.994364	0.108154	0.31543	-0.469971
1284.0	15.85433	-5.664934	9.154324	-1.205706	3.832831	3.015038	0.133789	0.326172	-0.452637
1285.0	18.546415	-0.687095	8.934376	-1.020347	3.688183	3.119645	0.14502	0.321533	-0.435303
1286.0	20.417971	5.229828	9.272014	-1.597049	3.518639	3.587107	0.161621	0.34082	-0.426758
1287.0	23.568922	4.978271	7.060998	-2.303824	3.321205	3.675603	0.169922	0.351563	-0.415771
1288.0	26.621126	2.976836	3.802438	-2.33694	3.258348	3.369254	0.18457	0.364502	-0.420166
1289.0	27.47904	-0.669029	-0.626572	-1.221761	3.282937	2.702713	0.192871	0.375488	-0.426758
1290.0	26.897486	-0.027959	-4.639551	0.525197	3.168563	1.812104	0.204346	0.364746	-0.4375
1291.0	25.780234	4.709469	-8.159011	1.75183	2.624817	1.003912	0.206543	0.358398	-0.444092
1292.0	25.278762	9.602348	-10.850912	1.749092	1.553021	0.51186	0.208984	0.352295	-0.463623
1293.0	27.175642	10.196509	-12.165252	0.874524	0.151997	0.247994	0.193848	0.348145	-0.469971
1294.0	30.61508	8.447426	-11.614634	0.136239	-0.947774	0.216724	0.180664	0.352539	-0.485107
1295.0	30.915968	5.830797	-10.042139	0.209578	-1.614321	0.261538	0.154785	0.345947	-0.487305
1296.0	23.489903	0.410769	-8.503809	0.926677	-2.139396	0.231826	0.131592	0.328857	-0.498291
1297.0	4.605013	5.888276	11.979192	1.959129	-2.836031	0.055652	0.10791	0.317871	-0.498291
1298.0	-28.175458	-7.415761	38.383147	2.936113	-2.822358	-0.968116	0.06958	0.296631	-0.515381
1299.0	-3.755986	2.644986	0.532405	2.437711	-5.170219	-3.64095	0.000488	0.281494	-0.526367
1300.0	32.542018	25.66766	1.828697	1.221167	-7.061826	-2.820124	-0.05835	0.283203	-0.52002
1301.0	36.336893	0.817796	22.007045	-0.985584	-4.949945	-1.427545	-0.108398	0.285156	-0.515625
1302.0	15.640342	-2.140638	13.917613	-0.632308	-2.877371	-1.708414	-0.128174	0.284912	-0.513672
1303.0	6.356237	-3.322502	5.411886	-0.706892	-2.903606	-1.021668	-0.156738	0.29126	-0.50708
1304.0	6.180776	-1.731072	9.801934	-0.74858	-3.182401	-0.475131	-0.185059	0.29541	-0.498535
1305.0	9.522361	0.613369	10.25291	-0.859603	-2.992184	-0.583902	-0.213379	0.297119	-0.487793
1306.0	30.540171	-19.101975	14.890566	0.385809	-1.797819	-0.571561	-0.224121	0.292969	-0.485596
1307.0	4.183158	-2.548447	4.25304	0.737734	-0.401556	-0.438795	-0.232666	0.288574	-0.494385
1308.0	11.355028	4.874535	11.321413	0.332545	-0.378583	-0.281844	-0.226074	0.284424	-0.48999
1309.0	6.143517	-1.664476	8.238039	-0.077813	-0.177305	-0.074667	-0.239014	0.282227	-0.494385
1310.0	6.892881	-1.956327	8.045777	-0.085608	-0.232942	0.059127	-0.243652	0.290771	-0.48999
1311.0	6.544863	-1.948607	8.037014	-0.165869	-0.157743	0.104846	-0.237061	0.290771	-0.487793
1312.0	6.237963	-1.995706	8.33032	-0.164603	-0.137084	0.163207	-0.241455	0.288574	-0.485596
1313.0	5.782615	-1.558648	8.323641	-0.202843	-0.120221	0.215241	-0.243652	0.290527	-0.483398
1314.0	5.539457	-2.11074	8.084177	-0.226255	-0.122671	0.242615	-0.235107	0.292969	-0.492188
1315.0	5.407376	-2.261302	8.023653	-0.22354	-0.122439	0.252958	-0.237549	0.299316	-0.485596
1316.0	5.566413	-2.502133	7.755006	-0.220403	-0.114713	0.249443	-0.241943	0.305664	-0.483643
