Acquisition frequency: 100 Hz
PacketCounter	Acc_X	Acc_Y	Acc_Z	Gyr_X	Gyr_Y	Gyr_Z	Mag_X	Mag_Y	Mag_Z
1.0	4.608201	2.434282	8.603627	-0.009317	0.008025	-0.016388	-0.52002	-0.057129	-0.510254
2.0	4.607146	2.434362	8.60417	-0.007822	0.00646	-0.01909	-0.526611	-0.052734	-0.514893
3.0	4.606557	2.418063	8.574324	-0.006016	0.005504	-0.018333	-0.530762	-0.059326	-0.508057
4.0	4.620748	2.417534	8.555729	-0.008781	0.008001	-0.017922	-0.526611	-0.054932	-0.512695
5.0	4.59248	2.436804	8.565059	-0.010274	0.005956	-0.016423	-0.52417	-0.059326	-0.51709
6.0	4.633552	2.433496	8.567991	-0.005057	0.007579	-0.018303	-0.533203	-0.054932	-0.512695
7.0	4.617597	2.418019	8.557293	-0.007709	0.007952	-0.020989	-0.530762	-0.059326	-0.51709
8.0	4.607213	2.471189	8.548427	-0.008356	0.00649	-0.017563	-0.528809	-0.057129	-0.51709
9.0	4.603426	2.436819	8.548062	-0.010161	0.007446	-0.018322	-0.522217	-0.054932	-0.514893
10.0	4.598678	2.435517	8.608372	-0.008359	0.010102	-0.016363	-0.524414	-0.057129	-0.512695
11.0	4.588647	2.471997	8.569276	-0.008354	0.006492	-0.017565	-0.524414	-0.054932	-0.514893
12.0	4.614869	2.452808	8.561052	-0.007089	0.009172	-0.014074	-0.528564	-0.059326	-0.512695
13.0	4.610519	2.434765	8.591121	-0.013463	0.009967	-0.016382	-0.528809	-0.057129	-0.510254
14.0	4.609048	2.434544	8.591973	-0.008789	0.01523	-0.015526	-0.528809	-0.057129	-0.512695
15.0	4.607967	2.417948	8.562502	-0.010164	0.011062	-0.017125	-0.522217	-0.057129	-0.51709
16.0	4.621382	2.433712	8.5745	-0.009319	0.011645	-0.015198	-0.528809	-0.052734	-0.510498
17.0	4.58992	2.418483	8.583123	-0.009207	0.013136	-0.017094	-0.522217	-0.057129	-0.512695
18.0	4.603216	2.434335	8.595158	-0.007937	0.012205	-0.014804	-0.524658	-0.052734	-0.508057
19.0	4.586868	2.418581	8.584726	-0.008558	0.014605	-0.020523	-0.524658	-0.052734	-0.512695
20.0	4.612473	2.39947	8.576852	-0.010475	0.014071	-0.019389	-0.528809	-0.057129	-0.514893
21.0	4.625313	2.431748	8.619222	-0.009429	0.010158	-0.013308	-0.526611	-0.057129	-0.508057
22.0	4.582334	2.418529	8.587162	-0.008668	0.013118	-0.018631	-0.528809	-0.052734	-0.512695
23.0	4.592838	2.400084	8.598275	-0.007825	0.013701	-0.016703	-0.521973	-0.061523	-0.510254
24.0	4.58236	2.436583	8.55944	-0.010047	0.012561	-0.019031	-0.528809	-0.057129	-0.512695
25.0	4.579795	2.469606	8.620904	-0.010047	0.012562	-0.019032	-0.524414	-0.057129	-0.514893
26.0	4.606145	2.433825	8.582663	-0.011964	0.012026	-0.017898	-0.528809	-0.054932	-0.510498
27.0	4.577955	2.436422	8.561843	-0.009194	0.009535	-0.018308	-0.524658	-0.052734	-0.505859
28.0	4.588789	2.417941	8.572798	-0.010035	0.008955	-0.020238	-0.526611	-0.054932	-0.512695
29.0	4.614243	2.415426	8.595065	-0.00686	0.012171	-0.017877	-0.526367	-0.059326	-0.514893
30.0	4.573975	2.436728	8.563883	-0.011414	0.008397	-0.020639	-0.526611	-0.057129	-0.51709
31.0	4.626387	2.431369	8.607715	-0.010572	0.008979	-0.018709	-0.531006	-0.054932	-0.514893
32.0	4.568312	2.418638	8.594599	-0.011537	0.010516	-0.017541	-0.52417	-0.061523	-0.512451
33.0	4.6123	2.433138	8.568533	-0.011109	0.009002	-0.017179	-0.522217	-0.057129	-0.510254
34.0	4.565934	2.418297	8.595958	-0.010682	0.007489	-0.016817	-0.528809	-0.054932	-0.517334
35.0	4.610129	2.432848	8.569784	-0.010682	0.00749	-0.016818	-0.526367	-0.059326	-0.519531
36.0	4.605703	2.414952	8.599778	-0.006859	0.012179	-0.017881	-0.524414	-0.054932	-0.519531
37.0	4.592321	2.433518	8.590155	-0.00984	0.008072	-0.014889	-0.524658	-0.052734	-0.510498
38.0	4.617808	2.430851	8.612466	-0.008665	0.013135	-0.018644	-0.526611	-0.054932	-0.517334
39.0	4.577477	2.452052	8.581319	-0.010568	0.008987	-0.018717	-0.526611	-0.054932	-0.512695
40.0	4.559007	2.401687	8.569651	-0.009728	0.009568	-0.016787	-0.526611	-0.057129	-0.512695
41.0	4.590298	2.451363	8.56364	-0.009727	0.009569	-0.016788	-0.522217	-0.054932	-0.512695
42.0	4.585171	2.449709	8.624068	-0.011122	0.012619	-0.015982	-0.528809	-0.057129	-0.512695
43.0	4.569859	2.416961	8.583179	-0.015781	0.007348	-0.016855	-0.52417	-0.059326	-0.512695
44.0	4.583307	2.432342	8.5953	-0.013039	0.01208	-0.014851	-0.531006	-0.054932	-0.512695
45.0	4.597304	2.431494	8.577055	-0.011104	0.009013	-0.017191	-0.528564	-0.059326	-0.514893
46.0	4.566193	2.416094	8.585374	-0.008758	0.00804	-0.017961	-0.524414	-0.057129	-0.512695
47.0	4.609604	2.447413	8.589648	-0.009185	0.009556	-0.018325	-0.524658	-0.052734	-0.510498
48.0	4.579033	2.41566	8.567635	-0.008346	0.010137	-0.016393	-0.528809	-0.054932	-0.512695
49.0	4.577078	2.432241	8.598648	-0.007266	0.0101	-0.019459	-0.529053	-0.050537	-0.515137
50.0	4.618525	2.412845	8.571544	-0.010022	0.008979	-0.020261	-0.526611	-0.057129	-0.51709
51.0	4.607677	2.465849	8.562954	-0.007917	0.008624	-0.016033	-0.522217	-0.054932	-0.514893
52.0	4.588714	2.432112	8.581478	-0.005999	0.009168	-0.017166	-0.526855	-0.050537	-0.512695
53.0	4.58748	2.432283	8.58209	-0.010021	0.008981	-0.020264	-0.522217	-0.054932	-0.510498
54.0	4.628304	2.42923	8.585378	-0.008345	0.010141	-0.016398	-0.526611	-0.052734	-0.505859
55.0	4.584927	2.43243	8.583412	-0.007805	0.010124	-0.017932	-0.526367	-0.061523	-0.514893
56.0	4.598934	2.432077	8.565062	-0.006967	0.010704	-0.015999	-0.533203	-0.052734	-0.505859
57.0	4.582315	2.432726	8.584723	-0.008641	0.009546	-0.019867	-0.528809	-0.054932	-0.508057
58.0	4.59633	2.432406	8.566367	-0.008641	0.009547	-0.019868	-0.529053	-0.050537	-0.519531
59.0	4.576536	2.414848	8.615364	-0.009855	0.011694	-0.0137	-0.526611	-0.057129	-0.510254
60.0	4.605809	2.413792	8.578117	-0.00961	0.011082	-0.018701	-0.526611	-0.052734	-0.512695
61.0	4.589702	2.398006	8.567512	-0.00812	0.013143	-0.020196	-0.52417	-0.059326	-0.514893
62.0	4.560768	2.417119	8.576961	-0.009179	0.009568	-0.01834	-0.524414	-0.057129	-0.514893
63.0	4.601629	2.414247	8.580232	-0.006831	0.0086	-0.019109	-0.526611	-0.057129	-0.512695
64.0	4.572905	2.433557	8.589504	-0.006289	0.008584	-0.020643	-0.526611	-0.052734	-0.514893
65.0	4.571581	2.433774	8.590147	-0.009608	0.011086	-0.018706	-0.526367	-0.059326	-0.514893
66.0	4.584662	2.449775	8.602314	-0.008661	0.013164	-0.018668	-0.533203	-0.054932	-0.512695
67.0	4.584033	2.433376	8.572678	-0.011931	0.008447	-0.01915	-0.522217	-0.057129	-0.508057
68.0	4.58291	2.433224	8.573321	-0.00983	0.008089	-0.014917	-0.526611	-0.057129	-0.512695
69.0	4.596419	2.448999	8.585331	-0.00983	0.00809	-0.014918	-0.522217	-0.057129	-0.51709
70.0	4.605035	2.396139	8.595104	-0.007258	0.010123	-0.019478	-0.526611	-0.057129	-0.51709
71.0	4.60612	2.430681	8.59689	-0.010552	0.009013	-0.018751	-0.522461	-0.052734	-0.512695
72.0	4.575057	2.415124	8.6051	-0.009287	0.008077	-0.016454	-0.526367	-0.059326	-0.512695
73.0	4.576938	2.433232	8.576509	-0.00823	0.011656	-0.01831	-0.526367	-0.059326	-0.514893
74.0	4.590912	2.432957	8.558222	-0.007798	0.010142	-0.017948	-0.524414	-0.054932	-0.514893
75.0	4.577424	2.451548	8.54861	-0.009174	0.00958	-0.018352	-0.528564	-0.059326	-0.505859
76.0	4.599817	2.430985	8.600178	-0.007075	0.00922	-0.014118	-0.526611	-0.057129	-0.519531
77.0	4.571014	2.450027	8.609503	-0.007255	0.01013	-0.019483	-0.526611	-0.057129	-0.514893
78.0	4.615792	2.448927	8.553237	-0.009716	0.009596	-0.016822	-0.526611	-0.054932	-0.508057
79.0	4.596052	2.431184	8.602134	-0.009715	0.009597	-0.016823	-0.524414	-0.054932	-0.512695
80.0	4.568081	2.433647	8.581112	-0.009715	0.009598	-0.016824	-0.524658	-0.052734	-0.517334
81.0	4.608913	2.430554	8.584569	-0.012065	0.010564	-0.016059	-0.528564	-0.059326	-0.512695
82.0	4.577646	2.414725	8.592917	-0.01112	0.012644	-0.016018	-0.526611	-0.052734	-0.512695
83.0	4.578708	2.449091	8.594764	-0.008307	0.006556	-0.017634	-0.524658	-0.052734	-0.512695
84.0	4.605165	2.430326	8.586645	-0.010003	0.009011	-0.020298	-0.526855	-0.050537	-0.512695
85.0	4.577306	2.432918	8.565518	-0.007474	0.007135	-0.015698	-0.524414	-0.054932	-0.512695
86.0	4.599807	2.412427	8.617001	-0.007363	0.008638	-0.017595	-0.524414	-0.054932	-0.514893
87.0	4.60182	2.430603	8.58836	-0.009281	0.008087	-0.016467	-0.52002	-0.057129	-0.510254
88.0	4.585332	2.430978	8.607912	-0.008737	0.008076	-0.018001	-0.526611	-0.054932	-0.517334
89.0	4.572891	2.433094	8.567826	-0.010656	0.007525	-0.016873	-0.526367	-0.059326	-0.510254
90.0	4.570943	2.449265	8.598847	-0.010655	0.007525	-0.016874	-0.53125	-0.050537	-0.508301
91.0	4.582847	2.414207	8.579424	-0.013871	0.011521	-0.016835	-0.528809	-0.057129	-0.51709
92.0	4.581622	2.413918	8.58016	-0.009823	0.008104	-0.014938	-0.524658	-0.052734	-0.512695
93.0	4.568463	2.432244	8.570429	-0.008957	0.005073	-0.014213	-0.524658	-0.052734	-0.512695
94.0	4.593437	2.445871	8.623074	-0.010765	0.006025	-0.014982	-0.522217	-0.054932	-0.510498
95.0	4.607847	2.445346	8.604698	-0.009823	0.008106	-0.01494	-0.528809	-0.054932	-0.505859
96.0	4.577052	2.429617	8.612701	-0.008412	0.005063	-0.015748	-0.526611	-0.057129	-0.519531
97.0	4.575378	2.445913	8.643525	-0.007979	0.003548	-0.015386	-0.526367	-0.059326	-0.514893
98.0	4.565127	2.415397	8.54243	-0.010764	0.006027	-0.014985	-0.530762	-0.059326	-0.510254
99.0	4.604531	2.445224	8.606507	-0.004685	0.004668	-0.016109	-0.520264	-0.052734	-0.510498
100.0	4.574871	2.413282	8.58394	-0.011705	0.003946	-0.015029	-0.528564	-0.059326	-0.512695
101.0	4.577327	2.431457	8.555095	-0.004252	0.003154	-0.015747	-0.526611	-0.054932	-0.508057
102.0	4.601237	2.394795	8.575855	-0.00617	0.0026	-0.014621	-0.522217	-0.054932	-0.510498
103.0	4.576033	2.431728	8.55571	-0.009786	0.004502	-0.016158	-0.526611	-0.054932	-0.512695
104.0	4.6133	2.426919	8.618585	-0.01033	0.004513	-0.014626	-0.524414	-0.057129	-0.510254
105.0	4.601223	2.428946	8.578351	-0.009785	0.004503	-0.01616	-0.528564	-0.059326	-0.51709
106.0	4.585099	2.429191	8.597698	-0.007977	0.003553	-0.015392	-0.526611	-0.054932	-0.510498
107.0	4.569865	2.413145	8.586645	-0.009389	0.006596	-0.014583	-0.526611	-0.054932	-0.512695
108.0	4.584484	2.412762	8.568145	-0.00935	0.002989	-0.0158	-0.532959	-0.057129	-0.514893
109.0	4.595017	2.410473	8.609275	-0.010218	0.006022	-0.016525	-0.526611	-0.057129	-0.512695
110.0	4.611799	2.444488	8.592044	-0.009894	0.003	-0.014267	-0.528809	-0.054932	-0.510498
111.0	4.58226	2.412354	8.56945	-0.008954	0.005082	-0.014223	-0.528809	-0.057129	-0.510254
112.0	4.595882	2.428288	8.581399	-0.008409	0.005073	-0.015758	-0.528809	-0.052734	-0.517334
113.0	4.57968	2.428484	8.600785	-0.008954	0.005083	-0.014225	-0.528809	-0.057129	-0.510254
114.0	4.622096	2.409554	8.573501	-0.006166	0.002608	-0.014627	-0.524414	-0.054932	-0.514893
115.0	4.578173	2.428711	8.601523	-0.005552	0.007714	-0.016841	-0.524658	-0.052734	-0.514893
116.0	4.59379	2.412358	8.552513	-0.00974	0.000903	-0.017384	-0.524414	-0.057129	-0.510254
117.0	4.579884	2.447078	8.573046	-0.0066	0.004126	-0.014991	-0.52417	-0.059326	-0.510254
118.0	4.58829	2.410544	8.612842	-0.007035	0.005643	-0.015354	-0.524658	-0.052734	-0.514893
119.0	4.605006	2.444871	8.595577	-0.007428	0.003553	-0.016934	-0.530762	-0.059326	-0.51709
120.0	4.589871	2.42905	8.5844	-0.005226	0.004694	-0.014585	-0.526611	-0.052734	-0.512695
121.0	4.601531	2.410747	8.594942	-0.007537	0.002046	-0.015039	-0.526611	-0.054932	-0.512695
122.0	4.604072	2.429066	8.566044	-0.006992	0.002038	-0.016573	-0.522217	-0.054932	-0.517334
123.0	4.588021	2.429198	8.585348	-0.010871	0.004528	-0.013104	-0.526611	-0.057129	-0.512695
124.0	4.602787	2.428883	8.566787	-0.005336	0.003188	-0.012691	-0.526611	-0.054932	-0.512695
125.0	4.586587	2.429196	8.586114	-0.007471	0.007163	-0.015719	-0.528809	-0.057129	-0.510254
126.0	4.613531	2.410673	8.577798	-0.006163	0.002615	-0.014634	-0.528809	-0.054932	-0.512695
127.0	4.60053	2.429119	8.567932	-0.008953	0.005088	-0.014232	-0.521973	-0.059326	-0.514893
128.0	4.598619	2.445264	8.598884	-0.008843	0.006598	-0.016129	-0.526611	-0.057129	-0.512695
129.0	4.595753	2.410816	8.598013	-0.007143	0.00414	-0.013463	-0.524658	-0.052734	-0.514893
130.0	4.627925	2.444952	8.561821	-0.007424	0.00356	-0.01694	-0.531006	-0.054932	-0.514893
131.0	4.594306	2.410891	8.598765	-0.008125	0.005663	-0.012292	-0.526367	-0.059326	-0.512695
132.0	4.579198	2.394886	8.587618	-0.00825	0.002988	-0.018884	-0.528809	-0.057129	-0.514893
133.0	4.608192	2.410846	8.580619	-0.006207	0.006225	-0.013419	-0.52417	-0.063721	-0.514893
134.0	4.622913	2.410739	8.562047	-0.007532	0.002052	-0.015047	-0.524414	-0.054932	-0.508057
135.0	4.594369	2.429466	8.571139	-0.007751	0.00659	-0.019201	-0.521973	-0.059326	-0.510254
136.0	4.605749	2.411267	8.581812	-0.006487	0.005647	-0.016897	-0.524414	-0.057129	-0.514893
137.0	4.604844	2.411311	8.582285	-0.009388	0.006608	-0.0146	-0.521973	-0.059326	-0.505859
138.0	4.621216	2.44561	8.565256	-0.006535	0.009254	-0.015679	-0.531006	-0.054932	-0.512695
139.0	4.602791	2.411239	8.583407	-0.012131	0.005475	-0.01542	-0.530762	-0.061523	-0.512451
140.0	4.601904	2.411233	8.583884	-0.005114	0.006218	-0.016491	-0.526855	-0.050537	-0.517334
141.0	4.618246	2.445613	8.566857	-0.011087	0.00907	-0.01727	-0.526367	-0.059326	-0.512695
142.0	4.601913	2.445584	8.586312	-0.009883	0.003011	-0.01429	-0.526611	-0.054932	-0.514893
143.0	4.583764	2.411292	8.604277	-0.006485	0.005653	-0.016902	-0.526611	-0.057129	-0.514893
144.0	4.628054	2.427277	8.578425	-0.006485	0.005654	-0.016902	-0.529053	-0.050537	-0.510498
145.0	4.597446	2.411488	8.586201	-0.008402	0.005091	-0.015778	-0.524658	-0.052734	-0.512695
146.0	4.623291	2.409171	8.608418	-0.007031	0.00566	-0.015369	-0.526855	-0.050537	-0.519531
147.0	4.584406	2.413771	8.546449	-0.010649	0.007557	-0.016913	-0.524414	-0.057129	-0.512695
148.0	4.608973	2.427437	8.599293	-0.010211	0.006042	-0.016552	-0.526855	-0.050537	-0.512695
149.0	4.593747	2.411281	8.588239	-0.01021	0.006042	-0.016553	-0.528809	-0.054932	-0.514893
150.0	4.594677	2.445817	8.59012	-0.00555	0.007744	-0.016858	-0.526855	-0.050537	-0.517334
151.0	4.607215	2.411299	8.570347	-0.010757	0.006047	-0.01502	-0.526611	-0.052734	-0.514893
152.0	4.620542	2.427162	8.582506	-0.010648	0.007561	-0.016917	-0.528809	-0.054932	-0.512695
153.0	4.60526	2.410994	8.571483	-0.010209	0.006045	-0.016556	-0.526611	-0.057129	-0.514893
154.0	4.603168	2.427069	8.602506	-0.008838	0.006614	-0.016146	-0.526611	-0.057129	-0.519531
155.0	4.603354	2.41074	8.572579	-0.011741	0.007569	-0.01385	-0.522217	-0.057129	-0.51709
156.0	4.607138	2.463456	8.545505	-0.00725	0.010212	-0.019529	-0.526855	-0.04834	-0.508301
157.0	4.59807	2.392459	8.602871	-0.008945	0.005103	-0.014253	-0.528809	-0.054932	-0.514893
158.0	4.602099	2.445269	8.57564	-0.006919	0.007183	-0.017273	-0.532959	-0.059326	-0.510254
159.0	4.613565	2.426979	8.58631	-0.008397	0.005101	-0.015789	-0.526611	-0.054932	-0.508057
160.0	4.597254	2.427161	8.605642	-0.006479	0.005668	-0.016913	-0.526611	-0.054932	-0.514893
161.0	4.597651	2.411164	8.575519	-0.007957	0.003585	-0.015429	-0.526611	-0.057129	-0.51709
162.0	4.614155	2.445718	8.558417	-0.004285	0.006809	-0.014557	-0.531006	-0.052734	-0.510498
163.0	4.610277	2.427611	8.587898	-0.007409	0.003584	-0.016965	-0.524414	-0.057129	-0.514893
164.0	4.609558	2.427766	8.58824	-0.008231	0.003014	-0.018912	-0.533203	-0.052734	-0.512695
165.0	4.569762	2.448621	8.556577	-0.006586	0.004156	-0.01502	-0.524414	-0.054932	-0.514893
166.0	4.577281	2.427917	8.62675	-0.011244	0.002451	-0.01472	-0.528809	-0.054932	-0.510498
167.0	4.634223	2.425601	8.611081	-0.002858	0.003778	-0.015371	-0.526855	-0.050537	-0.512695
168.0	4.554734	2.416967	8.51536	-0.00231	0.003777	-0.016906	-0.528809	-0.054932	-0.512695
169.0	4.637082	2.428788	8.551959	-0.004776	0.003211	-0.014249	-0.528809	-0.057129	-0.512695
170.0	4.621054	2.42915	8.571069	-0.004609	0.001123	-0.01737	-0.53125	-0.050537	-0.515137
171.0	4.617301	2.410938	8.600507	-0.009384	0.006623	-0.014622	-0.524414	-0.057129	-0.512695
172.0	4.59302	2.431732	8.549913	-0.003346	0.000178	-0.015063	-0.531006	-0.052734	-0.514893
173.0	4.619162	2.429817	8.5719	-0.004227	0.003212	-0.015786	-0.524414	-0.057129	-0.510254
174.0	4.576376	2.432102	8.569343	-0.012231	0.003968	-0.013552	-0.526611	-0.052734	-0.517334
175.0	4.605322	2.447729	8.562599	-0.012671	0.005486	-0.013914	-0.522461	-0.050537	-0.515137
176.0	4.616842	2.429	8.573382	-0.010373	0.008143	-0.013451	-0.530762	-0.059326	-0.508057
177.0	4.630173	2.444831	8.585565	-0.009491	0.00511	-0.012729	-0.526367	-0.059326	-0.508057
178.0	4.597844	2.394232	8.591856	-0.007466	0.007197	-0.015749	-0.529053	-0.050537	-0.508301
179.0	4.628029	2.394257	8.554472	-0.008881	0.001508	-0.015491	-0.526611	-0.057129	-0.510254
180.0	4.613577	2.428723	8.575217	-0.007466	0.007199	-0.01575	-0.531006	-0.052734	-0.510498
181.0	4.612685	2.428712	8.575701	-0.008942	0.005112	-0.014267	-0.528809	-0.054932	-0.512695
182.0	4.596246	2.4289	8.595051	-0.00363	0.008341	-0.017995	-0.526611	-0.054932	-0.514893
183.0	4.621873	2.426999	8.617323	-0.007296	0.005114	-0.018874	-0.531006	-0.054932	-0.505859
184.0	4.636375	2.427247	8.598895	-0.006917	0.007202	-0.017288	-0.533447	-0.050537	-0.512695
185.0	4.605672	2.411335	8.606628	-0.006916	0.007202	-0.017288	-0.528564	-0.059326	-0.512695
186.0	4.607686	2.429821	8.578073	-0.008834	0.006631	-0.016167	-0.522461	-0.052734	-0.515137
187.0	4.594172	2.448206	8.56845	-0.007907	0.008719	-0.016115	-0.524414	-0.054932	-0.512695
188.0	4.620905	2.429941	8.560384	-0.008348	0.010237	-0.016477	-0.528809	-0.054932	-0.519531
189.0	4.601206	2.411561	8.608953	-0.008726	0.008152	-0.018066	-0.528809	-0.052734	-0.508057
190.0	4.615695	2.411475	8.590644	-0.011299	0.00606	-0.013513	-0.524658	-0.052734	-0.510498
191.0	4.600496	2.395354	8.579536	-0.006807	0.008726	-0.019189	-0.528809	-0.054932	-0.514893
192.0	4.600947	2.429987	8.581643	-0.009167	0.009671	-0.018429	-0.524414	-0.054932	-0.521729
193.0	4.601442	2.464453	8.583773	-0.009273	0.008153	-0.016534	-0.526611	-0.054932	-0.519531
194.0	4.59687	2.395618	8.581405	-0.008617	0.009675	-0.019967	-0.524658	-0.052734	-0.517334
195.0	4.611366	2.446394	8.595236	-0.00643	0.010816	-0.017604	-0.528809	-0.052734	-0.510498
196.0	4.614502	2.44886	8.536271	-0.011459	0.007015	-0.018901	-0.531006	-0.054932	-0.517334
197.0	4.607459	2.411998	8.594917	-0.007461	0.00721	-0.015762	-0.528809	-0.054932	-0.517334
198.0	4.609413	2.430443	8.566434	-0.008454	0.008725	-0.014588	-0.526611	-0.057129	-0.510254
199.0	4.605288	2.412027	8.596072	-0.008722	0.00816	-0.018075	-0.526855	-0.050537	-0.512695
200.0	4.604169	2.412051	8.596665	-0.009271	0.008158	-0.01654	-0.524414	-0.057129	-0.512695
201.0	4.606211	2.430476	8.568147	-0.008385	0.005125	-0.015819	-0.519775	-0.059326	-0.510254
202.0	4.620817	2.430566	8.549768	-0.00801	0.00721	-0.01423	-0.522217	-0.054932	-0.512695
203.0	4.604474	2.430524	8.569067	-0.00739	0.003612	-0.016995	-0.528809	-0.057129	-0.514893
204.0	4.630129	2.428518	8.591397	-0.005986	0.009308	-0.017248	-0.526611	-0.052734	-0.514893
205.0	4.602496	2.431062	8.569977	-0.005472	0.004189	-0.018117	-0.528809	-0.057129	-0.514893
206.0	4.615543	2.397019	8.549957	-0.006466	0.005703	-0.016943	-0.531006	-0.057129	-0.51709
207.0	4.630293	2.447824	8.563653	-0.007726	0.006653	-0.019256	-0.522217	-0.054932	-0.514893
208.0	4.61222	2.413475	8.581432	-0.006465	0.005705	-0.016944	-0.531006	-0.052734	-0.512695
209.0	4.625375	2.429757	8.593607	-0.007459	0.007218	-0.01577	-0.531006	-0.057129	-0.510254
210.0	4.62569	2.413889	8.563593	-0.006536	0.009308	-0.015716	-0.524658	-0.052734	-0.512695
211.0	4.596503	2.432199	8.57287	-0.007903	0.008736	-0.016133	-0.526367	-0.059326	-0.510254
212.0	4.623465	2.414087	8.564739	-0.007458	0.00722	-0.015772	-0.526611	-0.054932	-0.512695
213.0	4.578776	2.432194	8.592868	-0.008347	0.010255	-0.016495	-0.528564	-0.059326	-0.512695
214.0	4.618207	2.395525	8.595004	-0.011737	0.007583	-0.013895	-0.531006	-0.057129	-0.512695
215.0	4.589152	2.413616	8.604252	-0.006906	0.007228	-0.01731	-0.524414	-0.054932	-0.508057
216.0	4.619167	2.414069	8.567063	-0.007457	0.007223	-0.015775	-0.526611	-0.057129	-0.510254
217.0	4.602611	2.414117	8.586409	-0.006355	0.007235	-0.018848	-0.522461	-0.052734	-0.505859
218.0	4.631146	2.430681	8.579788	-0.006906	0.00723	-0.017313	-0.526611	-0.052734	-0.514893
219.0	4.60504	2.41705	8.527784	-0.007011	0.005707	-0.015416	-0.531006	-0.052734	-0.505859
220.0	4.615164	2.414705	8.569041	-0.01145	0.007029	-0.018925	-0.53125	-0.050537	-0.505859
221.0	4.600268	2.448998	8.589934	-0.006566	0.004191	-0.015057	-0.524414	-0.057129	-0.510254
222.0	4.613216	2.414983	8.570011	-0.006693	0.01028	-0.021109	-0.531006	-0.054932	-0.510498
223.0	4.626006	2.431372	8.582364	-0.008716	0.008178	-0.018094	-0.52417	-0.061523	-0.510254
224.0	4.624914	2.431521	8.582911	-0.006904	0.007235	-0.017317	-0.526367	-0.059326	-0.51709
225.0	4.620913	2.413167	8.612418	-0.007455	0.007228	-0.015782	-0.528809	-0.052734	-0.514893
226.0	4.608774	2.415599	8.572227	-0.007901	0.008747	-0.016143	-0.52002	-0.057129	-0.512695
227.0	4.606103	2.431734	8.603394	-0.006797	0.008761	-0.019216	-0.524414	-0.054932	-0.510498
228.0	4.620702	2.432056	8.585028	-0.009294	0.003048	-0.015897	-0.533203	-0.052734	-0.512695
229.0	4.607136	2.45047	8.575378	-0.007243	0.010281	-0.019579	-0.531006	-0.057129	-0.512695
230.0	4.601447	2.397678	8.603389	-0.008714	0.008183	-0.0181	-0.528809	-0.054932	-0.512695
231.0	4.617323	2.432379	8.586754	-0.009266	0.008176	-0.016565	-0.532959	-0.057129	-0.510254
232.0	4.603541	2.450746	8.57723	-0.007795	0.010276	-0.018045	-0.528809	-0.054932	-0.512695
233.0	4.63042	2.432798	8.569187	-0.008713	0.008186	-0.018103	-0.52002	-0.057129	-0.514893
234.0	4.610689	2.414356	8.617563	-0.005691	0.008785	-0.022295	-0.528809	-0.052734	-0.514893
235.0	4.602905	2.469798	8.550034	-0.011735	0.007588	-0.013914	-0.526611	-0.057129	-0.508057
236.0	4.594296	2.398208	8.607061	-0.006876	0.012372	-0.017991	-0.528809	-0.054932	-0.512695
237.0	4.609947	2.433091	8.590514	-0.010337	0.007057	-0.022016	-0.528809	-0.057129	-0.510254
238.0	4.56812	2.419238	8.557418	-0.006429	0.010856	-0.017631	-0.531006	-0.054932	-0.512695
239.0	4.636986	2.449882	8.584718	-0.008711	0.00819	-0.018109	-0.521973	-0.059326	-0.512695
240.0	4.607795	2.417619	8.561783	-0.009158	0.009709	-0.018471	-0.531006	-0.054932	-0.512695
241.0	4.592314	2.451981	8.582893	-0.006428	0.010859	-0.017634	-0.526611	-0.057129	-0.512695
242.0	4.575515	2.401593	8.570164	-0.006875	0.012378	-0.017996	-0.526611	-0.057129	-0.514893
243.0	4.61764	2.434365	8.575636	-0.009156	0.009711	-0.018474	-0.526611	-0.052734	-0.512695
244.0	4.586756	2.417967	8.583362	-0.009604	0.01123	-0.018836	-0.528809	-0.057129	-0.510254
245.0	4.61208	2.415809	8.605994	-0.009814	0.008176	-0.015042	-0.522217	-0.054932	-0.508057
246.0	4.613761	2.434438	8.577703	-0.008497	0.011252	-0.021911	-0.526611	-0.057129	-0.508057
247.0	4.598411	2.41843	8.566597	-0.009155	0.009715	-0.018478	-0.52417	-0.059326	-0.510254
248.0	4.597063	2.418484	8.567306	-0.009603	0.011234	-0.01884	-0.526611	-0.052734	-0.519531
249.0	4.583124	2.436755	8.557869	-0.009708	0.009706	-0.016944	-0.52417	-0.059326	-0.512695
250.0	4.611398	2.453191	8.551563	-0.009707	0.009707	-0.016944	-0.531006	-0.054932	-0.510498
251.0	4.607351	2.434544	8.581117	-0.010984	0.005532	-0.0186	-0.526611	-0.052734	-0.512695
252.0	4.606275	2.434622	8.581673	-0.004357	0.010483	-0.013368	-0.526611	-0.057129	-0.519531
253.0	4.620598	2.435102	8.563503	-0.009963	0.009156	-0.020441	-0.526367	-0.059326	-0.514893
254.0	4.603864	2.434706	8.582943	-0.011175	0.007605	-0.015471	-0.524414	-0.054932	-0.517334
255.0	4.629256	2.432529	8.605567	-0.008343	0.010287	-0.016528	-0.526611	-0.052734	-0.510498
256.0	4.587517	2.418406	8.572443	-0.009706	0.009712	-0.01695	-0.528809	-0.054932	-0.510498
257.0	4.615778	2.434881	8.566165	-0.009706	0.009713	-0.016951	-0.528809	-0.057129	-0.512695
258.0	4.611615	2.41612	8.595795	-0.011623	0.009126	-0.015836	-0.528809	-0.054932	-0.517334
259.0	4.613563	2.434432	8.567486	-0.012088	0.005514	-0.015536	-0.524414	-0.054932	-0.512695
260.0	4.598588	2.418119	8.556252	-0.009959	0.009164	-0.020447	-0.528809	-0.054932	-0.514893
261.0	4.619348	2.41338	8.638384	-0.007443	0.007257	-0.015811	-0.524414	-0.054932	-0.505859
262.0	4.594545	2.43411	8.588104	-0.008791	0.011812	-0.016894	-0.530762	-0.059326	-0.510254
263.0	4.618488	2.397575	8.60911	-0.009704	0.009718	-0.016956	-0.521973	-0.059326	-0.512695
264.0	4.607556	2.434404	8.570726	-0.009704	0.009719	-0.016956	-0.526367	-0.059326	-0.508057
265.0	4.603338	2.415786	8.600324	-0.009149	0.009733	-0.018494	-0.524414	-0.057129	-0.51709
266.0	4.589408	2.434105	8.590852	-0.009149	0.009734	-0.018495	-0.528809	-0.057129	-0.514893
267.0	4.61634	2.416175	8.582937	-0.011516	0.010663	-0.017742	-0.526611	-0.057129	-0.51709
268.0	4.600611	2.450331	8.604138	-0.008845	0.0092	-0.02353	-0.530762	-0.059326	-0.51709
269.0	4.613699	2.416559	8.584248	-0.005972	0.009372	-0.017293	-0.526611	-0.057129	-0.510254
270.0	4.59977	2.435044	8.574725	-0.008592	0.009752	-0.020036	-0.526611	-0.054932	-0.510498
271.0	4.582908	2.434842	8.594112	-0.008141	0.008234	-0.019676	-0.52002	-0.057129	-0.514893
272.0	4.58351	2.419122	8.564055	-0.010059	0.007644	-0.018563	-0.526855	-0.050537	-0.512695
273.0	4.622711	2.433281	8.598585	-0.009702	0.009726	-0.016965	-0.531006	-0.057129	-0.510254
274.0	4.594963	2.435207	8.577256	-0.011064	0.009149	-0.017389	-0.528809	-0.057129	-0.512695
275.0	4.581008	2.453504	8.567792	-0.006422	0.010897	-0.017658	-0.526367	-0.059326	-0.512695
276.0	4.620778	2.417637	8.569884	-0.00905	0.006144	-0.019743	-0.528809	-0.052734	-0.517334
277.0	4.575696	2.435	8.59791	-0.010709	0.011232	-0.015793	-0.526611	-0.057129	-0.521729
278.0	4.604386	2.401328	8.559394	-0.010402	0.010701	-0.020828	-0.526611	-0.057129	-0.512695
279.0	4.601167	2.416999	8.590848	-0.012521	0.012175	-0.016579	-0.526611	-0.054932	-0.512695
280.0	4.615285	2.417282	8.572943	-0.009242	0.013347	-0.01727	-0.528809	-0.052734	-0.519531
281.0	4.585494	2.434872	8.582417	-0.013882	0.011599	-0.017005	-0.526611	-0.057129	-0.514893
282.0	4.596749	2.416285	8.593414	-0.013325	0.011616	-0.018544	-0.526611	-0.054932	-0.512695
283.0	4.610982	2.416508	8.575476	-0.011512	0.010676	-0.01776	-0.526611	-0.052734	-0.512695
284.0	4.609637	2.416329	8.57625	-0.010707	0.011239	-0.0158	-0.528809	-0.052734	-0.512695
285.0	4.608323	2.416279	8.57697	-0.009945	0.009193	-0.020475	-0.526367	-0.059326	-0.51709
286.0	4.549293	2.417346	8.593087	-0.008893	0.0103	-0.015016	-0.52002	-0.054932	-0.514893
287.0	4.606865	2.450631	8.580168	-0.01151	0.01068	-0.017764	-0.531006	-0.057129	-0.505859
288.0	4.601486	2.397461	8.607965	-0.007779	0.010336	-0.018092	-0.524414	-0.054932	-0.512695
289.0	4.589364	2.400155	8.567787	-0.005966	0.009396	-0.017307	-0.524414	-0.054932	-0.514893
290.0	4.576496	2.453006	8.560081	-0.008336	0.01032	-0.016557	-0.526611	-0.054932	-0.512695
291.0	4.598711	2.432462	8.611676	-0.006417	0.010917	-0.01767	-0.524414	-0.057129	-0.51709
292.0	4.586544	2.435088	8.571544	-0.008335	0.010321	-0.016559	-0.524658	-0.050537	-0.517334
293.0	4.610562	2.39879	8.592511	-0.006869	0.012437	-0.018032	-0.528809	-0.054932	-0.510498
294.0	4.58067	2.416627	8.6019	-0.00924	0.013361	-0.017283	-0.526611	-0.054932	-0.514893
295.0	4.622304	2.449574	8.607897	-0.0106	0.012783	-0.017709	-0.526611	-0.054932	-0.510498
296.0	4.563845	2.400384	8.591582	-0.006066	0.013002	-0.016072	-0.529053	-0.050537	-0.512695
297.0	4.589793	2.432866	8.616318	-0.01161	0.014285	-0.016535	-0.526611	-0.052734	-0.512695
298.0	4.591115	2.451526	8.58835	-0.007878	0.013944	-0.016861	-0.526611	-0.054932	-0.510498
299.0	4.590342	2.401396	8.556716	-0.011295	0.013764	-0.021576	-0.526855	-0.050537	-0.510498
300.0	4.586929	2.417133	8.58819	-0.006728	0.011449	-0.01264	-0.524414	-0.054932	-0.514893
301.0	4.596466	2.414807	8.629625	-0.007562	0.008288	-0.021245	-0.528809	-0.054932	-0.512695
302.0	4.584237	2.417566	8.589506	-0.007319	0.013967	-0.018402	-0.531006	-0.052734	-0.514893
303.0	4.595411	2.399933	8.600304	-0.000204	0.011207	-0.020652	-0.522217	-0.054932	-0.512695
304.0	4.63599	2.399878	8.604149	0.010326	0.013765	-0.018842	-0.526611	-0.052734	-0.510498
305.0	4.605819	2.419825	8.613029	0.021973	0.016364	-0.020108	-0.524414	-0.054932	-0.510498
306.0	4.57951	2.408859	8.560422	0.021627	0.014286	-0.021713	-0.524658	-0.052734	-0.517334
307.0	4.58172	2.464805	8.533523	0.018909	0.013128	-0.022568	-0.52417	-0.063721	-0.510254
308.0	4.577038	2.448477	8.562619	0.014964	0.015529	-0.019108	-0.526611	-0.057129	-0.510254
309.0	4.575428	2.450343	8.562946	0.008064	0.011089	-0.019343	-0.526367	-0.059326	-0.519531
310.0	4.572039	2.467387	8.593983	0.002414	0.010827	-0.017912	-0.526611	-0.054932	-0.510498
311.0	4.571721	2.418203	8.56195	0.002414	0.010828	-0.017912	-0.532959	-0.059326	-0.512695
312.0	4.569353	2.469283	8.594867	-0.000863	0.009647	-0.017229	-0.524414	-0.054932	-0.514893
313.0	4.583812	2.47049	8.576642	-0.001423	0.009628	-0.015692	-0.526611	-0.057129	-0.514893
314.0	4.594422	2.418462	8.585476	-0.002222	0.009067	-0.017658	-0.526123	-0.063721	-0.512451
315.0	4.580383	2.437071	8.575873	-0.006408	0.010923	-0.0177	-0.52002	-0.057129	-0.512695
316.0	4.594774	2.438123	8.557744	-0.000862	0.009651	-0.017232	-0.526367	-0.059326	-0.51709
317.0	4.593616	2.43841	8.558284	-0.00979	0.008202	-0.015119	-0.524414	-0.057129	-0.512695
318.0	4.562962	2.421583	8.565667	-0.006863	0.012444	-0.018066	-0.524658	-0.052734	-0.517334
319.0	4.588994	2.454239	8.590305	-0.009789	0.008203	-0.015121	-0.524414	-0.057129	-0.508057
320.0	4.602732	2.420205	8.57042	-0.009789	0.008204	-0.015121	-0.524414	-0.054932	-0.517334
321.0	4.583861	2.43531	8.620375	-0.00787	0.008807	-0.016232	-0.524414	-0.057129	-0.512695
322.0	4.584658	2.41974	8.590334	-0.005609	0.011491	-0.01574	-0.526611	-0.054932	-0.519531
323.0	4.570521	2.438146	8.580828	-0.006406	0.01093	-0.017707	-0.531006	-0.057129	-0.512695
324.0	4.582821	2.454827	8.593432	-0.003234	0.010576	-0.016489	-0.520264	-0.052734	-0.512695
325.0	4.581507	2.455326	8.59399	-0.004828	0.009455	-0.020421	-0.526611	-0.057129	-0.510254
326.0	4.59591	2.456427	8.575875	-0.003234	0.010578	-0.01649	-0.528809	-0.054932	-0.517334
327.0	4.596688	2.441206	8.545764	-0.004031	0.010018	-0.018457	-0.528809	-0.057129	-0.510254
328.0	4.564863	2.474743	8.585517	-0.007868	0.00881	-0.016239	-0.528564	-0.059326	-0.512695
329.0	4.58927	2.438517	8.60645	-0.007868	0.008811	-0.01624	-0.526611	-0.054932	-0.512695
330.0	4.591054	2.457358	8.578209	-0.008664	0.008251	-0.018207	-0.526611	-0.054932	-0.514893
331.0	4.576256	2.440997	8.566842	-0.010242	0.009727	-0.015495	-0.526367	-0.061523	-0.514893
332.0	4.546028	2.423814	8.574036	-0.010335	0.003046	-0.012935	-0.524658	-0.052734	-0.510498
333.0	4.559029	2.439744	8.586485	-0.014302	0.00284	-0.016124	-0.52417	-0.059326	-0.510254
334.0	4.572026	2.455685	8.598935	-0.011131	0.002487	-0.014903	-0.524414	-0.057129	-0.514893
335.0	4.573592	2.439675	8.568642	-0.012488	0.001905	-0.015333	-0.522217	-0.054932	-0.510498
336.0	4.586712	2.455477	8.58107	-0.015763	0.000717	-0.014655	-0.52417	-0.059326	-0.512695
337.0	4.598992	2.436538	8.591732	-0.019391	0.00259	-0.01624	-0.524414	-0.057129	-0.512695
338.0	4.585629	2.45358	8.582191	-0.021075	0.002522	-0.011627	-0.524414	-0.054932	-0.514893
339.0	4.597207	2.399552	8.591094	-0.025146	0.000774	-0.012917	-0.522461	-0.052734	-0.521973
340.0	4.581914	2.43189	8.612243	-0.021974	0.000422	-0.011697	-0.531006	-0.057129	-0.510254
341.0	4.610022	2.413163	8.604306	-0.020513	0.002549	-0.013168	-0.526611	-0.057129	-0.512695
342.0	4.580894	2.429396	8.613489	-0.021531	0.004046	-0.011993	-0.524414	-0.054932	-0.514893
343.0	4.598909	2.447787	8.566689	-0.018593	0.003159	-0.014278	-0.52417	-0.059326	-0.510254
344.0	4.578903	2.392808	8.612818	-0.01995	0.002577	-0.01471	-0.526611	-0.057129	-0.514893
345.0	4.607615	2.408832	8.606808	-0.018593	0.003161	-0.01428	-0.524658	-0.052734	-0.512695
346.0	4.578518	2.42534	8.615895	-0.018135	0.001642	-0.01392	-0.524414	-0.054932	-0.514893
347.0	4.593829	2.425353	8.597656	-0.012587	0.000377	-0.013444	-0.524414	-0.054932	-0.510498
348.0	4.609062	2.425591	8.5794	-0.014298	0.00286	-0.016136	-0.528809	-0.057129	-0.514893
349.0	4.592674	2.424053	8.59864	-0.021763	0.003518	-0.015507	-0.526611	-0.054932	-0.510498
350.0	4.592638	2.457789	8.601213	-0.012837	0.004991	-0.017607	-0.528809	-0.054932	-0.514893
351.0	4.578366	2.440956	8.589665	-0.01542	0.002811	-0.013063	-0.528809	-0.052734	-0.514893
352.0	4.602716	2.369592	8.608411	-0.013502	0.003421	-0.014171	-0.524414	-0.054932	-0.519531
353.0	4.62147	2.423071	8.563452	-0.016214	0.002256	-0.015034	-0.524414	-0.057129	-0.512695
354.0	4.600024	2.418514	8.642085	-0.01079	0.004589	-0.013309	-0.528564	-0.059326	-0.51709
355.0	4.601741	2.402569	8.611701	-0.012919	-0.001693	-0.01506	-0.524414	-0.057129	-0.512695
356.0	4.588391	2.420448	8.601942	-0.008872	0.0052	-0.014416	-0.526611	-0.057129	-0.514893
357.0	4.614064	2.418339	8.624596	-0.014295	0.002868	-0.016144	-0.526611	-0.052734	-0.514893
358.0	4.576372	2.422456	8.561988	-0.009206	0.003126	-0.016027	-0.528809	-0.054932	-0.512695
359.0	4.60278	2.454874	8.586598	-0.012145	0.004008	-0.013744	-0.526611	-0.054932	-0.512695
360.0	4.603591	2.40433	8.554382	-0.014522	0.004918	-0.012999	-0.522217	-0.054932	-0.512695
361.0	4.598476	2.434902	8.616405	-0.012145	0.00401	-0.013745	-0.524414	-0.057129	-0.514893
362.0	4.599265	2.38447	8.584164	-0.012604	0.005531	-0.014106	-0.524658	-0.052734	-0.517334
363.0	4.612904	2.43493	8.598671	-0.010204	-0.000521	-0.014204	-0.526855	-0.050537	-0.510498
364.0	4.611624	2.400309	8.59703	-0.010124	0.006172	-0.016752	-0.522461	-0.052734	-0.517334
365.0	4.597965	2.418366	8.58739	-0.009204	0.003132	-0.016032	-0.528809	-0.057129	-0.51709
366.0	4.613029	2.41916	8.569108	-0.007849	0.003716	-0.0156	-0.528809	-0.052734	-0.519531
367.0	4.609393	2.400263	8.598239	-0.008308	0.005237	-0.015961	-0.522461	-0.050537	-0.510498
368.0	4.595707	2.418365	8.588599	-0.009663	0.004654	-0.016394	-0.526611	-0.054932	-0.510498
369.0	4.610633	2.419148	8.5704	-0.008308	0.005238	-0.015962	-0.526611	-0.057129	-0.51709
370.0	4.594124	2.418368	8.589445	-0.007848	0.003719	-0.015603	-0.526855	-0.050537	-0.515137
371.0	4.622414	2.43546	8.583453	-0.010251	0.009771	-0.015506	-0.522217	-0.054932	-0.505859
372.0	4.620651	2.400848	8.58207	-0.00979	0.008251	-0.015146	-0.526611	-0.057129	-0.508057
373.0	4.603833	2.399879	8.601325	-0.00979	0.008252	-0.015147	-0.526611	-0.057129	-0.508057
374.0	4.590687	2.452363	8.593786	-0.0092	0.003138	-0.016039	-0.526611	-0.052734	-0.512695
375.0	4.617923	2.400541	8.583625	-0.010121	0.006179	-0.01676	-0.528809	-0.054932	-0.512695
376.0	4.601834	2.434065	8.604846	-0.010121	0.00618	-0.016761	-0.522461	-0.052734	-0.515137
377.0	4.590221	2.436518	8.564577	-0.011145	0.007671	-0.015583	-0.526611	-0.054932	-0.517334
378.0	4.586427	2.417441	8.593818	-0.008305	0.005245	-0.015969	-0.528809	-0.054932	-0.510498
379.0	4.600578	2.38376	8.573687	-0.010251	0.009777	-0.015511	-0.531006	-0.054932	-0.512695
380.0	4.61348	2.434409	8.588556	-0.00979	0.008257	-0.015152	-0.528809	-0.057129	-0.519531
381.0	4.611807	2.399689	8.58715	-0.012168	0.009163	-0.014408	-0.52417	-0.061523	-0.512451
382.0	4.584279	2.401352	8.565582	-0.006517	0.009458	-0.015824	-0.524414	-0.057129	-0.512695
383.0	4.622952	2.416004	8.600554	-0.009225	0.00829	-0.016693	-0.526611	-0.054932	-0.517334
384.0	4.566217	2.40063	8.585395	-0.007308	0.008907	-0.017798	-0.522461	-0.050537	-0.517334
385.0	4.594238	2.418044	8.579511	-0.007307	0.008908	-0.017799	-0.528809	-0.054932	-0.517334
386.0	4.606511	2.434549	8.592257	-0.009451	0.007771	-0.020208	-0.526611	-0.054932	-0.514893
387.0	4.609995	2.403717	8.531286	-0.007871	0.008878	-0.016262	-0.522217	-0.054932	-0.510498
388.0	4.587694	2.399331	8.610097	-0.009256	0.01344	-0.017343	-0.526855	-0.050537	-0.519531
389.0	4.602725	2.434613	8.594267	-0.008536	0.007295	-0.012826	-0.526611	-0.052734	-0.512695
390.0	4.630187	2.417471	8.586362	-0.007666	0.011986	-0.020063	-0.531006	-0.057129	-0.51709
391.0	4.602363	2.419378	8.564868	-0.009583	0.01137	-0.01896	-0.524658	-0.052734	-0.510498
392.0	4.613766	2.401366	8.57573	-0.008691	0.013476	-0.018886	-0.526611	-0.052734	-0.512695
393.0	4.567725	2.417831	8.603663	-0.007664	0.01199	-0.020066	-0.528809	-0.054932	-0.510498
394.0	4.582117	2.418853	8.585763	-0.009683	0.009819	-0.017065	-0.522217	-0.057129	-0.512695
395.0	4.580841	2.418862	8.586441	-0.009119	0.009853	-0.018605	-0.526611	-0.057129	-0.512695
396.0	4.608191	2.401755	8.578618	-0.009581	0.011375	-0.018966	-0.528809	-0.054932	-0.517334
397.0	4.578249	2.418989	8.587788	-0.007404	0.007366	-0.015911	-0.524658	-0.04834	-0.515137
398.0	4.608603	2.4211	8.551168	-0.005847	0.01106	-0.019274	-0.535156	-0.059326	-0.51709
399.0	4.575685	2.419617	8.588977	-0.005384	0.009541	-0.018915	-0.526611	-0.057129	-0.514893
400.0	4.576958	2.404391	8.558726	-0.008756	0.006782	-0.01635	-0.53125	-0.04834	-0.512695
401.0	4.592193	2.439857	8.542777	-0.008191	0.006816	-0.01789	-0.531006	-0.054932	-0.510498
402.0	4.588242	2.420965	8.571993	-0.006514	0.009476	-0.015839	-0.526855	-0.050537	-0.515137
403.0	4.603008	2.421851	8.553969	-0.012025	0.005578	-0.015687	-0.528809	-0.054932	-0.512695
404.0	4.586109	2.420643	8.573225	-0.01071	0.011313	-0.015895	-0.528809	-0.054932	-0.517334
405.0	4.595036	2.383467	8.612595	-0.007402	0.007372	-0.015917	-0.526611	-0.054932	-0.512695
406.0	4.594472	2.41791	8.615267	-0.009319	0.006752	-0.014816	-0.526611	-0.052734	-0.512695
407.0	4.595966	2.402385	8.584998	-0.009319	0.006752	-0.014817	-0.526611	-0.052734	-0.512695
408.0	4.605962	2.434213	8.628503	-0.005585	0.006439	-0.015122	-0.524414	-0.054932	-0.517334
409.0	4.609854	2.40363	8.567361	-0.006835	0.00741	-0.017459	-0.526611	-0.054932	-0.510498
410.0	4.5668	2.404628	8.564084	-0.004555	0.004955	-0.016302	-0.533203	-0.052734	-0.512695
411.0	4.634459	2.402496	8.590412	-0.007259	0.003783	-0.017178	-0.522217	-0.054932	-0.517334
412.0	4.575621	2.402475	8.605709	-0.007842	0.006345	-0.022954	-0.524658	-0.052734	-0.519531
413.0	4.593267	2.422776	8.558942	-0.006151	0.006407	-0.013586	-0.528809	-0.054932	-0.512695
414.0	4.618723	2.421156	8.581674	-0.008288	0.00527	-0.016001	-0.526611	-0.057129	-0.512695
415.0	4.589081	2.438305	8.590633	-0.007722	0.005306	-0.017541	-0.526611	-0.054932	-0.514893
416.0	4.603601	2.404917	8.570361	-0.007967	0.007343	-0.014385	-0.531006	-0.052734	-0.514893
417.0	4.600098	2.420226	8.601745	-0.010568	0.007727	-0.017162	-0.524414	-0.057129	-0.508057
418.0	4.588616	2.422928	8.561393	-0.007721	0.005309	-0.017544	-0.526367	-0.059326	-0.512695
419.0	4.597997	2.420226	8.602868	-0.011498	0.01077	-0.017884	-0.526611	-0.057129	-0.510254
420.0	4.596737	2.420167	8.603558	-0.00708	0.009454	-0.01431	-0.526611	-0.054932	-0.517334
421.0	4.598116	2.404755	8.573351	-0.009782	0.00828	-0.015188	-0.526611	-0.054932	-0.517334
422.0	4.581385	2.438082	8.594803	-0.01093	0.01081	-0.019426	-0.528809	-0.052734	-0.514893
423.0	4.609002	2.42104	8.586932	-0.00875	0.006798	-0.016369	-0.526611	-0.057129	-0.514893
424.0	4.605203	2.401953	8.616077	-0.009534	0.006249	-0.018348	-0.526611	-0.052734	-0.508057
425.0	4.551925	2.439729	8.574179	-0.008749	0.006799	-0.01637	-0.52417	-0.059326	-0.514893
426.0	4.606081	2.421024	8.588504	-0.0101	0.006213	-0.01681	-0.524414	-0.057129	-0.519531
427.0	4.604773	2.38668	8.586811	-0.005481	0.008014	-0.017033	-0.524414	-0.054932	-0.505859
428.0	4.617357	2.437768	8.60175	-0.007716	0.005318	-0.017552	-0.526855	-0.050537	-0.510498
429.0	4.574092	2.403799	8.596277	-0.011232	0.006138	-0.013734	-0.52417	-0.059326	-0.510254
430.0	4.602258	2.421165	8.590513	-0.008181	0.006841	-0.017914	-0.524414	-0.054932	-0.512695
431.0	4.585363	2.42014	8.609633	-0.009214	0.008325	-0.016735	-0.526611	-0.057129	-0.510254
432.0	4.626426	2.419568	8.61396	-0.008748	0.006804	-0.016376	-0.529053	-0.04834	-0.512695
433.0	4.6018	2.405833	8.561295	-0.008848	0.005245	-0.014477	-0.522461	-0.052734	-0.510498
434.0	4.587913	2.423773	8.551743	-0.009314	0.006767	-0.014838	-0.524414	-0.054932	-0.512695
435.0	4.581605	2.419843	8.611717	-0.009314	0.006768	-0.014838	-0.526611	-0.052734	-0.514893
436.0	4.596245	2.38659	8.591404	-0.005013	0.006501	-0.016678	-0.528809	-0.057129	-0.512695
437.0	4.624416	2.404343	8.585557	-0.007712	0.005326	-0.017559	-0.526611	-0.054932	-0.514893
438.0	4.594537	2.421392	8.594581	-0.007863	0.008918	-0.0163	-0.526855	-0.04834	-0.512695
439.0	4.62222	2.404583	8.586673	-0.006513	0.009507	-0.01586	-0.531006	-0.052734	-0.512695
440.0	4.608049	2.422637	8.577235	-0.00978	0.008291	-0.015202	-0.524414	-0.057129	-0.51709
441.0	4.593865	2.440522	8.56785	-0.010247	0.009814	-0.015563	-0.528564	-0.059326	-0.512695
442.0	4.60543	2.387789	8.576392	-0.010499	0.011844	-0.012404	-0.526611	-0.054932	-0.514893
443.0	4.591366	2.439933	8.569357	-0.012945	0.008638	-0.016447	-0.526611	-0.054932	-0.517334
444.0	4.600244	2.402589	8.608757	-0.010827	0.012392	-0.021346	-0.531006	-0.054932	-0.510498
445.0	4.617443	2.388389	8.560055	-0.008529	0.007322	-0.012866	-0.528809	-0.052734	-0.505859
446.0	4.613709	2.403621	8.591518	-0.007547	0.010995	-0.014685	-0.526611	-0.057129	-0.512695
447.0	4.609804	2.418896	8.623055	-0.009677	0.009859	-0.017109	-0.522217	-0.057129	-0.508057
448.0	4.582367	2.420405	8.601354	-0.009777	0.008298	-0.01521	-0.526611	-0.057129	-0.508057
449.0	4.596981	2.387139	8.581104	-0.006824	0.007448	-0.017489	-0.526611	-0.057129	-0.508057
450.0	4.595961	2.421737	8.583972	-0.009108	0.009903	-0.018651	-0.526367	-0.059326	-0.51709
451.0	4.610761	2.422875	8.566009	-0.00806	0.005804	-0.01251	-0.524658	-0.052734	-0.517334
452.0	4.606914	2.403686	8.595145	-0.009888	0.009358	-0.020635	-0.528809	-0.057129	-0.514893
453.0	4.592694	2.421806	8.585701	-0.007391	0.00741	-0.015952	-0.526611	-0.052734	-0.514893
454.0	4.604564	2.403742	8.596389	-0.010713	0.011345	-0.015935	-0.531006	-0.054932	-0.510498
455.0	4.606049	2.422833	8.568556	-0.010455	0.009319	-0.019098	-0.528564	-0.059326	-0.514893
456.0	4.602105	2.40351	8.59777	-0.011124	0.007714	-0.015659	-0.526367	-0.059326	-0.51709
457.0	4.601005	2.40343	8.598381	-0.007858	0.008936	-0.016315	-0.526367	-0.059326	-0.505859
458.0	4.586815	2.421424	8.588951	-0.010555	0.007757	-0.017201	-0.524414	-0.057129	-0.512695
459.0	4.585871	2.42133	8.589481	-0.009617	0.004715	-0.016482	-0.528809	-0.054932	-0.510498
460.0	4.584887	2.421344	8.590003	-0.008637	0.008392	-0.0183	-0.526611	-0.054932	-0.508057
461.0	4.612754	2.439082	8.584427	-0.008637	0.008393	-0.018301	-0.522461	-0.050537	-0.508301
462.0	4.585621	2.406138	8.560179	-0.010594	0.00104	-0.014668	-0.522217	-0.057129	-0.512695
463.0	4.582234	2.421371	8.591411	-0.00635	0.00594	-0.017139	-0.526611	-0.054932	-0.517334
464.0	4.597196	2.422766	8.573327	-0.006919	0.005897	-0.0156	-0.528564	-0.061523	-0.508057
465.0	4.580464	2.421635	8.59228	-0.009046	0.004762	-0.018027	-0.526611	-0.057129	-0.510254
466.0	4.566559	2.405192	8.580325	-0.009145	0.003197	-0.016128	-0.528809	-0.054932	-0.510498
467.0	4.594761	2.42302	8.574561	-0.00578	0.005988	-0.018682	-0.526611	-0.054932	-0.512695
468.0	4.5909	2.438442	8.605983	-0.008328	0.010466	-0.016682	-0.526611	-0.057129	-0.51709
469.0	4.576733	2.422091	8.59414	-0.006448	0.004379	-0.015243	-0.524414	-0.057129	-0.514893
470.0	4.604818	2.405464	8.586092	-0.008166	0.006878	-0.017948	-0.533203	-0.054932	-0.512695
471.0	4.616969	2.42192	8.598985	-0.009305	0.006789	-0.014868	-0.526611	-0.054932	-0.503662
472.0	4.589772	2.423411	8.577122	-0.008735	0.006835	-0.016409	-0.526855	-0.050537	-0.512695
473.0	4.586018	2.404191	8.606171	-0.01029	0.005745	-0.020379	-0.526611	-0.054932	-0.512695
474.0	4.614068	2.387566	8.598158	-0.008472	0.004814	-0.019576	-0.520264	-0.052734	-0.515137
475.0	4.599977	2.405563	8.588659	-0.008998	0.008859	-0.013246	-0.528809	-0.057129	-0.510254
476.0	4.598816	2.405627	8.589263	-0.005941	0.009587	-0.017424	-0.528809	-0.054932	-0.514893
477.0	4.597643	2.405942	8.589803	-0.006247	0.00752	-0.01905	-0.528809	-0.057129	-0.514893
478.0	4.599361	2.425387	8.561788	-0.009511	0.006294	-0.018399	-0.524414	-0.054932	-0.510498
479.0	4.621838	2.40463	8.613236	-0.009511	0.006295	-0.0184	-0.53125	-0.050537	-0.512695
480.0	4.597412	2.425378	8.562838	-0.009304	0.006794	-0.014875	-0.522461	-0.052734	-0.512695
481.0	4.580565	2.424037	8.581865	-0.008733	0.006841	-0.016416	-0.531006	-0.057129	-0.510254
482.0	4.624436	2.408763	8.555409	-0.007593	0.006935	-0.019498	-0.524414	-0.054932	-0.514893
483.0	4.591691	2.440686	8.595257	-0.008056	0.005819	-0.012532	-0.528564	-0.061523	-0.51709
484.0	4.606568	2.407533	8.574952	-0.009881	0.00939	-0.020665	-0.524658	-0.050537	-0.515137
485.0	4.618511	2.38954	8.585614	-0.009775	0.00832	-0.015239	-0.524414	-0.057129	-0.512695
486.0	4.588284	2.440683	8.597077	-0.007287	0.009006	-0.017876	-0.526611	-0.052734	-0.514893
487.0	4.616171	2.389772	8.586807	-0.007287	0.009007	-0.017876	-0.528809	-0.054932	-0.510498
488.0	4.570061	2.439704	8.61671	-0.007385	0.007438	-0.015977	-0.528809	-0.054932	-0.512695
489.0	4.600707	2.442537	8.580292	-0.00594	0.0096	-0.017432	-0.526611	-0.052734	-0.508057
490.0	4.599669	2.373835	8.576095	-0.007857	0.008961	-0.016338	-0.528809	-0.057129	-0.512695
491.0	4.608688	2.405628	8.620001	-0.005165	0.010146	-0.015447	-0.524414	-0.054932	-0.514893
492.0	4.597098	2.408825	8.57967	-0.003247	0.010786	-0.016543	-0.524414	-0.054932	-0.512695
493.0	4.595663	2.409402	8.580276	-0.001803	0.012949	-0.017998	-0.52417	-0.059326	-0.512695
494.0	4.5943	2.444339	8.583211	-0.004219	0.007103	-0.01473	-0.528809	-0.052734	-0.514893
495.0	4.61955	2.408779	8.603715	-0.00412	0.008674	-0.016631	-0.524414	-0.057129	-0.514893
496.0	4.589302	2.391388	8.610342	-0.003719	0.012311	-0.016906	-0.522217	-0.054932	-0.514893
497.0	4.603638	2.427587	8.594933	-0.005065	0.01172	-0.017353	-0.531006	-0.057129	-0.512695
498.0	4.560102	2.427899	8.591666	-0.0088	0.01201	-0.017067	-0.524414	-0.054932	-0.512695
499.0	4.584941	2.392108	8.612465	-0.006109	0.013196	-0.016174	-0.522217	-0.057129	-0.510254
500.0	4.572961	2.429697	8.574698	-0.004191	0.013838	-0.017269	-0.528809	-0.052734	-0.512695
501.0	4.581742	2.426992	8.616379	-0.010716	0.011371	-0.015976	-0.531006	-0.054932	-0.512695
502.0	4.599027	2.413311	8.567815	-0.006782	0.014227	-0.020066	-0.522217	-0.054932	-0.510498
503.0	4.59445	2.428665	8.599544	-0.008699	0.013586	-0.018974	-0.524414	-0.054932	-0.510498
504.0	4.595901	2.413648	8.569397	-0.009097	0.009949	-0.018702	-0.528809	-0.054932	-0.514893
505.0	4.59437	2.448097	8.572548	-0.010142	0.011423	-0.017522	-0.524658	-0.052734	-0.512695
506.0	4.590467	2.394273	8.599324	-0.009668	0.009902	-0.017163	-0.526611	-0.052734	-0.512695
507.0	4.60492	2.430122	8.583988	-0.009095	0.009953	-0.018705	-0.528809	-0.054932	-0.510498
508.0	4.627089	2.409626	8.635531	-0.001998	0.009824	-0.014205	-0.531006	-0.054932	-0.512695
509.0	4.655021	2.359469	8.625183	0.001737	0.012192	-0.021823	-0.524414	-0.054932	-0.512695
510.0	4.679331	2.395694	8.650104	0.05062	0.014629	-0.019099	-0.522217	-0.057129	-0.514893
511.0	4.619321	2.40082	8.66377	0.077565	0.019922	-0.021649	-0.526611	-0.054932	-0.514893
512.0	4.669992	2.269522	8.698069	0.109396	0.025046	-0.027581	-0.526367	-0.059326	-0.510254
513.0	4.619796	2.427057	8.60101	0.157209	0.02086	-0.033313	-0.52417	-0.059326	-0.512695
514.0	4.634966	2.41848	8.708316	0.174269	0.016844	-0.03687	-0.526367	-0.061523	-0.519287
515.0	4.685762	2.5137	8.594041	0.212435	0.014672	-0.037825	-0.52002	-0.057129	-0.517334
516.0	4.747307	2.358225	8.664351	0.24265	0.013155	-0.050742	-0.526123	-0.063721	-0.512451
517.0	4.675484	2.420258	8.634277	0.311396	0.033231	-0.058597	-0.523926	-0.068115	-0.514648
518.0	4.610066	2.610962	8.521164	0.305889	0.033112	-0.071451	-0.525879	-0.072266	-0.516846
519.0	4.644743	2.586892	8.546046	0.297139	0.039952	-0.074102	-0.525879	-0.070313	-0.51001
520.0	4.630761	2.704534	8.474262	0.276204	0.050599	-0.076618	-0.521484	-0.070068	-0.514648
521.0	4.597649	2.620329	8.601942	0.254001	0.055441	-0.078866	-0.521484	-0.072266	-0.51001
522.0	4.488201	2.736434	8.481463	0.260579	0.058098	-0.080367	-0.523682	-0.074463	-0.51001
523.0	4.452449	2.741904	8.483922	0.208018	0.054579	-0.077271	-0.523438	-0.07666	-0.507813
524.0	4.418803	2.639897	8.483141	0.171272	0.045384	-0.072603	-0.521484	-0.072266	-0.51001
525.0	4.388408	2.812932	8.434383	0.137199	0.030662	-0.064375	-0.525635	-0.07666	-0.512207
526.0	4.40108	2.791234	8.412736	0.082372	0.021656	-0.054235	-0.525635	-0.07666	-0.51001
527.0	4.415879	3.07804	8.344081	0.046548	0.013463	-0.04395	-0.523682	-0.07251	-0.505615
528.0	4.426702	2.90746	8.378633	-0.006481	0.007653	-0.028215	-0.519043	-0.07666	-0.512207
529.0	4.410089	2.8718	8.396437	-0.022153	0.004516	-0.016159	-0.523682	-0.074463	-0.512207
530.0	4.467521	2.680225	8.406124	-0.041091	0.006814	-0.006083	-0.523682	-0.072266	-0.512451
531.0	4.429478	2.828918	8.479809	-0.046176	-0.000255	-0.003566	-0.52124	-0.078857	-0.512207
532.0	4.618763	2.755109	8.577861	-0.051093	0.004081	0.004554	-0.523438	-0.07666	-0.51001
533.0	4.544823	2.632537	8.477304	-0.047165	0.017794	0.00247	-0.514648	-0.07666	-0.512207
534.0	4.518202	2.75049	8.431885	-0.051984	0.023678	0.008657	-0.525879	-0.070313	-0.512451
535.0	4.559171	2.566989	8.591932	-0.062057	0.024503	0.006433	-0.523438	-0.078857	-0.51001
536.0	4.571105	2.320515	8.625417	-0.020547	0.022271	-0.007317	-0.525879	-0.072266	-0.514648
537.0	4.546954	2.616576	8.527045	-0.024938	0.026055	-0.018333	-0.523438	-0.078857	-0.516846
538.0	4.593754	2.59596	8.603128	-0.021093	0.020651	-0.017907	-0.523682	-0.074463	-0.514648
539.0	4.633567	2.562491	8.607433	0.008106	0.031508	-0.027513	-0.519043	-0.078857	-0.512207
540.0	4.532094	2.615468	8.5907	0.008507	0.031008	-0.032593	-0.523682	-0.070313	-0.512451
541.0	4.598704	2.670806	8.591387	0.005745	0.030793	-0.03893	-0.520996	-0.081055	-0.51001
542.0	4.537644	2.637217	8.605081	0.011795	0.028137	-0.038016	-0.519043	-0.07666	-0.512207
543.0	4.481124	2.866109	8.539995	0.00757	0.029902	-0.038119	-0.519043	-0.07666	-0.51001
544.0	4.504223	2.832139	8.562876	-0.019732	0.030535	-0.027556	-0.523438	-0.07666	-0.514648
545.0	4.559483	2.79866	8.549639	-0.022921	0.03497	-0.024079	-0.519287	-0.074463	-0.512207
546.0	4.491888	2.747043	8.492902	-0.023225	0.037029	-0.02094	-0.525879	-0.070313	-0.507813
547.0	4.525462	2.675069	8.556174	-0.018468	0.036892	-0.010251	-0.521484	-0.072266	-0.507813
548.0	4.466146	2.725653	8.544409	-0.012286	0.031644	-0.016003	-0.523438	-0.078857	-0.51001
549.0	4.492326	2.709363	8.538445	-0.003352	0.033329	-0.018068	-0.52124	-0.07666	-0.51001
550.0	4.507588	2.76437	8.49384	0.007305	0.025845	-0.014718	-0.518799	-0.081055	-0.51001
551.0	4.393914	2.833664	8.465683	0.007309	0.019129	-0.012064	-0.51709	-0.072266	-0.51001
552.0	4.425871	2.923686	8.403693	-0.00798	0.015437	-0.005136	-0.521484	-0.074463	-0.51001
553.0	4.462461	2.817107	8.464396	-0.021929	0.012362	0.00223	-0.52124	-0.078857	-0.512207
554.0	4.488764	2.74581	8.48551	-0.021344	0.012403	0.000682	-0.521484	-0.074463	-0.516846
555.0	4.460647	2.812818	8.466778	-0.029451	0.010279	0.010186	-0.519287	-0.074463	-0.516846
556.0	4.426307	2.71973	8.530882	-0.041616	0.009898	0.005509	-0.521484	-0.074463	-0.512207
557.0	4.470837	2.734663	8.507991	-0.051028	0.003014	0.009824	-0.519287	-0.074463	-0.512207
558.0	4.430238	2.659789	8.502137	-0.062537	0.001662	0.009057	-0.519287	-0.072266	-0.51001
559.0	4.458656	2.70641	8.499209	-0.068856	-0.004481	0.009165	-0.521484	-0.072266	-0.512451
560.0	4.428557	2.628673	8.534361	-0.074315	-0.008489	0.009322	-0.519287	-0.072266	-0.512451
561.0	4.362814	2.743956	8.484122	-0.073521	-0.018767	0.009193	-0.523682	-0.070068	-0.516846
562.0	4.380172	2.806375	8.47017	-0.095777	-0.034325	0.014911	-0.521484	-0.072266	-0.51001
563.0	4.470457	2.660231	8.47396	-0.1114	-0.039048	0.014722	-0.521484	-0.070068	-0.512451
564.0	4.532487	2.662557	8.592402	-0.11716	-0.040987	0.018	-0.521729	-0.068115	-0.507813
565.0	4.617196	2.47801	8.653482	-0.106576	-0.033988	0.010593	-0.517334	-0.067871	-0.51709
566.0	4.717486	2.453396	8.673708	-0.074702	-0.028589	0.004618	-0.52417	-0.061523	-0.512451
567.0	4.652946	2.535376	8.62179	-0.060487	-0.016693	-0.003739	-0.521729	-0.068115	-0.510254
568.0	4.58243	2.546175	8.626128	-0.05887	-0.007262	-0.004313	-0.52417	-0.061523	-0.514893
569.0	4.574315	2.630904	8.561199	-0.063472	-0.002403	-0.006725	-0.521729	-0.067871	-0.51709
570.0	4.574196	2.625587	8.562895	-0.068174	0.000894	-0.007213	-0.525879	-0.070313	-0.512451
571.0	4.586221	2.636508	8.577354	-0.075029	0.011256	-0.000603	-0.521973	-0.063721	-0.512451
572.0	4.545405	2.648575	8.546909	-0.07455	0.023214	-0.005458	-0.52417	-0.063721	-0.51709
573.0	4.569817	2.607202	8.570847	-0.074269	0.025307	-0.003858	-0.519531	-0.067871	-0.510254
574.0	4.570912	2.585188	8.543437	-0.080133	0.028516	-0.001262	-0.523682	-0.072266	-0.51001
575.0	4.526986	2.54321	8.540459	-0.085109	0.029744	-0.003372	-0.526123	-0.065918	-0.512451
576.0	4.539074	2.605994	8.529801	-0.094407	0.031181	-0.003669	-0.523926	-0.068115	-0.51709
577.0	4.592315	2.546401	8.546608	-0.098898	0.030897	-0.00541	-0.519775	-0.061523	-0.508057
578.0	4.547424	2.537645	8.546051	-0.100128	0.031882	-0.007801	-0.526123	-0.065918	-0.519287
579.0	4.542851	2.598533	8.554314	-0.097719	0.037784	-0.011135	-0.52417	-0.063721	-0.512451
580.0	4.569594	2.539792	8.548513	-0.101076	0.034967	-0.008599	-0.521973	-0.059326	-0.512695
581.0	4.533607	2.52904	8.589311	-0.089607	0.047141	-0.005605	-0.519531	-0.067871	-0.51709
582.0	4.600552	2.540638	8.59231	-0.084967	0.038186	-0.00801	-0.52417	-0.063721	-0.510254
583.0	4.497932	2.463308	8.600653	-0.060425	0.044565	-0.009742	-0.519775	-0.061523	-0.514893
584.0	4.516475	2.472932	8.657566	-0.060281	0.035307	-0.013874	-0.52417	-0.061523	-0.510254
585.0	4.548369	2.49107	8.595515	-0.051147	0.033388	-0.017117	-0.52417	-0.063721	-0.51709
586.0	4.488815	2.539281	8.585665	-0.046922	0.038369	-0.019592	-0.521973	-0.059326	-0.512695
587.0	4.513274	2.589029	8.585059	-0.040235	0.034647	-0.014747	-0.521729	-0.065918	-0.51709
588.0	4.414448	2.500108	8.561089	-0.029175	0.040144	-0.021644	-0.519775	-0.063477	-0.521729
589.0	4.387547	2.553357	8.514097	-0.02287	0.026007	-0.013927	-0.519775	-0.061523	-0.512451
590.0	4.436446	2.550624	8.561552	-0.009934	0.029498	-0.014533	-0.52002	-0.057129	-0.519531
591.0	4.508676	2.520371	8.528991	0.007386	0.0317	-0.011482	-0.517578	-0.063477	-0.519287
592.0	4.488324	2.554805	8.550803	0.016477	0.040627	-0.012492	-0.524414	-0.057129	-0.51709
593.0	4.448519	2.595567	8.490138	0.038498	0.039531	-0.008947	-0.517578	-0.063721	-0.514893
594.0	4.350328	2.635088	8.442606	0.044653	0.048184	-0.002256	-0.519775	-0.061523	-0.51709
595.0	4.398457	2.603051	8.487076	0.059143	0.051702	0.006586	-0.517578	-0.061523	-0.519531
596.0	4.465406	2.567158	8.61366	0.075397	0.055397	0.0108	-0.521973	-0.063721	-0.521729
597.0	4.371128	2.53407	8.661306	0.085982	0.048919	0.008697	-0.519775	-0.059326	-0.512695
598.0	4.384998	2.533717	8.511686	0.090092	0.038822	0.013311	-0.521973	-0.063721	-0.521729
599.0	4.231876	2.603323	8.577737	0.112268	0.031507	0.022986	-0.523926	-0.065918	-0.519287
600.0	4.253165	2.651765	8.500285	0.118396	0.010149	0.029795	-0.519531	-0.067871	-0.519287
601.0	4.240002	2.61915	8.614031	0.137484	0.018644	0.048653	-0.519531	-0.065674	-0.51709
602.0	4.236863	2.678055	8.643289	0.126685	-0.015842	0.062791	-0.526367	-0.061523	-0.521729
603.0	4.383452	2.654578	8.633561	0.123196	-0.026966	0.06984	-0.525879	-0.070313	-0.516846
604.0	4.246018	2.658915	8.632425	0.118845	-0.040216	0.076823	-0.523926	-0.068115	-0.519287
605.0	4.290895	2.716195	8.664118	0.116252	-0.077672	0.082279	-0.525879	-0.072266	-0.514648
606.0	4.245801	2.772761	8.643763	0.087933	-0.11176	0.100155	-0.521729	-0.065918	-0.51709
607.0	4.354455	2.930316	8.665311	0.063669	-0.148106	0.11463	-0.528076	-0.070313	-0.516846
608.0	4.22485	2.819984	8.714967	0.031102	-0.176191	0.137157	-0.52832	-0.068115	-0.51709
609.0	4.435664	2.606158	8.796097	0.013567	-0.202657	0.151228	-0.525879	-0.070313	-0.516846
610.0	4.425028	2.476769	8.845679	0.028994	-0.240273	0.15132	-0.530762	-0.061523	-0.521729
611.0	4.327459	2.480553	8.951155	-0.004462	-0.305405	0.174664	-0.534912	-0.065918	-0.510254
612.0	4.080601	2.341315	9.071529	0.010621	-0.372901	0.257417	-0.537354	-0.061523	-0.512451
613.0	2.667212	2.556375	9.38222	0.24202	-0.479254	0.583856	-0.532959	-0.061523	-0.510254
614.0	2.079342	4.853507	10.418121	0.003209	-0.744988	0.49783	-0.541504	-0.061523	-0.501221
615.0	4.134973	1.58224	9.10561	-0.161466	-1.175718	0.502588	-0.541748	-0.057129	-0.508057
616.0	3.996919	3.055125	9.825806	-0.009211	-1.160423	0.563757	-0.550781	-0.048584	-0.496826
617.0	4.003254	2.52623	9.52069	-0.034517	-1.439423	0.609275	-0.561523	-0.052979	-0.485352
618.0	4.433706	2.849014	9.767991	-0.13204	-1.674781	0.684491	-0.568359	-0.048828	-0.478516
619.0	4.612578	2.334856	9.544727	0.003329	-1.893101	0.70776	-0.577148	-0.048828	-0.47168
620.0	4.698327	3.364118	10.012861	-0.067483	-2.151003	0.754893	-0.586182	-0.038086	-0.460449
621.0	4.913705	2.166068	9.564943	-0.005857	-2.448134	0.756914	-0.592529	-0.044678	-0.446777
622.0	4.364006	3.486806	10.609872	0.011218	-2.681662	0.860217	-0.610352	-0.03833	-0.42627
623.0	6.493654	4.123864	7.958973	-0.054341	-3.301944	0.993268	-0.618896	-0.03833	-0.412598
624.0	5.433221	1.870421	10.229596	-0.340572	-3.350732	1.145928	-0.632324	-0.03418	-0.396729
625.0	4.957367	3.724387	11.531231	-0.148254	-3.804166	1.179514	-0.643799	-0.016846	-0.374268
626.0	6.659676	4.087326	10.198138	-0.576973	-4.071845	1.390065	-0.654785	-0.014648	-0.349121
627.0	6.990503	6.243785	15.946962	-0.388902	-3.899892	1.567941	-0.662109	-0.001709	-0.32666
628.0	6.639022	1.725302	9.741184	-1.279593	-4.084181	1.600882	-0.670898	0.002441	-0.303955
629.0	7.682607	3.096829	10.161373	0.007937	-4.373686	1.711436	-0.673584	0.01123	-0.28125
630.0	7.786713	5.55657	12.750897	-0.441309	-4.454944	1.815771	-0.680176	0.015381	-0.249512
631.0	7.464747	5.615241	10.4072	-0.410095	-4.547103	1.960601	-0.680908	0.028564	-0.229248
632.0	6.98137	9.017232	12.288495	-0.893858	-4.453508	2.148531	-0.674805	0.041504	-0.204346
633.0	4.890699	4.895969	9.234524	-1.989894	-4.504631	2.37423	-0.670898	0.050293	-0.177246
634.0	2.834609	2.213124	7.565919	-1.698229	-4.682729	2.405634	-0.671387	0.063232	-0.154785
635.0	1.831953	-0.220588	4.803969	-1.546521	-4.968122	2.386626	-0.663086	0.072021	-0.129883
636.0	1.557487	-0.789031	2.582972	-0.829005	-5.337349	2.339718	-0.658691	0.072021	-0.102539
637.0	8.011186	-1.513443	8.000017	0.262546	-5.298691	2.02042	-0.641357	0.074219	-0.082031
638.0	23.192116	5.19256	21.271315	1.64905	-2.773452	1.257783	-0.625732	0.065674	-0.082031
639.0	13.277904	7.557646	22.31864	1.502961	0.046098	0.533038	-0.605713	0.056885	-0.095459
640.0	6.800673	8.590684	18.415665	1.335037	2.005552	-0.015756	-0.572021	0.0354	-0.115479
641.0	0.838384	6.860872	11.191068	0.913056	2.986084	-0.263062	-0.531982	0.016113	-0.126709
642.0	-2.311285	6.087098	7.442997	0.653376	3.255445	-0.269572	-0.491699	-0.003174	-0.14917
643.0	-2.924661	4.311224	5.259131	0.404689	3.175345	-0.202649	-0.445068	-0.022461	-0.157959
644.0	-2.639925	4.08578	4.596175	0.396949	2.996333	-0.141431	-0.393799	-0.04834	-0.166504
645.0	-1.604367	3.8584	5.166018	0.311119	2.834028	-0.147988	-0.338135	-0.074219	-0.161621
646.0	0.27604	3.586498	6.231969	0.332887	2.776877	-0.267128	-0.27417	-0.089111	-0.149902
647.0	2.45918	3.524422	7.732468	0.481319	2.89773	-0.45823	-0.203125	-0.117188	-0.128906
648.0	4.042765	3.924355	9.168102	0.595626	3.186857	-0.707551	-0.136719	-0.138672	-0.085205
649.0	5.322139	4.09961	9.783943	0.660366	3.566322	-0.963485	-0.0625	-0.142578	-0.02832
650.0	6.300241	3.828201	9.523561	0.689763	3.946128	-1.182913	-0.001221	-0.144775	0.053711
651.0	6.973303	3.315199	8.843124	0.733893	4.278082	-1.315876	0.035156	-0.127197	0.14209
652.0	7.133749	2.680502	8.335226	0.837796	4.489431	-1.355185	0.048828	-0.094727	0.241699
653.0	7.251333	2.207709	8.043679	0.963822	4.562591	-1.352876	0.016113	-0.047119	0.332031
654.0	7.327258	1.996845	7.974858	1.096388	4.502981	-1.31949	-0.030029	0.009277	0.419922
655.0	7.606139	1.898744	8.183537	1.241054	4.347138	-1.273375	-0.104492	0.06958	0.464355
656.0	8.162386	1.722075	8.671658	1.369253	4.140886	-1.195679	-0.204834	0.116943	0.477295
657.0	8.639349	1.385438	8.791266	1.539554	3.928579	-1.085813	-0.292236	0.168945	0.469482
658.0	9.160284	1.334817	8.879619	1.744916	3.713635	-0.947314	-0.387451	0.198975	0.434814
659.0	9.75298	1.484828	9.097076	1.967242	3.465508	-0.816043	-0.4646	0.220459	0.377441
660.0	10.023131	2.012846	9.258084	2.143794	3.216548	-0.705757	-0.528564	0.237549	0.315674
661.0	9.628611	2.764339	9.246316	2.273542	2.942157	-0.654765	-0.581299	0.241699	0.242676
662.0	9.388888	3.739482	9.384576	2.358996	2.637997	-0.684817	-0.606934	0.233154	0.183594
663.0	9.327431	5.035962	9.657357	2.36971	2.309928	-0.803543	-0.630615	0.226563	0.122314
664.0	9.613908	6.243631	10.098055	2.161974	1.996066	-1.007237	-0.645264	0.211182	0.065674
665.0	10.43438	6.833152	10.255409	1.873128	1.742046	-1.26404	-0.653564	0.198242	0.009033
666.0	11.280083	6.707419	10.433659	1.566189	1.540441	-1.546521	-0.6521	0.169922	-0.03833
667.0	12.110455	6.440062	10.614648	1.258791	1.466818	-1.836324	-0.64917	0.150635	-0.081299
668.0	12.762688	5.74916	10.700223	1.002213	1.454316	-2.092909	-0.644043	0.131104	-0.108154
669.0	13.040403	4.991527	10.618714	0.798636	1.523099	-2.3103	-0.643066	0.109131	-0.14209
670.0	13.290983	4.25042	10.335911	0.653345	1.628944	-2.479827	-0.633301	0.087646	-0.173584
671.0	13.151849	3.45338	9.834883	0.543668	1.778748	-2.598857	-0.61499	0.068115	-0.196045
672.0	12.557858	2.550828	9.100762	0.461163	1.900384	-2.670208	-0.603027	0.044189	-0.227295
673.0	11.763584	1.63451	8.085271	0.407834	1.962011	-2.696882	-0.593506	0.024658	-0.252197
674.0	11.12542	0.934065	6.935396	0.359465	1.950979	-2.686117	-0.577393	0.009521	-0.27002
675.0	11.092513	0.276607	5.88478	0.289555	1.881524	-2.620598	-0.563721	-0.005615	-0.278809
676.0	11.995755	-0.487255	4.822104	0.204927	1.779573	-2.525481	-0.554443	-0.018555	-0.301514
677.0	13.260502	-1.844319	3.587504	0.095997	1.693313	-2.385751	-0.544678	-0.040283	-0.310059
678.0	14.489976	-4.070499	1.811429	0.076218	1.633259	-2.25359	-0.529053	-0.046631	-0.330566
679.0	14.351114	-6.657784	-0.354897	0.23469	1.530911	-2.106646	-0.508789	-0.061768	-0.330322
680.0	12.954909	-8.087705	-2.24929	0.568151	1.280004	-1.931716	-0.512695	-0.074951	-0.345947
681.0	11.562953	-7.265196	-2.886108	0.823132	0.794144	-1.609085	-0.497314	-0.076904	-0.350586
682.0	11.191217	-5.482177	-2.226293	0.853615	0.157618	-1.080079	-0.505371	-0.090088	-0.352539
683.0	8.737262	-1.573349	0.051066	0.928518	-0.39571	-0.470018	-0.50293	-0.098877	-0.345459
684.0	5.298863	11.514325	4.201387	-1.512157	-2.864417	0.12985	-0.519043	-0.079346	-0.339111
685.0	5.488011	-6.623231	7.063352	-2.859355	-1.768605	0.97924	-0.527832	-0.074951	-0.327637
686.0	7.576819	3.174883	17.305484	0.111036	-2.383073	0.085437	-0.530518	-0.066406	-0.325684
687.0	-1.711434	3.314759	8.638947	-2.153972	-1.552324	0.575	-0.543701	-0.059814	-0.314209
688.0	-2.472934	-2.659269	2.277328	-0.805052	-2.283214	0.64734	-0.550781	-0.05127	-0.302979
689.0	2.829157	3.820621	10.421854	-0.538433	-2.795932	0.698296	-0.55957	-0.049072	-0.287109
690.0	6.276098	-0.751982	9.866682	-1.017265	-2.60854	0.621625	-0.564209	-0.040527	-0.280518
691.0	6.8299	0.196768	10.135131	-0.542911	-2.439907	0.511149	-0.57959	-0.03833	-0.266846
692.0	6.692821	2.427386	12.766354	-0.360596	-2.418424	0.564068	-0.584229	-0.03418	-0.253174
693.0	8.961457	2.995462	11.622917	-0.777666	-2.177517	0.70759	-0.593262	-0.027588	-0.244141
694.0	7.749978	2.890684	11.217696	-0.615683	-1.967927	0.673099	-0.5979	-0.02124	-0.235107
695.0	7.732024	4.035156	11.979109	-0.469215	-1.919461	0.462314	-0.602295	-0.02124	-0.221436
696.0	8.74982	4.642269	11.234128	-0.607605	-1.687601	0.332099	-0.611084	-0.016846	-0.217041
697.0	7.489731	2.411737	10.674959	-0.639971	-1.525926	0.237354	-0.613525	-0.014893	-0.205811
698.0	6.712531	1.533832	10.348324	-0.422508	-1.391025	0.197943	-0.615967	-0.006104	-0.201416
699.0	8.091479	7.384558	11.790024	0.149101	-1.164346	0.254434	-0.615723	-0.010498	-0.1875
700.0	11.112913	7.000313	9.716202	-1.937277	-0.483554	0.437193	-0.618164	-0.006104	-0.192139
701.0	3.473935	2.570428	8.519322	-0.569298	-0.599993	0.406014	-0.618164	-0.003906	-0.180908
702.0	5.854761	0.791696	9.108241	-1.208353	-0.42426	0.394611	-0.62085	0.006836	-0.181152
703.0	6.068871	2.537118	9.660009	-0.464315	-0.33248	0.329833	-0.625	0.000244	-0.183105
704.0	5.173591	1.55375	8.619566	-0.611303	-0.283385	0.301792	-0.619141	0.015625	-0.181152
705.0	5.365298	2.309893	9.360343	-0.462367	-0.224417	0.261758	-0.625488	0.013428	-0.181152
706.0	5.536442	1.922014	9.082319	-0.390097	-0.162844	0.216513	-0.62793	0.017822	-0.178955
707.0	5.308428	1.805242	9.023878	-0.314552	-0.087649	0.169669	-0.623535	0.015625	-0.174316
708.0	5.157542	2.012497	9.115908	-0.22256	-0.065137	0.115711	-0.623535	0.017822	-0.174316
709.0	5.080096	1.972808	8.977566	-0.16059	-0.034326	0.068804	-0.625732	0.017822	-0.178955
710.0	4.904873	2.42328	8.763958	-0.097589	-0.020232	0.029591	-0.628174	0.02002	-0.183594
711.0	4.694108	2.834551	8.645407	-0.095915	-0.005116	0.012481	-0.625977	0.02002	-0.185791
712.0	4.493184	2.950142	8.55765	-0.097803	-0.00585	0.013576	-0.621582	0.02002	-0.181396
713.0	4.654864	3.024233	8.581991	-0.122761	-0.006069	0.01795	-0.621582	0.02002	-0.181396
714.0	4.451263	2.683711	8.521299	-0.119437	-0.005797	0.022803	-0.619629	0.024414	-0.176758
715.0	4.422918	2.991572	8.38506	-0.120711	-0.010798	0.031746	-0.624023	0.026611	-0.181396
716.0	4.176384	3.094682	8.354115	-0.160197	-0.021279	0.052848	-0.625977	0.022217	-0.181396
717.0	4.317762	3.004509	8.335651	-0.217315	-0.040239	0.069495	-0.624023	0.028809	-0.179199
718.0	4.347103	2.741977	8.323291	-0.244679	-0.045572	0.085824	-0.621826	0.026611	-0.179199
719.0	4.311314	2.794406	8.400735	-0.260446	-0.060796	0.093412	-0.623779	0.022217	-0.174561
720.0	4.460231	2.587659	8.43311	-0.277897	-0.062633	0.098944	-0.624268	0.032959	-0.179199
721.0	4.519701	2.549831	8.641688	-0.24095	-0.062161	0.095617	-0.624023	0.026611	-0.167725
722.0	4.74021	2.336253	8.666725	-0.196369	-0.055528	0.084076	-0.619873	0.031006	-0.174805
723.0	4.642406	2.510456	8.546081	-0.133842	-0.039677	0.066392	-0.626221	0.028564	-0.172363
724.0	4.638444	2.44551	8.531935	-0.109993	-0.026072	0.058515	-0.624268	0.031006	-0.179199
725.0	4.662803	2.617686	8.452106	-0.086012	-0.018074	0.047674	-0.626465	0.030762	-0.172363
726.0	4.642708	2.593754	8.400289	-0.080811	0.003766	0.04589	-0.624512	0.035156	-0.177002
727.0	4.662358	2.560498	8.51267	-0.063052	0.021468	0.035246	-0.62207	0.031006	-0.177002
728.0	4.697186	2.471736	8.500845	-0.054089	0.0388	0.024697	-0.626465	0.030762	-0.174561
729.0	4.574229	2.482172	8.40448	-0.042089	0.061467	0.018445	-0.624512	0.035156	-0.172607
730.0	4.612516	2.501554	8.384415	-0.039933	0.06152	0.008574	-0.62207	0.031006	-0.179199
731.0	4.505534	2.622789	8.451338	-0.032833	0.06329	-0.006616	-0.628662	0.030762	-0.179199
732.0	4.460575	2.662354	8.52624	-0.03646	0.07268	-0.003606	-0.628662	0.030762	-0.177002
733.0	4.356918	2.767937	8.562776	-0.067443	0.072336	0.007158	-0.624268	0.031006	-0.183838
734.0	4.394595	2.859757	8.490526	-0.060233	0.051842	0.020897	-0.628906	0.037354	-0.181641
735.0	4.298526	2.774746	8.497394	-0.06713	0.026824	0.034727	-0.624023	0.028809	-0.181396
736.0	4.376718	2.843652	8.514227	-0.037781	-0.010282	0.051812	-0.62207	0.032959	-0.174805
737.0	4.39271	2.801227	8.552347	-0.024921	-0.013741	0.068039	-0.624512	0.035156	-0.177002
738.0	4.177706	2.783382	8.488643	0.005724	-0.050233	0.085573	-0.626709	0.037354	-0.172607
739.0	4.036562	2.890351	8.47251	0.018842	-0.079793	0.107868	-0.624512	0.035156	-0.174805
740.0	3.919351	2.972253	8.564137	0.044113	-0.13697	0.139368	-0.624512	0.039551	-0.17041
741.0	3.975833	3.002182	8.432557	0.047213	-0.179084	0.169402	-0.631104	0.039551	-0.172607
742.0	4.245602	2.846314	8.772598	0.016	-0.231952	0.208018	-0.624512	0.037354	-0.165771
743.0	4.581988	2.621573	8.957687	0.069686	-0.249801	0.218381	-0.62915	0.041748	-0.167969
744.0	4.1239	1.965947	9.198681	0.099667	-0.313098	0.253664	-0.631348	0.043945	-0.17041
745.0	4.400037	2.105151	9.244453	0.309219	-0.315946	0.392904	-0.628906	0.039551	-0.165771
746.0	2.504101	2.698011	10.201666	0.439093	-0.534373	0.67791	-0.626953	0.046143	-0.161377
747.0	1.394237	4.61373	11.019876	0.443083	-0.896583	0.681917	-0.631592	0.050537	-0.156738
748.0	2.093806	2.77829	10.9703	-0.12008	-1.665085	0.658758	-0.634033	0.054688	-0.143311
749.0	5.770738	3.271671	9.428938	0.327476	-1.780823	0.84157	-0.63623	0.054688	-0.136475
750.0	3.911576	0.379465	10.947367	0.242904	-2.115729	0.955307	-0.638916	0.069824	-0.12085
751.0	4.677872	2.304757	10.455192	0.744996	-2.515779	0.98416	-0.643555	0.072021	-0.107178
752.0	3.44996	2.790679	11.511778	0.727308	-3.074268	0.991169	-0.647949	0.074219	-0.08667
753.0	3.370434	3.592619	10.978122	0.828547	-3.831324	1.071203	-0.650391	0.082764	-0.059326
754.0	5.096064	5.482731	10.943476	0.549149	-4.831373	1.243529	-0.655273	0.093506	-0.034668
755.0	1.920391	2.931127	14.377984	0.292839	-5.302865	1.526479	-0.657715	0.100098	0.001709
756.0	4.946184	7.542448	11.944911	0.398066	-6.271152	1.802558	-0.654053	0.113037	0.040283
757.0	9.183737	8.466537	23.830898	0.366029	-5.987341	2.238669	-0.647949	0.124023	0.074219
758.0	5.200934	6.425846	12.195699	-0.40803	-6.243647	2.485971	-0.644287	0.141357	0.119385
759.0	7.879526	4.523147	18.770952	0.624471	-6.838271	2.715074	-0.629883	0.156494	0.151123
760.0	7.776238	7.280388	16.441142	0.667503	-6.804147	2.926725	-0.624512	0.184814	0.189209
761.0	6.434558	8.776897	14.876263	1.137441	-6.672433	3.175705	-0.611816	0.193604	0.225586
762.0	0.709741	14.911983	14.704962	-0.157252	-6.167468	3.638507	-0.589111	0.222168	0.256836
763.0	-7.374767	8.959238	5.131647	-1.835216	-6.273578	4.154792	-0.563721	0.241699	0.290527
764.0	0.64862	10.740694	4.293655	-1.244678	-7.518408	3.981633	-0.535889	0.254883	0.335938
765.0	27.077573	19.973249	30.855881	-0.833352	-4.932009	2.349734	-0.525146	0.25708	0.342773
766.0	18.069886	15.414501	29.970738	-2.027664	-0.9093	0.541878	-0.525146	0.254883	0.347168
767.0	7.082324	13.867813	25.861309	-1.861143	2.116983	-0.849124	-0.550293	0.233154	0.333984
768.0	-2.023282	6.891591	16.15818	-2.155372	3.801444	-1.371293	-0.562988	0.222168	0.306885
769.0	-7.166775	2.773449	8.962257	-1.535181	4.223945	-1.353363	-0.572998	0.202393	0.289063
770.0	-7.205532	1.978071	6.533661	-0.831753	4.116195	-1.058201	-0.588135	0.200195	0.257324
771.0	-5.795682	1.386249	6.13392	-0.450971	4.09722	-0.787705	-0.593994	0.187256	0.237061
772.0	-3.4005	1.572936	6.958711	-0.02286	4.179594	-0.592345	-0.602783	0.187256	0.200439
773.0	-0.75293	1.729907	8.52408	0.36535	4.404862	-0.504415	-0.61084	0.174072	0.171143
774.0	1.799496	2.54494	9.668336	0.693971	4.763367	-0.510765	-0.619873	0.17627	0.13916
775.0	4.397058	3.336131	10.166297	0.942341	5.209626	-0.556614	-0.625977	0.169922	0.096191
776.0	5.715841	3.704326	9.817143	1.112026	5.652786	-0.642964	-0.623535	0.16333	0.052979
777.0	6.470098	3.555746	8.985939	1.174107	5.928155	-0.728012	-0.62085	0.152588	0.005127
778.0	6.975554	3.382084	8.112991	1.298442	6.008874	-0.816984	-0.616211	0.144043	-0.033447
779.0	7.149263	3.212731	7.771756	1.362565	5.893196	-0.908931	-0.606934	0.133301	-0.074219
780.0	7.067662	3.205024	8.373289	1.441091	5.600291	-1.028181	-0.584473	0.118164	-0.112549
781.0	7.821838	2.989188	9.473387	1.509604	5.212914	-1.152895	-0.568848	0.107422	-0.133057
782.0	8.884358	2.863143	10.219226	1.567569	4.863403	-1.229376	-0.550781	0.09668	-0.160156
783.0	9.260247	2.751192	10.707529	1.617374	4.535569	-1.217097	-0.526123	0.07959	-0.18042
784.0	9.571291	3.03649	10.999461	1.618738	4.222649	-1.135415	-0.50415	0.077393	-0.182617
785.0	9.363775	3.259135	11.291243	1.597323	3.864444	-1.044607	-0.492676	0.062256	-0.186768
786.0	9.436336	3.709814	11.996936	1.523123	3.466765	-0.975372	-0.479248	0.055908	-0.182129
787.0	10.204815	4.144648	12.989522	1.448198	3.078221	-0.93455	-0.474365	0.044922	-0.184326
788.0	11.686751	4.262827	14.047833	1.448166	2.743227	-0.965274	-0.467773	0.042725	-0.179688
789.0	13.542511	4.07945	14.914536	1.554418	2.535404	-1.089548	-0.460205	0.020996	-0.172363
790.0	15.850594	3.92575	15.312466	1.793937	2.48643	-1.312274	-0.451172	0.016602	-0.172363
791.0	18.357643	4.07682	15.615779	2.078156	2.643139	-1.619667	-0.446533	0.008057	-0.169922
792.0	20.530842	4.051605	15.439653	2.32295	2.986857	-1.976664	-0.44165	-0.000732	-0.181152
793.0	20.953292	3.866938	13.974935	2.418904	3.46922	-2.334129	-0.427734	-0.022461	-0.180664
794.0	19.509398	2.510089	11.225909	2.353554	3.841985	-2.647842	-0.420654	-0.033203	-0.187256
795.0	17.637481	0.220187	8.037947	2.280082	3.970276	-2.916303	-0.411377	-0.04834	-0.198486
796.0	16.690087	-1.418093	5.660406	2.275201	3.839236	-3.13284	-0.399902	-0.061523	-0.209717
797.0	16.82741	-2.065164	3.642673	2.114169	3.532472	-3.243379	-0.390137	-0.083252	-0.216064
798.0	17.754344	-2.404593	1.320342	1.686787	3.123033	-3.200515	-0.383057	-0.091797	-0.21582
799.0	19.677815	-3.427088	-1.626026	1.022459	2.659837	-2.978624	-0.375977	-0.107178	-0.215576
800.0	21.709352	-6.035249	-4.785638	0.282901	2.215601	-2.60253	-0.364502	-0.11792	-0.229004
801.0	21.654163	-9.5062	-7.797707	-0.184692	1.695098	-2.119553	-0.357666	-0.124512	-0.224365
802.0	19.300209	-11.555205	-9.107846	-0.224115	0.906421	-1.623777	-0.351074	-0.128662	-0.221924
803.0	17.682546	-10.868328	-7.655732	-0.03856	-0.116395	-1.109475	-0.353271	-0.124512	-0.212891
804.0	18.905102	-7.995084	-4.114369	0.028443	-0.983894	-0.57142	-0.357666	-0.126709	-0.203857
805.0	5.888907	-1.01442	5.82584	-0.03143	-1.486901	0.130714	-0.353516	-0.122314	-0.190186
806.0	1.168466	8.596667	14.97025	-0.59285	-3.973071	1.060144	-0.354248	-0.107178	-0.179199
807.0	-0.459701	-2.391404	11.00007	-0.155692	-1.360115	1.248829	-0.356445	-0.10498	-0.16333
808.0	-14.247034	15.107532	2.645307	-0.551838	-3.872647	1.897526	-0.368164	-0.085449	-0.145264
809.0	6.633073	-0.620211	2.338497	-3.305377	-4.360562	2.543203	-0.368652	-0.072266	-0.127441
810.0	15.706203	1.791769	12.668977	-0.467907	-3.99254	1.602953	-0.371582	-0.059326	-0.102539
811.0	11.075032	1.312085	12.071338	-1.85061	-3.27441	1.038779	-0.361084	-0.050537	-0.08667
812.0	4.936042	0.39839	11.280655	-0.422355	-3.381563	0.784319	-0.361328	-0.041992	-0.071045
813.0	9.678934	2.66005	12.109728	-1.177823	-3.442176	1.034037	-0.357178	-0.039795	-0.045898
814.0	10.080387	1.750444	12.52842	-0.769557	-3.081626	1.105484	-0.353027	-0.031006	-0.030273
815.0	10.889603	5.080917	13.180618	-0.682965	-2.820093	1.011859	-0.348877	-0.031006	-0.011963
816.0	11.121162	6.187967	12.316788	-1.06238	-2.456992	0.898245	-0.344971	-0.020264	-0.005371
817.0	10.329159	-0.019575	13.029585	-1.053991	-2.145443	0.750967	-0.344971	-0.018066	0.010498
818.0	12.510034	3.930297	16.295684	0.495699	-1.782134	0.592288	-0.336182	-0.018066	0.021973
819.0	19.789344	9.049593	12.342909	-2.639595	-0.570985	0.525192	-0.334229	-0.013672	0.02417
820.0	2.374902	-0.946628	8.851228	-0.3045	-0.778961	0.402427	-0.327881	-0.011475	0.026367
821.0	7.123886	2.708023	10.144792	-1.117206	-0.417057	0.363408	-0.325439	-0.017822	0.028809
822.0	6.456272	3.317331	9.216321	-0.346522	-0.375777	0.287873	-0.325684	-0.009277	0.026367
823.0	5.795518	0.982537	8.850726	-0.676537	-0.274681	0.260402	-0.325684	-0.013672	0.026367
824.0	5.43826	2.79636	9.344467	-0.359003	-0.167761	0.179455	-0.328125	-0.004883	0.026123
825.0	4.778027	2.889774	8.560717	-0.313708	-0.136496	0.151913	-0.332275	-0.009277	0.030762
826.0	4.746965	2.655803	8.660026	-0.33006	-0.118196	0.12636	-0.32373	-0.00708	0.030762
827.0	4.661974	2.821448	8.700964	-0.251171	-0.109967	0.092049	-0.32373	-0.004883	0.028564
828.0	4.629336	2.8463	8.66965	-0.203298	-0.108343	0.065941	-0.328125	-0.004883	0.032959
829.0	4.704104	2.789151	8.524138	-0.153329	-0.105046	0.045975	-0.321289	-0.011475	0.0354
830.0	4.539581	2.784955	8.665256	-0.118955	-0.10004	0.026742	-0.317139	-0.006836	0.028564
831.0	4.551084	2.812565	8.605802	-0.088831	-0.094609	0.012987	-0.321289	-0.009277	0.033203
832.0	4.309065	3.038387	8.579681	-0.078978	-0.105241	0.00554	-0.319336	-0.009033	0.026367
833.0	4.34405	2.892425	8.612737	-0.105456	-0.117724	0.005247	-0.32373	-0.00708	0.0354
834.0	4.404502	3.019874	8.412677	-0.096289	-0.122311	0.005815	-0.32373	-0.00708	0.028564
835.0	4.567304	2.784176	8.413159	-0.122043	-0.120558	0.000562	-0.325928	-0.00708	0.030762
836.0	4.377218	2.732494	8.458057	-0.102671	-0.120747	-0.002487	-0.319336	-0.009277	0.037598
837.0	4.558315	2.708803	8.471555	-0.081667	-0.121116	-0.013872	-0.323486	-0.011475	0.0354
838.0	4.462059	2.889685	8.338186	-0.050877	-0.119465	-0.016132	-0.319336	-0.004883	0.032959
839.0	4.533401	2.888565	8.420953	-0.055756	-0.117961	-0.014697	-0.317139	-0.00708	0.0354
840.0	4.702334	2.961461	8.307072	-0.029517	-0.101428	-0.009634	-0.321777	-0.002686	0.039795
841.0	4.621883	3.106166	8.313831	-0.012437	-0.089563	-0.007723	-0.321289	-0.011475	0.037842
842.0	4.688991	3.18079	8.340443	0.003233	-0.083172	-0.000369	-0.321533	-0.004883	0.037598
843.0	4.651103	3.228976	8.305442	-0.008557	-0.078102	0.014154	-0.323486	-0.009277	0.033203
844.0	4.541331	3.192979	8.360048	-0.027602	-0.058343	0.029576	-0.321533	-0.00708	0.033203
845.0	4.571685	3.142025	8.307568	-0.032085	-0.057078	0.043838	-0.321533	-0.004883	0.039795
846.0	4.674183	2.951187	8.393967	-0.048711	-0.048934	0.0579	-0.317139	-0.00708	0.040039
847.0	4.523325	2.824926	8.37105	-0.025338	-0.03311	0.052881	-0.319336	-0.004883	0.039795
848.0	4.56468	3.070816	8.309204	-0.030729	-0.04375	0.060873	-0.321777	-0.002686	0.037598
849.0	4.44964	3.165507	8.123421	-0.051592	-0.0401	0.068341	-0.319336	-0.00708	0.0354
850.0	4.561186	3.072048	8.298143	-0.076135	-0.048379	0.081025	-0.319336	-0.00708	0.0354
851.0	4.497545	3.007559	8.198239	-0.078055	-0.043031	0.088636	-0.317139	-0.004883	0.044434
852.0	4.521001	3.028257	8.282704	-0.09646	-0.047751	0.090774	-0.317139	-0.00708	0.044434
853.0	4.52592	2.967504	8.209753	-0.104257	-0.056004	0.097493	-0.314941	-0.009277	0.044434
854.0	4.409859	2.989711	8.272099	-0.113385	-0.051282	0.096901	-0.315186	-0.002686	0.037598
855.0	4.400769	3.167869	8.253845	-0.083925	-0.071738	0.096346	-0.317139	-0.00708	0.040039
856.0	4.295453	3.142593	8.281966	-0.088478	-0.090586	0.107242	-0.312988	-0.004883	0.044434
857.0	4.374532	3.310868	8.297993	-0.060693	-0.12934	0.127623	-0.31958	-0.002686	0.049072
858.0	4.459239	3.599399	8.330631	-0.068752	-0.171621	0.152061	-0.311035	0.003906	0.044189
859.0	4.030068	3.380136	8.653468	-0.091062	-0.205456	0.216468	-0.31543	0.001709	0.048828
860.0	4.005116	2.804567	8.872175	-0.075056	-0.292238	0.272602	-0.312988	-0.000488	0.048828
861.0	4.145972	2.906789	9.027925	-0.029944	-0.34985	0.393944	-0.310791	-0.000488	0.055664
862.0	3.678721	2.858034	9.309821	0.074671	-0.465857	0.600717	-0.308838	0.001709	0.055664
863.0	1.969275	4.613952	10.305544	0.154134	-0.734335	0.690917	-0.311035	0.003906	0.064697
864.0	2.282275	3.453044	10.320478	-0.416371	-1.355004	0.620024	-0.311279	0.006104	0.071533
865.0	4.310824	3.334351	9.462129	0.017618	-1.511976	0.783794	-0.311035	0.001709	0.073975
866.0	5.035041	2.035727	9.879243	-0.24515	-1.726533	0.834213	-0.309082	0.006104	0.085205
867.0	4.458733	2.899976	10.251364	0.088794	-2.084371	0.950542	-0.315674	0.008057	0.09668
868.0	3.678658	3.051972	11.078437	0.069353	-2.490142	1.097555	-0.313721	0.012451	0.114746
869.0	3.801015	3.589311	10.984565	0.21035	-3.166412	1.16616	-0.313721	0.014648	0.128418
870.0	5.140617	4.719972	7.6859	0.535516	-3.94328	1.321283	-0.311768	0.019043	0.14209
871.0	4.95012	1.876977	13.501964	-0.037149	-4.353588	1.591135	-0.30957	0.019043	0.166992
872.0	3.371404	2.723485	13.349095	0.855924	-5.221195	1.664014	-0.30127	0.027588	0.196533
873.0	4.171446	6.03173	13.16329	-0.053224	-5.950616	1.888918	-0.298828	0.023193	0.22168
874.0	8.619526	6.353037	22.220127	0.776439	-6.303899	2.392362	-0.297119	0.036133	0.255615
875.0	5.507444	6.553373	13.140121	0.117143	-6.397186	2.645229	-0.288574	0.040527	0.294189
876.0	6.956917	4.413884	17.999912	0.990515	-7.270437	2.911935	-0.282471	0.049316	0.332764
877.0	8.424601	6.551975	17.667604	1.363299	-7.328455	3.169317	-0.265381	0.055908	0.369141
878.0	7.286091	8.665372	17.306855	1.838198	-7.290932	3.472125	-0.257568	0.077637	0.400635
879.0	3.89532	15.043997	17.921671	1.096783	-6.768117	3.933463	-0.240479	0.084229	0.432373
880.0	-5.015103	12.863094	11.526028	-0.686494	-6.477637	4.500052	-0.22998	0.094971	0.468506
881.0	-8.094623	13.399228	2.646705	-0.679383	-7.024584	4.556393	-0.199463	0.093018	0.502686
882.0	38.949075	28.387787	32.516814	-0.271752	-6.199108	1.969855	-0.195068	0.093018	0.520996
883.0	18.643645	23.318397	33.790106	-3.137674	0.02092	-0.655134	-0.224854	0.077393	0.528076
884.0	6.610191	17.19883	26.170839	-3.015227	3.046731	-2.318791	-0.267334	0.051025	0.528809
885.0	-5.62343	5.007308	13.217755	-3.586197	4.350079	-2.626898	-0.298584	0.020264	0.513428
886.0	-8.072241	0.42062	8.618208	-2.406077	4.188635	-2.341514	-0.337158	0.004883	0.5
887.0	-7.124229	-1.54747	6.472985	-1.734167	4.026796	-1.818194	-0.36499	-0.010498	0.477539
888.0	-4.917289	-2.265675	6.982268	-0.821097	4.027314	-1.379558	-0.386475	-0.01709	0.450439
889.0	-2.183131	-1.738706	8.062629	-0.043859	4.247945	-1.064268	-0.405762	-0.021729	0.432373
890.0	0.341071	-0.374954	9.481613	0.604413	4.610101	-0.872223	-0.419189	-0.017334	0.395752
891.0	2.840672	1.255433	9.928293	1.072704	5.053469	-0.770159	-0.435059	-0.00415	0.354492
892.0	5.041837	2.96961	9.669207	1.318939	5.538237	-0.721567	-0.447021	0.021973	0.317627
893.0	6.588839	4.455537	8.722758	1.328468	5.950488	-0.688934	-0.463135	0.039551	0.271729
894.0	7.78002	5.268027	7.928843	1.156748	6.190222	-0.659997	-0.453369	0.065918	0.223145
895.0	8.569206	5.406196	7.253548	0.953616	6.258785	-0.656633	-0.459717	0.107422	0.167725
896.0	9.143621	5.053645	7.082039	0.801226	6.178817	-0.697407	-0.447754	0.135986	0.112549
897.0	9.751505	4.708634	7.428754	0.781563	6.006406	-0.77652	-0.429199	0.1604	0.054932
898.0	10.293343	4.068141	8.25569	0.873524	5.772688	-0.865188	-0.401611	0.175781	0.018311
899.0	11.133064	2.980644	8.797608	1.116505	5.503188	-0.888841	-0.349365	0.178467	0.009033
900.0	11.567621	2.516575	8.957188	1.508348	5.261183	-0.807326	-0.316895	0.185059	0.013428
901.0	11.644683	2.55354	9.05756	1.952887	4.973113	-0.664194	-0.302246	0.193848	0.067871
902.0	12.162014	3.501889	9.703873	2.360102	4.670665	-0.570061	-0.324707	0.210938	0.122314
903.0	12.479365	5.253538	10.575792	2.600817	4.41608	-0.581936	-0.387207	0.243164	0.155762
904.0	12.082417	6.593077	11.17264	2.5637	4.155791	-0.71883	-0.471436	0.270996	0.159912
905.0	11.685183	6.950431	11.489416	2.391691	3.834652	-0.942759	-0.57251	0.288086	0.134766
906.0	11.754141	6.804478	12.10297	2.186452	3.486634	-1.227072	-0.652832	0.283203	0.05957
907.0	12.794936	6.537282	12.887794	2.025036	3.173133	-1.545791	-0.715088	0.26123	-0.012695
908.0	14.495806	6.038335	13.33616	1.851731	2.951017	-1.866312	-0.741699	0.221924	-0.093994
909.0	16.047197	4.997042	13.180558	1.73192	2.871681	-2.179751	-0.756836	0.169678	-0.17041
910.0	17.086473	3.555151	12.057358	1.471158	2.786059	-2.413423	-0.752686	0.124023	-0.233398
911.0	17.934929	0.920233	10.682347	1.745998	3.001723	-2.695852	-0.739258	0.067627	-0.286865
912.0	18.237131	-0.373208	9.389984	1.735401	3.067715	-2.910948	-0.721924	0.019775	-0.336182
913.0	18.564723	-1.187245	7.196057	1.779145	3.025937	-3.026513	-0.695801	-0.028076	-0.371826
914.0	18.973402	-1.879501	4.144255	1.653791	2.844435	-3.037183	-0.665771	-0.066895	-0.405273
915.0	20.226442	-2.315133	1.219607	1.376615	2.510631	-2.927134	-0.650391	-0.114746	-0.429199
916.0	22.345695	-3.98754	-2.476704	0.899837	2.087316	-2.690077	-0.625244	-0.140869	-0.447021
917.0	23.689511	-7.310897	-6.136659	0.554891	1.535563	-2.401029	-0.604248	-0.171143	-0.458008
918.0	22.633796	-10.104052	-8.644072	0.478352	0.833451	-2.083491	-0.588379	-0.186279	-0.468994
919.0	20.368046	-10.702047	-8.734618	0.586975	-0.144865	-1.695461	-0.582764	-0.2146	-0.4729
920.0	10.53253	-2.929256	-2.10371	0.641389	-1.513558	-1.145366	-0.586426	-0.227783	-0.468262
921.0	9.380408	6.735622	-5.081724	-2.625881	-5.073261	-0.128549	-0.615234	-0.217285	-0.447754
922.0	6.345768	-12.841479	13.195235	-0.310083	-2.927795	0.321797	-0.625732	-0.230469	-0.436279
923.0	-2.507194	13.150431	19.489704	0.29699	-3.345567	0.120581	-0.647461	-0.228271	-0.420166
924.0	-0.052825	2.198785	-0.347274	-4.005876	-4.43141	1.501391	-0.663574	-0.20874	-0.413818
925.0	8.603079	-5.356464	6.467206	-1.392956	-4.44391	1.599874	-0.687988	-0.200195	-0.395752
926.0	15.422001	0.076274	17.093192	-2.001444	-3.745318	1.209142	-0.706055	-0.189453	-0.38208
927.0	8.780501	-5.898759	11.069473	-1.270983	-3.313537	0.807304	-0.721191	-0.189697	-0.366211
928.0	7.245504	-0.108206	13.46655	-1.058102	-3.474292	1.017502	-0.734619	-0.18335	-0.348145
929.0	9.921094	-0.735623	12.763587	-0.995433	-3.14597	1.320622	-0.754395	-0.178955	-0.33667
930.0	9.202086	3.083728	12.807246	-0.65302	-2.896467	1.31811	-0.768066	-0.166016	-0.318848
931.0	9.978233	9.271529	11.4128	-0.892107	-2.705218	1.187764	-0.7771	-0.161865	-0.302979
932.0	8.801029	3.361405	10.301815	-1.460302	-2.499224	1.016056	-0.790527	-0.15332	-0.298584
933.0	14.543037	9.440443	17.926548	0.382265	-2.273127	0.839555	-0.805908	-0.151123	-0.275635
934.0	22.238646	7.810864	11.389051	-4.423301	-0.783075	0.938663	-0.800293	-0.127197	-0.2854
935.0	2.268918	-6.493527	9.924132	-0.512822	-1.081802	0.717349	-0.80249	-0.129395	-0.276123
936.0	9.220582	2.403343	11.940946	-1.46565	-0.49196	0.570149	-0.811523	-0.118408	-0.278564
937.0	7.621723	1.465944	9.043917	-0.537102	-0.445843	0.428805	-0.80957	-0.116211	-0.27417
938.0	6.472736	0.036609	9.578289	-0.937274	-0.232226	0.341572	-0.812012	-0.111816	-0.276367
939.0	5.721857	2.91504	9.643215	-0.368993	-0.110843	0.246535	-0.814209	-0.109863	-0.276611
940.0	4.871236	1.933302	8.723447	-0.514875	-0.057423	0.207555	-0.807861	-0.105469	-0.274414
941.0	5.084131	2.140561	9.130323	-0.409632	-0.052277	0.154285	-0.814453	-0.105469	-0.274414
942.0	4.867787	2.386819	8.742046	-0.297502	-0.037702	0.112554	-0.814697	-0.101074	-0.274414
943.0	4.638645	2.371542	8.776157	-0.284028	-0.029386	0.088268	-0.8125	-0.098877	-0.274414
944.0	4.664892	2.487427	8.799305	-0.217074	-0.032978	0.071129	-0.814697	-0.09668	-0.276855
945.0	4.773896	2.339309	8.666426	-0.167102	-0.035998	0.050541	-0.814697	-0.098877	-0.276855
946.0	4.5992	2.657529	8.589724	-0.125405	-0.033266	0.038768	-0.812744	-0.094482	-0.276855
947.0	4.559754	2.448012	8.573395	-0.118465	-0.030138	0.035959	-0.810059	-0.103271	-0.272217
948.0	4.620361	2.447532	8.561306	-0.087876	-0.025312	0.026656	-0.8125	-0.09668	-0.274414
949.0	4.568222	2.553807	8.409226	-0.062825	-0.024271	0.026205	-0.818848	-0.101074	-0.276611
950.0	4.352238	2.63177	8.469758	-0.067418	-0.015503	0.027215	-0.812744	-0.094482	-0.274658
951.0	4.542203	2.616569	8.467862	-0.081121	-0.029192	0.027924	-0.814697	-0.098877	-0.274414
952.0	4.580194	2.521933	8.511546	-0.060787	-0.01975	0.024863	-0.819092	-0.098877	-0.274414
953.0	4.431878	2.45457	8.398715	-0.049954	-0.024236	0.017067	-0.817139	-0.092285	-0.27002
954.0	4.591386	2.560659	8.397744	-0.039263	-0.019527	0.012142	-0.814941	-0.092285	-0.274658
955.0	4.562431	2.61044	8.35151	-0.039493	-0.007312	0.007507	-0.814941	-0.094482	-0.276855
956.0	4.692816	2.567762	8.390288	-0.063319	-0.014156	-0.005603	-0.814941	-0.094482	-0.281494
957.0	4.620633	2.782961	8.383218	-0.03011	0.052928	0.003332	-0.821533	-0.094482	-0.274414
958.0	4.558053	2.532978	8.309024	-0.075499	0.029669	0.004086	-0.812744	-0.094482	-0.279053
959.0	4.516655	2.534265	8.511655	-0.059966	0.050549	-0.009045	-0.821289	-0.09668	-0.279053
960.0	4.544421	2.559134	8.451619	-0.058255	0.046019	-0.008004	-0.814941	-0.092285	-0.276855
961.0	4.424995	2.578635	8.558146	-0.056565	0.051009	-0.000433	-0.814941	-0.092285	-0.281494
962.0	4.471648	2.756301	8.418177	-0.035109	0.033111	0.011727	-0.81958	-0.087891	-0.281494
963.0	4.348905	2.746287	8.478458	-0.022895	0.0389	0.03636	-0.816895	-0.09668	-0.283691
964.0	4.260627	2.852088	8.495327	0.005806	0.010487	0.055984	-0.812744	-0.092285	-0.279053
965.0	4.356703	2.834094	8.441929	-0.001145	-0.0152	0.071224	-0.817139	-0.094482	-0.276855
966.0	4.10955	2.759694	8.597585	0.027133	-0.048155	0.105466	-0.817383	-0.090088	-0.274658
967.0	4.028249	2.920982	8.585508	0.033906	-0.109831	0.132729	-0.819336	-0.092285	-0.276855
968.0	3.999785	3.075976	8.675462	0.040142	-0.176292	0.170907	-0.817383	-0.090088	-0.274658
969.0	4.261124	3.001472	8.659152	0.069272	-0.225646	0.195628	-0.821533	-0.090088	-0.274658
970.0	4.100798	2.991123	8.940862	0.062479	-0.271739	0.246493	-0.826172	-0.088135	-0.272461
971.0	4.402211	2.139799	8.833405	0.142415	-0.287005	0.357927	-0.823975	-0.087891	-0.27002
972.0	3.984886	2.254131	9.361627	0.398811	-0.337881	0.479339	-0.824219	-0.081543	-0.26123
973.0	3.360432	1.947398	9.792279	0.41824	-0.569264	0.584501	-0.830811	-0.079346	-0.263428
974.0	1.851611	3.481446	10.821613	0.51623	-0.867969	0.541223	-0.828857	-0.077148	-0.252197
975.0	1.965058	3.005969	10.792751	-0.019275	-1.591307	0.437409	-0.835449	-0.072998	-0.240723
976.0	5.955313	3.877156	8.788502	0.363973	-1.733109	0.582813	-0.837646	-0.070801	-0.222656
977.0	4.232512	1.832981	10.399539	0.086637	-1.89481	0.659584	-0.846924	-0.062012	-0.213623
978.0	4.534229	3.537732	10.302647	0.351074	-2.260395	0.754072	-0.847168	-0.053467	-0.188721
979.0	3.525752	2.164084	11.074103	0.276649	-2.781042	0.898051	-0.855957	-0.053467	-0.163574
980.0	3.564594	2.530531	11.607668	0.662688	-3.414908	1.043704	-0.860596	-0.047119	-0.140869
981.0	5.678232	5.504457	8.681291	0.775316	-4.373844	1.136576	-0.863281	-0.036377	-0.093262
982.0	2.395655	2.557089	12.885315	0.242506	-4.8118	1.409629	-0.866211	-0.02124	-0.057129
983.0	3.024201	5.43111	14.491634	0.582901	-5.721429	1.635215	-0.868408	-0.016846	-0.004883
984.0	6.641214	5.201105	13.61974	0.039159	-6.446474	1.934984	-0.865234	0.009033	0.044922
985.0	7.355532	10.403217	24.195555	0.211306	-6.383096	2.305911	-0.859375	0.024414	0.087891
986.0	5.659937	4.330536	10.952079	-0.623708	-6.921879	2.614777	-0.847656	0.052734	0.151123
987.0	7.648237	7.20078	20.887271	0.952454	-7.456937	2.817997	-0.824463	0.074463	0.20752
988.0	8.170044	6.824092	16.760233	0.500751	-7.427486	3.129726	-0.799561	0.100586	0.259521
989.0	6.272041	11.650293	20.23388	1.318949	-7.298758	3.448264	-0.767822	0.122559	0.304688
990.0	-1.190073	15.048683	16.786386	-0.575736	-6.625151	3.971109	-0.736572	0.15332	0.344971
991.0	-11.42779	9.867107	7.663179	-1.562529	-6.830887	4.499343	-0.704346	0.168701	0.385742
992.0	2.278238	11.606992	6.496039	-1.112035	-8.685566	4.469235	-0.655273	0.190674	0.430664
993.0	39.644006	21.676286	41.816177	-0.473907	-4.469088	2.62838	-0.631348	0.190674	0.4375
994.0	21.424886	16.686647	37.567429	-1.445801	0.929573	0.511402	-0.624512	0.186523	0.416992
995.0	6.83433	14.990256	27.596093	-1.384895	4.32464	-0.842072	-0.628174	0.171387	0.376465
996.0	-6.869913	6.625337	13.311622	-1.268911	5.492907	-1.114841	-0.634277	0.1604	0.337891
997.0	-10.308884	3.159964	7.132831	-0.522002	5.343782	-0.967149	-0.633789	0.151855	0.30835
998.0	-9.278023	2.228691	5.413874	0.258283	4.761676	-0.619619	-0.629639	0.151855	0.265137
999.0	-6.226237	1.367244	6.023396	0.752765	4.523615	-0.417892	-0.627686	0.156494	0.246826
1000.0	-2.655658	1.387425	7.981789	1.295558	4.513742	-0.404295	-0.630371	0.169678	0.203125
1001.0	0.245108	2.423302	9.820845	1.797756	4.74228	-0.5344	-0.621338	0.165283	0.176025
1002.0	3.323445	4.423223	10.970969	2.090188	5.122831	-0.766357	-0.613281	0.178467	0.13916
1003.0	5.955658	6.015031	10.990651	1.997188	5.596725	-1.057444	-0.61084	0.174316	0.107422
1004.0	6.960094	6.407784	10.036978	1.707414	6.012828	-1.34564	-0.606689	0.176514	0.070801
1005.0	7.388158	5.383837	8.735006	1.390939	6.196321	-1.553662	-0.606689	0.178955	0.034424
1006.0	7.870926	4.180209	7.665761	1.210823	6.16776	-1.664721	-0.600342	0.181152	0.002441
1007.0	7.835617	3.183792	7.222486	1.155162	5.953671	-1.723784	-0.598389	0.18335	-0.029541
1008.0	7.5492	2.563434	8.067493	1.212613	5.540951	-1.760398	-0.596191	0.187988	-0.054688
1009.0	8.342005	2.060881	9.335029	1.335894	5.100912	-1.745073	-0.598389	0.183594	-0.079834
1010.0	9.267212	2.027902	9.997131	1.535246	4.756413	-1.678978	-0.598633	0.190186	-0.111816
1011.0	9.620681	2.127999	10.530211	1.729104	4.472589	-1.577528	-0.600586	0.187988	-0.134521
1012.0	9.814886	2.527443	11.051497	1.92462	4.175508	-1.484174	-0.602783	0.186035	-0.164063
1013.0	9.881152	3.053355	11.865568	2.104435	3.82072	-1.429634	-0.607178	0.188232	-0.198242
1014.0	10.703656	3.699305	13.134924	2.309095	3.446577	-1.425981	-0.609131	0.181641	-0.223145
1015.0	12.033615	4.57492	14.432045	2.471549	3.154079	-1.485878	-0.619629	0.173096	-0.252686
1016.0	13.646808	5.86186	15.43462	2.597729	2.960921	-1.615604	-0.608154	0.159912	-0.279785
1017.0	15.566493	6.964844	16.114682	2.578828	2.873291	-1.791252	-0.614014	0.142578	-0.309082
1018.0	18.734265	8.036791	16.956523	2.482615	2.892111	-2.054494	-0.613281	0.125244	-0.331543
1019.0	21.925785	8.067132	17.273329	2.199899	3.131828	-2.393736	-0.614258	0.099121	-0.374268
1020.0	23.977384	6.845341	16.031241	1.859827	3.561489	-2.77626	-0.602539	0.083984	-0.403564
1021.0	23.867489	4.470116	13.011866	1.558912	4.013682	-3.130633	-0.590088	0.049316	-0.439453
1022.0	22.539379	1.49859	9.031784	1.311479	4.287418	-3.405833	-0.575928	0.023193	-0.473145
1023.0	21.201241	-1.224796	5.240936	1.220879	4.21598	-3.546322	-0.552979	-0.004883	-0.509033
1024.0	21.377664	-2.945201	1.77866	1.158025	3.796768	-3.566989	-0.536621	-0.028809	-0.53833
1025.0	24.35468	-4.695956	-2.025216	0.940599	3.241221	-3.397654	-0.515381	-0.063477	-0.562744
1026.0	28.993467	-8.264711	-6.983627	0.663493	2.753765	-3.105446	-0.488281	-0.082764	-0.582764
1027.0	29.996512	-13.201789	-12.466104	0.676991	2.317067	-2.713367	-0.480713	-0.108887	-0.595947
1028.0	25.386604	-15.760578	-14.974884	1.163883	1.382147	-2.246199	-0.471436	-0.117676	-0.607178
1029.0	21.31809	-12.664768	-13.113521	1.531734	-0.069976	-1.555475	-0.470459	-0.139404	-0.606934
1030.0	21.367462	-7.05319	-8.499034	1.313261	-1.400713	-0.781979	-0.483154	-0.148193	-0.604248
1031.0	20.939602	2.434733	-1.959599	0.682722	-2.018655	-0.197219	-0.500244	-0.157227	-0.597412
1032.0	-15.336381	31.537403	48.740642	0.591377	-1.969798	0.304019	-0.524902	-0.144287	-0.583984
1033.0	8.515051	-15.693661	-4.545897	-5.863032	-2.324748	0.038535	-0.525391	-0.128906	-0.595459
1034.0	-30.550013	8.79032	-10.707237	3.418666	-1.356809	0.18849	-0.557861	-0.135742	-0.577148
1035.0	-2.863024	7.725938	12.064341	-4.404302	-10.199701	1.950654	-0.614258	-0.094727	-0.536865
1036.0	27.882865	-9.960843	4.731521	-1.777554	-4.340049	1.283874	-0.647217	-0.090576	-0.51416
1037.0	16.306617	1.012957	16.506283	-1.678225	-4.166795	0.737021	-0.663574	-0.06665	-0.500977
1038.0	5.65428	-5.797787	12.15689	-1.394514	-3.963509	1.026215	-0.694336	-0.060547	-0.471436
1039.0	9.689822	-1.787804	13.846042	-1.545693	-3.806869	1.49063	-0.718994	-0.043213	-0.448975
1040.0	9.143716	-1.99271	12.1861	-0.914356	-3.464779	1.676994	-0.735107	-0.028076	-0.435547
1041.0	13.112284	8.338754	13.424814	-0.64724	-3.275434	1.539421	-0.757324	-0.017334	-0.412842
1042.0	13.424676	7.989283	13.222002	-1.75963	-2.766357	1.598376	-0.767334	0.012939	-0.393066
1043.0	12.80601	2.666539	13.808877	-0.49692	-2.286929	1.214012	-0.780273	0.010742	-0.37915
1044.0	30.413231	15.223805	20.394431	-3.067718	-1.269231	0.968904	-0.779541	0.043457	-0.377686
1045.0	1.10494	-10.185497	7.085038	-1.592547	-0.547584	0.815353	-0.786133	0.043457	-0.375244
1046.0	9.834166	5.158863	13.660483	-0.544239	-0.624298	0.520769	-0.786865	0.056396	-0.364258
1047.0	6.655224	1.199997	7.23741	-0.988014	-0.508511	0.466685	-0.789307	0.062988	-0.371094
1048.0	5.894418	1.923617	10.489904	-0.952889	-0.353961	0.391206	-0.793945	0.071777	-0.359863
1049.0	5.732907	1.656175	9.34151	-0.460835	-0.224358	0.283861	-0.791748	0.071777	-0.357666
1050.0	4.71506	2.216973	8.872215	-0.556969	-0.19232	0.220446	-0.796387	0.076172	-0.357666
1051.0	4.745759	2.729604	9.121849	-0.39635	-0.197362	0.1784	-0.790039	0.080566	-0.360107
1052.0	4.95071	2.717833	8.762213	-0.34579	-0.18228	0.154103	-0.796631	0.080322	-0.357666
1053.0	5.058943	2.426348	8.875826	-0.284143	-0.136544	0.123026	-0.798828	0.080322	-0.360107
1054.0	4.918952	2.521734	8.771851	-0.175621	-0.111816	0.084531	-0.796875	0.086914	-0.353271
1055.0	4.732413	2.505531	8.731024	-0.146402	-0.093448	0.058726	-0.794678	0.084717	-0.348633
1056.0	4.692854	2.578883	8.644193	-0.112908	-0.083604	0.037308	-0.796875	0.086914	-0.353271
1057.0	4.744632	2.49079	8.628646	-0.080544	-0.068779	0.01689	-0.801025	0.08252	-0.351074
1058.0	4.574153	2.834252	8.497852	-0.045165	-0.064825	0.002291	-0.796631	0.08252	-0.353271
1059.0	4.53599	2.887986	8.538697	-0.057232	-0.074493	0.003383	-0.799072	0.086914	-0.348877
1060.0	4.666246	2.748087	8.543472	-0.034109	-0.067008	-0.003872	-0.794678	0.086914	-0.346436
1061.0	4.644345	2.824531	8.406518	-0.019083	-0.058115	-0.011006	-0.803467	0.091309	-0.344238
1062.0	4.594609	2.88389	8.406073	-0.012013	-0.052508	-0.00844	-0.794922	0.091309	-0.34668
1063.0	4.642019	2.825847	8.361472	0.007287	-0.031537	-0.005511	-0.80127	0.089111	-0.344238
1064.0	4.461365	2.853277	8.275515	0.011295	-0.006574	0.007118	-0.801514	0.091309	-0.351074
1065.0	4.507934	3.065281	8.173077	-0.008573	0.006732	0.025161	-0.796631	0.084717	-0.351074
1066.0	4.656292	2.96895	8.148216	-0.03802	0.039015	0.04319	-0.80127	0.086914	-0.344238
1067.0	4.42227	2.841994	8.217095	-0.064877	0.069334	0.066106	-0.799072	0.086914	-0.351074
1068.0	4.320211	2.812297	8.231072	-0.103408	0.074115	0.095117	-0.797119	0.093506	-0.351074
1069.0	4.256294	2.735924	8.233881	-0.094235	0.077919	0.10782	-0.799316	0.091309	-0.34668
1070.0	4.436221	2.791337	8.417412	-0.130851	0.066607	0.103998	-0.799316	0.091309	-0.348877
1071.0	4.435796	2.868572	8.38527	-0.126581	0.087142	0.104188	-0.801514	0.091309	-0.344238
1072.0	4.478352	3.144909	8.182022	-0.197195	0.102093	0.114895	-0.799561	0.0979	-0.355713
1073.0	4.183988	3.29369	8.083662	-0.204899	0.116753	0.115831	-0.797119	0.095703	-0.353516
1074.0	4.383516	3.434158	8.085302	-0.208137	0.087668	0.08899	-0.795166	0.0979	-0.349121
1075.0	4.229147	3.205457	8.306932	-0.199845	0.095385	0.086354	-0.799561	0.0979	-0.355713
1076.0	4.038987	3.327598	8.485158	-0.172367	0.009827	0.104303	-0.797852	0.108887	-0.358398
1077.0	3.999763	3.293899	8.411266	-0.100557	-0.048496	0.144857	-0.797363	0.100098	-0.34668
1078.0	3.651922	3.449067	8.537098	-0.080611	-0.106817	0.186783	-0.792969	0.100098	-0.353516
1079.0	3.775774	3.355292	8.606363	-0.106523	-0.179751	0.237305	-0.800049	0.108887	-0.35376
1080.0	4.164509	3.08849	9.019264	-0.057935	-0.240284	0.278572	-0.804443	0.11084	-0.351563
1081.0	4.280584	2.627533	8.869657	-0.021593	-0.240396	0.304684	-0.797852	0.111084	-0.346924
1082.0	4.22844	2.23428	9.47432	0.144923	-0.317184	0.382235	-0.798096	0.117432	-0.347168
1083.0	2.820645	2.26832	10.07964	0.320658	-0.34974	0.679404	-0.807129	0.119629	-0.342529
1084.0	0.541356	4.731903	11.585209	0.440204	-0.902741	0.826962	-0.807373	0.126221	-0.338135
1085.0	1.005386	3.975747	11.691734	-0.219369	-1.726289	0.782401	-0.809814	0.132568	-0.313232
1086.0	6.266132	3.81412	9.413614	0.239989	-1.959803	1.012524	-0.8125	0.143555	-0.308838
1087.0	3.995267	0.233478	10.840477	0.088412	-2.214593	1.183335	-0.823486	0.145508	-0.286133
1088.0	4.486808	2.086028	11.299948	0.691741	-2.85121	1.277542	-0.826172	0.156494	-0.26123
1089.0	4.3269	2.690276	12.124824	0.508776	-3.428893	1.337697	-0.843994	0.165039	-0.229492
1090.0	4.337236	2.000541	8.264043	1.327026	-4.389442	1.342722	-0.853027	0.175781	-0.197754
1091.0	3.338477	5.624851	14.747642	0.936694	-5.049405	1.570853	-0.860107	0.184326	-0.152344
1092.0	1.147965	4.671861	14.491671	0.242228	-6.165925	1.691072	-0.869629	0.20166	-0.102539
1093.0	6.120054	6.611667	15.311764	0.331382	-6.787262	2.09	-0.86792	0.216797	-0.043701
1094.0	6.501699	9.273177	23.285725	-0.057528	-6.750993	2.483816	-0.868896	0.236084	0.008545
1095.0	6.00484	4.129629	12.871062	-0.186843	-7.400227	2.685381	-0.861328	0.26001	0.067139
1096.0	7.706245	8.466317	21.173269	0.872494	-7.848476	2.875718	-0.853516	0.283936	0.128174
1097.0	7.314854	6.726795	16.478916	0.71966	-7.837916	3.211809	-0.832764	0.305908	0.187012
1098.0	6.234519	13.10081	22.432777	1.319937	-7.540917	3.528897	-0.810059	0.336426	0.236572
1099.0	-2.746707	14.110675	16.059666	-0.573745	-6.800241	4.089239	-0.7854	0.369141	0.290527
1100.0	-12.669133	10.601624	3.480114	-1.240848	-7.056417	4.595966	-0.751465	0.391113	0.349365
1101.0	26.059379	18.515108	20.507288	0.305276	-8.61195	3.414449	-0.719482	0.408691	0.390137
1102.0	28.517598	26.431376	40.51196	-1.807172	-2.461378	1.351463	-0.710693	0.404297	0.39917
1103.0	12.186464	17.622189	32.314656	-1.564013	1.924072	-0.694182	-0.731445	0.384521	0.37915
1104.0	0.005021	11.410991	20.837106	-2.615104	4.244507	-1.475742	-0.756592	0.358154	0.359131
1105.0	-9.508238	3.838958	10.978377	-1.766736	4.634645	-1.403672	-0.775391	0.338623	0.318604
1106.0	-11.053653	1.663923	7.047212	-1.043731	4.391664	-1.035143	-0.785889	0.329834	0.289063
1107.0	-8.895057	0.227433	6.52457	-0.212093	3.939766	-0.631247	-0.800537	0.318848	0.261963
1108.0	-5.365734	0.164722	7.943555	0.46132	3.865057	-0.4276	-0.811279	0.3125	0.221191
1109.0	-1.887401	0.628002	9.74207	1.175068	4.108585	-0.394457	-0.817627	0.308105	0.189209
1110.0	1.178162	1.754455	10.831295	1.770811	4.5158	-0.498678	-0.830322	0.301514	0.139404
1111.0	4.035233	3.944724	11.216819	2.223704	5.023485	-0.674186	-0.84082	0.290771	0.093994
1112.0	6.493319	6.047116	11.019469	2.278008	5.574957	-0.898711	-0.844727	0.281982	0.041748
1113.0	8.045435	7.216309	9.969627	2.020996	6.022829	-1.147716	-0.850586	0.266846	-0.008057
1114.0	8.474778	6.818112	8.746067	1.591413	6.256722	-1.343703	-0.854492	0.256104	-0.067139
1115.0	8.521207	5.655173	7.970163	1.2858	6.279514	-1.482774	-0.853516	0.234375	-0.119141
1116.0	8.826322	4.484289	7.88129	1.143822	6.11217	-1.584998	-0.848389	0.214844	-0.171143
1117.0	8.824276	3.436331	8.508065	1.105387	5.845795	-1.685295	-0.84082	0.191162	-0.220947
1118.0	9.202876	2.450067	9.227086	1.256713	5.510313	-1.753764	-0.835693	0.173828	-0.266113
1119.0	9.566341	1.993643	9.971245	1.490438	5.198562	-1.76527	-0.821045	0.141357	-0.311035
1120.0	9.992778	2.071896	10.691947	1.837504	4.881379	-1.763283	-0.804932	0.121826	-0.344971
1121.0	10.564954	2.563363	11.657749	2.133713	4.572701	-1.769135	-0.794678	0.084961	-0.385254
1122.0	11.210791	3.768154	12.678677	2.352667	4.295617	-1.795491	-0.771729	0.058838	-0.418945
1123.0	11.867587	5.204947	13.702126	2.444701	4.022348	-1.820596	-0.763672	0.028564	-0.438721
1124.0	13.282058	6.603346	15.395891	2.462215	3.760349	-1.868752	-0.740234	-0.010498	-0.463135
1125.0	16.121224	7.631445	17.81224	2.410474	3.611547	-2.004451	-0.723633	-0.041016	-0.487549
1126.0	19.733512	7.813309	19.025456	2.223301	3.66504	-2.248695	-0.706787	-0.075684	-0.50293
1127.0	21.791898	8.150341	18.724001	2.144653	3.823435	-2.563088	-0.68335	-0.112549	-0.522705
1128.0	22.905214	3.670245	12.419786	0.643968	3.756397	-2.686424	-0.657959	-0.140869	-0.535889
1129.0	22.422189	2.502495	11.279661	1.866527	4.552835	-3.156919	-0.621338	-0.179932	-0.5625
1130.0	21.973832	-0.52407	8.411892	1.235649	4.611433	-3.345221	-0.589355	-0.2146	-0.580078
1131.0	21.353113	-0.031452	5.948982	1.183929	4.279818	-3.286492	-0.551025	-0.240479	-0.593262
1132.0	21.851164	-2.382778	1.571879	1.044536	3.72666	-3.062779	-0.523682	-0.268555	-0.615723
1133.0	24.173866	-4.770954	-1.77645	0.681293	3.193057	-2.724157	-0.500977	-0.285889	-0.619873
1134.0	27.817623	-8.76606	-6.088914	0.615697	2.729033	-2.397678	-0.467529	-0.302979	-0.628662
1135.0	29.277614	-12.103102	-10.443965	0.755893	2.262933	-2.066293	-0.447021	-0.32251	-0.630615
1136.0	26.803443	-14.142941	-12.674413	1.17048	1.457535	-1.690985	-0.439941	-0.337891	-0.630371
1137.0	23.055503	-11.942282	-11.829221	1.406359	0.208775	-1.198067	-0.426025	-0.353027	-0.618652
1138.0	21.498853	-7.256432	-9.250437	1.205647	-1.085928	-0.598971	-0.438477	-0.366211	-0.611572
1139.0	-0.402836	15.735119	7.766261	1.136864	-2.225868	-0.117131	-0.462646	-0.362061	-0.591064
1140.0	8.676571	0.749621	11.788063	-4.660775	-5.075177	1.362452	-0.483154	-0.342529	-0.584473
1141.0	-5.89415	-1.293278	9.677614	2.822606	-2.16695	0.137663	-0.506348	-0.360352	-0.554443
1142.0	-9.490045	22.227208	1.017437	-2.96301	-5.328724	1.384422	-0.547363	-0.321289	-0.546143
1143.0	9.004758	-10.986557	-1.097154	-4.309255	-5.61789	1.789119	-0.585205	-0.304199	-0.519043
1144.0	21.947946	3.672251	18.313297	0.051532	-4.914558	0.805737	-0.607422	-0.295654	-0.500977
1145.0	11.805093	-4.629038	11.977133	-2.990614	-3.87839	0.578149	-0.625488	-0.284912	-0.476074
1146.0	8.161042	-0.366909	14.379993	-0.819468	-4.06418	0.854435	-0.647705	-0.271973	-0.458252
1147.0	11.583049	-4.652724	13.386354	-2.070717	-3.655873	1.451126	-0.672607	-0.254639	-0.437988
1148.0	10.835711	0.797322	15.99289	-0.878084	-3.231209	1.593724	-0.686279	-0.241699	-0.424561
1149.0	11.59255	6.245642	11.371445	-1.434444	-2.80463	1.572344	-0.70874	-0.224365	-0.404297
1150.0	10.7354	3.069756	12.077288	-1.6149	-2.673648	1.396532	-0.720459	-0.207031	-0.388672
1151.0	20.075897	14.352824	22.814672	0.507439	-2.341629	1.193682	-0.731445	-0.202881	-0.375
1152.0	17.426326	3.674557	6.093768	-5.435401	-0.274648	1.101396	-0.737305	-0.170166	-0.382568
1153.0	5.124971	-6.737547	11.297835	-0.064475	-1.339286	0.732278	-0.739502	-0.172363	-0.37793
1154.0	8.620579	2.624884	11.294046	-1.58135	-0.372018	0.609082	-0.742432	-0.156982	-0.375977
1155.0	7.409719	1.213983	9.832581	-0.6456	-0.35522	0.459643	-0.746826	-0.155029	-0.373779
1156.0	6.422436	-0.188834	9.235853	-0.768147	-0.208537	0.325328	-0.742432	-0.152588	-0.371582
1157.0	5.630045	2.777993	9.819543	-0.435423	-0.096477	0.216993	-0.751465	-0.14624	-0.376221
1158.0	4.930782	1.015285	9.036571	-0.405532	-0.086473	0.149686	-0.745117	-0.141846	-0.376221
1159.0	4.795665	2.492462	8.969987	-0.28727	-0.089161	0.083629	-0.744873	-0.14624	-0.371582
1160.0	4.555724	2.495774	8.755302	-0.235116	-0.086956	0.058295	-0.749756	-0.137451	-0.371826
1161.0	4.630416	2.977681	8.614767	-0.186734	-0.094657	0.04866	-0.74292	-0.14624	-0.369385
1162.0	4.720307	2.815589	8.617231	-0.173446	-0.069354	0.052432	-0.749268	-0.14624	-0.378418
1163.0	4.723297	2.768841	8.574086	-0.138513	-0.045139	0.045611	-0.751709	-0.139648	-0.378662
1164.0	4.595473	2.5278	8.662659	-0.131603	-0.043559	0.044785	-0.747803	-0.130859	-0.374268
1165.0	4.66462	2.326101	8.736628	-0.081765	-0.039984	0.031396	-0.751953	-0.137451	-0.374023
1166.0	4.741399	2.315911	8.733651	-0.029527	-0.034023	0.009754	-0.749756	-0.137451	-0.376221
1167.0	4.631335	2.416997	8.591359	0.019438	-0.034982	-0.009143	-0.749512	-0.139648	-0.374023
1168.0	4.562115	2.486842	8.50868	0.038307	-0.044764	-0.020367	-0.745361	-0.139648	-0.369385
1169.0	4.555898	2.474401	8.491699	0.062292	-0.05186	-0.029576	-0.753906	-0.139648	-0.374023
1170.0	4.56427	2.616506	8.394317	0.076919	-0.058117	-0.039266	-0.749756	-0.137451	-0.371826
1171.0	4.520786	2.672517	8.360407	0.079572	-0.054753	-0.036556	-0.747314	-0.141846	-0.369385
1172.0	4.535132	2.898139	8.324768	0.085859	-0.034786	-0.031654	-0.751709	-0.141846	-0.367188
1173.0	4.578297	2.973912	8.244062	0.055632	-0.011828	-0.013491	-0.75415	-0.135254	-0.367188
1174.0	4.514816	3.019877	8.231624	0.009574	0.011641	-0.005864	-0.751709	-0.139648	-0.374023
1175.0	4.457978	2.880992	8.279694	-0.017101	0.028902	0.010607	-0.749512	-0.141846	-0.374023
1176.0	4.464203	2.697291	8.339911	-0.024618	0.02212	0.018831	-0.749756	-0.137451	-0.374023
1177.0	4.444324	2.754002	8.408045	-0.029972	0.025577	0.027235	-0.749756	-0.139648	-0.376221
1178.0	4.539121	2.819992	8.247655	-0.034744	0.025836	0.037955	-0.749512	-0.139648	-0.371826
1179.0	4.44808	3.057489	8.302032	-0.048676	0.034304	0.047754	-0.75415	-0.137451	-0.369385
1180.0	4.479065	3.067137	8.038407	-0.076169	0.038969	0.072069	-0.749756	-0.137451	-0.371826
1181.0	4.367448	3.118988	8.261018	-0.089618	0.040572	0.084377	-0.751709	-0.141846	-0.371582
1182.0	4.281881	3.116521	8.358372	-0.101883	0.027629	0.114708	-0.749756	-0.135254	-0.369629
1183.0	4.232374	2.973739	8.480777	-0.109951	-0.010793	0.143198	-0.75	-0.130859	-0.371826
1184.0	4.08049	2.910519	8.660289	-0.096971	-0.070469	0.164048	-0.75	-0.128662	-0.371826
1185.0	4.36991	2.957374	8.686387	-0.074446	-0.160474	0.180198	-0.754639	-0.126709	-0.37207
1186.0	4.386683	2.722704	8.751874	-0.050416	-0.181875	0.224823	-0.758789	-0.128906	-0.36499
1187.0	4.036896	2.699211	8.771299	0.08018	-0.231218	0.324567	-0.756592	-0.131104	-0.367432
1188.0	4.462706	2.91209	8.797556	0.163144	-0.270599	0.42628	-0.754883	-0.120117	-0.369873
1189.0	3.653442	2.355916	9.21626	0.217669	-0.319981	0.525081	-0.761475	-0.11792	-0.354004
1190.0	2.968449	2.643685	9.932073	0.380958	-0.586246	0.608922	-0.765869	-0.115723	-0.349365
1191.0	0.835665	4.225143	11.391968	0.180553	-0.983303	0.519922	-0.77002	-0.120117	-0.344727
1192.0	3.277824	2.387171	9.92091	0.032063	-1.695232	0.591802	-0.781494	-0.107178	-0.32666
1193.0	5.363461	3.927464	9.76048	0.260848	-1.690719	0.767024	-0.785889	-0.109375	-0.319824
1194.0	4.219851	1.672853	10.393974	0.258109	-2.063164	0.909173	-0.791016	-0.094238	-0.297363
1195.0	3.878342	2.689973	11.363631	0.39461	-2.494154	1.029051	-0.802002	-0.087891	-0.276855
1196.0	3.923597	2.061949	10.577079	0.511422	-3.248295	1.055241	-0.817627	-0.081543	-0.24292
1197.0	3.369028	4.720906	10.894419	0.963202	-3.938687	1.213873	-0.822266	-0.074951	-0.206543
1198.0	5.742378	2.789447	10.754016	0.607543	-4.905124	1.462505	-0.835938	-0.060059	-0.174805
1199.0	1.741786	4.03027	14.174764	1.182189	-5.531905	1.645074	-0.851807	-0.049316	-0.118164
1200.0	3.755158	5.400705	12.41457	-0.144616	-6.409663	1.801219	-0.863037	-0.040771	-0.061279
1201.0	7.541349	6.669851	22.859038	0.759232	-6.902983	2.163187	-0.87085	-0.014893	-0.000244
1202.0	6.389256	7.348051	15.737465	-0.437708	-6.848095	2.3845	-0.871826	0.01123	0.062988
1203.0	7.119133	5.239776	18.3233	0.6549	-7.827447	2.651679	-0.864258	0.037354	0.126221
1204.0	8.757682	9.364212	19.508981	0.873503	-7.742757	2.917258	-0.850098	0.061279	0.187256
1205.0	8.450356	8.468692	18.32785	1.230661	-7.64462	3.287566	-0.840576	0.0896	0.25293
1206.0	2.849225	14.163089	21.96874	0.980446	-6.827195	3.595905	-0.820068	0.120117	0.304688
1207.0	-9.240917	12.262403	12.427263	-1.125088	-6.447493	4.189122	-0.795166	0.148438	0.363281
1208.0	-3.709356	12.260764	3.577344	-0.722227	-8.131548	4.203409	-0.759521	0.18335	0.430908
1209.0	38.687717	29.295996	42.386443	-0.045358	-4.74915	2.230913	-0.746582	0.183594	0.440186
1210.0	19.187791	20.65707	35.460328	-2.735877	0.533379	-0.052361	-0.761475	0.176758	0.431152
1211.0	3.14898	17.659174	27.512298	-2.576251	3.5332	-1.354383	-0.773438	0.150635	0.404297
1212.0	-7.918667	4.848021	12.932448	-3.123521	4.86464	-1.51292	-0.789795	0.128906	0.365967
1213.0	-9.55369	1.450591	7.879936	-1.502977	4.522335	-1.163899	-0.80249	0.11792	0.338867
1214.0	-8.258799	0.636483	6.75626	-0.921453	4.300675	-0.725769	-0.81958	0.111328	0.307129
1215.0	-5.304787	0.304068	7.634421	-0.09226	4.289233	-0.447524	-0.834717	0.106934	0.272949
1216.0	-2.608769	0.668425	9.178253	0.576794	4.50081	-0.349443	-0.836914	0.107178	0.229736
1217.0	0.180263	1.739584	10.220089	1.220423	4.809958	-0.39584	-0.849609	0.100586	0.191162
1218.0	3.413364	4.058418	10.778976	1.659717	5.221266	-0.529052	-0.858398	0.098389	0.138672
1219.0	5.869023	5.78359	10.515286	1.69461	5.696381	-0.738553	-0.869141	0.096191	0.091064
1220.0	7.002579	6.426996	9.576776	1.512126	6.054591	-0.97734	-0.87085	0.083252	0.031982
1221.0	7.636426	5.872076	8.367692	1.252147	6.230924	-1.163346	-0.870361	0.07251	-0.022461
1222.0	7.809344	4.86329	7.686905	1.088753	6.193756	-1.276712	-0.869873	0.061768	-0.074707
1223.0	7.974414	4.024279	7.652431	1.052983	6.004678	-1.373543	-0.860352	0.042236	-0.131348
1224.0	7.958549	3.438175	8.384532	1.11859	5.696132	-1.470021	-0.855225	0.029541	-0.185791
1225.0	8.479434	2.957454	9.078355	1.242683	5.341863	-1.534461	-0.841553	0.014404	-0.224121
1226.0	9.349139	3.002412	10.032757	1.500271	5.008237	-1.560783	-0.820801	-0.011475	-0.273926
1227.0	11.136319	3.727661	11.566557	1.795402	4.766154	-1.602481	-0.802734	-0.026611	-0.310059
1228.0	12.551067	5.048566	12.90348	2.064201	4.665863	-1.725348	-0.788574	-0.050537	-0.34375
1229.0	13.43094	6.63141	14.046434	2.178729	4.63022	-1.940201	-0.771973	-0.076416	-0.373047
1230.0	14.162196	7.778371	14.909664	2.18118	4.616915	-2.217579	-0.749023	-0.102539	-0.413574
1231.0	14.484713	8.238509	15.225642	2.106276	4.609228	-2.496262	-0.72168	-0.130615	-0.442627
1232.0	14.686258	8.34746	15.193239	2.01067	4.552431	-2.734108	-0.694092	-0.160889	-0.473877
1233.0	15.060266	7.619109	14.786728	1.856712	4.400104	-2.926783	-0.666504	-0.193359	-0.496094
1234.0	16.036213	6.83097	14.032242	1.717996	4.146904	-3.054762	-0.638916	-0.22583	-0.527344
1235.0	15.795964	7.754154	11.897793	1.088035	3.383636	-2.901968	-0.607422	-0.245361	-0.536133
1236.0	20.935931	-0.164129	9.086532	1.226542	3.295131	-2.844247	-0.582275	-0.27124	-0.560791
1237.0	20.784116	0.813876	11.133477	1.393711	3.419783	-2.920204	-0.554932	-0.297119	-0.571777
1238.0	22.429427	-0.91102	9.159689	1.760227	3.286993	-2.899499	-0.525635	-0.318848	-0.5896
1239.0	23.123038	-2.245901	5.398114	1.682865	3.09732	-2.802768	-0.498291	-0.344727	-0.595947
1240.0	24.925949	-3.316739	1.95028	1.55283	2.893422	-2.642467	-0.4646	-0.366455	-0.602295
1241.0	27.807012	-6.048493	-2.498531	1.188367	2.669314	-2.369906	-0.442383	-0.379395	-0.618164
1242.0	30.0229	-9.699632	-7.334043	0.934108	2.4106	-2.026172	-0.419678	-0.396729	-0.620117
1243.0	29.416537	-12.422924	-10.815072	0.877343	1.88808	-1.584042	-0.403809	-0.409668	-0.624268
1244.0	26.124505	-12.884615	-11.701031	1.024207	0.938335	-0.949241	-0.396973	-0.416016	-0.62207
1245.0	23.655318	-9.929053	-10.276324	0.902807	-0.172006	-0.178577	-0.401123	-0.424805	-0.612793
1246.0	23.477731	-5.499514	-7.109221	0.579027	-1.071784	0.559227	-0.420654	-0.425049	-0.612549
1247.0	13.921458	3.687384	-2.693541	0.505744	-1.128233	1.062717	-0.422363	-0.433838	-0.598877
1248.0	-14.629552	36.888962	55.833939	-0.397105	-2.647517	1.514656	-0.45459	-0.39917	-0.608643
1249.0	1.098717	-13.340612	-5.714631	-4.594588	-0.240008	0.465247	-0.458984	-0.396973	-0.604004
1250.0	-31.35552	14.580843	-15.828533	1.753831	-2.253634	0.973227	-0.496338	-0.388428	-0.585938
1251.0	4.268666	1.895235	9.829782	-4.03337	-9.926054	1.834265	-0.552246	-0.358398	-0.554443
1252.0	24.507145	-4.131151	10.240312	-0.756418	-4.346778	0.628461	-0.581055	-0.349854	-0.53418
1253.0	15.738508	-0.992349	13.339883	-1.557254	-4.124618	0.05719	-0.603027	-0.345703	-0.518311
1254.0	6.133961	-4.169878	13.501844	-0.467335	-4.096001	0.425027	-0.625244	-0.334961	-0.498047
1255.0	11.705277	-2.712903	15.309724	-1.216147	-3.806888	1.242748	-0.654053	-0.328613	-0.477539
1256.0	11.281618	-0.881119	14.239509	-0.556252	-3.1397	1.545724	-0.674316	-0.313477	-0.464111
1257.0	12.611704	8.009808	13.494864	-0.475864	-2.867191	1.418973	-0.69458	-0.296387	-0.439453
1258.0	11.372832	9.78635	10.974246	-1.019819	-2.543349	1.187955	-0.708252	-0.283203	-0.423584
1259.0	11.495693	4.234867	11.910967	-1.290601	-2.154107	0.953794	-0.72168	-0.276855	-0.414551
1260.0	23.098448	14.969549	22.020667	-1.547057	-1.503949	0.97776	-0.727051	-0.255127	-0.419678
1261.0	4.097849	-4.551574	3.419007	-2.359707	-0.259657	0.820958	-0.729492	-0.250732	-0.41748
1262.0	8.003835	3.93903	13.391787	-0.912892	-0.759602	0.562909	-0.739014	-0.233398	-0.422363
1263.0	6.868199	0.501393	7.573224	-0.842008	-0.645624	0.571368	-0.741211	-0.231201	-0.417725
1264.0	6.382152	3.036863	10.479043	-1.184651	-0.382949	0.468096	-0.746094	-0.218018	-0.413574
1265.0	6.202436	1.251167	9.527722	-0.55887	-0.275894	0.386085	-0.748291	-0.218018	-0.413574
1266.0	5.582164	1.788466	9.178934	-0.68285	-0.144479	0.291146	-0.748779	-0.209473	-0.418213
1267.0	5.057769	2.511053	9.259175	-0.504732	-0.096055	0.223848	-0.750977	-0.207275	-0.411377
1268.0	4.635477	2.754919	8.718961	-0.454202	-0.084861	0.181417	-0.748779	-0.205078	-0.416016
1269.0	4.362828	3.166622	8.401304	-0.472978	-0.08647	0.163095	-0.74707	-0.198486	-0.413818
1270.0	4.042784	3.473498	8.180112	-0.460329	-0.09677	0.176371	-0.751465	-0.198486	-0.411621
1271.0	4.052279	3.625978	8.145022	-0.483975	-0.131166	0.199256	-0.758057	-0.196289	-0.418457
1272.0	4.206391	3.276164	8.257294	-0.536137	-0.135557	0.225441	-0.75415	-0.1875	-0.423096
1273.0	4.479679	2.491946	8.647248	-0.524028	-0.129719	0.233286	-0.75415	-0.1875	-0.41626
1274.0	4.816447	1.833126	8.992815	-0.428473	-0.11769	0.213542	-0.756348	-0.185303	-0.418701
1275.0	4.762092	1.769623	8.891873	-0.315648	-0.10027	0.173771	-0.756348	-0.18335	-0.416504
1276.0	4.568548	2.092744	8.81769	-0.24163	-0.100611	0.145726	-0.758789	-0.178955	-0.409668
1277.0	4.639709	2.310534	8.678274	-0.200656	-0.097536	0.12121	-0.756348	-0.18335	-0.416504
1278.0	4.73184	2.305572	8.690691	-0.169473	-0.075504	0.096728	-0.761475	-0.170166	-0.421143
1279.0	4.660399	2.459109	8.606417	-0.145539	-0.05065	0.08923	-0.76123	-0.174561	-0.414307
1280.0	4.406469	2.746293	8.298741	-0.147824	-0.040309	0.094886	-0.761475	-0.167969	-0.414551
1281.0	4.548822	2.788449	8.478782	-0.166533	-0.040504	0.095627	-0.76123	-0.172363	-0.416748
1282.0	4.53054	2.537392	8.453181	-0.169424	-0.023448	0.09506	-0.763428	-0.170166	-0.416748
1283.0	4.579133	2.671755	8.445635	-0.179293	-0.008493	0.08779	-0.759277	-0.170166	-0.414307
1284.0	4.651946	2.597548	8.430814	-0.219507	0.022474	0.080675	-0.757324	-0.163574	-0.416748
1285.0	4.557301	2.575985	8.285388	-0.242913	0.052602	0.070084	-0.768311	-0.163574	-0.409912
1286.0	4.523181	2.526721	8.429827	-0.268671	0.087371	0.06368	-0.759521	-0.161377	-0.421387
1287.0	4.667565	2.410976	8.41417	-0.299127	0.108176	0.046649	-0.761719	-0.161377	-0.419189
1288.0	4.60492	2.447417	8.504345	-0.373388	0.144921	0.047501	-0.761963	-0.15918	-0.421387
1289.0	4.464946	2.685723	8.185012	-0.363997	0.160871	0.078225	-0.757568	-0.15918	-0.419189
1290.0	4.209088	2.967343	8.388119	-0.298781	0.128397	0.096481	-0.759766	-0.154785	-0.419189
1291.0	4.132325	3.158946	8.511487	-0.214169	0.064783	0.114324	-0.762207	-0.152588	-0.42627
1292.0	4.009709	2.990121	8.731632	-0.161817	0.009325	0.141033	-0.762207	-0.150635	-0.423828
1293.0	4.245331	2.706043	8.583143	-0.077061	-0.003037	0.154717	-0.762451	-0.148438	-0.42627
1294.0	4.122526	2.736898	8.615383	0.014486	-0.019423	0.169907	-0.76001	-0.152588	-0.42627
1295.0	3.765784	3.053211	8.828516	0.068342	-0.064193	0.213383	-0.762207	-0.152588	-0.42627
1296.0	4.204261	2.807789	8.516392	0.054119	-0.127452	0.228314	-0.769043	-0.144043	-0.428711
1297.0	4.254691	2.883933	8.844953	0.12213	-0.06558	0.2745	-0.762451	-0.144043	-0.424072
1298.0	4.112696	2.300916	9.182622	0.146206	-0.12085	0.357942	-0.76709	-0.139648	-0.419678
1299.0	4.402925	2.104612	9.150518	0.254087	-0.174513	0.554342	-0.77124	-0.141846	-0.419434
1300.0	1.89838	1.560284	10.536552	0.6096	-0.1691	0.841526	-0.771729	-0.135254	-0.41748
1301.0	-1.428058	4.93809	13.544729	0.41962	-1.134949	0.674573	-0.776123	-0.131104	-0.401611
1302.0	4.972324	2.014746	8.366587	0.209471	-1.80396	0.904852	-0.789551	-0.122314	-0.385742
1303.0	4.640944	3.192387	11.917288	0.372212	-1.741364	1.15273	-0.798828	-0.11377	-0.369873
1304.0	3.763295	0.959024	10.861855	0.668468	-2.418028	1.379734	-0.810059	-0.107422	-0.347168
1305.0	3.628358	1.49148	12.857788	0.822701	-2.873726	1.522388	-0.832275	-0.094482	-0.317871
1306.0	4.798389	4.110828	10.818337	1.363471	-3.795071	1.728915	-0.839111	-0.090332	-0.281494
1307.0	3.139941	4.566048	11.13916	1.16645	-4.546514	1.963345	-0.859375	-0.075195	-0.240723
1308.0	2.535483	7.251994	16.040517	0.943299	-5.845611	2.055156	-0.877686	-0.055908	-0.190918
1309.0	3.534701	6.722608	13.102167	-0.084934	-6.507939	2.384495	-0.894287	-0.027588	-0.129883
1310.0	6.253349	7.530504	22.844191	0.081569	-6.92567	2.933545	-0.899658	-0.003906	-0.068848
1311.0	4.037771	5.716151	16.174703	-0.375623	-7.175679	3.124214	-0.911621	0.021973	-0.005615
1312.0	8.10212	7.55896	18.767581	1.235882	-7.992551	3.334802	-0.908936	0.059082	0.068848
1313.0	6.291624	12.584174	21.117824	0.562501	-7.724345	3.718894	-0.9104	0.091553	0.138916
1314.0	5.223878	15.495961	21.143317	0.342269	-7.710124	4.237933	-0.89502	0.137207	0.201904
1315.0	-0.174805	10.939042	17.928132	-1.549111	-7.137346	4.6107	-0.87915	0.172119	0.264893
1316.0	-10.094106	12.258162	7.048996	-1.376302	-6.893812	5.083322	-0.846191	0.21582	0.330078
1317.0	15.831664	17.534856	13.235512	-0.990022	-9.382102	3.685763	-0.818848	0.242188	0.395752
