Acquisition frequency: 100 Hz
PacketCounter	Acc_X	Acc_Y	Acc_Z	Gyr_X	Gyr_Y	Gyr_Z	Mag_X	Mag_Y	Mag_Z
0.0	9.521597	0.068359	3.229544	0.014227	0.005384	0.003072	-0.468994	0.103271	-0.672852
1.0	9.518473	0.07943	3.270992	0.017251	0.009722	0.005231	-0.464355	0.098877	-0.677246
2.0	9.535285	0.084701	3.242728	0.016423	0.015657	0.006158	-0.471191	0.10083	-0.672852
3.0	9.540057	0.058551	3.222405	0.017428	0.01615	0.003763	-0.462158	0.098877	-0.675049
4.0	9.497881	0.093985	3.226201	0.017869	0.018204	0.004381	-0.468994	0.101074	-0.67749
5.0	9.499692	0.078776	3.246797	0.01472	0.01748	0.005851	-0.464355	0.098877	-0.679688
6.0	9.484766	0.062628	3.237259	0.015639	0.019431	0.002761	-0.462158	0.101074	-0.67749
7.0	9.493268	0.105221	3.271899	0.01599	0.013598	0.005544	-0.464111	0.094482	-0.679443
8.0	9.495665	0.094358	3.232706	0.01135	0.018971	0.000911	-0.466553	0.098877	-0.672607
9.0	9.463436	0.073007	3.252754	0.015078	0.020989	0.005773	-0.464111	0.09668	-0.674805
10.0	9.471891	0.115383	3.287476	0.010608	0.014103	0.005393	-0.464111	0.09668	-0.670166
11.0	9.476839	0.088823	3.266724	0.0029	0.007954	0.005786	-0.464111	0.09668	-0.674805
12.0	9.495565	0.074358	3.316783	0.009643	0.011451	0.003465	-0.46875	0.098877	-0.677246
13.0	9.464229	0.057184	3.276242	0.008677	0.008799	0.001537	-0.461914	0.09668	-0.679443
14.0	9.468652	0.026723	3.314927	0.009817	0.008535	0.004857	-0.46875	0.09668	-0.679443
15.0	9.480407	0.058302	3.307889	0.017474	0.004638	0.002312	-0.462158	0.098877	-0.677246
16.0	9.444546	0.071732	3.228988	0.010471	0.005515	0.002543	-0.466553	0.101074	-0.672852
17.0	9.460505	0.068764	3.31915	0.009064	0.000808	-1e-06	-0.457275	0.094482	-0.672607
18.0	9.477751	0.074233	3.289815	0.015503	0.001493	0.002778	-0.468994	0.101074	-0.672852
19.0	9.48974	0.10594	3.282096	0.013003	-0.002247	0.001933	-0.464111	0.09668	-0.674805
20.0	9.492229	0.090974	3.30063	0.008357	-0.006216	0.000161	-0.46875	0.098877	-0.677246
21.0	9.49532	0.08012	3.25953	0.011384	-0.001879	0.002319	-0.466309	0.094482	-0.677246
22.0	9.477997	0.075138	3.289085	0.005653	0.00446	-0.000623	-0.466553	0.098877	-0.667969
23.0	9.526256	0.097911	3.301178	0.008185	-0.003302	-0.001232	-0.470947	0.096436	-0.672607
24.0	9.495299	0.08097	3.25957	0.009066	0.000807	-1e-06	-0.471191	0.098877	-0.677246
25.0	9.49815	0.070022	3.219176	0.002941	0.005795	0.00146	-0.461914	0.094482	-0.674805
26.0	9.519944	0.044767	3.228185	0.006707	0.005654	0.002	-0.464355	0.101074	-0.67749
27.0	9.497209	0.065978	3.279789	0.007887	0.00323	0.001	-0.466553	0.096436	-0.670166
28.0	9.482798	0.050026	3.268774	0.012747	0.002122	-0.000157	-0.468994	0.101074	-0.675049
29.0	9.500033	0.055544	3.239479	0.011213	0.001034	0.000926	-0.464355	0.098877	-0.672607
30.0	9.48259	0.050599	3.269369	0.006536	0.008568	0.000605	-0.466553	0.09668	-0.674805
31.0	9.45981	0.071987	3.321062	0.011128	0.002491	0.000229	-0.464355	0.09668	-0.677246
32.0	9.44843	0.044787	3.269176	0.010293	-0.000913	0.004019	-0.461914	0.09668	-0.674805
33.0	9.477008	0.077371	3.291882	0.012096	0.005143	0.002156	-0.466553	0.09668	-0.672607
34.0	9.496433	0.06745	3.282004	0.010917	0.007567	0.003155	-0.471191	0.098633	-0.67041
35.0	9.45936	0.072299	3.322335	0.009114	0.001511	0.005019	-0.46875	0.098877	-0.672607
36.0	9.496256	0.067312	3.28252	0.010208	0.000543	0.003322	-0.471191	0.10083	-0.668213
37.0	9.476648	0.077452	3.292916	0.011388	-0.001881	0.002323	-0.468994	0.101074	-0.67041
38.0	9.493883	0.082676	3.263649	0.00671	0.005653	0.001999	-0.464355	0.098877	-0.672607
39.0	9.496744	0.07169	3.223282	0.013363	0.00126	0.001855	-0.46875	0.096436	-0.672607
40.0	9.51799	0.042732	3.291696	0.011045	0.003944	-0.000468	-0.464355	0.101074	-0.672852
41.0	9.498879	0.057144	3.242834	0.013805	0.003314	0.002469	-0.461914	0.09668	-0.674805
42.0	9.476804	0.082769	3.234624	0.016434	0.003432	-0.00031	-0.466553	0.098877	-0.667969
43.0	9.493406	0.084201	3.264997	0.009683	-5.6e-05	0.002012	-0.466553	0.098877	-0.672607
44.0	9.473716	0.094391	3.275615	0.012186	0.003683	0.002854	-0.461914	0.09668	-0.670166
45.0	9.456986	0.093499	3.245603	0.011218	0.00103	0.000929	-0.46875	0.098877	-0.677246
46.0	9.481288	0.053228	3.273101	0.006001	-0.00137	0.002168	-0.466553	0.096436	-0.670166
47.0	9.483718	0.038208	3.291805	0.010422	-0.004537	0.000401	-0.461914	0.092285	-0.674805
48.0	9.498696	0.058826	3.243341	0.011048	0.003942	-0.000469	-0.462158	0.101074	-0.672852
49.0	9.447364	0.047916	3.272212	0.01284	0.000659	0.000544	-0.461914	0.09668	-0.674805
50.0	9.509898	0.086909	3.295653	0.012188	0.003682	0.002853	-0.466553	0.096436	-0.670166
51.0	9.512749	0.075981	3.255344	0.013197	0.004169	0.000458	-0.470703	0.092041	-0.674805
52.0	9.495231	0.071337	3.285399	0.011319	0.008908	-0.001254	-0.464355	0.098877	-0.677246
53.0	9.485924	0.029008	3.253358	0.012986	0.009248	0.00338	-0.461914	0.094482	-0.674805
54.0	9.494735	0.071843	3.28682	0.015432	0.00294	0.002086	-0.471191	0.10083	-0.668213
55.0	9.533859	0.051836	3.266369	0.011011	0.006107	0.003851	-0.466553	0.09668	-0.679443
56.0	9.513974	0.062176	3.277524	0.019387	0.009218	0.001144	-0.468994	0.101074	-0.67041
57.0	9.477333	0.071613	3.258772	0.018124	0.013099	0.00144	-0.46875	0.094238	-0.677246
58.0	9.486041	0.114623	3.292481	0.015876	0.004993	0.0027	-0.468994	0.101074	-0.675049
59.0	9.491857	0.092413	3.211703	0.012022	0.006591	0.001456	-0.46875	0.096436	-0.674805
60.0	9.476569	0.072614	3.260971	0.015536	0.010814	-9.9e-05	-0.468994	0.101074	-0.675049
61.0	9.470914	0.099285	3.283562	0.017289	0.009701	0.005235	-0.468994	0.105469	-0.675293
62.0	9.490308	0.089462	3.27385	0.01097	0.005391	-0.001166	-0.468994	0.103271	-0.672852
63.0	9.511976	0.064453	3.283274	0.013962	0.011899	0.005302	-0.46875	0.098877	-0.677246
64.0	9.491933	0.074774	3.294838	0.013834	0.012638	-0.000416	-0.464355	0.098877	-0.67041
65.0	9.472709	0.089015	3.246429	0.012637	0.005733	0.003469	-0.466553	0.098877	-0.677246
66.0	9.508747	0.080287	3.266913	0.011941	0.008043	0.000757	-0.466553	0.098877	-0.672607
67.0	9.491099	0.075517	3.297224	0.012911	0.010698	0.002679	-0.46875	0.098877	-0.672607
68.0	9.47115	0.085693	3.308494	0.00931	0.007931	0.003535	-0.461914	0.09668	-0.670166
69.0	9.461151	0.039436	3.336149	0.017251	0.008981	0.000221	-0.466309	0.094482	-0.674805
70.0	9.493252	0.065018	3.259122	0.011859	0.009497	5.7e-05	-0.471191	0.10083	-0.672852
71.0	9.509527	0.066485	3.290322	0.012913	0.010696	0.00268	-0.466553	0.101074	-0.67041
72.0	9.475213	0.060632	3.29052	0.017696	0.011034	0.000832	-0.466553	0.098877	-0.672607
73.0	9.484599	0.107526	3.264623	0.012388	0.010095	0.001368	-0.466553	0.098877	-0.677246
74.0	9.472197	0.076454	3.273559	0.014369	0.013232	0.000895	-0.466553	0.101074	-0.67041
75.0	9.483827	0.108306	3.266839	0.01555	0.010804	-9.6e-05	-0.464111	0.094482	-0.677246
76.0	9.456402	0.057038	3.324056	0.007691	0.008302	0.003917	-0.464111	0.09668	-0.670166
77.0	9.522576	0.088473	3.247711	0.010894	0.006838	-0.001863	-0.461914	0.09668	-0.677246
78.0	9.526861	0.058584	3.286611	0.019449	0.009922	0.006171	-0.464355	0.098877	-0.67041
79.0	9.490244	0.067658	3.267817	0.012751	0.013601	0.001277	-0.46875	0.094238	-0.677246
80.0	9.501079	0.095606	3.320751	0.012393	0.010092	0.001369	-0.473389	0.10083	-0.675049
81.0	9.484143	0.094671	3.291522	0.016608	0.012001	0.002528	-0.466309	0.092041	-0.677002
82.0	9.503384	0.084854	3.282366	0.010605	0.013372	0.000347	-0.464355	0.098877	-0.672607
83.0	9.483214	0.095395	3.294177	0.010355	0.017733	-0.00176	-0.459717	0.098877	-0.675049
84.0	9.485797	0.084417	3.255051	0.014905	0.013826	0.002208	-0.466553	0.101074	-0.675049
85.0	9.480035	0.111244	3.27773	0.007488	0.010487	-0.002504	-0.464355	0.098877	-0.684326
86.0	9.506925	0.059761	3.266087	0.008497	0.013864	0.004433	-0.464355	0.098877	-0.672607
87.0	9.486692	0.069974	3.278066	0.017777	0.021068	0.002954	-0.466309	0.092285	-0.679443
88.0	9.468684	0.065379	3.30917	0.012676	0.015049	0.000577	-0.466797	0.103271	-0.67041
89.0	9.539271	0.066594	3.271644	0.013369	0.012742	0.003293	-0.462158	0.098877	-0.675049
90.0	9.482928	0.085921	3.263362	0.016368	0.016355	0.000426	-0.466553	0.101074	-0.675049
91.0	9.484625	0.071305	3.284015	0.016896	0.016955	0.001738	-0.466553	0.098877	-0.679688
92.0	9.486288	0.056691	3.30475	0.012516	0.017953	-0.000829	-0.468994	0.101074	-0.67749
93.0	9.475928	0.113613	3.289503	0.017145	0.012594	0.003847	-0.464355	0.101074	-0.679688
94.0	9.500473	0.077217	3.259212	0.01572	0.019381	0.002726	-0.464355	0.098877	-0.672607
95.0	9.494493	0.104035	3.282394	0.012602	0.016496	-0.000126	-0.46875	0.094238	-0.679443
96.0	9.479666	0.088111	3.272767	0.016902	0.016951	0.00174	-0.466553	0.101074	-0.67041
97.0	9.467009	0.057017	3.282396	0.014101	0.019752	0.003105	-0.462158	0.103271	-0.679688
98.0	9.46321	0.068706	3.324723	0.015282	0.017323	0.002119	-0.466553	0.098877	-0.672607
99.0	9.511887	0.095122	3.278699	0.014839	0.015268	0.001512	-0.464111	0.094482	-0.679443
100.0	9.497022	0.078897	3.269216	0.011383	0.021099	0.005173	-0.468994	0.101074	-0.679688
101.0	9.476584	0.089264	3.281651	0.013256	0.024956	-0.00102	-0.462158	0.098877	-0.684326
102.0	9.475884	0.089636	3.283659	0.013663	0.017693	0.002499	-0.462158	0.098877	-0.672607
103.0	9.498271	0.068287	3.234371	0.010545	0.014809	-0.000354	-0.466553	0.101074	-0.675049
104.0	9.489065	0.10662	3.29797	0.009286	0.018689	-7.3e-05	-0.466553	0.101074	-0.679688
105.0	9.471992	0.105592	3.269426	0.013586	0.019143	0.001797	-0.461914	0.09668	-0.677246
106.0	9.473637	0.090815	3.290105	0.011154	0.013957	0.001663	-0.466553	0.098877	-0.675049
107.0	9.490737	0.095946	3.261934	0.010184	0.011301	-0.000256	-0.461914	0.09668	-0.677246
108.0	9.456397	0.090003	3.262065	0.003163	0.012196	-6e-05	-0.466797	0.103271	-0.67749
109.0	9.472396	0.091441	3.293659	0.01168	0.014557	0.002976	-0.466553	0.098877	-0.677246
110.0	9.493871	0.06643	3.303713	0.004343	0.009767	-0.001044	-0.464355	0.101074	-0.67749
111.0	9.511097	0.071469	3.275228	0.006573	0.008543	0.000595	-0.464355	0.101074	-0.679688
112.0	9.493259	0.066815	3.305464	0.008643	0.010222	0.000826	-0.466553	0.096436	-0.667969
113.0	9.481966	0.039254	3.25462	0.009743	0.009245	-0.000861	-0.45752	0.09668	-0.681885
114.0	9.492621	0.067471	3.307281	0.010268	0.009846	0.000451	-0.466553	0.098877	-0.695801
115.0	9.47585	0.066407	3.277951	0.008564	0.011672	0.000122	-0.466553	0.09668	-0.679443
116.0	9.477645	0.051589	3.298151	0.009169	0.010823	0.002138	-0.46875	0.096436	-0.674805
117.0	9.489362	0.083128	3.291278	0.008565	0.011671	0.000122	-0.466309	0.092041	-0.674805
118.0	9.486877	0.098412	3.273071	0.014124	0.008246	0.001717	-0.464355	0.101074	-0.675049
119.0	9.476682	0.052383	3.300904	0.009826	0.007791	-0.000155	-0.464111	0.09668	-0.674805
120.0	9.476366	0.052549	3.301809	0.009696	0.011424	0.00345	-0.464355	0.098877	-0.672607
121.0	9.48815	0.083961	3.294751	0.01473	0.007396	0.003735	-0.464355	0.09668	-0.681885
122.0	9.453985	0.078116	3.294329	0.016931	0.00544	0.000361	-0.462402	0.105469	-0.670654
123.0	9.489935	0.069583	3.314938	0.01059	0.004039	0.003272	-0.462158	0.098877	-0.677246
124.0	9.489715	0.069833	3.315562	0.015674	0.009319	0.000637	-0.464355	0.101074	-0.675049
125.0	9.489418	0.069987	3.31641	0.012006	0.008748	0.005797	-0.459717	0.094482	-0.681885
126.0	9.472819	0.068721	3.286654	0.013238	0.004135	0.000506	-0.461914	0.094482	-0.679443
127.0	9.486892	0.085479	3.298332	0.019609	0.006267	0.002611	-0.462158	0.098877	-0.679688
128.0	9.488786	0.070804	3.318199	0.014655	0.008844	0.00303	-0.46875	0.098877	-0.677246
129.0	9.452446	0.079915	3.2987	0.017461	0.006038	0.001675	-0.464355	0.098877	-0.677246
130.0	9.468667	0.08162	3.329509	0.018144	0.00374	0.004399	-0.4646	0.103271	-0.67749
131.0	9.457676	0.053852	3.278029	0.015549	0.001458	0.002857	-0.461914	0.09668	-0.672607
132.0	9.488089	0.071972	3.320167	0.013976	0.01114	0.000305	-0.455322	0.098877	-0.67041
133.0	9.459311	0.039415	3.298633	0.017491	0.006771	0.006691	-0.461914	0.09668	-0.681885
134.0	9.485457	0.087308	3.30241	0.015315	0.005808	0.000739	-0.466553	0.101074	-0.67749
135.0	9.490654	0.061004	3.281866	0.017258	0.011121	0.004571	-0.459717	0.094482	-0.681885
136.0	9.506642	0.062617	3.313327	0.012879	0.012117	0.001989	-0.46875	0.098877	-0.677246
137.0	9.486579	0.073053	3.324457	0.014662	0.008839	0.00303	-0.466553	0.09668	-0.679443
138.0	9.466606	0.083531	3.335317	0.017993	0.006636	0.00299	-0.459961	0.101074	-0.675049
139.0	9.489416	0.062024	3.285426	0.017838	0.009535	0.001576	-0.466553	0.098877	-0.679688
140.0	9.497844	0.105355	3.318851	0.016738	0.010515	0.003261	-0.466797	0.103271	-0.67749
141.0	9.483247	0.089301	3.308697	0.016136	0.01136	0.001242	-0.464355	0.098877	-0.681885
142.0	9.446835	0.098327	3.289418	0.015191	0.009441	0.004342	-0.4646	0.103271	-0.67749
143.0	9.480452	0.104525	3.291444	0.009711	0.011417	0.003442	-0.466553	0.09668	-0.677246
144.0	9.48221	0.089736	3.311655	0.012439	0.010059	0.001385	-0.466797	0.103271	-0.67041
145.0	9.46423	0.085315	3.342007	0.010736	0.011885	0.00105	-0.459717	0.09668	-0.674805
146.0	9.461779	0.100431	3.323776	0.010892	0.008985	0.002466	-0.464355	0.101074	-0.672852
147.0	9.470439	0.062309	3.262631	0.011625	0.004501	0.000887	-0.464355	0.098877	-0.679688
148.0	9.463491	0.085898	3.344085	0.006745	0.005633	0.002004	-0.466797	0.105469	-0.670654
149.0	9.484372	0.079039	3.274662	0.013329	0.002674	0.001223	-0.464355	0.098877	-0.681885
150.0	9.468722	0.059719	3.323546	0.009999	0.004878	0.001259	-0.466797	0.103271	-0.672852
151.0	9.448838	0.070394	3.334087	0.014278	0.00459	-0.001877	-0.464355	0.09668	-0.677246
152.0	9.482637	0.076981	3.335593	0.01	0.004877	0.001259	-0.4646	0.103271	-0.67041
153.0	9.482522	0.077306	3.335914	0.012807	0.002068	-8.8e-05	-0.459961	0.103271	-0.67749
154.0	9.468263	0.061408	3.324822	0.013987	-0.000363	-0.001063	-0.459961	0.101074	-0.672852
155.0	9.482396	0.078267	3.336249	0.013702	0.006175	0.001118	-0.462158	0.098877	-0.675049
156.0	9.501916	0.06836	3.326743	0.015854	0.006401	0.002057	-0.462158	0.101074	-0.67749
157.0	9.463555	0.092285	3.287829	0.014228	0.006779	0.002429	-0.464355	0.101074	-0.679688
158.0	9.447893	0.07309	3.336708	0.016665	0.000466	0.00119	-0.466553	0.09668	-0.674805
159.0	9.485139	0.067604	3.297643	0.007797	0.006841	0.004624	-0.462158	0.101074	-0.675049
160.0	9.447629	0.073178	3.337454	0.010157	0.001978	0.002677	-0.466553	0.096436	-0.670166
161.0	9.516747	0.088717	3.280228	0.014307	0.005328	0.003138	-0.461914	0.092285	-0.681641
162.0	9.504455	0.057738	3.288747	0.017038	0.003966	0.001084	-0.464355	0.101074	-0.672852
163.0	9.479138	0.095021	3.320291	0.015565	0.001447	0.002874	-0.466553	0.09668	-0.672607
164.0	9.498852	0.084803	3.310259	0.010837	-0.000315	0.005408	-0.462158	0.101074	-0.67749
165.0	9.485894	0.071589	3.239568	0.011108	0.00389	-0.000424	-0.464111	0.094482	-0.677246
166.0	9.498643	0.085221	3.310847	0.01431	0.005327	0.003138	-0.46875	0.094238	-0.674805
167.0	9.482252	0.083871	3.280676	0.011339	-0.000456	0.001706	-0.461914	0.09668	-0.672607
168.0	9.46254	0.094326	3.290689	0.005407	-0.000531	0.000197	-0.466553	0.101074	-0.672852
169.0	9.484305	0.06934	3.300006	0.010083	0.003424	0.001968	-0.461914	0.092285	-0.677002
170.0	9.501787	0.074099	3.271161	0.008302	0.0067	0.000919	-0.4646	0.103271	-0.675049
171.0	9.480599	0.0814	3.341279	0.006457	0.00068	0.002819	-0.46875	0.098877	-0.679688
172.0	9.498188	0.086081	3.31213	0.011712	0.003045	0.001597	-0.462158	0.103271	-0.675049
173.0	9.483834	0.069746	3.301351	0.011134	0.004634	0.00459	-0.46875	0.09668	-0.684082
174.0	9.515561	0.090818	3.28361	0.010008	0.004871	0.001258	-0.464355	0.098877	-0.681885
175.0	9.441983	0.105445	3.303098	0.010008	0.004871	0.001258	-0.466553	0.098877	-0.677246
176.0	9.477185	0.11475	3.244767	0.008009	0.001748	0.001739	-0.464111	0.094482	-0.677246
177.0	9.497568	0.086582	3.313893	0.000973	0.002659	0.001911	-0.464355	0.098877	-0.677246
178.0	9.493271	0.116108	3.275801	-0.000283	0.00654	0.002172	-0.466553	0.098877	-0.667969
179.0	9.507252	0.132442	3.287655	-0.003113	0.008604	-0.0015	-0.462158	0.101074	-0.67749
180.0	9.526705	0.12206	3.278416	-0.001987	0.008367	0.001832	-0.464355	0.09668	-0.679443
181.0	9.512122	0.105409	3.268324	-0.005472	0.013469	0.000442	-0.4646	0.105469	-0.67749
182.0	9.5118	0.105175	3.269269	-0.008368	0.00624	-0.000279	-0.468994	0.103271	-0.672852
183.0	9.501385	0.058814	3.297585	-0.007623	0.013242	-0.000498	-0.462158	0.098877	-0.679688
184.0	9.493431	0.100156	3.300609	-0.007995	0.00974	-0.000388	-0.46875	0.098877	-0.677246
185.0	9.478793	0.083493	3.290667	-0.005021	0.015521	0.001045	-0.461914	0.094482	-0.681885
186.0	9.500099	0.05802	3.301303	-0.008725	0.014225	0.001184	-0.464355	0.098877	-0.677246
187.0	9.49761	0.072505	3.283303	-0.009172	0.012172	0.000583	-0.462158	0.098877	-0.679688
188.0	9.505733	0.115324	3.317306	-0.004273	0.022522	0.000829	-0.466553	0.101074	-0.67749
189.0	9.503011	0.129837	3.299997	-0.007825	0.01833	0.002387	-0.464355	0.098877	-0.679688
190.0	9.482624	0.13972	3.311888	-0.01443	0.020546	-0.001857	-0.464355	0.098877	-0.675049
191.0	9.455641	0.091707	3.310534	-0.008796	0.01567	0.000475	-0.466797	0.105469	-0.67749
192.0	9.47337	0.078198	3.361796	-0.007841	0.017582	-0.002626	-0.466553	0.101074	-0.672852
193.0	9.46051	0.046889	3.371804	-0.007018	0.023135	-0.002131	-0.462158	0.101074	-0.682129
194.0	9.43795	0.072037	3.364752	-0.003238	0.022981	-0.001557	-0.466553	0.098877	-0.675049
195.0	9.439231	0.057183	3.386088	-0.007464	0.02108	-0.002733	-0.459717	0.098877	-0.681885
196.0	9.454229	0.076693	3.33958	0.000618	0.02138	-0.000272	-0.462158	0.098877	-0.675049
197.0	9.441323	0.045364	3.349697	-0.002636	0.022136	0.000465	-0.459717	0.09668	-0.679443
198.0	9.418804	0.07037	3.342546	-0.000484	0.022361	0.001409	-0.466553	0.098877	-0.675049
199.0	9.45776	0.050033	3.324162	0.007487	0.011881	-0.003212	-0.462158	0.101074	-0.679688
200.0	9.43196	0.087364	3.35664	0.007355	0.015521	0.000383	-0.462158	0.101074	-0.672852
201.0	9.485162	0.083444	3.349319	0.007355	0.01552	0.000384	-0.464355	0.101074	-0.67749
202.0	9.490227	0.057155	3.329591	0.007865	0.015379	-0.003318	-0.4646	0.105469	-0.679932
203.0	9.436086	0.061942	3.339529	0.014598	0.009523	-0.002661	-0.461914	0.094482	-0.684082
204.0	9.471319	0.071695	3.281934	0.011939	0.009437	9.7e-05	-0.461914	0.09668	-0.672607
205.0	9.467407	0.084043	3.32327	0.010821	0.009674	-0.003237	-0.464355	0.101074	-0.682129
206.0	9.47271	0.057854	3.302914	0.009863	0.007763	-0.000138	-0.464355	0.098877	-0.672607
207.0	9.470427	0.073058	3.284475	0.016242	0.009889	0.001987	-0.462158	0.101074	-0.682129
208.0	9.504136	0.079468	3.286404	0.012161	0.005094	0.002227	-0.464355	0.09668	-0.679443
209.0	9.471967	0.058776	3.305028	0.011493	0.007383	-0.000505	-0.466553	0.09668	-0.679443
210.0	9.487506	0.078523	3.257268	0.012538	0.008593	0.002119	-0.4646	0.107666	-0.677734
211.0	9.521181	0.084873	3.259309	0.012539	0.008592	0.00212	-0.462158	0.098877	-0.679688
212.0	9.524869	0.055383	3.298672	0.012539	0.008592	0.00212	-0.464111	0.09668	-0.674805
213.0	9.510403	0.039114	3.288319	0.013062	0.009197	0.003432	-0.462158	0.098877	-0.679688
214.0	9.524244	0.055808	3.300471	0.014023	0.011105	0.000332	-0.464355	0.098877	-0.681885
215.0	9.495537	0.023449	3.279123	0.021583	0.010799	0.00149	-0.466553	0.09668	-0.681885
216.0	9.477408	0.019309	3.309282	0.020624	0.00889	0.004591	-0.464355	0.098877	-0.677246
217.0	9.471563	0.046273	3.331079	0.020248	0.00539	0.004701	-0.462402	0.105469	-0.679932
218.0	9.457168	0.030168	3.320525	0.023884	0.008129	0.003859	-0.462158	0.101074	-0.67749
219.0	9.451258	0.057349	3.342486	0.028116	0.010026	0.00504	-0.461914	0.09668	-0.679443
220.0	9.478302	0.005867	3.331643	0.026562	0.008958	0.006118	-0.468994	0.10083	-0.668213
221.0	9.511997	0.012397	3.333632	0.033676	0.006597	0.006679	-0.459961	0.103271	-0.679688
222.0	9.491951	0.023273	3.344297	0.031383	0.00926	0.004309	-0.462402	0.105469	-0.670654
223.0	9.475445	0.022224	3.31488	0.032286	0.013363	0.005509	-0.461914	0.09668	-0.679443
224.0	9.491099	0.02448	3.346706	0.040303	0.015103	0.007272	-0.457764	0.101074	-0.675049
225.0	9.484824	0.069442	3.289916	0.042154	0.010383	0.009046	-0.466797	0.103271	-0.679688
226.0	9.486439	0.055203	3.310197	0.040006	0.010153	0.0081	-0.464355	0.101074	-0.67749
227.0	9.48219	0.085313	3.272542	0.044245	0.012047	0.009282	-0.462158	0.101074	-0.679688
228.0	9.49236	0.114174	3.324995	0.037421	0.008627	0.01157	-0.459961	0.101074	-0.672852
229.0	9.456257	0.123125	3.304962	0.027315	0.004456	0.004562	-0.462158	0.098877	-0.681885
230.0	9.477822	0.098244	3.314884	0.02948	0.005439	0.010522	-0.459717	0.098877	-0.675049
231.0	9.441762	0.107225	3.29473	0.03051	0.005133	0.003121	-0.459961	0.101074	-0.679688
232.0	9.479426	0.084254	3.335165	0.028962	0.004829	0.009212	-0.459961	0.101074	-0.67749
233.0	9.482952	0.072211	3.295249	0.023026	0.00476	0.007681	-0.459717	0.09668	-0.681885
234.0	9.493291	0.101004	3.347158	0.027849	0.005055	0.005876	-0.466553	0.098877	-0.677246
235.0	9.47708	0.099392	3.316969	0.023172	0.001869	0.009112	-0.464355	0.101074	-0.679688
236.0	9.464777	0.068105	3.325385	0.021019	0.001643	0.008165	-0.46875	0.09668	-0.679443
237.0	9.459173	0.09519	3.346336	0.024344	-0.001332	0.003142	-0.461914	0.094482	-0.677246
238.0	9.45926	0.095562	3.346078	0.01907	-0.003679	0.004352	-0.462158	0.101074	-0.675049
239.0	9.447109	0.064635	3.354062	0.016846	-0.002461	0.002689	-0.461914	0.092285	-0.681641
240.0	9.479231	0.085748	3.335681	0.016846	-0.002462	0.00269	-0.464355	0.101074	-0.67749
241.0	9.461445	0.081831	3.364708	0.016253	-0.001627	0.000663	-0.464355	0.101074	-0.672852
242.0	9.467053	0.055357	3.343738	0.017229	0.001034	0.002569	-0.462158	0.103271	-0.67749
243.0	9.427475	0.076545	3.36346	0.014551	0.0002	0.000311	-0.462158	0.098877	-0.679688
244.0	9.465104	0.070902	3.324396	0.014552	0.000199	0.000311	-0.464355	0.098877	-0.675049
245.0	9.477305	0.102389	3.316237	0.01011	0.003404	0.001994	-0.462158	0.098877	-0.677246
246.0	9.44515	0.081742	3.334714	0.012266	0.003628	0.002942	-0.462158	0.101074	-0.679688
247.0	9.464966	0.07166	3.324772	0.009408	-0.005801	-0.002055	-0.464111	0.094482	-0.674805
248.0	9.481239	0.073654	3.354777	0.006155	-0.004265	0.003682	-0.462158	0.098877	-0.679688
249.0	9.486918	0.046796	3.333629	0.009206	-0.000702	0.000806	-0.459717	0.098877	-0.677246
250.0	9.459646	0.099193	3.344882	0.011875	-0.000637	-0.001947	-0.462158	0.101074	-0.675049
251.0	9.485107	0.062328	3.313885	0.008301	-0.004808	-0.000381	-0.464355	0.09668	-0.677246
252.0	9.451267	0.056515	3.312289	0.01091	-0.002531	0.00116	-0.4646	0.103271	-0.67749
253.0	9.497416	0.093964	3.305394	0.006707	0.007058	0.001285	-0.459717	0.098877	-0.677246
254.0	9.457699	0.114932	3.325505	0.003646	0.002728	-0.000849	-0.464355	0.101074	-0.67749
255.0	9.497162	0.094465	3.306111	0.000371	0.002727	-0.005134	-0.461914	0.094482	-0.681885
256.0	9.49903	0.080022	3.325677	0.004311	0.00045	0.001895	-0.470947	0.096436	-0.670166
257.0	9.48474	0.063622	3.314912	0.001872	0.005999	-0.001921	-0.462158	0.101074	-0.682129
258.0	9.47899	0.090713	3.336234	0.002014	0.003112	-0.000486	-0.466797	0.103271	-0.675049
259.0	9.478959	0.090702	3.336321	-0.003717	-0.001284	0.000132	-0.459717	0.09668	-0.677246
260.0	9.49009	0.036809	3.294731	-0.001321	0.005324	-0.000478	-0.467041	0.107666	-0.677734
261.0	9.466391	0.05946	3.345542	0.001217	0.009045	0.000346	-0.466309	0.094482	-0.684082
262.0	9.450158	0.057705	3.315432	-0.004835	-0.00106	-0.003206	-0.459961	0.101074	-0.672852
263.0	9.482206	0.078644	3.297249	-0.00275	0.000609	-0.002975	-0.4646	0.103271	-0.675049
264.0	9.464265	0.074613	3.326701	0.001419	0.003946	-0.002513	-0.462158	0.103271	-0.675049
265.0	9.466032	0.06009	3.346547	-0.003476	0.005099	-0.001426	-0.459961	0.101074	-0.679688
266.0	9.483879	0.064411	3.31736	-0.000905	-0.004106	-0.001187	-0.471191	0.10083	-0.672852
267.0	9.450043	0.058489	3.315747	-0.003655	-0.003497	-0.004162	-0.461914	0.09668	-0.677246
268.0	9.484002	0.064738	3.317002	0.000382	0.003496	-0.000123	-0.462158	0.098877	-0.677246
269.0	9.485869	0.050267	3.336565	-0.001641	-0.000385	-0.004648	-0.464355	0.098877	-0.679688
270.0	9.484012	0.065125	3.316966	-0.000382	-0.003496	0.000123	-0.462158	0.098877	-0.677246
271.0	9.503915	0.054917	3.306797	0.00392	-0.003815	-0.002992	-0.462158	0.098877	-0.675049
272.0	9.464393	0.076006	3.326307	0.001561	0.001059	-0.00108	-0.466553	0.098877	-0.675049
273.0	9.469998	0.049271	3.305415	0.001109	-0.000994	-0.001673	-0.462158	0.101074	-0.67749
274.0	9.487936	0.053664	3.275956	0.003406	-0.003655	0.000709	-0.462158	0.101074	-0.67041
275.0	9.486272	0.051303	3.335403	0.003335	-0.002212	-8e-06	-0.457764	0.101074	-0.67749
276.0	9.484382	0.066024	3.31589	0.002156	0.000225	0.000948	-0.466553	0.101074	-0.675049
277.0	9.450418	0.059936	3.314652	0.005943	6.7e-05	0.001533	-0.462158	0.098877	-0.675049
278.0	9.46832	0.06433	3.28529	0.004967	-0.002596	-0.000371	-0.466797	0.103271	-0.675049
279.0	9.484603	0.066235	3.315254	0.005251	-0.008369	0.002498	-0.464355	0.101074	-0.682129
280.0	9.504588	0.05583	3.304849	0.001251	-0.003881	-0.000239	-0.462158	0.101074	-0.675049
281.0	9.504703	0.055831	3.304518	0.00393	-0.003046	0.002019	-0.462158	0.101074	-0.67749
282.0	9.490684	0.039431	3.292989	0.004062	-0.006702	-0.001557	-0.4646	0.103271	-0.67041
283.0	9.485267	0.0666	3.313345	0.006671	-0.004424	-1.7e-05	-0.464355	0.098877	-0.679688
284.0	9.489026	0.054583	3.27278	0.007052	-0.000928	-0.000141	-0.466797	0.103271	-0.675049
285.0	9.451478	0.060922	3.311611	0.005039	-0.00404	0.000346	-0.464355	0.09668	-0.677246
286.0	9.483608	0.081619	3.293141	0.004978	-0.001826	0.004639	-0.4646	0.105469	-0.672852
287.0	9.471525	0.050273	3.301022	0.005253	-0.00837	0.002499	-0.466553	0.098877	-0.675049
288.0	9.469839	0.064852	3.280899	0.005706	-0.006317	0.003091	-0.464355	0.101074	-0.672852
289.0	9.539868	0.062264	3.302275	0.006158	-0.004264	0.003684	-0.459961	0.101074	-0.675049
290.0	9.489884	0.054231	3.270298	0.006016	-0.001377	0.002249	-0.468994	0.103271	-0.675049
291.0	9.50415	0.070773	3.281117	0.011508	-0.003365	0.003188	-0.466553	0.09668	-0.679443
292.0	9.472221	0.050189	3.299025	0.008757	-0.002757	0.000213	-0.466553	0.098877	-0.672607
293.0	9.498773	0.097907	3.301379	0.012629	-0.003588	0.006525	-0.464355	0.098877	-0.679688
294.0	9.470545	0.065008	3.278856	0.013726	-0.005356	-0.000157	-0.464355	0.101074	-0.675049
295.0	9.48481	0.081904	3.289671	0.009139	0.000739	8.7e-05	-0.464355	0.09668	-0.679443
296.0	9.468983	0.063086	3.338132	0.014334	-0.005417	0.006881	-0.462158	0.103271	-0.672852
297.0	9.481453	0.094202	3.32913	0.008972	-0.007088	0.002368	-0.466553	0.09668	-0.684082
298.0	9.471119	0.065339	3.277192	0.012178	-0.005643	0.005934	-0.466797	0.103271	-0.675049
299.0	9.45344	0.061127	3.306	0.013144	-0.003752	0.002825	-0.470947	0.094238	-0.681885
300.0	9.471693	0.048386	3.355373	0.013884	-0.007472	0.00629	-0.458008	0.107666	-0.675293
301.0	9.47369	0.050647	3.2948	0.012907	-0.010136	0.00439	-0.4646	0.105469	-0.679932
302.0	9.502453	0.083887	3.315786	0.017281	-0.011904	0.001992	-0.462158	0.101074	-0.672852
303.0	9.492155	0.055071	3.263688	0.017022	-0.004583	0.009137	-0.464355	0.098877	-0.679688
304.0	9.528267	0.046527	3.283722	0.016031	-0.008023	0.002227	-0.4646	0.103271	-0.679688
305.0	9.47669	0.036451	3.311192	0.017535	-0.004749	0.005436	-0.462158	0.101074	-0.675049
306.0	9.487207	0.082296	3.282741	0.019241	-0.006578	0.005793	-0.468994	0.101074	-0.672852
307.0	9.485476	0.096907	3.262681	0.015976	-0.005807	0.006519	-0.466553	0.09668	-0.679443
308.0	9.475329	0.051347	3.290072	0.02184	-0.005078	0.002319	-0.466553	0.098877	-0.67041
309.0	9.473606	0.066216	3.269977	0.019316	-0.008023	0.006513	-0.462158	0.098877	-0.672607
310.0	9.489969	0.068144	3.299823	0.013749	-0.00459	0.004854	-0.466553	0.101074	-0.67041
311.0	9.522205	0.088816	3.280922	0.021477	-0.0078	0.00746	-0.466553	0.098877	-0.677246
312.0	9.488487	0.082836	3.279026	0.018722	-0.007194	0.004485	-0.464355	0.101074	-0.675049
313.0	9.506518	0.087022	3.249096	0.013823	-0.006034	0.005575	-0.46875	0.098633	-0.67041
314.0	9.486947	0.097478	3.258385	0.017544	-0.004754	0.005437	-0.467041	0.107666	-0.670654
315.0	9.487077	0.097522	3.258004	0.01584	-0.002925	0.00508	-0.466553	0.098877	-0.677246
316.0	9.50884	0.072668	3.267458	0.014645	-0.001264	0.001022	-0.466553	0.101074	-0.672852
317.0	9.48725	0.097923	3.257489	0.011594	-0.004817	0.00391	-0.466553	0.101074	-0.679688
318.0	9.494868	0.056449	3.255762	0.01479	-0.00415	0.002464	-0.462158	0.103271	-0.67041
319.0	9.469726	0.09418	3.285959	0.01911	-0.003702	0.004355	-0.464355	0.09668	-0.677246
320.0	9.491606	0.069343	3.295084	0.014409	-0.007647	0.002597	-0.468994	0.101074	-0.67749
321.0	9.498967	0.044584	3.213972	0.01539	-0.004982	0.004493	-0.461914	0.09668	-0.670166
322.0	9.454054	0.092792	3.254061	0.018969	-0.000819	0.002913	-0.466553	0.09668	-0.674805
323.0	9.499207	0.044929	3.213258	0.013375	-0.008091	0.004991	-0.466553	0.098877	-0.675049
324.0	9.508237	0.088625	3.244019	0.017823	-0.011311	0.003316	-0.468994	0.101074	-0.675049
325.0	9.528356	0.078239	3.233098	0.010834	-0.011813	0.004181	-0.464355	0.098877	-0.677246
326.0	9.489166	0.099155	3.251866	0.015993	-0.005814	0.006523	-0.466797	0.103271	-0.67041
327.0	9.477128	0.068101	3.259718	0.020441	-0.009034	0.004848	-0.466797	0.103271	-0.675049
328.0	9.477471	0.068392	3.258712	0.0173	-0.011927	0.002009	-0.46875	0.098633	-0.67041
329.0	9.497554	0.058187	3.247887	0.018283	-0.00926	0.003903	-0.464355	0.101074	-0.67749
330.0	9.503245	0.031416	3.226585	0.020683	-0.002656	0.003267	-0.468994	0.103271	-0.668213
331.0	9.499765	0.044299	3.266636	0.016816	-0.001049	0.001964	-0.464111	0.094482	-0.677246
332.0	9.495865	0.073576	3.227583	0.018399	0.000789	0.005887	-0.466797	0.105469	-0.670654
333.0	9.529887	0.079882	3.228545	0.017997	-0.003495	0.001016	-0.471191	0.101074	-0.67749
334.0	9.508245	0.105362	3.218682	0.02107	0.000838	0.003131	-0.471191	0.10083	-0.672852
335.0	9.495896	0.07424	3.227478	0.014553	0.003182	0.00959	-0.464111	0.09668	-0.672607
336.0	9.499336	0.06156	3.18755	0.013934	0.003223	0.002552	-0.4646	0.103271	-0.675049
337.0	9.529553	0.080203	3.229521	0.016355	0.010614	0.00692	-0.466553	0.101074	-0.67749
338.0	9.515027	0.063667	3.219459	0.018643	0.007165	0.004304	-0.468994	0.103027	-0.663574
339.0	9.534532	0.053328	3.210342	0.018644	0.007165	0.004304	-0.464355	0.101074	-0.675049
340.0	9.51252	0.078411	3.201592	0.016742	0.014109	0.006781	-0.468994	0.105469	-0.675293
341.0	9.545989	0.084491	3.204211	0.016001	0.017818	0.003303	-0.464355	0.101074	-0.679688
342.0	9.49182	0.088959	3.214229	0.008766	0.010945	0.005755	-0.471191	0.098633	-0.667969
343.0	9.51317	0.063846	3.224937	0.010981	0.008936	0.002417	-0.468994	0.103271	-0.675049
344.0	9.493161	0.0744	3.235508	0.005621	0.008052	0.002918	-0.468994	0.101074	-0.67041
345.0	9.466381	0.026704	3.233937	0.011125	0.006054	0.003865	-0.466797	0.103271	-0.67749
346.0	9.514477	0.049385	3.246308	0.011848	0.001553	0.002336	-0.464355	0.101074	-0.672852
347.0	9.482298	0.028928	3.265099	0.013288	0.006276	0.00481	-0.466797	0.103271	-0.679688
348.0	9.4659	0.027161	3.235342	0.016926	0.008199	-0.001061	-0.468994	0.103271	-0.67749
349.0	9.474408	0.071176	3.267548	0.01329	0.006276	0.004811	-0.466309	0.094482	-0.679443
350.0	9.445782	0.03816	3.246203	0.015577	0.002825	0.002198	-0.469238	0.107666	-0.666016
351.0	9.472226	0.086124	3.248744	0.017669	0.004489	0.00242	-0.466553	0.101074	-0.675049
352.0	9.491831	0.075793	3.239376	0.01447	0.003829	0.003867	-0.471191	0.103271	-0.675049
353.0	9.505972	0.092617	3.250538	0.017215	0.002433	0.001838	-0.464355	0.101074	-0.67749
354.0	9.486279	0.103406	3.260145	0.015407	-0.004994	0.004515	-0.466797	0.103271	-0.67041
355.0	9.536312	0.127937	3.211951	0.01101	-0.004	0.001898	-0.466553	0.098877	-0.672607
356.0	9.543815	0.086427	3.21063	0.009832	-0.001554	0.002841	-0.464355	0.101074	-0.672852
357.0	9.509929	0.080341	3.209232	0.008338	-0.004044	0.004653	-0.46875	0.094238	-0.672607
358.0	9.529746	0.069807	3.199245	0.00707	-0.000951	-0.000137	-0.466553	0.101074	-0.675049
359.0	9.504579	0.107593	3.229419	0.008268	-0.002603	0.003928	-0.462158	0.103271	-0.67041
360.0	9.494181	0.062037	3.257664	0.004256	0.001886	0.001167	-0.471191	0.098633	-0.672607
361.0	9.479688	0.061796	3.167437	0.004978	-0.002615	-0.000358	-0.468994	0.101074	-0.672852
362.0	9.478166	0.060163	3.226792	0.002957	-0.005719	0.000147	-0.466797	0.105469	-0.672852
363.0	9.530125	0.070222	3.198106	0.006685	-0.004447	7e-06	-0.466553	0.098877	-0.675049
364.0	9.528598	0.068741	3.25749	0.010414	-0.003176	-0.000134	-0.473389	0.10083	-0.675049
365.0	9.469248	0.117127	3.207016	0.009358	-0.004405	-0.002747	-0.462158	0.101074	-0.668213
366.0	9.550231	0.060716	3.187229	0.007214	-0.003833	0.001314	-0.46875	0.098877	-0.672607
367.0	9.564622	0.077368	3.19765	0.009449	-0.00505	0.002985	-0.462158	0.101074	-0.682129
368.0	9.525196	0.098625	3.217016	0.003657	0.002712	-0.000866	-0.462158	0.101074	-0.668213
369.0	9.512805	0.067769	3.225935	0.009692	0.001326	0.00139	-0.471191	0.098877	-0.677246
370.0	9.518273	0.040756	3.20539	0.0076	-0.000338	0.00117	-0.475586	0.098633	-0.67041
371.0	9.512822	0.067993	3.22588	0.003871	-0.001609	0.001311	-0.464355	0.101074	-0.67041
372.0	9.498529	0.051521	3.215162	0.005751	0.004375	-0.000647	-0.468994	0.101074	-0.675049
373.0	9.498366	0.05165	3.215643	0.008971	0.005828	0.002913	-0.471191	0.098633	-0.675049
374.0	9.500266	0.037351	3.235284	0.010487	-0.004618	0.000594	-0.471191	0.098633	-0.66333
375.0	9.512718	0.068698	3.226171	0.01258	-0.002955	0.000814	-0.464111	0.09668	-0.674805
376.0	9.503925	0.025219	3.194831	0.01388	0.004651	0.001829	-0.468994	0.105225	-0.661377
377.0	9.498327	0.052693	3.215741	0.013424	0.002595	0.001249	-0.473389	0.098633	-0.675049
378.0	9.508984	0.082346	3.26681	0.013038	-0.0009	0.001395	-0.471191	0.098633	-0.67041
379.0	9.478581	0.063944	3.225499	0.014604	0.000147	0.000308	-0.46875	0.098877	-0.681885
380.0	9.512534	0.070435	3.226676	0.014534	0.001586	-0.000418	-0.46875	0.098877	-0.675049
381.0	9.498171	0.054307	3.216173	0.013284	0.005474	-0.000204	-0.471191	0.101074	-0.67749
382.0	9.517712	0.044066	3.207013	0.012176	0.006482	0.001463	-0.473633	0.103027	-0.672852
383.0	9.495889	0.069526	3.197641	0.014393	0.004465	-0.00187	-0.471436	0.105469	-0.675293
384.0	9.509934	0.086604	3.209054	0.014271	0.008144	0.001682	-0.46875	0.098633	-0.667969
385.0	9.511672	0.072458	3.229172	0.009626	0.002763	0.000665	-0.471191	0.103271	-0.675049
386.0	9.495393	0.070489	3.199092	0.010084	0.004818	0.001244	-0.46875	0.098633	-0.665771
387.0	9.516884	0.045682	3.209445	0.010084	0.004818	0.001244	-0.466553	0.09668	-0.672607
388.0	9.529088	0.077054	3.201037	0.01283	0.003416	-0.000782	-0.466797	0.103271	-0.668213
389.0	9.48953	0.098521	3.220705	0.012391	0.002162	0.003645	-0.464355	0.098877	-0.677246
390.0	9.52538	0.09032	3.241542	0.00484	0.00026	-0.001807	-0.466797	0.105469	-0.670654
391.0	9.514693	0.061329	3.190647	0.010208	0.001136	-0.002307	-0.466553	0.101074	-0.67041
392.0	9.536333	0.036737	3.200568	0.013044	-0.000903	0.0014	-0.471191	0.103271	-0.675049
393.0	9.502353	0.030995	3.199454	0.011336	0.000929	0.001033	-0.466797	0.105469	-0.672852
394.0	9.520146	0.035216	3.170226	0.016177	0.001188	-0.000774	-0.478027	0.103027	-0.675049
395.0	9.51813	0.050114	3.150922	0.015456	0.005692	0.000743	-0.471191	0.10083	-0.672852
396.0	9.519792	0.036098	3.17128	0.016372	0.009803	0.001899	-0.468994	0.10083	-0.668213
397.0	9.497876	0.061488	3.16216	0.019718	0.007576	0.001909	-0.466553	0.101074	-0.679688
398.0	9.533525	0.053419	3.183607	0.020846	0.00737	0.005249	-0.468994	0.103271	-0.67041
399.0	9.55104	0.057328	3.155252	0.023859	0.013141	0.006624	-0.46875	0.098877	-0.672607
400.0	9.586415	0.049024	3.177529	0.014933	0.018809	0.004928	-0.471191	0.103271	-0.675049
401.0	9.603747	0.05275	3.149774	0.020587	0.013927	0.007343	-0.470947	0.096436	-0.679443
402.0	9.608254	0.125347	3.143145	0.022684	0.015587	0.007563	-0.466797	0.103271	-0.67041
403.0	9.595311	0.094384	3.153786	0.019131	0.022128	0.005365	-0.4646	0.105469	-0.67749
404.0	9.578718	0.076389	3.204588	0.018286	0.016577	0.00494	-0.469238	0.107666	-0.673096
405.0	9.576579	0.091436	3.1857	0.027584	-0.000146	-0.003998	-0.468994	0.101074	-0.672852
406.0	9.540774	0.101399	3.164692	0.038525	-0.003527	-0.007809	-0.466797	0.103271	-0.67041
407.0	9.511901	0.154367	3.234752	0.038251	0.002223	-0.010726	-0.464355	0.098877	-0.672607
408.0	9.481754	0.122414	3.272627	0.047294	-0.007947	-0.017568	-0.46875	0.098877	-0.675049
409.0	9.543428	0.079613	3.261675	0.042649	-0.027072	-0.02405	-0.46875	0.098877	-0.672607
410.0	9.673436	0.050053	3.251875	0.06545	-0.030547	-0.035521	-0.468994	0.103271	-0.67041
411.0	9.715452	0.037276	3.170308	0.116894	-0.02083	-0.052923	-0.46875	0.098877	-0.675049
412.0	9.743954	0.081164	3.191365	0.168337	0.014723	-0.069416	-0.473145	0.094238	-0.670166
413.0	9.65605	-0.021874	3.269813	0.216354	0.055326	-0.087401	-0.466309	0.094238	-0.667969
414.0	9.594731	0.011735	3.384382	0.275263	0.075656	-0.092976	-0.473145	0.096436	-0.670166
415.0	9.505038	0.115778	3.430813	0.348456	0.095418	-0.099484	-0.463867	0.087646	-0.674561
416.0	9.432486	0.239324	3.368705	0.363238	0.102728	-0.092003	-0.4729	0.087646	-0.667725
417.0	9.469011	0.353469	3.230349	0.391351	0.117763	-0.080472	-0.463623	0.083252	-0.674316
418.0	9.418881	0.637131	3.159279	0.447152	0.12651	-0.060422	-0.470459	0.083252	-0.676758
419.0	9.416761	1.015705	3.207233	0.471489	0.134729	-0.04204	-0.466064	0.083252	-0.683594
420.0	9.378431	1.327539	3.121313	0.462156	0.127021	-0.030881	-0.467773	0.074463	-0.676514
421.0	9.339631	1.537564	3.083358	0.437798	0.123533	-0.022397	-0.461182	0.074463	-0.676514
422.0	9.131952	1.800683	3.06575	0.402756	0.111841	-0.014955	-0.463379	0.07666	-0.678711
423.0	8.9812	2.055444	2.977375	0.326668	0.083414	-0.008218	-0.463135	0.070068	-0.683105
424.0	8.89518	2.246913	2.899462	0.240148	0.038359	0.002052	-0.463135	0.070068	-0.67627
425.0	8.861817	2.34433	2.843265	0.154131	0.002744	0.016068	-0.465576	0.072266	-0.678711
426.0	8.974484	2.321601	2.784956	0.075242	-0.023221	0.025988	-0.463379	0.074463	-0.678711
427.0	9.166483	2.352514	2.697107	0.00619	-0.061697	0.032234	-0.467773	0.072266	-0.685547
428.0	9.440081	2.224854	2.644388	-0.093837	-0.107456	0.031048	-0.465576	0.074463	-0.674072
429.0	9.728222	2.037334	2.492211	-0.168309	-0.122375	0.022445	-0.463379	0.074463	-0.681152
430.0	9.905736	1.860651	2.415957	-0.194722	-0.095196	0.00903	-0.463623	0.078857	-0.671875
431.0	10.06766	1.642973	2.491564	-0.255648	-0.079879	-0.004339	-0.460938	0.072266	-0.67627
432.0	10.142851	1.323084	2.566425	-0.286928	-0.075943	-0.017777	-0.463623	0.078857	-0.674316
433.0	10.184518	1.08381	2.668021	-0.292816	-0.06273	-0.024816	-0.468018	0.081055	-0.676758
434.0	10.10151	0.750447	2.807468	-0.283231	-0.028595	-0.026656	-0.468018	0.081055	-0.672119
435.0	9.962171	0.434814	2.936149	-0.255945	0.000865	-0.022802	-0.466064	0.083252	-0.676758
436.0	9.826323	0.191505	3.056378	-0.1775	0.045897	-0.008355	-0.468262	0.085449	-0.669922
437.0	9.708514	0.224928	3.159342	-0.076198	0.102019	0.005073	-0.459229	0.083252	-0.676758
438.0	9.504407	0.329272	3.320693	-0.04069	0.09384	0.032106	-0.459229	0.085449	-0.674561
439.0	9.361016	0.412654	3.37205	-0.064894	0.052893	0.051627	-0.46167	0.087891	-0.679199
440.0	9.184771	0.414814	3.309766	-0.058237	0.028978	0.06964	-0.46167	0.090088	-0.677002
441.0	9.08506	0.546651	3.388664	-0.057058	0.040303	0.074041	-0.46167	0.090088	-0.679199
442.0	8.831324	0.57703	3.383006	-0.087541	0.039672	0.07562	-0.463867	0.085449	-0.672119
443.0	8.634071	0.474796	3.458999	-0.126143	0.02407	0.064376	-0.459473	0.090088	-0.679199
444.0	8.374172	0.374211	3.331953	-0.144452	0.017743	0.044885	-0.46167	0.087646	-0.674561
445.0	8.197205	0.290892	3.239436	-0.184183	0.06482	0.011175	-0.459473	0.092285	-0.677002
446.0	8.202763	0.028671	3.308228	-0.26393	0.144644	-0.035591	-0.462158	0.098877	-0.67041
447.0	8.356723	-0.405462	3.457833	-0.347116	0.235127	-0.086756	-0.459717	0.09668	-0.681885
448.0	8.584407	-0.908031	3.403377	-0.321904	0.263616	-0.159289	-0.459717	0.098877	-0.672607
449.0	8.903899	-1.096726	3.254891	-0.177609	0.214836	-0.235865	-0.459717	0.098877	-0.677246
450.0	9.392911	-1.012287	3.035203	-0.096578	0.159148	-0.303807	-0.450684	0.094482	-0.667969
451.0	10.055839	-0.770768	3.025123	-0.093603	0.152154	-0.353461	-0.455322	0.098877	-0.681885
452.0	10.675868	-0.511481	2.786037	0.041526	0.154002	-0.378853	-0.452881	0.094482	-0.677246
453.0	11.077797	-0.112279	2.508151	0.191807	0.124232	-0.395805	-0.450439	0.092285	-0.674805
454.0	10.989217	-0.024797	2.018817	0.065043	0.124279	-0.387056	-0.457275	0.090088	-0.679199
455.0	10.63856	-0.328539	1.645445	-0.001148	0.232483	-0.354442	-0.448242	0.090088	-0.679443
456.0	10.948671	-0.3579	2.260408	0.023325	0.300568	-0.288256	-0.457031	0.083496	-0.681396
457.0	10.757088	-0.341877	2.748899	0.015361	0.257603	-0.190603	-0.443604	0.087891	-0.679199
458.0	10.734483	-0.301008	2.966144	0.00804	0.082696	-0.097026	-0.448242	0.092285	-0.684082
459.0	10.944494	-0.27998	2.687404	-0.085021	-0.125004	-0.016665	-0.447998	0.083496	-0.683838
460.0	11.023189	-0.093626	2.234544	-0.073666	-0.067033	0.037298	-0.447998	0.087891	-0.679199
461.0	10.822486	0.244704	2.262015	-0.0233	0.158298	0.089198	-0.441406	0.087891	-0.688477
462.0	10.413316	0.433678	2.401437	-0.133984	0.254286	0.112948	-0.448242	0.092285	-0.677002
463.0	9.922623	0.299631	2.384675	-0.224376	0.259358	0.126197	-0.444092	0.098877	-0.688965
464.0	9.562402	0.033204	2.410595	-0.252796	0.233641	0.136163	-0.44165	0.09668	-0.675049
465.0	9.4288	-0.301253	2.425926	-0.271976	0.209336	0.14063	-0.441895	0.098877	-0.681885
466.0	9.279462	-0.739985	2.454248	-0.264717	0.210526	0.145011	-0.444092	0.101074	-0.682129
467.0	9.133518	-1.118836	2.492084	-0.197081	0.211674	0.135992	-0.435059	0.101074	-0.686768
468.0	9.002685	-1.449203	2.65081	-0.097382	0.198516	0.120882	-0.435059	0.09668	-0.686523
469.0	9.008164	-1.545813	2.725419	-0.000763	0.172694	0.118706	-0.439453	0.098877	-0.688965
470.0	9.091207	-1.56595	2.757077	0.096213	0.137485	0.115943	-0.435059	0.101074	-0.686768
471.0	9.097487	-1.410959	2.674941	0.183813	0.095694	0.108783	-0.430664	0.101074	-0.688965
472.0	9.108988	-1.181242	2.582627	0.22864	0.079806	0.103236	-0.430664	0.103271	-0.686768
473.0	9.230301	-0.899885	2.547511	0.265933	0.041917	0.088166	-0.435059	0.101074	-0.693604
474.0	9.373209	-0.440464	2.483384	0.35233	0.015287	0.093427	-0.435303	0.103271	-0.689209
475.0	9.409316	0.026347	2.424669	0.364158	-0.016639	0.097601	-0.432617	0.094482	-0.686523
476.0	9.428278	0.358164	2.26736	0.318191	-0.033195	0.106212	-0.432617	0.094482	-0.688721
477.0	9.434481	0.483682	2.114383	0.283661	-0.03669	0.111617	-0.432617	0.094482	-0.688721
478.0	9.466505	0.52677	2.052365	0.244586	-0.038325	0.119256	-0.44165	0.094482	-0.684082
479.0	9.504559	0.425545	2.039483	0.174367	-0.057519	0.133281	-0.43042	0.094482	-0.684082
480.0	9.517884	0.129594	1.922809	0.088397	-0.082167	0.122675	-0.434814	0.094482	-0.679443
481.0	9.504225	-0.141728	1.854061	0.055759	-0.070239	0.099449	-0.43042	0.09668	-0.688965
482.0	9.760279	-0.286818	1.857094	0.066283	-0.089808	0.072282	-0.43042	0.094482	-0.686523
483.0	9.677545	-0.424593	1.673697	0.044324	-0.052819	0.037764	-0.432617	0.09668	-0.684326
484.0	9.555339	-0.562623	1.763297	0.06513	0.03159	0.015087	-0.432373	0.090088	-0.684082
485.0	9.445721	-0.608178	1.918542	0.062548	0.042776	-0.015378	-0.432373	0.087891	-0.683838
486.0	9.395496	-0.728583	1.957536	0.065148	0.006227	-0.025575	-0.432617	0.09668	-0.679688
487.0	9.340771	-0.778836	1.893801	0.098571	-0.008211	-0.033752	-0.430176	0.090088	-0.679443
488.0	9.186549	-0.801992	1.912335	0.133716	0.006841	-0.043785	-0.430176	0.090088	-0.679443
489.0	9.032096	-0.751242	1.980961	0.121684	-5e-06	-0.056224	-0.425537	0.087891	-0.679199
490.0	9.066244	-0.663902	2.033152	0.118834	-0.01898	-0.068644	-0.427979	0.090088	-0.677002
491.0	9.060358	-0.626713	2.050889	0.152363	-0.033458	-0.076766	-0.430176	0.090088	-0.681641
492.0	9.033402	-0.564239	2.055118	0.163138	-0.054617	-0.079569	-0.432129	0.081299	-0.672119
493.0	9.057775	-0.464357	1.990378	0.180506	-0.088793	-0.08462	-0.429688	0.081299	-0.676758
494.0	9.148848	-0.337433	1.907788	0.187873	-0.106879	-0.08253	-0.429688	0.079102	-0.681152
495.0	9.23815	-0.124425	1.852184	0.173757	-0.10981	-0.074656	-0.425049	0.074707	-0.676514
496.0	9.217995	0.035242	1.738124	0.153341	-0.10958	-0.059258	-0.429688	0.079102	-0.669678
497.0	9.370167	0.18596	1.695858	0.112875	-0.126954	-0.0479	-0.427002	0.070313	-0.674072
498.0	9.472474	0.337844	1.598761	0.088897	-0.12025	-0.034903	-0.42749	0.079102	-0.676514
499.0	9.557698	0.345648	1.644172	0.027573	-0.097931	-0.025926	-0.425293	0.079102	-0.674316
500.0	9.691034	0.116062	1.67682	-0.092511	-0.135716	-0.021727	-0.434326	0.083496	-0.665039
501.0	9.996372	-0.355155	1.709681	-0.172309	-0.20536	-0.009121	-0.429688	0.076904	-0.669678
502.0	10.327374	-0.839158	1.665153	-0.171645	-0.264897	-0.01123	-0.434082	0.076904	-0.664795
503.0	10.541369	-1.185687	1.653202	-0.087442	-0.302633	-0.022904	-0.431885	0.076904	-0.662598
504.0	10.753238	-1.356134	1.695355	-0.017298	-0.30788	-0.035229	-0.429688	0.081299	-0.665039
505.0	11.022694	-1.555551	1.771941	-0.008154	-0.273972	-0.043935	-0.438477	0.074707	-0.662598
506.0	11.393138	-1.473898	1.882765	0.106944	-0.251567	-0.035238	-0.438477	0.074707	-0.65332
507.0	11.772515	-1.080538	2.320142	0.171223	-0.234902	0.003933	-0.427246	0.07251	-0.660156
508.0	12.194671	-0.501355	2.557937	0.182451	-0.187849	0.069189	-0.438477	0.074707	-0.65332
509.0	12.535528	0.390845	2.425552	0.35636	-0.179887	0.128178	-0.433838	0.07251	-0.655518
510.0	12.746722	1.421889	2.217622	0.256912	-0.180576	0.146822	-0.438232	0.070068	-0.650635
511.0	12.734432	1.311201	2.201561	-0.25429	-0.091101	0.184182	-0.429443	0.07251	-0.653076
512.0	12.813373	0.216073	2.789019	-0.582078	0.079404	0.217063	-0.431885	0.076904	-0.648682
513.0	12.410203	-0.397045	3.60433	-0.298921	0.1762	0.199548	-0.429688	0.079102	-0.651123
514.0	11.899008	0.238424	4.22449	-0.044535	0.073579	0.160439	-0.429688	0.079102	-0.648682
515.0	11.906933	0.693528	4.345983	-0.206448	0.040342	0.130288	-0.429932	0.083496	-0.651123
516.0	11.634864	0.705991	4.316295	-0.197687	0.171806	0.103161	-0.429688	0.079102	-0.646484
517.0	10.804002	0.857016	4.695337	-0.162774	0.218313	0.073674	-0.422852	0.076904	-0.648682
518.0	9.919398	0.693017	4.859246	-0.325542	0.120761	0.054824	-0.427734	0.087891	-0.653809
519.0	9.518654	0.208281	4.725348	-0.410073	-0.043925	0.035334	-0.425537	0.085693	-0.651367
520.0	9.393491	-0.598826	4.571446	-0.412834	-0.098666	0.031256	-0.425537	0.087891	-0.646729
521.0	9.200329	-1.502697	4.047517	-0.330655	-0.061579	0.033357	-0.421143	0.087891	-0.658447
522.0	9.164111	-1.592116	3.664195	0.006487	0.079117	0.048169	-0.427979	0.090088	-0.644531
523.0	9.139922	-0.891359	4.152366	0.247515	0.438583	0.072737	-0.423096	0.085693	-0.660645
524.0	9.102598	-0.341863	5.067154	0.216835	0.719998	0.125217	-0.414063	0.085693	-0.653564
525.0	8.788898	0.371979	5.25296	0.396123	0.681078	0.147926	-0.407227	0.081299	-0.6604
526.0	8.658325	1.541605	5.269651	0.646804	0.504053	0.166012	-0.409424	0.081299	-0.6604
527.0	8.749013	2.594791	4.84996	0.427336	0.438571	0.17919	-0.407227	0.079102	-0.665039
528.0	8.680676	2.97024	4.464545	0.107593	0.499527	0.22629	-0.404785	0.079102	-0.6604
529.0	9.031032	2.735862	4.975785	-0.263931	0.505569	0.249764	-0.395752	0.076904	-0.662598
530.0	9.042105	1.987254	5.104349	-0.473335	0.36629	0.229136	-0.403076	0.088135	-0.667725
531.0	9.109966	1.241631	5.034637	-0.431511	0.092422	0.175851	-0.398438	0.085938	-0.662842
532.0	9.057772	0.836478	4.602974	-0.299942	-0.11566	0.107792	-0.400879	0.092529	-0.667725
533.0	9.086566	0.51576	4.325394	-0.289366	-0.136791	0.047126	-0.396484	0.092529	-0.670166
534.0	8.932825	-0.15427	4.161196	-0.328713	-0.042567	-0.038664	-0.401123	0.094727	-0.66333
535.0	8.717184	-0.449766	4.16907	-0.125666	0.04642	-0.112834	-0.394043	0.088135	-0.669922
536.0	8.744121	-0.218826	4.23552	0.068357	0.008723	-0.177272	-0.394287	0.094727	-0.65625
537.0	8.634153	-0.134843	3.804191	0.0716	-0.035257	-0.232701	-0.39624	0.090332	-0.665527
538.0	8.473187	0.0039	3.621373	0.149645	0.070363	-0.252902	-0.398682	0.092529	-0.658447
539.0	8.252431	0.268625	3.802868	0.256334	0.183964	-0.242952	-0.393799	0.085938	-0.669922
540.0	8.186159	0.490938	4.071317	0.230745	0.159017	-0.221788	-0.398438	0.085938	-0.669922
541.0	8.231668	0.521616	3.904385	0.135267	0.067452	-0.196224	-0.391602	0.085938	-0.672119
542.0	8.238174	0.51163	3.680545	0.1833	0.085205	-0.166232	-0.395996	0.08374	-0.672119
543.0	8.364379	0.711983	3.631171	0.223773	0.142497	-0.138631	-0.38916	0.077148	-0.671875
544.0	8.359548	0.943893	3.581445	0.215276	0.166719	-0.101966	-0.391357	0.079346	-0.676514
545.0	8.310442	1.021089	3.54816	0.169887	0.154426	-0.079774	-0.386719	0.077148	-0.674316
546.0	8.303998	1.00118	3.448761	0.157484	0.141259	-0.067144	-0.386719	0.074951	-0.676514
547.0	8.441594	0.950383	3.383913	0.179419	0.132789	-0.056557	-0.38208	0.070557	-0.671631
548.0	8.396184	0.936557	3.318599	0.205547	0.121471	-0.036646	-0.386719	0.077148	-0.671875
549.0	8.273921	1.018091	3.142496	0.231908	0.120129	-0.014893	-0.382324	0.077148	-0.671875
550.0	8.47154	1.117847	3.088405	0.223607	0.077365	0.01428	-0.388672	0.070557	-0.671631
551.0	8.50975	1.115573	2.732024	0.19394	-0.016132	0.033892	-0.384033	0.061768	-0.671387
552.0	8.609352	1.16387	2.377092	0.185778	-0.020617	0.056874	-0.388916	0.074951	-0.671875
553.0	8.684584	1.140055	2.211772	0.168808	-0.010007	0.085182	-0.386475	0.068359	-0.673828
554.0	8.919627	0.959786	2.147802	0.097995	-0.029568	0.106191	-0.386475	0.068359	-0.669189
555.0	8.553979	0.880309	1.727203	0.198228	0.026084	0.14005	-0.384277	0.068359	-0.678467
556.0	8.553681	0.976414	1.886886	0.218663	0.07078	0.214728	-0.38208	0.072754	-0.664795
557.0	8.59313	0.676505	1.851628	0.054872	0.017214	0.269726	-0.379883	0.070557	-0.674072
558.0	8.7962	0.22883	1.837662	0.05613	0.021041	0.307236	-0.375244	0.072754	-0.676514
559.0	8.716705	0.034203	1.877224	0.204941	0.047354	0.322391	-0.379883	0.070557	-0.666992
560.0	8.696239	0.212196	2.242049	0.298461	0.019207	0.338652	-0.386719	0.072754	-0.664795
561.0	8.57697	0.238566	2.473666	0.234791	-0.100955	0.353162	-0.377441	0.068359	-0.671631
562.0	8.737182	0.251209	2.424843	0.221731	-0.210563	0.355701	-0.377686	0.074951	-0.669434
563.0	8.999794	0.485074	2.222236	0.336539	-0.181042	0.355329	-0.38208	0.072754	-0.669434
564.0	9.05096	0.976758	2.327253	0.381524	-0.128281	0.339806	-0.379639	0.070557	-0.662354
565.0	9.091068	1.221012	2.623161	0.20437	-0.137199	0.348966	-0.377686	0.074951	-0.667236
566.0	9.253184	0.845735	2.851045	0.003471	-0.194577	0.345205	-0.38208	0.072754	-0.666992
567.0	9.366604	0.485647	2.999601	0.093979	-0.222582	0.326895	-0.379883	0.072754	-0.666992
568.0	9.135892	0.554942	3.150096	0.334699	-0.226623	0.300503	-0.384521	0.079346	-0.6604
569.0	9.176682	0.75083	3.022316	0.37279	-0.339305	0.272727	-0.381836	0.068359	-0.655273
570.0	9.583198	0.799979	2.332862	0.320294	-0.445557	0.228373	-0.393555	0.076904	-0.655762
571.0	10.422294	0.964055	1.645345	0.367299	-0.410822	0.175315	-0.377441	0.068359	-0.655273
572.0	11.216072	1.448831	1.120574	0.38481	-0.324031	0.116829	-0.386475	0.070313	-0.653076
573.0	11.866141	2.161778	0.648075	0.313922	-0.263666	0.074567	-0.386475	0.070313	-0.653076
574.0	12.31194	3.027408	0.271805	0.182417	-0.184909	0.041748	-0.386719	0.074707	-0.648682
575.0	12.662889	4.079543	0.704914	-0.031902	0.022716	0.019816	-0.381836	0.065918	-0.655273
576.0	12.777238	4.651286	2.298155	-0.530693	0.329079	0.006561	-0.386719	0.077148	-0.65332
577.0	12.551622	3.16761	4.096606	-1.286399	0.360348	-0.073916	-0.378174	0.088135	-0.660645
578.0	12.141082	0.28183	4.441619	-1.571815	0.069516	-0.180985	-0.382813	0.092529	-0.663086
579.0	11.779119	-2.126148	3.674627	-0.991921	-0.08391	-0.290799	-0.380615	0.094727	-0.658691
580.0	11.621473	-2.009692	4.024585	0.135835	0.174852	-0.373758	-0.382813	0.092529	-0.658447
581.0	11.087289	-0.641549	5.670923	0.37511	0.373031	-0.400849	-0.378418	0.090332	-0.665527
582.0	10.208108	-0.890416	6.361872	-0.261776	0.081084	-0.361889	-0.373779	0.092529	-0.658447
583.0	9.790786	-1.988309	5.697849	-0.49905	-0.246674	-0.268471	-0.382813	0.090332	-0.660889
584.0	9.603558	-1.884766	5.185493	0.107036	-0.12447	-0.216309	-0.378174	0.088135	-0.656006
585.0	9.006855	0.171811	5.637616	0.760752	0.186592	-0.226017	-0.373535	0.08374	-0.658203
586.0	8.019584	1.611315	6.293384	0.509647	0.184401	-0.266382	-0.371338	0.088135	-0.663086
587.0	7.812621	1.32825	6.104928	-0.270293	0.020679	-0.309229	-0.371094	0.079346	-0.655762
588.0	7.998799	0.270001	5.105094	-0.380398	-0.011035	-0.371631	-0.371094	0.081543	-0.658203
589.0	8.26895	0.464577	5.040486	-0.001413	0.169508	-0.453889	-0.368896	0.08374	-0.658203
590.0	8.194802	0.73181	5.4969	-0.04885	0.28939	-0.56312	-0.366943	0.090332	-0.658447
591.0	8.170335	-0.348935	5.320842	-0.515105	0.156201	-0.643119	-0.364502	0.085938	-0.660645
592.0	9.049014	-0.731237	5.004613	-0.507261	0.110313	-0.696145	-0.371338	0.08374	-0.665283
593.0	9.903613	-0.00862	4.816693	-0.085167	0.227084	-0.699535	-0.366943	0.085938	-0.663086
594.0	10.292166	0.92009	5.102978	-0.059921	0.242985	-0.615861	-0.366699	0.08374	-0.665283
595.0	10.581464	0.768179	5.180902	-0.40192	-0.015115	-0.456017	-0.357666	0.08374	-0.676758
596.0	11.212956	-0.088463	5.000326	-0.535893	-0.311242	-0.238867	-0.371338	0.088135	-0.658447
597.0	11.088317	-0.833465	4.202601	-0.187089	-0.38565	-0.055234	-0.362305	0.085938	-0.660645
598.0	10.257029	-0.69737	3.594241	0.159924	-0.295576	0.073651	-0.369385	0.094727	-0.66333
599.0	9.490955	-0.359805	3.670779	-0.034539	-0.102815	0.122063	-0.371826	0.096924	-0.661133
600.0	9.074351	-0.39772	4.02859	-0.217374	0.011463	0.171676	-0.371826	0.099121	-0.661133
601.0	8.553319	-0.352921	4.157295	-0.108863	-0.082098	0.212737	-0.360596	0.099121	-0.658936
602.0	8.226304	-0.019077	3.871814	-0.130163	-0.229959	0.224851	-0.369629	0.101318	-0.661133
603.0	8.128249	-0.091306	3.353423	-0.261074	-0.233426	0.216331	-0.369873	0.103516	-0.661377
604.0	8.15358	-0.4186	3.191036	-0.30511	-0.11346	0.207229	-0.367676	0.10791	-0.666016
605.0	7.77109	-0.804623	3.342727	-0.282975	0.00767	0.189933	-0.365234	0.103516	-0.663574
606.0	7.582377	-0.960553	3.55732	-0.204682	0.063019	0.161556	-0.370117	0.112305	-0.661621
607.0	7.60839	-0.970205	3.621233	-0.099337	0.01346	0.115578	-0.361084	0.108154	-0.65918
608.0	7.938406	-0.744634	3.558395	-0.030173	-0.052539	0.07683	-0.370361	0.116699	-0.654785
609.0	8.116469	-0.675416	3.387601	-0.08384	-0.087728	0.023816	-0.361328	0.114746	-0.659424
610.0	8.137348	-0.7916	3.211721	-0.103623	-0.05848	-0.01793	-0.370361	0.116699	-0.652588
611.0	8.078716	-0.703098	3.093371	-0.049621	-0.026161	-0.055415	-0.365967	0.119141	-0.659668
612.0	8.114702	-0.506475	3.074658	-0.05679	-0.044101	-0.070727	-0.370361	0.118896	-0.657227
613.0	8.08087	-0.539628	2.955158	-0.11826	-0.097143	-0.077615	-0.372803	0.121094	-0.657227
614.0	8.105917	-0.620017	2.67497	-0.123295	-0.158188	-0.085248	-0.372803	0.123535	-0.657471
615.0	8.225627	-0.391878	2.451661	-0.034324	-0.198146	-0.100944	-0.36377	0.123535	-0.652832
616.0	8.399468	-0.164941	2.218109	0.006977	-0.263143	-0.097577	-0.370361	0.118896	-0.652588
617.0	8.368375	-0.208806	1.891203	-0.060433	-0.299788	-0.091232	-0.379639	0.121094	-0.652588
618.0	8.549178	-0.398267	1.688261	-0.125707	-0.242927	-0.087973	-0.373047	0.125732	-0.652832
619.0	8.50464	-0.761562	1.65048	-0.117284	-0.192977	-0.093518	-0.375	0.123291	-0.655029
620.0	9.03504	-0.391421	2.152642	0.002743	-0.215729	-0.087149	-0.375244	0.125488	-0.650391
621.0	8.789542	-0.260776	2.086632	0.033658	-0.268565	-0.094306	-0.375488	0.130127	-0.653076
622.0	8.996607	-0.052848	2.156253	0.00026	-0.312126	-0.109249	-0.381836	0.123291	-0.645752
623.0	9.133372	-0.144917	2.074608	-0.108057	-0.3025	-0.153471	-0.375	0.123291	-0.645752
624.0	9.031574	-0.368606	2.009612	-0.100329	-0.244828	-0.202632	-0.379883	0.129883	-0.648438
625.0	8.809702	-0.397266	2.125557	-0.015859	-0.214272	-0.255028	-0.38208	0.127686	-0.643555
626.0	8.676706	-0.34586	2.287096	-0.029792	-0.273292	-0.31123	-0.386475	0.127686	-0.643555
627.0	8.909419	-0.273511	2.51156	-0.055768	-0.334245	-0.315518	-0.379639	0.125488	-0.641113
628.0	9.236449	-0.122964	2.65823	-0.098019	-0.319813	-0.296691	-0.391113	0.129883	-0.63916
629.0	9.33997	-0.096908	2.836158	-0.154193	-0.2324	-0.245247	-0.38208	0.129883	-0.645996
630.0	9.661418	-0.188748	3.034204	-0.23861	-0.219342	-0.183024	-0.386719	0.134277	-0.636963
631.0	10.04061	-0.544283	2.851705	-0.292303	-0.330001	-0.119411	-0.388916	0.129883	-0.63208
632.0	10.571081	-0.771828	2.156493	-0.227822	-0.382511	-0.089287	-0.391602	0.138672	-0.630127
633.0	10.991676	-0.774377	1.515219	-0.064983	-0.25069	-0.08082	-0.388916	0.13208	-0.629883
634.0	11.555948	-0.63499	1.306031	0.045398	-0.093794	-0.063	-0.38916	0.136475	-0.629883
635.0	12.210844	-0.716443	1.391312	0.126134	-0.07909	0.017975	-0.38916	0.138672	-0.630127
636.0	12.439205	-1.285029	0.998707	0.190297	-0.170257	0.124352	-0.391357	0.134277	-0.636963
637.0	12.798784	-1.872111	0.880071	0.171731	-0.23634	0.218044	-0.395996	0.138672	-0.627686
638.0	13.423052	-2.553117	1.273313	0.053406	-0.16271	0.300102	-0.39624	0.145264	-0.62793
639.0	13.904838	-2.538586	1.725304	0.290972	-0.022936	0.337614	-0.393799	0.140869	-0.62793
640.0	13.410005	-1.029769	2.22322	0.647263	0.173898	0.340586	-0.389404	0.143066	-0.62793
641.0	12.619505	0.525192	3.121969	0.481792	0.355244	0.32508	-0.386963	0.138672	-0.634766
642.0	12.16397	1.277739	4.2869	0.14936	0.527868	0.317473	-0.38501	0.143066	-0.625488
643.0	11.546632	2.002135	5.36726	0.133	0.62484	0.296463	-0.384766	0.140869	-0.639404
644.0	10.023085	3.38458	5.943934	0.572712	0.41078	0.277996	-0.38501	0.143066	-0.630127
645.0	8.803288	4.09164	6.435947	0.259911	-0.04204	0.294346	-0.38501	0.143066	-0.630127
646.0	8.858335	2.040902	5.752743	-0.684798	-0.243095	0.347374	-0.387695	0.154053	-0.633057
647.0	8.673329	-0.042726	4.649004	-0.442731	-0.133231	0.352763	-0.378662	0.154297	-0.635254
648.0	8.952733	0.141548	5.381059	0.1139	0.16584	0.388511	-0.381104	0.160889	-0.628662
649.0	9.253866	0.553833	5.23564	0.010302	0.244624	0.39966	-0.376465	0.158691	-0.630859
650.0	9.253875	0.850476	4.498904	0.083595	0.168568	0.381154	-0.378906	0.163086	-0.635742
651.0	9.579644	0.84516	4.478438	-0.004021	0.156183	0.404719	-0.374512	0.163086	-0.631104
652.0	9.887995	0.066892	3.894018	-0.279244	0.141717	0.400174	-0.372559	0.169678	-0.631348
653.0	10.028999	-0.513527	3.766923	-0.206069	0.273219	0.38399	-0.372314	0.16748	-0.638184
654.0	10.000032	-0.701379	4.481897	-0.00859	0.505453	0.365519	-0.368164	0.174072	-0.640625
655.0	9.8997	-0.605216	5.467415	-0.08056	0.501086	0.252722	-0.36377	0.17627	-0.640869
656.0	9.581421	-0.616713	5.763481	-0.008481	0.198736	0.121278	-0.36377	0.178467	-0.63623
657.0	9.969476	-0.240778	5.295334	0.198463	-0.134663	-0.008147	-0.363525	0.171875	-0.635986
658.0	10.72529	0.715228	4.372409	0.526528	-0.176457	-0.137129	-0.368408	0.178467	-0.633789
659.0	10.03997	1.459045	3.693692	0.59441	0.060181	-0.263004	-0.361328	0.171875	-0.635986
660.0	9.500433	2.180063	4.009594	0.315803	0.077141	-0.340619	-0.36792	0.169678	-0.638184
661.0	8.448025	1.640215	3.730085	-0.050427	-0.023229	-0.372345	-0.363281	0.163086	-0.640381
662.0	7.973605	0.831274	3.714707	-0.000499	-0.006253	-0.350639	-0.369873	0.163086	-0.640381
663.0	7.714908	0.340995	3.641327	0.063713	0.003475	-0.315215	-0.363281	0.165283	-0.64502
664.0	7.570917	-0.075879	3.525652	0.055123	0.019116	-0.288037	-0.370117	0.169678	-0.635986
665.0	7.757266	-0.364371	3.392162	0.106247	0.070637	-0.259824	-0.365234	0.156494	-0.633057
666.0	8.128705	-0.48441	3.482883	0.215036	0.099518	-0.245509	-0.367676	0.165283	-0.635742
667.0	8.413356	-0.219949	3.249475	0.326278	0.129359	-0.252349	-0.365479	0.163086	-0.647217
668.0	8.265356	0.295988	2.950651	0.464891	0.235139	-0.252739	-0.365234	0.160889	-0.644775
669.0	8.091563	0.988676	3.010282	0.495307	0.339436	-0.222793	-0.36499	0.154297	-0.646973
670.0	8.241624	1.572771	3.21163	0.354354	0.313354	-0.188645	-0.365234	0.158691	-0.644775
671.0	8.397096	1.507702	3.104059	0.196147	0.232162	-0.137259	-0.360596	0.154297	-0.644531
672.0	8.370725	1.203453	2.766867	0.19097	0.212414	-0.088257	-0.358398	0.154297	-0.651611
673.0	8.322799	1.214547	2.611526	0.285529	0.281276	-0.044911	-0.355957	0.149902	-0.651367
674.0	8.08401	1.225177	2.412619	0.252889	0.274371	0.003838	-0.355713	0.147705	-0.646729
675.0	8.12485	1.069209	2.238156	0.12135	0.193257	0.044376	-0.35376	0.149902	-0.646729
676.0	8.205022	0.803861	1.848336	0.101677	0.191292	0.075299	-0.355957	0.1521	-0.65625
677.0	8.310619	0.792418	1.623375	0.11354	0.212051	0.109318	-0.349121	0.1521	-0.651611
678.0	8.230755	0.777407	1.523151	0.079504	0.204294	0.126019	-0.35376	0.1521	-0.653809
679.0	8.170228	0.699118	1.555179	0.034218	0.166051	0.150361	-0.35376	0.1521	-0.646973
680.0	8.120664	0.537485	1.647125	0.077321	0.10435	0.195121	-0.351563	0.156494	-0.646973
681.0	7.982779	0.609725	1.624941	0.154225	0.009891	0.229491	-0.349121	0.1521	-0.660889
682.0	7.728224	0.74266	1.814055	0.171013	-0.022115	0.275021	-0.349609	0.158691	-0.656494
683.0	7.722562	0.824504	2.105372	0.095	-0.057997	0.31134	-0.347168	0.156738	-0.658691
684.0	8.229614	0.869817	2.47059	0.02652	-0.132684	0.332401	-0.345215	0.16333	-0.654297
685.0	8.499506	0.946226	2.455855	0.034981	-0.188827	0.339278	-0.344971	0.161133	-0.654053
686.0	8.723606	1.083969	2.449582	0.044533	-0.213813	0.363146	-0.349854	0.165527	-0.6521
687.0	9.160293	1.022521	2.425594	-0.060679	-0.271547	0.381322	-0.349854	0.165527	-0.656738
688.0	9.54299	0.873776	2.374268	-0.078696	-0.318826	0.380709	-0.347656	0.167725	-0.6521
689.0	9.914014	0.867937	2.381982	-0.029973	-0.295928	0.370735	-0.345459	0.169922	-0.654541
690.0	10.192428	0.978581	2.437688	-0.011666	-0.268739	0.349793	-0.352295	0.174316	-0.645264
691.0	10.328435	1.073045	2.31302	0.015701	-0.278949	0.313657	-0.349854	0.169922	-0.645264
692.0	10.571601	1.108243	2.025867	0.075678	-0.297696	0.258564	-0.356934	0.17627	-0.638428
693.0	10.814243	1.12104	1.487424	0.114597	-0.29212	0.194864	-0.354736	0.176514	-0.640869
694.0	11.074123	1.445045	0.998404	0.095703	-0.221156	0.119286	-0.361572	0.17627	-0.645508
695.0	11.264366	2.126095	1.095084	-0.016252	0.020286	0.051146	-0.352539	0.176514	-0.645508
696.0	11.703194	2.608822	2.560807	-0.386185	0.270534	-0.017788	-0.352539	0.178711	-0.645508
697.0	12.308871	1.954298	4.72992	-0.852023	0.359347	-0.112876	-0.346191	0.1875	-0.645752
698.0	12.864735	-0.344944	5.077729	-1.076513	-0.003269	-0.172739	-0.353271	0.194092	-0.648438
699.0	13.160295	-2.669126	3.814809	-0.571361	-0.166666	-0.201531	-0.355469	0.194092	-0.645996
700.0	13.017898	-2.607649	4.136817	0.550071	0.216168	-0.275821	-0.346436	0.191895	-0.650635
701.0	12.141002	-1.21966	5.970695	0.858059	0.491328	-0.32605	-0.348389	0.185303	-0.655029
702.0	10.774195	-1.445364	6.716578	0.256796	0.175494	-0.284445	-0.34375	0.183105	-0.647949
703.0	9.759363	-2.038849	5.526448	0.194559	-0.363072	-0.221091	-0.348145	0.180908	-0.650146
704.0	9.665128	-0.583961	4.779035	1.036487	-0.310276	-0.18959	-0.350098	0.174316	-0.647705
705.0	9.504427	1.804639	4.881943	1.292406	-0.071019	-0.230313	-0.347412	0.16333	-0.654297
706.0	9.363462	3.236229	5.006615	0.518651	-0.024208	-0.279228	-0.354492	0.169922	-0.6521
707.0	9.590017	2.066709	4.866588	-0.281308	0.058817	-0.308833	-0.347412	0.165527	-0.649658
708.0	9.820586	0.965132	5.023098	-0.196576	0.27433	-0.391408	-0.347412	0.165527	-0.6521
709.0	9.976239	0.903034	6.131868	0.114478	0.486158	-0.518562	-0.340332	0.156738	-0.65625
710.0	9.567146	-0.253731	6.314097	-0.231906	0.325873	-0.610427	-0.352051	0.167725	-0.656738
711.0	9.840364	-1.503753	5.61964	-0.406915	0.150861	-0.662536	-0.342773	0.161133	-0.658691
712.0	10.376362	-1.51415	4.996604	0.142507	0.273572	-0.661229	-0.349609	0.161133	-0.66333
713.0	10.327994	-0.078803	5.113367	0.627769	0.326714	-0.549406	-0.347168	0.154541	-0.663086
714.0	10.021909	1.255838	5.222067	0.419045	0.103127	-0.382813	-0.342285	0.147705	-0.660645
715.0	10.386673	1.422684	5.159271	-0.001017	-0.19575	-0.123389	-0.34668	0.145508	-0.660645
716.0	10.200507	0.712174	4.177571	0.003078	-0.322276	0.075003	-0.349121	0.1521	-0.665527
717.0	9.741862	0.612321	3.55782	0.175734	-0.13984	0.188567	-0.348877	0.145508	-0.672119
718.0	9.047313	0.604466	3.857737	-0.015213	0.127326	0.232277	-0.347168	0.156738	-0.658691
719.0	8.261437	0.107456	4.315632	-0.204744	0.16544	0.248326	-0.349365	0.154297	-0.665527
720.0	7.879179	-0.128793	4.302063	-0.13926	-0.016936	0.241601	-0.349854	0.167725	-0.668213
721.0	7.946207	0.0288	3.886493	-0.129573	-0.20111	0.239984	-0.344971	0.158936	-0.66333
722.0	7.75565	-0.186187	3.225596	-0.248271	-0.163733	0.211315	-0.352051	0.165527	-0.663574
723.0	7.745331	-0.488407	3.193215	-0.293063	-0.009149	0.188209	-0.347412	0.16333	-0.661133
724.0	7.763927	-0.704709	3.447249	-0.259136	0.078283	0.160844	-0.347656	0.169922	-0.670654
725.0	7.785051	-0.786242	3.526054	-0.17126	0.048378	0.150504	-0.345459	0.167725	-0.666016
726.0	7.617523	-0.825199	3.435537	-0.146728	0.041475	0.102845	-0.349854	0.169922	-0.668457
727.0	7.987172	-0.639883	3.370642	-0.078925	0.078817	0.073394	-0.347656	0.167725	-0.670654
728.0	8.035584	-0.476424	3.191778	-0.06728	0.070395	0.03244	-0.345459	0.172119	-0.670898
729.0	8.072986	-0.278106	3.089504	-0.06798	0.046816	0.000236	-0.345215	0.165527	-0.672852
730.0	8.09981	-0.120872	3.01653	-0.092293	0.017598	-0.028758	-0.3479	0.174316	-0.668457
731.0	8.098455	0.028438	2.880376	-0.09132	0.01387	-0.041582	-0.345215	0.165527	-0.666016
732.0	8.141379	0.180073	2.857047	-0.095515	-0.01566	-0.052897	-0.350098	0.174316	-0.66626
733.0	8.126425	0.202811	2.55069	-0.115841	-0.077256	-0.053967	-0.345459	0.172119	-0.661621
734.0	8.094027	0.075301	2.175383	-0.158002	-0.115562	-0.077781	-0.354736	0.176514	-0.670898
735.0	8.044578	-0.152385	1.821576	-0.206184	-0.104346	-0.109216	-0.352539	0.178711	-0.659424
736.0	8.177921	-0.327361	1.719921	-0.244272	-0.124075	-0.141012	-0.352539	0.176514	-0.66626
737.0	8.443555	-0.298145	1.678024	-0.235644	-0.161089	-0.155794	-0.350098	0.174316	-0.663818
738.0	8.311083	-0.376139	1.587022	-0.237589	-0.134766	-0.180729	-0.354736	0.174316	-0.656982
739.0	8.128944	-0.388253	1.514211	-0.232189	-0.062094	-0.231887	-0.3479	0.176514	-0.659424
740.0	8.498454	0.009986	1.935586	-0.227103	-0.070981	-0.259418	-0.354736	0.178711	-0.664063
741.0	8.697128	0.144122	2.048205	-0.320385	-0.153003	-0.255779	-0.354736	0.176514	-0.661621
742.0	8.379199	-0.260263	1.834474	-0.464916	-0.296604	-0.29305	-0.359375	0.178711	-0.666504
743.0	8.215509	-0.463177	1.879742	-0.406852	-0.305682	-0.32773	-0.354736	0.176514	-0.659424
744.0	8.21361	-0.532791	2.291954	-0.392926	-0.331161	-0.363243	-0.361572	0.180908	-0.661865
745.0	8.625103	-0.675576	2.64629	-0.491737	-0.41206	-0.372969	-0.361572	0.180908	-0.664063
746.0	9.138285	-0.919189	2.648138	-0.452518	-0.433197	-0.371651	-0.366455	0.1875	-0.655029
747.0	9.770582	-0.971798	2.642415	-0.26482	-0.389927	-0.347319	-0.366211	0.183105	-0.657227
748.0	10.363279	-0.956258	2.745462	-0.204478	-0.333667	-0.293606	-0.375244	0.182861	-0.655029
749.0	10.659534	-1.345864	2.815039	-0.259135	-0.252523	-0.2278	-0.373047	0.180664	-0.654785
750.0	10.686812	-1.8488	2.72503	-0.256984	-0.190224	-0.175264	-0.377441	0.180664	-0.652588
751.0	10.455721	-1.646778	2.297936	-0.030638	-0.108328	-0.139691	-0.37085	0.182861	-0.647949
752.0	10.529826	-0.864157	1.827476	0.123633	-0.124244	-0.098923	-0.368652	0.185059	-0.652832
753.0	11.052587	-0.5149	1.116493	0.103412	-0.233784	-0.04766	-0.375	0.178467	-0.645508
754.0	11.622046	-0.827105	0.408767	0.058651	-0.323447	-0.000963	-0.384521	0.189453	-0.648193
755.0	12.537461	-1.248515	0.446437	-0.036264	-0.263838	0.044423	-0.375244	0.182861	-0.657227
756.0	13.483101	-1.407369	1.247324	-0.042308	-0.052216	0.092789	-0.384277	0.185059	-0.652588
757.0	13.902011	-1.177179	2.627414	0.124536	0.140113	0.171695	-0.368408	0.178467	-0.652588
758.0	13.596049	0.010135	3.545487	0.396089	0.059911	0.223308	-0.379883	0.182861	-0.652588
759.0	13.10984	1.547932	3.989855	0.335573	-0.005896	0.224498	-0.372803	0.178467	-0.657227
760.0	12.619265	1.912448	4.295275	-0.324089	0.085945	0.252873	-0.379883	0.185059	-0.657471
761.0	12.223159	1.672628	5.017672	-0.564084	0.269598	0.276591	-0.375488	0.189453	-0.652832
762.0	10.545409	2.17445	6.344911	-0.106064	0.258316	0.282624	-0.375732	0.191895	-0.662354
763.0	9.509019	3.036156	7.360287	-0.021452	-0.179014	0.318832	-0.377686	0.187256	-0.655029
764.0	9.057462	1.683657	6.323378	-0.50079	-0.533813	0.351188	-0.380371	0.196045	-0.648438
765.0	9.079416	0.087127	4.597479	-0.519458	-0.440686	0.367593	-0.375732	0.196289	-0.655518
766.0	8.942606	-0.331295	3.966992	-0.163789	-0.009714	0.369255	-0.385254	0.204834	-0.65332
767.0	8.87903	-0.459351	4.471218	-0.160098	0.450656	0.351877	-0.373779	0.200684	-0.650879
768.0	9.16306	-1.48318	5.588846	-0.486564	0.502843	0.40789	-0.371826	0.21167	-0.653809
769.0	9.856887	-1.767485	5.446957	-0.250038	0.317951	0.388917	-0.367432	0.209473	-0.660645
770.0	10.389279	-0.069028	4.961268	0.668987	0.301195	0.37393	-0.367188	0.207275	-0.658203
771.0	10.689176	1.76931	4.419691	0.657238	0.238727	0.367667	-0.369385	0.207275	-0.662842
772.0	10.331856	2.456238	3.955251	0.138884	0.333538	0.405555	-0.367188	0.205078	-0.672119
773.0	10.235953	2.244048	5.068488	-0.305279	0.63961	0.478983	-0.360596	0.207275	-0.662842
774.0	10.217101	1.036333	6.304061	-0.562874	0.499887	0.427483	-0.365479	0.220459	-0.667969
775.0	9.689159	-0.422065	6.106514	-0.438122	-0.035555	0.312329	-0.354248	0.220459	-0.66333
776.0	9.78166	-0.744832	5.086662	0.068943	-0.338749	0.199329	-0.36084	0.218262	-0.670166
777.0	10.034961	-0.267161	4.160073	0.324036	-0.172151	0.070925	-0.358643	0.218262	-0.667969
778.0	9.711582	0.037487	3.812792	0.338997	0.086949	-0.064878	-0.369629	0.209473	-0.665283
779.0	9.014719	0.057899	3.951477	0.27117	0.16944	-0.208233	-0.360596	0.209473	-0.672119
780.0	8.076139	0.174441	3.776722	0.321823	0.141157	-0.296579	-0.363037	0.213867	-0.667725
781.0	7.456762	0.491106	3.542878	0.418685	0.20898	-0.31303	-0.358154	0.207275	-0.676758
782.0	7.109375	0.912844	3.609965	0.433891	0.328324	-0.297605	-0.360596	0.207275	-0.674561
783.0	7.363063	1.098679	3.927241	0.262555	0.267849	-0.295203	-0.355713	0.198486	-0.676514
784.0	7.419338	1.167141	3.636293	0.199891	0.177277	-0.300985	-0.362305	0.198486	-0.674072
785.0	7.618042	1.276654	3.482653	0.219323	0.175677	-0.291719	-0.360352	0.202881	-0.681152
786.0	7.938875	1.466662	3.377758	0.161958	0.152227	-0.275433	-0.362305	0.196289	-0.67627
787.0	8.04491	1.452585	3.146194	0.136735	0.135273	-0.245682	-0.357422	0.1875	-0.676025
788.0	8.156934	1.380099	2.995516	0.108324	0.13916	-0.211705	-0.360352	0.200684	-0.685791
789.0	8.271919	1.103241	2.886701	0.057888	0.124281	-0.164453	-0.362061	0.191895	-0.687744
790.0	8.206806	0.838845	2.591128	0.080558	0.08003	-0.11327	-0.362305	0.198486	-0.681152
791.0	8.213368	0.674287	2.479573	0.129638	0.097489	-0.038392	-0.360107	0.196289	-0.687988
792.0	8.183218	0.365577	2.306589	0.104167	0.086008	0.024513	-0.362061	0.191895	-0.680908
793.0	8.1143	0.113273	2.030504	0.133667	0.102129	0.071844	-0.357422	0.185303	-0.6875
794.0	8.18164	0.230211	1.763348	0.230355	0.109962	0.11748	-0.359863	0.189697	-0.683105
795.0	8.473703	0.665489	1.639286	0.254343	0.068579	0.154316	-0.359863	0.189697	-0.687744
796.0	8.772265	0.92188	1.453429	0.223114	0.031095	0.204293	-0.362061	0.1875	-0.689941
797.0	8.61349	0.836441	1.21222	0.206674	0.053562	0.251577	-0.355225	0.185303	-0.692139
798.0	8.318023	0.728651	1.17126	0.264624	0.072113	0.294404	-0.35083	0.191895	-0.694824
799.0	8.26176	0.605486	1.460219	0.251942	0.006303	0.34715	-0.357422	0.185303	-0.692139
800.0	7.903764	0.175192	1.6158	0.220474	-0.061431	0.381461	-0.357666	0.191895	-0.692383
801.0	7.745354	-0.133103	2.044671	0.26846	-0.079448	0.402023	-0.355225	0.189697	-0.692383
802.0	7.563004	-0.298881	2.447519	0.403773	-0.099192	0.410764	-0.357666	0.194092	-0.687988
803.0	7.696507	-0.0324	2.817411	0.513284	-0.217182	0.407142	-0.357422	0.1875	-0.697021
804.0	8.012423	0.415582	2.763265	0.52015	-0.281422	0.410008	-0.359863	0.189697	-0.689941
805.0	8.734601	0.943638	2.769185	0.474947	-0.25638	0.423701	-0.352783	0.185303	-0.692139
806.0	9.525417	1.463651	2.852948	0.362309	-0.261116	0.442946	-0.362061	0.1875	-0.697021
807.0	10.163817	1.721103	2.749997	0.248367	-0.315391	0.461442	-0.359619	0.185303	-0.6875
808.0	10.732409	1.783417	2.585093	0.216149	-0.337891	0.455642	-0.366455	0.189697	-0.692383
809.0	11.045003	1.826553	2.331932	0.244297	-0.28288	0.431917	-0.364258	0.1875	-0.689941
810.0	11.161054	1.631605	2.11484	0.218348	-0.250293	0.368724	-0.364258	0.189697	-0.687744
811.0	11.222981	1.122883	1.735462	0.105487	-0.31309	0.283847	-0.364258	0.189697	-0.689941
812.0	11.437355	0.755452	0.944548	0.058512	-0.304479	0.17839	-0.371338	0.194092	-0.690186
813.0	11.488582	1.06526	0.400328	0.205904	-0.100436	0.077732	-0.366211	0.180908	-0.685059
814.0	11.348945	2.034858	0.499769	0.242302	0.086763	0.007841	-0.366455	0.189697	-0.692383
815.0	11.495787	3.219341	1.296187	-0.058192	0.17706	-0.048525	-0.366211	0.183105	-0.694336
816.0	12.103891	3.236844	3.027975	-0.576401	0.262788	-0.068613	-0.366943	0.196289	-0.694824
817.0	12.842529	1.606824	4.151105	-0.956162	0.11408	-0.140707	-0.360107	0.198486	-0.69043
818.0	13.146564	-0.964595	3.913031	-0.949065	-0.184144	-0.189887	-0.369141	0.200684	-0.685791
819.0	12.591778	-2.786805	2.95883	-0.338019	-0.0926	-0.240175	-0.367188	0.202881	-0.69043
820.0	11.882496	-2.410536	4.260204	0.55492	0.375464	-0.299898	-0.364502	0.196289	-0.692627
821.0	10.801501	-1.401386	6.504026	0.56226	0.445157	-0.339103	-0.364258	0.189697	-0.697021
822.0	9.61409	-1.66722	6.916843	0.04654	-0.078781	-0.357743	-0.368896	0.191895	-0.694824
823.0	9.146829	-1.777765	6.074716	0.314552	-0.378027	-0.375274	-0.37085	0.185303	-0.689941
824.0	9.078554	-0.369369	5.728065	0.910081	-0.24556	-0.418042	-0.38208	0.180908	-0.701416
825.0	8.789216	1.350845	5.563629	0.820401	-0.068641	-0.492709	-0.370361	0.172119	-0.694092
826.0	8.747818	1.798308	5.295623	0.201922	0.059682	-0.542581	-0.381592	0.169678	-0.698486
827.0	8.668073	0.930491	4.911864	-0.045497	0.227259	-0.578553	-0.374756	0.169678	-0.689209
828.0	8.808351	0.872634	5.286969	0.170192	0.370769	-0.619574	-0.374512	0.165283	-0.696045
829.0	9.086619	1.294034	5.904006	0.151774	0.380983	-0.709747	-0.369873	0.160889	-0.698242
830.0	9.300879	0.411046	5.622105	-0.257618	0.241161	-0.768425	-0.37915	0.165283	-0.698486
831.0	10.177534	-0.213718	5.193657	-0.292047	0.250047	-0.800951	-0.369629	0.156494	-0.702637
832.0	11.153111	0.470543	5.382232	0.052173	0.371333	-0.746207	-0.374268	0.158691	-0.70752
833.0	11.224155	1.254225	5.681994	-0.042577	0.191082	-0.58769	-0.371826	0.154297	-0.702637
834.0	11.700676	0.970125	5.408101	-0.383227	-0.167365	-0.320742	-0.378662	0.156494	-0.707275
835.0	11.492236	0.176397	4.009479	-0.183442	-0.382403	-0.065316	-0.383057	0.154297	-0.697998
836.0	10.728633	0.040979	3.245372	0.061405	-0.136365	0.086135	-0.376709	0.158691	-0.700439
837.0	9.761077	0.054137	3.559617	-0.168405	0.179732	0.156702	-0.378662	0.156494	-0.700439
838.0	8.729486	-0.237508	4.143963	-0.264835	0.233377	0.182772	-0.381104	0.158691	-0.705078
839.0	8.236208	-0.088449	4.233394	-0.166848	0.008108	0.200417	-0.376465	0.156494	-0.702637
840.0	8.043249	0.096974	3.567134	-0.28791	-0.171132	0.201434	-0.381348	0.16748	-0.700928
841.0	7.841407	-0.079205	2.908082	-0.386607	-0.075723	0.188135	-0.381348	0.165283	-0.698486
842.0	7.689254	-0.161099	2.97049	-0.354698	0.125642	0.176887	-0.37915	0.16748	-0.700928
843.0	7.49137	-0.207685	3.267745	-0.353838	0.194287	0.188933	-0.37915	0.16748	-0.696289
844.0	7.37007	-0.481728	3.391922	-0.394562	0.169662	0.184482	-0.381836	0.178711	-0.701172
845.0	7.328655	-0.784296	3.230511	-0.385838	0.172087	0.162334	-0.374756	0.172119	-0.69873
846.0	7.348857	-0.953213	3.060353	-0.25548	0.228891	0.11435	-0.379639	0.176514	-0.705811
847.0	7.557269	-0.858831	3.189565	-0.174411	0.195955	0.066108	-0.377441	0.178711	-0.701172
848.0	7.726472	-0.896416	3.08629	-0.191397	0.112795	0.030238	-0.377441	0.180908	-0.706055
849.0	7.734266	-1.001292	2.7948	-0.170982	0.055146	-0.025798	-0.372803	0.178711	-0.705811
850.0	7.801319	-0.750518	2.636366	-0.043568	0.052543	-0.053994	-0.377441	0.180908	-0.708252
851.0	7.861478	-0.341939	2.401641	0.040147	0.004387	-0.0673	-0.384033	0.176514	-0.703369
852.0	7.970199	-0.015285	2.018397	0.040035	-0.080658	-0.076514	-0.379639	0.176514	-0.703369
853.0	7.83693	0.057645	1.565932	0.009882	-0.108135	-0.097558	-0.38208	0.180908	-0.696777
854.0	7.780291	0.122206	1.479331	0.007074	-0.134503	-0.112968	-0.38623	0.17627	-0.701172
855.0	7.862784	0.051098	1.556815	-0.073138	-0.178729	-0.123988	-0.381836	0.176514	-0.69873
856.0	7.737109	-0.301626	1.46	-0.14873	-0.232437	-0.163806	-0.38208	0.180908	-0.701416
857.0	8.017931	-0.309692	1.584686	-0.037559	-0.25912	-0.217453	-0.388672	0.17627	-0.696533
858.0	8.259446	0.174223	1.787683	0.064674	-0.324276	-0.254352	-0.393066	0.174072	-0.69873
859.0	8.469367	0.739584	1.945989	0.014605	-0.454369	-0.25744	-0.39502	0.169678	-0.698486
860.0	8.059151	0.544622	1.711213	-0.177108	-0.510957	-0.268358	-0.4021	0.17627	-0.694092
861.0	8.133704	0.098454	1.978703	-0.370543	-0.47149	-0.295418	-0.404053	0.171875	-0.689453
862.0	8.689424	-0.357947	2.63312	-0.41889	-0.492379	-0.335703	-0.4021	0.174072	-0.684814
863.0	9.348302	-0.683602	2.996991	-0.35191	-0.585715	-0.370174	-0.408691	0.169678	-0.682373
864.0	10.276764	-0.614782	3.045927	-0.206524	-0.60302	-0.386276	-0.410889	0.171875	-0.682373
865.0	10.444762	-0.345424	2.747917	-0.057101	-0.410964	-0.392559	-0.413086	0.169678	-0.68457
866.0	10.07949	-0.224161	2.69772	-0.047339	-0.215905	-0.372605	-0.41748	0.169678	-0.682373
867.0	10.086108	-0.192042	2.675362	-0.175647	-0.223089	-0.323881	-0.415039	0.165283	-0.67749
868.0	10.400173	-0.114169	2.173114	-0.197931	-0.267578	-0.250221	-0.424072	0.165039	-0.679688
869.0	10.939274	0.071475	1.47709	-0.132582	-0.23666	-0.159166	-0.424072	0.160645	-0.67041
870.0	11.627718	0.11601	0.936731	-0.126919	-0.225072	-0.038327	-0.426514	0.169434	-0.668457
871.0	12.121432	-0.495375	0.36967	-0.147214	-0.227603	0.062327	-0.424316	0.167236	-0.672852
872.0	12.504908	-1.200018	-0.095448	-0.037857	-0.246369	0.129988	-0.424316	0.167236	-0.675293
873.0	12.636834	-1.956286	-0.230057	0.072072	-0.240826	0.16936	-0.428711	0.167236	-0.670654
874.0	12.956703	-2.633586	0.418151	0.02579	-0.090034	0.194073	-0.428467	0.160645	-0.667969
875.0	13.562538	-2.772687	1.927332	0.086668	0.179856	0.248937	-0.424072	0.160645	-0.675049
876.0	13.490772	-1.818269	3.175034	0.495517	0.278951	0.331337	-0.42627	0.158447	-0.674805
877.0	13.025596	0.533229	3.443813	0.884882	0.204295	0.352932	-0.428467	0.158447	-0.677246
878.0	12.11288	2.496899	3.269197	0.528305	0.24723	0.31479	-0.430664	0.15625	-0.674805
879.0	12.014304	2.993309	4.028463	-0.45337	0.52411	0.340476	-0.421631	0.158447	-0.679443
880.0	11.37569	2.464749	5.557152	-0.581923	0.739963	0.340833	-0.424316	0.167236	-0.68457
881.0	9.498793	2.75319	7.698029	0.068836	0.379323	0.365196	-0.414795	0.15625	-0.679443
882.0	8.571818	2.805641	7.669114	0.093704	-0.380897	0.378555	-0.426514	0.167236	-0.679932
883.0	9.127413	1.507339	5.353515	-0.391214	-0.634586	0.370532	-0.421875	0.162842	-0.67749
884.0	9.635824	-0.011173	4.106888	-0.558916	-0.202674	0.343126	-0.426758	0.171875	-0.687012
885.0	9.246932	-0.528803	4.309164	-0.314857	0.330901	0.331115	-0.426758	0.171631	-0.68457
886.0	9.00841	-0.602268	5.47417	-0.173832	0.503197	0.329207	-0.417725	0.174072	-0.687012
887.0	9.748996	-1.470323	6.242522	-0.447056	0.294069	0.428938	-0.419922	0.171875	-0.675293
888.0	10.488233	-1.601157	5.129203	-0.100275	0.131252	0.406617	-0.422363	0.178467	-0.685059
889.0	11.302977	0.524712	4.82152	0.71998	0.310147	0.418792	-0.415527	0.171875	-0.687012
890.0	10.939153	2.111164	4.353927	0.576998	0.490917	0.45213	-0.41748	0.169678	-0.689209
891.0	10.323992	2.694373	4.577283	-0.046986	0.65055	0.511729	-0.415283	0.16748	-0.691406
892.0	10.509987	1.897737	5.923385	-0.670328	0.689793	0.502782	-0.406982	0.182861	-0.696777
893.0	10.042643	0.173862	5.913809	-0.7164	0.275297	0.344813	-0.406982	0.182861	-0.692139
894.0	9.704563	-0.496359	5.235514	-0.081649	-0.115892	0.168913	-0.411621	0.187256	-0.69458
895.0	9.787191	0.163649	4.337309	0.319566	-0.226165	-0.001637	-0.413818	0.185059	-0.69458
896.0	9.898452	0.60913	3.806444	0.186074	-0.147121	-0.164996	-0.413574	0.182861	-0.696777
897.0	9.774839	0.521036	3.367333	-0.081618	-0.063018	-0.296791	-0.415527	0.17627	-0.684814
898.0	9.126922	0.235276	3.096155	0.044192	0.139275	-0.372676	-0.420166	0.178467	-0.696533
899.0	7.695281	0.594293	3.264791	0.38411	0.363659	-0.384232	-0.408447	0.16748	-0.689209
900.0	6.803738	1.071441	3.811031	0.453528	0.371268	-0.32685	-0.410889	0.169678	-0.703125
901.0	6.807138	0.951669	3.98711	0.124066	0.121875	-0.269532	-0.412842	0.160889	-0.693604
902.0	7.075869	0.335268	3.398683	0.036447	0.023683	-0.228854	-0.412598	0.158691	-0.700439
903.0	7.4647	0.212103	3.256513	0.256436	0.129904	-0.210218	-0.421631	0.15625	-0.700439
904.0	7.531578	0.641519	3.357396	0.311519	0.158353	-0.21011	-0.414795	0.156494	-0.705078
905.0	7.546237	0.901187	3.404384	0.268139	0.127918	-0.179993	-0.409912	0.145508	-0.697754
906.0	7.584364	1.05232	3.202276	0.224996	0.107266	-0.135364	-0.414551	0.1521	-0.709473
907.0	7.710154	1.088229	3.069922	0.200906	0.135408	-0.079767	-0.412109	0.143066	-0.702148
908.0	7.788012	0.982236	2.999486	0.172626	0.173595	-0.030239	-0.414551	0.147705	-0.709229
909.0	7.745151	0.722616	3.045	0.17665	0.19468	0.025962	-0.412109	0.147705	-0.709229
910.0	7.73242	0.519929	3.012046	0.214131	0.167107	0.071435	-0.418701	0.143066	-0.706787
911.0	7.912161	0.575778	2.816053	0.300289	0.099342	0.122434	-0.407471	0.143311	-0.711426
912.0	8.07276	0.790252	2.488088	0.337039	0.05527	0.161075	-0.414307	0.143311	-0.713867
913.0	8.146288	1.07129	2.2056	0.348742	0.040235	0.193219	-0.414063	0.138672	-0.702148
914.0	8.29006	1.347496	1.94688	0.27415	0.025811	0.216861	-0.414063	0.138672	-0.711426
915.0	8.492746	1.300956	1.744699	0.158598	0.001864	0.254741	-0.41626	0.138672	-0.708984
916.0	8.406311	1.119448	1.503325	0.172711	0.06415	0.305075	-0.414307	0.140869	-0.711426
917.0	8.57895	1.060736	1.856883	0.211499	0.111258	0.370941	-0.41626	0.136475	-0.713623
918.0	8.767026	0.764685	2.121663	0.145059	0.028503	0.414136	-0.414063	0.138672	-0.711426
919.0	8.852128	0.322367	2.236159	0.197576	-0.078548	0.447053	-0.41626	0.138672	-0.711426
920.0	8.741041	-0.023719	2.151984	0.278089	-0.117995	0.458983	-0.41626	0.138672	-0.708984
921.0	8.552695	-0.062094	2.116391	0.376778	-0.074464	0.467962	-0.411865	0.136475	-0.711182
922.0	8.751601	0.24831	2.429061	0.454437	-0.06517	0.478935	-0.41626	0.138672	-0.711426
923.0	8.693455	0.772876	2.498266	0.479691	-0.123319	0.469377	-0.420898	0.136475	-0.704346
924.0	8.829965	1.389501	2.436635	0.481184	-0.193749	0.467107	-0.422852	0.13208	-0.713379
925.0	9.345003	1.835035	2.428671	0.286013	-0.263283	0.439091	-0.422607	0.127686	-0.708496
926.0	9.973442	1.836955	2.297367	0.070747	-0.283213	0.387598	-0.42749	0.13208	-0.713379
927.0	9.985306	1.790928	2.294995	0.081124	-0.158542	0.321872	-0.42749	0.136475	-0.713623
928.0	9.666836	1.807997	2.622847	0.141447	-0.084793	0.250386	-0.429688	0.136475	-0.713623
929.0	9.535799	1.701478	2.783244	0.083777	-0.215638	0.185653	-0.429688	0.136475	-0.708984
930.0	9.871753	1.214016	2.245169	0.006337	-0.37708	0.123018	-0.429688	0.134277	-0.711182
931.0	10.327482	0.907904	1.259578	0.058135	-0.397188	0.059927	-0.433838	0.127686	-0.706299
932.0	10.633628	1.059583	0.431057	0.153297	-0.245488	-0.004185	-0.433838	0.127686	-0.706299
933.0	10.819387	1.90626	0.303777	0.119322	-0.074459	-0.05291	-0.436035	0.121094	-0.710693
934.0	11.079194	2.818355	1.218951	-0.211408	0.085021	-0.081945	-0.440918	0.129883	-0.70874
935.0	11.897054	2.316282	2.821529	-0.794364	0.118563	-0.128865	-0.440918	0.13208	-0.699463
936.0	12.853854	0.437914	3.514653	-1.074912	-0.14249	-0.189257	-0.441162	0.138672	-0.702148
937.0	13.434909	-2.022591	2.939324	-0.933066	-0.320966	-0.24554	-0.443359	0.136475	-0.699707
938.0	13.350115	-3.419711	2.714297	-0.089483	-0.04352	-0.369185	-0.445557	0.138672	-0.706787
939.0	12.934279	-2.239055	4.566702	0.767723	0.349682	-0.495651	-0.440674	0.127686	-0.706299
940.0	11.766368	-1.555681	6.247096	0.584869	0.259296	-0.546808	-0.442871	0.123291	-0.708496
941.0	10.876133	-1.917129	6.338182	0.175395	-0.146603	-0.553648	-0.447021	0.114258	-0.705811
942.0	10.01532	-1.28145	5.699396	0.655988	-0.185326	-0.537951	-0.451416	0.112061	-0.708008
943.0	9.276346	1.148142	6.270696	1.212619	0.02507	-0.562633	-0.444092	0.098877	-0.702881
944.0	8.727631	3.181942	6.671188	0.846383	-0.059935	-0.569773	-0.446045	0.092285	-0.707275
945.0	8.968638	3.050159	5.901726	-0.066533	-0.173869	-0.525645	-0.448486	0.09668	-0.714355
946.0	9.893572	2.225821	5.165726	-0.163734	0.194959	-0.564513	-0.448242	0.087891	-0.714111
947.0	9.929775	1.64609	5.625633	0.057626	0.521127	-0.619467	-0.447754	0.081299	-0.713867
948.0	9.594445	0.33508	5.618799	-0.404459	0.355687	-0.67065	-0.450195	0.083496	-0.709229
949.0	9.934731	-0.874032	4.970857	-0.553998	0.285357	-0.76843	-0.449951	0.079102	-0.713623
950.0	9.938679	-1.069769	4.547397	-0.134238	0.5077	-0.830871	-0.445557	0.079102	-0.716064
951.0	10.119988	0.267225	4.978535	0.115212	0.679163	-0.815068	-0.438477	0.074707	-0.718262
952.0	10.485082	1.311415	5.681826	-0.050775	0.445896	-0.648093	-0.443115	0.07251	-0.720459
953.0	10.797891	0.948791	5.680126	-0.34271	-0.016486	-0.373094	-0.433838	0.065918	-0.715576
954.0	11.485612	-0.003798	5.03158	-0.239138	-0.422106	-0.092014	-0.447754	0.076904	-0.718262
955.0	10.965934	-0.695577	3.518393	0.103387	-0.379201	0.121867	-0.447754	0.076904	-0.713623
956.0	10.38608	-0.528206	3.357536	0.091114	-0.064321	0.236666	-0.449707	0.07251	-0.718262
957.0	8.895789	-0.593919	3.836802	-0.002894	0.283626	0.301261	-0.438477	0.070313	-0.71582
958.0	8.009908	-0.328892	4.616605	0.062441	0.181529	0.362029	-0.445557	0.081299	-0.713867
959.0	7.392992	-0.005054	4.152115	-0.056076	-0.149779	0.405814	-0.443115	0.076904	-0.711426
960.0	7.452395	0.093689	3.281116	-0.162286	-0.199422	0.42817	-0.445557	0.081299	-0.716064
961.0	7.408602	0.202405	2.766415	-0.172906	-0.023861	0.424614	-0.443604	0.085693	-0.71875
962.0	7.089309	0.209183	2.870531	-0.211398	0.169908	0.404464	-0.448242	0.090088	-0.716553
963.0	6.855993	0.138203	3.186711	-0.300016	0.210675	0.393166	-0.445801	0.085693	-0.71875
964.0	6.736181	-0.281001	3.203752	-0.334455	0.152284	0.347588	-0.448486	0.094482	-0.721191
965.0	7.055643	-0.495185	3.172533	-0.24179	0.068611	0.287024	-0.443604	0.090088	-0.71875
966.0	7.306042	-0.544533	2.951452	-0.127447	0.064903	0.217834	-0.446289	0.098877	-0.716797
967.0	7.615627	-0.407403	2.864931	-0.127998	0.037372	0.156827	-0.446289	0.09668	-0.718994
968.0	7.855601	-0.414764	2.717696	-0.173266	-0.009724	0.091269	-0.446533	0.103271	-0.719238
969.0	8.069242	-0.378035	2.592186	-0.163179	-0.047257	0.034519	-0.444092	0.09668	-0.718994
970.0	8.097485	-0.261334	2.402456	-0.107523	-0.065156	-0.014367	-0.453369	0.103271	-0.723877
971.0	8.095662	0.000661	2.240857	-0.074017	-0.090838	-0.053925	-0.446533	0.101074	-0.716797
972.0	7.782502	0.072604	1.827476	-0.111652	-0.137567	-0.094565	-0.450928	0.101074	-0.716797
973.0	7.637639	0.182263	1.425011	-0.108122	-0.189982	-0.153698	-0.446289	0.09668	-0.716797
974.0	7.7473	0.519892	1.232036	-0.079189	-0.221028	-0.194303	-0.457764	0.101074	-0.719238
975.0	7.787582	0.662242	1.291515	-0.196494	-0.253388	-0.216648	-0.455322	0.098877	-0.714355
976.0	7.855091	0.420224	1.340171	-0.401178	-0.284597	-0.245483	-0.455322	0.098877	-0.719238
977.0	7.885721	0.002605	1.45087	-0.42796	-0.270485	-0.294268	-0.462158	0.098877	-0.714355
978.0	8.513134	0.326181	1.955778	-0.256078	-0.320951	-0.344394	-0.464355	0.101074	-0.712158
979.0	8.825508	0.413732	2.172593	-0.291055	-0.500846	-0.347272	-0.466553	0.09668	-0.709717
980.0	8.908891	-0.335596	1.971455	-0.540852	-0.676863	-0.343611	-0.478027	0.101074	-0.702881
981.0	9.505555	-1.232052	2.110171	-0.596116	-0.651364	-0.392767	-0.475342	0.094482	-0.700439
982.0	10.156987	-1.705807	2.620386	-0.349187	-0.599237	-0.43929	-0.480225	0.103271	-0.698486
983.0	10.318444	-1.552141	2.82365	-0.045549	-0.542464	-0.477895	-0.477783	0.09668	-0.695801
984.0	10.779124	-0.877422	2.75138	0.165298	-0.46797	-0.469928	-0.48877	0.089844	-0.697754
985.0	10.664741	-0.39907	2.474846	0.21362	-0.359522	-0.405432	-0.484131	0.087646	-0.695557
986.0	10.413013	0.056846	2.397561	0.111805	-0.179633	-0.301927	-0.48877	0.087646	-0.697754
987.0	10.476755	0.476875	2.429633	-0.026886	-0.042242	-0.177494	-0.490967	0.085449	-0.688477
988.0	10.511353	0.421041	1.905171	-0.065246	-0.121311	-0.033058	-0.48877	0.092041	-0.690918
989.0	10.787328	0.007112	0.967525	-0.051957	-0.231024	0.08277	-0.493408	0.092041	-0.688721
990.0	11.350292	-0.674429	0.166685	0.015503	-0.242375	0.15315	-0.497559	0.085449	-0.690674
991.0	12.075442	-1.537094	-0.009626	0.05267	-0.240421	0.192968	-0.499756	0.085449	-0.688477
992.0	12.834291	-2.554727	0.443988	-0.000981	-0.234931	0.238577	-0.495605	0.092041	-0.690918
993.0	13.751562	-3.071281	1.681988	0.052509	-0.147763	0.283499	-0.5	0.087646	-0.688477
994.0	13.897783	-2.483498	2.554538	0.351618	-0.14689	0.345045	-0.504639	0.089844	-0.686279
995.0	13.618358	-0.194808	2.501794	0.746324	-0.166804	0.360627	-0.508789	0.081055	-0.683594
996.0	12.767632	2.254821	2.408928	0.649976	0.103046	0.324064	-0.506592	0.085449	-0.690674
997.0	12.105898	3.183648	3.544377	-0.277646	0.470323	0.386956	-0.499756	0.085449	-0.693115
998.0	11.320974	2.558183	5.106938	-0.665289	0.629041	0.430266	-0.502686	0.098633	-0.695801
999.0	9.896495	2.320369	6.911444	-0.154805	0.322275	0.454375	-0.504639	0.094238	-0.693359
1000.0	8.800419	2.196572	7.302683	0.05443	-0.357249	0.465024	-0.50708	0.096436	-0.695801
1001.0	9.115891	0.812788	5.458616	-0.35765	-0.714972	0.467377	-0.505127	0.103027	-0.693604
1002.0	9.877766	-0.864608	3.74331	-0.444206	-0.379944	0.452509	-0.512207	0.114014	-0.694092
1003.0	9.991512	-1.459795	4.159556	-0.121415	0.289089	0.432604	-0.503174	0.111816	-0.694092
1004.0	10.004775	-1.848791	5.917852	-0.198462	0.66109	0.489014	-0.503418	0.116211	-0.694092
1005.0	10.253244	-1.551859	5.740023	0.103086	0.525829	0.512603	-0.499023	0.118408	-0.701172
1006.0	10.587206	0.652962	5.206836	1.00984	0.432091	0.533292	-0.498779	0.116211	-0.701172
1007.0	10.601981	2.16905	4.598513	0.81937	0.47887	0.547091	-0.489746	0.114258	-0.69873
1008.0	10.714497	2.371538	4.468766	0.00256	0.51048	0.550935	-0.492188	0.118652	-0.705811
1009.0	10.435183	2.081829	4.639512	-0.288195	0.672437	0.547855	-0.487793	0.123047	-0.715332
1010.0	9.918394	2.292488	5.532267	0.018157	0.882641	0.558365	-0.48584	0.127441	-0.713135
1011.0	9.922232	2.213326	6.520496	-0.23278	0.589953	0.443428	-0.481201	0.127441	-0.717773
1012.0	10.149184	0.99016	5.935702	-0.66525	-0.157424	0.21673	-0.483887	0.138428	-0.718262
1013.0	10.182629	-0.007395	4.349208	-0.424652	-0.418554	0.018693	-0.486084	0.13623	-0.706543
1014.0	10.195724	0.034284	3.910769	0.001927	-0.127028	-0.168954	-0.488525	0.13623	-0.708984
1015.0	9.633477	0.162121	3.997421	-0.059579	0.04444	-0.331288	-0.488037	0.129639	-0.713379
1016.0	9.224123	0.110026	3.726716	-0.081208	0.028746	-0.439587	-0.492676	0.131836	-0.710938
1017.0	8.273818	0.305136	3.349172	0.209515	0.156757	-0.483149	-0.48584	0.129639	-0.715576
1018.0	7.266517	0.825503	3.486225	0.463607	0.311898	-0.474177	-0.487793	0.118652	-0.719727
1019.0	6.965868	1.09221	3.807442	0.234276	0.27908	-0.426729	-0.485352	0.116455	-0.719727
1020.0	7.070163	0.54783	3.588619	0.014198	0.184079	-0.370628	-0.485596	0.12085	-0.719971
1021.0	7.516668	0.147824	3.477844	0.110737	0.148825	-0.321858	-0.487549	0.116455	-0.722168
1022.0	7.55792	0.264947	3.340743	0.264705	0.181365	-0.290351	-0.48291	0.114258	-0.719727
1023.0	7.553345	0.553907	3.376502	0.278418	0.226405	-0.241065	-0.480713	0.114258	-0.724365
1024.0	7.793281	0.678791	3.356312	0.161842	0.158727	-0.186661	-0.480713	0.109863	-0.726563
1025.0	8.060447	0.712786	2.986583	0.175061	0.089943	-0.136042	-0.485107	0.107666	-0.72168
1026.0	8.090288	0.935014	2.719819	0.284448	0.175796	-0.090344	-0.47583	0.105469	-0.72876
1027.0	7.766551	1.070081	2.653163	0.267612	0.293429	-0.037585	-0.478027	0.101074	-0.719238
1028.0	7.619345	1.176268	2.855046	0.187189	0.251928	0.039964	-0.480469	0.107666	-0.724121
1029.0	7.677893	0.978915	2.772534	0.106495	0.125068	0.117932	-0.480225	0.101074	-0.728516
1030.0	7.956628	0.781619	2.392451	0.116566	0.05119	0.174651	-0.482666	0.105469	-0.723877
1031.0	8.217839	0.863752	2.013971	0.202042	0.052477	0.213383	-0.478271	0.105469	-0.723877
1032.0	8.286319	1.036122	1.843605	0.236205	0.080606	0.243752	-0.47583	0.105469	-0.733398
1033.0	8.378792	1.067348	1.703347	0.139034	0.06813	0.266326	-0.476074	0.109863	-0.731201
1034.0	8.724076	0.891028	1.517513	0.09056	0.045787	0.297725	-0.476074	0.107666	-0.724121
1035.0	8.395154	0.874645	1.251359	0.253691	0.139916	0.342345	-0.471436	0.105469	-0.730957
1036.0	8.561588	0.944827	1.802366	0.221198	0.132849	0.398805	-0.480713	0.109863	-0.733398
1037.0	8.373987	0.492725	1.784378	0.125379	-0.003118	0.432562	-0.476074	0.107666	-0.733398
1038.0	8.18623	0.102504	1.824873	0.27664	-0.087448	0.471868	-0.476074	0.107666	-0.72876
1039.0	7.858098	-0.013993	1.941188	0.345688	-0.117313	0.476598	-0.478516	0.114258	-0.726563
1040.0	7.649012	0.071119	2.146015	0.381105	-0.084056	0.485378	-0.476074	0.109863	-0.72876
1041.0	8.00514	0.424165	2.470179	0.371753	-0.169205	0.476638	-0.473877	0.109863	-0.726563
1042.0	8.714283	0.858245	2.684378	0.305237	-0.327807	0.46399	-0.478516	0.116455	-0.729004
1043.0	9.348688	1.326282	2.509411	0.271874	-0.413734	0.434124	-0.480713	0.112061	-0.731201
1044.0	9.708783	2.025663	2.323743	0.290363	-0.337468	0.393475	-0.480713	0.114258	-0.717285
1045.0	10.065976	2.5162	2.641905	0.138268	-0.245384	0.357151	-0.480713	0.114258	-0.726563
1046.0	9.798198	2.365534	2.636716	-0.009851	-0.219145	0.304082	-0.485352	0.116455	-0.719727
1047.0	9.820846	2.055381	2.478708	0.009649	-0.272637	0.241342	-0.48999	0.118652	-0.715088
1048.0	9.991854	1.738603	1.852577	0.008621	-0.380528	0.165043	-0.48999	0.118652	-0.717529
1049.0	10.447344	1.28659	1.017773	-0.027241	-0.449157	0.090754	-0.499268	0.123047	-0.719971
1050.0	10.813615	1.10823	0.079404	-0.016237	-0.389605	0.001965	-0.48999	0.12085	-0.717529
1051.0	11.231331	1.685906	0.00094	-0.025225	-0.171433	-0.077654	-0.485352	0.118652	-0.715088
1052.0	11.986676	2.417945	1.632939	-0.400497	0.090545	-0.137994	-0.492432	0.125244	-0.713135
1053.0	12.822473	1.483435	3.349641	-1.079691	0.080459	-0.220883	-0.497314	0.134033	-0.718018
1054.0	14.00861	-1.003495	3.829959	-1.355301	-0.200752	-0.287764	-0.501953	0.138428	-0.708984
1055.0	14.361966	-3.730955	3.109744	-0.70221	-0.078845	-0.388463	-0.499512	0.134033	-0.711182
1056.0	13.688691	-2.886125	4.211455	0.755107	0.445543	-0.534227	-0.494873	0.127441	-0.717773
1057.0	12.440148	-1.076124	6.595461	0.888907	0.592552	-0.595558	-0.492432	0.125244	-0.719971
1058.0	11.7278	-2.132818	7.193817	-0.079243	0.042336	-0.591618	-0.492432	0.125244	-0.715332
1059.0	10.852581	-3.999393	5.433811	0.071244	-0.251567	-0.565242	-0.496826	0.118652	-0.715088
1060.0	9.917404	-1.881106	5.204696	1.457208	0.076311	-0.510565	-0.496338	0.109863	-0.717285
1061.0	8.815533	1.436108	6.079029	1.808187	0.181057	-0.527616	-0.49585	0.094238	-0.716553
1062.0	8.502378	3.431597	6.342155	0.908751	-0.153098	-0.510048	-0.495605	0.092041	-0.716553
1063.0	8.829103	2.593976	5.023182	0.007869	-0.289955	-0.445857	-0.495361	0.087646	-0.720947
1064.0	9.485597	2.068753	4.336478	0.181092	0.098222	-0.479574	-0.497559	0.083252	-0.716309
1065.0	9.300259	2.566355	5.188395	0.30599	0.597964	-0.591586	-0.490479	0.07666	-0.718262
1066.0	8.624792	1.145621	5.593708	-0.428799	0.588241	-0.689787	-0.490723	0.078857	-0.725342
1067.0	8.487803	-0.814553	5.26333	-0.775013	0.423318	-0.800481	-0.492676	0.07666	-0.7229
1068.0	9.311957	-1.303395	5.219436	-0.280522	0.58218	-0.884601	-0.481689	0.078857	-0.72998
1069.0	10.604671	-0.010381	5.959217	0.216507	0.503121	-0.792767	-0.48584	0.074463	-0.729736
1070.0	10.558468	0.344137	5.555117	-0.017835	0.040145	-0.590633	-0.48584	0.074463	-0.729736
1071.0	11.620086	-0.229687	5.00656	-0.28332	-0.378161	-0.297425	-0.483887	0.078857	-0.725342
1072.0	11.805549	-0.82461	3.915085	0.089744	-0.462346	-0.024734	-0.490234	0.070068	-0.727295
1073.0	10.931597	-0.203204	3.292224	0.573793	-0.24016	0.167002	-0.497314	0.074463	-0.729736
1074.0	9.444223	0.485543	3.499388	0.323687	0.046277	0.250996	-0.48584	0.074463	-0.727539
1075.0	8.576423	0.346901	4.10878	-0.113811	0.199425	0.301439	-0.488037	0.072266	-0.725098
1076.0	8.266432	0.189835	4.346007	-0.069992	0.037594	0.345514	-0.490723	0.083252	-0.725586
1077.0	7.896821	0.457769	3.884233	-0.038918	-0.147867	0.353733	-0.490723	0.083252	-0.727783
1078.0	7.811739	0.386832	3.245977	-0.256711	-0.131693	0.336212	-0.493164	0.085449	-0.727783
1079.0	7.858392	-0.103404	2.991062	-0.391224	0.028682	0.282827	-0.489014	0.092041	-0.723389
1080.0	7.644615	-0.426843	3.099546	-0.371858	0.195017	0.225522	-0.491211	0.094238	-0.718994
1081.0	7.577505	-0.50875	3.366883	-0.280811	0.265152	0.183675	-0.486572	0.092285	-0.723389
1082.0	7.754442	-0.458836	3.553162	-0.188381	0.157692	0.145318	-0.484619	0.098877	-0.726074
1083.0	7.724142	-0.62649	3.140761	-0.17568	0.084101	0.096334	-0.482666	0.103271	-0.728516
1084.0	8.117927	-0.694901	2.958616	-0.161564	0.110007	0.056425	-0.484863	0.103271	-0.730957
1085.0	8.542393	-0.784124	2.903834	-0.149572	0.1102	0.028677	-0.489502	0.105469	-0.72168
1086.0	8.488562	-0.766202	2.816067	-0.098636	0.13552	0.013061	-0.485107	0.107666	-0.72876
1087.0	8.144101	-0.684779	2.888206	-0.052182	0.164465	-0.006963	-0.487061	0.105469	-0.726318
1088.0	8.164469	-0.415975	2.797643	-0.02711	0.0902	-0.026277	-0.482666	0.105469	-0.726318
1089.0	7.952118	-0.165575	2.387879	0.021506	0.011174	-0.044391	-0.485107	0.107666	-0.72876
1090.0	7.870088	0.067344	1.958338	0.023607	-0.012298	-0.068121	-0.487305	0.105469	-0.733154
1091.0	7.846589	0.276739	1.736138	-0.018337	-0.029003	-0.082518	-0.485107	0.107666	-0.733398
1092.0	7.792997	0.286662	1.73645	-0.106599	-0.077348	-0.093854	-0.487305	0.109863	-0.726563
1093.0	8.109016	0.041682	1.769071	-0.200788	-0.159585	-0.120349	-0.484863	0.103271	-0.730957
1094.0	8.177352	-0.308022	1.657674	-0.144538	-0.229662	-0.149683	-0.487061	0.105469	-0.719238
1095.0	8.403853	-0.0793	1.610202	-0.037173	-0.280725	-0.196476	-0.491943	0.109863	-0.719482
1096.0	8.934207	0.482148	1.760915	0.012808	-0.315073	-0.204361	-0.498535	0.109863	-0.719482
1097.0	8.697521	0.509819	1.609975	-0.10323	-0.32831	-0.205308	-0.496338	0.107422	-0.712402
1098.0	8.368534	0.256404	1.615029	-0.184674	-0.31746	-0.2253	-0.494141	0.107666	-0.717041
1099.0	8.169426	-0.020873	2.166541	-0.255725	-0.29693	-0.276149	-0.507568	0.109619	-0.710205
1100.0	7.902322	-0.509308	2.655508	-0.347608	-0.344592	-0.32842	-0.507568	0.109619	-0.714844
1101.0	8.325317	-0.840296	2.723714	-0.311149	-0.524146	-0.361584	-0.51001	0.111816	-0.705566
1102.0	9.122269	-0.537026	2.517955	-0.115082	-0.665568	-0.356237	-0.514404	0.111816	-0.705566
1103.0	9.466169	-0.041232	2.255201	-0.016643	-0.505873	-0.352905	-0.518799	0.105225	-0.698486
1104.0	9.703222	0.554212	2.448739	-0.057886	-0.227548	-0.316457	-0.514404	0.109619	-0.703125
1105.0	9.637147	0.679991	2.641304	-0.274349	-0.148175	-0.276209	-0.518799	0.109619	-0.705566
1106.0	9.796062	0.466871	2.358009	-0.400812	-0.218038	-0.232309	-0.516602	0.109619	-0.693848
1107.0	10.135654	0.560218	1.92046	-0.339718	-0.256706	-0.171947	-0.52124	0.109619	-0.69165
1108.0	10.646625	0.677434	1.446288	-0.344723	-0.27883	-0.105981	-0.519287	0.118408	-0.689697
1109.0	11.213685	0.194576	0.967254	-0.355502	-0.322951	-0.021859	-0.525879	0.116211	-0.689453
1110.0	11.796398	-0.777201	0.316966	-0.217926	-0.396144	0.053685	-0.52832	0.122803	-0.685059
1111.0	12.391218	-1.824394	0.187604	-0.116821	-0.392091	0.125458	-0.535156	0.122803	-0.682861
1112.0	12.889698	-3.090133	0.693955	-0.10797	-0.268262	0.205686	-0.528564	0.125	-0.682861
1113.0	13.268009	-3.48209	1.498973	0.202538	-0.101305	0.300786	-0.5354	0.127197	-0.678223
1114.0	13.080466	-1.946973	2.180064	0.60496	-0.100408	0.40414	-0.5354	0.127197	-0.680664
1115.0	12.807632	0.502171	2.443767	0.632277	-0.03527	0.431427	-0.530762	0.127197	-0.680664
1116.0	12.736303	1.552317	3.158663	0.00898	0.206729	0.470931	-0.531006	0.131592	-0.680908
1117.0	12.855618	1.4589	4.206359	-0.396146	0.420987	0.486149	-0.528809	0.133789	-0.678467
1118.0	12.124711	2.436385	5.244855	0.022214	0.536227	0.455007	-0.529297	0.142578	-0.683594
1119.0	10.662883	4.027468	6.441049	0.133221	0.339867	0.456535	-0.529053	0.138184	-0.687988
1120.0	9.936523	3.601663	7.051856	-0.577113	-0.181223	0.478201	-0.527344	0.14917	-0.683838
1121.0	9.753932	1.048142	5.936319	-1.029365	-0.466777	0.478929	-0.534424	0.157959	-0.681885
1122.0	10.033603	-0.563836	5.701475	-0.800056	-0.275911	0.464123	-0.532227	0.160156	-0.672607
1123.0	10.259037	-1.304694	5.970858	-0.653635	0.042143	0.495743	-0.528076	0.168945	-0.672852
1124.0	10.353819	-1.104091	5.416183	-0.201363	0.191011	0.471149	-0.532715	0.173584	-0.682373
1125.0	10.04431	-0.142498	5.015648	0.239845	0.274365	0.462709	-0.525879	0.173584	-0.670654
1126.0	9.84976	0.142503	4.56925	0.08654	0.293752	0.496736	-0.528076	0.171387	-0.679932
1127.0	9.800232	-0.591195	4.094889	-0.227618	0.302325	0.508728	-0.526367	0.18457	-0.68042
1128.0	9.718161	-1.17951	3.991698	-0.208752	0.492451	0.511527	-0.528809	0.186768	-0.678223
1129.0	9.274357	-0.986919	4.445187	0.121537	0.819082	0.565776	-0.517578	0.188965	-0.685303
1130.0	9.59129	-0.674675	5.447429	0.114767	0.847737	0.545861	-0.515381	0.191162	-0.687744
1131.0	10.085053	-0.451841	5.841742	0.043928	0.456671	0.375775	-0.513428	0.195557	-0.692383
1132.0	10.156139	0.072579	5.227571	0.250345	0.008231	0.190525	-0.510742	0.186768	-0.69458
1133.0	10.284956	0.918068	4.39352	0.421211	-0.154207	0.034733	-0.515137	0.18457	-0.694336
1134.0	10.519553	1.672993	3.742605	0.393381	-0.012812	-0.132184	-0.512695	0.182373	-0.694336
1135.0	9.602129	2.019654	3.569414	0.241772	0.218573	-0.275312	-0.512695	0.180176	-0.689697
1136.0	8.777473	2.034629	4.206983	0.008446	0.209007	-0.358031	-0.505859	0.180176	-0.687256
1137.0	7.472996	1.382134	3.936323	-0.029648	0.082221	-0.396185	-0.514893	0.177979	-0.687256
1138.0	7.365036	1.004067	3.826378	0.049697	-0.012663	-0.382175	-0.514648	0.171387	-0.689209
1139.0	7.62551	0.556545	3.453155	0.000288	-0.025959	-0.377002	-0.51709	0.175781	-0.69165
1140.0	7.73764	0.107219	3.231508	0.036946	0.06359	-0.37616	-0.514893	0.177979	-0.680176
1141.0	7.747497	-0.095148	3.377877	0.084924	0.101835	-0.388889	-0.516846	0.171387	-0.69165
1142.0	7.810203	-0.111006	3.323606	0.134329	0.116646	-0.374387	-0.519043	0.169189	-0.689209
1143.0	8.202636	0.01503	3.22933	0.132489	0.069538	-0.347466	-0.516602	0.166992	-0.691406
1144.0	8.441995	0.227066	2.848086	0.167496	0.092969	-0.31851	-0.516602	0.164795	-0.686768
1145.0	8.32606	0.531041	2.718073	0.24806	0.185124	-0.28197	-0.516602	0.164795	-0.691406
1146.0	8.152961	0.835371	2.827598	0.262706	0.238576	-0.221355	-0.516602	0.162598	-0.693604
1147.0	8.061156	1.001469	2.880067	0.199827	0.219298	-0.145164	-0.518555	0.1604	-0.686523
1148.0	8.256959	0.943397	2.752862	0.146985	0.10655	-0.067078	-0.511963	0.1604	-0.693604
1149.0	8.425196	0.783056	2.361233	0.165462	0.05515	0.005618	-0.509521	0.158203	-0.693359
1150.0	8.545617	0.81719	2.093594	0.227839	0.066469	0.071488	-0.509277	0.153809	-0.693359
1151.0	8.489826	0.854322	1.81045	0.215076	0.089741	0.119024	-0.511963	0.1604	-0.693604
1152.0	8.462027	0.822557	1.774706	0.152293	0.079821	0.175175	-0.511475	0.149414	-0.693115
1153.0	8.556317	0.669159	1.605746	0.134157	0.055359	0.211204	-0.516113	0.153809	-0.693359
1154.0	8.645844	0.738892	1.402342	0.230794	0.067979	0.243937	-0.516113	0.156006	-0.690918
1155.0	8.66157	1.035111	1.3683	0.29398	0.085697	0.289643	-0.51416	0.158203	-0.702637
1156.0	8.452562	1.103448	1.377641	0.247079	0.107528	0.350577	-0.513916	0.156006	-0.693359
1157.0	8.761622	0.794504	1.690946	0.090543	0.023627	0.39766	-0.511963	0.1604	-0.691162
1158.0	8.497393	0.159958	1.734809	0.089642	-0.070462	0.413366	-0.509766	0.1604	-0.691162
1159.0	7.720767	0.033139	1.773993	0.37237	-0.02441	0.425738	-0.516602	0.164795	-0.691406
1160.0	7.490674	0.379946	2.332353	0.448272	-0.063996	0.450764	-0.511963	0.1604	-0.693604
1161.0	7.531138	0.519663	2.641351	0.323351	-0.222954	0.471651	-0.518799	0.164795	-0.691406
1162.0	8.121998	0.522542	2.76432	0.305647	-0.431805	0.480428	-0.518799	0.164795	-0.688965
1163.0	8.481685	0.920382	2.623884	0.385863	-0.527446	0.466264	-0.52124	0.169189	-0.686768
1164.0	8.854364	1.546074	2.604673	0.360271	-0.480421	0.442086	-0.520996	0.164795	-0.682129
1165.0	9.477082	1.858695	2.714861	0.137266	-0.376234	0.393654	-0.523682	0.171387	-0.679932
1166.0	9.638241	1.638554	2.740224	0.129969	-0.274037	0.347314	-0.523438	0.166992	-0.67749
1167.0	9.749313	1.644461	2.752985	0.24596	-0.299758	0.299328	-0.525879	0.171387	-0.675293
1168.0	10.007208	1.489838	2.38201	0.1778	-0.418307	0.249005	-0.523438	0.169189	-0.679932
1169.0	10.547656	0.920893	1.539441	0.092564	-0.474585	0.197739	-0.537109	0.168945	-0.675293
1170.0	11.138	0.410526	0.751604	0.133203	-0.41065	0.132722	-0.534668	0.168945	-0.670654
1171.0	11.526545	0.542233	0.133155	0.215901	-0.304481	0.053806	-0.537109	0.17334	-0.673096
1172.0	11.96961	1.625297	0.35327	0.218593	-0.097394	-0.016527	-0.539307	0.168945	-0.670654
1173.0	12.603875	2.384847	1.856927	-0.190392	0.095242	-0.078586	-0.541748	0.175537	-0.670898
1174.0	13.385544	1.241618	2.710022	-0.740679	-0.05648	-0.177672	-0.535156	0.175537	-0.670898
1175.0	13.759416	-0.97271	2.550077	-0.753223	-0.242598	-0.272032	-0.541992	0.177734	-0.664063
1176.0	13.330872	-2.315856	2.438602	-0.086556	0.037204	-0.447911	-0.539551	0.175537	-0.670898
1177.0	12.578825	-1.266035	4.211793	0.755077	0.421701	-0.592178	-0.539307	0.166748	-0.665771
1178.0	11.928454	-0.592943	6.116849	0.588075	0.250502	-0.633986	-0.538818	0.155762	-0.670166
1179.0	11.735614	-1.807932	5.600966	0.009638	-0.26859	-0.604293	-0.543457	0.157959	-0.670166
1180.0	11.435712	-2.529603	4.538038	0.383058	-0.253041	-0.564536	-0.540527	0.146973	-0.662842
1181.0	10.354402	-0.683025	5.03016	1.193556	0.157627	-0.516029	-0.542725	0.142578	-0.667236
1182.0	8.944206	1.991252	6.113475	1.317336	0.129084	-0.480573	-0.546875	0.133789	-0.669189
1183.0	8.434116	3.516965	6.269929	0.614621	-0.263602	-0.404579	-0.544678	0.133789	-0.669189
1184.0	9.022939	2.753821	5.016253	-0.041989	-0.347633	-0.363147	-0.544189	0.122559	-0.673584
1185.0	9.158287	2.090792	3.927374	0.075481	0.054753	-0.392509	-0.55127	0.12915	-0.673828
1186.0	8.929928	2.774722	4.53617	0.045885	0.494698	-0.46623	-0.544189	0.120361	-0.67334
1187.0	8.564668	2.270821	5.382055	-0.445493	0.637602	-0.543918	-0.546387	0.122803	-0.682861
1188.0	8.360917	-0.053208	5.354174	-0.943208	0.487171	-0.610686	-0.539795	0.122803	-0.68042
1189.0	8.812362	-1.712896	4.90046	-0.872045	0.427466	-0.724787	-0.539795	0.125	-0.682861
1190.0	9.895962	-1.895444	4.834232	-0.39791	0.618754	-0.818822	-0.537354	0.118408	-0.687256
1191.0	11.279853	-0.861297	5.434581	-0.056981	0.580247	-0.738074	-0.541748	0.120605	-0.687256
1192.0	10.493777	-0.778533	4.977359	-0.072953	0.237342	-0.588951	-0.539307	0.111816	-0.687012
1193.0	11.355372	-0.474059	5.013881	0.000554	-0.108167	-0.329913	-0.539307	0.111572	-0.680176
1194.0	11.084442	-0.301686	4.117551	0.231098	-0.261077	-0.084832	-0.539063	0.107178	-0.686768
1195.0	10.837614	0.369026	3.682377	0.324042	-0.247831	0.098557	-0.543701	0.109375	-0.687012
1196.0	9.918871	0.374523	3.295969	0.020266	-0.002878	0.215352	-0.541504	0.109375	-0.682373
1197.0	9.405852	0.210014	3.789772	-0.082878	0.16954	0.284307	-0.543945	0.11377	-0.684814
1198.0	8.635343	0.444454	4.017464	-0.020376	0.07848	0.336092	-0.539307	0.111572	-0.684814
1199.0	8.082205	0.679582	3.669195	-0.161519	-0.054025	0.369062	-0.541748	0.118408	-0.687256
1200.0	8.018527	0.420669	2.970022	-0.302483	-0.062723	0.372982	-0.543945	0.118164	-0.682617
1201.0	8.032971	0.201061	2.539567	-0.311424	0.071012	0.337336	-0.540039	0.129395	-0.692383
1202.0	7.847437	0.179367	2.596435	-0.296955	0.246499	0.284379	-0.537598	0.127197	-0.689941
1203.0	7.585316	-0.00616	2.964179	-0.384728	0.313177	0.247243	-0.540283	0.135986	-0.690186
1204.0	7.396018	-0.456035	3.040611	-0.445904	0.261031	0.191803	-0.533203	0.131592	-0.690186
1205.0	7.824528	-0.654628	2.910864	-0.32323	0.175964	0.131085	-0.535889	0.140381	-0.692627
1206.0	8.322018	-0.398198	2.774276	-0.141875	0.159058	0.07843	-0.535645	0.133789	-0.687744
1207.0	8.559888	-0.049151	2.585644	-0.125498	0.129979	0.05557	-0.533691	0.140381	-0.69043
1208.0	8.12738	-0.370239	2.352294	-0.292524	0.153137	0.004063	-0.535889	0.138184	-0.695068
1209.0	8.283731	-0.588066	2.237886	-0.281677	0.178324	-0.047183	-0.53833	0.144775	-0.695313
1210.0	8.204102	-0.363874	2.185297	-0.136805	0.186704	-0.079206	-0.533691	0.142578	-0.699707
1211.0	8.042632	-0.131776	2.051253	-0.154367	0.104233	-0.095602	-0.535889	0.138184	-0.697266
1212.0	7.987644	-0.294164	1.650085	-0.247291	-0.017027	-0.116486	-0.536133	0.146973	-0.70459
1213.0	8.033784	-0.356415	1.292545	-0.191773	-0.109023	-0.136474	-0.536133	0.146973	-0.695313
1214.0	8.00141	-0.381202	1.148812	-0.166163	-0.178678	-0.151367	-0.533691	0.140381	-0.699707
1215.0	8.136338	-0.30454	1.080939	-0.185253	-0.203116	-0.179143	-0.53833	0.146973	-0.695313
1216.0	8.304533	-0.166937	1.099394	-0.140924	-0.247872	-0.193972	-0.542725	0.140381	-0.692627
1217.0	8.371575	0.072266	1.00519	-0.026079	-0.332482	-0.199625	-0.542725	0.142578	-0.695068
1218.0	8.26345	0.292387	0.927817	0.031826	-0.452804	-0.189404	-0.54248	0.133789	-0.692383
1219.0	7.912937	0.277645	1.232866	-0.132663	-0.462615	-0.214301	-0.549316	0.135986	-0.68335
1220.0	7.498364	-0.249242	1.843746	-0.383373	-0.375027	-0.265448	-0.551514	0.138184	-0.687988
1221.0	7.587166	-0.819401	2.598642	-0.39702	-0.380891	-0.334753	-0.55835	0.138184	-0.69043
1222.0	8.038536	-1.085035	2.870095	-0.204838	-0.552929	-0.367656	-0.558105	0.133545	-0.683105
1223.0	9.047045	-1.074276	2.695155	-0.080316	-0.713013	-0.395949	-0.567383	0.137939	-0.67627
1224.0	10.295516	-1.096448	2.513382	-0.012089	-0.603969	-0.397447	-0.567139	0.133545	-0.678467
1225.0	10.492127	-1.216149	2.464555	0.08684	-0.339515	-0.37608	-0.566895	0.12915	-0.673828
1226.0	10.164455	-0.963247	2.487705	0.200807	-0.190633	-0.323904	-0.571289	0.124756	-0.673584
1227.0	10.173207	-0.320838	2.232402	0.236378	-0.219775	-0.237024	-0.571289	0.124756	-0.668945
1228.0	10.526429	0.261338	1.530207	0.202887	-0.282136	-0.123434	-0.568604	0.11377	-0.670898
1229.0	11.074967	0.528371	0.818882	0.148798	-0.290958	-0.001405	-0.578125	0.126953	-0.673584
1230.0	11.441485	0.618975	0.288741	0.130651	-0.241132	0.107944	-0.571045	0.120361	-0.668701
1231.0	11.907127	0.307281	0.260604	0.055056	-0.223651	0.210608	-0.575928	0.12915	-0.666748
1232.0	12.381007	-0.341063	0.926858	-0.013249	-0.172171	0.300251	-0.577881	0.118164	-0.670898
1233.0	12.939711	-0.385741	2.179637	0.100394	-0.125612	0.398618	-0.580566	0.131348	-0.666748
1234.0	13.440931	0.032493	2.635022	0.148733	-0.193094	0.495063	-0.578125	0.126953	-0.668945
1235.0	13.384329	0.723338	2.236698	0.15343	-0.15274	0.508698	-0.582764	0.131348	-0.666748
1236.0	12.747092	0.776689	2.866287	-0.187371	0.15272	0.522537	-0.578369	0.133545	-0.673828
1237.0	12.623098	0.116495	4.59454	-0.67693	0.345769	0.527318	-0.57666	0.144531	-0.676514
1238.0	12.197683	0.077091	5.76668	-0.36111	0.312552	0.493994	-0.572021	0.142334	-0.674316
1239.0	11.300797	1.752356	6.234475	0.219749	0.002732	0.448256	-0.572266	0.148926	-0.674561
1240.0	10.658323	2.414324	5.648373	-0.093723	-0.295706	0.401367	-0.579102	0.151123	-0.66748
1241.0	10.461378	0.998111	4.966619	-0.657713	-0.302308	0.356608	-0.574951	0.159912	-0.672607
1242.0	10.333869	-0.33953	5.131852	-0.646471	-0.107272	0.340368	-0.579346	0.15332	-0.672363
1243.0	10.589322	-1.292825	5.938413	-0.500411	0.126211	0.397081	-0.575195	0.166748	-0.675049
1244.0	10.797392	-1.071281	5.498801	0.008583	0.199385	0.388559	-0.572998	0.164551	-0.675049
1245.0	10.290399	0.349859	4.73846	0.567894	0.178862	0.375601	-0.570801	0.168945	-0.675293
1246.0	9.875536	0.71215	4.226704	0.196764	0.283714	0.403894	-0.570801	0.166748	-0.672852
1247.0	9.833942	-0.275147	3.849083	-0.218153	0.429499	0.416176	-0.568604	0.168945	-0.682129
1248.0	9.975867	-1.134573	4.244032	-0.142901	0.559399	0.409293	-0.562012	0.17334	-0.689209
1249.0	9.373128	-0.817503	4.389272	0.339145	0.681982	0.407756	-0.564453	0.175537	-0.69165
1250.0	9.080982	0.38961	4.856564	0.583311	0.735323	0.493485	-0.555176	0.171143	-0.693848
1251.0	10.014846	1.025367	5.508723	0.124246	0.567732	0.489705	-0.553467	0.182129	-0.698975
1252.0	10.418467	0.386224	5.313509	-0.204198	0.239723	0.337163	-0.551025	0.179932	-0.701172
1253.0	10.347995	0.018342	4.924224	0.075355	0.061027	0.185552	-0.555664	0.182129	-0.703613
1254.0	9.919224	0.479419	4.453456	0.400573	0.094487	0.025811	-0.555176	0.168945	-0.703125
1255.0	9.671414	1.264972	4.219738	0.5575	0.234291	-0.109013	-0.55542	0.175537	-0.708008
1256.0	9.74637	1.734882	4.317764	0.333277	0.128047	-0.238254	-0.54834	0.166748	-0.705322
1257.0	8.784583	1.170093	3.479259	0.101717	-5.4e-05	-0.327015	-0.554932	0.166748	-0.712402
1258.0	7.981036	0.875745	3.085631	0.240921	0.14505	-0.344958	-0.550049	0.157959	-0.709717
1259.0	7.274431	0.975676	3.131534	0.378758	0.324059	-0.317216	-0.55249	0.162354	-0.714355
1260.0	7.566611	0.679799	3.601567	0.135379	0.243734	-0.264168	-0.549805	0.151367	-0.707031
1261.0	7.943207	-0.225019	3.147904	-0.063899	0.099098	-0.280901	-0.550049	0.155762	-0.714111
1262.0	8.187999	-0.387888	2.845334	0.32473	0.198854	-0.274008	-0.54541	0.151367	-0.716309
1263.0	8.37099	0.4339	2.947299	0.513472	0.26722	-0.282739	-0.547363	0.146973	-0.718506
1264.0	8.371952	1.002575	2.961358	0.373652	0.256572	-0.254467	-0.54248	0.138184	-0.720459
1265.0	8.33572	1.09837	2.709183	0.221528	0.240897	-0.219802	-0.55127	0.131592	-0.724854
1266.0	8.440636	1.105529	2.659953	0.250163	0.268845	-0.185788	-0.544678	0.131592	-0.727295
1267.0	8.305491	1.279754	2.573941	0.285062	0.316531	-0.154196	-0.546875	0.131592	-0.731934
1268.0	8.11254	1.389832	2.679211	0.23944	0.309103	-0.113481	-0.544434	0.127197	-0.734131
1269.0	8.043578	1.252431	2.505417	0.118374	0.226413	-0.059059	-0.537842	0.131592	-0.731934
1270.0	8.039715	1.008546	2.243651	0.102539	0.18461	-0.009063	-0.5354	0.127197	-0.734131
1271.0	8.048919	0.95644	2.031939	0.148829	0.174053	0.033276	-0.544434	0.125	-0.733887
1272.0	7.990795	0.976765	1.833676	0.125875	0.153303	0.072914	-0.537598	0.122803	-0.738525
1273.0	8.04363	0.923653	1.734284	0.050693	0.130555	0.112732	-0.542236	0.129395	-0.743408
1274.0	8.159982	0.700225	1.48782	0.019358	0.128962	0.15088	-0.537354	0.120605	-0.743164
1275.0	8.132277	0.656138	1.287582	0.103146	0.161031	0.18271	-0.537598	0.127197	-0.745605
1276.0	8.305897	0.84382	1.298529	0.118996	0.158582	0.223956	-0.532715	0.118408	-0.74292
1277.0	8.137722	0.752223	1.185474	0.066238	0.100739	0.248278	-0.5354	0.127197	-0.752686
1278.0	7.77362	0.611865	1.180653	0.082263	0.042519	0.280054	-0.532959	0.122803	-0.750244
1279.0	7.577944	0.585622	1.401021	0.110907	-0.000323	0.332294	-0.5354	0.125	-0.747803
1280.0	7.673049	0.197494	1.810871	-0.004496	-0.129022	0.358463	-0.542236	0.127197	-0.750244
1281.0	7.76804	-0.401845	2.041521	0.02965	-0.284135	0.355267	-0.537842	0.133789	-0.748291
1282.0	7.842478	-0.316988	2.213781	0.353223	-0.376538	0.354473	-0.541992	0.125	-0.740967
1283.0	8.225718	0.289253	2.350247	0.48781	-0.444413	0.374482	-0.549072	0.131592	-0.748047
1284.0	9.020606	0.615304	2.136862	0.253307	-0.456751	0.409004	-0.548828	0.127197	-0.736328
1285.0	10.007743	0.630469	2.06692	0.135735	-0.354777	0.433518	-0.553467	0.129395	-0.740967
1286.0	10.345697	1.041093	2.35144	0.334149	-0.247874	0.447964	-0.55127	0.127197	-0.740967
1287.0	10.389342	1.7073	2.875621	0.488095	-0.273172	0.453514	-0.555664	0.127197	-0.73877
1288.0	10.588396	1.659301	2.766569	0.373591	-0.469588	0.429043	-0.555664	0.125	-0.745605
1289.0	11.15481	1.026908	1.985227	0.321964	-0.595176	0.359835	-0.566895	0.127197	-0.736328
1290.0	11.542858	0.792617	1.017254	0.438233	-0.530921	0.245953	-0.560059	0.122803	-0.731445
1291.0	11.755417	1.452428	0.259568	0.545674	-0.333446	0.112	-0.571289	0.125	-0.733887
1292.0	11.84793	2.987869	0.24526	0.468683	-0.096123	-0.0119	-0.568848	0.115967	-0.738281
1293.0	12.027663	4.513031	1.3578	0.036561	0.161704	-0.066674	-0.571045	0.115967	-0.740479
1294.0	12.76585	4.049656	3.135384	-0.79364	0.138735	-0.132943	-0.566406	0.11377	-0.738281
1295.0	13.175493	1.655179	3.387838	-1.172581	-0.143874	-0.227375	-0.571533	0.131592	-0.73877
1296.0	13.039925	-0.686534	2.784294	-0.819412	-0.134928	-0.31541	-0.564209	0.116211	-0.738281
1297.0	12.728381	-1.306633	3.529138	0.007496	0.27391	-0.418466	-0.571289	0.125	-0.745605
1298.0	11.632867	-0.808891	5.366612	0.374221	0.47665	-0.476586	-0.568359	0.107178	-0.742676
1299.0	10.695871	-1.555511	6.29124	-0.10556	0.05752	-0.472653	-0.571045	0.116211	-0.745117
1300.0	10.217272	-3.250621	5.549254	-0.418208	-0.372491	-0.455713	-0.572754	0.102783	-0.737793
1301.0	9.674607	-2.82451	4.938867	0.525814	-0.147503	-0.439743	-0.575195	0.10498	-0.737793
1302.0	8.495571	0.180113	5.8221	1.382656	0.145348	-0.456577	-0.57666	0.085205	-0.744141
1303.0	7.91	2.534725	6.623032	0.854681	-0.066254	-0.507238	-0.572266	0.091797	-0.744385
1304.0	8.592291	2.127787	6.129021	-0.147489	-0.24906	-0.507929	-0.57373	0.072021	-0.739014
1305.0	9.570835	1.229805	5.269043	0.005998	0.067927	-0.602703	-0.576172	0.076416	-0.741455
1306.0	9.691027	0.753524	5.61378	0.236981	0.337321	-0.68835	-0.571289	0.06543	-0.748047
1307.0	9.620889	0.111431	5.515602	-0.205212	0.273769	-0.767487	-0.578125	0.069824	-0.748047
1308.0	9.874486	-0.55346	4.957006	-0.3142	0.284475	-0.858184	-0.575439	0.058838	-0.75708
1309.0	9.940137	-0.273826	4.708759	-0.086799	0.487027	-0.910686	-0.570801	0.056641	-0.75
1310.0	11.80788	1.246568	5.630881	0.03139	0.59239	-0.829931	-0.567871	0.039063	-0.760986
1311.0	11.265312	0.976865	5.47826	-0.201095	0.279085	-0.613149	-0.563721	0.043457	-0.75415
1312.0	12.286645	0.747258	5.393059	-0.194842	-0.122903	-0.279286	-0.570313	0.043213	-0.751709
1313.0	12.203894	-0.109014	4.31196	0.015678	-0.367667	0.035599	-0.570557	0.050049	-0.754395
1314.0	11.37522	-0.70293	3.48449	0.142129	-0.228649	0.231126	-0.570068	0.036621	-0.753906
1315.0	10.128125	-1.123194	3.565351	0.044612	0.165094	0.302688	-0.577148	0.04541	-0.747314
1316.0	8.788093	-0.859026	4.366762	0.168936	0.34831	0.350986	-0.570557	0.04541	-0.749512
1317.0	7.930491	-0.259588	4.564229	0.192591	0.109277	0.38602	-0.57251	0.043213	-0.75415
1318.0	7.763406	0.054123	3.594026	-0.056439	-0.150634	0.395442	-0.572754	0.045654	-0.756592
1319.0	7.644123	0.127221	2.720096	-0.112267	0.005726	0.385105	-0.575195	0.050049	-0.756592
1320.0	7.175344	0.215069	2.696746	-0.136125	0.285622	0.349603	-0.568359	0.047852	-0.759033
1321.0	6.838905	0.249082	3.143738	-0.269241	0.397261	0.316103	-0.566406	0.056641	-0.756836
1322.0	6.935935	0.108416	3.4384	-0.332244	0.299498	0.308247	-0.566406	0.054443	-0.766113
1323.0	7.442473	0.093321	3.397141	-0.215244	0.146561	0.302946	-0.56665	0.063232	-0.759521
1324.0	7.396568	-0.058927	2.934811	-0.124259	0.137722	0.241973	-0.570801	0.054443	-0.768555
1325.0	7.88283	0.058589	2.87292	-0.109414	0.211834	0.178691	-0.568848	0.061035	-0.773438
1326.0	7.987158	-0.113752	2.782629	-0.210787	0.232634	0.114014	-0.564209	0.061035	-0.766357
1327.0	7.994845	-0.548937	2.775015	-0.311039	0.170606	0.051417	-0.564453	0.06543	-0.768799
1328.0	8.192316	-0.869349	2.595522	-0.243204	0.100805	-0.006148	-0.559814	0.061035	-0.76416
1329.0	8.135594	-0.797679	2.281851	-0.018359	0.066798	-0.057701	-0.566895	0.069824	-0.771484
1330.0	7.979042	-0.343355	2.078338	0.095639	0.033937	-0.093777	-0.561523	0.050049	-0.777588
1331.0	8.055852	-0.011186	1.721344	0.071511	-0.051404	-0.118344	-0.56665	0.061035	-0.773438
1332.0	8.134717	0.221544	1.361239	0.086624	-0.108652	-0.134369	-0.561523	0.047852	-0.772949
1333.0	8.199038	0.459068	1.13779	0.099754	-0.107707	-0.13507	-0.570801	0.056641	-0.773193
1334.0	8.092121	0.424431	1.051941	-0.042744	-0.097627	-0.143812	-0.559326	0.050049	-0.768311
1335.0	7.802281	0.098383	1.096048	-0.224835	-0.075155	-0.161461	-0.55957	0.056641	-0.766357
