Acquisition frequency: 100 Hz
PacketCounter	Acc_X	Acc_Y	Acc_Z	Gyr_X	Gyr_Y	Gyr_Z	Mag_X	Mag_Y	Mag_Z
0.0	9.504804	0.139573	3.263255	0.002347	-0.005994	-0.001226	-0.464111	0.09668	-0.670166
1.0	9.458477	0.177227	3.267807	0.004265	-0.005336	-0.00505	-0.459961	0.105469	-0.672852
2.0	9.473022	0.17689	3.286831	-0.006767	-0.010498	-0.006822	-0.462158	0.103271	-0.675049
3.0	9.468893	0.167363	3.3192	-0.006447	0.000788	-0.004399	-0.462158	0.103271	-0.665771
4.0	9.468934	0.167587	3.319072	-0.00385	-0.003661	-0.003952	-0.466797	0.103271	-0.67041
5.0	9.482653	0.122387	3.306998	-0.011006	-0.001658	-0.004766	-0.464355	0.098877	-0.665771
6.0	9.475214	0.100679	3.28119	-0.007656	-0.001086	-0.004161	-0.459961	0.103271	-0.668213
7.0	9.508687	0.153567	3.319685	-0.005945	0.004263	-0.005916	-0.462402	0.107666	-0.670654
8.0	9.478247	0.113127	3.340159	-0.008112	0.00206	-0.003766	-0.459961	0.103271	-0.67041
9.0	9.45393	0.124896	3.267789	-0.007906	-0.002632	-0.005836	-0.466797	0.103271	-0.668213
10.0	9.505463	0.142215	3.261221	-0.008864	-0.002961	-0.003924	-0.462158	0.103271	-0.67041
11.0	9.51977	0.141502	3.280961	-0.00859	0.002088	-0.005242	-0.462402	0.105469	-0.675293
12.0	9.519596	0.141622	3.281459	-0.010938	0.008081	-0.004014	-0.464355	0.101074	-0.675049
13.0	9.486414	0.133566	3.275623	-0.00638	0.010527	-0.003647	-0.466797	0.105469	-0.668213
14.0	9.48614	0.133804	3.276407	-0.006173	0.005836	-0.005718	-0.462158	0.103271	-0.672852
15.0	9.485939	0.13383	3.276987	-0.011192	0.006148	-0.000825	-0.462402	0.105469	-0.670654
16.0	9.485719	0.133736	3.277627	-0.00736	0.007079	-0.003608	-0.459961	0.101074	-0.675049
17.0	9.496662	0.120839	3.2394	-0.006908	0.003545	0.00086	-0.466797	0.105469	-0.670654
18.0	9.477984	0.111454	3.252734	-0.011694	0.002671	0.000689	-0.4646	0.103271	-0.672852
19.0	9.484793	0.088444	3.246874	-0.006223	-0.001175	0.000265	-0.464844	0.109863	-0.668457
20.0	9.463569	0.111708	3.233345	-0.0021	0.007535	0.002904	-0.466553	0.101074	-0.67041
21.0	9.505569	0.064328	3.261732	-0.002578	0.007565	0.001428	-0.462158	0.101074	-0.672852
22.0	9.484216	0.087912	3.248574	0.010324	0.006768	0.000502	-0.462158	0.101074	-0.668213
23.0	9.451102	0.079908	3.242534	0.012964	0.008554	0.004695	-0.462158	0.103271	-0.672852
24.0	9.439757	0.092712	3.281895	0.020826	0.004951	0.006788	-0.459961	0.103271	-0.67041
25.0	9.453241	0.167093	3.215215	0.035118	-0.002171	0.006548	-0.459961	0.105469	-0.668213
26.0	9.44546	0.192163	3.311887	0.027184	-0.008695	0.008564	-0.462158	0.098877	-0.672607
27.0	9.506074	0.10932	3.293719	0.020432	-0.01685	0.013337	-0.457764	0.105469	-0.672852
28.0	9.528939	0.083588	3.214417	0.037371	-0.021416	0.007558	-0.462402	0.105469	-0.668213
29.0	9.522548	0.106757	3.219039	0.0394	-0.004784	0.008222	-0.4646	0.103271	-0.67749
30.0	9.504672	0.142981	3.263491	0.053075	0.002546	0.009316	-0.462402	0.107666	-0.675293
31.0	9.460857	0.148419	3.294981	0.048192	-0.011572	0.011397	-0.459961	0.105469	-0.666016
32.0	9.516583	0.131008	3.222358	0.042099	-0.027563	0.013722	-0.457764	0.103271	-0.67041
33.0	9.531609	0.130193	3.239987	0.041942	-0.016251	0.014655	-0.462402	0.105469	-0.670654
34.0	9.511646	0.07906	3.311836	0.052064	-0.004802	0.017198	-0.464355	0.101074	-0.668213
35.0	9.498471	0.124911	3.322303	0.056251	-0.019897	0.011416	-0.459961	0.105469	-0.670654
36.0	9.496013	0.113405	3.261551	0.052849	-0.027094	0.011944	-0.462402	0.107666	-0.670654
37.0	9.496757	0.11415	3.259358	0.058893	-0.01774	0.010726	-0.459961	0.103271	-0.675049
38.0	9.432846	0.188254	3.307655	0.066399	-0.004967	0.01093	-0.459961	0.103271	-0.665771
39.0	9.407852	0.203376	3.325458	0.05675	-0.016075	0.005015	-0.457764	0.105469	-0.672852
40.0	9.466636	0.199003	3.311581	0.049822	-0.015642	0.004007	-0.4646	0.103271	-0.67041
41.0	9.469584	0.167962	3.337441	0.051786	-0.008754	0.0039	-0.4646	0.105469	-0.668213
42.0	9.45125	0.160659	3.349829	0.051333	-0.005238	-0.000583	-0.459961	0.105469	-0.67749
43.0	9.460134	0.181696	3.282794	0.055284	-0.019146	-0.001279	-0.455322	0.098877	-0.667969
44.0	9.505422	0.223291	3.280136	0.055535	-0.017601	0.000385	-0.461914	0.09668	-0.66333
45.0	9.501768	0.215481	3.311266	0.046693	-0.017437	-0.001654	-0.464111	0.096436	-0.665527
46.0	9.558771	0.288818	3.301269	0.056741	-0.015374	-0.004735	-0.4646	0.103271	-0.67041
47.0	9.539743	0.237734	3.282151	0.05825	-0.004973	-0.009339	-0.462158	0.101074	-0.67041
48.0	9.586144	0.203098	3.277308	0.041853	0.006977	-0.012958	-0.459717	0.094482	-0.667969
49.0	9.592258	0.183033	3.273422	0.047066	0.032374	-0.012752	-0.466553	0.098877	-0.67041
50.0	9.552068	0.245203	3.307134	0.054318	0.043229	-0.009394	-0.453125	0.101074	-0.67041
51.0	9.539392	0.260786	3.350267	0.035049	0.054225	-0.007282	-0.462158	0.098877	-0.67041
52.0	9.546735	0.207478	3.377444	0.021976	0.063248	-0.007314	-0.462158	0.098877	-0.672607
53.0	9.473657	0.256865	3.315956	0.020839	0.071116	-0.006377	-0.459717	0.098877	-0.667969
54.0	9.449994	0.281428	3.309037	0.013757	0.082865	-0.006514	-0.459961	0.101074	-0.67041
55.0	9.449557	0.250081	3.344583	-0.011981	0.091498	-0.010689	-0.461914	0.09668	-0.672607
56.0	9.572947	0.228896	3.381986	-0.032052	0.091206	-0.01245	-0.455566	0.103271	-0.67041
57.0	9.558811	0.149645	3.276088	-0.020793	0.09512	-0.015768	-0.45752	0.098877	-0.67041
58.0	9.512611	0.107912	3.19431	-0.011985	0.089044	-0.022285	-0.462158	0.103271	-0.672852
59.0	9.472512	0.211589	3.172654	0.006229	0.093238	-0.034302	-0.459961	0.101074	-0.67749
60.0	9.510381	0.33526	3.276215	0.002453	0.099282	-0.03756	-0.452881	0.09668	-0.670166
61.0	9.524385	0.350491	3.362607	-0.028314	0.070853	-0.038012	-0.464355	0.09668	-0.677246
62.0	9.496276	0.277267	3.323932	-0.028813	0.030002	-0.037561	-0.457764	0.101074	-0.672852
63.0	9.455272	0.249654	3.294042	-0.02456	0.021151	-0.039552	-0.460205	0.105469	-0.68457
64.0	9.38589	0.222929	3.22477	-0.062912	0.038721	-0.042429	-0.459961	0.101074	-0.67041
65.0	9.339797	0.184901	3.229579	-0.061415	0.051861	-0.040324	-0.459961	0.105469	-0.672852
66.0	9.209665	0.240091	3.176776	-0.058205	0.029479	-0.038092	-0.457764	0.101074	-0.672852
67.0	9.228059	0.220756	3.284337	-0.07721	0.010834	-0.031831	-0.462158	0.098877	-0.677246
68.0	9.281379	0.132367	3.39487	-0.046293	0.031106	-0.030335	-0.455322	0.101074	-0.67749
69.0	9.287361	0.275442	3.367434	0.015335	0.032395	-0.025257	-0.45752	0.09668	-0.679443
70.0	9.220737	0.364584	3.148823	-0.016425	-0.009609	-0.021586	-0.455322	0.101074	-0.675049
71.0	9.246603	0.21706	3.03426	-0.08061	-0.041093	-0.021576	-0.457764	0.105469	-0.67749
72.0	9.368977	0.096959	3.03134	-0.070917	-0.019164	-0.029536	-0.453125	0.101074	-0.672852
73.0	9.309019	0.106056	3.133038	-0.050789	-0.008731	-0.031861	-0.459717	0.098877	-0.675049
74.0	9.310558	-0.056476	3.15309	-0.075944	-0.084688	-0.037735	-0.453125	0.103271	-0.668213
75.0	9.542372	-0.011378	3.042344	-0.048138	-0.12025	-0.037799	-0.464355	0.098877	-0.675049
76.0	9.612875	0.304083	3.025477	0.023031	-0.075515	-0.043952	-0.464355	0.101074	-0.675049
77.0	9.544632	0.37187	3.10237	-0.005194	-0.026375	-0.052502	-0.462158	0.101074	-0.672852
78.0	9.572576	0.25773	3.286651	-0.052286	-0.024329	-0.045556	-0.462158	0.101074	-0.67041
79.0	9.660094	0.209121	3.280218	-0.021538	-0.0374	-0.033482	-0.462158	0.101074	-0.67041
80.0	9.691557	0.251983	3.255993	-0.00512	-0.046881	-0.018218	-0.459961	0.103271	-0.67041
81.0	9.780811	0.171822	3.366084	-0.017816	-0.048433	-0.007776	-0.462158	0.103271	-0.67749
82.0	9.89551	0.12142	3.490006	-0.012264	-0.020675	0.005602	-0.457764	0.103271	-0.67041
83.0	9.816914	0.118884	3.606696	0.018454	0.029748	0.01921	-0.464355	0.098877	-0.67041
84.0	9.71536	0.050385	3.650092	0.036919	0.053986	0.024949	-0.455566	0.105469	-0.668213
85.0	9.641336	-0.064428	3.703367	0.029046	0.063425	0.03142	-0.461914	0.09668	-0.670166
86.0	9.563892	-0.101967	3.763146	0.066918	0.099711	0.033526	-0.457764	0.105469	-0.67749
87.0	9.447307	-0.036981	3.796319	0.106454	0.131572	0.033134	-0.455322	0.101074	-0.668213
88.0	9.378853	-0.010532	3.734681	0.129118	0.127448	0.035404	-0.459961	0.101074	-0.668213
89.0	9.382939	0.084742	3.593443	0.154885	0.122338	0.036632	-0.45752	0.101074	-0.665771
90.0	9.401718	0.224719	3.502684	0.169942	0.120548	0.031716	-0.457764	0.101074	-0.67041
91.0	9.439789	0.299761	3.485583	0.154613	0.111292	0.029325	-0.453125	0.101074	-0.684326
92.0	9.450477	0.420231	3.457919	0.145168	0.088117	0.032247	-0.457764	0.101074	-0.675049
93.0	9.529841	0.553327	3.351068	0.120987	0.072438	0.028947	-0.45752	0.09668	-0.679443
94.0	9.497239	0.632166	3.321044	0.087558	0.076043	0.028271	-0.45752	0.09668	-0.672607
95.0	9.487767	0.65451	3.333625	0.048653	0.083509	0.027941	-0.455322	0.09668	-0.674805
96.0	9.410445	0.57242	3.361185	0.000811	0.065097	0.025362	-0.45752	0.098877	-0.672607
97.0	9.355047	0.539787	3.313858	-0.027169	0.045795	0.018134	-0.457275	0.094482	-0.677246
98.0	9.321129	0.483921	3.279662	-0.052462	0.032127	0.007193	-0.455566	0.105469	-0.675293
99.0	9.327265	0.368905	3.215384	-0.086532	0.025199	-0.007062	-0.455078	0.092285	-0.674805
100.0	9.302982	0.259049	3.201613	-0.092429	0.020021	-0.018602	-0.450928	0.101074	-0.67749
101.0	9.288155	0.14015	3.239563	-0.094325	0.004111	-0.028889	-0.455322	0.098877	-0.679688
102.0	9.328079	0.080802	3.209902	-0.098398	-0.013977	-0.037033	-0.453125	0.101074	-0.67749
103.0	9.337971	-0.018465	3.198892	-0.094354	-0.024374	-0.040664	-0.453369	0.105469	-0.672852
104.0	9.362172	-0.16265	3.17607	-0.081452	-0.025188	-0.041496	-0.453125	0.101074	-0.67041
105.0	9.360715	-0.247547	3.202173	-0.053775	-0.033108	-0.040931	-0.455566	0.103271	-0.67749
106.0	9.36183	-0.244818	3.199124	-0.020776	-0.030083	-0.042869	-0.455322	0.101074	-0.67041
107.0	9.381553	-0.232426	3.183686	0.006889	-0.025499	-0.034898	-0.457764	0.101074	-0.67749
108.0	9.396212	-0.184523	3.232708	0.030282	-0.02145	-0.030518	-0.455322	0.101074	-0.675049
109.0	9.467103	-0.10964	3.243058	0.044047	-0.029232	-0.022356	-0.459961	0.105469	-0.672852
110.0	9.538347	-0.035172	3.252181	0.047758	-0.045351	-0.014905	-0.455566	0.103271	-0.675049
111.0	9.602951	0.016396	3.234718	0.044573	-0.048216	-0.005979	-0.459961	0.103271	-0.679688
112.0	9.618456	0.017561	3.250243	0.049776	-0.044591	0.002412	-0.45752	0.098877	-0.667969
113.0	9.664288	0.058827	3.245653	0.05522	-0.04566	0.008765	-0.462158	0.098877	-0.675049
114.0	9.665816	0.104106	3.271908	0.046294	-0.052838	0.017564	-0.453125	0.103271	-0.67041
115.0	9.704865	0.121743	3.241186	0.060127	-0.047421	0.023365	-0.457764	0.103271	-0.675049
116.0	9.690007	0.080354	3.277167	0.065871	-0.039988	0.025332	-0.45752	0.09668	-0.672607
117.0	9.672704	0.115921	3.316972	0.077036	-0.043343	0.032975	-0.45752	0.098877	-0.675049
118.0	9.652938	0.138531	3.298704	0.089233	-0.033188	0.036347	-0.455322	0.098877	-0.677246
119.0	9.628208	0.196904	3.345364	0.095013	-0.019163	0.037116	-0.457764	0.101074	-0.672852
120.0	9.575032	0.210979	3.322083	0.085454	-0.014663	0.040429	-0.457764	0.101074	-0.67041
121.0	9.533446	0.301428	3.322662	0.087159	-0.006226	0.040461	-0.457764	0.101074	-0.672852
122.0	9.512785	0.368191	3.338249	0.064936	-0.002466	0.044463	-0.455322	0.098877	-0.672607
123.0	9.473372	0.380364	3.336029	0.059651	-0.006796	0.04583	-0.45752	0.098877	-0.675049
124.0	9.455122	0.368967	3.348059	0.043872	-0.009693	0.045724	-0.45752	0.098877	-0.677246
125.0	9.443984	0.334257	3.354293	0.031163	-0.017038	0.047607	-0.457764	0.101074	-0.672852
126.0	9.432709	0.253944	3.329621	0.021138	-0.015622	0.047608	-0.45752	0.098877	-0.672607
127.0	9.440174	0.227354	3.323001	0.016401	-0.009889	0.046233	-0.462158	0.101074	-0.679688
128.0	9.403232	0.206076	3.347962	0.009474	-0.01259	0.043354	-0.457764	0.101074	-0.67041
129.0	9.417555	0.156918	3.335983	0.000908	-0.013672	0.036219	-0.453125	0.101074	-0.67041
130.0	9.359722	0.159362	3.346029	-0.000539	-0.017097	0.034816	-0.457764	0.103271	-0.672852
131.0	9.355568	0.146853	3.377839	-0.001917	-0.007659	0.035889	-0.45752	0.098877	-0.672607
132.0	9.34416	0.112127	3.384449	0.001634	-0.014933	0.032646	-0.455566	0.105469	-0.672852
133.0	9.377309	0.072598	3.358821	0.009953	-0.024484	0.027742	-0.459961	0.101074	-0.682129
134.0	9.366799	0.084236	3.394516	0.024233	-0.031654	0.027622	-0.45752	0.098877	-0.67041
135.0	9.38629	0.046181	3.347581	0.020163	-0.036899	0.022043	-0.459961	0.103271	-0.672852
136.0	9.415466	-0.001242	3.35294	0.023211	-0.044499	0.022189	-0.459961	0.103271	-0.67041
137.0	9.487033	0.023411	3.329882	0.038577	-0.035039	0.019586	-0.45752	0.098877	-0.658691
138.0	9.486192	0.099985	3.330145	0.050362	-0.021771	0.023255	-0.464355	0.101074	-0.675049
139.0	9.515268	0.098828	3.36765	0.054884	-0.02562	0.019931	-0.459717	0.098877	-0.67041
140.0	9.504297	0.139981	3.284645	0.05416	-0.024368	0.023496	-0.455566	0.103271	-0.67041
141.0	9.51018	0.193751	3.279852	0.054403	-0.022814	0.025146	-0.459961	0.101074	-0.675049
142.0	9.529623	0.201883	3.264599	0.051097	-0.019917	0.021504	-0.457764	0.103271	-0.672852
143.0	9.523539	0.224103	3.267846	0.045819	-0.021084	0.024727	-0.4646	0.105469	-0.672852
144.0	9.526492	0.191353	3.293596	0.04202	-0.018499	0.024476	-0.462158	0.101074	-0.665771
145.0	9.512943	0.190962	3.271992	0.04754	-0.015782	0.022898	-0.462158	0.103271	-0.672852
146.0	9.538901	0.175857	3.25222	0.038979	-0.010903	0.024313	-0.45752	0.098877	-0.667969
147.0	9.546793	0.197204	3.275954	0.040825	-0.017234	0.026562	-0.45752	0.098877	-0.665771
148.0	9.51228	0.219653	3.23981	0.042036	-0.015377	0.026296	-0.462158	0.098877	-0.67041
149.0	9.519572	0.195484	3.233089	0.032019	-0.013915	0.026324	-0.459717	0.09668	-0.670166
150.0	9.5266	0.171207	3.227123	0.037873	0.0001	0.027002	-0.4646	0.103271	-0.67041
151.0	9.477945	0.166889	3.291748	0.044092	0.001221	0.02672	-0.453369	0.105469	-0.670654
152.0	9.496752	0.174266	3.278328	0.036637	-0.004906	0.025439	-0.4646	0.103271	-0.668213
153.0	9.515592	0.181651	3.264814	0.042407	-0.000635	0.025504	-0.464355	0.101074	-0.67041
154.0	9.457924	0.232329	3.307033	0.04034	0.007266	0.023417	-0.45752	0.098877	-0.67041
155.0	9.464516	0.208571	3.302281	0.028144	0.003764	0.018939	-0.459961	0.105469	-0.658936
156.0	9.455603	0.262084	3.2797	0.025225	-0.000262	0.022862	-0.464355	0.101074	-0.67041
157.0	9.455566	0.260906	3.279901	0.021004	0.005805	0.018088	-0.464355	0.101074	-0.67041
158.0	9.417972	0.243045	3.306822	0.014581	0.006579	0.013675	-0.459717	0.098877	-0.667969
159.0	9.424504	0.219378	3.30221	0.010762	0.006037	0.011602	-0.466553	0.098877	-0.667969
160.0	9.445236	0.195588	3.31736	0.004315	0.003671	0.005369	-0.45752	0.098877	-0.667969
161.0	9.44438	0.149726	3.28746	0.002878	0.003389	0.005809	-0.462158	0.101074	-0.665771
162.0	9.489187	0.18852	3.286436	0.002856	0.003073	0.010675	-0.459961	0.103271	-0.67041
163.0	9.516608	0.141476	3.296456	-0.003541	0.00699	0.008083	-0.462158	0.098877	-0.67041
164.0	9.481323	0.164222	3.262649	0.002928	0.00967	0.009449	-0.459961	0.101074	-0.663574
165.0	9.49809	0.176805	3.341522	0.006969	0.008634	0.01135	-0.466553	0.101074	-0.67041
166.0	9.492591	0.121578	3.344895	-1.9e-05	0.002508	0.011554	-0.457764	0.105469	-0.672852
167.0	9.503676	0.106512	3.307218	0.012224	0.009454	0.012984	-0.462158	0.103271	-0.672852
168.0	9.524143	0.082676	3.323057	0.020402	0.014295	0.010692	-0.4646	0.103271	-0.668213
169.0	9.523823	0.082136	3.323986	0.018147	0.005546	0.014101	-0.462158	0.101074	-0.67041
170.0	9.498184	0.096087	3.342946	0.032497	0.008039	0.014576	-0.464355	0.098877	-0.667969
171.0	9.47618	0.073722	3.299139	0.031407	0.016233	0.010565	-0.459961	0.103271	-0.675049
172.0	9.42928	0.111457	3.304542	0.03577	0.023356	0.012882	-0.459961	0.101074	-0.668213
173.0	9.431451	0.125547	3.364574	0.043847	0.018449	0.010002	-0.457764	0.103271	-0.675049
174.0	9.447665	0.165924	3.324718	0.034203	0.01019	0.010916	-0.466553	0.101074	-0.672852
175.0	9.47814	0.20563	3.304451	0.025629	0.011963	0.010499	-0.45752	0.101074	-0.665771
176.0	9.463554	0.206115	3.285836	0.03143	0.016533	0.00569	-0.462402	0.105469	-0.670654
177.0	9.491447	0.205685	3.326694	0.022949	0.006683	0.009391	-0.460205	0.107666	-0.666016
178.0	9.488413	0.191555	3.269224	0.016035	0.007162	0.008364	-0.457764	0.103271	-0.668213
179.0	9.516373	0.190667	3.309907	0.01346	0.011621	0.007835	-0.459961	0.103271	-0.668213
180.0	9.464474	0.173524	3.31712	0.003096	0.004649	0.012315	-0.455322	0.098877	-0.672607
181.0	9.522656	0.16609	3.306037	0.004063	0.004938	0.0104	-0.459961	0.101074	-0.67041
182.0	9.461372	0.15781	3.259957	0.005501	0.005216	0.009961	-0.462158	0.103271	-0.672852
183.0	9.496246	0.133504	3.294846	-0.000303	-0.002184	0.008088	-0.459961	0.101074	-0.668213
184.0	9.475505	0.156164	3.279903	0.001411	-3e-05	0.004428	-0.459961	0.101074	-0.668213
185.0	9.482167	0.132794	3.27485	-0.005503	0.000451	0.0034	-0.4646	0.103271	-0.668213
186.0	9.48889	0.109233	3.26962	-8.1e-05	-0.003761	0.007919	-0.459961	0.103271	-0.672852
187.0	9.487002	0.140337	3.241249	-0.001962	-0.00372	0.002016	-0.459961	0.103271	-0.672852
188.0	9.474995	0.108582	3.249077	-0.000773	-0.002175	0.006612	-0.464355	0.101074	-0.672852
189.0	9.479688	0.116488	3.215866	-0.009345	-0.000394	0.006193	-0.4646	0.103271	-0.672852
190.0	9.463736	0.121224	3.287183	-0.010037	0.001192	0.004886	-0.4646	0.105469	-0.670654
191.0	9.507896	0.114236	3.255863	-0.010037	0.001192	0.004886	-0.462158	0.101074	-0.668213
192.0	9.536157	0.112517	3.295684	-0.014627	-0.00152	0.009424	-0.455566	0.105469	-0.663574
193.0	9.566257	0.105442	3.244275	-0.016259	8.7e-05	0.005166	-0.462402	0.107666	-0.673096
194.0	9.514612	0.08798	3.250692	-0.012221	-0.000954	0.00707	-0.45752	0.098877	-0.667969
195.0	9.540128	0.07241	3.232165	-0.015595	-0.004642	0.004656	-0.462158	0.098877	-0.67041
196.0	9.488423	0.055101	3.238739	-0.012831	0.007228	0.004528	-0.4646	0.107666	-0.663818
197.0	9.45821	0.059927	3.290541	-0.014102	0.001919	0.007847	-0.4646	0.107666	-0.668457
198.0	9.483586	0.044263	3.272404	-0.011005	0.0009	0.0068	-0.459961	0.105469	-0.670654
199.0	9.444872	0.103716	3.300938	-0.007438	-0.000131	0.007229	-0.466797	0.105469	-0.668213
200.0	9.491115	0.064742	3.297318	-0.014407	-0.003101	0.009251	-0.462402	0.107666	-0.668457
201.0	9.489183	0.095377	3.269204	-0.008379	-0.000108	0.004277	-0.457764	0.105469	-0.679932
202.0	9.475042	0.095038	3.249365	-0.0086	0.001468	0.004447	-0.467041	0.107666	-0.670654
203.0	9.456291	0.085934	3.262483	-0.01485	-0.002776	0.002909	-0.462402	0.107666	-0.673096
204.0	9.439539	0.045095	3.303519	-0.013384	0.000643	0.004287	-0.459961	0.105469	-0.672852
205.0	9.425513	0.044647	3.283341	-0.017754	-0.006475	0.001968	-0.464844	0.109863	-0.666016
206.0	9.459725	-0.025349	3.287358	-0.024889	-0.004415	0.001111	-0.457764	0.105469	-0.668213
207.0	9.465419	0.028124	3.283905	-0.012749	-0.007228	0.001957	-0.462402	0.105469	-0.666016
208.0	9.497824	-0.00991	3.259422	-0.009737	-0.014843	0.002139	-0.460205	0.107666	-0.675293
209.0	9.510308	0.020972	3.250385	-0.008436	-0.006391	0.000642	-0.459961	0.103271	-0.672852
210.0	9.503899	0.043663	3.254873	-0.005339	-0.007409	-0.000407	-0.4646	0.105469	-0.663574
211.0	9.521002	0.083567	3.21281	-0.009461	-0.012964	-0.001081	-0.462402	0.109863	-0.666016
212.0	9.521422	0.083297	3.211573	-0.02163	-0.013292	-0.003743	-0.462402	0.105469	-0.670654
213.0	9.497576	0.020248	3.22637	-0.019251	-0.013039	-0.00123	-0.467041	0.112061	-0.66626
214.0	9.51761	0.07386	3.242257	-0.010624	-0.011363	-0.003863	-0.460449	0.114258	-0.670898
215.0	9.510574	0.051371	3.2158	-0.013087	-0.018216	-0.005149	-0.460205	0.107666	-0.661377
216.0	9.522425	0.037383	3.175764	-0.013337	-0.01978	-0.006797	-0.466797	0.105469	-0.670654
217.0	9.530625	0.060051	3.198782	-0.013862	-0.023227	-0.005227	-0.468994	0.105469	-0.670654
218.0	9.55004	0.068476	3.183619	-0.014525	-0.018498	-0.004711	-0.460205	0.107666	-0.663818
219.0	9.518708	0.105769	3.205122	-0.021523	-0.024616	-0.004509	-0.462402	0.107666	-0.666016
220.0	9.503267	0.137388	3.155067	-0.027023	-0.024175	-0.001105	-0.455566	0.107666	-0.666016
221.0	9.531505	0.090306	3.162164	-0.033024	-0.026861	-0.000997	-0.469238	0.107666	-0.668457
222.0	9.528655	0.125741	3.223147	-0.041348	-0.023523	0.000243	-0.464844	0.109863	-0.666016
223.0	9.520981	0.056338	3.165437	-0.046878	-0.026227	0.001825	-0.467041	0.112061	-0.668457
224.0	9.554731	0.063037	3.169628	-0.040415	-0.026375	-0.0035	-0.462402	0.109863	-0.668457
225.0	9.503827	0.045457	3.173935	-0.043701	-0.020649	-0.00045	-0.467041	0.109863	-0.666016
226.0	9.544153	0.029391	3.173027	-0.043544	-0.028506	-0.004277	-0.458252	0.116455	-0.664063
227.0	9.51871	-0.002751	3.158544	-0.042094	-0.025417	0.001972	-0.467041	0.112061	-0.66626
228.0	9.49409	0.010457	3.174841	-0.032475	-0.020295	-0.000757	-0.462402	0.107666	-0.668457
229.0	9.529861	-0.014454	3.207073	-0.034214	-0.025607	0.001069	-0.462402	0.109863	-0.663818
230.0	9.546282	-0.020472	3.133286	-0.030377	-0.024748	-0.001728	-0.467285	0.114258	-0.664063
231.0	9.56122	-0.021804	3.150933	-0.026997	-0.021065	0.000694	-0.469238	0.112061	-0.663818
232.0	9.515673	0.015306	3.15303	-0.021943	-0.018344	-0.002365	-0.469238	0.112061	-0.661621
233.0	9.517137	0.060001	3.182063	-0.02044	-0.011789	0.000852	-0.469238	0.107666	-0.661377
234.0	9.503316	0.059815	3.161021	-0.024042	-0.013898	-0.001395	-0.469482	0.114258	-0.66626
235.0	9.501643	0.09071	3.131902	-0.03554	-0.016161	0.002126	-0.464844	0.112061	-0.66626
236.0	9.516293	0.089024	3.150503	-0.030453	-0.010302	0.000897	-0.462891	0.116455	-0.66626
237.0	9.532989	0.055583	3.197126	-0.032586	-0.008993	4e-05	-0.469238	0.112061	-0.668457
238.0	9.539973	0.031521	3.190693	-0.032413	-0.014043	0.002893	-0.469482	0.116455	-0.652344
239.0	9.546996	0.007449	3.184118	-0.028322	-0.011618	0.00175	-0.465088	0.116455	-0.66626
240.0	9.586855	-0.008407	3.184438	-0.026364	-0.007882	-0.000248	-0.465088	0.116455	-0.659424
241.0	9.535408	-0.025477	3.190473	-0.021532	-0.003578	-0.003126	-0.467041	0.112061	-0.663818
242.0	9.538645	-0.012533	3.248537	-0.017186	0.000408	-0.002614	-0.467285	0.116455	-0.661621
243.0	9.549782	-0.026823	3.209904	-0.020362	-0.005192	-0.000357	-0.469482	0.114258	-0.668701
244.0	9.508193	0.019694	3.180646	-0.00839	-0.002941	-0.002403	-0.464844	0.112061	-0.663818
245.0	9.494988	0.065414	3.191356	-0.00022	0.001577	0.00018	-0.469482	0.114258	-0.66626
246.0	9.494931	0.065202	3.191529	-0.006189	0.002018	0.00212	-0.465088	0.118652	-0.668701
247.0	9.44674	0.012166	3.134463	-0.005053	-0.00273	0.003055	-0.464844	0.114258	-0.659424
248.0	9.512693	0.027665	3.14747	-0.001704	-0.002181	0.00365	-0.467285	0.114258	-0.664063
249.0	9.491971	0.050605	3.132634	-0.007486	-0.006451	0.003576	-0.467041	0.112061	-0.65918
250.0	9.531648	0.035329	3.133478	-0.010048	-0.001648	-0.001784	-0.462646	0.112061	-0.66626
251.0	9.517335	0.03574	3.113859	-0.004231	0.005757	0.000125	-0.467529	0.12085	-0.666504
252.0	9.570961	0.020099	3.135426	-0.00758	0.005208	-0.00047	-0.460449	0.114258	-0.659424
253.0	9.544548	-0.010785	3.123671	0.001437	0.000284	-0.00044	-0.467285	0.116455	-0.66626
254.0	9.564224	0.043102	3.141202	0.002179	0.002163	-0.002175	-0.469482	0.116455	-0.661621
255.0	9.591546	-0.002918	3.150677	0.002955	0.007177	-0.002075	-0.476318	0.118652	-0.664063
256.0	9.568376	0.052888	3.10908	0.011972	0.002253	-0.002045	-0.462891	0.116455	-0.66626
257.0	9.554088	0.053767	3.089389	0.014092	0.000602	0.003674	-0.469482	0.116455	-0.66626
258.0	9.535427	0.045345	3.102486	0.00379	-0.002604	0.000235	-0.464844	0.112061	-0.65918
259.0	9.537548	0.013464	3.130244	0.013431	0.005331	0.004213	-0.467285	0.116455	-0.664063
260.0	9.52313	0.01418	3.110957	0.01583	0.005917	0.001858	-0.469482	0.116455	-0.659424
261.0	9.543878	-0.008935	3.125723	0.015054	0.000903	0.00176	-0.467285	0.114258	-0.661621
262.0	9.529657	-0.008192	3.105837	0.016444	-0.002287	0.00435	-0.464844	0.112061	-0.65918
263.0	9.567068	0.008961	3.07937	0.026271	0.000935	0.006313	-0.465088	0.116455	-0.661621
264.0	9.593346	0.039934	3.091514	0.026525	0.002493	0.007965	-0.460449	0.116455	-0.66626
265.0	9.560426	0.031767	3.084844	0.022387	-0.003406	0.012139	-0.467285	0.114258	-0.661621
266.0	9.579239	0.039965	3.07128	0.028355	-0.003853	0.010198	-0.462646	0.114258	-0.66626
267.0	9.535238	0.045422	3.103067	0.022235	0.004441	0.015978	-0.467285	0.118652	-0.668701
268.0	9.511963	0.027221	3.149679	0.025329	0.003428	0.014919	-0.471924	0.118652	-0.661865
269.0	9.491049	0.050087	3.135436	0.025074	0.001867	0.013266	-0.464844	0.112061	-0.65918
270.0	9.526132	0.025643	3.16973	0.020727	-0.002117	0.012756	-0.469482	0.114258	-0.66626
271.0	9.549367	0.042635	3.123265	0.019778	-0.002084	0.009807	-0.467041	0.112061	-0.65918
272.0	9.575705	0.073294	3.135261	0.024868	0.003773	0.008576	-0.469238	0.112061	-0.656982
273.0	9.536058	0.088257	3.134328	0.026305	0.004054	0.008135	-0.462646	0.116455	-0.661621
274.0	9.510709	0.102556	3.153048	0.014077	0.000258	0.008534	-0.464844	0.114258	-0.659424
275.0	9.491071	0.048515	3.135395	0.015393	-0.009205	0.007472	-0.467041	0.112061	-0.661621
276.0	9.480102	0.062377	3.17352	0.008171	0.00451	0.002573	-0.462646	0.114258	-0.661621
277.0	9.505267	0.047977	3.155353	0.009828	0.003214	0.001955	-0.469482	0.116455	-0.664063
278.0	9.479984	0.062641	3.173868	0.008793	-0.003359	0.000215	-0.467285	0.116455	-0.659424
279.0	9.542814	0.065425	3.128488	0.008063	-0.004903	-0.002911	-0.469482	0.116455	-0.66626
280.0	9.568119	0.051571	3.109893	0.009366	0.003561	-0.004384	-0.469238	0.112061	-0.661621
281.0	9.574643	0.029394	3.104759	0.017197	-9.6e-05	-0.002254	-0.47168	0.116455	-0.656982
282.0	9.572562	0.062018	3.076878	0.013592	-0.002203	-0.004498	-0.467041	0.109863	-0.65918
283.0	9.564841	0.040199	3.051949	0.006528	0.006136	-0.001676	-0.462891	0.118652	-0.661865
284.0	9.539305	0.055228	3.071228	0.008014	0.009884	-0.005155	-0.465088	0.118652	-0.666504
285.0	9.515838	0.038395	3.1184	0.00274	0.008744	-0.001917	-0.47168	0.112061	-0.661621
286.0	9.515563	0.038872	3.119234	0.012057	0.008836	-0.003264	-0.464844	0.114258	-0.659424
287.0	9.534079	0.047871	3.106589	0.010315	0.003527	-0.001436	-0.465088	0.116455	-0.661621
288.0	9.531632	0.007589	3.167674	0.009098	0.001669	-0.001171	-0.460449	0.114258	-0.66626
289.0	9.515271	0.040358	3.120104	0.014322	-0.000659	-0.001371	-0.467041	0.112061	-0.65918
290.0	9.554758	0.02573	3.121563	0.011738	0.003479	0.002987	-0.467285	0.116455	-0.659424
291.0	9.540408	0.02649	3.10209	0.013664	0.004072	-0.000844	-0.471924	0.118652	-0.657227
292.0	9.510509	0.0325	3.154018	0.012701	0.003775	0.001071	-0.47168	0.116455	-0.659424
293.0	9.522461	0.064148	3.146564	0.013699	0.00721	0.000981	-0.467285	0.118652	-0.661865
294.0	9.522177	0.064487	3.147417	0.016609	0.010909	0.001924	-0.462891	0.118652	-0.659424
295.0	9.547152	0.050485	3.129915	0.019228	0.009907	-0.000608	-0.467285	0.116455	-0.656982
296.0	9.548879	0.019496	3.15885	0.021189	0.013636	-0.002615	-0.464844	0.112061	-0.663818
297.0	9.579368	0.059782	3.138709	0.026603	0.009079	0.006741	-0.469238	0.112061	-0.661621
298.0	9.546109	0.052047	3.133067	0.02043	0.011437	0.003989	-0.469482	0.114258	-0.656982
299.0	9.545724	0.052276	3.134236	0.022121	0.013278	0.005196	-0.467285	0.116455	-0.659424
300.0	9.526568	0.043898	3.148781	0.021412	0.014545	0.00876	-0.465088	0.118652	-0.661865
301.0	9.551459	0.029192	3.131613	0.018283	0.012422	0.007992	-0.464844	0.114258	-0.66626
302.0	9.518104	0.021015	3.126261	0.019974	0.014264	0.009199	-0.464844	0.112061	-0.663818
303.0	9.545036	-0.025287	3.137047	0.02738	0.014082	0.006822	-0.467285	0.118652	-0.664063
304.0	9.510658	0.044164	3.134087	0.030947	0.013047	0.007241	-0.464844	0.112061	-0.65918
305.0	9.498089	0.01321	3.143376	0.023085	0.013563	0.003277	-0.47168	0.116455	-0.668701
306.0	9.549288	0.03007	3.138219	0.032437	0.016783	0.003754	-0.465088	0.116455	-0.659424
307.0	9.515747	0.022846	3.133417	0.032743	0.021805	0.002355	-0.469238	0.112061	-0.661621
308.0	9.56221	0.031134	3.161922	0.035345	0.020477	0.004691	-0.462891	0.118652	-0.659424
309.0	9.554059	0.009243	3.138546	0.036694	0.014152	0.005477	-0.469238	0.112061	-0.663818
310.0	9.534729	0.001536	3.153534	0.040382	0.022856	0.006486	-0.465088	0.12085	-0.666504
311.0	9.546219	0.033354	3.14751	0.036288	0.020442	0.007635	-0.469482	0.116455	-0.668701
312.0	9.506129	0.048647	3.147732	0.032413	0.016453	0.008613	-0.464844	0.114258	-0.661621
313.0	9.543137	0.06525	3.122835	0.0343	0.016401	0.014511	-0.464844	0.112061	-0.663818
314.0	9.498438	0.071515	3.156205	0.03845	0.022262	0.010309	-0.464844	0.114258	-0.664063
315.0	9.537266	0.056576	3.159806	0.032698	0.021152	0.012068	-0.464844	0.109863	-0.656738
316.0	9.517917	0.048163	3.174773	0.030007	0.015877	0.010964	-0.469238	0.112061	-0.65918
317.0	9.540834	0.064969	3.12987	0.030697	0.014286	0.012268	-0.467285	0.114258	-0.66626
318.0	9.556419	0.032908	3.179364	0.029098	0.019038	0.009824	-0.467041	0.112061	-0.668457
319.0	9.535105	0.056447	3.166323	0.034597	0.018574	0.006419	-0.467285	0.116455	-0.661621
320.0	9.51384	0.080215	3.153135	0.031468	0.016454	0.005654	-0.467285	0.116455	-0.661621
321.0	9.518036	0.088999	3.12136	0.027094	0.012174	0.010027	-0.467285	0.114258	-0.66626
322.0	9.538188	0.06573	3.137906	0.027499	0.023785	0.007371	-0.467285	0.114258	-0.659424
323.0	9.537514	0.065739	3.139955	0.022183	0.019528	0.008794	-0.464844	0.112061	-0.668457
324.0	9.532289	0.057083	3.174782	0.024058	0.016647	0.008019	-0.467285	0.114258	-0.664063
325.0	9.557204	0.042358	3.157885	0.023275	0.011639	0.007956	-0.469482	0.114258	-0.656982
326.0	9.545509	0.056716	3.197411	0.020493	0.017682	0.007588	-0.469238	0.109863	-0.661377
327.0	9.523239	0.034277	3.154329	0.020274	0.019258	0.007754	-0.467041	0.109863	-0.663818
328.0	9.541448	0.042545	3.142925	0.026715	0.018767	0.007304	-0.467041	0.112061	-0.65918
329.0	9.496686	0.04927	3.176097	0.024337	0.018511	0.004792	-0.464844	0.114258	-0.664063
330.0	9.51308	0.089223	3.136428	0.025494	0.016913	0.007576	-0.462646	0.116455	-0.659424
331.0	9.489043	0.072461	3.184317	0.022617	0.016363	0.008454	-0.465088	0.118652	-0.671143
332.0	9.530861	0.097103	3.126378	0.009734	0.017346	0.009348	-0.469482	0.114258	-0.659424
333.0	9.492648	0.080189	3.15453	0.013831	0.019743	0.008195	-0.462646	0.112061	-0.66626
334.0	9.510884	0.088098	3.14311	0.012142	0.017901	0.006993	-0.467285	0.114258	-0.661621
335.0	9.524455	0.087452	3.164635	0.009482	0.015776	0.007706	-0.462646	0.114258	-0.661621
336.0	9.516392	0.064391	3.141332	0.012141	0.017899	0.006992	-0.465088	0.116455	-0.659424
337.0	9.504649	0.078515	3.180775	0.008697	0.010771	0.007649	-0.467041	0.112061	-0.661621
338.0	9.550379	0.040264	3.178495	0.009166	0.007918	0.002453	-0.467041	0.109863	-0.661377
339.0	9.541768	0.094755	3.15605	0.012981	0.008445	0.004527	-0.464844	0.114258	-0.664063
340.0	9.529108	0.063474	3.165421	0.006638	0.015529	0.003715	-0.462646	0.112061	-0.668457
341.0	9.476911	0.047224	3.17317	0.007073	0.012375	0.003386	-0.467285	0.114258	-0.661621
342.0	9.468202	0.101713	3.151039	0.008262	0.01108	0.001307	-0.465088	0.118652	-0.666504
343.0	9.467824	0.101944	3.152167	0.009014	0.012939	-0.000443	-0.465088	0.116455	-0.659424
344.0	9.448642	0.093999	3.166353	0.00132	0.008439	-0.001531	-0.467041	0.112061	-0.663818
345.0	9.469044	0.070772	3.182024	-0.006124	0.005507	-0.000979	-0.467041	0.112061	-0.661621
346.0	9.473522	0.079384	3.149785	-0.00027	0.013188	-0.003989	-0.462646	0.116455	-0.661621
347.0	9.507661	0.056134	3.186388	0.000547	0.021335	-0.00213	-0.462891	0.118652	-0.661865
348.0	9.516365	0.047851	3.24116	0.005486	0.014278	-0.005742	-0.467285	0.114258	-0.659424
349.0	9.532043	0.042662	3.171333	0.00455	0.014296	-0.008693	-0.467041	0.109863	-0.668457
350.0	9.531518	0.043724	3.172894	0.010337	0.018531	-0.008641	-0.467041	0.112061	-0.668457
351.0	9.512902	0.082612	3.217901	0.013064	0.024096	-0.012415	-0.469482	0.114258	-0.66626
352.0	9.466104	0.122364	3.223124	0.009003	0.021999	-0.016132	-0.453369	0.109863	-0.666016
353.0	9.503185	0.140664	3.198604	0.000595	0.015938	-0.02034	-0.464844	0.114258	-0.66626
354.0	9.491181	0.157309	3.238348	0.004007	0.019918	-0.022801	-0.462646	0.112061	-0.661621
355.0	9.464118	0.128465	3.228716	-0.006437	0.024599	-0.022476	-0.464844	0.114258	-0.670898
356.0	9.475629	0.161296	3.222641	-0.008916	0.0206	-0.017064	-0.458008	0.112061	-0.668457
357.0	9.453569	0.140169	3.179468	-0.013508	0.015066	-0.019198	-0.465088	0.116455	-0.664063
358.0	9.487666	0.117923	3.216102	-0.013015	0.018201	-0.015918	-0.462646	0.112061	-0.663818
359.0	9.440174	0.111378	3.190952	-0.009917	0.017171	-0.016956	-0.464844	0.112061	-0.668457
360.0	9.439833	0.112615	3.191917	-0.017726	0.002935	-0.0186	-0.458008	0.112061	-0.65918
361.0	9.45115	0.099629	3.15425	-0.020277	0.004551	-0.02582	-0.458252	0.114258	-0.66626
362.0	9.485592	0.077947	3.189878	-0.022623	0.007435	-0.026533	-0.464844	0.112061	-0.66626
363.0	9.516591	0.11901	3.168804	-0.026125	-0.003138	-0.02282	-0.455811	0.109863	-0.663818
364.0	9.541309	0.05985	3.120893	-0.037261	0.003114	-0.023812	-0.464844	0.112061	-0.661621
365.0	9.58801	0.068704	3.148301	-0.027204	0.007881	-0.020194	-0.460205	0.109863	-0.661377
366.0	9.562284	0.084611	3.167032	-0.022446	0.005554	-0.021833	-0.464844	0.109863	-0.668457
367.0	9.590215	0.085212	3.207272	-0.028512	-0.000562	-0.018673	-0.458252	0.114258	-0.664063
368.0	9.563323	0.009294	3.165386	-0.036173	-0.001935	-0.017971	-0.465088	0.118652	-0.664063
369.0	9.575557	0.041181	3.157135	-0.029485	-0.00085	-0.016762	-0.465088	0.116455	-0.664063
370.0	9.575374	0.04187	3.157683	-0.030285	0.012037	-0.017349	-0.462891	0.118652	-0.659424
371.0	9.584269	0.033522	3.211596	-0.031345	0.005161	-0.014189	-0.462891	0.116455	-0.668701
372.0	9.582392	0.065516	3.18364	-0.019516	-0.002667	-0.011892	-0.464844	0.114258	-0.664063
373.0	9.573233	0.07465	3.130512	-0.023567	0.001207	-0.007133	-0.462646	0.116455	-0.664063
374.0	9.591953	0.082696	3.117821	-0.028306	0.006666	-0.003685	-0.462646	0.114258	-0.66626
375.0	9.561215	0.088103	3.170161	-0.02295	0.017206	-0.001472	-0.465088	0.118652	-0.666504
376.0	9.537101	0.070305	3.2176	-0.030696	0.009238	0.00047	-0.462646	0.116455	-0.659424
377.0	9.569097	0.031396	3.195107	-0.032484	0.003638	0.007181	-0.460449	0.116455	-0.664063
378.0	9.580494	0.015088	3.157399	-0.024907	0.004397	0.016216	-0.467285	0.116455	-0.66626
379.0	9.594309	0.012656	3.177974	-0.027214	0.007588	0.010642	-0.456055	0.118652	-0.664063
380.0	9.561409	0.002354	3.171175	-0.030995	-0.004871	0.017548	-0.467041	0.112061	-0.663818
381.0	9.575592	-0.000633	3.190631	-0.030774	-0.006448	0.017379	-0.462646	0.114258	-0.661621
382.0	9.599442	0.013803	3.144096	-0.024528	-0.002211	0.018931	-0.464844	0.114258	-0.664063
383.0	9.543448	0.031677	3.213748	-0.0232	0.009368	0.01924	-0.460449	0.116455	-0.664063
384.0	9.538395	0.020214	3.247398	-0.031638	0.002986	0.019862	-0.462646	0.114258	-0.664063
385.0	9.517122	-0.005096	3.202087	-0.038949	-0.008133	0.021453	-0.462891	0.118652	-0.664063
386.0	9.583072	0.007432	3.215334	-0.040365	-0.005277	0.023701	-0.462891	0.118652	-0.657227
387.0	9.538544	0.010209	3.247008	-0.034377	0.015285	0.023128	-0.462646	0.116455	-0.656982
388.0	9.519178	-0.00147	3.26151	-0.034378	0.015282	0.023126	-0.462891	0.118652	-0.661865
389.0	9.487682	-0.044571	3.28355	-0.03188	0.007365	0.026706	-0.463135	0.123047	-0.664307
390.0	9.492366	-0.039117	3.251044	-0.024021	0.004028	0.024027	-0.460693	0.123047	-0.666504
391.0	9.498672	-0.06499	3.246784	-0.021488	0.014322	0.02227	-0.467285	0.118652	-0.657227
392.0	9.461099	-0.038869	3.304712	-0.016854	0.02017	0.019571	-0.460693	0.118652	-0.659424
393.0	9.432495	-0.040341	3.266479	-0.01307	0.01756	0.01984	-0.465088	0.118652	-0.661865
394.0	9.42525	-0.01954	3.273432	-0.022279	0.02126	0.013219	-0.460693	0.12085	-0.659668
395.0	9.405667	-0.029784	3.288406	-0.017275	0.020502	0.013227	-0.462891	0.118652	-0.659424
396.0	9.438716	0.021804	3.327402	-0.017081	0.015793	0.011237	-0.458496	0.123047	-0.657227
397.0	9.436588	0.051863	3.300845	-0.019523	0.012088	0.011759	-0.460938	0.127441	-0.669189
398.0	9.442828	0.027389	3.296743	-0.015228	0.009787	0.008643	-0.458496	0.125244	-0.657471
399.0	9.454041	0.012085	3.259516	-0.016157	0.009818	0.005689	-0.460693	0.12085	-0.657227
400.0	9.422512	-0.028504	3.281241	-0.022336	0.009047	0.001075	-0.462891	0.12085	-0.659668
401.0	9.428886	-0.051962	3.276718	-0.012817	0.004416	-0.002201	-0.462891	0.118652	-0.661865
402.0	9.40899	-0.105534	3.26	-0.007446	0.009002	-0.00845	-0.458496	0.125244	-0.664307
403.0	9.4482	-0.119876	3.262658	0.002563	0.007489	-0.008428	-0.463135	0.125244	-0.659668
404.0	9.446339	-0.086787	3.235457	0.021434	0.006069	-0.011167	-0.460693	0.12085	-0.661865
405.0	9.46513	-0.076619	3.222868	0.025437	0.001885	-0.011067	-0.462891	0.118652	-0.657227
406.0	9.515289	-0.026737	3.188973	0.030124	-0.003888	-0.009661	-0.456055	0.12085	-0.657227
407.0	9.487466	-0.023971	3.14865	0.031809	-0.002053	-0.008445	-0.465332	0.123047	-0.661865
408.0	9.520321	-0.014321	3.15573	0.033053	0.00293	-0.006889	-0.458496	0.123047	-0.664307
409.0	9.496481	-0.029887	3.201715	0.03342	-0.003676	-0.004184	-0.460693	0.123047	-0.659668
410.0	9.488478	0.02637	3.1781	0.041647	-0.013617	-0.004149	-0.460693	0.123047	-0.661865
411.0	9.502169	-0.017891	3.166491	0.028269	-0.015781	-0.006602	-0.458496	0.123047	-0.657227
412.0	9.517325	0.028505	3.215389	0.030662	-0.012399	-0.002264	-0.465576	0.127441	-0.657471
413.0	9.498831	0.021558	3.227193	0.036642	-0.012867	-0.004165	-0.465088	0.12085	-0.661865
414.0	9.463997	0.001118	3.160666	0.026781	-0.016383	-0.001305	-0.462891	0.118652	-0.659424
415.0	9.486806	-0.052625	3.201994	0.031831	-0.016825	-0.006162	-0.465088	0.12085	-0.657227
416.0	9.440509	-0.058417	3.17339	0.03637	-0.017571	-0.007632	-0.462891	0.12085	-0.655029
417.0	9.461767	-0.079747	3.186408	0.027506	-0.023617	-0.013357	-0.462891	0.12085	-0.657227
418.0	9.474137	-0.091705	3.145799	0.02936	-0.02963	-0.015942	-0.465088	0.12085	-0.661865
419.0	9.50309	-0.089765	3.18298	0.042247	-0.030595	-0.016799	-0.458496	0.12085	-0.655029
420.0	9.516328	-0.055619	3.17209	0.042712	-0.030612	-0.015324	-0.462891	0.118652	-0.659424
421.0	9.536199	-0.044606	3.156049	0.043862	-0.032215	-0.012541	-0.462891	0.12085	-0.664307
422.0	9.556082	-0.033842	3.13991	0.044793	-0.032243	-0.00959	-0.460449	0.114258	-0.656982
423.0	9.583326	-0.000658	3.148829	0.045038	-0.030683	-0.007949	-0.465088	0.12085	-0.659668
424.0	9.556892	0.047757	3.136313	0.043469	-0.022799	-0.008594	-0.467285	0.118652	-0.652588
425.0	9.550256	0.027162	3.108953	0.041498	-0.026517	-0.00658	-0.462891	0.12085	-0.659668
426.0	9.588724	0.045539	3.080307	0.040084	-0.023655	-0.004337	-0.465088	0.12085	-0.664307
427.0	9.596805	0.069761	3.10317	0.034639	-0.019748	-0.004007	-0.467529	0.12085	-0.657227
428.0	9.622869	0.056417	3.08317	0.040823	-0.018962	0.000587	-0.465088	0.12085	-0.664307
429.0	9.618702	0.048964	3.114312	0.047448	-0.021328	0.004848	-0.469727	0.12085	-0.664307
430.0	9.572455	0.041974	3.085383	0.038815	-0.022983	0.007469	-0.465088	0.116455	-0.654785
431.0	9.58906	0.010517	3.131306	0.03284	-0.02251	0.009383	-0.465088	0.12085	-0.661865
432.0	9.550223	0.025606	3.127417	0.037871	-0.020129	0.011185	-0.462891	0.118652	-0.661865
433.0	9.550784	0.025897	3.125699	0.0339	-0.015644	0.006211	-0.462646	0.114258	-0.659424
434.0	9.558748	0.048905	3.149048	0.030052	-0.016477	0.009001	-0.469727	0.118652	-0.657227
435.0	9.519678	0.063835	3.145898	0.026296	-0.010721	0.010533	-0.467285	0.114258	-0.659424
436.0	9.513395	0.08663	3.149864	0.026076	-0.009146	0.010697	-0.465332	0.123047	-0.661865
437.0	9.501512	0.055201	3.157099	0.017698	-0.01207	0.008298	-0.465088	0.12085	-0.666504
438.0	9.518849	0.094712	3.114599	0.015103	-0.010752	0.005949	-0.465088	0.12085	-0.650146
439.0	9.528595	0.085929	3.166433	0.006945	-0.015252	0.003388	-0.469727	0.12085	-0.661865
440.0	9.546119	0.125438	3.123334	-0.002652	-0.020026	0.001268	-0.460693	0.12085	-0.659668
441.0	9.592677	0.087385	3.118811	-0.000122	-0.009736	-0.000543	-0.465088	0.116455	-0.656982
442.0	9.560927	0.125011	3.141078	-0.010348	-0.006631	-0.000368	-0.463135	0.123047	-0.657227
443.0	9.534879	0.093802	3.128622	-0.013723	-0.010318	-0.002769	-0.469727	0.118652	-0.661865
444.0	9.568082	0.101413	3.134461	-0.023261	-0.0088	-0.001281	-0.465088	0.116455	-0.654785
445.0	9.541887	0.069848	3.12245	-0.021701	0.001209	-0.001175	-0.467285	0.116455	-0.650146
446.0	9.555887	0.069061	3.142679	-0.020701	0.004637	-0.001286	-0.467773	0.127441	-0.655273
447.0	9.522121	0.014796	3.105992	-0.025388	-0.007491	-0.002157	-0.469727	0.12085	-0.659668
448.0	9.547736	-0.00039	3.087211	-0.01582	-0.005863	-0.001841	-0.467285	0.116455	-0.659424
449.0	9.578946	0.038973	3.065214	-0.006502	-0.005803	-0.003165	-0.467285	0.116455	-0.659424
450.0	9.604363	0.024684	3.047027	-0.002034	0.005056	-0.008798	-0.467285	0.118652	-0.657227
451.0	9.646335	0.024894	3.107786	0.007405	0.014852	-0.009572	-0.465088	0.116455	-0.664063
452.0	9.672039	0.057281	3.121319	0.029227	0.023382	-0.007846	-0.467285	0.114258	-0.656982
453.0	9.661806	0.06788	3.070948	0.036758	0.03291	-0.009659	-0.467529	0.125244	-0.655029
454.0	9.688766	0.069463	3.11454	0.04738	0.044254	-0.005845	-0.465332	0.123047	-0.650391
455.0	9.638384	0.06932	3.18313	0.049471	0.04264	-0.000109	-0.465088	0.116455	-0.654785
456.0	9.668224	0.109973	3.165313	0.046687	0.033627	0.00673	-0.464844	0.114258	-0.656982
457.0	9.673779	0.08739	3.163637	0.040676	0.03381	0.013509	-0.469482	0.116455	-0.659424
458.0	9.660075	0.179341	3.207084	0.056143	0.049403	0.014413	-0.462891	0.118652	-0.659424
459.0	9.585188	0.263808	3.20431	0.068014	0.047839	0.020312	-0.465088	0.116455	-0.656982
460.0	9.510389	0.347779	3.201256	0.056748	0.047219	0.025447	-0.467285	0.116455	-0.656982
461.0	9.515606	0.323803	3.20065	0.04714	0.0453	0.029981	-0.460693	0.118652	-0.657227
462.0	9.52446	0.236188	3.256266	0.022401	0.035959	0.033981	-0.467285	0.118652	-0.657227
463.0	9.590219	0.172414	3.271505	0.019617	0.024106	0.034172	-0.465088	0.118652	-0.659424
464.0	9.563924	0.185287	3.291962	0.050263	0.029497	0.031332	-0.467285	0.116455	-0.659424
465.0	9.537489	0.198777	3.312761	0.061005	0.032661	0.036247	-0.462891	0.118652	-0.661865
466.0	9.508686	0.197973	3.275206	0.060673	0.021637	0.029226	-0.469482	0.116455	-0.656982
467.0	9.499226	0.328791	3.254033	0.085532	0.010897	0.035404	-0.467285	0.116455	-0.659424
468.0	9.431839	0.466977	3.242635	0.108775	0.001736	0.037312	-0.467285	0.114258	-0.661621
469.0	9.393585	0.527575	3.269098	0.079968	-0.009663	0.037604	-0.460693	0.118652	-0.654785
470.0	9.364557	0.579055	3.348447	0.053523	-0.006051	0.038	-0.465088	0.118652	-0.652588
471.0	9.293461	0.630491	3.368248	0.054093	0.000517	0.03818	-0.460449	0.114258	-0.654785
472.0	9.292229	0.659646	3.33913	0.039416	-0.00688	0.039138	-0.467529	0.12085	-0.659668
473.0	9.337022	0.650242	3.307352	0.019213	-0.005054	0.032612	-0.467285	0.114258	-0.66626
474.0	9.358431	0.670902	3.352612	0.027487	0.020729	0.031427	-0.460449	0.116455	-0.656982
475.0	9.42638	0.699605	3.425646	-0.000691	0.013361	0.020414	-0.463135	0.123047	-0.659668
476.0	9.581866	0.544574	3.376669	-0.044195	0.003349	0.010827	-0.460693	0.12085	-0.659668
477.0	9.68666	0.522169	3.24483	-0.011862	0.01919	-0.001703	-0.465332	0.123047	-0.664307
478.0	9.66268	0.552877	3.323515	0.001994	0.041861	-0.01778	-0.464844	0.112061	-0.65918
479.0	9.576148	0.530822	3.327829	-0.015365	0.05868	-0.02276	-0.465088	0.116455	-0.656982
480.0	9.485922	0.469595	3.394351	-0.006838	0.053692	-0.02409	-0.462646	0.116455	-0.656982
481.0	9.447185	0.479464	3.306266	-0.02621	0.054958	-0.017955	-0.467529	0.12085	-0.664307
482.0	9.402134	0.433947	3.223608	-0.059898	0.086435	-0.015415	-0.460693	0.118652	-0.657227
483.0	9.350976	0.378645	3.1777	-0.087772	0.131268	-0.002621	-0.462646	0.114258	-0.66626
484.0	9.306606	0.390668	3.190279	-0.100032	0.180569	0.005533	-0.456299	0.125244	-0.668945
485.0	9.360217	0.347821	3.226609	-0.130272	0.207466	0.011524	-0.465332	0.125244	-0.666748
486.0	9.347112	0.241531	3.21999	-0.170155	0.19701	0.018356	-0.45874	0.127441	-0.664551
487.0	9.337894	0.127904	3.120853	-0.194229	0.183204	0.016827	-0.460938	0.125244	-0.664307
488.0	9.470926	0.185857	3.016211	-0.197601	0.205711	0.007767	-0.454102	0.127441	-0.662109
489.0	9.605877	0.227665	3.002727	-0.225828	0.268045	-0.00755	-0.460938	0.127441	-0.666748
490.0	9.69433	0.277188	3.025759	-0.265815	0.314347	-0.033214	-0.454102	0.123047	-0.668945
491.0	9.704495	0.204289	3.042365	-0.295649	0.315555	-0.061489	-0.451904	0.127441	-0.664551
492.0	9.61762	0.032248	3.031913	-0.349947	0.29147	-0.088896	-0.449951	0.134033	-0.671631
493.0	9.534588	-0.260621	2.750592	-0.399072	0.299418	-0.124062	-0.450195	0.140625	-0.674316
494.0	9.464671	-0.582979	2.751937	-0.4127	0.332284	-0.150473	-0.44751	0.129639	-0.671387
495.0	9.480038	-0.878836	2.755937	-0.406169	0.333106	-0.17685	-0.447998	0.140625	-0.667236
496.0	9.563254	-1.200796	2.740531	-0.347551	0.265049	-0.193986	-0.445557	0.138672	-0.674072
497.0	9.763608	-1.325374	2.592265	-0.240803	0.156499	-0.198737	-0.441162	0.138672	-0.671875
498.0	9.991992	-1.382981	2.423346	-0.14539	0.090418	-0.18908	-0.447998	0.138672	-0.678711
499.0	10.141655	-1.376779	2.21952	-0.090048	0.104093	-0.173495	-0.447998	0.143066	-0.676758
500.0	10.249666	-1.273922	2.224254	-0.019746	0.166345	-0.142629	-0.438965	0.138672	-0.681152
501.0	10.24523	-0.917921	2.343476	0.053769	0.198297	-0.108307	-0.445557	0.136475	-0.676514
502.0	10.21147	-0.518177	2.455121	0.050252	0.213195	-0.077239	-0.436523	0.136475	-0.676514
503.0	10.099613	-0.201592	2.585199	0.034152	0.248942	-0.054085	-0.443359	0.136475	-0.676514
504.0	9.983888	0.18991	2.721444	0.051066	0.274834	-0.034603	-0.438721	0.134277	-0.678711
505.0	9.796625	0.540856	2.814077	0.028983	0.270792	-0.01255	-0.434082	0.134277	-0.678711
506.0	9.680657	0.724879	2.796944	-0.080137	0.223312	0.010131	-0.43457	0.140869	-0.683594
507.0	9.582481	0.592837	2.669898	-0.185684	0.192938	0.027975	-0.432129	0.136475	-0.685791
508.0	9.533613	0.291122	2.648915	-0.244779	0.200794	0.035271	-0.431885	0.134277	-0.680908
509.0	9.489726	0.010497	2.654162	-0.276997	0.226155	0.023312	-0.429932	0.140869	-0.681152
510.0	9.49611	-0.272667	2.742095	-0.280691	0.220064	0.00606	-0.425537	0.143066	-0.681396
511.0	9.503998	-0.533608	2.741504	-0.27587	0.195011	-0.016507	-0.425537	0.140869	-0.688232
512.0	9.492831	-0.768216	2.722358	-0.251042	0.181879	-0.040473	-0.427979	0.147461	-0.688477
513.0	9.383144	-0.848652	2.597249	-0.206082	0.173714	-0.058256	-0.425537	0.145264	-0.681396
514.0	9.144921	-0.901504	2.635518	-0.162202	0.180758	-0.087441	-0.425537	0.145264	-0.683594
515.0	9.198952	-0.747462	2.765338	-0.109612	0.159992	-0.109734	-0.425537	0.145264	-0.686035
516.0	9.232921	-0.677993	2.787095	-0.071064	0.117961	-0.09757	-0.427734	0.143066	-0.686035
517.0	9.173382	-0.820283	2.680913	-0.091239	0.103644	-0.086802	-0.427979	0.145264	-0.681396
518.0	9.217995	-0.960675	2.598492	-0.030854	0.115107	-0.087687	-0.42334	0.143066	-0.690674
519.0	9.12685	-0.823813	2.611076	0.063137	0.105433	-0.086261	-0.421143	0.145264	-0.688477
520.0	9.205685	-0.580464	2.527513	0.080688	0.074374	-0.078816	-0.416504	0.140869	-0.683594
521.0	9.322351	-0.515702	2.468403	0.096851	0.077253	-0.076501	-0.425537	0.140869	-0.69043
522.0	9.357558	-0.476431	2.512914	0.123926	0.08331	-0.067209	-0.418945	0.147461	-0.693115
523.0	9.31443	-0.551003	2.484948	0.136541	0.079509	-0.070878	-0.420898	0.138672	-0.692871
524.0	9.197399	-0.57424	2.473628	0.157842	0.065286	-0.085659	-0.421143	0.143066	-0.690674
525.0	9.213126	-0.474922	2.473876	0.188517	0.053229	-0.105993	-0.418701	0.138672	-0.685791
526.0	9.452734	-0.282062	2.515137	0.216118	0.026679	-0.112034	-0.420654	0.134277	-0.687988
527.0	9.600711	-0.23676	2.37586	0.18975	0.011154	-0.1013	-0.420654	0.13208	-0.687744
528.0	9.720669	-0.343981	2.27526	0.162582	0.0099	-0.089354	-0.416016	0.129883	-0.690186
529.0	9.702559	-0.452533	2.199072	0.182912	0.014108	-0.070388	-0.42041	0.125488	-0.6875
530.0	9.640339	-0.570607	2.092473	0.170531	0.014362	-0.062275	-0.411377	0.125488	-0.687744
531.0	9.500935	-0.692057	2.117602	0.190595	0.055059	-0.060204	-0.415771	0.125488	-0.682861
532.0	9.295133	-0.686979	2.186924	0.228176	0.063321	-0.052052	-0.417969	0.123291	-0.6875
533.0	9.362504	-0.769904	2.234303	0.199149	-0.010714	-0.03932	-0.417969	0.123291	-0.682861
534.0	9.331433	-1.081142	2.076672	0.196398	-0.032474	-0.035132	-0.420166	0.121094	-0.6875
535.0	9.284644	-1.199758	2.102833	0.266063	-0.005728	-0.044151	-0.417725	0.116699	-0.685059
536.0	9.28719	-1.153778	2.188969	0.303627	-0.026816	-0.057137	-0.41333	0.118896	-0.6875
537.0	9.284281	-1.000398	2.136465	0.337521	-0.054177	-0.058242	-0.413086	0.116699	-0.685059
538.0	9.344479	-0.811403	2.271425	0.341932	-0.054671	-0.066008	-0.413086	0.112305	-0.687256
539.0	9.490241	-0.576054	2.327525	0.334852	-0.04362	-0.060403	-0.415283	0.114502	-0.682617
540.0	9.53045	-0.231974	2.44216	0.373471	-0.080959	-0.039107	-0.412842	0.10791	-0.677734
541.0	9.562629	0.065308	2.498898	0.32981	-0.13558	-0.018906	-0.415039	0.103516	-0.686768
542.0	9.699103	0.231829	2.575797	0.219493	-0.148556	0.010338	-0.419434	0.103516	-0.682129
543.0	9.889036	0.480574	2.703914	0.20232	-0.151991	0.045377	-0.419434	0.103516	-0.682129
544.0	10.108678	0.811498	2.83893	0.208112	-0.193652	0.096495	-0.421387	0.098877	-0.681885
545.0	10.2957	0.93726	2.707038	0.075815	-0.25004	0.144647	-0.421875	0.110107	-0.680176
546.0	10.467006	0.427055	2.533421	-0.131086	-0.229844	0.184919	-0.417236	0.105713	-0.675293
547.0	10.495992	-0.29763	2.790679	-0.206495	-0.140716	0.211573	-0.424072	0.110107	-0.673096
548.0	10.365797	-0.767	3.345562	-0.143519	-0.05526	0.217523	-0.417236	0.105713	-0.675293
549.0	10.139091	-1.048173	3.731367	0.008332	-0.094392	0.210376	-0.417236	0.105713	-0.672852
550.0	10.332891	-1.000017	3.831395	0.11542	-0.167543	0.199387	-0.421875	0.105469	-0.672852
551.0	10.679186	-0.823047	3.665913	0.135816	-0.142822	0.196476	-0.419434	0.103516	-0.67749
552.0	10.897093	-0.388965	3.57984	0.193567	-0.095142	0.19229	-0.417236	0.103516	-0.672852
553.0	10.934478	0.011479	3.778797	0.13196	-0.038241	0.181716	-0.419434	0.105469	-0.666016
554.0	11.050143	0.142776	4.021918	0.06	0.028545	0.163281	-0.415039	0.105713	-0.668213
555.0	11.228903	0.323913	4.258138	0.084447	0.03094	0.137197	-0.412598	0.101318	-0.67041
556.0	11.531138	0.596478	4.501417	0.068251	-0.04763	0.104094	-0.417236	0.105713	-0.672852
557.0	11.863758	0.537432	4.752108	-0.055815	-0.055447	0.075736	-0.416992	0.098877	-0.667969
558.0	11.82437	0.492295	4.599933	-0.016164	-0.057016	0.021062	-0.419678	0.10791	-0.668457
559.0	11.16063	0.876066	4.509667	0.269452	-0.110578	-0.021637	-0.416992	0.098877	-0.667969
560.0	10.816766	1.092793	4.765124	0.101195	-0.114933	-0.050129	-0.416992	0.098877	-0.66333
561.0	10.568248	0.528392	4.740821	-0.12289	-0.079712	-0.068885	-0.417236	0.105713	-0.668213
562.0	10.306889	-0.257808	4.904178	-0.054853	0.04977	-0.065841	-0.412598	0.101318	-0.668213
563.0	9.808976	-0.432195	5.074485	0.242021	0.142404	-0.056774	-0.414551	0.094482	-0.672607
564.0	9.225407	0.084831	5.095195	0.475015	0.189823	-0.051218	-0.412354	0.094482	-0.667969
565.0	8.545226	0.596022	4.857384	0.481579	0.266448	-0.019362	-0.412109	0.092285	-0.674805
566.0	7.898149	1.015834	4.570607	0.426159	0.373046	0.034099	-0.405273	0.090332	-0.674805
567.0	7.734166	1.279071	4.680156	0.324607	0.432553	0.099826	-0.407471	0.083496	-0.676758
568.0	7.997513	1.26568	4.712995	0.131304	0.383178	0.119148	-0.405273	0.088135	-0.677002
569.0	8.17796	1.154818	4.483971	0.033237	0.240989	0.110334	-0.405518	0.092529	-0.679443
570.0	8.256897	1.363465	4.130896	0.070206	0.103507	0.093643	-0.403076	0.090332	-0.681641
571.0	8.465729	1.786572	3.974629	0.020632	0.049157	0.071528	-0.403076	0.088135	-0.683838
572.0	8.63343	1.920751	3.907439	-0.17685	0.072124	0.044337	-0.398438	0.088135	-0.679199
573.0	8.614872	1.661348	4.133166	-0.417329	0.125214	-0.003904	-0.398682	0.090332	-0.674805
574.0	8.763901	1.139695	4.521077	-0.488159	0.117647	-0.050954	-0.40332	0.094727	-0.677246
575.0	9.024668	0.537393	4.666093	-0.394876	-0.033055	-0.09368	-0.401123	0.096924	-0.675049
576.0	9.231933	0.330604	4.402581	-0.227583	-0.127747	-0.123721	-0.398926	0.096924	-0.677246
577.0	9.640291	0.418631	4.211381	-0.06927	-0.147979	-0.16267	-0.40332	0.096924	-0.677246
578.0	9.162489	0.145165	3.63687	-0.0775	-0.069678	-0.189151	-0.401123	0.094727	-0.674805
579.0	9.286161	-0.099404	3.706023	-0.077319	0.004587	-0.198812	-0.396484	0.092529	-0.679443
580.0	9.300388	-0.337126	3.701781	0.035617	0.035068	-0.176786	-0.396484	0.094727	-0.677246
581.0	9.279967	-0.233473	3.630719	0.134845	0.028039	-0.159104	-0.40332	0.094727	-0.681885
582.0	9.031517	-0.051063	3.438467	0.252128	0.078011	-0.119802	-0.400879	0.090332	-0.679443
583.0	8.846789	0.238667	3.491934	0.296955	0.127537	-0.075395	-0.398438	0.088135	-0.677002
584.0	8.796123	0.538393	3.579757	0.306277	0.132397	-0.037678	-0.398438	0.085938	-0.681641
585.0	8.790601	0.729841	3.613198	0.344712	0.114001	-0.008746	-0.393799	0.08374	-0.679199
586.0	8.721308	0.964778	3.567703	0.394734	0.128851	0.00221	-0.398438	0.08374	-0.683838
587.0	8.645704	1.262305	3.607427	0.404952	0.149564	0.006415	-0.395996	0.081543	-0.676758
588.0	8.578549	1.358376	3.61932	0.338122	0.131265	-0.003575	-0.395996	0.079346	-0.681396
589.0	8.616536	1.339947	3.574458	0.266717	0.115542	-0.017012	-0.38916	0.077148	-0.676514
590.0	8.622096	1.281422	3.551085	0.237055	0.14595	-0.035512	-0.388916	0.072754	-0.681152
591.0	8.635816	1.301523	3.549965	0.254303	0.171427	-0.037918	-0.391113	0.070557	-0.680908
592.0	8.68306	1.462602	3.551331	0.267826	0.152809	-0.035687	-0.386475	0.070557	-0.680908
593.0	8.680934	1.476299	3.361145	0.237294	0.11968	-0.022002	-0.384033	0.063965	-0.683105
594.0	8.798787	1.445497	3.188587	0.203812	0.095678	-0.007272	-0.391113	0.072754	-0.678711
595.0	8.841022	1.331334	3.036137	0.15334	0.119759	0.017862	-0.38623	0.063965	-0.678467
596.0	8.94771	1.274031	2.986499	0.121273	0.118726	0.023124	-0.390869	0.068359	-0.683105
597.0	8.789587	1.241341	2.860126	0.113609	0.120364	0.031571	-0.390869	0.063721	-0.680664
598.0	8.684017	1.265914	2.813428	0.086035	0.124797	0.045334	-0.388672	0.068359	-0.683105
599.0	8.720544	1.207401	2.747967	0.034801	0.099356	0.064758	-0.384033	0.061768	-0.6875
600.0	8.881117	1.158652	2.695483	0.01774	0.067085	0.087839	-0.386475	0.070557	-0.685547
601.0	8.96745	1.129883	2.681651	0.049159	0.057757	0.109796	-0.381592	0.061768	-0.682861
602.0	8.973879	1.025487	2.631847	0.020975	0.047631	0.129798	-0.386475	0.068359	-0.678467
603.0	9.025025	0.750709	2.593447	-0.022936	0.017417	0.137539	-0.379639	0.068359	-0.687744
604.0	9.085774	0.541862	2.460415	0.016633	0.006704	0.134939	-0.379883	0.070557	-0.678711
605.0	8.984277	0.598762	2.486698	0.12516	0.039755	0.13748	-0.377441	0.066162	-0.687744
606.0	8.843145	0.850022	2.525638	0.187203	0.061305	0.150366	-0.377441	0.066162	-0.678467
607.0	8.709468	0.923192	2.764384	0.110119	0.010927	0.171208	-0.381836	0.068359	-0.683105
608.0	8.700192	0.634751	2.866414	0.022826	-0.079595	0.200437	-0.377441	0.070557	-0.680908
609.0	8.910825	0.462126	2.750783	0.033384	-0.145644	0.234812	-0.379883	0.070557	-0.678711
610.0	8.973529	0.380937	2.542742	0.098173	-0.099985	0.248902	-0.379883	0.070557	-0.671631
611.0	9.045337	0.43281	2.551559	0.136606	0.010132	0.251866	-0.377441	0.070557	-0.678711
612.0	9.005128	0.531441	2.766648	0.177544	0.079102	0.250203	-0.377686	0.072754	-0.681152
613.0	8.939094	0.664772	2.854593	0.214794	0.024463	0.242591	-0.375244	0.068359	-0.680908
614.0	9.040312	0.734277	2.818628	0.182646	-0.092272	0.218743	-0.377441	0.070557	-0.674072
615.0	9.099051	0.845543	2.517306	0.190227	-0.151472	0.19339	-0.375	0.061768	-0.680664
616.0	9.0867	1.145731	2.410374	0.240679	-0.133858	0.183419	-0.375244	0.068359	-0.67627
617.0	9.236221	1.594613	2.31667	0.19936	-0.110113	0.180271	-0.377441	0.068359	-0.683105
618.0	9.574429	2.066351	2.256987	0.083878	-0.098005	0.185557	-0.379883	0.070557	-0.67627
619.0	10.030243	2.166205	2.127244	-0.081379	-0.094921	0.178518	-0.377686	0.072754	-0.674072
620.0	10.232826	2.053632	1.844834	-0.177746	-0.114424	0.159214	-0.373291	0.079346	-0.672119
621.0	10.284402	2.087647	1.949959	-0.179305	-0.074446	0.134639	-0.380127	0.077148	-0.671875
622.0	10.679541	2.129822	2.648576	-0.316019	-0.097995	0.087734	-0.377686	0.074951	-0.671875
623.0	11.237854	1.651369	3.361744	-0.51055	-0.153884	0.009311	-0.373535	0.08374	-0.674561
624.0	11.815437	0.665352	3.422406	-0.554078	-0.325393	-0.078717	-0.373535	0.085938	-0.672363
625.0	12.12821	-0.319233	2.7327	-0.460138	-0.478421	-0.179982	-0.371338	0.085938	-0.667725
626.0	12.202922	-0.496621	2.568917	-0.169227	-0.310459	-0.283776	-0.377686	0.077148	-0.671875
627.0	11.713286	0.239077	3.352841	0.154099	0.016099	-0.345982	-0.37793	0.079346	-0.6604
628.0	10.84767	0.761351	4.408612	0.071553	0.055168	-0.332087	-0.37793	0.08374	-0.66748
629.0	10.650454	0.404585	4.932053	-0.201519	-0.128991	-0.250811	-0.380127	0.079346	-0.667236
630.0	10.913381	-0.697347	4.580645	-0.336421	-0.247426	-0.188136	-0.375977	0.085938	-0.658203
631.0	10.770422	-1.283165	4.077267	-0.045726	-0.104242	-0.158597	-0.375488	0.079346	-0.665039
632.0	10.189117	-0.639673	4.653414	0.377699	0.110456	-0.168664	-0.373535	0.081543	-0.665039
633.0	9.562549	0.623505	5.25908	0.532391	0.081953	-0.194621	-0.373291	0.077148	-0.665039
634.0	9.113717	1.570778	5.386084	0.444225	-0.095608	-0.243435	-0.375732	0.081543	-0.66748
635.0	9.023887	2.122671	5.195674	0.226172	-0.150049	-0.322273	-0.375244	0.072754	-0.664795
636.0	9.040303	2.382089	5.359652	0.111983	0.037592	-0.417243	-0.375488	0.074951	-0.669434
637.0	8.509353	1.817652	5.369538	-0.157197	0.117599	-0.476085	-0.372803	0.068359	-0.662354
638.0	8.324747	0.992708	5.14154	-0.450526	0.101041	-0.536642	-0.373047	0.072754	-0.662354
639.0	8.424742	0.390572	4.878162	-0.539199	0.251442	-0.615878	-0.368652	0.072754	-0.648438
640.0	8.49193	-0.055275	4.972259	-0.555357	0.425221	-0.671338	-0.368652	0.074951	-0.662598
641.0	9.12056	-0.221492	5.609002	-0.593682	0.552229	-0.696063	-0.362061	0.079346	-0.676758
642.0	9.561704	-0.579129	5.691308	-0.521179	0.433683	-0.664663	-0.362061	0.077148	-0.674316
643.0	9.956974	-0.914278	5.509703	-0.277504	0.1816	-0.559688	-0.359619	0.074951	-0.669434
644.0	10.714368	-0.921075	5.199815	-0.064612	-0.202914	-0.368941	-0.362061	0.077148	-0.671875
645.0	11.187612	-0.84305	4.740155	-0.038617	-0.369735	-0.190428	-0.366455	0.077148	-0.665039
646.0	11.21486	-0.919222	4.451084	0.017366	-0.24521	-0.03344	-0.366455	0.077148	-0.667236
647.0	10.313014	-0.57013	4.254646	0.194433	-0.115773	0.062041	-0.366211	0.072754	-0.664795
648.0	9.525006	0.229334	4.313022	0.172316	-0.034797	0.123117	-0.368652	0.074951	-0.664795
649.0	9.038023	0.614221	4.312797	-0.117821	-0.003271	0.168714	-0.364502	0.08374	-0.66748
650.0	8.735891	0.603897	4.177203	-0.242103	0.017692	0.21251	-0.366699	0.08374	-0.665283
651.0	8.564628	0.841055	4.094484	-0.159145	0.005721	0.242763	-0.359863	0.081543	-0.669678
652.0	8.471844	1.245324	3.958285	-0.181579	-0.031554	0.263806	-0.364746	0.090332	-0.660889
653.0	8.473384	1.038336	3.712779	-0.372938	-0.11614	0.280759	-0.362549	0.088135	-0.672363
654.0	8.870357	0.502452	3.418069	-0.529339	-0.148056	0.268683	-0.36499	0.094727	-0.665527
655.0	8.840174	-0.042485	3.224084	-0.477816	-0.034918	0.248636	-0.356201	0.099365	-0.672852
656.0	8.430526	-0.278281	3.411617	-0.408726	0.111795	0.198143	-0.367432	0.099121	-0.675049
657.0	8.096144	-0.535571	3.615783	-0.454463	0.151834	0.134607	-0.358643	0.10376	-0.668213
658.0	8.022884	-0.802232	3.52688	-0.435966	0.120629	0.073472	-0.361084	0.110352	-0.661621
659.0	8.073802	-0.883934	3.416461	-0.312974	0.056407	0.01841	-0.354492	0.112549	-0.66626
660.0	7.940272	-0.859012	3.267124	-0.255461	0.017775	-0.022841	-0.358887	0.114746	-0.66626
661.0	8.045491	-0.84744	3.093016	-0.260163	-0.001334	-0.048265	-0.356689	0.112549	-0.66626
662.0	8.136453	-0.85059	2.982201	-0.24032	-0.027056	-0.070905	-0.363525	0.116943	-0.664063
663.0	8.051737	-0.755608	2.746514	-0.158665	-0.008494	-0.09496	-0.361328	0.119141	-0.664307
664.0	7.885833	-0.465968	2.474065	-0.061034	0.009801	-0.113582	-0.361328	0.116943	-0.664063
665.0	7.823272	-0.19987	2.255019	-0.017764	-0.027906	-0.123744	-0.359131	0.119141	-0.666504
666.0	7.879972	-0.041565	1.99416	-0.052835	-0.057798	-0.114313	-0.356934	0.116943	-0.671143
667.0	8.045466	-0.018915	1.810807	-0.077901	-0.067652	-0.11298	-0.354492	0.114746	-0.670898
668.0	8.236109	0.144274	1.893841	-0.028265	-0.04295	-0.08958	-0.361328	0.119141	-0.671143
669.0	8.345664	0.182826	2.052009	-0.032628	-0.06765	-0.063909	-0.361328	0.119141	-0.666504
670.0	8.379911	0.028315	1.97032	-0.078007	-0.115878	-0.05262	-0.361572	0.123535	-0.668945
671.0	8.226508	-0.210057	1.967636	-0.065593	-0.098006	-0.07116	-0.36377	0.119141	-0.668945
672.0	8.280273	-0.412805	2.296433	-0.053923	-0.11826	-0.102728	-0.361572	0.121338	-0.666504
673.0	8.325433	-0.847699	2.4589	-0.101873	-0.200273	-0.168212	-0.361328	0.116943	-0.664063
674.0	8.627119	-1.20469	2.579494	-0.047834	-0.285754	-0.240528	-0.364014	0.130127	-0.666992
675.0	9.244686	-1.160964	2.763841	0.130389	-0.319835	-0.292475	-0.361328	0.116943	-0.654785
676.0	9.74295	-0.798889	2.784676	0.271075	-0.351144	-0.32636	-0.361328	0.116943	-0.661865
677.0	10.076682	-0.500853	2.728539	0.317651	-0.326901	-0.338315	-0.365723	0.114502	-0.652344
678.0	10.245348	-0.167633	2.742705	0.341979	-0.225605	-0.332415	-0.370117	0.110107	-0.652344
679.0	10.218251	0.137558	2.936003	0.361467	-0.152754	-0.289471	-0.365479	0.110107	-0.65918
680.0	10.019336	0.265767	2.867701	0.276332	-0.170135	-0.230921	-0.370361	0.114502	-0.650146
681.0	10.1398	0.211647	2.664396	0.136833	-0.257384	-0.164651	-0.376709	0.105713	-0.6521
682.0	10.781787	0.278974	2.387671	0.075999	-0.330602	-0.079328	-0.374756	0.114502	-0.652344
683.0	11.215736	0.54671	1.994726	0.143068	-0.298598	-0.008157	-0.372314	0.110107	-0.654541
684.0	11.966406	0.770156	2.12597	0.077623	-0.233803	0.087846	-0.376953	0.114502	-0.654785
685.0	12.247471	-0.149652	1.962933	-0.114021	-0.206092	0.168621	-0.372314	0.10791	-0.6521
686.0	12.804945	-1.104939	2.319665	-0.065512	-0.144266	0.246302	-0.376953	0.114502	-0.650146
687.0	13.193056	-1.598016	2.798813	0.117642	-0.072766	0.330695	-0.370361	0.114502	-0.640869
688.0	13.33675	-1.269115	3.060104	0.367427	-0.113118	0.419805	-0.381836	0.121094	-0.643311
689.0	12.956864	-0.359928	3.13913	0.471774	-0.098816	0.454425	-0.370605	0.123535	-0.655029
690.0	12.384467	0.006019	3.481782	0.229599	0.040905	0.475475	-0.379639	0.121094	-0.647949
691.0	11.977725	-0.00856	4.065774	-0.007823	0.198942	0.484529	-0.373047	0.12793	-0.652832
692.0	10.838139	0.540258	4.953147	0.179391	0.24032	0.471941	-0.368408	0.123535	-0.648193
693.0	9.892889	1.593981	5.837413	0.294496	0.081956	0.446508	-0.370605	0.125732	-0.648193
694.0	9.458588	2.19953	5.827722	0.170498	-0.155728	0.421045	-0.37793	0.136719	-0.648682
695.0	9.284695	1.894902	5.215319	0.02085	-0.266141	0.37427	-0.373291	0.134521	-0.648438
696.0	9.039545	0.997229	5.154175	-0.172453	-0.198409	0.324847	-0.373047	0.129883	-0.641357
697.0	8.621144	-0.210918	5.353667	-0.259615	-0.150847	0.305252	-0.373535	0.141113	-0.648682
698.0	8.887428	-1.322513	5.545523	-0.132384	-0.070038	0.348946	-0.378174	0.145508	-0.644287
699.0	9.350231	-1.362323	5.165956	0.358462	0.151889	0.358848	-0.371338	0.141113	-0.646484
700.0	9.119142	-0.065264	4.812532	0.907834	0.332854	0.355897	-0.371338	0.143311	-0.646484
701.0	8.815778	0.997534	4.647821	0.736741	0.330015	0.370818	-0.366699	0.138916	-0.650879
702.0	8.74992	0.895634	4.33411	0.28639	0.320147	0.39549	-0.366699	0.138916	-0.644043
703.0	9.163072	0.446648	4.569926	0.067757	0.298013	0.417089	-0.362305	0.138916	-0.64624
704.0	9.681936	0.51416	5.131456	0.185254	0.416473	0.475717	-0.364746	0.145508	-0.651367
705.0	10.053397	1.038447	5.661353	0.427283	0.453449	0.489854	-0.35791	0.141113	-0.655762
706.0	9.891388	1.75297	5.820909	0.416621	0.401524	0.428159	-0.358154	0.149902	-0.653809
707.0	9.936003	2.039835	5.772548	0.160467	0.13938	0.315222	-0.358154	0.147705	-0.656006
708.0	10.259501	1.544504	5.024043	-0.115335	-0.183615	0.178921	-0.35376	0.1521	-0.653809
709.0	10.019378	0.975182	3.916733	0.062119	-0.221864	0.023991	-0.353516	0.145508	-0.648926
710.0	9.500081	1.131981	4.013894	0.3092	-0.045995	-0.123412	-0.362305	0.138916	-0.644043
711.0	8.631849	0.841439	3.97231	0.080891	-0.029746	-0.25929	-0.353516	0.147705	-0.651367
712.0	8.538359	0.376617	3.811665	0.016581	-0.114993	-0.330247	-0.362549	0.147705	-0.651367
713.0	8.027231	0.114226	3.384751	0.13908	-0.025392	-0.380106	-0.355469	0.141113	-0.655762
714.0	7.748959	0.278383	3.750411	0.266555	0.137374	-0.37028	-0.364502	0.141113	-0.65332
715.0	7.78959	0.294717	4.018702	0.199096	0.147931	-0.341536	-0.364502	0.141113	-0.657959
716.0	7.833575	0.148154	3.950413	0.240113	0.119702	-0.29768	-0.359863	0.134521	-0.650879
717.0	8.124615	0.323458	3.744936	0.307684	0.110596	-0.262429	-0.362305	0.138916	-0.65332
718.0	8.568925	0.703415	3.721031	0.310563	0.161854	-0.244762	-0.355225	0.132324	-0.653076
719.0	8.440808	0.971668	3.591534	0.25503	0.211515	-0.230108	-0.353027	0.132324	-0.653076
720.0	8.138658	1.310063	3.475573	0.307889	0.254849	-0.19302	-0.359619	0.130127	-0.657715
721.0	7.98185	1.647575	3.497898	0.302984	0.233713	-0.131108	-0.355225	0.130127	-0.659912
722.0	8.039603	1.783664	3.548327	0.161641	0.207497	-0.066623	-0.352783	0.130127	-0.657715
723.0	8.013119	1.435286	3.459416	0.05278	0.20613	-0.002913	-0.352783	0.130127	-0.655273
724.0	8.087021	1.118327	3.31123	0.102421	0.212195	0.058789	-0.35083	0.134521	-0.660156
725.0	8.2904	0.955726	3.274174	0.130863	0.186104	0.093977	-0.346191	0.134521	-0.660156
726.0	8.472928	0.781704	2.993719	0.080324	0.113336	0.116763	-0.350586	0.132324	-0.660156
727.0	8.6783	0.669486	2.636717	0.057315	0.091743	0.130851	-0.341797	0.132324	-0.664795
728.0	9.003895	0.676804	2.457401	0.028323	0.146044	0.145546	-0.348633	0.136719	-0.660156
729.0	8.82726	0.723942	2.370409	0.034247	0.212603	0.142806	-0.343994	0.132324	-0.664795
730.0	8.580862	0.956059	2.283453	0.049085	0.230929	0.143675	-0.346436	0.136719	-0.664795
731.0	8.636195	1.014102	2.543369	-0.033	0.174122	0.166896	-0.339844	0.141113	-0.665039
732.0	8.309402	0.551193	2.434451	-0.112472	0.077965	0.176241	-0.344482	0.143311	-0.658203
733.0	7.867994	0.297519	2.452564	-0.005453	0.039146	0.182416	-0.335205	0.138916	-0.655762
734.0	7.685729	0.387731	2.662148	0.067378	0.018716	0.19151	-0.340088	0.147949	-0.662842
735.0	7.74803	0.396929	2.87597	0.00979	-0.097488	0.181913	-0.339844	0.145752	-0.662842
736.0	7.65548	0.421099	2.719335	0.11361	-0.224894	0.172129	-0.344727	0.152344	-0.660889
737.0	7.941379	0.840076	2.818082	0.163647	-0.341759	0.159165	-0.339844	0.141113	-0.6604
738.0	8.34671	1.028908	2.715489	0.066575	-0.425979	0.165433	-0.351074	0.143311	-0.658203
739.0	8.611362	0.995086	2.592098	0.018052	-0.40673	0.180291	-0.344482	0.147705	-0.653564
740.0	8.933815	0.985618	2.631663	0.022543	-0.353527	0.185793	-0.349121	0.149902	-0.651367
741.0	9.115859	1.234643	2.736658	0.078735	-0.32765	0.200751	-0.344727	0.1521	-0.64917
742.0	9.327149	1.394729	3.029806	0.088365	-0.329871	0.228343	-0.349121	0.1521	-0.653809
743.0	9.614424	1.268224	3.037769	0.027422	-0.405186	0.24458	-0.35376	0.149902	-0.651367
744.0	10.035621	1.115945	2.615787	0.057916	-0.45546	0.246473	-0.351807	0.160889	-0.651855
745.0	10.561204	1.214303	2.01975	0.101581	-0.418433	0.205364	-0.349365	0.154297	-0.653809
746.0	10.859374	1.525104	1.51995	0.076124	-0.325613	0.147789	-0.354004	0.158691	-0.644775
747.0	10.88933	1.749058	1.228388	-0.025193	-0.224405	0.081869	-0.351563	0.156494	-0.640137
748.0	10.862855	2.24639	1.427111	-0.121755	-0.107912	0.018122	-0.358887	0.165283	-0.649658
749.0	11.321676	2.577665	2.589581	-0.327596	0.013491	-0.048969	-0.354248	0.163086	-0.647217
750.0	11.847273	1.824062	3.586332	-0.632708	0.004884	-0.15316	-0.354492	0.169922	-0.654541
751.0	12.378956	0.222771	3.6842	-0.746846	-0.267042	-0.221193	-0.352295	0.169678	-0.642822
752.0	12.489417	-1.349264	3.025856	-0.509364	-0.383676	-0.265837	-0.361572	0.17627	-0.643066
753.0	12.532759	-1.552784	3.334048	0.23681	-0.07333	-0.349242	-0.354248	0.16748	-0.640381
754.0	12.031114	-0.574126	4.714165	0.623452	0.18646	-0.40145	-0.352295	0.172119	-0.649902
755.0	11.183998	-0.497333	5.638433	0.24963	0.059386	-0.36177	-0.352051	0.165283	-0.642822
756.0	10.513521	-1.316363	5.420998	0.000969	-0.223995	-0.286804	-0.354492	0.172119	-0.647705
757.0	10.217745	-0.899995	4.904339	0.516379	-0.251003	-0.239744	-0.356201	0.156494	-0.640137
758.0	9.764923	0.914199	4.932038	1.000068	-0.068801	-0.231785	-0.360596	0.1521	-0.644531
759.0	9.310734	2.37773	5.227813	0.757299	0.001107	-0.274048	-0.358154	0.149902	-0.639893
760.0	9.270746	2.439023	5.266595	0.094361	0.002938	-0.32459	-0.363037	0.156494	-0.642334
761.0	9.096984	1.295939	4.706434	-0.175749	0.051228	-0.409952	-0.358154	0.1521	-0.646973
762.0	9.054219	1.024221	4.916006	-0.012776	0.230781	-0.532562	-0.358398	0.154297	-0.646973
763.0	9.149914	0.829945	5.766619	-0.109033	0.433424	-0.678246	-0.35791	0.145508	-0.646729
764.0	8.92839	-0.607661	5.850229	-0.587336	0.344631	-0.799096	-0.358154	0.149902	-0.656006
765.0	9.621647	-1.469386	5.648848	-0.522996	0.304374	-0.878613	-0.355957	0.149902	-0.64917
766.0	10.544284	-0.756796	5.617916	0.207599	0.41465	-0.843342	-0.355957	0.1521	-0.646973
767.0	10.415348	0.5917	5.52583	0.48007	0.314999	-0.711611	-0.35083	0.136719	-0.657959
768.0	10.963206	1.459344	5.392134	0.089494	-0.011081	-0.492037	-0.35791	0.141113	-0.65332
769.0	11.204542	0.797139	4.859319	-0.224203	-0.301815	-0.231015	-0.348633	0.138916	-0.657959
770.0	11.196429	0.141727	4.320406	-0.109385	-0.247086	-0.027198	-0.35791	0.143311	-0.648926
771.0	10.399064	0.15821	4.044806	0.191555	-0.034225	0.113999	-0.355225	0.134521	-0.657715
772.0	9.70729	0.339713	4.300082	-0.023197	0.049527	0.174567	-0.360352	0.145508	-0.660645
773.0	9.311334	-0.075011	4.161196	-0.274676	0.034313	0.221845	-0.353271	0.143311	-0.648926
774.0	9.133554	-0.261195	4.029512	-0.188144	-0.009234	0.258046	-0.360352	0.147705	-0.651367
775.0	8.642401	0.019422	3.862181	-0.117867	0.018325	0.284367	-0.355957	0.1521	-0.651611
776.0	8.231021	0.091174	3.729767	-0.233112	0.027376	0.293461	-0.356201	0.158691	-0.656494
777.0	7.916999	-0.141192	3.60064	-0.28196	0.060093	0.284941	-0.351563	0.154297	-0.653809
778.0	7.976562	-0.224524	3.57302	-0.204721	0.077373	0.267413	-0.356201	0.158691	-0.654053
779.0	8.1384	-0.175866	3.642012	-0.111758	0.044258	0.261325	-0.354004	0.156494	-0.660889
780.0	7.694824	-0.322931	3.411396	-0.116517	0.108092	0.206607	-0.352051	0.165527	-0.656738
781.0	7.802854	-0.28387	3.491004	-0.08811	0.171451	0.160168	-0.349609	0.158691	-0.651855
782.0	7.916574	-0.205152	3.507818	-0.037084	0.126149	0.112992	-0.356445	0.165283	-0.654297
783.0	7.981605	-0.100649	3.406095	-0.054685	0.049312	0.059439	-0.349609	0.158691	-0.654053
784.0	7.934258	-0.151243	3.212183	-0.073951	0.026826	0.022881	-0.354492	0.169922	-0.661377
785.0	7.963339	-0.318796	3.152172	-0.082164	-0.024238	-0.015461	-0.351807	0.163086	-0.651855
786.0	7.989849	-0.428558	2.828873	-0.048004	-0.061256	-0.054495	-0.352051	0.165527	-0.663574
787.0	8.104918	-0.258668	2.626609	0.048131	-0.066309	-0.081942	-0.349609	0.16333	-0.658936
788.0	8.293595	-0.017012	2.486354	0.059568	-0.099771	-0.074239	-0.354492	0.169922	-0.661377
789.0	8.344151	-0.058781	2.137327	-0.011268	-0.133471	-0.078445	-0.352051	0.163086	-0.654297
790.0	8.49679	-0.012194	2.004471	0.029153	-0.092255	-0.091315	-0.358887	0.16748	-0.656738
791.0	8.694591	0.213094	2.059616	0.091128	-0.050311	-0.107178	-0.351807	0.161133	-0.66333
792.0	8.647742	0.261246	2.051613	0.059796	-0.060627	-0.138562	-0.354248	0.165283	-0.654297
793.0	8.983223	0.358665	2.091639	0.010795	-0.082337	-0.160097	-0.354004	0.158691	-0.656494
794.0	9.001405	0.29843	2.110189	-0.053792	-0.073128	-0.176903	-0.349854	0.165527	-0.656738
795.0	9.149707	0.362954	2.12304	-0.044046	-0.092242	-0.194413	-0.354248	0.163086	-0.654297
796.0	8.989548	0.450491	2.147965	-0.040203	-0.126926	-0.220029	-0.356445	0.165283	-0.658936
797.0	8.458361	0.509265	2.201231	-0.05905	-0.131989	-0.243718	-0.36084	0.158691	-0.654053
798.0	8.20779	0.457908	2.466407	-0.153971	-0.180463	-0.268222	-0.358643	0.160889	-0.656494
799.0	7.889301	0.202292	2.676903	-0.255674	-0.235322	-0.29244	-0.358398	0.158691	-0.654053
800.0	8.078122	-0.046544	2.800709	-0.276693	-0.279889	-0.315997	-0.36084	0.163086	-0.656494
801.0	8.489759	-0.168047	2.769927	-0.251865	-0.298066	-0.320499	-0.356445	0.160889	-0.651855
802.0	9.018916	-0.19277	2.739986	-0.250262	-0.285493	-0.290307	-0.36084	0.158691	-0.647217
803.0	9.496225	-0.297396	2.951044	-0.29056	-0.27336	-0.237892	-0.36084	0.163086	-0.647217
804.0	9.658461	-0.55163	2.96798	-0.355077	-0.267968	-0.173382	-0.372314	0.163086	-0.647217
805.0	9.782348	-0.906949	2.812674	-0.354975	-0.269025	-0.124981	-0.369873	0.163086	-0.647217
806.0	10.074542	-0.800533	2.621218	-0.247994	-0.261401	-0.082549	-0.372314	0.16748	-0.64502
807.0	10.259375	-0.620025	2.376194	-0.142784	-0.237753	-0.040921	-0.372314	0.16748	-0.642822
808.0	10.41429	-0.743343	1.972815	-0.098588	-0.244381	0.003959	-0.372314	0.16748	-0.642822
809.0	10.810603	-1.113065	1.516955	-0.004987	-0.280073	0.052668	-0.370117	0.16748	-0.64502
810.0	11.453312	-1.478429	1.417143	0.086163	-0.342729	0.117666	-0.374756	0.171875	-0.647461
811.0	12.067462	-1.820644	1.381972	0.169349	-0.399056	0.181782	-0.376709	0.165283	-0.640381
812.0	12.88567	-1.607039	1.745525	0.311597	-0.346484	0.265411	-0.381592	0.169678	-0.647461
813.0	13.360878	-0.90854	2.003333	0.46243	-0.286033	0.349366	-0.376709	0.163086	-0.64502
814.0	13.597297	0.521832	2.183851	0.585439	-0.149057	0.376267	-0.381592	0.169678	-0.642822
815.0	12.98857	1.677488	2.891658	0.311576	0.091817	0.368541	-0.383545	0.165283	-0.647217
816.0	12.322294	1.75302	3.881397	-0.224115	0.165912	0.370677	-0.374756	0.16748	-0.647461
817.0	12.009758	1.953364	4.478294	-0.205311	0.17943	0.340425	-0.376953	0.169678	-0.647461
818.0	11.155913	2.775714	5.323396	0.066353	0.164295	0.316846	-0.375	0.17627	-0.645508
819.0	10.071581	2.869702	5.668122	-0.018972	-0.031874	0.30568	-0.372559	0.171875	-0.642822
820.0	9.383124	1.942332	5.318524	-0.216031	-0.295601	0.287338	-0.379395	0.17627	-0.645508
821.0	9.343045	0.62933	4.785184	-0.428586	-0.296069	0.277258	-0.372803	0.180664	-0.652588
822.0	9.109965	-0.441621	4.148273	-0.389322	-0.145179	0.294153	-0.377686	0.185059	-0.643311
823.0	9.166772	-0.85037	4.128397	-0.190646	0.049432	0.316132	-0.375244	0.180664	-0.640869
824.0	9.175813	-1.063089	4.643393	-0.127332	0.289461	0.320511	-0.377686	0.189453	-0.655273
825.0	8.918998	-1.520632	4.887675	-0.142785	0.39613	0.337842	-0.371094	0.189453	-0.650635
826.0	9.254556	-0.828711	5.025128	0.219723	0.426138	0.342934	-0.377686	0.187256	-0.655029
827.0	9.219928	0.678062	4.929507	0.639471	0.463176	0.360272	-0.364014	0.180664	-0.645508
828.0	9.488373	1.835449	4.85424	0.488366	0.475717	0.386679	-0.366455	0.185303	-0.662109
829.0	9.557107	2.162358	4.584489	0.076067	0.477838	0.435161	-0.361816	0.183105	-0.657227
830.0	10.21018	2.167553	5.165009	-0.226568	0.636455	0.483864	-0.359619	0.1875	-0.659668
831.0	10.7485	1.757208	5.794962	-0.408414	0.635373	0.435555	-0.353027	0.191895	-0.659912
832.0	10.542107	1.363363	5.838981	-0.235409	0.326639	0.308968	-0.351318	0.200684	-0.664795
833.0	10.084795	1.239075	5.191006	-0.083799	-0.066497	0.167275	-0.353271	0.194092	-0.662354
834.0	10.02291	1.279575	4.297729	-0.046079	-0.180578	0.034061	-0.353516	0.200684	-0.664795
835.0	10.105636	0.840634	3.906935	-0.21454	-0.114097	-0.098442	-0.353271	0.198486	-0.657959
836.0	9.938509	0.256702	3.567567	-0.241998	-0.050496	-0.228658	-0.362549	0.200684	-0.667236
837.0	8.862549	0.186006	3.268185	0.025141	0.058733	-0.316328	-0.355469	0.191895	-0.666992
838.0	8.029678	0.581026	3.494494	0.165859	0.130898	-0.339261	-0.360107	0.198486	-0.664795
839.0	7.775788	0.637426	3.512195	-0.011603	0.054587	-0.351018	-0.355469	0.196289	-0.660156
840.0	7.757708	0.193941	3.345198	-0.099103	0.04952	-0.361224	-0.357666	0.196289	-0.666992
841.0	7.790766	0.088934	3.277748	0.051311	0.123679	-0.37085	-0.359863	0.191895	-0.664551
842.0	7.714529	0.470555	3.402401	0.198455	0.196911	-0.358622	-0.364258	0.191895	-0.669189
843.0	8.147396	0.926423	3.607253	0.113509	0.155362	-0.331982	-0.362061	0.1875	-0.673584
844.0	8.305035	0.974475	3.312083	0.034688	0.092514	-0.314031	-0.359619	0.1875	-0.676025
845.0	8.243479	1.128433	3.03121	0.146749	0.148344	-0.271062	-0.359619	0.183105	-0.671143
846.0	8.241045	1.469505	3.020742	0.189938	0.223702	-0.202992	-0.364014	0.183105	-0.675781
847.0	8.264648	1.496307	3.043833	0.015867	0.17008	-0.141278	-0.357178	0.180908	-0.68042
848.0	8.261411	1.100067	2.796099	-0.081981	0.154291	-0.076553	-0.359619	0.183105	-0.675781
849.0	8.267006	0.824192	2.59217	0.016709	0.146518	-0.006645	-0.352539	0.176514	-0.684814
850.0	8.198372	0.744872	2.447497	0.05316	0.118187	0.046815	-0.357422	0.185303	-0.680664
851.0	8.267761	0.557836	2.252297	0.028619	0.062969	0.089722	-0.354736	0.176514	-0.675537
852.0	8.293736	0.517711	1.984531	0.064021	0.017255	0.117404	-0.357178	0.183105	-0.678223
853.0	8.297357	0.663568	1.801792	0.137827	0.016815	0.15599	-0.357178	0.180908	-0.68042
854.0	8.418898	0.783145	1.692121	0.120825	0.01614	0.197776	-0.357422	0.185303	-0.678223
855.0	8.705217	0.64766	1.728615	0.075894	0.018586	0.239479	-0.355225	0.1875	-0.678467
856.0	8.761213	0.419404	1.680664	0.117485	-0.008085	0.244828	-0.357178	0.183105	-0.682861
857.0	8.602722	0.373691	1.890618	0.246367	-0.037434	0.255907	-0.354736	0.176514	-0.677979
858.0	8.291422	0.261038	2.051835	0.298789	-0.086917	0.280231	-0.357422	0.189697	-0.683105
859.0	7.912669	-0.07925	2.010244	0.281544	-0.116233	0.303795	-0.35498	0.180908	-0.68042
860.0	8.04323	-0.328645	2.110524	0.328503	-0.126649	0.327038	-0.352783	0.185303	-0.678223
861.0	7.943716	-0.288219	2.21685	0.492905	-0.120724	0.337702	-0.354736	0.178711	-0.68042
862.0	7.774221	0.195926	2.56262	0.628098	-0.145887	0.346419	-0.352539	0.178711	-0.685059
863.0	8.007161	0.835201	2.843196	0.576166	-0.246735	0.355121	-0.350342	0.176514	-0.682617
864.0	8.808337	1.252377	2.865797	0.418332	-0.330391	0.358065	-0.361328	0.174316	-0.680176
865.0	9.621648	1.607249	2.67558	0.369211	-0.311217	0.343301	-0.359131	0.172119	-0.682373
866.0	9.878957	2.093234	2.590635	0.406684	-0.214242	0.335782	-0.359131	0.174316	-0.682617
867.0	9.974993	2.498101	2.587349	0.314028	-0.214279	0.33237	-0.361328	0.174316	-0.680176
868.0	10.354553	2.445464	2.267509	0.109264	-0.306406	0.321876	-0.361572	0.180908	-0.675781
869.0	10.762321	1.861208	1.67875	0.010557	-0.337311	0.288336	-0.363525	0.172119	-0.680176
870.0	11.053493	1.467489	1.201435	0.01462	-0.306152	0.225985	-0.364014	0.180908	-0.682861
871.0	11.137787	1.362597	0.658874	0.002686	-0.256184	0.141219	-0.361572	0.180908	-0.678223
872.0	11.186454	1.713106	0.428991	-0.027766	-0.163646	0.047839	-0.364014	0.180908	-0.6875
873.0	11.341182	2.525518	1.131108	-0.111412	0.014659	-0.041744	-0.370361	0.174072	-0.675537
874.0	12.052512	2.698023	2.773175	-0.498437	0.160169	-0.164979	-0.368164	0.176514	-0.684814
875.0	12.732282	1.517663	3.58252	-0.868362	0.033563	-0.29435	-0.366455	0.185303	-0.678223
876.0	13.211514	-0.371524	3.316555	-0.922977	-0.145722	-0.377281	-0.366455	0.189697	-0.678467
877.0	13.354559	-1.221936	3.361821	-0.295483	0.048924	-0.462715	-0.366455	0.1875	-0.678223
878.0	12.664756	-0.33583	4.773893	0.484414	0.384921	-0.513894	-0.364014	0.183105	-0.685059
879.0	11.636348	0.184807	6.019906	0.283221	0.293839	-0.469617	-0.36377	0.178711	-0.685059
880.0	10.763906	-0.8503	5.889432	-0.297881	-0.048321	-0.391714	-0.368652	0.183105	-0.685059
881.0	9.982242	-1.697113	5.409858	-0.016361	-0.094181	-0.310561	-0.370605	0.178711	-0.687256
882.0	9.152638	-0.443143	5.675054	0.712834	0.077389	-0.269375	-0.368164	0.174316	-0.689453
883.0	8.297376	1.151085	6.001217	0.735118	0.052791	-0.278346	-0.370361	0.172119	-0.689453
884.0	8.119515	1.327592	5.716322	0.124146	-0.083574	-0.287571	-0.370361	0.174316	-0.689453
885.0	8.404675	0.344626	4.843528	-0.153167	-0.040864	-0.317068	-0.372314	0.16748	-0.68457
886.0	8.790082	0.538335	4.700138	0.14583	0.238291	-0.385519	-0.370117	0.165283	-0.691406
887.0	8.75859	0.494524	5.298038	0.035132	0.404789	-0.466969	-0.369873	0.163086	-0.686768
888.0	8.626588	-0.827568	5.112543	-0.435247	0.331486	-0.549909	-0.372314	0.163086	-0.686768
889.0	9.08065	-1.621856	4.878926	-0.318602	0.363949	-0.638179	-0.365723	0.167725	-0.693848
890.0	10.165316	-0.719694	5.124694	0.262685	0.447365	-0.646479	-0.365479	0.161133	-0.698242
891.0	10.697902	0.703048	5.33272	0.426155	0.311602	-0.568728	-0.362793	0.154541	-0.695801
892.0	10.815921	1.102768	5.056614	0.080531	0.059537	-0.412619	-0.367188	0.149902	-0.697754
893.0	11.498651	0.634965	4.928557	-0.121475	-0.122022	-0.17387	-0.376221	0.1521	-0.697998
894.0	11.383199	0.197094	4.723816	0.060576	-0.216107	0.052894	-0.37207	0.156494	-0.695801
895.0	10.426807	0.233902	4.164387	0.268881	-0.204132	0.198569	-0.367432	0.156494	-0.691162
896.0	9.708416	0.327829	3.83269	0.049143	-0.073438	0.247645	-0.369629	0.156494	-0.691162
897.0	9.252538	0.059124	3.88793	-0.131909	0.141964	0.260757	-0.367432	0.156494	-0.693359
898.0	8.913548	0.087115	4.272194	-0.071347	0.131997	0.284936	-0.365234	0.156494	-0.695801
899.0	8.552217	0.216574	4.016923	-0.096338	-0.06301	0.299444	-0.37207	0.160889	-0.698242
900.0	8.497108	0.166758	3.44252	-0.175994	-0.127501	0.301868	-0.365723	0.167725	-0.696289
901.0	8.376297	0.052373	3.062057	-0.212437	0.010939	0.278281	-0.370117	0.165283	-0.691406
902.0	8.330591	-0.063817	3.278268	-0.205084	0.160411	0.272717	-0.372314	0.167725	-0.698486
903.0	8.284524	-0.105779	3.546913	-0.201571	0.122172	0.250594	-0.365967	0.172119	-0.700928
904.0	7.95278	-0.347817	3.347911	-0.152525	0.109723	0.223343	-0.370605	0.176514	-0.69873
905.0	8.144071	-0.319384	3.259211	-0.054245	0.072121	0.178597	-0.365967	0.172119	-0.69873
906.0	8.083782	-0.300249	3.01094	-0.068717	0.11646	0.121716	-0.368408	0.180908	-0.701416
907.0	8.05881	-0.138945	3.046578	-0.062902	0.159442	0.078324	-0.36377	0.174316	-0.701172
908.0	8.032458	0.045758	3.138633	-0.052187	0.109958	0.029949	-0.370361	0.174316	-0.708008
909.0	7.884781	0.175629	2.905959	-0.049877	0.065469	-0.011148	-0.368164	0.176514	-0.696533
910.0	7.776128	0.193563	2.658041	-0.054544	0.02625	-0.056657	-0.365967	0.174316	-0.710449
911.0	7.95818	0.217778	2.287759	-0.083915	-0.036601	-0.090392	-0.366211	0.178711	-0.701172
912.0	8.016048	-0.02157	1.843841	-0.141852	-0.030492	-0.109187	-0.368164	0.174316	-0.705811
913.0	8.122845	-0.299466	1.690124	-0.169714	0.008154	-0.126768	-0.370361	0.172119	-0.69165
914.0	8.172147	-0.506645	1.68057	-0.143477	0.012764	-0.139118	-0.370361	0.174316	-0.696533
915.0	8.418313	-0.318388	1.743887	-0.012501	-0.020528	-0.146278	-0.368164	0.174316	-0.705811
916.0	8.388572	-0.014267	1.588703	0.055947	-0.067939	-0.161393	-0.379639	0.176514	-0.696533
917.0	8.875908	0.171824	1.726972	-0.021756	-0.144637	-0.154116	-0.370605	0.176514	-0.69873
918.0	8.789269	0.029297	1.66563	-0.138274	-0.213876	-0.148482	-0.377197	0.176514	-0.701172
919.0	8.574334	-0.042743	1.729486	-0.032384	-0.257896	-0.143984	-0.374756	0.169922	-0.696289
920.0	8.22573	0.145436	2.081867	0.039528	-0.228809	-0.16149	-0.377197	0.174316	-0.691895
921.0	8.189872	0.354676	2.50152	-0.067626	-0.220805	-0.175449	-0.379395	0.171875	-0.696289
922.0	7.980492	-0.111396	2.603978	-0.245337	-0.274172	-0.198191	-0.38623	0.174072	-0.694092
923.0	8.108736	-0.688114	2.617876	-0.258598	-0.342889	-0.225744	-0.384033	0.174072	-0.694092
924.0	8.890304	-0.764458	2.747296	-0.126156	-0.367029	-0.241101	-0.393066	0.17627	-0.691895
925.0	9.579695	-0.514026	2.756352	-0.026952	-0.31666	-0.218518	-0.388184	0.169678	-0.693848
926.0	9.564424	-0.547579	2.664609	-0.108995	-0.185173	-0.199165	-0.397461	0.17627	-0.691895
927.0	9.604902	-0.774254	2.592324	-0.166374	-0.105749	-0.173044	-0.390381	0.16748	-0.693848
928.0	9.788524	-0.645024	2.365997	-0.12768	-0.131238	-0.141303	-0.397461	0.174072	-0.69165
929.0	10.206441	-0.254139	1.958463	-0.100192	-0.206057	-0.092219	-0.390625	0.169678	-0.682373
930.0	10.830044	0.059195	1.477094	-0.112533	-0.219048	-0.028731	-0.397461	0.171875	-0.69165
931.0	11.457774	-0.062455	1.087258	-0.139435	-0.233344	0.03918	-0.399902	0.17627	-0.680176
932.0	12.076507	-0.538598	0.728418	-0.112104	-0.268044	0.101642	-0.406738	0.178467	-0.685059
933.0	12.557726	-1.176943	0.935869	-0.120717	-0.246426	0.161309	-0.397461	0.171875	-0.680176
934.0	12.924578	-1.68322	1.531929	-0.109589	-0.141274	0.20498	-0.406494	0.174072	-0.680176
935.0	12.990257	-1.608036	2.230353	0.149925	-0.023123	0.261776	-0.397461	0.174072	-0.684814
936.0	12.984043	-0.880884	2.750458	0.363239	-0.070134	0.324918	-0.402344	0.180664	-0.682617
937.0	12.883864	0.154591	2.859516	0.311956	-0.107654	0.325337	-0.399658	0.174072	-0.680176
938.0	12.396494	0.620791	3.284401	-0.083727	0.076993	0.320596	-0.404297	0.17627	-0.684814
939.0	11.890409	0.723124	4.212955	-0.28193	0.234853	0.328992	-0.404297	0.17627	-0.684814
940.0	10.959169	1.440436	4.964355	0.020776	0.205474	0.321212	-0.399902	0.180664	-0.689697
941.0	10.135736	2.513148	5.544848	0.153512	-0.031324	0.3087	-0.404297	0.174072	-0.682373
942.0	10.050532	2.643902	5.43791	-0.181812	-0.255936	0.277794	-0.406982	0.185059	-0.6875
943.0	9.998969	1.412786	5.057137	-0.482238	-0.216442	0.234602	-0.404541	0.182861	-0.682861
944.0	9.322329	0.272462	4.844758	-0.424248	-0.094437	0.214306	-0.40918	0.187256	-0.682861
945.0	9.045057	0.137803	4.914916	-0.157035	-0.065394	0.215172	-0.402344	0.182861	-0.685059
946.0	9.583985	-0.305729	5.490293	-0.326117	0.058582	0.27843	-0.407227	0.19165	-0.683105
947.0	9.98051	-0.833551	4.937128	-0.251017	0.264974	0.302949	-0.402832	0.193848	-0.678467
948.0	9.741611	0.306812	4.852218	0.488631	0.452733	0.293949	-0.400635	0.193848	-0.687744
949.0	9.611484	1.586617	5.041658	0.488099	0.467375	0.316664	-0.400146	0.185059	-0.6875
950.0	9.590194	1.453261	4.764113	-0.021051	0.268792	0.348627	-0.395996	0.19165	-0.687744
951.0	9.869788	0.698382	4.611397	-0.330098	0.190759	0.361643	-0.398193	0.193848	-0.692383
952.0	9.698316	0.406784	4.582689	-0.07944	0.417562	0.408813	-0.393799	0.196289	-0.692627
953.0	9.833216	0.570581	5.507147	0.048394	0.582945	0.404186	-0.391602	0.196289	-0.690186
954.0	10.068409	0.55672	6.111177	-0.110781	0.363398	0.29481	-0.389648	0.200684	-0.699707
955.0	10.117029	0.133592	5.415087	-0.043753	-0.048158	0.149635	-0.391357	0.191895	-0.697021
956.0	10.02156	0.486737	4.125489	0.308335	-0.19567	0.007782	-0.400391	0.19165	-0.692383
957.0	9.755631	1.129779	3.67924	0.403317	0.001328	-0.127322	-0.393555	0.185059	-0.699219
958.0	9.496891	1.305997	3.746128	0.124488	0.051625	-0.250631	-0.398193	0.189453	-0.697021
959.0	8.668099	0.847355	3.511836	0.04023	0.027215	-0.337683	-0.395752	0.185059	-0.699219
960.0	8.123465	0.805161	3.481857	0.233626	0.031782	-0.378072	-0.397949	0.182861	-0.698975
961.0	7.49815	0.894116	3.2648	0.312783	0.091119	-0.382412	-0.397705	0.178467	-0.701172
962.0	7.466992	0.798824	3.438535	0.204602	0.133523	-0.348589	-0.4021	0.178467	-0.691895
963.0	7.938758	0.485202	3.458072	0.051503	0.073919	-0.338928	-0.404053	0.169678	-0.693848
964.0	8.057895	0.310835	3.344114	0.200136	0.104484	-0.302935	-0.401855	0.16748	-0.703125
965.0	8.27733	0.690914	3.388943	0.264947	0.124422	-0.273317	-0.390381	0.165283	-0.698486
966.0	8.342344	0.992097	3.245351	0.198658	0.104494	-0.241552	-0.401611	0.165283	-0.698486
967.0	8.294561	1.156734	3.037017	0.185591	0.116017	-0.19101	-0.396973	0.158691	-0.698242
968.0	8.156472	1.394255	3.023319	0.221888	0.177758	-0.12367	-0.401367	0.160889	-0.700439
969.0	8.243686	1.473089	3.172905	0.16159	0.177772	-0.037079	-0.398926	0.156494	-0.700439
970.0	8.187493	1.319777	3.057182	0.071508	0.140777	0.030404	-0.39917	0.160889	-0.700439
971.0	8.303384	0.984735	2.909234	0.074453	0.130952	0.113132	-0.39917	0.158691	-0.700439
972.0	8.424176	0.726835	2.722609	0.114254	0.121196	0.16756	-0.394531	0.158691	-0.705078
973.0	8.367492	0.513325	2.524749	0.143209	0.109751	0.194518	-0.394531	0.158691	-0.70752
974.0	8.438959	0.630633	2.247836	0.205573	0.097613	0.197452	-0.396729	0.156494	-0.709717
975.0	8.556632	0.870992	2.159681	0.23442	0.078191	0.19707	-0.394531	0.154297	-0.709717
976.0	8.680963	1.135652	2.093017	0.192856	0.079228	0.192781	-0.396729	0.154297	-0.709717
977.0	8.613009	1.173731	1.877148	0.167711	0.079794	0.195062	-0.396729	0.154297	-0.705078
978.0	8.552698	1.27229	1.85277	0.20288	0.122305	0.207605	-0.396484	0.149902	-0.707031
979.0	8.70558	1.203091	2.115441	0.160842	0.075188	0.23059	-0.401123	0.149902	-0.709473
980.0	8.640323	0.845069	2.243217	0.081339	-0.078952	0.259208	-0.401367	0.156494	-0.714355
981.0	8.176768	0.518247	2.085909	0.20906	-0.127896	0.302991	-0.396484	0.147705	-0.709473
982.0	7.976981	0.451334	2.201084	0.274556	-0.153212	0.33872	-0.40332	0.149902	-0.704834
983.0	8.039839	0.413206	2.266883	0.230473	-0.2053	0.363951	-0.403564	0.154297	-0.704834
984.0	8.124067	0.408792	2.2843	0.212851	-0.256458	0.34797	-0.407715	0.149902	-0.707031
985.0	8.152712	0.704486	2.507865	0.325799	-0.230159	0.33606	-0.405518	0.149902	-0.707031
986.0	8.378772	1.228938	2.81904	0.327162	-0.217513	0.330635	-0.407959	0.156494	-0.705078
987.0	8.955886	1.548657	3.045787	0.174431	-0.248275	0.325253	-0.405273	0.145508	-0.699951
988.0	9.503962	1.736602	3.156206	0.127178	-0.260263	0.30045	-0.407715	0.147705	-0.70459
989.0	9.571566	1.979973	3.156387	0.179963	-0.248204	0.278355	-0.407715	0.147705	-0.697754
990.0	9.573678	2.083422	3.123066	0.132572	-0.288952	0.250605	-0.409912	0.147705	-0.70459
991.0	9.753263	1.783959	2.663227	0.039499	-0.344093	0.214055	-0.410156	0.1521	-0.700195
992.0	10.125249	1.636877	1.884767	0.056061	-0.345386	0.15598	-0.418945	0.147461	-0.695313
993.0	10.467678	1.721326	1.039642	0.034925	-0.329401	0.077022	-0.418945	0.145264	-0.695313
994.0	10.773754	1.895752	0.324017	-0.085786	-0.307747	0.012123	-0.427734	0.143066	-0.695313
995.0	10.919603	2.078335	-0.256645	-0.204624	-0.27131	-0.049988	-0.425781	0.147461	-0.690674
996.0	11.274817	2.699811	0.170311	-0.337513	-0.106444	-0.083566	-0.427979	0.147461	-0.693115
997.0	12.115162	2.72736	2.269764	-0.693897	0.178228	-0.124121	-0.428223	0.151855	-0.693359
998.0	12.825195	0.768553	3.537425	-1.175555	-0.037434	-0.188328	-0.428223	0.15625	-0.686523
999.0	13.568924	-2.296922	3.002501	-1.240618	-0.39485	-0.237673	-0.428223	0.15625	-0.686523
1000.0	13.710271	-4.092076	2.210393	-0.219123	-0.218275	-0.363711	-0.430664	0.158447	-0.693604
1001.0	13.140968	-2.341083	3.946832	1.002599	0.385216	-0.449579	-0.432373	0.143066	-0.692871
1002.0	11.822105	-1.101037	5.963587	0.772272	0.444037	-0.456894	-0.432129	0.136475	-0.695068
1003.0	10.638037	-1.295678	6.200875	0.184365	-0.056802	-0.41889	-0.431885	0.134277	-0.694824
1004.0	9.993313	-1.107401	5.879307	0.584866	-0.218667	-0.391765	-0.431885	0.134277	-0.694824
1005.0	9.436993	0.519602	5.644451	1.088596	-0.111817	-0.420604	-0.431396	0.118896	-0.689697
1006.0	9.004011	2.146179	5.325005	0.901304	-0.049329	-0.478858	-0.431152	0.116699	-0.694336
1007.0	8.921577	2.622467	5.103343	0.27148	0.087256	-0.47865	-0.435547	0.109863	-0.69165
1008.0	8.747222	1.663387	4.967128	-0.069109	0.247414	-0.511536	-0.435547	0.114502	-0.696533
1009.0	8.7292	1.224403	5.379182	-0.00371	0.395286	-0.57906	-0.433105	0.105469	-0.696045
1010.0	8.921869	1.009298	5.864943	-0.118697	0.437026	-0.690396	-0.432861	0.101074	-0.698242
1011.0	9.314287	-0.257013	5.67102	-0.554933	0.36784	-0.793866	-0.428223	0.099121	-0.702881
1012.0	11.133793	-0.640235	5.56408	-0.450666	0.393417	-0.8248	-0.428223	0.098877	-0.700684
1013.0	11.636744	-0.407322	5.232734	0.016146	0.434708	-0.772971	-0.425537	0.087891	-0.700195
1014.0	11.793496	0.099528	5.280491	0.039176	0.309365	-0.618649	-0.432617	0.092285	-0.700195
1015.0	11.867942	-0.199011	5.216784	-0.195184	0.08408	-0.375256	-0.425293	0.083496	-0.702393
1016.0	11.550476	-0.591094	4.72399	0.023466	-0.057239	-0.115847	-0.430176	0.092285	-0.707275
1017.0	10.541875	-0.128467	4.232179	0.38673	-0.05983	0.05205	-0.429932	0.085693	-0.702393
1018.0	9.408077	0.333419	4.080668	0.165015	0.115286	0.133544	-0.429932	0.085693	-0.697754
1019.0	9.191059	0.595298	4.268279	-0.120383	0.166914	0.184134	-0.429932	0.085693	-0.707031
1020.0	8.607202	0.739297	4.119898	-0.108651	0.103538	0.228572	-0.430176	0.087891	-0.709473
1021.0	8.208596	1.140579	3.786926	-0.168614	-0.000756	0.251008	-0.427979	0.092285	-0.702637
1022.0	7.577344	0.901419	3.228533	-0.375633	0.055255	0.262041	-0.43042	0.094482	-0.709717
1023.0	7.835762	0.697941	3.248654	-0.463379	0.136022	0.276606	-0.430664	0.099121	-0.712158
1024.0	7.622381	0.357238	3.230354	-0.492127	0.196591	0.287213	-0.428467	0.105713	-0.707764
1025.0	7.515425	0.088531	3.423604	-0.498548	0.231963	0.286832	-0.42627	0.103516	-0.705322
1026.0	7.318404	-0.327551	3.484381	-0.511713	0.233663	0.241946	-0.428711	0.10791	-0.707764
1027.0	7.199402	-0.661241	3.285024	-0.416774	0.254725	0.18718	-0.424316	0.110107	-0.705566
1028.0	7.387658	-0.784932	3.166834	-0.281098	0.292853	0.116357	-0.422119	0.112305	-0.715088
1029.0	7.704707	-0.69433	3.238201	-0.209874	0.260253	0.057575	-0.422363	0.116699	-0.712891
1030.0	7.839762	-0.84744	3.099843	-0.200583	0.200754	0.013006	-0.424316	0.114502	-0.712646
1031.0	8.097424	-0.904314	2.962433	-0.137847	0.112243	-0.02562	-0.419922	0.112305	-0.715088
1032.0	8.09009	-0.789973	2.590293	0.000672	0.00349	-0.053194	-0.422119	0.114502	-0.710449
1033.0	8.080337	-0.507403	2.113267	0.078232	-0.075891	-0.073372	-0.417725	0.114502	-0.708008
1034.0	8.388269	-0.191096	1.868612	0.05535	-0.105658	-0.087986	-0.426514	0.110107	-0.712646
1035.0	8.513686	-0.043642	1.659577	0.037398	-0.116929	-0.084631	-0.424072	0.105713	-0.710205
1036.0	8.671505	0.091042	1.685783	0.024987	-0.157763	-0.086089	-0.435547	0.112305	-0.717285
1037.0	8.686222	-0.035141	1.507186	-0.005058	-0.176006	-0.11311	-0.426514	0.10791	-0.714844
1038.0	9.34922	0.267899	1.612528	0.069721	-0.161004	-0.129343	-0.43335	0.110107	-0.708008
1039.0	9.48315	0.579586	1.659571	0.103821	-0.143671	-0.122898	-0.433105	0.105713	-0.717041
1040.0	9.257296	0.495323	1.561706	0.022047	-0.177841	-0.109461	-0.442383	0.110107	-0.712646
1041.0	8.761578	0.137893	1.683585	-0.086183	-0.154034	-0.123796	-0.4375	0.101074	-0.70752
1042.0	8.731564	0.088286	2.153857	-0.046682	-0.148486	-0.151202	-0.444336	0.103271	-0.705322
1043.0	8.200881	0.057696	2.523195	-0.04626	-0.183897	-0.183654	-0.435059	0.098877	-0.702881
1044.0	8.004287	-0.097227	2.703899	-0.122129	-0.230171	-0.224916	-0.441895	0.103271	-0.707764
1045.0	8.265537	-0.294969	2.838308	-0.13013	-0.294725	-0.243841	-0.444092	0.09668	-0.70752
1046.0	8.901497	-0.119418	3.158129	-0.090567	-0.348945	-0.231396	-0.450684	0.09668	-0.705078
1047.0	8.978797	-0.148993	3.295808	-0.141326	-0.265069	-0.229415	-0.450439	0.092285	-0.702637
1048.0	9.230218	-0.274916	3.459443	-0.150568	-0.119965	-0.216583	-0.455078	0.094482	-0.700439
1049.0	9.095588	-0.676017	3.436479	-0.198657	-0.08244	-0.207243	-0.448486	0.09668	-0.702881
1050.0	9.308474	-0.706118	3.098553	-0.170328	-0.145072	-0.201411	-0.452881	0.094482	-0.702637
1051.0	9.667473	-0.412537	2.485521	-0.063249	-0.190941	-0.170184	-0.448242	0.092285	-0.697998
1052.0	10.205083	-0.333028	1.80711	-0.026566	-0.223057	-0.116533	-0.457275	0.090088	-0.700195
1053.0	10.782286	-0.694161	1.172297	0.031417	-0.275495	-0.032107	-0.452881	0.092285	-0.704834
1054.0	11.564784	-1.11134	0.89554	0.06252	-0.330088	0.06349	-0.464355	0.09668	-0.702881
1055.0	12.265469	-1.666244	0.967039	0.026855	-0.311929	0.161717	-0.466064	0.087891	-0.693115
1056.0	13.02525	-1.974476	1.437564	0.105191	-0.252188	0.266432	-0.466309	0.094482	-0.697998
1057.0	13.539397	-1.299369	2.022937	0.467129	-0.191519	0.375757	-0.466309	0.090088	-0.697998
1058.0	13.59085	0.081754	2.24837	0.735758	-0.160997	0.4411	-0.4729	0.090088	-0.697998
1059.0	13.389374	1.732654	2.255961	0.68518	-0.007818	0.438449	-0.468262	0.085693	-0.702393
1060.0	12.648365	1.871067	2.931849	-0.080716	0.200629	0.449124	-0.468506	0.090088	-0.704834
1061.0	12.424079	0.531831	4.194917	-0.633523	0.334252	0.452342	-0.464111	0.090088	-0.702637
1062.0	11.60589	0.334641	5.264516	-0.164794	0.314534	0.42315	-0.464355	0.098877	-0.700439
1063.0	10.632542	1.948292	5.908236	0.350628	0.061912	0.374847	-0.466309	0.094482	-0.705078
1064.0	10.563892	2.862954	5.56159	0.046837	-0.156392	0.327765	-0.466553	0.098877	-0.702881
1065.0	10.595333	2.069357	5.179238	-0.272224	-0.106979	0.294765	-0.468994	0.103271	-0.703125
1066.0	9.890974	1.152639	5.63592	-0.311504	0.033236	0.255663	-0.471436	0.107666	-0.703125
1067.0	8.841659	0.653873	5.834913	-0.181978	-0.02368	0.240303	-0.467041	0.107666	-0.703125
1068.0	8.879826	0.451414	5.823293	-0.163749	-0.134098	0.275655	-0.473633	0.105469	-0.703125
1069.0	9.535779	-0.361245	5.140266	-0.318296	-0.023876	0.323323	-0.471436	0.105469	-0.707764
1070.0	9.566034	-0.136868	4.583944	0.1294	0.327438	0.323579	-0.467529	0.118652	-0.710449
1071.0	8.930822	0.752457	4.916211	0.375023	0.521174	0.319883	-0.464844	0.109863	-0.717285
1072.0	8.650358	0.976214	4.84056	0.086123	0.411524	0.344526	-0.47168	0.109863	-0.712646
1073.0	9.124686	0.476961	4.59748	-0.203978	0.188238	0.367889	-0.467041	0.109863	-0.712646
1074.0	9.717274	0.155603	4.345574	-0.130216	0.161062	0.379561	-0.469727	0.12085	-0.708252
1075.0	9.428964	0.597582	4.163492	0.178967	0.3447	0.403953	-0.462646	0.112061	-0.710205
1076.0	9.27098	1.127392	4.99935	0.097335	0.503185	0.413252	-0.465088	0.118652	-0.717529
1077.0	9.601418	0.699002	5.510948	-0.416335	0.300832	0.315865	-0.456055	0.116455	-0.715088
1078.0	9.889621	-0.258499	5.058969	-0.413398	0.005895	0.190264	-0.463135	0.125244	-0.715332
1079.0	9.690934	-0.094184	4.07892	0.200995	-0.055322	0.062035	-0.463135	0.125244	-0.720215
1080.0	9.267964	1.163177	4.0051	0.560887	0.113639	-0.070321	-0.465088	0.118652	-0.724609
1081.0	8.845344	1.762646	3.996039	0.219369	0.058082	-0.183799	-0.465088	0.114258	-0.717285
1082.0	8.278667	1.274498	3.688623	-0.144603	0.030554	-0.25995	-0.471924	0.118652	-0.719727
1083.0	8.011649	0.518344	3.564136	-0.087016	0.099326	-0.318958	-0.460449	0.114258	-0.721924
1084.0	7.566725	0.539072	3.640572	0.166592	0.164426	-0.32793	-0.465088	0.114258	-0.719727
1085.0	7.276967	0.742353	3.637455	0.114915	0.139854	-0.308807	-0.462891	0.116455	-0.719727
1086.0	7.526691	0.419068	3.517631	-0.069056	0.08304	-0.287759	-0.464844	0.107666	-0.726318
1087.0	8.091657	0.18938	3.373051	-0.025427	0.094502	-0.263165	-0.462402	0.107666	-0.719482
1088.0	8.452732	0.247646	3.359948	0.106519	0.13001	-0.247247	-0.464844	0.109863	-0.724121
1089.0	8.458923	0.436957	3.293557	0.161783	0.137043	-0.217917	-0.459961	0.101074	-0.721436
1090.0	8.653147	0.624122	3.283927	0.146864	0.089243	-0.167551	-0.4646	0.103271	-0.723877
1091.0	8.656352	0.726893	2.964859	0.181627	0.064135	-0.121337	-0.462158	0.101074	-0.721436
1092.0	8.591886	0.91098	2.879044	0.229684	0.139141	-0.071988	-0.464355	0.101074	-0.726074
1093.0	8.471095	0.972218	2.783723	0.204026	0.178002	-0.026237	-0.459961	0.101074	-0.728516
1094.0	8.323721	1.015735	2.734077	0.192847	0.150316	0.026515	-0.466553	0.098877	-0.726074
1095.0	8.382266	0.95324	2.513558	0.168311	0.094877	0.066961	-0.457275	0.092285	-0.723633
1096.0	8.348945	0.867259	2.176242	0.170576	0.063126	0.096768	-0.46875	0.09668	-0.730713
1097.0	8.247009	1.027208	1.96781	0.222234	0.071488	0.143256	-0.45752	0.09668	-0.726074
1098.0	8.383883	1.087751	1.941147	0.155159	0.057419	0.176307	-0.459961	0.101074	-0.735352
1099.0	8.643637	0.96629	1.71713	0.084278	0.012387	0.200881	-0.461914	0.09668	-0.726074
1100.0	8.579693	0.798807	1.432447	0.189217	0.083571	0.238771	-0.459717	0.09668	-0.726074
1101.0	8.624111	0.933354	1.597675	0.248415	0.134577	0.302153	-0.459717	0.092285	-0.72583
1102.0	9.009524	0.692647	1.910082	0.069604	-0.006976	0.345749	-0.464355	0.101074	-0.730713
1103.0	8.372809	0.185876	1.67575	0.176771	-0.019339	0.384835	-0.455322	0.098877	-0.728516
1104.0	7.894139	0.334999	2.250007	0.371443	0.021247	0.428138	-0.462158	0.098877	-0.735352
1105.0	7.681593	0.235842	2.775988	0.246166	-0.109578	0.471382	-0.461914	0.094482	-0.73291
1106.0	7.913025	0.147756	2.662749	0.215914	-0.263153	0.477315	-0.4646	0.103271	-0.733154
1107.0	8.392846	0.662705	2.479427	0.355912	-0.232465	0.461734	-0.466797	0.101074	-0.728516
1108.0	8.767264	1.400351	2.708338	0.319084	-0.132764	0.437497	-0.471436	0.105469	-0.72876
1109.0	9.255142	1.67702	3.032962	0.082043	-0.151714	0.409887	-0.471191	0.101074	-0.730713
1110.0	9.607698	1.559907	2.905267	0.013094	-0.190433	0.373578	-0.473633	0.103271	-0.728516
1111.0	9.656722	1.511494	2.894984	0.096527	-0.147749	0.338307	-0.466797	0.101074	-0.730713
1112.0	9.590078	1.338527	2.881568	0.109277	-0.149749	0.297828	-0.473633	0.103271	-0.733154
1113.0	9.796152	0.94806	2.633138	0.085664	-0.241273	0.257177	-0.473633	0.103271	-0.728516
1114.0	10.278352	0.354101	1.880322	0.094919	-0.331845	0.203908	-0.471436	0.107666	-0.724121
1115.0	10.903215	0.104538	1.083106	0.189143	-0.328555	0.127019	-0.473633	0.103271	-0.723877
1116.0	11.385653	0.522749	0.451776	0.30404	-0.252379	0.043365	-0.480225	0.103271	-0.728516
1117.0	11.811294	1.727774	0.532301	0.362962	-0.130523	-0.031076	-0.480225	0.101074	-0.726074
1118.0	12.478773	3.152651	1.633808	0.108096	0.027088	-0.089594	-0.478027	0.101074	-0.721436
1119.0	13.326249	2.951097	3.042671	-0.541748	0.060458	-0.17224	-0.482422	0.101074	-0.721436
1120.0	13.48629	0.859126	3.045665	-0.82514	-0.078262	-0.243945	-0.47583	0.105469	-0.723877
1121.0	13.125344	-1.067019	2.493956	-0.518629	-0.049178	-0.349946	-0.478027	0.101074	-0.716797
1122.0	12.573431	-1.01592	3.461328	0.285074	0.335828	-0.478637	-0.478271	0.105469	-0.723877
1123.0	11.780292	0.076168	5.595502	0.628496	0.44662	-0.552153	-0.475586	0.094482	-0.728271
1124.0	10.761951	-0.278332	5.998937	0.138635	0.03607	-0.524196	-0.482178	0.094482	-0.72583
1125.0	10.336842	-1.588876	5.137514	-0.152837	-0.258837	-0.438617	-0.477539	0.092285	-0.72583
1126.0	9.899094	-1.724728	4.75888	0.249925	-0.042463	-0.370253	-0.479736	0.090088	-0.72583
1127.0	8.904619	-0.076094	5.482942	0.772253	0.179908	-0.334126	-0.481689	0.078857	-0.72998
1128.0	7.937912	1.451204	6.007762	0.66048	0.052355	-0.324056	-0.474854	0.079102	-0.72998
1129.0	8.260268	1.71026	5.626345	0.142485	-0.142084	-0.332002	-0.476807	0.074463	-0.725098
1130.0	8.800709	0.924212	4.533225	-0.015276	-0.042679	-0.371871	-0.481445	0.074463	-0.725098
1131.0	9.203665	1.315823	4.557342	0.231132	0.280462	-0.463964	-0.479004	0.067871	-0.727295
1132.0	9.408345	1.432371	5.477727	0.063001	0.461138	-0.551653	-0.472412	0.07251	-0.732178
1133.0	9.234716	-0.228323	5.453727	-0.550819	0.30341	-0.626767	-0.472168	0.070068	-0.727295
1134.0	9.570612	-1.62187	4.850204	-0.508347	0.295544	-0.713185	-0.469971	0.068115	-0.736572
1135.0	9.890809	-1.420363	4.671727	0.105217	0.508931	-0.772419	-0.467285	0.059082	-0.729248
1136.0	10.825059	0.082088	5.497675	0.331027	0.611627	-0.731688	-0.462646	0.057129	-0.740723
1137.0	10.874176	0.420629	5.578136	0.013667	0.347601	-0.601265	-0.4646	0.050293	-0.738281
1138.0	11.168297	-0.137445	5.354804	-0.083135	0.08877	-0.368121	-0.467285	0.056885	-0.740723
1139.0	11.276994	-0.45222	5.177862	0.186741	-0.127036	-0.118372	-0.467041	0.054688	-0.738281
1140.0	10.580748	-0.087669	4.481	0.498709	-0.248665	0.079912	-0.469482	0.054688	-0.740723
1141.0	9.903929	0.155408	4.045998	0.266157	-0.115197	0.186654	-0.467041	0.050293	-0.738281
1142.0	9.123933	0.02675	4.087516	0.002273	0.133358	0.227739	-0.469482	0.054688	-0.738281
1143.0	8.609056	0.185483	4.448293	0.062692	0.182964	0.255734	-0.4646	0.048096	-0.742676
1144.0	8.207224	0.706239	4.222886	0.061636	-0.005648	0.288002	-0.464844	0.057129	-0.738525
1145.0	7.888799	0.925013	3.509914	-0.117609	-0.099127	0.308736	-0.467041	0.054688	-0.74292
1146.0	7.754329	0.757406	3.069862	-0.216249	0.012953	0.314752	-0.467285	0.061523	-0.738525
1147.0	7.770421	0.648888	3.250177	-0.26946	0.109636	0.307148	-0.467529	0.063721	-0.73877
1148.0	7.76431	0.477036	3.510262	-0.337946	0.064682	0.311241	-0.465576	0.070313	-0.741211
1149.0	7.267469	0.036087	3.264665	-0.35332	0.026614	0.250657	-0.463379	0.07251	-0.739014
1150.0	7.290091	-0.185093	3.195759	-0.265811	0.00365	0.188531	-0.468018	0.076904	-0.739258
1151.0	7.469645	-0.267137	3.016576	-0.194588	0.004949	0.104739	-0.465576	0.07251	-0.739014
1152.0	7.636232	-0.246523	2.916196	-0.191072	-0.005976	0.023898	-0.468262	0.085693	-0.741943
1153.0	7.814121	-0.299699	2.932211	-0.245684	-0.040113	-0.037256	-0.470459	0.079102	-0.737061
1154.0	7.85078	-0.49395	2.87617	-0.283538	-0.073094	-0.095107	-0.470703	0.085693	-0.744141
1155.0	7.949144	-0.420827	2.576643	-0.167951	-0.12757	-0.143593	-0.472656	0.081299	-0.737061
1156.0	7.991425	-0.024557	2.263531	-0.059374	-0.193894	-0.172403	-0.477539	0.090088	-0.739746
1157.0	8.031226	0.147858	1.864181	-0.086768	-0.233977	-0.185002	-0.470459	0.081299	-0.741699
1158.0	8.094364	0.175124	1.467778	-0.115911	-0.245467	-0.192816	-0.477295	0.081299	-0.734619
1159.0	8.331348	0.241093	1.420137	-0.13969	-0.19982	-0.193457	-0.477295	0.085693	-0.737305
1160.0	8.345687	0.202302	1.492302	-0.230445	-0.120427	-0.195089	-0.477295	0.085693	-0.732666
1161.0	8.021172	-0.28128	1.541963	-0.33221	-0.06608	-0.233302	-0.477295	0.083496	-0.732422
1162.0	9.076917	0.107051	1.975376	-0.214958	-0.175153	-0.253593	-0.479736	0.085693	-0.732422
1163.0	8.808197	0.072383	1.778957	-0.083904	-0.324625	-0.238853	-0.479492	0.083496	-0.732422
1164.0	9.011835	0.371329	1.646978	-0.049802	-0.476413	-0.222628	-0.486328	0.085449	-0.725586
1165.0	8.852442	0.208038	1.902224	-0.256851	-0.432618	-0.233402	-0.481934	0.087891	-0.723389
1166.0	8.575375	-0.422279	2.269885	-0.486626	-0.288807	-0.272187	-0.486572	0.089844	-0.723389
1167.0	8.823046	-0.941922	2.797355	-0.477034	-0.279917	-0.30602	-0.491211	0.092041	-0.723389
1168.0	9.177822	-1.00691	2.997145	-0.238669	-0.380992	-0.320081	-0.497803	0.089844	-0.71875
1169.0	9.636687	-0.667691	2.933206	-0.061684	-0.434608	-0.316936	-0.493164	0.083252	-0.720947
1170.0	9.948836	-0.238026	2.804477	-0.015385	-0.301887	-0.295998	-0.5	0.089844	-0.721191
1171.0	9.89362	-0.078647	2.774527	-0.067993	-0.146555	-0.223181	-0.5	0.085449	-0.716309
1172.0	9.423405	-0.466451	2.733654	-0.193691	-0.114836	-0.147223	-0.506836	0.089844	-0.714111
1173.0	9.350962	-0.746678	2.426576	-0.178563	-0.184566	-0.075431	-0.497803	0.087646	-0.716309
1174.0	10.008885	-0.647192	1.94946	-0.127393	-0.299392	-0.009453	-0.506836	0.092041	-0.714111
1175.0	10.901497	-0.754645	1.219463	-0.084243	-0.355979	0.055357	-0.509277	0.094238	-0.705078
1176.0	11.687851	-1.140674	0.757493	0.009532	-0.309138	0.094867	-0.509521	0.098633	-0.70752
1177.0	12.522564	-1.656988	1.157673	0.019187	-0.210129	0.140323	-0.509033	0.089844	-0.707031
1178.0	13.229885	-1.986311	2.005585	0.107933	-0.10264	0.205469	-0.511475	0.094238	-0.702637
1179.0	13.89317	-1.514412	2.936118	0.314776	-0.083397	0.310705	-0.511719	0.10083	-0.702881
1180.0	14.326904	-0.171244	3.112256	0.48761	-0.140786	0.390538	-0.513916	0.098633	-0.70752
1181.0	13.689308	1.418072	3.020166	0.480723	0.063096	0.3785	-0.509521	0.098633	-0.705078
1182.0	12.602155	2.082835	3.924994	-0.168066	0.346095	0.404162	-0.507324	0.103027	-0.705322
1183.0	12.033108	2.206094	4.906156	-0.513209	0.458824	0.425969	-0.507324	0.103027	-0.70752
1184.0	10.939965	2.769897	5.930969	-0.164353	0.343415	0.427084	-0.509766	0.107422	-0.714844
1185.0	9.973761	3.29614	6.504454	-0.154923	-0.078499	0.434056	-0.505615	0.114014	-0.705811
1186.0	9.941686	2.183224	5.709186	-0.583264	-0.409687	0.387618	-0.510498	0.125	-0.708496
1187.0	9.828806	0.403559	4.86248	-0.768323	-0.327509	0.318838	-0.508301	0.127197	-0.699219
1188.0	9.472944	-0.927725	4.345793	-0.618755	-0.116823	0.286238	-0.515381	0.133789	-0.70874
1189.0	9.28886	-1.204375	4.302066	-0.223645	0.073205	0.257616	-0.510742	0.134033	-0.701904
1190.0	9.730965	-1.289208	5.048436	-0.110727	0.31617	0.286568	-0.504395	0.140625	-0.704346
1191.0	10.31891	-1.660572	5.150243	-0.130759	0.391019	0.320937	-0.502197	0.140625	-0.704346
1192.0	9.979191	-0.668345	4.71238	0.445604	0.467306	0.306527	-0.502197	0.140625	-0.713623
1193.0	9.720145	1.180947	4.771522	0.717894	0.563976	0.316961	-0.499756	0.13623	-0.711182
1194.0	9.637577	2.164351	4.717573	0.313613	0.479764	0.340704	-0.502197	0.142822	-0.713867
1195.0	9.394309	2.360658	4.624391	-0.138528	0.421231	0.395717	-0.490479	0.131836	-0.713379
1196.0	9.188523	2.275969	4.966802	-0.240892	0.537115	0.466083	-0.493652	0.151611	-0.714111
1197.0	9.193721	1.907911	5.602289	-0.370517	0.536992	0.467245	-0.484619	0.151611	-0.71875
1198.0	9.416069	0.889061	5.874862	-0.601555	0.20245	0.364069	-0.491455	0.158203	-0.716553
1199.0	9.61341	-0.361313	4.942823	-0.553197	-0.179117	0.209439	-0.489502	0.162598	-0.7146
1200.0	9.842084	-0.439685	4.138418	-0.036577	-0.181624	0.073982	-0.491943	0.166992	-0.707764
1201.0	9.606524	-0.139159	4.06107	0.128528	0.043105	-0.060944	-0.487061	0.158203	-0.714355
1202.0	9.276223	-0.041984	4.118965	0.055184	0.117609	-0.184715	-0.493896	0.162598	-0.716797
1203.0	8.65205	-0.184131	3.853667	0.114129	0.082097	-0.2965	-0.487061	0.156006	-0.714355
1204.0	8.017756	0.068504	3.744357	0.316573	0.142434	-0.32991	-0.493652	0.156006	-0.714355
1205.0	7.340711	0.289329	3.606928	0.36362	0.267877	-0.32695	-0.486572	0.149414	-0.714111
1206.0	7.229827	0.476132	3.846413	0.26584	0.317533	-0.299266	-0.491211	0.151611	-0.725586
1207.0	7.485863	0.483678	3.851567	0.170428	0.250728	-0.276888	-0.486572	0.14502	-0.713867
1208.0	7.79546	0.519907	3.707309	0.215197	0.161403	-0.264597	-0.48877	0.142822	-0.718506
1209.0	7.977611	0.734609	3.452129	0.307385	0.164497	-0.242074	-0.48877	0.142822	-0.720703
1210.0	8.126924	0.974449	3.354935	0.283126	0.173029	-0.214667	-0.481934	0.140625	-0.720703
1211.0	8.22239	1.043749	3.217702	0.213264	0.156671	-0.18125	-0.486328	0.142822	-0.718506
1212.0	8.248203	1.007519	3.102012	0.232902	0.172354	-0.11782	-0.484131	0.140625	-0.716064
1213.0	8.363182	0.854146	3.116834	0.211465	0.187915	-0.063994	-0.483887	0.13623	-0.720459
1214.0	8.238834	0.661307	2.963399	0.205518	0.188458	-0.003218	-0.488281	0.131836	-0.724854
1215.0	8.298398	0.590513	2.890605	0.271368	0.167048	0.055672	-0.481689	0.134033	-0.722656
1216.0	8.182227	0.576589	2.657628	0.327458	0.161644	0.10599	-0.484131	0.140625	-0.725342
1217.0	8.308542	0.650319	2.530153	0.347089	0.118381	0.147139	-0.483643	0.131836	-0.722656
1218.0	8.4537	0.862182	2.262145	0.334905	0.081273	0.180907	-0.479492	0.13623	-0.720459
1219.0	8.536799	0.946208	2.01201	0.322731	0.069712	0.200143	-0.479248	0.134033	-0.725098
1220.0	8.495176	1.065004	1.772883	0.303741	0.108205	0.211191	-0.483887	0.138428	-0.72998
1221.0	8.64997	1.146818	1.795564	0.271982	0.14023	0.248045	-0.479248	0.131836	-0.720215
1222.0	9.024774	0.98352	1.807394	0.17391	0.12062	0.276089	-0.483887	0.13623	-0.725098
1223.0	9.012465	0.758263	1.733278	0.229531	0.113084	0.294701	-0.479248	0.131836	-0.729736
1224.0	8.217013	0.705578	1.825552	0.425645	0.171189	0.332298	-0.483887	0.13623	-0.729736
1225.0	7.934987	0.607434	2.307087	0.352832	0.055424	0.372346	-0.477295	0.140625	-0.732178
1226.0	7.711194	0.013759	2.269882	0.232237	-0.122963	0.39761	-0.479248	0.134033	-0.727295
1227.0	7.640426	-0.253738	2.160774	0.421095	-0.136573	0.386974	-0.477051	0.13623	-0.718262
1228.0	7.558915	0.253923	2.419402	0.607525	-0.084418	0.365975	-0.486328	0.138428	-0.725098
1229.0	7.839183	1.062455	2.771892	0.555322	-0.157472	0.37163	-0.477051	0.131836	-0.727295
1230.0	8.745605	1.355597	2.821241	0.292888	-0.328769	0.371309	-0.486328	0.138428	-0.720459
1231.0	9.577717	1.42311	2.533619	0.22277	-0.34502	0.363478	-0.483887	0.13623	-0.718262
1232.0	10.066236	1.844498	2.568851	0.308087	-0.186458	0.342491	-0.490723	0.138428	-0.718262
1233.0	9.982678	2.215334	2.950259	0.258085	-0.101127	0.322125	-0.488281	0.134033	-0.711182
1234.0	9.972801	2.031875	3.020342	0.13587	-0.201672	0.307317	-0.488525	0.140625	-0.716064
1235.0	10.219963	1.493684	2.493708	0.108961	-0.304886	0.279039	-0.490723	0.138428	-0.711182
1236.0	10.561764	1.110688	1.710429	0.132369	-0.333841	0.230046	-0.495605	0.149414	-0.716309
1237.0	10.844829	0.944687	0.928563	0.127594	-0.315889	0.152608	-0.495361	0.138428	-0.708984
1238.0	11.067119	1.196483	0.270942	0.108363	-0.28541	0.069355	-0.5	0.14502	-0.709229
1239.0	11.221702	1.90985	0.113913	0.089895	-0.203447	-0.005867	-0.495361	0.138428	-0.706543
1240.0	11.73513	2.920655	1.442314	-0.147863	0.018903	-0.062141	-0.500244	0.149414	-0.716309
1241.0	12.365637	2.111849	3.393113	-0.816895	0.125343	-0.155379	-0.502441	0.149414	-0.697754
1242.0	12.98936	-0.376331	3.982448	-1.1904	-0.162077	-0.244809	-0.498291	0.156006	-0.707275
1243.0	13.235973	-3.058708	3.268807	-0.795078	-0.253358	-0.356466	-0.504883	0.153809	-0.700195
1244.0	12.904191	-2.965454	3.808701	0.622222	0.15832	-0.465975	-0.50708	0.151611	-0.702393
1245.0	12.025006	-0.712364	5.944754	1.212394	0.422666	-0.519439	-0.495361	0.138428	-0.708984
1246.0	11.010863	-0.579093	6.748355	0.427888	0.066111	-0.501973	-0.510986	0.13623	-0.701904
1247.0	10.223397	-1.765947	5.871903	0.070677	-0.266775	-0.451236	-0.506348	0.131836	-0.704102
1248.0	9.587097	-1.08337	5.619135	0.872006	-0.121687	-0.418328	-0.508301	0.127197	-0.706299
1249.0	8.598331	1.253505	5.923562	1.440495	-0.00888	-0.438498	-0.507813	0.111816	-0.705566
1250.0	8.146932	3.010835	5.912239	0.907181	-0.128354	-0.467421	-0.509766	0.109619	-0.700928
1251.0	8.418748	2.638638	5.077666	0.024591	-0.105337	-0.448159	-0.507568	0.107422	-0.700928
1252.0	8.818607	1.391304	4.376176	-0.041075	0.137128	-0.480622	-0.509766	0.109619	-0.705566
1253.0	9.109143	1.7723	5.161984	0.221761	0.486227	-0.560254	-0.504883	0.098633	-0.70752
1254.0	9.275783	1.496839	6.158038	-0.160464	0.5358	-0.660754	-0.50293	0.105225	-0.712402
1255.0	9.797796	-0.418891	5.967424	-0.787849	0.322518	-0.734755	-0.498291	0.103027	-0.709961
1256.0	11.284823	-1.289319	5.558881	-0.518889	0.349116	-0.80273	-0.505127	0.103027	-0.709961
1257.0	11.999954	-0.459777	5.526599	0.217267	0.439684	-0.728626	-0.506836	0.087646	-0.71167
1258.0	11.447358	0.687376	5.466429	0.261415	0.320491	-0.568829	-0.504639	0.092041	-0.723389
1259.0	11.489783	0.863278	5.544637	-0.133075	0.041575	-0.302357	-0.502441	0.092041	-0.709473
1260.0	11.236561	-0.147137	4.919668	-0.214285	-0.179093	-0.052558	-0.504883	0.096436	-0.707275
1261.0	10.507163	-0.331129	4.156765	0.186753	-0.180381	0.10987	-0.50708	0.094238	-0.711914
1262.0	9.580234	0.039458	4.114669	0.082749	0.03709	0.182274	-0.509521	0.098633	-0.709717
1263.0	9.180209	-0.012168	4.379848	-0.232245	0.105111	0.232067	-0.502686	0.098633	-0.70752
1264.0	8.495069	-0.197016	4.175677	-0.232378	0.059919	0.263062	-0.511719	0.10083	-0.70752
1265.0	8.107065	0.234284	3.853217	-0.135209	0.023626	0.286074	-0.507324	0.105225	-0.705322
1266.0	7.745846	0.519236	3.345587	-0.283628	-0.009106	0.30417	-0.505371	0.107422	-0.712402
1267.0	7.272545	0.226899	2.982643	-0.442464	0.079757	0.319597	-0.505371	0.107422	-0.705566
1268.0	7.254897	0.031401	3.027456	-0.456768	0.124986	0.31658	-0.505615	0.116211	-0.715088
1269.0	7.163595	-0.135139	3.165153	-0.386209	0.151106	0.302514	-0.499023	0.123047	-0.708496
1270.0	6.899223	-0.352106	3.23777	-0.376916	0.168397	0.263968	-0.503662	0.123047	-0.717773
1271.0	6.855638	-0.596164	3.217963	-0.38021	0.157311	0.197911	-0.499268	0.125244	-0.713135
1272.0	6.94508	-0.638731	3.176281	-0.292238	0.131492	0.123821	-0.503906	0.129639	-0.708496
1273.0	7.126861	-0.617407	3.017324	-0.215469	0.065645	0.044504	-0.501709	0.129639	-0.70874
1274.0	7.539304	-0.544619	2.860599	-0.222827	-0.05904	-0.024936	-0.503906	0.131836	-0.710938
1275.0	7.873315	-0.46095	2.516911	-0.221767	-0.092723	-0.088204	-0.506104	0.129639	-0.710938
1276.0	8.165367	-0.235825	2.372643	-0.155968	-0.088273	-0.120378	-0.510742	0.129395	-0.703857
1277.0	8.184697	-0.058676	1.991495	-0.108944	-0.143979	-0.144316	-0.506104	0.129639	-0.70166
1278.0	8.168956	0.161867	1.619199	-0.088237	-0.213368	-0.167283	-0.515381	0.133789	-0.70874
1279.0	8.188814	0.268583	1.237834	-0.091813	-0.284954	-0.18692	-0.512939	0.127197	-0.699219
1280.0	8.551747	0.404817	0.993329	-0.136608	-0.303599	-0.191989	-0.513184	0.13623	-0.711182
1281.0	8.64504	0.249547	0.830872	-0.251591	-0.229903	-0.212196	-0.515381	0.133789	-0.697266
1282.0	8.556485	0.12745	1.029752	-0.311563	-0.098429	-0.259905	-0.513184	0.133789	-0.697266
1283.0	8.776005	0.34577	1.633057	-0.28916	-0.104968	-0.275658	-0.517334	0.129395	-0.697021
1284.0	8.705569	0.507715	1.924572	-0.265475	-0.212053	-0.283221	-0.519775	0.133789	-0.697266
1285.0	8.548118	0.435551	2.119424	-0.316197	-0.374558	-0.269347	-0.52002	0.135986	-0.692627
1286.0	8.464094	-0.006447	2.343966	-0.499639	-0.442121	-0.300983	-0.526855	0.138184	-0.69043
1287.0	8.803874	-0.552883	2.729824	-0.585292	-0.442302	-0.343407	-0.529053	0.135986	-0.690186
1288.0	9.26912	-0.807786	3.226312	-0.47251	-0.475281	-0.368801	-0.53125	0.138184	-0.687988
1289.0	9.640622	-0.755442	3.365059	-0.31224	-0.47669	-0.377691	-0.540283	0.135986	-0.685547
1290.0	9.950263	-0.459467	3.513398	-0.186602	-0.359453	-0.360359	-0.535645	0.135986	-0.68335
1291.0	9.740555	-0.504961	3.711967	-0.241172	-0.233913	-0.3138	-0.537842	0.133789	-0.678467
1292.0	9.549865	-0.565073	3.475582	-0.308409	-0.218901	-0.280181	-0.535645	0.135986	-0.680908
1293.0	9.488223	-0.064847	2.714671	-0.197707	-0.245098	-0.238026	-0.537842	0.131592	-0.678467
1294.0	9.857167	0.654673	1.862098	-0.129798	-0.238684	-0.183673	-0.542725	0.140381	-0.678711
1295.0	10.347796	0.630547	1.055136	-0.178996	-0.228196	-0.085432	-0.544678	0.133789	-0.67627
1296.0	11.183075	-0.292548	0.517159	-0.259562	-0.259368	0.010967	-0.547119	0.138184	-0.674072
1297.0	12.146429	-1.669427	0.199201	-0.242731	-0.307896	0.091704	-0.549072	0.133789	-0.669189
1298.0	13.108968	-3.128051	0.570549	-0.192157	-0.256368	0.159026	-0.551758	0.142578	-0.674316
1299.0	13.970669	-3.731605	1.548719	0.065523	-0.071799	0.218314	-0.551758	0.142578	-0.667236
1300.0	14.280486	-2.809287	2.72158	0.549329	0.051249	0.334638	-0.551514	0.138184	-0.676514
1301.0	14.100037	-0.58376	3.242002	0.902033	0.06085	0.395552	-0.546875	0.133789	-0.67627
1302.0	13.249382	1.491068	3.465296	0.811479	0.24008	0.380218	-0.540283	0.140381	-0.678711
1303.0	12.383855	2.485859	4.077079	0.090727	0.439845	0.401475	-0.544434	0.131592	-0.678467
1304.0	12.057	2.913364	5.198299	-0.216582	0.575411	0.414536	-0.540527	0.142578	-0.681152
1305.0	10.573006	3.718111	6.800764	0.091609	0.475689	0.444379	-0.540527	0.144775	-0.681396
1306.0	9.145973	3.750575	7.683832	-0.137838	-0.032725	0.450572	-0.540771	0.14917	-0.679199
1307.0	9.078636	2.108581	6.653515	-0.658443	-0.51816	0.42398	-0.540771	0.151367	-0.679199
1308.0	9.587941	0.447142	5.26173	-0.748538	-0.460773	0.380031	-0.543701	0.164551	-0.675049
1309.0	9.654988	-0.407788	5.05532	-0.506901	0.002567	0.338365	-0.54126	0.164551	-0.67749
1310.0	9.460155	-1.196357	5.624484	-0.437132	0.314709	0.348011	-0.539307	0.168945	-0.679932
1311.0	9.69057	-1.537703	5.4896	-0.193464	0.266261	0.339447	-0.539307	0.168945	-0.67749
1312.0	9.683337	-1.159605	5.301749	0.199195	0.283834	0.345094	-0.543945	0.171143	-0.682373
1313.0	9.726721	-0.80948	4.894476	0.275789	0.406569	0.362327	-0.539307	0.166748	-0.686768
1314.0	9.894309	-0.316985	4.724067	0.369192	0.483355	0.383988	-0.530518	0.175781	-0.69165
1315.0	9.632075	0.603343	4.638288	0.511244	0.576804	0.422347	-0.534668	0.166748	-0.693848
1316.0	9.158997	1.337808	4.779647	0.485202	0.718693	0.522142	-0.521729	0.177979	-0.701172
1317.0	9.664732	1.597771	5.579665	-0.073007	0.6125	0.493312	-0.521484	0.173584	-0.703369
1318.0	9.855433	0.853293	5.44968	-0.384838	0.276427	0.362148	-0.519775	0.186768	-0.706055
1319.0	9.694739	0.108741	4.817595	-0.150101	-0.049769	0.196974	-0.523926	0.177979	-0.701172
1320.0	9.607096	0.521859	4.293866	0.261281	-0.10897	0.062888	-0.521973	0.18457	-0.703613
1321.0	9.623993	0.902399	4.164311	0.272221	-0.012962	-0.062849	-0.519287	0.173584	-0.700928
1322.0	9.158549	0.817217	3.872995	0.157311	0.003899	-0.194503	-0.523926	0.180176	-0.705811
1323.0	8.59602	0.758931	3.975923	0.243489	0.024356	-0.283506	-0.519043	0.166992	-0.707764
1324.0	7.72445	0.922885	3.786893	0.436642	0.106785	-0.315615	-0.52124	0.164795	-0.712158
1325.0	7.125535	1.123361	3.833605	0.450297	0.185051	-0.316706	-0.520996	0.1604	-0.70752
1326.0	6.815609	0.971471	3.835448	0.30731	0.219463	-0.283141	-0.52124	0.166992	-0.7146
1327.0	7.198841	0.573987	3.921424	0.15828	0.122005	-0.256428	-0.518555	0.158203	-0.716553
1328.0	7.799781	0.387647	3.635577	0.238867	0.042996	-0.256688	-0.522949	0.156006	-0.711914
1329.0	8.12074	0.76135	3.332579	0.391956	0.082178	-0.247504	-0.525391	0.156006	-0.716553
1330.0	8.188603	1.043591	3.35161	0.332217	0.127423	-0.224191	-0.522705	0.149414	-0.718506
1331.0	8.049858	0.929661	3.310907	0.248875	0.166472	-0.167328	-0.52002	0.138428	-0.713623
