Acquisition frequency: 100 Hz
PacketCounter	Acc_X	Acc_Y	Acc_Z	Gyr_X	Gyr_Y	Gyr_Z	Mag_X	Mag_Y	Mag_Z
0.0	9.752267	0.900558	2.452947	0.022813	0.014328	-0.000763	-0.571533	0.076172	-0.63916
1.0	9.736144	0.899575	2.472447	0.020136	0.009637	-0.00223	-0.578369	0.078369	-0.648682
2.0	9.751716	0.901924	2.454635	0.024206	0.009099	-0.000816	-0.56958	0.084961	-0.646484
3.0	9.708361	0.931052	2.485273	0.022575	0.007387	-0.000417	-0.574463	0.089355	-0.646729
4.0	9.729422	0.879086	2.467099	0.023372	0.00777	-0.002428	-0.576172	0.080566	-0.648682
5.0	9.711608	0.889407	2.453459	0.028418	0.008325	-0.006395	-0.571777	0.082764	-0.646484
6.0	9.72282	0.858923	2.461202	0.028844	0.011628	-0.005889	-0.56958	0.080566	-0.651123
7.0	9.728636	0.882548	2.468959	0.028642	0.005634	-0.001917	-0.576172	0.078369	-0.644043
8.0	9.704665	0.89174	2.546118	0.031913	0.004714	0.00151	-0.573975	0.080566	-0.646484
9.0	9.742219	0.918402	2.516537	0.031686	0.007396	-0.002968	-0.578613	0.080566	-0.648682
10.0	9.686758	0.902748	2.532554	0.027842	0.005246	9.5e-05	-0.574219	0.082764	-0.648682
11.0	9.659215	0.933636	2.544503	0.027862	0.010526	-0.00051	-0.573975	0.080566	-0.644043
12.0	9.670457	0.902575	2.552353	0.026445	0.010468	0.000142	-0.572021	0.084961	-0.651123
13.0	9.682296	0.948228	2.567471	0.023825	0.012006	0.001696	-0.571533	0.071777	-0.645996
14.0	9.685687	0.905224	2.535765	0.021385	0.014249	-0.000121	-0.567139	0.080566	-0.646484
15.0	9.640477	0.945143	2.533878	0.019329	0.009234	-0.000221	-0.580811	0.080566	-0.646484
16.0	9.645704	0.891444	2.534504	0.021948	0.007692	-0.001774	-0.575928	0.073975	-0.641602
17.0	9.651488	0.914824	2.542357	0.021137	0.011644	-0.003993	-0.578613	0.080566	-0.644043
18.0	9.66879	0.906557	2.557254	0.024566	0.006149	-0.003326	-0.571777	0.078369	-0.648682
19.0	9.668569	0.907514	2.557749	0.02071	0.008336	-0.004494	-0.576172	0.078369	-0.641602
20.0	9.682429	0.920685	2.507222	0.022371	0.010993	-0.001274	-0.569336	0.073975	-0.643799
21.0	9.682162	0.921289	2.508031	0.017291	0.009497	-0.000931	-0.571533	0.076172	-0.64624
22.0	9.681973	0.92193	2.508524	0.021519	0.004381	-0.002271	-0.571777	0.078369	-0.648682
23.0	9.681822	0.922681	2.508829	0.021731	0.006032	-0.002022	-0.578613	0.082764	-0.646484
24.0	9.697505	0.924892	2.49074	0.016864	0.006189	-0.00143	-0.569336	0.076172	-0.643799
25.0	9.681505	0.923777	2.509649	0.018099	0.005543	0.001291	-0.581055	0.084961	-0.648926
26.0	9.687423	0.946803	2.517051	0.016651	0.004535	-0.001679	-0.56958	0.082764	-0.641846
27.0	9.695451	0.937048	2.458808	0.016843	0.000907	-0.000816	-0.56958	0.082764	-0.648682
28.0	9.681271	0.925226	2.51002	0.015427	0.000852	-0.000165	-0.573975	0.080566	-0.651123
29.0	9.712923	0.928816	2.473051	0.016438	0.002881	-0.001927	-0.578613	0.080566	-0.651123
30.0	9.657522	0.912966	2.488836	0.017853	0.002934	-0.002578	-0.576172	0.078369	-0.64624
31.0	9.696881	0.928689	2.491756	0.01499	0.001871	-0.004897	-0.571777	0.078369	-0.648682
32.0	9.690727	0.90695	2.484823	0.015202	0.003523	-0.004649	-0.56958	0.084961	-0.639648
33.0	9.690545	0.907741	2.485241	0.017872	0.008212	-0.003194	-0.576172	0.080566	-0.641846
34.0	9.717751	0.878387	2.474317	0.016405	0.001923	-0.005546	-0.571777	0.082764	-0.648682
35.0	9.723641	0.901877	2.48162	0.019075	0.006612	-0.004093	-0.580811	0.082764	-0.641846
36.0	9.707636	0.901173	2.50039	0.0213	0.002716	-0.002517	-0.574219	0.082764	-0.648682
37.0	9.705825	0.912539	2.467808	0.022341	0.005698	-0.000661	-0.578613	0.080566	-0.641846
38.0	9.699604	0.890549	2.461285	0.022765	0.009002	-0.000166	-0.569336	0.078369	-0.650879
39.0	9.71143	0.936128	2.476154	0.020974	0.011877	0.00299	-0.573975	0.080566	-0.646484
40.0	9.711152	0.936249	2.477199	0.018354	0.013422	0.004537	-0.574219	0.084961	-0.646484
41.0	9.687261	0.922923	2.457037	0.01712	0.014063	0.001815	-0.57373	0.076172	-0.641602
42.0	9.688705	0.912531	2.490656	0.014643	0.005748	0.001232	-0.571533	0.073975	-0.64624
43.0	9.698418	0.89184	2.465485	0.018678	0.004253	-0.000964	-0.573975	0.078369	-0.648682
44.0	9.702679	0.925553	2.439911	0.019294	0.003932	0.000397	-0.576416	0.082764	-0.644043
45.0	9.679001	0.912571	2.418807	0.018677	0.004251	-0.000964	-0.57373	0.073975	-0.64624
46.0	9.686602	0.92521	2.458775	0.021297	0.002703	-0.00251	-0.569336	0.076172	-0.648438
47.0	9.680467	0.903397	2.451888	0.017232	0.003238	-0.003933	-0.576172	0.080566	-0.651123
48.0	9.682076	0.893808	2.484567	0.026323	-0.002047	-0.005846	-0.569336	0.078369	-0.65332
49.0	9.678726	0.91601	2.418609	0.018839	-0.000336	-0.003713	-0.578613	0.080566	-0.648682
50.0	9.703962	0.919915	2.472391	0.02063	-0.003218	-0.006865	-0.571777	0.078369	-0.64624
51.0	9.697936	0.898301	2.465038	0.02087	-0.000606	-0.003001	-0.576172	0.080566	-0.648682
52.0	9.697956	0.899134	2.464656	0.018414	-0.003644	-0.004203	-0.571777	0.078369	-0.644043
53.0	9.698024	0.899928	2.464096	0.021062	-0.004232	-0.002129	-0.576172	0.080566	-0.639404
54.0	9.704093	0.923421	2.47057	0.021456	-0.00189	-0.005258	-0.57373	0.076172	-0.648438
55.0	9.704124	0.924363	2.470095	0.020445	-0.003915	-0.003491	-0.576416	0.082764	-0.644043
56.0	9.680621	0.91188	2.448139	0.025895	-0.005363	-0.006334	-0.57373	0.073975	-0.650879
57.0	9.66272	0.944822	2.531014	0.024884	-0.007388	-0.004567	-0.576172	0.076172	-0.641602
58.0	9.655147	0.933767	2.490333	0.019403	-0.006904	-0.00534	-0.57373	0.076172	-0.650879
59.0	9.686961	0.937644	2.452644	0.019826	-0.0036	-0.004852	-0.576416	0.082764	-0.655762
60.0	9.655283	0.935777	2.48905	0.018997	-0.004935	-0.006458	-0.57373	0.073975	-0.64624
61.0	9.688726	0.929109	2.484438	0.020865	-0.000615	-0.003004	-0.576172	0.078369	-0.641602
62.0	9.693044	0.962954	2.458289	0.016002	-0.000449	-0.002415	-0.57373	0.076172	-0.641602
63.0	9.704678	0.93171	2.465154	0.015591	-0.008066	0.001348	-0.573975	0.078369	-0.639404
64.0	9.744321	0.946978	2.467005	0.013559	-0.007799	0.000637	-0.576172	0.080566	-0.646484
65.0	9.687528	0.941454	2.448941	0.007838	-0.009933	-0.003996	-0.573975	0.078369	-0.639404
66.0	9.705311	0.933078	2.46214	0.012488	-0.011754	-0.004828	-0.57373	0.076172	-0.64624
67.0	9.721361	0.935158	2.44262	0.010293	-0.006896	-0.002799	-0.580811	0.078369	-0.641602
68.0	9.699617	0.91177	2.453449	0.014537	-0.006746	-0.00475	-0.573975	0.078369	-0.648682
69.0	9.688184	0.944157	2.445303	0.011919	-0.005194	-0.003207	-0.576172	0.076172	-0.643799
70.0	9.693816	0.890392	2.445223	0.012536	-0.005512	-0.001845	-0.576172	0.076172	-0.641602
71.0	9.721708	0.937765	2.440239	0.010913	0.002371	-0.006324	-0.576416	0.082764	-0.646484
72.0	9.715649	0.916136	2.433129	0.014928	-0.00441	-0.007882	-0.571777	0.078369	-0.644043
73.0	9.727756	0.962342	2.446251	0.01109	-0.006531	-0.00481	-0.578369	0.078369	-0.636963
74.0	9.699935	0.916399	2.450468	0.01517	-0.00179	-0.004024	-0.571777	0.078369	-0.64624
75.0	9.672566	0.947489	2.461063	0.01413	-0.004779	-0.005869	-0.573975	0.080566	-0.644043
76.0	9.694019	0.895513	2.442546	0.01413	-0.00478	-0.005869	-0.573975	0.078369	-0.644043
77.0	9.678252	0.895072	2.460391	0.015333	-0.006384	-0.006761	-0.578369	0.076172	-0.650879
78.0	9.694217	0.897475	2.441041	0.013707	-0.008088	-0.006352	-0.571533	0.071777	-0.650635
79.0	9.695972	0.887946	2.473479	0.014974	0.001832	-0.004904	-0.578369	0.078369	-0.641602
80.0	9.678346	0.89791	2.458984	0.019412	-0.001644	-0.005976	-0.57373	0.076172	-0.643799
81.0	9.676635	0.90928	2.425683	0.018404	-0.003664	-0.004204	-0.580811	0.082764	-0.646484
82.0	9.70027	0.923778	2.446368	0.018403	-0.003665	-0.004204	-0.57373	0.073975	-0.648438
83.0	9.706358	0.947403	2.452524	0.020809	-0.006875	-0.005987	-0.575928	0.071777	-0.643799
84.0	9.700471	0.925832	2.444794	0.022841	-0.007143	-0.005275	-0.576172	0.078369	-0.641602
85.0	9.712162	0.895313	2.451426	0.022222	-0.006829	-0.006637	-0.578125	0.071777	-0.641357
86.0	9.70075	0.928048	2.442844	0.023035	-0.010769	-0.004393	-0.57373	0.076172	-0.64624
87.0	9.69321	0.916807	2.401891	0.022417	-0.010455	-0.005755	-0.57373	0.073975	-0.64624
88.0	9.699347	0.940673	2.40771	0.019571	-0.006251	-0.008711	-0.57373	0.076172	-0.643799
89.0	9.709263	0.920473	2.3816	0.020221	-0.005593	-0.003734	-0.578369	0.076172	-0.641602
90.0	9.693568	0.920123	2.399176	0.021797	-0.010144	-0.007116	-0.578369	0.073975	-0.643799
91.0	9.699709	0.943983	2.404956	0.022218	-0.006837	-0.006638	-0.578369	0.076172	-0.64624
92.0	9.693821	0.922435	2.397265	0.022836	-0.007153	-0.005275	-0.569336	0.078369	-0.639404
93.0	9.698217	0.95646	2.370102	0.021	-0.010511	-0.005101	-0.580566	0.076172	-0.63916
94.0	9.701941	0.936715	2.434793	0.016351	-0.008687	-0.004271	-0.57373	0.076172	-0.64624
95.0	9.698512	0.958169	2.368203	0.020428	-0.003944	-0.003496	-0.580566	0.073975	-0.636963
96.0	9.757398	0.954632	2.417428	0.014563	-0.005791	-0.001129	-0.578369	0.076172	-0.643799
97.0	9.700538	0.949073	2.3996	0.016968	-0.009004	-0.002908	-0.583008	0.078369	-0.64624
98.0	9.7281	0.919498	2.387813	0.013326	-0.005163	-0.003853	-0.57373	0.076172	-0.63916
99.0	9.712368	0.918838	2.405735	0.013326	-0.005164	-0.003853	-0.578369	0.078369	-0.644043
100.0	9.750068	0.944952	2.374857	0.014949	-0.003462	-0.004267	-0.57373	0.076172	-0.643799
101.0	9.69489	0.92934	2.390265	0.016152	-0.00507	-0.005156	-0.580811	0.080566	-0.637207
102.0	9.699194	0.963021	2.363437	0.015975	-0.005746	-0.00178	-0.575928	0.073975	-0.648438
103.0	9.69927	0.963728	2.362837	0.016362	-0.003417	-0.004918	-0.578369	0.078369	-0.634766
104.0	9.710967	0.932891	2.36979	0.015146	-0.007088	-0.003379	-0.576172	0.080566	-0.641846
105.0	9.693483	0.942483	2.354652	0.017388	-0.0057	-0.002431	-0.580566	0.076172	-0.641602
106.0	9.70137	0.9555	2.39368	0.016185	-0.004094	-0.001542	-0.578369	0.076172	-0.643799
107.0	9.713092	0.92439	2.400682	0.014561	-0.005796	-0.001127	-0.583008	0.078369	-0.634766
108.0	9.711392	0.935147	2.36716	0.014152	-0.003828	-0.002253	-0.575928	0.073975	-0.636963
109.0	9.744915	0.928016	2.362373	0.013147	-0.005843	-0.000475	-0.587646	0.082764	-0.644043
110.0	9.72919	0.92701	2.380455	0.01581	-0.001146	0.000945	-0.583008	0.080566	-0.646484
111.0	9.72745	0.937604	2.34713	0.01477	-0.004143	-0.00089	-0.582764	0.076172	-0.641602
112.0	9.7117	0.936689	2.365283	0.017223	-0.001101	0.000293	-0.573975	0.078369	-0.64624
113.0	9.719571	0.949673	2.404436	0.017385	-0.005707	-0.002429	-0.578369	0.076172	-0.636963
114.0	9.694219	0.946754	2.349906	0.013743	-0.001865	-0.003379	-0.569336	0.078369	-0.639404
115.0	9.705892	0.915864	2.357072	0.016766	-0.005395	-0.003791	-0.582764	0.073975	-0.641602
116.0	9.729563	0.930313	2.37764	0.014361	-0.002178	-0.002016	-0.575928	0.073975	-0.641602
117.0	9.73556	0.953599	2.384093	0.013952	-0.000211	-0.003143	-0.582764	0.073975	-0.643799
118.0	9.700272	0.971994	2.355326	0.016405	0.002831	-0.001962	-0.578369	0.073975	-0.63916
119.0	9.733641	0.964799	2.351195	0.010543	0.000993	0.000411	-0.580566	0.076172	-0.641602
120.0	9.700148	0.972355	2.355687	0.007765	0.007163	0.00467	-0.575928	0.071777	-0.629883
121.0	9.715877	0.973634	2.337456	0.008512	0.001259	-0.000299	-0.584961	0.073975	-0.63916
122.0	9.709909	0.951266	2.330528	0.005019	-0.004782	-0.003313	-0.580322	0.071777	-0.645996
123.0	9.694229	0.950452	2.34837	0.010074	-0.00858	-0.003013	-0.580566	0.076172	-0.643799
124.0	9.7376	0.921967	2.318168	0.010495	-0.00527	-0.002543	-0.575928	0.071777	-0.643799
125.0	9.721918	0.921083	2.336059	0.015176	-0.006116	0.00024	-0.585205	0.076172	-0.636963
126.0	9.722072	0.921396	2.335294	0.00949	-0.007284	-0.000763	-0.578369	0.073975	-0.643799
127.0	9.712351	0.9432	2.360016	0.008884	-0.001695	-0.002785	-0.582764	0.073975	-0.64624
128.0	9.712461	0.943471	2.359457	0.010728	-0.007908	0.001962	-0.580811	0.080566	-0.641846
129.0	9.695041	0.952621	2.344135	0.014136	-0.009116	-0.001591	-0.578369	0.073975	-0.643799
130.0	9.728697	0.945535	2.338765	0.013714	-0.012427	-0.00206	-0.576172	0.078369	-0.639404
131.0	9.67373	0.92954	2.353699	0.01131	-0.009207	-0.000287	-0.578613	0.082764	-0.637207
132.0	9.70739	0.922157	2.348435	0.008275	-0.010953	0.000784	-0.575928	0.073975	-0.63916
133.0	9.717425	0.900929	2.322132	0.01131	-0.009209	-0.000287	-0.589355	0.071777	-0.63916
134.0	9.723638	0.923835	2.327799	0.008485	-0.009299	0.001018	-0.580811	0.080566	-0.644043
135.0	9.723821	0.923927	2.326997	0.006875	-0.005721	0.000776	-0.578369	0.076172	-0.636963
136.0	9.706361	0.932862	2.31188	0.010727	-0.007911	0.001962	-0.575928	0.071777	-0.63916
137.0	9.724292	0.924091	2.324965	0.011705	-0.016455	0.001504	-0.580811	0.080566	-0.641846
138.0	9.691228	0.932094	2.327538	0.010639	-0.015166	-0.004598	-0.578369	0.078369	-0.636963
139.0	9.709181	0.923839	2.340355	0.015532	-0.014356	-0.001583	-0.580811	0.080566	-0.637207
140.0	9.723361	0.935628	2.28754	0.011308	-0.009212	-0.000287	-0.583008	0.078369	-0.641602
141.0	9.733269	0.938332	2.359252	0.010318	-0.005946	0.000832	-0.575928	0.073975	-0.636963
142.0	9.72367	0.936063	2.286045	0.009698	-0.005635	-0.00053	-0.58252	0.06958	-0.641357
143.0	9.714067	0.957676	2.310489	0.012758	-0.00818	0.002671	-0.580566	0.076172	-0.636963
144.0	9.724067	0.936299	2.284262	0.006241	-0.010691	7.8e-05	-0.573975	0.078369	-0.636963
145.0	9.734073	0.939019	2.355656	0.013128	-0.011137	0.00019	-0.584961	0.073975	-0.636719
146.0	9.718547	0.913943	2.275431	0.012758	-0.008181	0.002671	-0.575928	0.073975	-0.636963
147.0	9.750345	0.940597	2.33483	0.014948	-0.013062	0.000666	-0.576172	0.080566	-0.641846
148.0	9.738614	0.895409	2.320332	0.017401	-0.010018	0.00184	-0.580566	0.078369	-0.636963
149.0	9.721208	0.904523	2.304833	0.018812	-0.009975	0.001187	-0.582764	0.073975	-0.63208
150.0	9.709771	0.93626	2.296132	0.020685	-0.005629	0.004608	-0.583008	0.078369	-0.636963
151.0	9.709958	0.936344	2.295308	0.021885	-0.007243	0.003722	-0.578613	0.080566	-0.634766
152.0	9.733756	0.950372	2.315639	0.018455	-0.001741	0.003	-0.580566	0.078369	-0.634766
153.0	9.710152	0.936381	2.294473	0.017294	0.000863	0.007495	-0.582764	0.071777	-0.63916
154.0	9.710164	0.93616	2.29451	0.016265	0.003139	0.005002	-0.578369	0.076172	-0.636963
155.0	9.733814	0.949886	2.315595	0.016885	0.002828	0.006364	-0.576172	0.080566	-0.637207
156.0	9.733774	0.949719	2.31583	0.014444	0.005062	0.004524	-0.583008	0.078369	-0.639404
157.0	9.729603	0.916834	2.34247	0.018295	0.00287	0.005711	-0.587158	0.073975	-0.636719
158.0	9.727698	0.9267	2.309625	0.014853	0.003094	0.005656	-0.587158	0.06958	-0.638916
159.0	9.711876	0.925535	2.328474	0.020089	0.005228	0.00191	-0.583008	0.080566	-0.634766
160.0	9.705749	0.902883	2.322331	0.014655	0.006715	0.004754	-0.583008	0.080566	-0.644043
161.0	9.678308	0.933139	2.333369	0.016051	0.001478	0.004772	-0.587402	0.078369	-0.634766
162.0	9.69593	0.92433	2.347841	0.017054	0.003486	0.002987	-0.578369	0.076172	-0.634521
163.0	9.733448	0.949508	2.317289	0.015431	0.001787	0.00341	-0.587402	0.078369	-0.639404
164.0	9.700005	0.957091	2.321671	0.016473	0.004789	0.005233	-0.582764	0.076172	-0.641602
165.0	9.715669	0.958217	2.303518	0.012003	0.00729	0.002681	-0.585205	0.078369	-0.639404
166.0	9.717395	0.948291	2.337103	0.013414	0.007331	0.002028	-0.578125	0.071777	-0.641357
167.0	9.685665	0.946169	2.375005	0.012387	0.009606	-0.000469	-0.580566	0.076172	-0.641602
168.0	9.734601	0.939937	2.353109	0.009775	0.011179	0.001068	-0.580566	0.076172	-0.634521
169.0	9.77749	0.910973	2.324812	0.008536	0.011797	-0.001659	-0.582764	0.076172	-0.63916
170.0	9.747938	0.951632	2.303696	0.007336	0.013411	-0.000776	-0.583008	0.080566	-0.637207
171.0	9.759232	0.920378	2.312803	0.008747	0.013452	-0.001429	-0.587402	0.076172	-0.63916
172.0	9.72548	0.928513	2.318223	0.010951	0.013842	-0.004098	-0.578369	0.076172	-0.634521
173.0	9.725133	0.929186	2.319411	0.008709	0.012454	-0.005038	-0.587646	0.080566	-0.636963
174.0	9.724815	0.929886	2.320461	0.008497	0.010798	-0.005267	-0.580322	0.071777	-0.63916
175.0	9.712888	0.961954	2.313668	0.008746	0.01345	-0.001429	-0.580566	0.073975	-0.634521
176.0	9.7242	0.930879	2.322641	0.009116	0.010487	-0.003903	-0.578369	0.078369	-0.644043
177.0	9.725758	0.921418	2.356594	0.006293	0.010405	-0.002598	-0.578369	0.076172	-0.636963
178.0	9.717647	0.909123	2.318003	0.009116	0.010487	-0.003903	-0.582764	0.076172	-0.641602
179.0	9.69557	0.885886	2.330955	0.006256	0.009407	-0.006207	-0.587646	0.080566	-0.644043
180.0	9.734699	0.901616	2.334315	0.007914	0.012101	-0.003022	-0.578369	0.076172	-0.63916
181.0	9.685158	0.908673	2.35815	0.008707	0.012449	-0.005037	-0.585205	0.078369	-0.634766
182.0	9.716472	0.911591	2.321956	0.007493	0.008789	-0.003479	-0.582764	0.076172	-0.64624
183.0	9.69447	0.888009	2.33472	0.011377	0.007596	0.001324	-0.585205	0.076172	-0.629883
184.0	9.733672	0.9034	2.337904	0.006291	0.010403	-0.002599	-0.580322	0.071777	-0.63916
185.0	9.749243	0.904854	2.320196	0.005287	0.008398	-0.000812	-0.580811	0.082764	-0.639404
186.0	9.725428	0.891217	2.299967	0.011552	0.008252	-0.002055	-0.582764	0.076172	-0.634521
187.0	9.697813	0.922072	2.311218	0.011341	0.006596	-0.002283	-0.587158	0.073975	-0.63916
188.0	9.721259	0.93659	2.332633	0.012543	0.00498	-0.003163	-0.576172	0.078369	-0.639404
189.0	9.713312	0.92433	2.293518	0.007071	0.005475	-0.003937	-0.585205	0.076172	-0.641602
190.0	9.713187	0.924765	2.29387	0.008097	0.003204	-0.001437	-0.578613	0.080566	-0.641846
191.0	9.697253	0.924007	2.312791	0.005659	0.005434	-0.003285	-0.573975	0.078369	-0.641602
192.0	9.722531	0.92842	2.36714	0.006685	0.003163	-0.000785	-0.575928	0.073975	-0.636963
193.0	9.730463	0.917187	2.309261	0.006033	0.002471	-0.005757	-0.583008	0.082764	-0.641846
194.0	9.730301	0.917649	2.30976	0.003256	0.008664	-0.001526	-0.580566	0.078369	-0.639404
195.0	9.763468	0.910328	2.306624	0.0065	0.012055	-0.002372	-0.585205	0.078369	-0.634766
196.0	9.778931	0.911789	2.289448	0.003688	0.017247	-0.001749	-0.580566	0.076172	-0.641602
197.0	9.727504	0.928323	2.280705	0.002894	0.016899	0.000266	-0.580566	0.073975	-0.63916
198.0	9.72716	0.928333	2.282168	0.001062	0.013548	0.000461	-0.578369	0.073975	-0.636963
199.0	9.712838	0.917527	2.334788	-0.000218	0.00789	-0.005196	-0.578369	0.076172	-0.634521
200.0	9.728501	0.919214	2.316709	-0.003087	0.001537	-0.006822	-0.578613	0.080566	-0.637207
201.0	9.710798	0.928452	2.302477	-0.003672	0.002844	-0.004579	-0.585205	0.076172	-0.636963
202.0	9.690656	0.895038	2.347834	-0.000231	0.002617	-0.004516	-0.578369	0.076172	-0.641602
203.0	9.710549	0.929276	2.303198	-0.001841	0.006194	-0.004773	-0.585205	0.078369	-0.636963
204.0	9.678681	0.927394	2.340996	-0.001631	0.007849	-0.004545	-0.580811	0.080566	-0.639404
205.0	9.690104	0.896274	2.34964	0.000189	0.005927	-0.004059	-0.585449	0.082764	-0.639404
206.0	9.74518	0.913028	2.334021	0.001391	0.004312	-0.004938	-0.580566	0.076172	-0.629883
207.0	9.705687	0.898415	2.331749	0.000762	-0.000653	-0.005623	-0.585205	0.078369	-0.641602
208.0	9.701428	0.866303	2.358278	0.000972	0.001002	-0.005395	-0.576172	0.076172	-0.636963
209.0	9.729146	0.913617	2.352724	0.005616	-0.000839	-0.006211	-0.587158	0.073975	-0.636719
210.0	9.723118	0.891466	2.346231	0.00524	0.002123	-0.003739	-0.580811	0.078369	-0.644043
211.0	9.717093	0.869188	2.339785	0.00706	0.000202	-0.003253	-0.578369	0.073975	-0.63916
212.0	9.70542	0.901279	2.331754	0.009883	0.000282	-0.004555	-0.582764	0.073975	-0.63916
213.0	9.687789	0.910544	2.3172	0.007677	-0.000106	-0.001889	-0.578369	0.076172	-0.632324
214.0	9.69553	0.923775	2.35655	0.009497	-0.002027	-0.001403	-0.582764	0.076172	-0.636963
215.0	9.687787	0.9113	2.316912	0.009298	0.001589	-0.002312	-0.585205	0.076172	-0.63916
216.0	9.722948	0.894262	2.345873	0.009089	-6.6e-05	-0.002539	-0.580811	0.080566	-0.639404
217.0	9.721135	0.904608	2.312853	0.007268	0.001855	-0.003025	-0.580811	0.080566	-0.632324
218.0	9.724499	0.885149	2.379502	0.007729	0.011439	0.000356	-0.583008	0.078369	-0.639404
219.0	9.722499	0.895205	2.347372	0.005281	0.008395	-0.000813	-0.583008	0.080566	-0.641846
220.0	9.753954	0.897678	2.311132	0.00549	0.01005	-0.000586	-0.582764	0.076172	-0.63916
221.0	9.743838	0.919572	2.337055	0.002635	0.008967	-0.002892	-0.587402	0.078369	-0.634766
222.0	9.721819	0.896016	2.349878	0.002426	0.007312	-0.00312	-0.585205	0.076172	-0.634521
223.0	9.74515	0.910364	2.37166	-0.000807	0.009194	-0.002956	-0.585205	0.076172	-0.636963
224.0	9.725526	0.929352	2.325141	-0.001832	0.011461	-0.005458	-0.580566	0.076172	-0.63916
225.0	9.732897	0.942503	2.365935	-0.003004	0.014077	-0.000973	-0.583008	0.080566	-0.632324
226.0	9.703055	0.905897	2.339794	-0.003035	0.013075	-0.00458	-0.583008	0.080566	-0.639404
227.0	9.724538	0.930133	2.328956	-0.002627	0.011113	-0.003443	-0.585205	0.078369	-0.641602
228.0	9.741847	0.92165	2.344524	0.001431	0.010581	-0.002013	-0.576172	0.080566	-0.637207
229.0	9.718025	0.907883	2.324611	0.003051	0.012275	-0.002435	-0.583008	0.078369	-0.634766
230.0	9.735336	0.899311	2.3402	0.000635	0.010234	2e-06	-0.578369	0.078369	-0.639404
231.0	9.693953	0.894203	2.305728	0.006492	0.012048	-0.002369	-0.585205	0.080566	-0.637207
232.0	9.711212	0.885686	2.321514	0.012408	0.015867	0.002476	-0.580811	0.080566	-0.639404
233.0	9.71085	0.886179	2.322839	0.015174	0.013941	-0.006038	-0.580566	0.076172	-0.636963
234.0	9.733984	0.900971	2.345179	0.017439	0.016331	-0.001487	-0.582764	0.076172	-0.63916
235.0	9.749493	0.902596	2.327976	0.019875	0.014103	0.000367	-0.583008	0.078369	-0.639404
236.0	9.725652	0.889015	2.308151	0.021287	0.014141	-0.000282	-0.578369	0.078369	-0.636963
237.0	9.715404	0.911194	2.334248	0.021078	0.012486	-0.000509	-0.585205	0.078369	-0.636963
238.0	9.715101	0.911832	2.33526	0.023902	0.012563	-0.001807	-0.578613	0.080566	-0.639404
239.0	9.714839	0.912397	2.33613	0.025541	0.009991	0.002064	-0.582764	0.076172	-0.63916
240.0	9.714611	0.9129	2.33688	0.026337	0.010333	4.9e-05	-0.580566	0.076172	-0.643799
241.0	9.696892	0.922225	2.322727	0.029559	0.003182	0.000578	-0.580811	0.078369	-0.641602
242.0	9.714292	0.914205	2.3377	0.025719	0.010634	-0.001317	-0.580566	0.076172	-0.643799
243.0	9.71238	0.924722	2.305329	0.027539	0.008712	-0.000825	-0.580811	0.082764	-0.637207
244.0	9.729748	0.916804	2.320402	0.028742	0.007094	-0.0017	-0.582764	0.076172	-0.641602
245.0	9.703735	0.938147	2.364257	0.027944	0.00675	0.000315	-0.585205	0.080566	-0.639404
246.0	9.695988	0.925851	2.325057	0.03056	0.005169	-0.001207	-0.580566	0.076172	-0.63916
247.0	9.717709	0.950251	2.3132	0.024113	0.004675	0.003401	-0.580566	0.078369	-0.634766
248.0	9.711679	0.927885	2.307012	0.027734	0.00509	9.1e-05	-0.578369	0.073975	-0.64624
249.0	9.717496	0.951314	2.313659	0.027733	0.005088	9.1e-05	-0.580566	0.076172	-0.63916
250.0	9.733328	0.952949	2.295182	0.022257	0.000316	-4e-06	-0.585205	0.076172	-0.643799
251.0	9.71145	0.929681	2.307252	0.025497	0.003697	-0.000852	-0.582764	0.073975	-0.634521
252.0	9.750784	0.945634	2.309636	0.024258	-0.000964	-0.00289	-0.582764	0.073975	-0.643799
253.0	9.734901	0.945357	2.327774	0.026899	-0.001535	-0.000805	-0.587402	0.078369	-0.632324
254.0	9.695544	0.930825	2.324924	0.023459	-0.001306	-0.000875	-0.578369	0.073975	-0.643799
255.0	9.701539	0.95419	2.330813	0.02792	-0.003798	0.001705	-0.583008	0.080566	-0.641846
256.0	9.719145	0.946049	2.345002	0.022254	0.000309	-4e-06	-0.580566	0.076172	-0.63916
257.0	9.697304	0.922867	2.356938	0.018789	-0.000475	-0.003678	-0.585205	0.078369	-0.636963
258.0	9.701616	0.956146	2.329692	0.022219	-0.005972	-0.00291	-0.580811	0.078369	-0.64624
259.0	9.679861	0.933103	2.341231	0.020607	-0.002398	-0.003183	-0.583008	0.080566	-0.627686
260.0	9.736829	0.940471	2.357857	0.020607	-0.002399	-0.003183	-0.583008	0.078369	-0.644043
261.0	9.726663	0.885912	2.377889	0.023456	-0.001314	-0.000875	-0.578369	0.073975	-0.636963
262.0	9.719316	0.950448	2.342514	0.023455	-0.001316	-0.000875	-0.580566	0.073975	-0.634521
263.0	9.729301	0.929434	2.317249	0.025455	-0.002599	-0.00376	-0.583008	0.078369	-0.644043
264.0	9.713491	0.929411	2.335029	0.024832	-0.007564	-0.004425	-0.578369	0.073975	-0.63916
265.0	9.731185	0.921695	2.348741	0.024242	-0.006247	-0.002188	-0.582764	0.071777	-0.63916
266.0	9.696123	0.939838	2.318875	0.024838	-0.002302	-0.005127	-0.580566	0.073975	-0.641602
267.0	9.725357	0.900667	2.341309	0.023245	-0.002975	-0.001097	-0.580566	0.076172	-0.634521
268.0	9.731338	0.924158	2.347138	0.021218	-0.00271	-0.001815	-0.582764	0.073975	-0.63916
269.0	9.748938	0.916219	2.361351	0.023452	-0.001323	-0.000875	-0.585205	0.078369	-0.641602
270.0	9.731367	0.9255	2.346486	0.023043	0.000631	-0.002022	-0.580566	0.078369	-0.634766
271.0	9.731265	0.92632	2.346586	0.024462	0.005929	-0.003376	-0.587402	0.078369	-0.639404
272.0	9.746978	0.927994	2.328523	0.019023	0.007446	-0.000562	-0.578369	0.073975	-0.63916
273.0	9.735196	0.959925	2.320568	0.018608	0.004136	-0.001002	-0.584961	0.073975	-0.641602
274.0	9.713301	0.93669	2.332911	0.01414	0.001359	-0.00288	-0.576172	0.078369	-0.639404
275.0	9.711639	0.946872	2.299452	0.01331	-0.005261	-0.003759	-0.585205	0.078369	-0.641602
276.0	9.713381	0.938048	2.332031	0.014928	-0.003573	-0.004187	-0.580566	0.073975	-0.641602
277.0	9.695892	0.947352	2.316783	0.011076	-0.00665	-0.004697	-0.582764	0.073975	-0.636963
278.0	9.680103	0.946922	2.334676	0.011309	-0.003974	-0.000875	-0.578369	0.076172	-0.643799
279.0	9.707696	0.916902	2.324099	0.006641	-0.003142	-0.00368	-0.585205	0.078369	-0.641602
280.0	9.680226	0.947986	2.333734	0.007022	-0.006118	-0.006134	-0.584961	0.071777	-0.636719
281.0	9.709571	0.908541	2.356005	0.009483	-0.007318	-0.000665	-0.582764	0.076172	-0.634521
282.0	9.715676	0.931722	2.361372	0.002989	-0.009829	-0.00326	-0.580811	0.078369	-0.641602
283.0	9.708263	0.91878	2.320988	0.002989	-0.009829	-0.00326	-0.587158	0.073975	-0.63208
284.0	9.733636	0.92393	2.374112	0.003196	-0.008175	-0.003041	-0.583008	0.080566	-0.639404
285.0	9.726185	0.910922	2.333892	0.001785	-0.008208	-0.002392	-0.582764	0.073975	-0.634521
286.0	9.710523	0.910246	2.35142	0.003397	-0.011785	-0.002112	-0.584961	0.073975	-0.641602
287.0	9.734203	0.924877	2.371417	-0.00065	-0.005988	-0.004259	-0.582764	0.076172	-0.632324
288.0	9.725005	0.921301	2.298194	0.006661	-0.007386	0.00063	-0.580322	0.071777	-0.636719
289.0	9.731062	0.944477	2.303732	0.004198	-0.006187	-0.004838	-0.582764	0.076172	-0.636963
290.0	9.709405	0.921096	2.315285	0.001785	-0.008209	-0.002392	-0.582764	0.076172	-0.63916
291.0	9.72544	0.922324	2.295942	0.001785	-0.008209	-0.002392	-0.584961	0.073975	-0.636719
292.0	9.719796	0.976795	2.293291	-0.003057	-0.002745	-0.002523	-0.582764	0.073975	-0.63916
293.0	9.749044	0.936934	2.31626	-0.001819	0.001921	-0.000499	-0.585205	0.076172	-0.63916
294.0	9.753165	0.969185	2.289734	-0.004226	0.005165	0.001236	-0.585205	0.076172	-0.63916
295.0	9.786487	0.961211	2.286542	-0.008044	0.008375	0.003621	-0.587158	0.073975	-0.634521
296.0	9.735203	0.976828	2.277118	-0.013295	0.015793	0.002343	-0.580566	0.076172	-0.636963
297.0	9.736558	0.967012	2.311897	-0.013939	0.01507	-0.002626	-0.580566	0.078369	-0.632324
298.0	9.759759	0.981045	2.334123	-0.008454	0.010327	0.002473	-0.584961	0.073975	-0.63916
299.0	9.737747	0.957004	2.347388	-0.012742	0.008182	-0.002785	-0.584961	0.073975	-0.634521
300.0	9.737522	0.956987	2.34833	-0.014769	0.008448	-0.003503	-0.581055	0.084961	-0.639648
301.0	9.77241	0.939825	2.378676	-0.012328	0.011491	-0.002346	-0.589844	0.080566	-0.634766
302.0	9.731045	0.93411	2.344411	-0.012944	0.01179	-0.003713	-0.578369	0.078369	-0.641602
303.0	9.740724	0.912149	2.32088	-0.015151	0.011421	-0.001049	-0.582764	0.076172	-0.63916
304.0	9.708682	0.909928	2.359132	-0.013125	0.011155	-0.00033	-0.578369	0.076172	-0.634521
305.0	9.706748	0.919223	2.327141	-0.015359	0.009765	-0.001268	-0.587158	0.073975	-0.636719
306.0	9.694689	0.873276	2.315678	-0.018797	0.009995	-0.001339	-0.580566	0.078369	-0.636963
307.0	9.694451	0.87317	2.316714	-0.013359	0.008478	-0.004152	-0.580811	0.080566	-0.634766
308.0	9.705924	0.841807	2.325805	-0.013158	0.004868	-0.003225	-0.585205	0.080566	-0.637207
309.0	9.670634	0.858962	2.297215	-0.012951	0.006522	-0.003005	-0.578369	0.078369	-0.634766
310.0	9.693909	0.873202	2.318967	-0.012744	0.008176	-0.002784	-0.578369	0.078369	-0.641602
311.0	9.703678	0.851323	2.295119	-0.010511	0.009565	-0.001844	-0.587646	0.082764	-0.637207
312.0	9.691812	0.882662	2.287697	-0.006665	0.007379	-0.000626	-0.580566	0.078369	-0.634766
313.0	9.709224	0.873984	2.302998	-0.004845	0.005459	-0.000128	-0.587402	0.076172	-0.634521
314.0	9.697419	0.905293	2.295333	-0.004638	0.007113	9.3e-05	-0.583008	0.080566	-0.639404
315.0	9.722386	0.909816	2.350092	-0.000585	0.006582	0.001532	-0.587158	0.073975	-0.641602
316.0	9.713069	0.906062	2.278005	0.000413	0.003309	0.000442	-0.583008	0.080566	-0.644043
317.0	9.746488	0.89827	2.274406	0.002258	0.002407	0.004544	-0.589844	0.080566	-0.641846
318.0	9.7206	0.91877	2.317762	0.003256	-0.000867	0.003454	-0.580811	0.080566	-0.639404
319.0	9.697206	0.904317	2.296619	0.004461	-0.002486	0.002585	-0.585205	0.078369	-0.639404
320.0	9.742586	0.942237	2.304971	0.008307	-0.004671	0.003803	-0.585205	0.078369	-0.636963
321.0	9.697463	0.904134	2.295606	0.002611	-0.006848	-0.000812	-0.585205	0.078369	-0.630127
322.0	9.690244	0.968236	2.25955	0.002788	-0.011476	-0.00349	-0.583008	0.080566	-0.637207
323.0	9.697832	0.904782	2.293793	0.003408	-0.006513	-0.002827	-0.5896	0.078369	-0.632324
324.0	9.751585	0.930947	2.243799	-0.000444	-0.009592	-0.00334	-0.580566	0.078369	-0.634766
325.0	9.729994	0.907342	2.254995	-0.003474	-0.011317	-0.002265	-0.585205	0.076172	-0.634521
326.0	9.765394	0.890387	2.283008	-0.002476	-0.014591	-0.003354	-0.582764	0.076172	-0.634521
327.0	9.740437	0.886191	2.227939	-0.00411	-0.006771	-0.007939	-0.587402	0.076172	-0.641602
328.0	9.756462	0.887646	2.208659	-0.001856	-0.009628	-0.002692	-0.585205	0.078369	-0.634766
329.0	9.732463	0.89911	2.284189	-0.001856	-0.009628	-0.002692	-0.583252	0.084961	-0.639648
330.0	9.735065	0.864259	2.218949	0.005636	-0.010389	-0.001184	-0.583008	0.078369	-0.627686
331.0	9.731169	0.909034	2.249235	0.00546	-0.00576	0.001493	-0.587402	0.076172	-0.632324
332.0	9.748838	0.900445	2.263451	0.009519	-0.001026	0.002226	-0.583008	0.080566	-0.637207
333.0	9.742997	0.877568	2.256891	0.007901	-0.002716	0.002653	-0.585205	0.078369	-0.639404
334.0	9.731376	0.908883	2.248398	0.008314	0.000593	0.003095	-0.580811	0.080566	-0.637207
335.0	9.770766	0.923967	2.25076	0.00893	0.000293	0.004462	-0.592285	0.084961	-0.641846
336.0	9.749044	0.900001	2.262737	0.013365	-0.003213	0.003442	-0.583252	0.087158	-0.637451
337.0	9.766658	0.891266	2.277249	0.01137	0.003336	0.005621	-0.5896	0.076172	-0.634521
338.0	9.75501	0.922475	2.268928	0.017832	-0.000436	0.005321	-0.585205	0.078369	-0.636963
339.0	9.75504	0.922248	2.26889	0.015423	0.002804	0.007058	-0.589844	0.080566	-0.636963
340.0	9.715623	0.906796	2.266791	0.010346	0.00559	0.003106	-0.583008	0.080566	-0.644043
341.0	9.705586	0.928529	2.291913	0.012781	0.003369	0.004972	-0.583008	0.082764	-0.634766
342.0	9.687972	0.936931	2.277539	0.008727	0.003901	0.003535	-0.5896	0.078369	-0.632324
343.0	9.693648	0.882554	2.279947	0.014399	0.005057	0.004544	-0.589844	0.082764	-0.634766
344.0	9.717153	0.896664	2.300823	0.01054	-0.003285	0.004742	-0.585205	0.078369	-0.636963
345.0	9.699648	0.905069	2.285985	0.016011	0.00148	0.004823	-0.587646	0.084961	-0.63501
346.0	9.71554	0.905857	2.267525	0.009135	0.001945	0.004682	-0.581055	0.084961	-0.644287
347.0	9.737323	0.929243	2.255541	0.01504	0.005776	0.009513	-0.587646	0.080566	-0.630127
348.0	9.727309	0.950509	2.280761	0.011602	0.006009	0.009442	-0.585449	0.082764	-0.634766
349.0	9.754857	0.919365	2.270849	0.011595	0.000744	0.010152	-0.587646	0.080566	-0.634766
350.0	9.721495	0.926227	2.274636	0.00795	-0.000678	0.009862	-0.580811	0.078369	-0.641602
351.0	9.741838	0.958738	2.228695	0.005501	-0.008985	0.009415	-0.587646	0.082764	-0.637207
352.0	9.71035	0.956188	2.264749	0.004063	-0.01004	0.006462	-0.582764	0.073975	-0.63916
353.0	9.78346	0.963225	2.262283	0.006297	-0.008653	0.0074	-0.5896	0.078369	-0.630127
354.0	9.760197	0.948591	2.240535	-0.001835	-0.008607	0.000922	-0.578369	0.078369	-0.634766
355.0	9.736877	0.934059	2.218978	-0.002215	-0.00563	0.003375	-0.592041	0.080566	-0.634766
356.0	9.715238	0.909941	2.230605	-0.006684	-0.008406	0.0015	-0.585205	0.078369	-0.636963
357.0	9.748895	0.902087	2.225897	-0.007507	-0.009761	-8.6e-05	-0.589844	0.080566	-0.632324
358.0	9.749167	0.901988	2.224747	-0.004693	-0.01496	-0.000673	-0.583008	0.082764	-0.630127
359.0	9.73355	0.901053	2.242133	-0.006711	-0.009429	-0.002102	-0.596436	0.080566	-0.632324
360.0	9.76124	0.870748	2.231132	-0.005916	-0.009096	-0.004118	-0.587891	0.089355	-0.632813
361.0	9.745563	0.870183	2.248654	-0.00351	-0.01234	-0.005853	-0.585205	0.078369	-0.639404
362.0	9.744104	0.880025	2.214306	-0.00369	-0.012974	-0.00247	-0.585205	0.080566	-0.639404
363.0	9.73439	0.902004	2.238102	-0.004477	-0.008042	-0.001164	-0.585449	0.082764	-0.637207
364.0	9.750434	0.902989	2.218779	0.000987	-0.008543	-0.000377	-0.576416	0.084961	-0.63501
365.0	9.734753	0.902146	2.236465	0.002398	-0.00851	-0.001026	-0.585205	0.080566	-0.630127
366.0	9.750844	0.903158	2.216908	0.001187	-0.012154	0.000552	-0.580811	0.082764	-0.634766
367.0	9.752795	0.893703	2.249029	0.002397	-0.00851	-0.001026	-0.587646	0.080566	-0.639404
368.0	9.711896	0.888137	2.212592	0.006243	-0.0107	0.00019	-0.583008	0.082764	-0.639404
369.0	9.747256	0.871179	2.240916	0.011715	-0.005935	0.000265	-0.589844	0.080566	-0.636963
370.0	9.747342	0.871343	2.24048	0.010928	-0.001002	0.001571	-0.587402	0.078369	-0.636963
371.0	9.729811	0.87996	2.225604	0.00931	-0.002691	0.002002	-0.585449	0.084961	-0.639648
372.0	9.720003	0.901988	2.249871	0.011714	-0.005936	0.000266	-0.585205	0.080566	-0.632324
373.0	9.735971	0.90304	2.230793	0.011336	-0.002958	0.002719	-0.589844	0.082764	-0.634766
374.0	9.724416	0.934596	2.221956	0.013333	-0.004248	-0.000165	-0.592041	0.082764	-0.637207
375.0	9.757981	0.92702	2.217463	0.010333	-0.004947	0.004517	-0.589844	0.082764	-0.634766
376.0	9.765819	0.940366	2.256163	0.015767	-0.006472	0.001701	-0.592041	0.082764	-0.632568
377.0	9.77415	0.927905	2.197539	0.01236	-0.005214	0.005235	-0.587646	0.080566	-0.630127
378.0	9.736641	0.903058	2.227858	0.015389	-0.003495	0.004153	-0.585449	0.082764	-0.637207
379.0	9.758548	0.926859	2.215037	0.018209	-0.003431	0.002854	-0.589844	0.080566	-0.636963
380.0	9.736811	0.903215	2.227052	0.016599	0.000147	0.002572	-0.583252	0.084961	-0.637207
381.0	9.754429	0.89469	2.241538	0.013778	8.2e-05	0.003872	-0.592285	0.084961	-0.63501
382.0	9.709422	0.933663	2.236766	0.015388	-0.003497	0.004154	-0.585449	0.087158	-0.637451
383.0	9.725464	0.934448	2.217427	0.011733	-0.010183	0.004585	-0.5896	0.078369	-0.634766
384.0	9.725629	0.93413	2.216836	0.008137	-4.6e-05	0.00647	-0.585205	0.080566	-0.632324
385.0	9.708195	0.942371	2.201656	0.009706	-0.009917	0.003868	-0.589844	0.084961	-0.630371
386.0	9.743606	0.925136	2.22995	0.005861	-0.007726	0.002651	-0.5896	0.078369	-0.636963
387.0	9.708642	0.942046	2.199824	0.006269	-0.009681	0.003801	-0.587646	0.084961	-0.630371
388.0	9.742321	0.934178	2.194902	0.004242	-0.009413	0.003084	-0.589844	0.082764	-0.634766
389.0	9.71898	0.919621	2.173256	0.001014	-0.007521	0.003234	-0.594482	0.082764	-0.630127
390.0	9.72696	0.932532	2.211662	0.001036	-0.011762	0.007551	-0.585449	0.082764	-0.641846
391.0	9.770568	0.902677	2.181741	-0.000261	-0.013216	-0.002384	-0.587646	0.082764	-0.632568
392.0	9.755016	0.901694	2.199079	-0.004459	-0.012284	0.003168	-0.587891	0.089355	-0.630371
393.0	9.73776	0.910196	2.18296	-0.003124	-0.019572	-0.003968	-0.589844	0.084961	-0.632568
394.0	9.753978	0.911119	2.162632	-0.003676	-0.017222	0.001867	-0.585449	0.082764	-0.632568
395.0	9.754349	0.910977	2.161021	-0.00491	-0.016624	-0.000866	-0.594482	0.082764	-0.634766
396.0	9.770522	0.911934	2.140831	-0.007764	-0.017713	-0.003165	-0.589844	0.080566	-0.636963
397.0	9.77864	0.925433	2.178523	-0.009174	-0.017745	-0.002514	-0.592041	0.078369	-0.632324
398.0	9.745517	0.933359	2.18102	-0.011434	-0.014892	-0.007764	-0.585449	0.084961	-0.632568
399.0	9.75745	0.902205	2.188042	-0.014429	-0.015587	-0.003077	-0.585449	0.084961	-0.63501
400.0	9.775424	0.893851	2.200965	-0.009418	-0.02043	-0.006333	-0.585449	0.087158	-0.630371
401.0	9.752196	0.879855	2.178459	-0.01182	-0.017182	-0.004596	-0.594238	0.080566	-0.632324
402.0	9.770144	0.871437	2.191537	-0.01302	-0.015558	-0.003727	-0.587646	0.084961	-0.637207
403.0	9.741162	0.911426	2.167211	-0.01443	-0.015592	-0.003076	-0.592041	0.080566	-0.632324
404.0	9.77485	0.903671	2.162059	-0.01865	-0.010419	-0.001835	-0.585449	0.084961	-0.637207
405.0	9.786696	0.872141	2.169652	-0.01765	-0.008431	-0.003635	-0.592285	0.089355	-0.63501
406.0	9.737629	0.878772	2.191624	-0.01906	-0.008465	-0.002983	-0.585693	0.089355	-0.630371
407.0	9.759514	0.902566	2.178671	-0.01665	-0.006444	-0.005435	-0.590088	0.089355	-0.628174
408.0	9.743763	0.901773	2.197028	-0.016023	-0.001474	-0.004781	-0.587646	0.082764	-0.637207
409.0	9.761413	0.893527	2.211395	-0.010803	-0.004657	-0.007825	-0.594727	0.089355	-0.630371
410.0	9.755481	0.871047	2.204888	-0.012795	-0.003367	-0.004937	-0.587891	0.087158	-0.632568
411.0	9.771272	0.872162	2.186212	-0.010349	-0.000321	-0.003787	-0.592285	0.084961	-0.62793
412.0	9.72589	0.834162	2.177918	-0.007494	0.000768	-0.001489	-0.589844	0.082764	-0.632568
413.0	9.747595	0.857925	2.165765	-0.007285	0.002425	-0.001271	-0.589844	0.080566	-0.632324
414.0	9.731714	0.85683	2.184828	-0.009686	0.005672	0.00047	-0.587891	0.089355	-0.63501
415.0	9.719889	0.887827	2.177337	-0.005794	0.009774	0.004571	-0.587646	0.084961	-0.62793
416.0	9.727489	0.900473	2.217898	-0.010223	0.013287	0.005598	-0.585449	0.087158	-0.637451
417.0	9.725455	0.909383	2.185864	-0.012296	0.007261	0.001992	-0.590088	0.089355	-0.632813
418.0	9.723514	0.918585	2.153322	-0.012132	0.002625	-0.000682	-0.587646	0.084961	-0.63501
419.0	9.758744	0.901146	2.182703	-0.015161	0.000901	0.000403	-0.590088	0.087158	-0.632568
420.0	9.723477	0.91811	2.153694	-0.013378	-0.002045	-0.002704	-0.589844	0.084961	-0.630371
421.0	9.7528	0.877968	2.176514	-0.01396	-0.000723	-0.000468	-0.598877	0.084961	-0.63501
422.0	9.762659	0.856026	2.151594	-0.014205	-0.003401	-0.004289	-0.592529	0.091553	-0.632813
423.0	9.797963	0.838934	2.180492	-0.00994	-0.002279	-0.002642	-0.592285	0.089355	-0.63501
424.0	9.796057	0.848634	2.147603	-0.012369	0.005216	-0.00521	-0.594727	0.089355	-0.632813
425.0	9.79399	0.858292	2.115483	-0.012117	0.013163	-0.002095	-0.599365	0.095947	-0.630615
426.0	9.795546	0.848634	2.149935	-0.006032	0.012362	4.7e-05	-0.587646	0.082764	-0.62793
427.0	9.746096	0.855158	2.173588	-0.006659	0.007392	-0.000612	-0.587891	0.087158	-0.621094
428.0	9.767716	0.878996	2.16188	-0.004257	0.004148	-0.002354	-0.585449	0.087158	-0.623291
429.0	9.777445	0.857343	2.137488	-0.004875	0.004449	-0.00372	-0.587891	0.089355	-0.621094
430.0	9.759654	0.866176	2.123584	-0.004458	0.007761	-0.00328	-0.594727	0.089355	-0.628174
431.0	9.761266	0.856737	2.157624	-0.001394	0.010506	-0.000761	-0.590088	0.089355	-0.632813
432.0	9.745276	0.855823	2.177001	-0.00202	0.005537	-0.00142	-0.590088	0.087158	-0.630371
433.0	9.743362	0.865625	2.144209	-0.001854	0.000903	-0.004097	-0.594727	0.091553	-0.623535
434.0	9.709879	0.873448	2.148372	0.001619	0.001691	-0.000431	-0.587891	0.089355	-0.623535
435.0	9.715801	0.89625	2.154782	0.000827	0.001355	0.001586	-0.592285	0.089355	-0.630371
436.0	9.727502	0.864824	2.162952	0.000993	-0.003278	-0.001091	-0.587891	0.089355	-0.632813
437.0	9.731659	0.89734	2.135933	0.00141	3.5e-05	-0.000651	-0.596924	0.087158	-0.630371
438.0	9.753143	0.844254	2.119517	0.002619	0.003683	-0.002229	-0.592529	0.091553	-0.632813
439.0	9.760865	0.857813	2.159009	0.001994	-0.001286	-0.002888	-0.590332	0.09375	-0.628174
440.0	9.759064	0.867718	2.125663	0.001785	-0.002943	-0.003108	-0.590332	0.091553	-0.632813
441.0	9.759152	0.867956	2.125166	0.002604	-0.006857	-0.000816	-0.594727	0.091553	-0.630615
442.0	9.725888	0.87563	2.128384	-0.002661	-0.009973	-0.000667	-0.592285	0.084961	-0.62793
443.0	9.741968	0.876772	2.108469	-0.002912	-0.01792	-0.003784	-0.590088	0.089355	-0.628174
444.0	9.748271	0.899853	2.113	-0.002295	-0.018222	-0.002418	-0.594727	0.091553	-0.625977
445.0	9.738583	0.844707	2.131837	-0.005115	-0.018292	-0.001114	-0.596924	0.087158	-0.630371
446.0	9.744939	0.867616	2.136226	-0.006151	-0.021305	-0.002919	-0.596924	0.089355	-0.630371
447.0	9.755238	0.845944	2.109179	-0.006569	-0.024619	-0.003359	-0.592529	0.09375	-0.623535
448.0	9.734093	0.822231	2.11873	-0.006376	-0.033508	-0.001727	-0.590332	0.091553	-0.630615
449.0	9.72504	0.844043	2.140083	-0.010031	-0.040208	-0.001301	-0.594727	0.09375	-0.625977
450.0	9.712219	0.808013	2.089918	-0.004828	-0.053933	-0.00294	-0.592529	0.091553	-0.623535
451.0	9.703539	0.830168	2.109481	-0.006489	-0.056653	-0.006108	-0.590332	0.091553	-0.625977
452.0	9.704708	0.830573	2.10394	-0.006081	-0.05862	-0.004962	-0.587891	0.089355	-0.628174
453.0	9.739351	0.823402	2.093967	-0.005094	-0.061909	-0.006054	-0.592529	0.091553	-0.618896
454.0	9.756332	0.824943	2.069244	-0.003899	-0.063541	-0.006927	-0.592285	0.084961	-0.632568
455.0	9.775321	0.816898	2.077426	-0.003491	-0.06551	-0.005781	-0.594727	0.089355	-0.628174
456.0	9.73147	0.856471	2.067073	0.001352	-0.065716	-0.006381	-0.592285	0.089355	-0.625732
457.0	9.787794	0.873368	2.044237	-5.3e-05	-0.060483	-0.00643	-0.590332	0.09375	-0.623535
458.0	9.739951	0.88055	2.060978	0.005405	-0.066268	-0.004964	-0.596924	0.089355	-0.628174
459.0	9.766615	0.860325	2.010835	0.005401	-0.066279	-0.004963	-0.594727	0.091553	-0.621338
460.0	9.799221	0.862894	1.966815	0.003779	-0.067984	-0.004523	-0.599121	0.091553	-0.623535
461.0	9.775017	0.807265	1.999533	0.010238	-0.066495	-0.00557	-0.597168	0.09375	-0.618896
462.0	9.827483	0.791766	2.002974	0.015131	-0.06568	-0.002577	-0.594727	0.091553	-0.625977
463.0	9.825209	0.836908	2.027325	0.021425	-0.070112	0.000462	-0.594482	0.087158	-0.623291
464.0	9.806439	0.77822	1.96859	0.022881	-0.069066	0.003407	-0.596924	0.091553	-0.630615
465.0	9.794427	0.767558	2.013741	0.019916	-0.064501	0.007403	-0.599121	0.089111	-0.621094
466.0	9.814873	0.72355	1.957522	0.029454	-0.060258	0.008844	-0.601318	0.089111	-0.623535
467.0	9.861497	0.761091	1.959554	0.030769	-0.054561	0.014461	-0.596924	0.091553	-0.618896
468.0	9.886602	0.851233	1.979586	0.034619	-0.034207	0.023391	-0.59668	0.086914	-0.618652
469.0	9.851668	0.866489	1.948156	0.027049	-0.017196	0.026799	-0.599121	0.091309	-0.614258
470.0	9.879553	0.833763	1.935768	0.023256	-0.013977	0.029215	-0.601563	0.093506	-0.612061
471.0	9.858552	0.80743	1.946505	0.012507	-0.021887	0.029378	-0.599365	0.09375	-0.621338
472.0	9.922336	0.833965	1.967391	-0.005779	-0.002197	0.031519	-0.599121	0.089111	-0.616455
473.0	9.909334	0.820551	2.01925	-0.012352	-0.000455	0.024671	-0.596924	0.091553	-0.623535
474.0	9.877391	0.791615	1.95866	-0.003124	-0.018615	-0.000354	-0.594727	0.09375	-0.623535
475.0	9.864295	0.72139	1.847637	-0.003671	-0.010567	-0.024317	-0.601563	0.091309	-0.614258
476.0	9.784949	0.617132	1.839858	0.010292	0.003572	-0.040274	-0.599121	0.089111	-0.618896
477.0	9.729681	0.605555	1.857145	0.03163	0.001464	-0.045664	-0.599365	0.095947	-0.616699
478.0	9.692398	0.662799	1.893387	0.041881	0.017006	-0.040704	-0.598877	0.08252	-0.625488
479.0	9.686125	0.798516	1.897507	0.050782	0.033543	-0.031483	-0.599121	0.089111	-0.614258
480.0	9.693566	0.815126	1.939775	0.050243	0.037316	-0.015058	-0.599121	0.091553	-0.621338
481.0	9.724088	0.895889	1.909396	0.04375	0.037242	-0.003405	-0.597168	0.09375	-0.616699
482.0	9.705675	0.90512	1.897707	0.042024	0.025371	0.005465	-0.599121	0.091553	-0.621338
483.0	9.722895	0.819451	1.910163	0.034006	0.023212	0.010576	-0.596924	0.089355	-0.618896
484.0	9.804915	0.804627	1.884434	0.031609	0.021184	0.013045	-0.596924	0.091553	-0.618896
485.0	9.878154	0.760512	1.976642	0.029568	0.016164	0.013065	-0.59668	0.084717	-0.614014
486.0	9.918711	0.739441	1.915381	0.023312	0.011052	0.015064	-0.596924	0.089355	-0.618896
487.0	9.969508	0.645192	1.922682	0.017641	0.015176	0.013381	-0.596924	0.089355	-0.618896
488.0	9.941653	0.597814	1.93077	0.017169	0.016101	0.008632	-0.594727	0.09375	-0.607422
489.0	9.847111	0.566091	1.947027	0.018287	0.002871	0.005609	-0.599365	0.09375	-0.618896
490.0	9.7975	0.624068	1.876777	0.028481	9e-05	-0.001456	-0.592529	0.091553	-0.623535
491.0	9.736624	0.663161	1.891901	0.037555	0.010536	-0.0055	-0.594727	0.089355	-0.616455
492.0	9.750549	0.700883	1.938341	0.039391	0.019167	-0.00646	-0.592285	0.087158	-0.618652
493.0	9.7383	0.733777	1.931768	0.047675	0.023996	-0.007756	-0.596924	0.089355	-0.618896
494.0	9.788915	0.719301	1.944083	0.04487	0.029211	-0.007165	-0.599121	0.086914	-0.621094
495.0	9.827576	0.73615	1.948903	0.04369	0.041397	-0.007753	-0.59668	0.086914	-0.618652
496.0	9.866144	0.752859	1.954244	0.051025	0.03999	-0.002907	-0.592285	0.087158	-0.621094
497.0	9.880896	0.754549	1.939546	0.054212	0.050093	0.006049	-0.59668	0.08252	-0.623291
498.0	9.87998	0.754688	1.944149	0.050043	0.051034	0.011622	-0.594727	0.089355	-0.621094
499.0	9.837641	0.748368	1.913486	0.054501	0.043251	0.014927	-0.592285	0.087158	-0.621094
500.0	9.856487	0.780418	1.871455	0.055221	0.045025	0.023487	-0.599121	0.086914	-0.623291
501.0	9.847713	0.765116	1.836532	0.049441	0.04956	0.028766	-0.59668	0.08252	-0.623291
502.0	9.795898	0.778879	1.830839	0.036993	0.050968	0.034886	-0.589844	0.084961	-0.621094
503.0	9.783668	0.807119	1.826378	0.030347	0.038321	0.040803	-0.599121	0.089355	-0.628174
504.0	9.815144	0.882085	1.795201	0.018189	0.025152	0.042361	-0.594727	0.089355	-0.616455
505.0	9.889677	0.799064	1.82437	0.013355	0.010586	0.048781	-0.599121	0.091553	-0.618896
506.0	9.930662	0.696171	1.759044	-0.002632	-0.009879	0.054203	-0.594482	0.087158	-0.621094
507.0	9.938969	0.677023	1.69962	-0.028243	-0.023583	0.063684	-0.599121	0.089111	-0.616455
508.0	9.929767	0.614481	1.7185	-0.05239	-0.030953	0.075369	-0.590088	0.087158	-0.625732
509.0	9.950806	0.397217	1.692823	-0.073206	-0.032888	0.093357	-0.596924	0.091553	-0.618896
510.0	9.916252	0.352154	1.754952	-0.095392	-0.024314	0.110533	-0.594971	0.095947	-0.625977
511.0	9.923084	0.362404	1.759585	-0.111532	-0.010575	0.107	-0.592529	0.09375	-0.616699
512.0	9.857225	0.252257	1.701058	-0.109212	0.014326	0.119185	-0.594971	0.095947	-0.628418
513.0	9.865336	0.088312	1.769127	-0.106332	0.042128	0.124823	-0.597168	0.095947	-0.623779
514.0	9.828126	0.014411	1.741993	-0.104729	0.069499	0.124147	-0.592773	0.095947	-0.623779
515.0	9.770896	0.046487	1.927572	-0.10081	0.08304	0.123194	-0.594971	0.095947	-0.616699
516.0	9.74039	0.047657	2.103445	-0.09397	0.082452	0.123313	-0.588135	0.095947	-0.625977
517.0	9.566452	-0.034288	2.155085	-0.07824	0.077647	0.10646	-0.594971	0.098145	-0.626221
518.0	9.41761	-0.13516	2.162253	-0.055275	0.069368	0.087267	-0.594971	0.098145	-0.626221
519.0	9.327601	-0.237406	2.21869	-0.034753	0.074277	0.071777	-0.59082	0.106934	-0.621826
520.0	9.249917	-0.292604	2.288015	-0.016732	0.082816	0.065026	-0.592773	0.100342	-0.628418
521.0	9.138533	-0.251802	2.332588	0.012905	0.080041	0.059234	-0.592773	0.100342	-0.630859
522.0	9.089059	-0.258585	2.395887	0.042455	0.082892	0.059732	-0.590576	0.100342	-0.626221
523.0	8.977247	-0.242006	2.343567	0.070108	0.093301	0.066022	-0.594971	0.100342	-0.626221
524.0	8.838405	-0.082484	2.370851	0.094965	0.116556	0.086394	-0.590576	0.100342	-0.630859
525.0	8.751514	0.135894	2.414775	0.118765	0.152938	0.109815	-0.588135	0.098145	-0.637695
526.0	8.584123	0.506169	2.36409	0.135993	0.179316	0.142902	-0.58374	0.100342	-0.626221
527.0	8.563761	0.885302	2.310631	0.136088	0.191641	0.193151	-0.588379	0.100342	-0.623779
528.0	8.8478	1.042523	2.257824	0.085078	0.240682	0.241495	-0.588135	0.098145	-0.630859
529.0	9.192626	1.154189	2.195685	0.040037	0.247856	0.265273	-0.588623	0.109131	-0.631104
530.0	9.72374	1.173728	2.069361	0.009433	0.2502	0.272918	-0.57959	0.106934	-0.633545
531.0	10.357346	1.039979	2.099711	-0.00883	0.276593	0.265922	-0.586182	0.104736	-0.640381
532.0	10.875126	0.562562	2.258913	-0.003118	0.305742	0.243488	-0.583984	0.102539	-0.630859
533.0	10.930304	-0.00985	2.207289	0.020554	0.27497	0.214931	-0.579346	0.102539	-0.642578
534.0	10.66719	-0.101653	1.810212	0.053666	0.273537	0.198132	-0.570557	0.107178	-0.64502
535.0	10.390632	0.164184	1.767356	0.077524	0.37068	0.20315	-0.582275	0.115723	-0.635986
536.0	10.351995	0.529634	1.880466	0.08487	0.429508	0.20129	-0.570801	0.111572	-0.649902
537.0	10.42639	0.933502	1.931459	0.079442	0.392251	0.165882	-0.568604	0.111572	-0.645264
538.0	10.634634	1.36876	1.733967	0.075361	0.332888	0.122148	-0.572998	0.109375	-0.647461
539.0	10.810763	1.498771	1.733362	0.056614	0.291622	0.079887	-0.572998	0.109131	-0.64502
540.0	10.754571	1.603559	1.613622	0.033052	0.263774	0.023678	-0.570557	0.109375	-0.6521
541.0	10.75746	1.636441	1.612506	0.005994	0.223892	-0.038461	-0.572754	0.107178	-0.6521
542.0	10.552344	1.695996	1.378189	-0.027225	0.176177	-0.109633	-0.566162	0.107178	-0.6521
543.0	10.412456	1.706411	1.269423	-0.077223	0.164658	-0.168184	-0.568604	0.111572	-0.654541
544.0	10.428511	1.579095	1.411592	-0.12364	0.206876	-0.209313	-0.561768	0.109375	-0.6521
545.0	10.49526	1.355156	1.672902	-0.164126	0.216035	-0.257757	-0.568604	0.111572	-0.654541
546.0	10.447757	1.076648	1.789342	-0.163068	0.181744	-0.29193	-0.563721	0.107178	-0.656738
547.0	10.303231	0.85522	1.808275	-0.142201	0.164914	-0.310868	-0.559326	0.109375	-0.65918
548.0	9.973679	0.750854	1.784257	-0.118478	0.181089	-0.309332	-0.565918	0.10498	-0.661133
549.0	9.854689	0.749816	1.830594	-0.098503	0.213928	-0.287713	-0.559326	0.10498	-0.661133
550.0	9.667364	0.744039	1.948846	-0.070691	0.232639	-0.257001	-0.563721	0.102783	-0.663574
551.0	9.486489	0.718648	1.936526	-0.049021	0.229541	-0.233011	-0.561523	0.10498	-0.661133
552.0	9.396085	0.697272	1.908896	-0.043913	0.229143	-0.216659	-0.561523	0.102783	-0.663574
553.0	9.464582	0.740706	1.868303	-0.038628	0.240184	-0.189725	-0.556885	0.100586	-0.658691
554.0	9.543747	0.75096	1.837212	-0.016631	0.231703	-0.171964	-0.554443	0.096191	-0.670166
555.0	9.588975	0.758921	1.840292	0.010641	0.226286	-0.154128	-0.556885	0.102783	-0.665771
556.0	9.564531	0.787785	1.739148	0.038119	0.214795	-0.130807	-0.547607	0.096191	-0.670166
557.0	9.531936	0.763085	1.73048	0.070266	0.226807	-0.09982	-0.554443	0.096191	-0.667969
558.0	9.522475	0.827434	1.749275	0.095661	0.234743	-0.080251	-0.545166	0.091797	-0.665283
559.0	9.502576	0.921566	1.758441	0.112308	0.227025	-0.055009	-0.549805	0.096191	-0.670166
560.0	9.386657	1.051259	1.809938	0.111576	0.226701	-0.036272	-0.542969	0.093994	-0.672363
561.0	9.41234	1.111986	1.792494	0.108615	0.213644	-0.029134	-0.549805	0.091797	-0.669922
562.0	9.426605	1.193613	1.797867	0.090423	0.205227	-0.014856	-0.545166	0.0896	-0.672363
563.0	9.385841	1.267696	1.780826	0.066973	0.201527	-0.005939	-0.542969	0.091797	-0.672363
564.0	9.439708	1.361245	1.791849	0.039424	0.204557	0.004224	-0.540771	0.091797	-0.677002
565.0	9.569587	1.251659	1.804486	0.016184	0.207658	0.012612	-0.542969	0.091797	-0.672363
566.0	9.54379	1.159467	1.796568	0.011511	0.187802	0.012439	-0.540527	0.0896	-0.669922
567.0	9.518385	1.067077	1.786852	0.017361	0.171445	0.017031	-0.533691	0.085205	-0.676758
568.0	9.528435	0.975715	1.742944	0.027322	0.180305	0.019713	-0.538574	0.093994	-0.677002
569.0	9.362409	0.959898	1.765084	0.037088	0.182476	0.031255	-0.533936	0.093994	-0.674805
570.0	9.410028	0.872554	1.760654	0.051844	0.175729	0.044129	-0.536133	0.0896	-0.677002
571.0	9.407334	0.869504	1.776486	0.057011	0.17089	0.041158	-0.536133	0.0896	-0.688477
572.0	9.307967	1.055012	1.76522	0.062387	0.140856	0.03002	-0.531494	0.0896	-0.683838
573.0	9.168089	1.217618	1.777146	0.069016	0.106724	0.022633	-0.533936	0.0896	-0.681641
574.0	9.207422	1.313333	1.688216	0.064836	0.073783	0.021454	-0.531494	0.0896	-0.674561
575.0	9.21384	1.41698	1.59693	0.051524	0.051328	0.020867	-0.5271	0.0896	-0.674561
576.0	9.307091	1.509227	1.559453	0.033111	0.019754	0.017258	-0.526855	0.083008	-0.672119
577.0	9.324648	1.581257	1.473317	0.011308	-0.006411	0.012671	-0.529541	0.096191	-0.677246
578.0	9.350815	1.54084	1.498352	0.000224	-0.022574	-0.004312	-0.524658	0.087402	-0.676758
579.0	9.316838	1.473	1.490611	-0.013628	-0.076772	-0.022304	-0.531494	0.087402	-0.676758
580.0	9.296095	1.534156	1.387952	-0.031157	-0.14012	-0.043879	-0.524658	0.085205	-0.676758
581.0	9.354789	1.558118	1.25728	-0.051423	-0.175116	-0.055706	-0.531738	0.091797	-0.677002
582.0	9.402069	1.537119	1.111382	-0.070464	-0.184918	-0.059947	-0.531738	0.091797	-0.670166
583.0	9.444177	1.570977	0.961282	-0.082143	-0.19818	-0.066097	-0.529297	0.0896	-0.669922
584.0	9.509094	1.628651	0.79879	-0.093761	-0.232978	-0.064605	-0.524902	0.0896	-0.665283
585.0	9.834215	1.769581	1.299224	-0.111201	-0.228503	-0.083472	-0.531738	0.091797	-0.660645
586.0	10.484208	1.391	1.971364	-0.158843	-0.271682	-0.124189	-0.524902	0.093994	-0.665527
587.0	11.07508	1.025347	2.036561	-0.165675	-0.398956	-0.212446	-0.529297	0.091797	-0.660645
588.0	11.084617	0.808078	1.561061	-0.101643	-0.492602	-0.263047	-0.533691	0.085205	-0.6604
589.0	10.896764	0.906608	1.07303	0.01812	-0.457838	-0.273873	-0.53833	0.087402	-0.656006
590.0	10.734438	1.185314	1.293341	0.117328	-0.323865	-0.251043	-0.533691	0.087402	-0.651367
591.0	10.904188	1.547723	1.86237	0.136241	-0.244367	-0.252344	-0.535645	0.078613	-0.64624
592.0	11.039916	1.713757	2.25213	0.143587	-0.226852	-0.268918	-0.535645	0.078613	-0.648682
593.0	11.227066	1.669805	2.437206	0.140432	-0.265899	-0.294968	-0.533447	0.080811	-0.646484
594.0	11.514042	1.327009	2.319996	0.142703	-0.295521	-0.301332	-0.533203	0.074219	-0.64624
595.0	11.734448	1.294208	2.360286	0.149411	-0.235354	-0.284715	-0.533203	0.072021	-0.648438
596.0	11.771197	1.359195	2.575293	0.176384	-0.171745	-0.264414	-0.535156	0.069824	-0.643799
597.0	11.757666	1.333974	2.878472	0.211522	-0.129728	-0.238142	-0.539795	0.071777	-0.63916
598.0	11.706911	1.590542	3.029717	0.205162	-0.102899	-0.208725	-0.530762	0.067627	-0.638916
599.0	11.450963	1.970242	3.163477	0.15363	-0.078609	-0.170566	-0.537598	0.069824	-0.641357
600.0	10.93874	2.492535	3.234775	0.064489	-0.026041	-0.109647	-0.530518	0.06543	-0.641113
601.0	10.378741	3.067305	3.886528	-0.067749	0.053231	-0.054206	-0.532959	0.067627	-0.638916
602.0	10.014918	3.577755	4.496333	-0.243902	0.02609	-0.081094	-0.530518	0.06543	-0.643555
603.0	9.581717	3.25847	4.581079	-0.401137	-0.03908	-0.137964	-0.528564	0.072021	-0.636719
604.0	9.061005	2.594145	4.284697	-0.558585	-0.023091	-0.180314	-0.526367	0.074219	-0.641602
605.0	8.686657	2.011008	4.138711	-0.703542	0.063117	-0.23544	-0.531006	0.074219	-0.636963
606.0	8.37393	1.354056	4.114595	-0.797984	0.109567	-0.309208	-0.529053	0.080811	-0.644043
607.0	8.38061	0.649823	3.942356	-0.842976	0.115797	-0.369486	-0.526611	0.080811	-0.641846
608.0	8.478512	0.021379	3.816719	-0.841816	0.118432	-0.419949	-0.526611	0.080811	-0.646484
609.0	8.796062	-0.470643	3.631126	-0.810353	0.092848	-0.433262	-0.529297	0.0896	-0.644531
610.0	9.146273	-0.70768	3.462682	-0.702772	0.057837	-0.407031	-0.521973	0.078613	-0.636963
611.0	9.42823	-0.740873	3.281301	-0.571242	-0.008784	-0.340136	-0.520264	0.091797	-0.637451
612.0	9.397267	-0.679967	3.145629	-0.45814	-0.05846	-0.243444	-0.517822	0.087402	-0.644287
613.0	9.471824	-0.454403	3.141458	-0.372402	-0.041747	-0.11977	-0.517822	0.085205	-0.639648
614.0	9.587231	-0.109157	3.203106	-0.292886	-0.036289	-0.014294	-0.520264	0.087402	-0.639648
615.0	9.630369	0.229067	3.229618	-0.219685	-0.05841	0.069597	-0.524902	0.093994	-0.639893
616.0	9.674542	0.409444	3.091487	-0.176041	-0.079859	0.135952	-0.524902	0.091797	-0.637451
617.0	9.74528	0.586922	3.08286	-0.16014	-0.055418	0.195184	-0.524902	0.091797	-0.635254
618.0	9.769358	0.685681	3.087677	-0.156224	-0.027488	0.238377	-0.518311	0.093994	-0.637695
619.0	9.733578	0.773874	3.000624	-0.150081	-0.014566	0.263894	-0.525146	0.096191	-0.635498
620.0	9.709753	0.717884	2.937623	-0.146916	0.010123	0.289859	-0.516113	0.098389	-0.637695
621.0	9.504441	0.411877	2.933099	-0.141931	0.024358	0.300949	-0.520996	0.107178	-0.638184
622.0	9.27549	0.105505	2.87321	-0.139907	0.038425	0.289563	-0.51416	0.107178	-0.635742
623.0	9.308733	0.093253	2.809605	-0.122189	0.033115	0.272252	-0.518799	0.111572	-0.635986
624.0	9.221584	-0.011719	2.783571	-0.09801	0.022713	0.254418	-0.518799	0.111572	-0.635986
625.0	9.129192	0.06305	2.711775	-0.084821	0.025057	0.233966	-0.516602	0.109375	-0.635986
626.0	9.043947	0.050544	2.735676	-0.077011	0.022575	0.213078	-0.509766	0.109619	-0.635986
627.0	9.030221	0.186031	2.610636	-0.073363	0.00511	0.19914	-0.514648	0.120605	-0.63623
628.0	9.062109	0.09764	2.493762	-0.066289	0.009099	0.180009	-0.514404	0.114014	-0.633789
629.0	9.108178	0.06611	2.434529	-0.070037	0.011147	0.16342	-0.510254	0.120605	-0.634033
630.0	9.22054	0.122744	2.315946	-0.05563	0.002491	0.162054	-0.510254	0.120605	-0.638672
631.0	9.24872	0.202621	2.187048	-0.045935	0.017076	0.156069	-0.510254	0.118408	-0.633789
632.0	9.20021	0.150957	2.101874	-0.03492	0.036015	0.160695	-0.505615	0.118408	-0.631592
633.0	9.393244	0.086519	1.978293	-0.013602	0.036587	0.155042	-0.514893	0.122803	-0.631836
634.0	9.462324	0.006232	1.902602	0.008003	0.037901	0.146046	-0.510254	0.120605	-0.634033
635.0	9.387841	-0.041529	1.688262	0.038905	0.011762	0.137012	-0.512939	0.129395	-0.634277
636.0	9.288092	0.015958	1.566276	0.0597	0.007428	0.130489	-0.508057	0.125	-0.634033
637.0	9.048859	0.092594	1.411941	0.083043	0.009542	0.117553	-0.508057	0.120605	-0.634033
638.0	8.831575	0.184286	1.281507	0.098442	0.021277	0.093244	-0.510498	0.125	-0.634033
639.0	8.553586	0.049582	1.231483	0.111213	0.02587	0.063357	-0.501221	0.122803	-0.631836
640.0	8.765794	0.238182	1.15938	0.13144	0.009168	0.028858	-0.503662	0.125	-0.634033
641.0	9.094392	0.552065	1.111773	0.144705	-0.047804	-0.006633	-0.508057	0.120605	-0.634033
642.0	9.037206	0.690316	1.134967	0.123828	-0.093334	-0.019785	-0.505859	0.122803	-0.636475
643.0	8.907691	0.821249	1.150671	0.094018	-0.125383	-0.03113	-0.505615	0.116211	-0.63623
644.0	8.806902	0.923631	1.153193	0.058955	-0.164024	-0.050137	-0.505615	0.118408	-0.631592
645.0	8.533746	0.863612	1.202249	0.019495	-0.195945	-0.075888	-0.510254	0.118408	-0.63623
646.0	8.322564	0.745156	1.303576	-0.018123	-0.192582	-0.108105	-0.505615	0.118408	-0.62915
647.0	8.321169	0.567704	1.291825	-0.029227	-0.222811	-0.138891	-0.508057	0.120605	-0.631592
648.0	8.711283	0.457915	1.356239	-0.032305	-0.279291	-0.145025	-0.505615	0.118408	-0.633789
649.0	9.070739	0.244047	1.503233	-0.071017	-0.351138	-0.145801	-0.510254	0.118408	-0.62915
650.0	9.129501	0.062467	1.528804	-0.128816	-0.364307	-0.140351	-0.508057	0.120605	-0.624756
651.0	9.614198	-0.100065	1.520716	-0.146737	-0.330766	-0.136843	-0.508057	0.120605	-0.624756
652.0	10.120141	-0.184159	1.577232	-0.128805	-0.299288	-0.129202	-0.507813	0.116211	-0.619873
653.0	10.389941	-0.249031	1.512415	-0.086866	-0.331061	-0.124294	-0.514648	0.118164	-0.610596
654.0	10.28947	-0.134127	1.25852	-0.058768	-0.375337	-0.107532	-0.509766	0.111572	-0.612793
655.0	10.229949	0.136694	0.766689	-0.053101	-0.354506	-0.103665	-0.512207	0.111572	-0.605713
656.0	10.31244	0.612819	0.28087	-0.054221	-0.245536	-0.087166	-0.505615	0.116211	-0.612793
657.0	10.435613	0.791032	-0.064364	0.015047	-0.10479	-0.061241	-0.514648	0.115967	-0.603516
658.0	10.566057	0.566454	-0.252785	0.11721	-0.013892	-0.046161	-0.516846	0.118164	-0.613037
659.0	11.026353	-0.105951	-0.002273	0.236551	0.017231	-0.026703	-0.514404	0.11377	-0.617432
660.0	11.559315	-0.601045	0.44116	0.359444	-0.05973	0.023476	-0.509766	0.107178	-0.612549
661.0	12.160006	-0.528444	0.785823	0.473072	-0.207459	0.115355	-0.509766	0.109375	-0.610352
662.0	12.391463	0.070739	1.113058	0.561494	-0.336685	0.226442	-0.514404	0.109375	-0.61499
663.0	12.378133	1.042012	1.177835	0.604335	-0.402761	0.297013	-0.511963	0.10498	-0.603271
664.0	12.584092	1.189967	1.785373	0.52685	-0.303872	0.355583	-0.518799	0.107178	-0.60791
665.0	12.992237	0.829429	2.590737	0.313801	-0.188597	0.377135	-0.514404	0.111572	-0.601074
666.0	12.924499	1.260243	3.366097	0.223761	-0.144468	0.35608	-0.511963	0.107178	-0.605713
667.0	12.311962	1.837206	3.570632	0.223811	-0.211029	0.304348	-0.520996	0.107178	-0.605713
668.0	11.674279	1.937685	3.663769	0.143513	-0.258609	0.247467	-0.51416	0.107178	-0.601074
669.0	11.19567	1.722281	4.067552	-0.008061	-0.186867	0.156252	-0.520996	0.109375	-0.605713
670.0	10.919916	1.105893	4.595879	-0.076522	-0.074269	0.095231	-0.512207	0.111572	-0.605713
671.0	11.12955	0.695318	4.834709	-0.037395	0.017629	0.120584	-0.523193	0.109375	-0.605713
672.0	11.08872	0.798	4.589681	-0.011023	0.080086	0.118203	-0.511963	0.109375	-0.601074
673.0	10.724608	0.804317	3.930649	-0.016439	0.10687	0.114418	-0.519043	0.11377	-0.612793
674.0	10.029657	0.395828	3.863404	0.016659	0.225926	0.093648	-0.514404	0.109375	-0.612549
675.0	9.189317	-0.228547	3.621244	0.05602	0.210124	0.036147	-0.516602	0.111572	-0.612793
676.0	9.000843	-0.739007	3.07616	0.097822	0.175728	0.001041	-0.510254	0.118164	-0.608398
677.0	8.890532	-1.020193	2.751022	0.168488	0.242595	0.005115	-0.512451	0.120605	-0.615479
678.0	8.881007	-0.906541	2.683612	0.234569	0.251293	0.017838	-0.507813	0.116211	-0.612793
679.0	8.731837	-0.202535	2.866487	0.286623	0.234919	0.05568	-0.514648	0.120361	-0.61084
680.0	8.632298	0.84406	2.915483	0.346377	0.195715	0.102401	-0.503174	0.111816	-0.610352
681.0	9.117355	1.702165	2.972756	0.35347	0.208891	0.1583	-0.509766	0.111572	-0.617432
682.0	9.298202	2.087822	3.012421	0.297333	0.171503	0.164005	-0.507568	0.109375	-0.617432
683.0	9.307952	2.315054	3.108833	0.211237	0.0735	0.126401	-0.509766	0.111572	-0.612793
684.0	9.49655	2.396367	3.185368	0.114911	0.007344	0.053897	-0.498535	0.107422	-0.617188
685.0	9.49244	2.186789	3.100256	0.020986	-0.019011	-0.030308	-0.503418	0.118408	-0.617676
686.0	9.421776	1.71272	3.007436	-0.035859	0.007242	-0.099988	-0.503174	0.114014	-0.612793
687.0	9.261154	1.322421	2.907588	-0.082703	0.027767	-0.16168	-0.512207	0.11377	-0.62207
688.0	9.4058	0.97797	2.925816	-0.097018	0.075525	-0.200048	-0.498535	0.109619	-0.626709
689.0	9.287239	0.829862	2.884731	-0.089327	0.076363	-0.23226	-0.505371	0.114014	-0.624512
690.0	9.174178	0.891086	2.762087	-0.067284	0.056278	-0.24109	-0.500977	0.111816	-0.619629
691.0	9.039889	0.995574	2.68859	-0.044045	0.064706	-0.239555	-0.505371	0.109619	-0.62207
692.0	9.147598	1.115558	2.706758	-0.004115	0.094612	-0.222418	-0.50293	0.107422	-0.631104
693.0	9.220512	1.320319	2.736134	0.025536	0.117051	-0.215816	-0.500732	0.109619	-0.619629
694.0	9.299804	1.297061	2.822284	0.058631	0.138324	-0.212692	-0.505371	0.109619	-0.62207
695.0	9.23865	1.463002	2.663499	0.0808	0.144839	-0.209355	-0.500732	0.107422	-0.628906
696.0	9.156249	1.517662	2.543148	0.093293	0.15918	-0.217136	-0.496094	0.105225	-0.628662
697.0	9.113177	1.644667	2.498982	0.110599	0.164868	-0.216884	-0.505371	0.109619	-0.628906
698.0	8.963672	1.703103	2.417631	0.134608	0.178349	-0.206173	-0.496094	0.105225	-0.624023
699.0	8.860511	1.710866	2.374274	0.170195	0.176379	-0.171384	-0.498291	0.103027	-0.628662
700.0	8.737523	1.566673	2.23127	0.180424	0.177808	-0.121329	-0.496094	0.103027	-0.633301
701.0	8.665937	1.46936	2.139609	0.162839	0.179787	-0.084361	-0.500488	0.105225	-0.624023
702.0	8.671486	1.48738	2.028823	0.139888	0.171404	-0.062321	-0.491699	0.105225	-0.633301
703.0	8.753491	1.640899	1.831965	0.101784	0.154364	-0.035324	-0.500488	0.103027	-0.628662
704.0	8.786661	1.777383	1.720585	0.066274	0.141603	-0.022218	-0.491455	0.103027	-0.633301
705.0	8.838945	1.836211	1.585604	0.032231	0.119517	-0.004794	-0.493652	0.10083	-0.628662
706.0	8.866911	1.758779	1.481292	0.006961	0.089997	0.014128	-0.484619	0.10083	-0.630859
707.0	8.860445	1.763259	1.382819	-0.017526	0.079092	0.03286	-0.491699	0.105225	-0.635742
708.0	8.76043	1.70276	1.39153	-0.031009	0.06997	0.057275	-0.491699	0.107422	-0.635742
709.0	8.774151	1.588264	1.399331	-0.026184	0.01232	0.074594	-0.494141	0.111816	-0.626709
710.0	8.496907	1.504538	1.429645	-0.020573	-0.061688	0.079971	-0.489502	0.111816	-0.633545
711.0	8.417814	1.365932	1.399953	-0.00184	-0.149263	0.082098	-0.487061	0.107422	-0.621826
712.0	8.360833	1.309185	1.423119	0.023297	-0.235391	0.083387	-0.496338	0.109619	-0.628906
713.0	8.264759	1.313857	1.44128	0.052913	-0.280683	0.09054	-0.496338	0.114014	-0.624512
714.0	8.242287	1.279266	1.353817	0.072581	-0.318558	0.105151	-0.491943	0.114014	-0.624512
715.0	8.477014	1.284479	1.273611	0.079822	-0.317065	0.129392	-0.496338	0.109619	-0.62207
716.0	8.774704	1.163442	1.208992	0.075007	-0.300431	0.139829	-0.496338	0.109619	-0.624268
717.0	9.089764	1.147751	1.301813	0.069315	-0.274097	0.135557	-0.489746	0.118408	-0.619873
718.0	9.409198	1.241896	1.373235	0.08299	-0.252039	0.121843	-0.492188	0.118408	-0.62915
719.0	9.679609	1.568441	1.315655	0.108597	-0.233134	0.112362	-0.496582	0.118408	-0.615234
720.0	9.860246	1.895035	1.242618	0.131599	-0.200734	0.121883	-0.492188	0.118408	-0.613037
721.0	10.02458	2.087051	0.916537	0.149309	-0.17786	0.147228	-0.499023	0.120605	-0.617676
722.0	10.186889	2.294111	0.525686	0.116064	-0.150919	0.175829	-0.489746	0.118408	-0.615234
723.0	10.292698	2.644374	0.129245	0.03374	-0.102772	0.198261	-0.499023	0.122803	-0.61792
724.0	10.43027	3.003878	0.22808	-0.091332	-0.051237	0.208318	-0.492432	0.125	-0.613281
725.0	10.835523	3.218988	1.258884	-0.234026	0.017645	0.14292	-0.501709	0.133789	-0.618164
726.0	11.613364	2.412097	1.978739	-0.348728	-0.119158	-0.020725	-0.490234	0.125	-0.620117
727.0	12.520963	1.639231	1.77436	-0.343597	-0.306648	-0.224757	-0.501953	0.138184	-0.611328
728.0	12.838314	1.45142	1.317293	-0.256177	-0.365277	-0.373041	-0.49707	0.129395	-0.618164
729.0	12.734117	1.235369	1.203397	-0.141738	-0.264657	-0.444656	-0.502197	0.142578	-0.616211
730.0	12.797358	1.215483	2.275405	-0.044391	-0.095228	-0.44228	-0.494873	0.129395	-0.611084
731.0	12.617292	0.641751	3.490766	-0.019375	-0.069415	-0.435012	-0.503906	0.131592	-0.608887
732.0	12.110075	0.094981	3.537497	-0.042124	-0.118427	-0.434036	-0.503662	0.122803	-0.613281
733.0	11.4018	0.315856	3.50453	-0.018819	-0.08694	-0.375436	-0.506348	0.133789	-0.604248
734.0	10.80209	1.07472	3.823209	-0.002394	0.026323	-0.277394	-0.501465	0.129395	-0.613525
735.0	10.03539	1.736318	4.298147	-0.030276	0.118239	-0.198936	-0.49707	0.131592	-0.611084
736.0	9.42408	2.147605	4.407675	-0.095609	0.126024	-0.189434	-0.501465	0.127197	-0.611084
737.0	8.996183	2.07866	4.312297	-0.191389	0.179634	-0.216841	-0.503906	0.129395	-0.613525
738.0	8.666476	1.756721	4.286082	-0.306917	0.256957	-0.240829	-0.501709	0.131592	-0.613525
739.0	8.969656	1.428808	4.594355	-0.402864	0.283337	-0.299054	-0.495117	0.138184	-0.620605
740.0	9.616331	1.063181	4.547014	-0.462922	0.240885	-0.433245	-0.495117	0.135986	-0.61377
741.0	10.115312	0.101497	4.049808	-0.4259	0.162224	-0.513317	-0.5	0.146973	-0.618652
742.0	10.058048	-0.523791	3.634693	-0.372441	0.147292	-0.528714	-0.497314	0.133789	-0.618164
743.0	9.831433	-0.830458	3.562489	-0.307235	0.153844	-0.497494	-0.495361	0.140381	-0.62085
744.0	10.375295	-0.594754	3.435229	-0.24058	0.142314	-0.398914	-0.49292	0.138184	-0.618408
745.0	10.654153	-0.075938	3.378646	-0.155513	0.086274	-0.273274	-0.495361	0.140381	-0.62085
746.0	10.34055	0.320933	3.35971	-0.07048	-0.006123	-0.142934	-0.490723	0.138184	-0.618408
747.0	10.363314	0.64217	3.258499	0.01277	-0.095522	-0.009491	-0.495361	0.140381	-0.618408
748.0	10.336625	0.821482	3.181457	0.063576	-0.137413	0.110715	-0.493164	0.144775	-0.62085
749.0	10.150652	0.875274	3.068751	0.092906	-0.176056	0.198769	-0.495361	0.144775	-0.616211
750.0	9.740504	0.796414	2.831622	0.081633	-0.192742	0.256937	-0.495361	0.140381	-0.616211
751.0	9.381446	0.544808	2.68425	0.057918	-0.154847	0.307828	-0.498047	0.151367	-0.616455
752.0	9.311601	0.469413	2.696521	0.03193	-0.113173	0.357151	-0.498047	0.153564	-0.612061
753.0	9.244539	0.369212	2.612976	0.016263	-0.107959	0.382509	-0.497559	0.144775	-0.611572
754.0	9.281151	0.28357	2.494151	0.011203	-0.097489	0.39722	-0.495605	0.14917	-0.618896
755.0	9.268303	0.189882	2.431376	0.019234	-0.07469	0.391313	-0.496094	0.162354	-0.610107
756.0	9.24449	0.052465	2.35573	0.047136	-0.059536	0.369579	-0.49585	0.157959	-0.614502
757.0	9.110974	0.0461	2.364908	0.080627	-0.059806	0.338718	-0.50293	0.164551	-0.616943
758.0	9.089673	0.004907	2.33803	0.111122	-0.050711	0.304305	-0.498291	0.157959	-0.614502
759.0	8.992624	0.100979	2.358852	0.115618	-0.054764	0.255257	-0.489502	0.166992	-0.617188
760.0	8.842525	0.172469	2.26218	0.114681	-0.074842	0.210568	-0.491455	0.157959	-0.616699
761.0	8.932454	0.356382	2.062181	0.100556	-0.063034	0.171621	-0.496338	0.166748	-0.612549
762.0	8.934623	0.39914	1.966574	0.094336	-0.028154	0.143987	-0.496338	0.169189	-0.610352
763.0	9.035571	0.43411	1.830087	0.066454	0.007654	0.124818	-0.500977	0.17334	-0.608154
764.0	9.06023	0.295611	1.80697	0.034411	0.037062	0.104548	-0.491943	0.169189	-0.610352
765.0	9.113427	0.249949	1.723186	0.012164	0.042652	0.081743	-0.496582	0.171387	-0.61499
766.0	9.217287	0.322272	1.565979	0.008285	0.037957	0.055217	-0.492188	0.173584	-0.617432
767.0	9.178606	0.422463	1.349607	0.001541	0.015719	0.031561	-0.499023	0.180176	-0.610596
768.0	9.078317	0.627094	1.185879	-0.000622	0.004191	0.013108	-0.492188	0.173584	-0.61499
769.0	8.932471	0.60766	1.023564	0.001649	0.018165	-0.0056	-0.496826	0.180176	-0.608398
770.0	8.907709	0.605959	0.971765	-0.005728	0.04256	-0.031419	-0.492188	0.173584	-0.61499
771.0	8.779569	0.385011	1.035837	-0.006718	0.056398	-0.057199	-0.496826	0.182373	-0.61084
772.0	8.726641	0.21936	1.04172	-0.015071	0.055102	-0.082678	-0.494629	0.180176	-0.608398
773.0	8.752649	0.27508	1.042318	-0.031067	0.046553	-0.112958	-0.496826	0.177979	-0.608154
774.0	8.87769	0.456039	1.077317	-0.042399	0.020769	-0.135215	-0.485352	0.173584	-0.610352
775.0	8.984155	0.592933	1.184729	-0.053163	-0.05329	-0.155593	-0.499023	0.177979	-0.610596
776.0	8.816783	0.574527	1.316658	-0.060154	-0.185366	-0.177531	-0.496826	0.182373	-0.617676
777.0	8.700724	0.673637	1.200004	-0.05769	-0.327347	-0.204103	-0.496582	0.173584	-0.610352
778.0	8.321683	0.705292	0.902898	-0.062638	-0.3868	-0.224129	-0.500977	0.17334	-0.601074
779.0	8.00723	0.56909	0.842346	-0.11321	-0.298367	-0.221962	-0.505859	0.182129	-0.606201
780.0	8.141785	0.52678	0.997273	-0.179783	-0.172168	-0.216548	-0.499023	0.175537	-0.601074
781.0	8.591119	0.418061	1.225499	-0.203081	-0.155272	-0.212443	-0.503418	0.177734	-0.601318
782.0	9.405951	0.34022	1.345357	-0.209569	-0.220303	-0.188349	-0.503662	0.179932	-0.601318
783.0	9.748086	0.060186	1.348361	-0.234387	-0.251984	-0.140185	-0.503906	0.188965	-0.596924
784.0	9.894189	-0.275457	1.399131	-0.253072	-0.229561	-0.097475	-0.506104	0.184326	-0.601563
785.0	10.050097	-0.44275	1.160074	-0.235899	-0.209063	-0.084179	-0.503662	0.184326	-0.596924
786.0	10.316693	-0.310415	0.576462	-0.181133	-0.196961	-0.085401	-0.496826	0.182373	-0.592041
787.0	10.562682	-0.212214	0.039729	-0.117463	-0.140278	-0.078173	-0.501709	0.186768	-0.592285
788.0	10.891262	-0.073495	-0.189604	-0.03804	-0.059364	-0.064838	-0.508301	0.186523	-0.599365
789.0	11.478255	-0.058554	-0.053826	0.095262	-0.012372	-0.044873	-0.503906	0.188721	-0.590088
790.0	11.59237	-0.199621	0.306708	0.262026	-0.024696	-0.001722	-0.505859	0.182129	-0.599121
791.0	11.720741	-0.120152	0.609626	0.403212	-0.110722	0.050461	-0.510498	0.184326	-0.599121
792.0	11.85022	0.363233	0.764741	0.526218	-0.208489	0.152139	-0.506104	0.186523	-0.596924
793.0	12.015113	1.008349	0.665771	0.614751	-0.283952	0.249266	-0.508301	0.182129	-0.594482
794.0	12.190879	1.377207	0.8143	0.604404	-0.26834	0.338453	-0.507813	0.175537	-0.591797
795.0	12.534406	1.133725	1.290444	0.469678	-0.111009	0.40047	-0.506104	0.184326	-0.592285
796.0	12.788454	0.822364	2.24722	0.343241	0.020308	0.430716	-0.505859	0.182129	-0.589844
797.0	12.644851	1.137796	2.82198	0.332879	-0.031275	0.429088	-0.510498	0.186523	-0.590088
798.0	12.3808	1.632979	2.887499	0.337016	-0.125305	0.412188	-0.503662	0.182129	-0.587402
799.0	12.033354	2.03452	3.088158	0.22557	-0.094236	0.403193	-0.50415	0.191162	-0.592529
800.0	11.587777	1.896315	3.646482	0.087139	-0.018577	0.343559	-0.501709	0.191162	-0.592529
801.0	11.259405	1.333855	3.965942	0.029934	0.03582	0.300858	-0.50415	0.195557	-0.597168
802.0	11.421676	0.728399	4.093882	0.006663	0.082463	0.297127	-0.501953	0.193359	-0.594971
803.0	10.737852	0.581392	3.758912	0.003494	0.08296	0.233338	-0.51123	0.202148	-0.590576
804.0	10.27869	0.362907	3.129798	0.009104	0.115694	0.187188	-0.504395	0.202148	-0.597412
805.0	9.63541	-0.193884	3.158816	0.056993	0.26502	0.138691	-0.499756	0.197754	-0.594971
806.0	9.211856	-0.619808	3.198898	0.099194	0.326895	0.08952	-0.502197	0.199951	-0.599854
807.0	9.137721	-0.710565	3.04646	0.148826	0.361748	0.052225	-0.502441	0.204346	-0.602295
808.0	9.017721	-0.415935	2.9794	0.238282	0.425131	0.048197	-0.495361	0.197754	-0.606689
809.0	9.203761	0.202048	3.063187	0.315484	0.432872	0.076953	-0.504395	0.202148	-0.602295
810.0	9.218853	0.989095	3.164316	0.346119	0.359367	0.098145	-0.495117	0.193359	-0.606445
811.0	8.936379	1.844763	3.288617	0.362202	0.297126	0.119841	-0.495361	0.197754	-0.602051
812.0	9.300819	2.298832	3.293566	0.353978	0.274273	0.150126	-0.486084	0.191162	-0.611084
813.0	9.649869	2.429157	3.3365	0.266734	0.31438	0.174046	-0.488525	0.197754	-0.615967
814.0	9.366596	2.57466	3.250824	0.157087	0.24264	0.15795	-0.490723	0.195557	-0.613525
815.0	9.362499	2.574132	3.233474	0.067835	0.158697	0.128403	-0.48877	0.202148	-0.61377
816.0	9.520284	2.244808	3.115933	-0.03442	0.124561	0.066318	-0.486328	0.197754	-0.618164
817.0	9.828971	1.68811	2.929845	-0.124908	0.123799	-0.005136	-0.486572	0.204346	-0.61377
818.0	9.780027	1.366276	2.73055	-0.171105	0.124833	-0.084466	-0.481689	0.197754	-0.618164
819.0	9.649309	1.134075	2.59468	-0.182508	0.173025	-0.146799	-0.493164	0.197754	-0.618164
820.0	9.536282	0.889772	2.509631	-0.164919	0.206122	-0.202933	-0.481689	0.195557	-0.620605
821.0	9.179039	0.890438	2.446265	-0.141452	0.204756	-0.240988	-0.484131	0.197754	-0.615967
822.0	9.070911	0.856245	2.471588	-0.114191	0.206316	-0.259745	-0.481689	0.197754	-0.627686
823.0	9.027261	0.913368	2.395137	-0.095093	0.215077	-0.259825	-0.486328	0.199951	-0.618408
824.0	8.995857	0.8522	2.357613	-0.068846	0.242245	-0.242599	-0.486328	0.197754	-0.620605
825.0	8.96983	0.89042	2.332673	-0.043994	0.266348	-0.235513	-0.481934	0.202148	-0.62085
826.0	8.919784	1.067691	2.296195	-0.015026	0.284191	-0.214454	-0.479248	0.193359	-0.622803
827.0	8.948837	1.121133	2.259005	0.039502	0.288119	-0.198895	-0.479492	0.197754	-0.629883
828.0	8.999995	1.198363	2.210724	0.094904	0.301332	-0.178526	-0.479492	0.195557	-0.627441
829.0	8.9291	1.253221	2.248667	0.140072	0.317862	-0.154663	-0.484131	0.199951	-0.629883
830.0	8.728304	1.318608	2.165251	0.182233	0.312867	-0.123302	-0.477051	0.191162	-0.634277
831.0	8.601956	1.340427	1.97662	0.198621	0.276882	-0.081291	-0.477295	0.195557	-0.63208
832.0	8.488775	1.385111	1.863619	0.19836	0.246966	-0.039334	-0.476807	0.18457	-0.631836
833.0	8.397844	1.53595	1.707029	0.150016	0.224223	-0.003898	-0.4729	0.197998	-0.636963
834.0	8.526568	1.700113	1.588685	0.108286	0.201018	0.02346	-0.472412	0.188965	-0.636475
835.0	8.742164	1.752956	1.510723	0.064685	0.172345	0.035401	-0.472656	0.195801	-0.63916
836.0	8.740828	1.777896	1.422836	0.037617	0.122045	0.041321	-0.465576	0.189209	-0.638916
837.0	8.754933	1.652912	1.201467	0.014047	0.092503	0.052847	-0.472656	0.195801	-0.641357
838.0	8.786441	1.50882	1.028269	0.001822	0.094116	0.075241	-0.470215	0.187012	-0.641113
839.0	8.816833	1.421526	0.925965	-0.002241	0.110895	0.09519	-0.4729	0.197998	-0.64624
840.0	8.891015	1.343666	0.935053	0.002794	0.105194	0.115591	-0.468018	0.193604	-0.648438
841.0	8.830039	1.274977	1.015611	0.026671	0.067763	0.128917	-0.470459	0.195801	-0.641357
842.0	8.824722	1.19477	1.177291	0.079379	-0.017191	0.144887	-0.470215	0.191406	-0.643555
843.0	8.846042	1.038428	1.112402	0.128312	-0.129728	0.155787	-0.472656	0.195801	-0.648438
844.0	8.63681	0.929256	1.157432	0.172306	-0.209468	0.162984	-0.468018	0.189209	-0.641113
845.0	8.534751	0.830025	1.16619	0.203762	-0.234291	0.177076	-0.470703	0.20459	-0.644043
846.0	8.622588	0.852681	1.225171	0.22155	-0.250408	0.193547	-0.477295	0.195801	-0.643799
847.0	8.884753	1.022319	1.249728	0.228536	-0.277028	0.206045	-0.4729	0.197998	-0.64624
848.0	9.237749	1.163563	1.388743	0.234781	-0.274918	0.208841	-0.470459	0.195801	-0.645996
849.0	9.469358	1.347191	1.679967	0.23155	-0.259494	0.187725	-0.475342	0.202393	-0.644043
850.0	9.691054	1.684807	1.796218	0.224728	-0.23501	0.164686	-0.474854	0.195801	-0.63916
851.0	9.855979	1.982578	1.723952	0.229262	-0.209709	0.15202	-0.481689	0.193359	-0.641357
852.0	10.03864	2.071017	1.331845	0.235268	-0.184758	0.150445	-0.481689	0.193359	-0.638916
853.0	10.322099	2.069221	0.670626	0.166671	-0.139594	0.141038	-0.477295	0.200195	-0.636963
854.0	10.555765	2.202369	0.141519	0.054421	-0.043071	0.127565	-0.477051	0.193359	-0.638916
855.0	10.547602	2.519128	-0.132537	-0.089321	0.025095	0.116175	-0.481934	0.199951	-0.63916
856.0	10.516936	2.948627	-0.085467	-0.23643	0.038149	0.083114	-0.477295	0.195801	-0.63916
857.0	10.903954	3.303026	0.889159	-0.362099	0.057081	-0.002244	-0.479736	0.20459	-0.634766
858.0	11.510313	2.538009	2.087538	-0.448867	-0.061043	-0.227112	-0.477295	0.200195	-0.636963
859.0	12.134867	1.198474	2.226739	-0.443986	-0.312877	-0.460587	-0.482178	0.206787	-0.632568
860.0	12.187661	0.922024	1.328383	-0.315718	-0.422564	-0.601195	-0.481934	0.202148	-0.634766
861.0	12.05423	1.149991	1.402632	-0.091018	-0.309706	-0.598934	-0.491211	0.206543	-0.634766
862.0	12.139194	1.046791	2.433971	0.008728	-0.181369	-0.540421	-0.477295	0.195557	-0.634521
863.0	12.283425	0.545759	3.43917	-0.008092	-0.136383	-0.47722	-0.488525	0.195557	-0.63916
864.0	11.8909	0.077519	3.989022	-0.061009	-0.177553	-0.442067	-0.486328	0.195557	-0.636719
865.0	11.168011	0.441179	4.185985	-0.0526	-0.180197	-0.403831	-0.490723	0.197754	-0.63916
866.0	10.501243	1.52427	4.621141	-0.019047	-0.081397	-0.408236	-0.492676	0.188965	-0.634277
867.0	10.037299	2.042535	4.764739	-0.001132	0.02491	-0.421333	-0.499756	0.193359	-0.636719
868.0	9.673121	1.892111	4.808064	-0.064704	0.158332	-0.421724	-0.488281	0.188965	-0.638916
869.0	9.437913	2.055845	5.107079	-0.164598	0.28233	-0.448155	-0.492676	0.186768	-0.636475
870.0	9.666783	2.069123	4.637521	-0.232988	0.249374	-0.509487	-0.488037	0.18457	-0.641113
871.0	9.675475	1.768225	4.268003	-0.27196	0.246066	-0.467013	-0.497314	0.188965	-0.641113
872.0	9.729123	1.559786	4.17483	-0.364929	0.24966	-0.42455	-0.488037	0.186768	-0.641113
873.0	9.835375	1.190502	4.143035	-0.455059	0.231227	-0.404257	-0.488281	0.188965	-0.641113
874.0	10.101254	0.762443	3.745548	-0.528961	0.222445	-0.386224	-0.485596	0.182373	-0.643311
875.0	11.397835	1.141845	3.389589	-0.549258	0.225526	-0.302014	-0.488281	0.191162	-0.643555
876.0	11.207523	1.01056	3.396409	-0.453752	0.134618	-0.200101	-0.492432	0.18457	-0.645752
877.0	11.225769	0.525579	3.29478	-0.30782	-0.005015	-0.067024	-0.495117	0.193359	-0.638916
878.0	11.136281	0.109782	3.151613	-0.207496	-0.068008	0.069817	-0.49292	0.193359	-0.641357
879.0	10.410763	-0.270261	3.052578	-0.130244	-0.108838	0.180326	-0.497559	0.197754	-0.64624
880.0	9.849997	-0.452191	2.863267	-0.09166	-0.152777	0.265115	-0.49292	0.195557	-0.641357
881.0	9.272117	-0.460755	2.784666	-0.092828	-0.115109	0.325308	-0.489014	0.208984	-0.646484
882.0	8.918256	-0.200055	2.790471	-0.117008	-0.032999	0.377127	-0.491211	0.204346	-0.641846
883.0	8.794088	0.13757	2.657571	-0.133032	0.008763	0.407554	-0.495605	0.206543	-0.639404
884.0	8.629648	0.324304	2.535592	-0.11775	0.010042	0.423057	-0.493164	0.202148	-0.639404
885.0	8.442214	0.343775	2.469332	-0.09526	-0.005073	0.425382	-0.498291	0.213135	-0.639648
886.0	8.314691	0.021086	2.382303	-0.071699	0.005616	0.416965	-0.491455	0.213135	-0.637451
887.0	8.253765	-0.210966	2.304422	-0.041197	0.033612	0.388486	-0.491699	0.222168	-0.644775
888.0	8.202232	-0.413803	2.307794	0.0055	0.035974	0.340971	-0.491699	0.217773	-0.639893
889.0	8.376752	-0.570806	2.192481	0.027442	0.036114	0.283684	-0.500977	0.224365	-0.644775
890.0	8.596204	-0.518644	2.140516	0.05845	0.002139	0.234276	-0.491455	0.215576	-0.64209
891.0	8.582025	-0.483103	2.065456	0.065453	-0.041135	0.185201	-0.493896	0.219971	-0.646973
892.0	8.568852	-0.245855	1.941116	0.072237	-0.072956	0.138493	-0.489502	0.219971	-0.644531
893.0	8.606223	0.000701	1.761552	0.057037	-0.071794	0.092834	-0.496338	0.222168	-0.644775
894.0	8.721545	0.327722	1.696969	0.037304	-0.031247	0.063817	-0.496094	0.217773	-0.646973
895.0	8.869067	0.519262	1.717067	0.025666	-0.017763	0.032607	-0.491943	0.224365	-0.642578
896.0	8.898076	0.639934	1.553909	0.00673	-0.023549	0.005913	-0.491455	0.215576	-0.644531
897.0	8.84882	0.684561	1.276664	0.004998	-0.033456	-0.012274	-0.496582	0.226563	-0.647217
898.0	8.759468	0.527959	1.007995	0.010969	-0.039107	-0.036449	-0.493896	0.219971	-0.642334
899.0	8.732233	0.337362	0.726542	0.023931	-0.033997	-0.065007	-0.494141	0.226563	-0.640137
900.0	8.596557	-0.013259	0.795154	0.035054	-0.031263	-0.089821	-0.491699	0.217773	-0.644531
901.0	8.546591	-0.140223	0.930677	0.04235	-0.057834	-0.120427	-0.498535	0.222168	-0.646973
902.0	8.760963	0.110276	1.011339	0.03959	-0.109091	-0.144603	-0.493896	0.215576	-0.644531
903.0	8.946619	0.392451	1.096861	0.026007	-0.160233	-0.158782	-0.507568	0.221924	-0.644775
904.0	8.972531	0.634559	1.259008	-0.006945	-0.214048	-0.181755	-0.500732	0.219727	-0.644531
905.0	8.957177	0.837447	1.241094	-0.025016	-0.282734	-0.219389	-0.498535	0.222168	-0.642334
906.0	8.847747	1.072642	1.104157	-0.042093	-0.329606	-0.256561	-0.498535	0.219727	-0.635254
907.0	8.636841	1.021461	1.045524	-0.097519	-0.263454	-0.289945	-0.505127	0.219727	-0.635254
908.0	8.469538	0.771452	1.274804	-0.14534	-0.166342	-0.308769	-0.500244	0.20874	-0.639648
909.0	9.188475	0.88268	1.418785	-0.172081	-0.186605	-0.324336	-0.509521	0.215332	-0.632813
910.0	9.398038	0.831964	1.510576	-0.204598	-0.248291	-0.319738	-0.509521	0.213135	-0.639648
911.0	9.513201	0.598374	1.657264	-0.272826	-0.192728	-0.263683	-0.509521	0.213135	-0.632813
912.0	9.664812	0.186873	1.915661	-0.331317	-0.10147	-0.199819	-0.509766	0.219727	-0.635254
913.0	9.580203	-0.246271	1.801107	-0.337216	-0.110047	-0.174828	-0.511963	0.221924	-0.633057
914.0	9.717998	-0.321549	1.241143	-0.31845	-0.147035	-0.190914	-0.509766	0.217529	-0.639893
915.0	9.863974	-0.04546	0.575508	-0.30914	-0.135902	-0.215248	-0.511963	0.219727	-0.639893
916.0	10.264052	0.178302	-0.066849	-0.257484	-0.092911	-0.198146	-0.511719	0.215332	-0.635254
917.0	10.761658	0.118094	-0.372027	-0.162551	-0.086933	-0.171124	-0.516602	0.221924	-0.633057
918.0	10.952476	-0.281962	-0.738368	0.00278	-0.105447	-0.139303	-0.51416	0.219727	-0.637695
919.0	11.319956	-0.90945	-0.371691	0.176178	-0.118334	-0.101655	-0.520996	0.219727	-0.633057
920.0	11.962951	-1.109403	0.102796	0.326925	-0.180134	-0.015316	-0.516357	0.213135	-0.632813
921.0	12.514082	-0.202071	0.397961	0.463697	-0.302893	0.084254	-0.516357	0.215332	-0.630615
922.0	13.079316	1.061173	0.571457	0.617161	-0.362328	0.205761	-0.516113	0.210938	-0.632568
923.0	13.319935	1.989225	0.46347	0.627937	-0.335474	0.296902	-0.531982	0.213135	-0.621094
924.0	13.406812	2.135474	1.47245	0.473377	-0.140178	0.368807	-0.518066	0.204346	-0.634766
925.0	13.490697	2.050448	2.761074	0.34767	0.011442	0.426907	-0.518555	0.215332	-0.632813
926.0	13.090073	2.632609	3.379568	0.297479	0.007331	0.444898	-0.520752	0.210938	-0.630371
927.0	12.406104	3.23002	3.361895	0.231712	-0.106994	0.44241	-0.516357	0.217529	-0.625977
928.0	11.854322	2.684968	3.611787	0.049598	-0.159992	0.414263	-0.523193	0.215332	-0.639893
929.0	11.416358	1.60705	3.658076	-0.111079	-0.124993	0.318962	-0.523438	0.221924	-0.630859
930.0	11.219818	-0.028201	4.028986	-0.165702	-0.000827	0.247011	-0.518799	0.221924	-0.626221
931.0	11.304706	-1.021464	3.947228	-0.108765	0.056327	0.256761	-0.52124	0.226318	-0.628662
932.0	11.10794	-0.526396	3.207949	-0.022904	0.10828	0.215769	-0.525879	0.226318	-0.630859
933.0	10.426492	-0.329679	3.034696	0.038385	0.270237	0.14456	-0.527832	0.224121	-0.626221
934.0	9.579372	-0.422197	3.315562	0.143547	0.383799	0.098213	-0.520752	0.215332	-0.630615
935.0	9.449059	-0.045417	3.22255	0.24754	0.374017	0.076558	-0.519043	0.226318	-0.635498
936.0	9.468086	0.386616	3.100559	0.287639	0.441362	0.060647	-0.51416	0.215332	-0.639893
937.0	9.34152	0.830145	3.245549	0.324245	0.501476	0.063831	-0.516602	0.221924	-0.646973
938.0	9.304487	1.539702	3.38693	0.343465	0.409499	0.071619	-0.514404	0.221924	-0.646973
939.0	9.234965	2.337038	3.323092	0.340694	0.257214	0.090168	-0.516357	0.215332	-0.64917
940.0	9.233371	2.768834	3.372101	0.2916	0.216921	0.125533	-0.51416	0.219727	-0.651611
941.0	9.443831	2.757931	3.412193	0.20014	0.231824	0.170004	-0.514404	0.221924	-0.649414
942.0	9.293927	2.482227	3.571481	0.079273	0.145066	0.157718	-0.511963	0.219727	-0.64917
943.0	9.102759	2.086452	3.34945	-0.027164	0.011463	0.092664	-0.514648	0.226318	-0.651855
944.0	9.437313	1.554392	2.991067	-0.092032	-0.025098	0.006372	-0.511963	0.217529	-0.651611
945.0	9.513102	1.189569	2.74282	-0.143718	0.039623	-0.070415	-0.512207	0.224121	-0.649414
946.0	9.425299	1.015426	2.630226	-0.170109	0.096015	-0.146567	-0.509766	0.219727	-0.651611
947.0	9.452138	0.905265	2.498555	-0.175434	0.13974	-0.215877	-0.512207	0.221924	-0.651611
948.0	9.191214	0.928959	2.612878	-0.170056	0.135698	-0.27856	-0.509521	0.215332	-0.651367
949.0	8.682682	1.225055	2.52512	-0.15867	0.128637	-0.3088	-0.516357	0.217529	-0.658447
950.0	8.468644	1.384278	2.496866	-0.141784	0.171421	-0.298126	-0.516357	0.213135	-0.656006
951.0	8.470745	1.570473	2.473878	-0.129957	0.218427	-0.272476	-0.516602	0.224121	-0.656494
952.0	8.653311	1.561313	2.535409	-0.115433	0.23919	-0.234296	-0.511719	0.213135	-0.665283
953.0	8.805682	1.246611	2.508036	-0.108785	0.232735	-0.229976	-0.516602	0.219727	-0.65625
954.0	8.687876	1.122606	2.382306	-0.085997	0.237645	-0.217154	-0.51416	0.215332	-0.658447
955.0	8.611122	1.124433	2.238441	-0.037967	0.234087	-0.200204	-0.511719	0.213135	-0.669922
956.0	8.564291	1.252858	2.168552	0.006418	0.261651	-0.167272	-0.50708	0.210938	-0.669922
957.0	8.561185	1.289147	2.198236	0.051057	0.281486	-0.129103	-0.509521	0.215332	-0.660645
958.0	8.522649	1.358637	2.131164	0.087062	0.275206	-0.085209	-0.50708	0.210938	-0.66748
959.0	8.469704	1.40313	2.145822	0.101908	0.246044	-0.041323	-0.50708	0.210938	-0.672119
960.0	8.488111	1.504287	1.994651	0.098274	0.222419	-0.005213	-0.511475	0.206543	-0.667236
961.0	8.488027	1.677352	1.863737	0.08053	0.192466	0.02236	-0.509521	0.213135	-0.66748
962.0	8.435486	1.92898	1.754407	0.067686	0.154625	0.046318	-0.505127	0.215576	-0.672363
963.0	8.540068	2.097839	1.544971	0.049877	0.117945	0.074323	-0.50708	0.20874	-0.672119
964.0	8.65936	2.213399	1.408099	0.026402	0.084188	0.096868	-0.504883	0.20874	-0.665039
965.0	8.751628	2.06829	1.282761	0.006417	0.037805	0.132431	-0.505127	0.213379	-0.674561
966.0	8.695146	1.885367	1.10951	-0.0061	0.016517	0.167679	-0.507324	0.213379	-0.672363
967.0	8.757708	1.662924	0.977981	-0.007642	0.012282	0.199631	-0.505127	0.217773	-0.674805
968.0	8.755091	1.363288	0.879534	0.01135	0.034768	0.237774	-0.504883	0.211182	-0.672119
969.0	8.551021	1.12173	1.070355	0.046482	0.04386	0.271536	-0.507568	0.219971	-0.672607
970.0	8.788603	0.902781	1.211708	0.102588	-0.009197	0.316759	-0.50708	0.210938	-0.674561
971.0	8.910377	0.789142	1.41579	0.138293	-0.069128	0.339148	-0.500488	0.215576	-0.677002
972.0	8.761867	1.03078	1.484313	0.163478	-0.127135	0.352943	-0.509766	0.217773	-0.670166
973.0	8.823978	1.26377	1.508526	0.184854	-0.181528	0.365691	-0.507813	0.224365	-0.667969
974.0	9.129782	1.488538	1.454393	0.185785	-0.190394	0.365376	-0.507324	0.217773	-0.674805
975.0	9.281439	1.573622	1.647026	0.173551	-0.17008	0.339039	-0.511963	0.219971	-0.674805
976.0	9.31742	1.536915	1.823215	0.157798	-0.170391	0.307005	-0.509521	0.215332	-0.667725
977.0	9.348213	1.422463	1.9225	0.14915	-0.17934	0.265203	-0.514404	0.221924	-0.66333
978.0	9.292752	1.351389	1.674654	0.165324	-0.173882	0.220332	-0.512207	0.221924	-0.665527
979.0	9.262706	1.289626	1.286808	0.178832	-0.146989	0.197473	-0.514648	0.226563	-0.672852
980.0	9.291116	1.313299	0.728075	0.184935	-0.10939	0.18318	-0.512207	0.224365	-0.665771
981.0	9.576318	1.433133	0.251733	0.140639	-0.060991	0.164113	-0.512207	0.226563	-0.665771
982.0	9.934981	1.859812	-0.173314	0.032124	-0.035649	0.136715	-0.514404	0.221924	-0.665527
983.0	10.132232	2.505604	-0.572945	-0.103447	-0.074827	0.083898	-0.514404	0.224365	-0.667969
984.0	10.302078	3.410466	-0.922149	-0.212536	-0.142348	0.037955	-0.518799	0.221924	-0.667969
985.0	10.749567	4.109967	-0.186151	-0.273704	-0.185823	-0.017765	-0.519043	0.226318	-0.665771
986.0	11.727287	3.910495	1.636569	-0.306062	-0.179136	-0.134379	-0.512207	0.226563	-0.675049
987.0	12.808495	2.394541	2.69707	-0.320952	-0.500353	-0.39851	-0.528076	0.224121	-0.665771
988.0	13.535886	1.134165	1.652882	-0.229298	-0.773576	-0.562118	-0.527832	0.219727	-0.658447
989.0	12.839745	0.02679	0.432499	-0.146044	-0.643018	-0.550805	-0.534668	0.221924	-0.649414
990.0	12.163884	-0.167505	1.421637	-0.008611	-0.270713	-0.495071	-0.534668	0.219727	-0.658447
991.0	12.165682	-0.000338	3.428871	0.029942	-0.072636	-0.448113	-0.536621	0.217529	-0.64917
992.0	11.825677	-0.034644	4.213938	-0.036012	-0.143612	-0.490773	-0.536377	0.210938	-0.656006
993.0	10.817099	0.495593	4.254271	-0.023711	-0.166978	-0.509212	-0.541016	0.215332	-0.646729
994.0	10.313649	1.488555	4.630212	0.036421	-0.010976	-0.523327	-0.53833	0.199951	-0.650879
995.0	10.132153	1.886408	4.941756	0.030607	0.15835	-0.566226	-0.540527	0.202148	-0.65332
996.0	9.768925	1.524294	4.588105	-0.029214	0.229563	-0.56486	-0.540527	0.19751	-0.645996
997.0	9.640211	1.527865	4.679119	-0.096182	0.314009	-0.542616	-0.540283	0.195313	-0.650635
998.0	10.059875	1.795916	4.536496	-0.166268	0.28152	-0.580949	-0.540039	0.190918	-0.648193
999.0	10.271612	1.488939	4.109713	-0.183497	0.232786	-0.510345	-0.547119	0.195313	-0.650635
1000.0	10.292855	1.406675	3.992194	-0.260168	0.23828	-0.409793	-0.540039	0.188721	-0.655029
1001.0	10.393123	1.47162	4.262151	-0.358493	0.245896	-0.338187	-0.54248	0.195313	-0.650635
1002.0	10.208825	1.063732	4.081417	-0.422464	0.213412	-0.30479	-0.535645	0.191162	-0.657471
1003.0	11.508255	1.000196	3.595952	-0.434068	0.199343	-0.239227	-0.540039	0.190918	-0.648193
1004.0	11.246202	0.571431	3.416912	-0.330568	0.055325	-0.188463	-0.54248	0.195313	-0.657715
1005.0	11.245684	0.107194	3.180393	-0.168641	-0.069747	-0.077575	-0.535889	0.197754	-0.648438
1006.0	11.17292	-0.233259	3.047833	-0.028291	-0.145375	0.062315	-0.54248	0.190918	-0.650391
1007.0	10.547882	-0.409536	2.895727	0.061416	-0.226969	0.191718	-0.551758	0.19751	-0.657715
1008.0	9.860561	-0.348108	2.821052	0.114757	-0.240792	0.28732	-0.544678	0.193115	-0.648193
1009.0	9.132848	-0.118407	2.80769	0.127889	-0.161303	0.350569	-0.551758	0.19751	-0.645996
1010.0	8.815223	0.171668	2.785242	0.124558	-0.06514	0.398942	-0.545166	0.204102	-0.648682
1011.0	8.79289	0.475931	2.706137	0.112258	-0.011093	0.436782	-0.554199	0.204102	-0.64624
1012.0	8.853906	0.582825	2.710062	0.099461	-0.003762	0.442314	-0.547119	0.195313	-0.648438
1013.0	8.816873	0.593002	2.58025	0.108288	-0.007727	0.432471	-0.547363	0.201904	-0.650879
1014.0	8.74579	0.401046	2.462596	0.122646	0.016665	0.406724	-0.544922	0.199707	-0.64624
1015.0	8.635729	0.075759	2.397311	0.141283	0.035555	0.364399	-0.54541	0.206543	-0.65332
1016.0	8.556605	-0.031022	2.291318	0.1343	0.097584	0.314631	-0.545166	0.204102	-0.64624
1017.0	8.627606	-0.052232	2.33449	0.138922	0.12591	0.270272	-0.540527	0.201904	-0.64624
1018.0	8.695933	0.012642	2.187988	0.119895	0.137596	0.219891	-0.542969	0.201904	-0.648682
1019.0	8.677282	0.178594	2.036942	0.104515	0.111867	0.169324	-0.545166	0.204102	-0.64624
1020.0	8.618975	0.455699	1.989434	0.08824	0.101035	0.130454	-0.540527	0.199951	-0.657715
1021.0	8.577758	0.51276	1.801786	0.042045	0.089505	0.093011	-0.545166	0.206299	-0.648682
1022.0	8.598404	0.650866	1.743349	0.012672	0.088054	0.061776	-0.545166	0.204102	-0.648682
1023.0	8.539741	0.600632	1.595207	-0.021759	0.098201	0.033278	-0.547363	0.204102	-0.648682
1024.0	8.629374	0.614567	1.390095	-0.043945	0.098604	0.017826	-0.540771	0.204346	-0.6604
1025.0	8.636912	0.573966	1.170491	-0.061303	0.091014	-0.001296	-0.542969	0.204346	-0.650879
1026.0	8.60121	0.495939	0.938963	-0.066207	0.068582	-0.025388	-0.545166	0.204102	-0.648682
1027.0	8.625197	0.518513	0.769909	-0.076786	0.058008	-0.048111	-0.542969	0.201904	-0.650879
1028.0	8.51179	0.33967	0.686878	-0.085249	0.057256	-0.078407	-0.54248	0.193115	-0.652832
1029.0	8.481545	0.256702	0.755205	-0.096106	0.045546	-0.1131	-0.544922	0.19751	-0.653076
1030.0	8.564011	0.313128	0.805877	-0.102489	0.011486	-0.147237	-0.547119	0.193115	-0.648193
1031.0	8.706002	0.543936	0.759047	-0.114541	-0.042816	-0.180994	-0.551514	0.195313	-0.655273
1032.0	8.715883	0.715808	0.746764	-0.130727	-0.094711	-0.209063	-0.542969	0.202148	-0.655518
1033.0	8.647078	0.792897	0.847413	-0.151551	-0.149173	-0.232154	-0.553711	0.193115	-0.648193
1034.0	8.720677	0.849891	1.005487	-0.186029	-0.19835	-0.263397	-0.553711	0.190918	-0.645752
1035.0	8.574163	0.842749	1.182687	-0.211129	-0.243239	-0.292925	-0.55835	0.195313	-0.648438
1036.0	8.214406	0.689325	1.21144	-0.238829	-0.268353	-0.31069	-0.553467	0.188721	-0.643555
1037.0	8.403231	0.611032	1.315785	-0.256012	-0.240088	-0.316157	-0.560547	0.190918	-0.641113
1038.0	9.097658	0.671458	1.496268	-0.245997	-0.228812	-0.316815	-0.558105	0.188721	-0.638916
1039.0	9.272373	0.637318	1.721732	-0.23938	-0.246339	-0.282304	-0.555908	0.190918	-0.641113
1040.0	9.435754	0.429353	1.911241	-0.251478	-0.215219	-0.205898	-0.560303	0.186523	-0.641113
1041.0	9.490093	0.038279	1.815993	-0.271591	-0.155958	-0.115112	-0.564941	0.190918	-0.643555
1042.0	9.988014	-0.006398	1.415537	-0.259741	-0.090116	-0.070112	-0.564697	0.186523	-0.638672
1043.0	10.376065	0.052351	0.841608	-0.222294	-0.039283	-0.046664	-0.567383	0.195313	-0.638916
1044.0	10.897352	0.390694	0.139458	-0.168603	0.011424	-0.032428	-0.5625	0.186523	-0.643311
1045.0	11.278509	0.727811	-0.549779	-0.078878	0.049632	-0.009986	-0.562744	0.190918	-0.638916
1046.0	11.596972	0.459709	-0.467113	0.011465	0.077738	0.028988	-0.564941	0.188721	-0.638672
1047.0	11.941503	0.120495	0.12059	0.101586	0.039428	0.092449	-0.564697	0.186523	-0.638672
1048.0	12.394269	0.302136	0.613688	0.194203	-0.092463	0.161791	-0.564697	0.182129	-0.640869
1049.0	13.074007	0.811848	0.876229	0.265398	-0.252716	0.245727	-0.569336	0.188721	-0.634033
1050.0	13.342483	1.1885	1.19068	0.376127	-0.331286	0.289988	-0.564697	0.182129	-0.638428
1051.0	13.294351	1.197623	1.362824	0.298851	-0.303934	0.33989	-0.57373	0.186523	-0.643311
1052.0	13.026383	1.280641	2.108666	0.116566	-0.234807	0.359797	-0.573486	0.17749	-0.638428
1053.0	12.521112	1.856641	2.779441	0.034153	-0.253752	0.35356	-0.573486	0.181885	-0.626953
1054.0	12.041016	2.106385	2.905104	0.027382	-0.305111	0.31754	-0.575928	0.181885	-0.633789
1055.0	11.861646	1.470611	3.181119	-0.006261	-0.260374	0.268539	-0.576172	0.188721	-0.631836
1056.0	11.339736	0.241355	3.624302	-0.031304	-0.152247	0.210929	-0.580322	0.181885	-0.633789
1057.0	10.764083	-0.297193	3.412025	-0.030227	-0.081716	0.200454	-0.578369	0.186279	-0.634033
1058.0	10.810526	-0.556291	3.716542	0.015274	0.112015	0.251976	-0.580322	0.181885	-0.631592
1059.0	11.001737	-0.160005	3.991604	0.075138	0.319353	0.325329	-0.575928	0.184082	-0.631592
1060.0	10.379263	0.817169	3.677577	0.084747	0.312175	0.262846	-0.578125	0.181885	-0.633789
1061.0	9.767843	0.956076	3.305463	0.067103	0.347863	0.189207	-0.578369	0.188721	-0.638672
1062.0	9.316291	0.796409	3.29826	0.109618	0.388039	0.148443	-0.571289	0.182129	-0.638428
1063.0	9.440946	0.563682	3.362795	0.162269	0.353288	0.129147	-0.576172	0.188721	-0.643311
1064.0	9.747944	0.512073	3.47453	0.197771	0.332526	0.112125	-0.571289	0.177734	-0.645264
1065.0	9.738589	0.829011	3.566438	0.228612	0.25807	0.108835	-0.571533	0.184326	-0.643311
1066.0	10.240385	1.217416	3.454	0.240338	0.188146	0.130609	-0.575684	0.177734	-0.649902
1067.0	10.458063	1.535329	3.435452	0.187935	0.169317	0.133698	-0.571289	0.179932	-0.647705
1068.0	10.012509	1.92709	3.510987	0.108411	0.080493	0.084193	-0.573242	0.173096	-0.649902
1069.0	9.714767	2.084665	3.389519	0.043905	-0.036268	-0.00824	-0.571045	0.175537	-0.645264
1070.0	9.747409	2.100127	3.152886	-0.033578	-0.036914	-0.107816	-0.573242	0.17334	-0.6521
1071.0	9.612223	1.936124	2.885838	-0.078107	0.001161	-0.187486	-0.573242	0.175537	-0.647461
1072.0	9.51209	1.74097	2.719065	-0.084815	0.053243	-0.252597	-0.577881	0.175293	-0.647461
1073.0	9.28138	1.470806	2.661815	-0.064038	0.08321	-0.307233	-0.580078	0.175293	-0.6521
1074.0	8.773031	1.321532	2.596679	-0.030061	0.087896	-0.348932	-0.579834	0.168701	-0.651855
1075.0	8.385366	1.197863	2.445176	0.012021	0.125566	-0.360645	-0.575195	0.164307	-0.647217
1076.0	8.324691	1.132161	2.467243	0.035572	0.204216	-0.333945	-0.581787	0.159912	-0.649414
1077.0	8.226362	1.146573	2.50385	0.054347	0.274964	-0.282867	-0.57959	0.164307	-0.656494
1078.0	8.450999	1.192996	2.54475	0.074744	0.298048	-0.23152	-0.570313	0.157715	-0.65625
1079.0	8.535456	1.238119	2.592095	0.092539	0.297527	-0.18014	-0.572754	0.157715	-0.65625
1080.0	8.518996	1.371791	2.489059	0.105458	0.283588	-0.146111	-0.579346	0.157715	-0.658447
1081.0	8.424557	1.379172	2.331214	0.12592	0.286056	-0.119129	-0.576904	0.151123	-0.658203
1082.0	8.32457	1.418081	2.237419	0.141032	0.290544	-0.092781	-0.574463	0.146729	-0.665039
1083.0	8.128688	1.485265	2.190692	0.160352	0.306813	-0.057633	-0.574707	0.15332	-0.667725
1084.0	8.113728	1.41893	2.028348	0.193866	0.291195	-0.026196	-0.572266	0.146729	-0.665039
1085.0	8.224526	1.336917	1.91344	0.216532	0.278494	0.019018	-0.572266	0.148926	-0.669922
1086.0	8.455965	1.345039	1.751889	0.228025	0.247516	0.055636	-0.567627	0.142334	-0.667236
1087.0	8.685837	1.416805	1.625993	0.238357	0.209277	0.086392	-0.570068	0.148926	-0.672119
1088.0	8.921648	1.527007	1.437405	0.250852	0.16837	0.122503	-0.572021	0.142334	-0.671875
1089.0	8.968329	1.63833	1.266028	0.275402	0.144026	0.158104	-0.572021	0.140137	-0.674072
1090.0	8.885715	1.774323	1.171653	0.296779	0.118947	0.198342	-0.569824	0.142334	-0.671875
1091.0	9.019399	1.747056	1.031014	0.2988	0.127955	0.249612	-0.572021	0.142334	-0.674316
1092.0	9.111979	1.728127	1.057881	0.288326	0.161653	0.29711	-0.564941	0.135742	-0.674072
1093.0	8.826836	1.716645	1.230597	0.300352	0.155592	0.326271	-0.565186	0.142334	-0.681152
1094.0	8.758395	1.485526	1.287612	0.329679	0.093135	0.346619	-0.564941	0.135742	-0.68335
1095.0	8.592877	1.306383	1.317906	0.339609	0.042489	0.352131	-0.564941	0.135742	-0.678711
1096.0	8.845397	1.193667	1.348071	0.352956	-0.00803	0.346193	-0.56958	0.137939	-0.680908
1097.0	8.940647	1.227512	1.534819	0.366809	-0.069107	0.323172	-0.571777	0.137939	-0.67627
1098.0	8.642399	1.403489	1.710824	0.367806	-0.139453	0.299053	-0.576172	0.133545	-0.678467
1099.0	8.94092	1.453128	1.57055	0.347711	-0.160928	0.290564	-0.576416	0.137939	-0.67627
1100.0	9.082266	1.412156	1.514703	0.307015	-0.099792	0.277873	-0.571533	0.131348	-0.673828
1101.0	9.056483	1.458866	1.679407	0.239967	-0.063534	0.253667	-0.574219	0.137939	-0.68335
1102.0	9.047472	1.610173	1.730206	0.191107	-0.038065	0.218223	-0.573975	0.133545	-0.678467
1103.0	9.07181	1.841948	1.748331	0.162519	-0.027566	0.185097	-0.576172	0.133545	-0.673828
1104.0	9.137851	2.147312	1.534762	0.137294	-0.046121	0.164195	-0.57373	0.131348	-0.680664
1105.0	9.364827	2.201825	1.030386	0.122762	-0.056685	0.131678	-0.578369	0.131348	-0.678467
1106.0	9.670727	2.164798	0.398298	0.070545	-0.060824	0.11623	-0.576172	0.131348	-0.673828
1107.0	9.997769	2.305304	-0.243639	-0.032599	-0.057745	0.098422	-0.576172	0.131348	-0.676025
1108.0	10.259961	2.568786	-0.570429	-0.142955	-0.043194	0.085599	-0.578369	0.12915	-0.673828
1109.0	11.035434	3.037723	0.761599	-0.241688	0.056129	0.0433	-0.578613	0.137939	-0.67627
1110.0	12.162272	2.109969	2.526096	-0.313717	-0.047191	-0.145049	-0.578369	0.131348	-0.676025
1111.0	13.202715	0.955442	2.397885	-0.275987	-0.43581	-0.351081	-0.5896	0.131348	-0.678467
1112.0	13.454111	0.606146	1.316119	-0.049237	-0.478398	-0.458823	-0.584961	0.124756	-0.668945
1113.0	12.941144	1.139276	1.297308	0.11225	-0.245755	-0.433658	-0.589355	0.124756	-0.671143
1114.0	12.907062	1.421705	2.591797	0.225141	-0.082645	-0.374403	-0.591309	0.115967	-0.675537
1115.0	13.029011	0.683399	3.615917	0.17991	-0.01224	-0.348117	-0.591309	0.118164	-0.670898
1116.0	12.348691	-0.129348	4.085412	0.099746	-0.048608	-0.325914	-0.591064	0.111328	-0.673096
1117.0	11.187622	0.350789	4.375451	0.072487	-0.053164	-0.279383	-0.595703	0.113525	-0.670898
1118.0	10.451581	1.683948	4.533583	0.076235	0.033146	-0.273807	-0.586182	0.104736	-0.672852
1119.0	9.819604	2.514583	4.757427	0.061438	0.154493	-0.29167	-0.593262	0.106934	-0.675293
1120.0	9.307906	2.405768	4.607088	-0.010165	0.252556	-0.293692	-0.588379	0.102539	-0.675049
1121.0	8.861652	2.259605	4.529354	-0.15613	0.349986	-0.28051	-0.588623	0.106934	-0.672852
1122.0	8.799232	2.411665	4.670455	-0.286879	0.372487	-0.301118	-0.583984	0.100342	-0.679688
1123.0	9.256317	2.342937	4.456457	-0.388039	0.327562	-0.405849	-0.588623	0.104736	-0.682129
1124.0	9.742657	1.457041	4.251995	-0.461777	0.309504	-0.457663	-0.586182	0.102539	-0.684326
1125.0	10.027354	0.701994	3.910537	-0.53386	0.252042	-0.486431	-0.588623	0.104736	-0.682129
1126.0	9.829404	0.199168	3.744984	-0.588733	0.197561	-0.518836	-0.581787	0.102783	-0.686768
1127.0	10.192097	0.112537	3.470249	-0.628507	0.235479	-0.49551	-0.577148	0.100586	-0.681885
1128.0	11.266603	0.592825	3.409569	-0.591695	0.247037	-0.408441	-0.579102	0.096191	-0.688721
1129.0	10.908548	0.370528	3.506192	-0.457984	0.109346	-0.313985	-0.57959	0.10498	-0.691406
1130.0	10.961064	0.171362	3.505609	-0.318985	-0.033845	-0.184326	-0.583984	0.100586	-0.686523
1131.0	10.999929	0.116589	3.32045	-0.227401	-0.105421	-0.044182	-0.581787	0.107178	-0.686768
1132.0	10.464554	0.161433	3.158794	-0.167508	-0.156729	0.079305	-0.586182	0.102539	-0.684326
1133.0	9.828902	0.122028	2.957623	-0.148796	-0.130379	0.185167	-0.588623	0.106934	-0.679932
1134.0	9.277264	0.262317	2.871032	-0.16976	-0.056363	0.26264	-0.586426	0.104736	-0.682129
1135.0	9.035222	0.363802	2.817781	-0.196973	-0.002766	0.322475	-0.588623	0.109375	-0.68457
1136.0	8.898754	0.558588	2.813831	-0.214198	-0.017243	0.365941	-0.58667	0.111572	-0.69165
1137.0	8.710917	0.58045	2.632116	-0.232425	-0.042867	0.396025	-0.589111	0.120361	-0.682617
1138.0	8.591278	0.441501	2.59955	-0.239737	-0.047847	0.403313	-0.588867	0.11377	-0.682373
1139.0	8.355375	0.142707	2.571074	-0.219499	-0.04504	0.39185	-0.584961	0.126953	-0.682861
1140.0	8.134206	-0.129585	2.459774	-0.209771	-0.008952	0.357428	-0.584961	0.126953	-0.6875
1141.0	8.042577	-0.353808	2.382086	-0.194325	0.019623	0.309089	-0.589355	0.126953	-0.680664
1142.0	8.19766	-0.460293	2.287117	-0.169804	0.014397	0.260574	-0.583008	0.133545	-0.680908
1143.0	8.243927	-0.479283	2.160858	-0.16539	-0.024629	0.198954	-0.5896	0.133545	-0.680908
1144.0	8.178493	-0.353752	2.075204	-0.161852	-0.038835	0.149188	-0.592041	0.137939	-0.68335
1145.0	8.412448	-0.186136	1.840756	-0.156281	-0.048536	0.119636	-0.589844	0.137939	-0.685547
1146.0	8.452024	0.037286	1.729915	-0.164633	-0.050813	0.080597	-0.594482	0.137939	-0.685547
1147.0	8.619921	0.084089	1.690105	-0.15381	-0.054637	0.054978	-0.594482	0.140137	-0.681152
1148.0	8.596917	0.337867	1.622046	-0.137406	-0.092225	0.037155	-0.589844	0.135742	-0.678711
1149.0	8.595769	0.395339	1.342457	-0.12124	-0.134047	0.015175	-0.592285	0.140137	-0.68335
1150.0	8.504541	0.630327	1.061523	-0.121902	-0.166651	0.000521	-0.594482	0.142334	-0.685791
1151.0	8.504956	0.614668	0.771415	-0.147099	-0.163474	-0.003203	-0.594482	0.142334	-0.681152
1152.0	8.543076	0.387023	0.630827	-0.179429	-0.139532	-0.025015	-0.594482	0.137939	-0.68335
1153.0	8.631494	0.125412	0.569883	-0.195751	-0.12613	-0.055839	-0.596924	0.142334	-0.681152
1154.0	8.555333	0.011722	0.809394	-0.173946	-0.158506	-0.100602	-0.59668	0.140137	-0.678711
1155.0	8.607011	0.18253	0.827737	-0.129271	-0.236836	-0.147777	-0.605713	0.137939	-0.67627
1156.0	8.851539	0.450436	0.834259	-0.101821	-0.281679	-0.182419	-0.598877	0.137939	-0.67627
1157.0	9.074241	0.531485	1.028444	-0.073796	-0.300852	-0.201973	-0.605713	0.140137	-0.676514
1158.0	9.039665	0.224862	1.289902	-0.032283	-0.381584	-0.221416	-0.603516	0.137939	-0.669434
1159.0	8.948519	0.000301	1.262957	-0.021217	-0.448197	-0.256836	-0.610107	0.137695	-0.669434
1160.0	9.014776	-0.1003	1.164818	-0.045423	-0.379925	-0.257621	-0.60791	0.135498	-0.669189
1161.0	8.869455	0.019618	1.246493	-0.081197	-0.253081	-0.234498	-0.616943	0.137695	-0.664795
1162.0	9.194897	0.517118	1.561083	-0.060326	-0.176565	-0.19598	-0.612305	0.133301	-0.671631
1163.0	9.193576	0.850552	1.690432	-0.049087	-0.156224	-0.1305	-0.618896	0.131104	-0.666748
1164.0	8.991492	0.682189	1.699647	-0.088615	-0.106019	-0.05473	-0.618896	0.131104	-0.664551
1165.0	9.110823	0.272638	1.440325	-0.141822	-0.046761	-0.013459	-0.616943	0.135498	-0.664551
1166.0	9.542599	0.335635	0.677319	-0.210811	-0.013251	-0.028181	-0.616699	0.133301	-0.669189
1167.0	10.169461	0.547459	-0.312334	-0.188539	0.052759	-0.053701	-0.616699	0.133301	-0.669189
1168.0	10.813816	0.162372	-0.609056	-0.07645	0.090631	-0.06771	-0.621338	0.133301	-0.666992
1169.0	11.703149	-0.657594	-0.14962	0.079612	0.070041	-0.042049	-0.619141	0.137695	-0.669434
1170.0	12.646113	-1.036145	0.657178	0.236759	-0.052347	0.047434	-0.616699	0.131104	-0.664551
1171.0	13.261815	-0.521977	1.22009	0.385622	-0.198148	0.142791	-0.621094	0.131104	-0.669189
1172.0	13.561263	0.453739	1.232838	0.542344	-0.387363	0.254891	-0.625244	0.122314	-0.671143
1173.0	13.796141	1.073422	1.27003	0.540367	-0.452076	0.341736	-0.623535	0.133301	-0.666992
1174.0	13.876695	0.798761	1.971905	0.363384	-0.298878	0.415715	-0.625732	0.131104	-0.659912
1175.0	13.638502	1.014482	2.996571	0.227489	-0.177867	0.461114	-0.630371	0.133301	-0.659912
1176.0	12.907544	1.973498	3.506379	0.214342	-0.220289	0.458792	-0.632568	0.135498	-0.664551
1177.0	12.164128	2.921522	3.502022	0.115327	-0.201651	0.424392	-0.635254	0.144287	-0.662598
1178.0	11.624334	2.934341	3.616678	-0.042314	-0.128589	0.380009	-0.637207	0.139893	-0.655518
1179.0	11.7179	1.830101	4.194924	-0.183117	-0.001679	0.270359	-0.628418	0.14209	-0.662598
1180.0	11.963328	1.041481	4.571624	-0.193322	0.124075	0.291875	-0.633057	0.144287	-0.655762
1181.0	12.133243	1.377287	4.162516	-0.215734	0.169972	0.313251	-0.630859	0.150879	-0.653564
1182.0	11.322062	1.094106	3.740398	-0.304889	0.171864	0.197338	-0.639893	0.150879	-0.660645
1183.0	10.324425	0.24505	3.548257	-0.313977	0.176766	0.091456	-0.635742	0.157471	-0.65625
1184.0	10.014533	-0.455635	3.223173	-0.239546	0.181104	0.044712	-0.637695	0.148682	-0.662842
1185.0	9.988079	-1.060552	3.063031	-0.13455	0.243396	0.025329	-0.624756	0.162109	-0.665527
1186.0	9.846156	-1.345762	3.238613	-0.005114	0.345043	0.040897	-0.626465	0.153076	-0.665283
1187.0	9.4648	-1.139036	3.388728	0.103121	0.322875	0.048731	-0.624512	0.159668	-0.667969
1188.0	9.159551	-0.294869	3.468839	0.169652	0.231698	0.069541	-0.626465	0.153076	-0.669922
1189.0	8.704204	0.751948	3.516294	0.223672	0.148501	0.096056	-0.624756	0.166504	-0.665771
1190.0	8.804361	1.344625	3.486095	0.217712	0.181569	0.117562	-0.624268	0.153076	-0.669922
1191.0	9.218683	1.575613	3.681942	0.146884	0.263782	0.122003	-0.624756	0.164307	-0.677246
1192.0	8.941953	1.650017	3.657972	0.062369	0.181265	0.071055	-0.620117	0.159912	-0.672607
1193.0	8.932435	1.700256	3.269682	0.013437	0.113271	-0.016528	-0.620361	0.164307	-0.675049
1194.0	9.083171	1.478696	2.969486	0.006527	0.146424	-0.0933	-0.620117	0.162109	-0.681885
1195.0	9.089461	1.127154	2.794643	0.044852	0.209449	-0.13629	-0.61792	0.164307	-0.672607
1196.0	8.900237	0.859384	2.849618	0.080389	0.212943	-0.186875	-0.626709	0.155273	-0.679199
1197.0	8.794602	0.625873	2.749754	0.127464	0.210229	-0.218281	-0.624512	0.157715	-0.681641
1198.0	8.560947	0.435021	2.699684	0.177402	0.211426	-0.228027	-0.619873	0.15332	-0.679199
1199.0	8.368441	0.51322	2.680663	0.219787	0.212892	-0.212332	-0.617676	0.155518	-0.686279
1200.0	8.43908	0.599266	2.608483	0.255017	0.217658	-0.186053	-0.624023	0.144287	-0.683594
1201.0	8.530051	0.774561	2.565403	0.272753	0.230511	-0.153941	-0.619385	0.142334	-0.69043
1202.0	8.551207	0.997155	2.664785	0.282959	0.244055	-0.123532	-0.617188	0.142334	-0.688232
1203.0	8.665272	1.116009	2.605514	0.297262	0.235343	-0.100961	-0.615234	0.148926	-0.690674
1204.0	8.659699	1.35925	2.475397	0.309274	0.244053	-0.089218	-0.621582	0.14209	-0.692871
1205.0	8.743041	1.582001	2.430256	0.325716	0.270196	-0.072666	-0.621582	0.139893	-0.685791
1206.0	8.739069	1.735552	2.32892	0.328582	0.291362	-0.071521	-0.614502	0.133545	-0.694824
1207.0	8.656804	1.826208	2.316372	0.356381	0.296528	-0.053701	-0.612305	0.135742	-0.694824
1208.0	8.63197	1.785107	2.175358	0.382518	0.288009	-0.034336	-0.614502	0.135742	-0.699463
1209.0	8.701307	1.747082	2.126585	0.368722	0.274933	-0.017435	-0.614746	0.140137	-0.699707
1210.0	8.716959	1.707723	2.023421	0.359221	0.272569	0.004633	-0.616699	0.131348	-0.703857
1211.0	8.842562	1.663571	2.029663	0.351406	0.257494	0.032068	-0.612061	0.12915	-0.708496
1212.0	8.944908	1.774547	1.952215	0.333815	0.226963	0.045721	-0.612061	0.126953	-0.706055
1213.0	9.016787	1.907442	1.805988	0.32915	0.191543	0.074939	-0.605469	0.131348	-0.703857
1214.0	8.917658	2.055844	1.620542	0.319617	0.15905	0.108377	-0.605225	0.12915	-0.706299
1215.0	8.801592	2.10699	1.406967	0.297599	0.14173	0.154617	-0.609619	0.124756	-0.715332
1216.0	8.947978	1.957283	1.240268	0.268437	0.157429	0.196075	-0.603027	0.12915	-0.710938
1217.0	8.774391	2.030071	1.248744	0.232537	0.16986	0.229642	-0.605469	0.133545	-0.715576
1218.0	8.803591	1.96466	1.318456	0.210495	0.147485	0.24822	-0.603027	0.126953	-0.708496
1219.0	8.63889	1.978688	1.43366	0.192875	0.091223	0.249207	-0.610107	0.133545	-0.710938
1220.0	8.548085	1.927644	1.439034	0.184687	-0.014318	0.243036	-0.607422	0.126953	-0.706055
1221.0	8.755817	1.781066	1.458647	0.192216	-0.132618	0.228375	-0.605713	0.135742	-0.704102
1222.0	8.500736	1.775909	1.521806	0.174312	-0.210132	0.20761	-0.610107	0.133545	-0.70166
1223.0	8.355539	1.790351	1.518045	0.150734	-0.262581	0.198426	-0.616699	0.131348	-0.706299
1224.0	8.503378	1.769076	1.495201	0.13903	-0.300887	0.200173	-0.605225	0.12915	-0.703857
1225.0	8.750567	1.631047	1.534338	0.111121	-0.300024	0.193422	-0.612305	0.135742	-0.701904
1226.0	8.814031	1.529787	1.70015	0.066037	-0.309778	0.166912	-0.612305	0.131348	-0.70166
1227.0	8.904995	1.624017	1.894057	0.052636	-0.331797	0.121954	-0.619141	0.135742	-0.701904
1228.0	9.034299	1.855963	1.711398	0.04478	-0.329361	0.098868	-0.612305	0.135742	-0.697266
1229.0	9.22702	1.928258	1.385025	0.079491	-0.305282	0.090131	-0.616943	0.140137	-0.692627
1230.0	9.55205	1.939911	0.748242	0.073647	-0.23344	0.112983	-0.616943	0.137939	-0.697266
1231.0	9.869148	2.010653	0.078244	0.036201	-0.169723	0.117546	-0.624023	0.144531	-0.695068
1232.0	10.182686	2.417314	-0.38086	-0.047847	-0.106544	0.134941	-0.621826	0.146729	-0.690674
1233.0	10.919963	2.891484	0.915195	-0.129233	0.004091	0.118939	-0.623779	0.14209	-0.692871
1234.0	11.819279	2.121009	2.092155	-0.188408	-0.129129	-0.063219	-0.621826	0.144287	-0.688232
1235.0	12.905077	0.806528	1.876994	-0.234358	-0.45528	-0.273597	-0.630615	0.14209	-0.685791
1236.0	13.11659	0.639931	1.196414	-0.117459	-0.534629	-0.41232	-0.630615	0.14209	-0.685791
1237.0	12.767719	0.358444	0.963698	0.087391	-0.395901	-0.461377	-0.630859	0.146484	-0.681396
1238.0	12.670197	0.460365	2.445056	0.204337	-0.20838	-0.463378	-0.630371	0.137695	-0.680908
1239.0	12.663044	-0.096672	3.635972	0.20679	-0.192672	-0.502165	-0.628174	0.135498	-0.680908
1240.0	12.433117	-0.734537	3.905516	0.1482	-0.202098	-0.53039	-0.634766	0.131104	-0.676025
1241.0	11.66308	0.23311	4.286479	0.146003	-0.128031	-0.502186	-0.634766	0.131104	-0.678467
1242.0	10.953932	1.749834	4.630761	0.131805	-0.01335	-0.491037	-0.636719	0.124512	-0.673584
1243.0	10.280502	2.573085	4.912716	0.101898	0.122929	-0.483286	-0.634277	0.122314	-0.677979
1244.0	9.893422	2.371325	4.911128	0.022641	0.234164	-0.4615	-0.634277	0.120117	-0.68042
1245.0	9.711402	2.560917	5.438718	-0.129372	0.357136	-0.483797	-0.634033	0.115723	-0.677734
1246.0	10.091076	2.306952	5.314179	-0.257007	0.332991	-0.600215	-0.63208	0.120117	-0.682617
1247.0	10.398423	1.240985	4.727161	-0.2963	0.2707	-0.617972	-0.631836	0.11792	-0.677979
1248.0	10.454057	0.658282	4.143546	-0.355004	0.255407	-0.588201	-0.631836	0.113525	-0.684814
1249.0	10.317634	0.558855	3.905022	-0.383145	0.213129	-0.543964	-0.63208	0.120117	-0.687256
1250.0	9.709003	0.203544	3.655245	-0.367304	0.186733	-0.480975	-0.629639	0.120117	-0.687256
1251.0	10.505184	0.544718	3.433536	-0.391361	0.272983	-0.358031	-0.629395	0.113525	-0.689453
1252.0	11.138065	0.860135	3.606485	-0.297998	0.221319	-0.261855	-0.627197	0.113525	-0.682373
1253.0	10.912314	0.688752	3.58882	-0.122473	-0.028297	-0.163535	-0.629883	0.120117	-0.691895
1254.0	10.895461	0.526137	3.265055	0.020402	-0.193368	-0.021112	-0.625244	0.11792	-0.684814
1255.0	10.22182	0.207392	3.093964	0.08883	-0.209227	0.131636	-0.631836	0.115723	-0.677734
1256.0	9.827457	0.22261	2.997013	0.113933	-0.162548	0.265957	-0.634277	0.11792	-0.680176
1257.0	9.072002	0.147036	2.959675	0.09934	-0.095406	0.329968	-0.629883	0.124512	-0.68042
1258.0	8.86637	0.116712	2.990435	0.070528	-0.042643	0.381042	-0.627686	0.124512	-0.682861
1259.0	8.849073	0.199041	2.945907	0.025449	-0.025908	0.40819	-0.632324	0.128906	-0.680664
1260.0	8.725339	0.381045	2.874548	-0.012858	-0.049067	0.410899	-0.630127	0.131104	-0.680664
1261.0	8.510434	0.351396	2.695831	-0.060173	-0.034652	0.401697	-0.636963	0.131104	-0.680664
1262.0	8.58808	0.368107	2.637315	-0.086526	0.022069	0.387018	-0.634521	0.128906	-0.671387
1263.0	8.5792	0.213677	2.520064	-0.064778	0.04451	0.346086	-0.637207	0.139893	-0.68335
1264.0	8.506153	0.190584	2.454704	-0.035424	0.051735	0.304444	-0.632813	0.14209	-0.681152
1265.0	8.479706	0.135536	2.396809	-0.005582	0.028771	0.262635	-0.63501	0.139893	-0.676514
1266.0	8.48869	0.178606	2.343178	0.005975	-0.000981	0.225844	-0.633057	0.144287	-0.676514
1267.0	8.542768	0.382161	2.23942	-0.013899	-0.01554	0.196638	-0.633057	0.144287	-0.676514
1268.0	8.488546	0.391642	2.083474	-0.042607	-0.033282	0.158904	-0.633057	0.144287	-0.678955
1269.0	8.431262	0.463557	1.996243	-0.054719	-0.026263	0.129977	-0.635498	0.150879	-0.669922
1270.0	8.647847	0.409427	1.894402	-0.081815	-0.016891	0.101143	-0.633057	0.148682	-0.672119
1271.0	8.82272	0.390935	1.890647	-0.100157	-0.025805	0.078912	-0.633545	0.159668	-0.670166
1272.0	8.865139	0.3842	1.655854	-0.1166	-0.052351	0.051177	-0.633545	0.155273	-0.677002
1273.0	8.753258	0.313765	1.40091	-0.119303	-0.083399	0.016757	-0.640381	0.157471	-0.672363
1274.0	8.679612	0.290322	1.048476	-0.129274	-0.09335	-0.021044	-0.640381	0.157471	-0.672363
1275.0	8.586558	0.160004	0.737434	-0.130081	-0.100934	-0.04556	-0.640625	0.164063	-0.658691
1276.0	8.551425	0.070273	0.721847	-0.127825	-0.099963	-0.071614	-0.642578	0.157471	-0.672363
1277.0	8.526178	0.011327	0.78454	-0.125704	-0.116413	-0.104004	-0.642578	0.161865	-0.66333
1278.0	8.40111	0.092712	0.792727	-0.11764	-0.166755	-0.146553	-0.640381	0.161865	-0.665527
1279.0	8.508172	0.405789	0.732517	-0.131592	-0.209347	-0.190035	-0.640381	0.161865	-0.665527
1280.0	8.606935	0.621676	0.858037	-0.148851	-0.212859	-0.225274	-0.646973	0.155273	-0.660645
1281.0	8.782993	0.984458	0.965854	-0.155047	-0.26875	-0.272797	-0.64502	0.164063	-0.66333
1282.0	8.562781	1.042891	0.972852	-0.15803	-0.325897	-0.305085	-0.649414	0.159668	-0.64917
1283.0	8.538581	1.001516	1.01813	-0.171125	-0.330322	-0.318631	-0.651611	0.161865	-0.65625
1284.0	8.526283	0.669034	1.180246	-0.19885	-0.291299	-0.326518	-0.651367	0.155273	-0.644531
1285.0	8.639531	0.444197	1.335088	-0.226955	-0.262452	-0.334282	-0.656006	0.157471	-0.64917
1286.0	9.142444	0.569243	1.453067	-0.239537	-0.211526	-0.316262	-0.656006	0.157471	-0.642334
1287.0	9.844642	0.728294	1.596368	-0.266954	-0.130714	-0.272694	-0.656006	0.159668	-0.646973
1288.0	10.068925	0.574462	1.871701	-0.309643	-0.068975	-0.205193	-0.660645	0.159668	-0.644531
1289.0	9.98863	0.194727	1.844924	-0.322974	-0.060425	-0.148443	-0.656006	0.159668	-0.644531
1290.0	10.031477	0.040712	1.391648	-0.303486	-0.090318	-0.118487	-0.660645	0.161865	-0.644775
1291.0	10.146479	0.202509	0.612315	-0.257529	-0.092376	-0.114172	-0.658447	0.161865	-0.644775
1292.0	10.33073	0.427072	-0.059213	-0.182518	-0.050467	-0.092951	-0.658447	0.161865	-0.640137
1293.0	10.582577	0.390844	-0.502183	-0.069961	-0.026093	-0.0444	-0.658447	0.159668	-0.644531
1294.0	10.758448	0.027218	-0.860122	0.042452	-0.052641	0.013555	-0.660645	0.161865	-0.644775
1295.0	11.379766	-0.41126	-0.826797	0.139442	-0.06791	0.085664	-0.662842	0.157227	-0.632813
1296.0	12.198534	-0.894451	-0.093733	0.217695	-0.10997	0.147785	-0.660645	0.159668	-0.635254
1297.0	12.683864	-0.271024	0.469295	0.352409	-0.292779	0.199413	-0.667236	0.157227	-0.630615
1298.0	13.25312	0.763153	0.76228	0.493052	-0.447129	0.267208	-0.669678	0.161621	-0.630859
1299.0	13.48351	1.648642	0.935598	0.53277	-0.450688	0.340305	-0.669678	0.163818	-0.623779
1300.0	13.175682	2.005134	1.420054	0.411348	-0.334573	0.391345	-0.671875	0.161621	-0.619141
1301.0	12.551947	2.117795	2.105485	0.184248	-0.224953	0.408345	-0.669922	0.166016	-0.614746
1302.0	12.168282	2.595351	2.626433	-0.010999	-0.170234	0.387454	-0.674561	0.168213	-0.616943
1303.0	11.845322	2.857835	3.056557	-0.066233	-0.143355	0.380361	-0.672363	0.17041	-0.617188
1304.0	11.481996	2.569271	3.373997	-0.114658	-0.133662	0.363681	-0.679199	0.172607	-0.610352
1305.0	11.184798	1.353202	3.643475	-0.175085	-0.086968	0.325132	-0.677002	0.177002	-0.612793
1306.0	10.460885	0.183911	3.429129	-0.206014	-0.068678	0.286545	-0.672363	0.174805	-0.610352
1307.0	10.127752	-0.508922	2.984652	-0.192122	-0.012139	0.234108	-0.672607	0.177002	-0.61499
1308.0	10.292402	-1.324443	3.169337	-0.132047	0.204247	0.239311	-0.677246	0.181396	-0.615234
1309.0	10.435486	-1.307583	3.561607	-0.052902	0.35365	0.240632	-0.67749	0.190186	-0.613281
1310.0	10.210232	-0.334064	3.269069	0.024289	0.34452	0.194772	-0.672852	0.183594	-0.608398
1311.0	9.941111	0.335345	3.107178	0.091174	0.446302	0.177991	-0.664063	0.19043	-0.622559
1312.0	9.631023	0.708432	3.313718	0.176995	0.505316	0.173728	-0.663818	0.181641	-0.624512
1313.0	9.749412	0.802025	3.619295	0.192285	0.485638	0.180215	-0.670898	0.192627	-0.629639
1314.0	9.89316	1.287192	3.709264	0.185672	0.422099	0.173166	-0.66626	0.186035	-0.626953
1315.0	9.723839	1.894918	3.706052	0.166979	0.287881	0.158447	-0.670898	0.192627	-0.629639
1316.0	10.059402	2.042616	3.623816	0.128006	0.26635	0.165089	-0.661621	0.186035	-0.634033
1317.0	10.118202	1.994378	3.439359	0.037655	0.243875	0.155311	-0.664063	0.19043	-0.631836
1318.0	9.957925	1.918308	3.44367	-0.031264	0.14418	0.099676	-0.664063	0.188232	-0.631836
1319.0	10.057495	1.695752	3.303185	-0.086942	0.064453	0.006232	-0.657471	0.192627	-0.631836
1320.0	10.193575	1.25276	3.111204	-0.128483	0.052042	-0.097969	-0.66626	0.19043	-0.629395
1321.0	10.087367	0.864565	2.863371	-0.127334	0.065956	-0.173773	-0.661865	0.192627	-0.636475
1322.0	9.732127	0.690172	2.734124	-0.103669	0.121223	-0.241641	-0.659424	0.183838	-0.633789
1323.0	9.459029	0.576103	2.623934	-0.052728	0.186837	-0.290781	-0.661621	0.186035	-0.631592
1324.0	8.979484	0.661067	2.538993	-0.010498	0.20554	-0.331213	-0.664063	0.188232	-0.634033
1325.0	8.601393	0.902844	2.461845	0.027792	0.232177	-0.331204	-0.659424	0.186035	-0.634033
1326.0	8.369276	1.075231	2.418581	0.046209	0.268691	-0.315611	-0.66626	0.186035	-0.63623
1327.0	8.40495	1.073753	2.415298	0.055251	0.295217	-0.289335	-0.656982	0.183838	-0.633789
1328.0	8.389755	1.084402	2.400271	0.053263	0.307411	-0.255844	-0.65918	0.179443	-0.635986
1329.0	8.347286	1.241571	2.337386	0.058051	0.286642	-0.246463	-0.658936	0.172852	-0.64502
1330.0	8.305067	1.406964	2.239398	0.077823	0.275289	-0.226669	-0.661133	0.172852	-0.64502
1331.0	8.35011	1.36398	2.171865	0.119481	0.28669	-0.197034	-0.652344	0.175049	-0.642822
1332.0	8.413866	1.420878	2.098445	0.16322	0.310102	-0.159402	-0.661133	0.172852	-0.642822
