Acquisition frequency: 100 Hz
PacketCounter	Acc_X	Acc_Y	Acc_Z	Gyr_X	Gyr_Y	Gyr_Z	Mag_X	Mag_Y	Mag_Z
0.0	6.070775	1.493885	8.455079	-0.009464	0.010955	-0.014501	-0.519531	0.032227	-0.482422
1.0	6.053872	1.499344	8.425575	-0.007169	0.011643	-0.018511	-0.522217	0.038818	-0.489502
2.0	6.058068	1.525749	8.467377	-0.010333	0.013723	-0.016305	-0.52417	0.034424	-0.489502
3.0	6.069817	1.50764	8.478073	-0.009086	0.008866	-0.013983	-0.52002	0.038818	-0.487305
4.0	6.060506	1.540791	8.429775	-0.009748	0.014443	-0.014253	-0.519775	0.036621	-0.489502
5.0	6.059267	1.540871	8.430651	-0.009573	0.009547	-0.015269	-0.522217	0.041016	-0.482666
6.0	6.073808	1.535788	8.461781	-0.009369	0.012355	-0.013735	-0.522217	0.041016	-0.484863
7.0	6.103304	1.514286	8.443109	-0.011643	0.011267	-0.015452	-0.521973	0.036621	-0.484863
8.0	6.048235	1.512987	8.451939	-0.008503	0.009584	-0.011932	-0.52002	0.041016	-0.487305
9.0	6.085414	1.519584	8.414359	-0.008276	0.011996	-0.016124	-0.52417	0.034424	-0.484863
10.0	6.066296	1.52307	8.444691	-0.010345	0.013717	-0.016306	-0.519531	0.032227	-0.484863
11.0	6.080675	1.518082	8.475916	-0.007793	0.011313	-0.014839	-0.522217	0.043213	-0.491943
12.0	6.063782	1.523508	8.446418	-0.00828	0.011994	-0.016124	-0.521973	0.036621	-0.489502
13.0	6.059811	1.51064	8.426822	-0.009378	0.012349	-0.013737	-0.513428	0.038818	-0.487305
14.0	6.07426	1.505734	8.457982	-0.006699	0.010955	-0.017227	-0.52002	0.038818	-0.487305
15.0	6.072988	1.505976	8.458852	-0.009279	0.013752	-0.01297	-0.524414	0.041016	-0.494141
16.0	6.074358	1.519196	8.480245	-0.009358	0.011952	-0.019464	-0.52417	0.034424	-0.484863
17.0	6.062172	1.539483	8.411615	-0.009181	0.015154	-0.012202	-0.526611	0.041016	-0.489502
18.0	6.073775	1.521299	8.422454	-0.009385	0.012345	-0.013738	-0.522217	0.041016	-0.484863
19.0	6.085431	1.503255	8.433232	-0.008187	0.013393	-0.015358	-0.52417	0.038818	-0.491699
20.0	6.053352	1.524734	8.453675	-0.011072	0.011977	-0.013404	-0.52417	0.038818	-0.489502
21.0	6.052209	1.524692	8.454501	-0.009003	0.010257	-0.013221	-0.52417	0.038818	-0.484863
22.0	6.051158	1.524649	8.455261	-0.010689	0.009889	-0.012887	-0.519775	0.036621	-0.484863
23.0	6.063092	1.50634	8.465883	-0.01069	0.009889	-0.012888	-0.524414	0.041016	-0.487305
24.0	6.059336	1.493305	8.446181	-0.009492	0.010938	-0.014507	-0.52417	0.036621	-0.489502
25.0	6.081428	1.516099	8.458555	-0.010692	0.009887	-0.012888	-0.528809	0.041016	-0.494141
26.0	6.067316	1.534241	8.449523	-0.009395	0.01234	-0.013739	-0.52417	0.036621	-0.491699
27.0	6.094255	1.499964	8.410382	-0.007224	0.012026	-0.012787	-0.526855	0.04541	-0.489502
28.0	6.057308	1.506567	8.469982	-0.008298	0.011985	-0.016127	-0.521973	0.036621	-0.489502
29.0	6.06359	1.534723	8.45211	-0.009399	0.012338	-0.01374	-0.521973	0.036621	-0.484863
30.0	6.075401	1.516703	8.462777	-0.007913	0.009899	-0.015611	-0.52002	0.038818	-0.487305
31.0	6.079068	1.531941	8.424384	-0.010961	0.012978	-0.018366	-0.52417	0.038818	-0.487305
32.0	6.072881	1.517112	8.464512	-0.007231	0.012022	-0.012788	-0.528564	0.038818	-0.487305
33.0	6.056041	1.522272	8.435039	-0.010504	0.012687	-0.011354	-0.522217	0.038818	-0.487305
34.0	6.067991	1.504094	8.44564	-0.009799	0.006721	-0.016817	-0.517578	0.034424	-0.487061
35.0	6.053954	1.522464	8.436502	-0.007722	0.012703	-0.014073	-0.522217	0.038818	-0.484863
36.0	6.037065	1.527843	8.407027	-0.007723	0.012702	-0.014074	-0.526611	0.041016	-0.484863
37.0	6.066961	1.517623	8.468664	-0.009896	0.013013	-0.015027	-0.52417	0.036621	-0.491699
38.0	6.080977	1.501734	8.419671	-0.006138	0.011667	-0.015175	-0.52417	0.036621	-0.484863
39.0	6.061916	1.505146	8.449814	-0.010095	0.010205	-0.016566	-0.524414	0.041016	-0.491699
40.0	6.060643	1.505502	8.450664	-0.004846	0.014121	-0.016024	-0.52002	0.038818	-0.489502
41.0	6.06681	1.533954	8.432851	-0.008315	0.011977	-0.01613	-0.521973	0.036621	-0.482666
42.0	6.078658	1.515986	8.4435	-0.009611	0.009521	-0.015282	-0.519775	0.036621	-0.496338
43.0	6.056989	1.506389	8.453125	-0.006632	0.012346	-0.016462	-0.522217	0.043213	-0.487305
44.0	6.076205	1.516586	8.445158	-0.007734	0.012696	-0.014075	-0.517578	0.036621	-0.482666
45.0	6.074973	1.516807	8.446004	-0.007832	0.011292	-0.014845	-0.52417	0.036621	-0.487061
46.0	6.060772	1.535144	8.436975	-0.010006	0.011602	-0.0158	-0.517578	0.036621	-0.484863
47.0	6.106012	1.508836	8.448761	-0.007154	0.013416	-0.01202	-0.52002	0.038818	-0.491699
48.0	6.050767	1.507549	8.457373	-0.007319	0.010218	-0.019288	-0.524414	0.041016	-0.491699
49.0	6.070215	1.517903	8.449228	-0.005272	0.008896	-0.013375	-0.522217	0.038818	-0.482666
50.0	6.074554	1.471811	8.478586	-0.011504	0.014033	-0.013931	-0.522217	0.041016	-0.487305
51.0	6.067732	1.51816	8.450965	-0.006154	0.01166	-0.015177	-0.52417	0.038818	-0.484863
52.0	6.066588	1.518499	8.451725	-0.007936	0.009885	-0.015617	-0.52002	0.041016	-0.489502
53.0	6.098918	1.510618	8.453565	-0.006645	0.01234	-0.016463	-0.522217	0.038818	-0.489502
54.0	6.064169	1.519193	8.453336	-0.007843	0.011286	-0.014847	-0.515625	0.038818	-0.487305
55.0	6.049973	1.537579	8.444279	-0.007844	0.011285	-0.014847	-0.522217	0.038818	-0.491699
56.0	6.061861	1.519542	8.454929	-0.011799	0.009818	-0.016244	-0.519775	0.036621	-0.491699
57.0	6.060657	1.519835	8.455739	-0.004965	0.01271	-0.016794	-0.522217	0.038818	-0.489502
58.0	6.079787	1.530121	8.447866	-0.010416	0.013675	-0.01632	-0.521973	0.034424	-0.484863
59.0	6.055502	1.507457	8.436991	-0.005675	0.010975	-0.013892	-0.528564	0.038818	-0.487305
60.0	6.072303	1.515542	8.488763	-0.008244	0.013365	-0.015364	-0.522217	0.038818	-0.482666
61.0	6.057946	1.523233	8.399505	-0.006749	0.010933	-0.017235	-0.522217	0.038818	-0.489502
62.0	6.07487	1.531433	8.451165	-0.008529	0.009156	-0.017676	-0.52002	0.038818	-0.489502
63.0	6.086806	1.513508	8.461773	-0.009539	0.010906	-0.01452	-0.521973	0.034424	-0.482666
64.0	6.085627	1.513747	8.462579	-0.00617	0.011653	-0.015179	-0.52002	0.038818	-0.487305
65.0	6.069054	1.519147	8.432891	-0.008657	0.008141	-0.012719	-0.526367	0.038818	-0.487305
66.0	6.067878	1.519386	8.433695	-0.007057	0.014415	-0.01698	-0.52417	0.038818	-0.484863
67.0	6.082143	1.514482	8.464952	-0.009637	0.009501	-0.015292	-0.52002	0.038818	-0.487305
68.0	6.045027	1.509865	8.444069	-0.00786	0.011276	-0.01485	-0.521973	0.034424	-0.480225
69.0	6.077362	1.50188	8.446	-0.010036	0.011582	-0.015808	-0.522217	0.038818	-0.489502
70.0	6.078597	1.515025	8.467402	-0.008352	0.011956	-0.016137	-0.519775	0.034424	-0.484863
71.0	6.061975	1.520355	8.437764	-0.011909	0.008401	-0.017023	-0.522217	0.038818	-0.484863
72.0	6.060851	1.520611	8.438525	-0.003913	0.012745	-0.01345	-0.523926	0.030029	-0.482422
73.0	6.093307	1.512737	8.440371	-0.008664	0.008136	-0.012722	-0.52417	0.038818	-0.482666
74.0	6.058487	1.52107	8.44014	-0.006885	0.017215	-0.015438	-0.522217	0.038818	-0.491699
75.0	6.077614	1.531302	8.432339	-0.009646	0.009495	-0.015295	-0.526367	0.038818	-0.489502
76.0	6.053612	1.508634	8.421238	-0.006276	0.010245	-0.015951	-0.522217	0.038818	-0.484863
77.0	6.077931	1.544863	8.454313	-0.007473	0.009188	-0.014337	-0.528564	0.038818	-0.489502
78.0	6.097308	1.555192	8.446324	-0.006187	0.011646	-0.01518	-0.521973	0.034424	-0.491699
79.0	6.045297	1.494214	8.462628	-0.010662	0.01124	-0.01214	-0.524414	0.043213	-0.485107
80.0	6.072037	1.532479	8.436141	-0.006189	0.011645	-0.01518	-0.524414	0.041016	-0.487305
81.0	6.086398	1.527436	8.467346	-0.010756	0.009836	-0.012912	-0.52002	0.041016	-0.484863
82.0	6.077942	1.499289	8.486665	-0.009653	0.00949	-0.015298	-0.522217	0.038818	-0.484863
83.0	6.074306	1.486726	8.466909	-0.005488	0.01338	-0.01808	-0.522217	0.038818	-0.494141
84.0	6.064905	1.520587	8.418783	-0.006684	0.012322	-0.016467	-0.522217	0.038818	-0.489502
85.0	6.058645	1.505788	8.458742	-0.006195	0.011642	-0.015181	-0.528809	0.041016	-0.482666
86.0	6.077783	1.516241	8.450928	-0.007087	0.014403	-0.016982	-0.524414	0.041016	-0.489502
87.0	6.060973	1.521836	8.421389	-0.006198	0.011641	-0.015181	-0.522217	0.041016	-0.487305
88.0	6.072979	1.503884	8.431988	-0.010854	0.008427	-0.013688	-0.524414	0.041016	-0.491699
89.0	6.053617	1.506971	8.462131	-0.008074	0.01576	-0.019556	-0.517822	0.038818	-0.489502
90.0	6.072695	1.517537	8.454352	-0.004025	0.011337	-0.014221	-0.526367	0.034424	-0.484863
91.0	6.05102	1.507794	8.463841	-0.010064	0.011563	-0.015816	-0.526367	0.038818	-0.491699
92.0	6.070134	1.518205	8.456071	-0.005411	0.014776	-0.017309	-0.526367	0.034424	-0.489258
93.0	6.08919	1.528723	8.448331	-0.008872	0.012618	-0.01743	-0.528809	0.041016	-0.487305
94.0	6.047015	1.508955	8.466496	-0.006295	0.010235	-0.015955	-0.526367	0.034424	-0.484863
95.0	6.040052	1.555576	8.438943	-0.008787	0.014018	-0.016658	-0.522217	0.043213	-0.489502
96.0	6.085405	1.529627	8.450895	-0.009579	0.010878	-0.014532	-0.519775	0.036621	-0.493896
97.0	6.061308	1.506717	8.439877	-0.010475	0.013638	-0.016333	-0.522217	0.038818	-0.484863
98.0	6.062329	1.519821	8.461379	-0.008388	0.011935	-0.016145	-0.519775	0.036621	-0.489502
99.0	6.061169	1.519972	8.462182	-0.009092	0.010197	-0.013246	-0.522217	0.041016	-0.484863
100.0	6.0782	1.517325	8.4337	-0.008478	0.010532	-0.016918	-0.526367	0.036621	-0.491699
101.0	6.063927	1.53563	8.424649	-0.010077	0.011554	-0.01582	-0.524414	0.043213	-0.489502
102.0	6.075754	1.517772	8.435382	-0.006129	0.013033	-0.01441	-0.522217	0.043213	-0.491943
103.0	6.053967	1.507905	8.444933	-0.007236	0.013376	-0.012026	-0.52417	0.036621	-0.487061
104.0	6.073248	1.518066	8.437134	-0.011853	0.00977	-0.01627	-0.52417	0.036621	-0.482666
105.0	6.051692	1.508045	8.446538	-0.007413	0.010572	-0.013572	-0.522217	0.041016	-0.487305
106.0	6.104488	1.510343	8.439994	-0.010488	0.01363	-0.016336	-0.52417	0.038818	-0.487305
107.0	6.071954	1.531304	8.460261	-0.009593	0.01087	-0.014535	-0.52417	0.038818	-0.489502
108.0	6.068456	1.518454	8.440511	-0.009507	0.01227	-0.013762	-0.522217	0.041016	-0.487305
109.0	6.069544	1.531487	8.461957	-0.00791	0.011249	-0.01486	-0.52417	0.036621	-0.489502
110.0	6.063724	1.505903	8.4216	-0.007825	0.012649	-0.014087	-0.521973	0.034424	-0.487061
111.0	6.072095	1.54707	8.424632	-0.011689	0.012566	-0.014727	-0.520264	0.04541	-0.480469
112.0	6.089742	1.482678	8.463711	-0.009598	0.010866	-0.014537	-0.519775	0.036621	-0.480225
113.0	6.028711	1.527107	8.443563	-0.005036	0.012687	-0.016795	-0.522217	0.041016	-0.484863
114.0	6.060898	1.519444	8.445762	-0.009344	0.015067	-0.012217	-0.517822	0.041016	-0.487305
115.0	6.05742	1.506565	8.426017	-0.009194	0.008784	-0.014025	-0.526611	0.043213	-0.494141
116.0	6.081326	1.542553	8.459412	-0.009518	0.012264	-0.013765	-0.52417	0.036621	-0.487061
117.0	6.036864	1.509341	8.45691	-0.008941	0.012985	-0.011704	-0.52417	0.038818	-0.487305
118.0	6.089617	1.511596	8.450506	-0.010012	0.012942	-0.015052	-0.517822	0.038818	-0.489502
119.0	6.056969	1.53234	8.470809	-0.011122	0.013281	-0.012669	-0.526611	0.041016	-0.489502
120.0	6.06657	1.501492	8.460942	-0.006236	0.011625	-0.015185	-0.52002	0.041016	-0.484863
121.0	6.101171	1.506805	8.48366	-0.008415	0.011921	-0.01615	-0.52417	0.038818	-0.484863
122.0	6.064308	1.501931	8.462486	-0.01097	0.006997	-0.01448	-0.52417	0.034424	-0.489502
123.0	6.081413	1.499484	8.434045	-0.004963	0.014085	-0.01602	-0.522217	0.041016	-0.484863
124.0	6.061953	1.502774	8.464023	-0.004723	0.009204	-0.017056	-0.52002	0.038818	-0.489502
125.0	6.073302	1.547022	8.407197	-0.004641	0.010604	-0.016282	-0.52417	0.036621	-0.484863
126.0	6.093386	1.496049	8.466657	-0.006411	0.00882	-0.016735	-0.522217	0.041016	-0.487305
127.0	6.08653	1.542829	8.439036	-0.006329	0.01022	-0.015961	-0.522217	0.038818	-0.489502
128.0	6.05547	1.492067	8.446068	-0.005304	0.008479	-0.019119	-0.519531	0.032471	-0.489258
129.0	6.081939	1.531141	8.41991	-0.008139	0.015732	-0.019562	-0.52417	0.038818	-0.487305
130.0	6.041828	1.524228	8.458554	-0.002962	0.010984	-0.016605	-0.52417	0.034424	-0.487061
131.0	6.071984	1.50422	8.439993	-0.005636	0.011956	-0.018858	-0.52002	0.041016	-0.491699
132.0	6.070673	1.50497	8.440803	-0.003952	0.012339	-0.01918	-0.52417	0.034424	-0.489502
133.0	6.069324	1.505882	8.44161	-0.002268	0.012722	-0.019502	-0.522217	0.038818	-0.487305
134.0	6.047498	1.496766	8.450947	-0.001161	0.012382	-0.021885	-0.522217	0.038818	-0.487305
135.0	6.079564	1.490235	8.453144	0.000193	0.016244	-0.021945	-0.526367	0.038818	-0.487305
136.0	6.077986	1.491664	8.454027	-0.000549	0.012719	-0.025557	-0.52417	0.036621	-0.484863
137.0	6.063351	1.511554	8.444888	0.006107	0.012856	-0.027616	-0.522217	0.043213	-0.482666
138.0	6.084504	1.536465	8.457706	0.000516	0.012762	-0.022208	-0.522217	0.038818	-0.489502
139.0	6.067606	1.543352	8.428018	0.00351	0.015224	-0.029097	-0.519775	0.036621	-0.487061
140.0	6.081309	1.539945	8.459371	1.7e-05	0.013436	-0.023497	-0.515625	0.038818	-0.487305
141.0	6.079666	1.541353	8.460296	-0.000318	0.016913	-0.023236	-0.528564	0.038818	-0.489502
142.0	6.062661	1.547622	8.430792	-0.00488	0.015078	-0.020988	-0.52002	0.038818	-0.487305
143.0	6.07045	1.58947	8.434051	-0.008171	0.015706	-0.019573	-0.52417	0.038818	-0.484863
144.0	6.061606	1.561575	8.453516	-0.009362	0.014643	-0.017966	-0.522217	0.041016	-0.484863
145.0	6.084306	1.512781	8.45373	-0.012654	0.01527	-0.016551	-0.52417	0.036621	-0.491699
146.0	6.040347	1.564258	8.484748	-0.009565	0.012225	-0.013782	-0.526367	0.036621	-0.487061
147.0	6.050075	1.533272	8.474968	-0.011093	0.014639	-0.011912	-0.52417	0.034424	-0.487061
148.0	6.074318	1.558721	8.428452	-0.012858	0.012851	-0.012368	-0.517578	0.034424	-0.487061
149.0	6.045303	1.519802	8.456339	-0.013354	0.013527	-0.013657	-0.52002	0.038818	-0.484863
150.0	6.062259	1.516833	8.428263	-0.014962	0.01454	-0.012563	-0.523926	0.032227	-0.484863
151.0	6.070234	1.557635	8.431594	-0.010603	0.013959	-0.010625	-0.52417	0.034424	-0.484863
152.0	6.061739	1.52882	8.450946	-0.018492	0.010964	-0.013477	-0.521973	0.036621	-0.489502
153.0	6.067852	1.556384	8.433539	-0.015166	0.01212	-0.00838	-0.521973	0.034424	-0.489502
154.0	6.059551	1.527326	8.452785	-0.015324	0.009319	-0.009932	-0.519775	0.034424	-0.484863
155.0	6.080842	1.549751	8.465981	-0.016003	0.016271	-0.009405	-0.52417	0.038818	-0.487305
156.0	6.05491	1.512821	8.434265	-0.019035	0.012019	-0.009033	-0.526367	0.036621	-0.487061
157.0	6.035318	1.514341	8.464447	-0.017274	0.013805	-0.008575	-0.52002	0.038818	-0.489502
158.0	6.075013	1.533968	8.448556	-0.018543	0.01134	-0.007746	-0.52417	0.036621	-0.487061
159.0	6.077711	1.47379	8.457112	-0.01785	0.013081	-0.01064	-0.52417	0.036621	-0.484863
160.0	6.059532	1.550049	8.440685	-0.018624	0.009939	-0.008523	-0.517822	0.038818	-0.489502
161.0	6.035968	1.526091	8.429373	-0.014065	0.01178	-0.010764	-0.526367	0.038818	-0.487305
162.0	6.041999	1.553593	8.412091	-0.018395	0.014135	-0.006194	-0.52417	0.036621	-0.489502
163.0	6.08046	1.498338	8.442706	-0.020313	0.009548	-0.008208	-0.52417	0.038818	-0.489502
164.0	6.068335	1.528083	8.454421	-0.016371	0.011046	-0.006777	-0.519775	0.036621	-0.493896
165.0	6.096953	1.49373	8.415345	-0.017639	0.00858	-0.005949	-0.524414	0.041016	-0.487305
166.0	6.086962	1.536311	8.447679	-0.015878	0.010368	-0.005489	-0.517334	0.032471	-0.491699
167.0	6.056248	1.483562	8.454626	-0.021928	0.010554	-0.007116	-0.526611	0.041016	-0.491699
168.0	6.084856	1.533861	8.449641	-0.016223	0.013841	-0.005222	-0.521973	0.036621	-0.491699
169.0	6.042845	1.512195	8.467452	-0.014196	0.010755	-0.005806	-0.528564	0.038818	-0.484863
170.0	6.073417	1.490637	8.449136	-0.019674	0.011662	-0.005368	-0.52417	0.038818	-0.482666
171.0	6.038512	1.49716	8.448804	-0.017715	0.015871	-0.009087	-0.52002	0.038818	-0.487305
172.0	6.070856	1.488436	8.451364	-0.017991	0.01205	-0.005685	-0.526367	0.036621	-0.484863
173.0	6.058505	1.518255	8.463236	-0.015116	0.013506	-0.007605	-0.524414	0.041016	-0.487305
174.0	6.055301	1.504713	8.443522	-0.015765	0.011386	-0.01045	-0.52417	0.036621	-0.487061
175.0	6.076642	1.52705	8.456783	-0.016881	0.011716	-0.008068	-0.524414	0.041016	-0.487305
176.0	6.047828	1.487468	8.484342	-0.013014	0.011818	-0.007411	-0.52417	0.036621	-0.489502
177.0	6.083691	1.481887	8.427029	-0.016463	0.009639	-0.00756	-0.528809	0.043213	-0.489502
178.0	6.075499	1.537337	8.4802	-0.017456	0.010994	-0.010136	-0.52002	0.038818	-0.484863
179.0	6.08565	1.505536	8.470257	-0.018077	0.010644	-0.006467	-0.524414	0.041016	-0.487305
180.0	6.075331	1.463128	8.468736	-0.020186	0.012329	-0.006661	-0.528564	0.036621	-0.484863
181.0	6.068285	1.508387	8.441698	-0.018576	0.011321	-0.007755	-0.521973	0.036621	-0.482666
182.0	6.059944	1.478818	8.460878	-0.018007	0.01204	-0.005688	-0.521973	0.036621	-0.493896
183.0	6.079238	1.487899	8.453578	-0.01905	0.013765	-0.002528	-0.52002	0.038818	-0.489502
184.0	6.079952	1.499384	8.475439	-0.019498	0.014073	-0.009553	-0.522217	0.038818	-0.489502
185.0	6.07688	1.485474	8.4557	-0.019847	0.008851	-0.006935	-0.526611	0.041016	-0.482666
186.0	6.078007	1.496837	8.477284	-0.020965	0.009178	-0.004554	-0.526611	0.043213	-0.489502
187.0	6.075037	1.482961	8.457466	-0.01521	0.0121	-0.008384	-0.522217	0.041016	-0.482666
188.0	6.058786	1.487394	8.42784	-0.016403	0.011029	-0.006783	-0.52417	0.036621	-0.489502
189.0	6.091434	1.478636	8.430246	-0.019779	0.010245	-0.006157	-0.524414	0.041016	-0.484863
190.0	6.058838	1.497673	8.450386	-0.019284	0.009565	-0.00487	-0.52002	0.041016	-0.482666
191.0	6.0711	1.478154	8.461133	-0.020329	0.011288	-0.001708	-0.526611	0.041016	-0.489502
192.0	6.056977	1.49458	8.452268	-0.023158	0.009459	-0.005532	-0.52002	0.041016	-0.484863
193.0	6.050627	1.477252	8.492172	-0.021822	0.013322	-0.005572	-0.522217	0.041016	-0.494141
194.0	6.040387	1.434554	8.490533	-0.020978	0.00917	-0.004558	-0.526611	0.041016	-0.491699
195.0	6.085441	1.469969	8.436088	-0.017754	0.015855	-0.009085	-0.522217	0.043213	-0.489502
196.0	6.052533	1.489043	8.456428	-0.020908	0.010564	-0.003779	-0.524414	0.043213	-0.487305
197.0	6.064664	1.46953	8.467249	-0.019645	0.013031	-0.004598	-0.524414	0.041016	-0.484863
198.0	6.063569	1.468109	8.468279	-0.018654	0.011672	-0.002023	-0.524414	0.043213	-0.485107
199.0	6.022981	1.520675	8.439882	-0.022528	0.011564	-0.002687	-0.522461	0.047607	-0.487305
200.0	6.08399	1.487831	8.482767	-0.024291	0.009774	-0.003158	-0.52417	0.038818	-0.484863
201.0	6.045524	1.46824	8.440712	-0.021963	0.012279	-0.000619	-0.522217	0.043213	-0.487305
202.0	6.066861	1.489546	8.454283	-0.021965	0.012278	-0.000619	-0.52002	0.043213	-0.487305
203.0	6.058578	1.459168	8.473395	-0.024224	0.011167	-0.002378	-0.522461	0.04541	-0.485107
204.0	6.072125	1.514262	8.438343	-0.023657	0.011882	-0.000309	-0.517822	0.043213	-0.491943
205.0	6.054651	1.442576	8.454719	-0.023659	0.011881	-0.000309	-0.526855	0.047607	-0.487305
206.0	6.068888	1.435201	8.486245	-0.02331	0.008409	-0.000587	-0.524414	0.043213	-0.491943
207.0	6.060397	1.467236	8.438447	-0.023383	0.007013	-0.00137	-0.515625	0.041016	-0.489502
208.0	6.061608	1.478131	8.460053	-0.019934	0.009195	-0.001209	-0.52002	0.041016	-0.489502
209.0	6.074044	1.458582	8.470619	-0.018887	0.007478	-0.004372	-0.520264	0.047607	-0.489746
210.0	6.078684	1.472792	8.432623	-0.025502	0.008691	-0.001566	-0.521973	0.036621	-0.489502
211.0	6.083774	1.424348	8.461294	-0.020435	0.009873	-0.002496	-0.522217	0.041016	-0.484863
212.0	6.051108	1.443107	8.48148	-0.019243	0.010947	-0.004093	-0.52002	0.043213	-0.491943
213.0	6.089257	1.44985	8.445113	-0.021632	0.008795	-0.0009	-0.524658	0.04541	-0.485107
214.0	6.073951	1.390994	8.481906	-0.022201	0.008081	-0.002971	-0.52002	0.041016	-0.494141
215.0	6.078571	1.405261	8.443939	-0.022699	0.008761	-0.004259	-0.52002	0.041016	-0.489502
216.0	6.070353	1.459747	8.497404	-0.016709	0.007188	-0.003397	-0.52002	0.043213	-0.487305
217.0	6.086234	1.44394	8.448304	-0.016509	0.009626	-0.007567	-0.522217	0.041016	-0.489502
218.0	6.02389	1.41118	8.473826	-0.023129	0.010834	-0.004763	-0.520264	0.04541	-0.487305
219.0	6.092188	1.407231	8.498597	-0.015519	0.008262	-0.004994	-0.524414	0.041016	-0.487305
220.0	6.083649	1.440336	8.450781	-0.016088	0.007549	-0.007065	-0.522461	0.04541	-0.487305
221.0	6.082875	1.439304	8.451514	-0.017708	0.008547	-0.005972	-0.524414	0.043213	-0.489502
222.0	6.083928	1.45084	8.473122	-0.016019	0.008942	-0.006281	-0.522461	0.04541	-0.487305
223.0	6.079304	1.424775	8.432227	-0.014329	0.009337	-0.00659	-0.52002	0.043213	-0.485107
224.0	6.087543	1.465022	8.435962	-0.018705	0.009908	-0.008547	-0.522217	0.041016	-0.489502
225.0	6.079323	1.435305	8.454749	-0.017642	0.009937	-0.005189	-0.524658	0.047607	-0.489746
226.0	6.119192	1.454979	8.439389	-0.021878	0.013296	-0.005576	-0.518066	0.047607	-0.487305
227.0	6.071898	1.416501	8.495412	-0.01891	0.007465	-0.00438	-0.524414	0.043213	-0.487305
228.0	6.074555	1.418715	8.43667	-0.018073	0.012011	-0.005691	-0.522217	0.043213	-0.491943
229.0	6.064405	1.376479	8.434614	-0.016524	0.009619	-0.00757	-0.531006	0.043213	-0.482666
230.0	6.067109	1.400781	8.477179	-0.015827	0.011379	-0.010451	-0.526855	0.04541	-0.487305
231.0	6.06614	1.400216	8.477966	-0.014347	0.007595	-0.013116	-0.524658	0.047607	-0.487305
232.0	6.092953	1.438788	8.4527	-0.015333	0.010695	-0.009164	-0.522217	0.043213	-0.487305
233.0	6.071578	1.427625	8.461612	-0.013286	0.007623	-0.009757	-0.522461	0.047607	-0.487305
234.0	6.059353	1.457173	8.473571	-0.023157	0.010813	-0.004771	-0.524414	0.043213	-0.487305
235.0	6.075038	1.441028	8.424761	-0.021895	0.013284	-0.005579	-0.526611	0.041016	-0.487305
236.0	6.114724	1.460338	8.409691	-0.024078	0.015303	-3.4e-05	-0.526855	0.047607	-0.489746
237.0	5.99783	1.423718	8.441972	-0.024508	0.017376	-0.000534	-0.524658	0.04541	-0.487305
238.0	6.076946	1.388359	8.45619	-0.025774	0.014902	0.000271	-0.520264	0.04541	-0.487305
239.0	6.050937	1.434922	8.459068	-0.02713	0.019734	-0.002014	-0.522461	0.04541	-0.491943
240.0	6.05551	1.386048	8.487888	-0.023232	0.011147	0.000962	-0.52002	0.043213	-0.489502
241.0	6.11788	1.344148	8.45052	-0.020504	0.018537	-0.004812	-0.524658	0.04541	-0.491943
242.0	6.005902	1.408422	8.479103	-0.024028	0.014957	-0.005776	-0.522461	0.04541	-0.482666
243.0	6.13915	1.376617	8.486746	-0.020149	0.015068	-0.005101	-0.524658	0.047607	-0.491943
244.0	6.003257	1.405494	8.481463	-0.020219	0.013675	-0.005889	-0.524414	0.043213	-0.487305
245.0	6.074866	1.404977	8.44711	-0.022544	0.012903	-0.00192	-0.524658	0.049805	-0.485107
246.0	6.107342	1.395726	8.449852	-0.02135	0.013984	-0.003511	-0.524658	0.04541	-0.485107
247.0	6.02571	1.427324	8.43803	-0.023113	0.012193	-0.003995	-0.524658	0.049805	-0.487305
248.0	6.060083	1.430176	8.461673	-0.0265	0.01312	0.003141	-0.524414	0.043213	-0.485107
249.0	6.066692	1.393572	8.511152	-0.023184	0.012524	0.001743	-0.522705	0.049805	-0.489746
250.0	6.117986	1.382029	8.484891	-0.023186	0.012523	0.001743	-0.517822	0.043213	-0.485107
251.0	6.038659	1.3418	8.458639	-0.02023	0.013672	-0.00589	-0.522461	0.04541	-0.491943
252.0	6.055828	1.422476	8.466017	-0.023325	0.009738	0.000164	-0.524658	0.04541	-0.485107
253.0	6.10173	1.394787	8.478314	-0.023756	0.011812	-0.000333	-0.525146	0.056396	-0.487549
254.0	6.076531	1.357407	8.445647	-0.022991	0.014969	-0.00242	-0.524658	0.04541	-0.491943
255.0	6.099402	1.391072	8.4806	-0.022067	0.012209	-0.000638	-0.522705	0.049805	-0.485107
256.0	6.087064	1.419565	8.492887	-0.026653	0.010326	0.001556	-0.524658	0.049805	-0.487305
257.0	6.08431	1.404665	8.473067	-0.028713	0.01339	0.002152	-0.522461	0.04541	-0.489502
258.0	6.083244	1.402226	8.474236	-0.024334	0.012818	0.004118	-0.522461	0.04541	-0.489502
259.0	6.059889	1.376697	8.462511	-0.027591	0.014798	0.006302	-0.524658	0.047607	-0.487305
260.0	6.071971	1.355825	8.473378	-0.027165	0.012721	0.006797	-0.524658	0.047607	-0.487305
261.0	6.084154	1.335133	8.484132	-0.023845	0.012129	0.005402	-0.522705	0.052002	-0.487549
262.0	6.064537	1.33466	8.514076	-0.024476	0.010034	0.002535	-0.518311	0.049805	-0.487305
263.0	6.065883	1.324012	8.434424	-0.024611	0.007254	0.000953	-0.520264	0.047607	-0.487305
264.0	6.079992	1.316326	8.465902	-0.019892	0.011917	0.000344	-0.524658	0.047607	-0.487305
265.0	6.088256	1.355724	8.470114	-0.021225	0.008052	0.000349	-0.526855	0.049805	-0.489746
266.0	6.080012	1.325171	8.488661	-0.019829	0.013305	0.001135	-0.522705	0.049805	-0.485107
267.0	6.088384	1.364485	8.492827	-0.022559	0.004186	0.000351	-0.524658	0.04541	-0.489502
268.0	6.078708	1.321546	8.49016	-0.02003	0.009136	-0.001239	-0.524658	0.04541	-0.485107
269.0	6.111651	1.312346	8.492579	-0.019601	0.00706	-0.000745	-0.522705	0.049805	-0.491943
270.0	6.071608	1.365269	8.464379	-0.019603	0.007059	-0.000746	-0.522461	0.047607	-0.487305
271.0	6.063588	1.334823	8.48271	-0.022292	0.008031	-0.003016	-0.526855	0.047607	-0.489746
272.0	6.081737	1.331326	8.45448	-0.018051	0.006387	0.003901	-0.522705	0.049805	-0.489746
273.0	6.096039	1.323831	8.485767	-0.020103	0.007744	-0.002032	-0.522705	0.049805	-0.487305
274.0	6.1069	1.291873	8.475009	-0.015851	0.004394	-0.001647	-0.524658	0.049805	-0.485107
275.0	6.059463	1.31657	8.464354	-0.013817	0.010032	-0.004518	-0.526855	0.049805	-0.487305
276.0	6.092251	1.308119	8.466775	-0.013884	0.008643	-0.00531	-0.522461	0.047607	-0.491943
277.0	6.080169	1.337767	8.478773	-0.015712	0.005466	-0.006596	-0.522705	0.049805	-0.487305
278.0	6.098278	1.335067	8.45047	-0.015582	0.008241	-0.00501	-0.522705	0.049805	-0.489746
279.0	6.077088	1.323399	8.459067	-0.01459	0.006867	-0.002441	-0.526855	0.049805	-0.487305
280.0	6.070938	1.305695	8.498168	-0.018049	0.004676	-0.002635	-0.522461	0.04541	-0.485107
281.0	6.077557	1.333028	8.481393	-0.020975	0.011888	-0.003018	-0.522705	0.052002	-0.485107
282.0	6.089865	1.31361	8.491786	-0.013458	0.006566	-0.004819	-0.524902	0.052002	-0.487549
283.0	6.061347	1.336628	8.452106	-0.015859	0.004388	-0.001651	-0.520508	0.052002	-0.485107
284.0	6.087074	1.299024	8.471897	-0.017284	0.007838	-0.004712	-0.520508	0.049805	-0.489746
285.0	6.101211	1.292112	8.503182	-0.013395	0.007953	-0.004025	-0.520508	0.054199	-0.487549
286.0	6.106157	1.307814	8.465288	-0.014519	0.006552	-0.008182	-0.524658	0.04541	-0.489502
287.0	6.111122	1.323566	8.427381	-0.013959	0.007252	-0.006104	-0.522705	0.052002	-0.485107
288.0	6.112159	1.335115	8.449004	-0.014521	0.006551	-0.008183	-0.524658	0.04541	-0.482666
289.0	6.104048	1.305685	8.467136	-0.011063	0.008742	-0.007986	-0.527344	0.058594	-0.489746
290.0	6.090058	1.323437	8.458224	-0.011064	0.008742	-0.007987	-0.524902	0.054199	-0.487549
291.0	6.102394	1.304745	8.468473	-0.013323	0.00764	-0.009767	-0.524902	0.054199	-0.487549
292.0	6.095719	1.351222	8.442127	-0.013195	0.010414	-0.008179	-0.520508	0.052002	-0.489746
293.0	6.055518	1.341603	8.479676	-0.012764	0.008338	-0.007689	-0.520752	0.056396	-0.489746
294.0	6.073406	1.339158	8.451548	-0.016527	0.010995	-0.006789	-0.522705	0.049805	-0.489746
295.0	6.083915	1.307785	8.440926	-0.011644	0.009736	-0.003531	-0.522705	0.049805	-0.489746
296.0	6.083192	1.306755	8.441606	-0.019058	0.006038	-0.005214	-0.524902	0.054199	-0.48291
297.0	6.082488	1.305644	8.442285	-0.013343	0.009332	-0.003233	-0.520508	0.054199	-0.487549
298.0	6.083342	1.31712	8.464041	-0.012207	0.009036	-0.00561	-0.5271	0.054199	-0.489746
299.0	6.063906	1.318033	8.493498	-0.010844	0.004198	-0.003346	-0.522705	0.054199	-0.489746
300.0	6.088078	1.268907	8.492003	-0.006313	0.004708	-0.006318	-0.522461	0.047607	-0.487305
301.0	6.10234	1.326342	8.457479	-0.009708	0.003902	-0.005723	-0.525146	0.056396	-0.48291
302.0	6.088768	1.344036	8.448288	-0.009148	0.0046	-0.003644	-0.524658	0.049805	-0.489746
303.0	6.060299	1.367457	8.40857	-0.012977	0.005868	-0.003539	-0.522705	0.049805	-0.485107
304.0	6.099461	1.248393	8.503188	-0.008155	0.003224	-0.001075	-0.522705	0.049805	-0.485107
305.0	6.107767	1.352627	8.441843	-0.009953	0.010136	-0.003828	-0.524902	0.052002	-0.487549
306.0	6.111169	1.292545	8.448438	-0.010223	0.006281	-0.000472	-0.522705	0.052002	-0.485107
307.0	6.112143	1.303913	8.470122	-0.010034	0.01044	0.001913	-0.522705	0.052002	-0.489746
308.0	6.096536	1.308952	8.440218	-0.010658	0.008355	-0.000962	-0.5271	0.052002	-0.487549
309.0	6.075223	1.297429	8.44878	-0.011093	0.01043	-0.001451	-0.5271	0.054199	-0.487549
310.0	6.102315	1.336137	8.424211	-0.010162	0.007666	0.000322	-0.522705	0.049805	-0.487305
311.0	6.083068	1.336724	8.453553	-0.013251	0.002012	-0.000187	-0.522705	0.052002	-0.494385
312.0	6.09599	1.317402	8.463453	-0.010433	0.00381	0.003677	-0.526855	0.049805	-0.487305
313.0	6.108766	1.29834	8.473415	-0.005836	0.00571	0.001503	-0.524902	0.052002	-0.485107
314.0	6.105046	1.273168	8.431698	-0.010352	0.003508	-0.002065	-0.524658	0.047607	-0.489746
315.0	6.139838	1.27709	8.454975	-0.010661	0.008354	-0.000962	-0.522705	0.054199	-0.487549
316.0	6.120381	1.277877	8.484421	-0.008032	0.005994	0.000515	-0.518311	0.052002	-0.485107
317.0	6.091861	1.301392	8.444761	-0.009026	0.007372	-0.002054	-0.516357	0.054199	-0.48291
318.0	6.10421	1.282367	8.455017	-0.013292	0.010713	-0.002439	-0.524902	0.054199	-0.491943
319.0	6.104961	1.293736	8.47686	-0.011657	0.00973	-0.003531	-0.522949	0.056396	-0.485352
320.0	6.110136	1.309546	8.438942	-0.011556	0.002413	-0.000487	-0.522705	0.052002	-0.487549
321.0	6.094845	1.250825	8.474232	-0.011099	0.010427	-0.00145	-0.524902	0.054199	-0.489746
322.0	6.121896	1.289376	8.449799	-0.016754	0.008517	-0.002645	-0.524902	0.054199	-0.489746
323.0	6.113606	1.259381	8.467994	-0.01429	0.012089	-0.005008	-0.522705	0.052002	-0.485107
324.0	6.133104	1.269279	8.461036	-0.009403	0.01083	-0.001746	-0.522705	0.052002	-0.485107
325.0	6.088692	1.318611	8.492659	-0.015555	0.009609	-0.004226	-0.525146	0.056396	-0.487549
326.0	6.14613	1.261408	8.493207	-0.013361	0.009324	-0.003237	-0.520508	0.049805	-0.48291
327.0	6.143476	1.24851	8.472972	-0.009197	0.013301	-0.005893	-0.527344	0.056396	-0.489746
328.0	6.102876	1.302814	8.445235	-0.009756	0.012604	-0.007975	-0.522705	0.052002	-0.485107
329.0	6.114903	1.284151	8.455656	-0.010959	0.01151	-0.006396	-0.520508	0.054199	-0.489746
330.0	6.11971	1.300138	8.418037	-0.013364	0.009321	-0.003239	-0.524902	0.052002	-0.48291
331.0	6.11453	1.294971	8.478388	-0.009697	0.013988	-0.007178	-0.525146	0.056396	-0.487549
332.0	6.110034	1.270089	8.437207	-0.011397	0.013583	-0.006884	-0.518555	0.056396	-0.492188
333.0	6.088211	1.259013	8.445984	-0.008497	0.015082	-0.008757	-0.522949	0.056396	-0.487549
334.0	6.075352	1.289283	8.458501	-0.008559	0.013696	-0.009554	-0.518311	0.054199	-0.487549
335.0	6.106211	1.269311	8.440091	-0.009266	0.011912	-0.006692	-0.527344	0.058594	-0.487549
336.0	6.166688	1.237403	8.482847	-0.006486	0.010642	-0.010158	-0.524902	0.054199	-0.487549
337.0	6.092672	1.299641	8.453088	-0.008804	0.008156	-0.012744	-0.522949	0.056396	-0.487549
338.0	6.119594	1.275256	8.493983	-0.009826	0.011215	-0.008774	-0.522705	0.054199	-0.491943
339.0	6.130091	1.244985	8.483179	-0.001452	0.010474	-0.011836	-0.522949	0.056396	-0.487549
340.0	6.10116	1.269774	8.443673	-0.003649	0.010757	-0.012828	-0.525146	0.056396	-0.485352
341.0	6.114801	1.264161	8.475038	-0.005846	0.011039	-0.013819	-0.524902	0.052002	-0.489746
342.0	6.112034	1.252494	8.454724	-0.002946	0.01254	-0.01569	-0.522949	0.056396	-0.487549
343.0	6.118265	1.282128	8.438146	-0.004766	0.009364	-0.016993	-0.522705	0.054199	-0.487549
344.0	6.096735	1.271859	8.446556	-0.005352	0.010348	-0.012536	-0.524902	0.052002	-0.487549
345.0	6.088211	1.243462	8.464604	-0.004004	0.012532	-0.019058	-0.524902	0.052002	-0.487549
346.0	6.136991	1.306998	8.453634	-0.000873	0.009486	-0.016294	-0.525146	0.056396	-0.487549
347.0	6.083515	1.316577	8.481166	-0.005533	0.006192	-0.01493	-0.529541	0.056396	-0.485352
348.0	6.128094	1.279266	8.471856	-0.003894	0.005214	-0.01602	-0.520508	0.054199	-0.487549
349.0	6.112697	1.285832	8.441617	-0.005534	0.006191	-0.01493	-0.522705	0.054199	-0.48291
350.0	6.126825	1.280246	8.472625	-0.004598	0.003429	-0.013159	-0.529297	0.054199	-0.48291
351.0	6.112962	1.299103	8.463478	-0.000381	0.008797	-0.01501	-0.529297	0.052002	-0.48291
352.0	6.103201	1.258579	8.4602	-0.005478	0.007574	-0.014133	-0.525146	0.058594	-0.485352
353.0	6.105447	1.283293	8.502949	-0.007676	0.007855	-0.015126	-0.522705	0.052002	-0.485107
354.0	6.129366	1.299317	8.436254	-0.000998	0.006716	-0.017891	-0.524902	0.052002	-0.487549
355.0	6.128736	1.300033	8.436602	-0.004601	0.003427	-0.01316	-0.518555	0.058594	-0.48291
356.0	6.100277	1.260672	8.461997	-0.005482	0.007572	-0.014134	-0.522949	0.056396	-0.485352
357.0	6.093671	1.308195	8.435659	-0.00724	0.005779	-0.01464	-0.525146	0.056396	-0.487549
358.0	6.129683	1.325485	8.480165	-0.004985	0.006883	-0.012849	-0.526855	0.049805	-0.485107
359.0	6.105356	1.290582	8.446203	-0.006627	0.007859	-0.011759	-0.518555	0.058594	-0.487549
360.0	6.098747	1.274051	8.485119	-0.005485	0.00757	-0.014135	-0.522705	0.054199	-0.491943
361.0	6.109607	1.244257	8.474063	-0.002146	0.007003	-0.015516	-0.525146	0.056396	-0.485352
362.0	6.102867	1.292125	8.447766	-0.004287	0.008666	-0.015712	-0.516357	0.054199	-0.489746
363.0	6.115135	1.274717	8.457867	-0.000948	0.008099	-0.017093	-0.5271	0.054199	-0.485107
364.0	6.105446	1.234541	8.454511	-0.001505	0.007402	-0.019177	-0.524902	0.054199	-0.489746
365.0	6.119259	1.293591	8.420399	-0.001064	0.005329	-0.018691	-0.520508	0.052002	-0.485107
366.0	6.099509	1.296063	8.449588	0.00069	0.007122	-0.018184	-0.525146	0.056396	-0.485352
367.0	6.119178	1.307854	8.442329	-0.002152	0.006999	-0.015518	-0.525146	0.058594	-0.485352
368.0	6.105179	1.263049	8.49846	-0.000811	0.009184	-0.02204	-0.520508	0.052002	-0.487549
369.0	6.11732	1.309902	8.443358	-0.002154	0.006998	-0.015518	-0.527344	0.058594	-0.487549
370.0	6.136859	1.321458	8.436234	-0.005296	0.010035	-0.018285	-0.516357	0.056396	-0.485352
371.0	6.113745	1.299049	8.423563	-0.004686	0.012115	-0.015403	-0.525146	0.058594	-0.485352
372.0	6.115472	1.323955	8.46658	-0.004687	0.012115	-0.015403	-0.522705	0.054199	-0.487549
373.0	6.104039	1.271128	8.442413	-0.004688	0.012114	-0.015404	-0.527344	0.056396	-0.480713
374.0	6.138066	1.276539	8.466136	-0.004245	0.010042	-0.014917	-0.522949	0.058594	-0.485352
375.0	6.116563	1.266402	8.474452	-0.003659	0.009057	-0.019376	-0.5271	0.054199	-0.491943
376.0	6.122751	1.296419	8.457832	0.000292	0.010576	-0.017873	-0.522949	0.058594	-0.492188
377.0	6.112971	1.256481	8.454548	0.001378	0.008904	-0.021047	-0.527344	0.056396	-0.485352
378.0	6.100291	1.288021	8.466566	-0.001019	0.006707	-0.017895	-0.518311	0.052002	-0.485107
379.0	6.119701	1.30019	8.45946	0.002127	0.012072	-0.02311	-0.524902	0.054199	-0.494385
380.0	6.09946	1.303011	8.488883	0.000873	0.009588	-0.022333	-0.520508	0.054199	-0.48291
381.0	6.136514	1.30173	8.431851	0.000175	0.007803	-0.019472	-0.527344	0.056396	-0.489746
382.0	6.117979	1.316497	8.482216	0.001872	0.008214	-0.019763	-0.524902	0.054199	-0.489746
383.0	6.114204	1.293463	8.440454	-0.000382	0.007103	-0.021557	-0.527344	0.056396	-0.492188
384.0	6.106233	1.265846	8.45802	0.004461	0.004483	-0.019079	-0.522705	0.052002	-0.480713
385.0	6.133162	1.307209	8.433441	0.002368	0.007526	-0.018478	-0.522705	0.054199	-0.487549
386.0	6.098505	1.315812	8.432004	0.001365	0.008897	-0.02105	-0.5271	0.052002	-0.489746
387.0	6.126894	1.3052	8.493856	0.000668	0.007112	-0.018188	-0.527344	0.058594	-0.485352
388.0	6.129105	1.298939	8.413651	0.002813	0.005453	-0.017991	-0.522705	0.052002	-0.489746
389.0	6.131092	1.324662	8.456258	0.001862	0.008209	-0.019765	-0.525146	0.056396	-0.487549
390.0	6.14187	1.295616	8.445317	-0.000233	0.01125	-0.019164	-0.520508	0.049805	-0.487305
391.0	6.108029	1.380009	8.400085	-0.004078	0.012494	-0.019073	-0.525146	0.058594	-0.485352
392.0	6.125935	1.31549	8.437406	-0.000666	0.016388	-0.01231	-0.526855	0.049805	-0.48291
393.0	6.12746	1.340628	8.48041	-0.003181	0.008352	-0.018099	-0.524902	0.052002	-0.48291
394.0	6.088829	1.247917	8.480952	-0.004221	0.011406	-0.014128	-0.520752	0.056396	-0.48291
395.0	6.142955	1.328679	8.431899	0.000264	0.010562	-0.017879	-0.5271	0.054199	-0.487549
396.0	6.12601	1.259518	8.445959	-0.000188	0.012631	-0.018367	-0.524902	0.052002	-0.485107
397.0	6.120031	1.320111	8.440968	0.000902	0.01096	-0.02154	-0.5271	0.052002	-0.485107
398.0	6.13787	1.320161	8.41292	-0.000745	0.01193	-0.020453	-0.520508	0.052002	-0.487549
399.0	6.117567	1.322492	8.442381	-0.001941	0.01083	-0.018878	-0.522705	0.054199	-0.489746
400.0	6.114845	1.311633	8.422053	0.003892	0.015241	-0.021808	-0.525146	0.058594	-0.487549
401.0	6.120947	1.278115	8.470758	-0.000801	0.010543	-0.021253	-0.524902	0.054199	-0.485107
402.0	6.126751	1.308516	8.454305	-0.000563	0.014394	-0.024604	-0.522461	0.047607	-0.489746
403.0	6.125355	1.310145	8.455065	0.003733	0.011085	-0.024205	-0.527344	0.058594	-0.487549
404.0	6.104537	1.377069	8.419369	0.001632	0.014122	-0.023607	-0.524902	0.054199	-0.485107
405.0	6.169639	1.288254	8.46813	0.002032	0.010667	-0.023918	-0.525146	0.056396	-0.487549
406.0	6.115149	1.362098	8.430414	0.000434	0.01302	-0.022033	-0.522461	0.047607	-0.485107
407.0	6.106644	1.334218	8.448442	-0.002408	0.012889	-0.019371	-0.529541	0.058594	-0.487549
408.0	6.126891	1.358349	8.462872	-0.002814	0.016341	-0.019061	-0.524658	0.04541	-0.485107
409.0	6.096374	1.306968	8.467645	-0.005015	0.016608	-0.020061	-0.524658	0.049805	-0.487305
410.0	6.116506	1.330915	8.482187	-0.00401	0.01524	-0.017487	-0.5271	0.052002	-0.487549
411.0	6.110939	1.295258	8.41992	-0.001578	0.018823	-0.019838	-0.527344	0.056396	-0.485352
412.0	6.098448	1.338782	8.453639	-0.001125	0.016754	-0.01935	-0.522705	0.054199	-0.48291
413.0	6.116025	1.338734	8.425884	-0.001224	0.013984	-0.020948	-0.524902	0.054199	-0.485107
414.0	6.108733	1.322903	8.465097	-0.00237	0.014267	-0.018576	-0.522705	0.049805	-0.485107
415.0	6.09396	1.342017	8.456362	-0.001227	0.013982	-0.020949	-0.525146	0.056396	-0.487549
416.0	6.126146	1.336151	8.459338	-0.001685	0.016048	-0.021439	-0.524902	0.052002	-0.485107
417.0	6.090703	1.344447	8.458322	-0.000495	0.017147	-0.023013	-0.522705	0.054199	-0.487549
418.0	6.136305	1.320548	8.47087	-0.001968	0.010811	-0.018888	-0.522705	0.054199	-0.485107
419.0	6.142032	1.350696	8.454491	-0.001187	0.015362	-0.020152	-0.5271	0.052002	-0.494385
420.0	6.11393	1.38789	8.436104	-0.002979	0.012175	-0.021464	-0.524658	0.047607	-0.489746
421.0	6.116275	1.317402	8.421566	-0.002887	0.014943	-0.019867	-0.522949	0.056396	-0.485352
422.0	6.10388	1.360786	8.455124	-0.002889	0.014942	-0.019867	-0.526855	0.049805	-0.480469
423.0	6.093974	1.320415	8.452209	-0.002294	0.017028	-0.016982	-0.524658	0.049805	-0.489746
424.0	6.132222	1.331277	8.416809	-0.002022	0.009422	-0.019689	-0.522705	0.049805	-0.487305
425.0	6.098392	1.351562	8.43661	-0.001749	0.014655	-0.022241	-0.524902	0.052002	-0.487549
426.0	6.129474	1.333584	8.418445	-0.000742	0.01329	-0.019666	-0.524658	0.047607	-0.48291
427.0	6.109998	1.348023	8.469128	-0.001203	0.015355	-0.020155	-0.522705	0.052002	-0.489746
428.0	6.142218	1.342181	8.472156	-0.0007	0.014672	-0.018868	-0.522705	0.052002	-0.487549
429.0	6.099559	1.385109	8.422967	-0.002442	0.012868	-0.019382	-0.529297	0.054199	-0.489746
430.0	6.115407	1.296485	8.418081	-0.004599	0.014514	-0.019586	-0.524658	0.049805	-0.487305
431.0	6.123381	1.350893	8.444047	-0.0002	0.013989	-0.01758	-0.522949	0.056396	-0.487549
432.0	6.102736	1.352905	8.473584	-0.004097	0.013831	-0.018299	-0.520264	0.047607	-0.491943
433.0	6.079792	1.33054	8.46083	-0.002998	0.012162	-0.021471	-0.525146	0.056396	-0.487549
434.0	6.111068	1.31278	8.442567	0.004792	0.012477	-0.020033	-0.524902	0.052002	-0.485107
435.0	6.117939	1.355378	8.447272	-0.002452	0.012863	-0.019384	-0.524902	0.054199	-0.489746
436.0	6.115448	1.344356	8.426929	0.000893	0.012317	-0.020753	-0.524658	0.049805	-0.487305
437.0	6.096001	1.358856	8.477479	-0.00076	0.013281	-0.01967	-0.522705	0.049805	-0.487305
438.0	6.127284	1.34082	8.45929	-0.001951	0.012179	-0.018097	-0.524658	0.047607	-0.48291
439.0	6.112676	1.359724	8.450384	-0.004196	0.011054	-0.019901	-0.524902	0.054199	-0.489746
440.0	6.12488	1.342713	8.460731	0.000204	0.010533	-0.017892	-0.522705	0.052002	-0.485107
441.0	6.08971	1.350538	8.45944	-0.005083	0.016566	-0.020083	-0.5271	0.052002	-0.487549
442.0	6.108536	1.362671	8.452902	0.001475	0.014402	-0.017867	-0.524658	0.047607	-0.485107
443.0	6.1142	1.392793	8.436549	-0.003653	0.011753	-0.017815	-0.520264	0.047607	-0.485107
444.0	6.09772	1.323094	8.450605	-0.00357	0.014521	-0.016217	-0.5271	0.052002	-0.487549
445.0	6.1189	1.359449	8.486264	-0.002973	0.013534	-0.020678	-0.527344	0.056396	-0.487549
446.0	6.081489	1.342956	8.442694	-0.000226	0.013978	-0.017584	-0.522705	0.054199	-0.487549
447.0	6.10053	1.355077	8.436019	-0.004713	0.011726	-0.021195	-0.531494	0.052002	-0.489746
448.0	6.100245	1.36813	8.458007	-0.001882	0.01494	-0.016502	-0.520508	0.049805	-0.48291
449.0	6.111212	1.339008	8.447344	-0.000861	0.010504	-0.021272	-0.522461	0.047607	-0.487305
450.0	6.13122	1.363524	8.461863	-0.001712	0.0174	-0.020654	-0.524658	0.049805	-0.487305
451.0	6.087914	1.330065	8.456578	-0.002011	0.010784	-0.018901	-0.5271	0.052002	-0.48291
452.0	6.093623	1.36026	8.440176	-0.000784	0.01327	-0.019675	-0.524414	0.043213	-0.482666
453.0	6.104534	1.331143	8.429583	-0.002439	0.014231	-0.018593	-0.522461	0.047607	-0.487305
454.0	6.078357	1.392339	8.453429	-0.0024	0.015614	-0.017794	-0.518311	0.052002	-0.485107
455.0	6.116068	1.327116	8.462239	-0.004177	0.012422	-0.019111	-0.522461	0.047607	-0.489746
456.0	6.115799	1.340213	8.484184	0.000265	0.013292	-0.016297	-0.522705	0.049805	-0.489746
457.0	6.059715	1.400817	8.425174	-0.005194	0.013778	-0.021692	-0.522705	0.049805	-0.485107
458.0	6.117853	1.346846	8.426518	-0.00194	0.013547	-0.017305	-0.524658	0.04541	-0.482666
459.0	6.104104	1.377874	8.43882	-0.001942	0.013546	-0.017306	-0.522705	0.054199	-0.489746
460.0	6.110193	1.343778	8.487659	-0.004145	0.013801	-0.018314	-0.526855	0.047607	-0.480469
461.0	6.135051	1.37293	8.442823	-0.001305	0.013943	-0.020968	-0.524902	0.052002	-0.489746
462.0	6.092902	1.351587	8.45856	-0.002493	0.012839	-0.019396	-0.524658	0.047607	-0.487305
463.0	6.11185	1.363829	8.451977	-0.000762	0.014646	-0.018879	-0.524658	0.049805	-0.487305
464.0	6.110461	1.364964	8.452798	-0.00084	0.011877	-0.020478	-0.53125	0.049805	-0.489746
465.0	6.087782	1.342802	8.439842	-0.001896	0.011849	-0.023859	-0.526855	0.049805	-0.489746
466.0	6.0605	1.392098	8.442415	-0.001822	0.014616	-0.02226	-0.520264	0.047607	-0.489746
467.0	6.087033	1.369597	8.483704	-0.000375	0.009812	-0.019989	-0.520264	0.04541	-0.485107
468.0	6.092688	1.399979	8.467292	-0.001864	0.01323	-0.023061	-0.529053	0.049805	-0.485107
469.0	6.103767	1.371206	8.456624	0.000299	0.011592	-0.022851	-0.524902	0.052002	-0.489746
470.0	6.121835	1.371654	8.428784	0.000842	0.012297	-0.020762	-0.526855	0.047607	-0.485107
471.0	6.12252	1.397232	8.47178	-0.003092	0.010739	-0.022291	-0.524902	0.052002	-0.485107
472.0	6.085597	1.380647	8.427888	0.000163	0.010514	-0.0179	-0.518066	0.047607	-0.485107
473.0	6.098674	1.37606	8.459509	-0.001837	0.014608	-0.022264	-0.522461	0.047607	-0.489746
474.0	6.096427	1.365059	8.439106	0.000123	0.009129	-0.018701	-0.520508	0.049805	-0.489746
475.0	6.09623	1.3784	8.46089	-0.000859	0.011867	-0.020483	-0.522705	0.054199	-0.489746
476.0	6.10834	1.361765	8.471362	0.000323	0.01297	-0.022055	-0.524658	0.049805	-0.485107
477.0	6.092596	1.368769	8.441272	-0.000863	0.011865	-0.020484	-0.524658	0.049805	-0.485107
478.0	6.090279	1.357881	8.420918	-0.00019	0.013645	-0.023346	-0.522461	0.047607	-0.485107
479.0	6.089804	1.371367	8.442865	-0.001376	0.01254	-0.021776	-0.5271	0.054199	-0.491943
480.0	6.108678	1.384084	8.436295	0.003737	0.015204	-0.021817	-0.524414	0.043213	-0.487305
481.0	6.086879	1.374261	8.444504	-0.001924	0.01183	-0.023868	-0.522461	0.047607	-0.485107
482.0	6.105746	1.386964	8.437944	0.00153	0.015452	-0.022829	-0.522461	0.04541	-0.487305
483.0	6.083987	1.377114	8.446122	0.000785	0.010902	-0.021566	-0.524658	0.047607	-0.485107
484.0	6.117415	1.384132	8.470301	-0.000237	0.012254	-0.02415	-0.524658	0.047607	-0.485107
485.0	6.101737	1.391253	8.440138	0.000781	0.0109	-0.021567	-0.529053	0.049805	-0.48291
486.0	6.094524	1.375639	8.479068	0.000269	0.011576	-0.022859	-0.526611	0.043213	-0.485107
487.0	6.078814	1.382766	8.448923	-0.000243	0.012251	-0.024151	-0.524658	0.047607	-0.48291
488.0	6.112081	1.389786	8.473225	0.000333	0.014342	-0.021261	-0.518066	0.04541	-0.491943
489.0	6.109823	1.378635	8.45291	-0.006472	0.011243	-0.020945	-0.522705	0.052002	-0.485107
490.0	6.09508	1.397639	8.443892	0.002465	0.011325	-0.021848	-0.524414	0.041016	-0.489502
491.0	6.093811	1.398875	8.444603	-0.002037	0.01213	-0.018121	-0.524658	0.047607	-0.489746
492.0	6.112757	1.411387	8.438036	-0.000219	0.01363	-0.023354	-0.520264	0.04541	-0.485107
493.0	6.058048	1.42004	8.464978	-0.001402	0.012524	-0.021784	-0.522705	0.049805	-0.489746
494.0	6.103115	1.384721	8.45676	-0.001915	0.013199	-0.023076	-0.518066	0.04541	-0.487305
495.0	6.100892	1.373568	8.436441	-0.004247	0.012372	-0.019137	-0.526855	0.047607	-0.491943
496.0	6.100368	1.386775	8.458405	-0.001919	0.013197	-0.023077	-0.522461	0.04541	-0.496338
497.0	6.084599	1.39375	8.428326	0.000282	0.012951	-0.022064	-0.524658	0.049805	-0.489746
498.0	6.097587	1.389292	8.459997	-0.003103	0.01209	-0.021508	-0.522461	0.04541	-0.487305
499.0	6.102086	1.407472	8.42263	-0.002405	0.015253	-0.023571	-0.526855	0.047607	-0.487305
500.0	6.074294	1.380354	8.469088	0.000277	0.012948	-0.022065	-0.518066	0.047607	-0.487305
501.0	6.099286	1.410069	8.424224	-0.000936	0.010458	-0.021295	-0.524658	0.047607	-0.491943
502.0	6.091984	1.394338	8.463203	-0.000239	0.013621	-0.023359	-0.522461	0.047607	-0.487305
503.0	6.077078	1.413334	8.454248	-0.002058	0.012119	-0.018127	-0.524658	0.047607	-0.48291
504.0	6.089282	1.396551	8.464782	-0.004168	0.012047	-0.024897	-0.524658	0.049805	-0.491943
505.0	6.074258	1.415594	8.455897	0.000327	0.015712	-0.020468	-0.524658	0.049805	-0.489746
506.0	6.126062	1.409602	8.430767	-0.004142	0.013429	-0.024098	-0.522461	0.04541	-0.482666
507.0	6.064489	1.388752	8.47474	0.000805	0.013653	-0.019976	-0.522461	0.047607	-0.487305
508.0	6.084153	1.413545	8.489379	-0.000888	0.01322	-0.019699	-0.520264	0.047607	-0.487305
509.0	6.082052	1.402433	8.469006	-0.00261	0.011403	-0.020222	-0.526855	0.047607	-0.489746
510.0	6.12134	1.42639	8.455128	-0.001433	0.012508	-0.021792	-0.522705	0.049805	-0.489746
511.0	6.098154	1.391698	8.420952	-0.002584	0.012785	-0.019423	-0.524658	0.049805	-0.489746
512.0	6.084083	1.422711	8.433087	-0.003156	0.01069	-0.022317	-0.524414	0.041016	-0.487305
513.0	6.096369	1.405855	8.443609	-0.004279	0.012351	-0.019148	-0.524658	0.047607	-0.489746
514.0	6.095057	1.406661	8.444422	-0.004281	0.01235	-0.019148	-0.518066	0.04541	-0.491943
515.0	6.09441	1.419819	8.46641	-0.001413	0.013888	-0.020994	-0.522705	0.049805	-0.489746
516.0	6.065227	1.444304	8.426493	-0.002108	0.010724	-0.018932	-0.518066	0.04541	-0.487305
517.0	6.091104	1.409602	8.446784	-0.004286	0.012347	-0.01915	-0.524658	0.047607	-0.489746
518.0	6.095694	1.427478	8.409445	-0.004773	0.014403	-0.019643	-0.526855	0.04541	-0.489502
519.0	6.088227	1.411113	8.448605	-0.006465	0.013969	-0.019368	-0.522461	0.047607	-0.487305
520.0	6.09346	1.441344	8.432447	0.000269	0.014319	-0.021272	-0.52002	0.043213	-0.485107
521.0	6.071125	1.418726	8.419373	-0.003265	0.010998	-0.016565	-0.522461	0.04541	-0.485107
522.0	6.097672	1.396013	8.460908	-0.006471	0.013965	-0.01937	-0.522461	0.04541	-0.491943
523.0	6.117103	1.420554	8.475753	-0.001914	0.015939	-0.02149	-0.522461	0.047607	-0.485107
524.0	6.081064	1.415657	8.453003	-0.004296	0.012341	-0.019153	-0.520264	0.04541	-0.491943
525.0	6.098549	1.403725	8.404284	-0.003635	0.014119	-0.022016	-0.526855	0.04541	-0.487305
526.0	6.078871	1.429755	8.475904	-0.003123	0.013446	-0.020723	-0.522217	0.041016	-0.487305
527.0	6.110523	1.412305	8.458196	-0.003613	0.015501	-0.021217	-0.526855	0.047607	-0.489746
528.0	6.094068	1.406735	8.407031	-0.003127	0.013444	-0.020724	-0.526611	0.041016	-0.491699
529.0	6.09388	1.432445	8.450217	0.00258	0.015144	-0.025211	-0.522461	0.04541	-0.496338
530.0	6.085612	1.404524	8.468179	-0.003105	0.014825	-0.019925	-0.52002	0.043213	-0.487305
531.0	6.070563	1.42348	8.459235	-0.000316	0.012215	-0.02417	-0.522461	0.047607	-0.487305
532.0	6.123917	1.442209	8.476493	-0.004188	0.013398	-0.024115	-0.522217	0.043213	-0.487305
533.0	6.088718	1.449465	8.474736	-0.004876	0.010234	-0.022054	-0.522705	0.052002	-0.491943
534.0	6.073234	1.455957	8.44452	-0.004853	0.011617	-0.021254	-0.522461	0.047607	-0.485107
535.0	6.099049	1.421294	8.464969	-0.004807	0.014383	-0.019654	-0.524658	0.047607	-0.489746
536.0	6.083637	1.427709	8.43472	-0.00336	0.006833	-0.018973	-0.524658	0.04541	-0.491943
537.0	6.082312	1.428328	8.435571	-0.008635	0.018331	-0.018	-0.520264	0.047607	-0.489746
538.0	6.121339	1.452093	8.422068	-0.002139	0.010708	-0.018941	-0.52002	0.041016	-0.487305
539.0	6.093161	1.412039	8.447116	-0.005989	0.013272	-0.018087	-0.522217	0.043213	-0.489502
540.0	6.057962	1.418982	8.445372	-0.002119	0.01209	-0.018141	-0.524414	0.043213	-0.489502
541.0	6.089858	1.401541	8.427621	-0.005356	0.013665	-0.021751	-0.522461	0.04541	-0.491943
542.0	6.088944	1.414669	8.449716	-0.004183	0.014773	-0.02332	-0.520264	0.04541	-0.489502
543.0	6.052929	1.40984	8.426884	-0.002518	0.013825	-0.024394	-0.526855	0.04541	-0.489502
544.0	6.120274	1.423173	8.47531	-0.000808	0.015646	-0.023867	-0.524658	0.047607	-0.487305
545.0	6.090169	1.435636	8.414362	-0.003016	0.015877	-0.024889	-0.526855	0.04541	-0.487305
546.0	6.082832	1.431892	8.474846	-0.004007	0.019984	-0.025878	-0.522461	0.047607	-0.487305
547.0	6.087307	1.374213	8.481672	0.001532	0.01786	-0.027003	-0.524658	0.04541	-0.494141
548.0	6.112748	1.429207	8.479725	0.001648	0.018924	-0.031962	-0.52002	0.043213	-0.491943
549.0	6.095738	1.424762	8.428847	0.002344	0.023468	-0.033224	-0.517822	0.043213	-0.496338
550.0	6.060467	1.457451	8.469948	0.001285	0.023421	-0.036617	-0.524414	0.041016	-0.487305
551.0	6.118125	1.393908	8.451275	0.00285	0.022793	-0.031932	-0.524658	0.049805	-0.487305
552.0	6.116676	1.332026	8.517688	0.000759	0.024084	-0.037915	-0.522217	0.041016	-0.484863
553.0	6.133943	1.422844	8.467977	0.006376	0.020261	-0.045597	-0.522461	0.047607	-0.48291
554.0	6.063653	1.438208	8.463918	0.003148	0.023207	-0.048414	-0.524414	0.043213	-0.491943
555.0	6.095577	1.536075	8.46622	0.007377	0.017533	-0.043811	-0.524414	0.043213	-0.491943
556.0	6.038771	1.521107	8.45062	0.001726	0.019964	-0.036934	-0.519775	0.036621	-0.487061
557.0	6.056897	1.446464	8.467347	-0.00112	0.019794	-0.034296	-0.522461	0.047607	-0.489746
558.0	6.115821	1.495446	8.468293	-0.004483	0.020293	-0.032955	-0.52002	0.038818	-0.489502
559.0	6.073138	1.473719	8.483942	-0.001728	0.022164	-0.029034	-0.520264	0.04541	-0.489502
560.0	6.056556	1.38024	8.455724	-0.005044	0.018188	-0.035856	-0.522217	0.038818	-0.489502
561.0	6.12882	1.411815	8.466775	-0.002508	0.028385	-0.039947	-0.522461	0.04541	-0.489502
562.0	6.072312	1.42074	8.493986	0.003018	0.02489	-0.041865	-0.517822	0.038818	-0.484863
563.0	6.109707	1.34646	8.482807	0.002624	0.027998	-0.047324	-0.522217	0.041016	-0.491699
564.0	6.078319	1.361195	8.422406	0.012306	0.029611	-0.056804	-0.522217	0.041016	-0.489502
565.0	5.946255	1.531406	8.415687	0.011774	0.030271	-0.058104	-0.520264	0.04541	-0.489502
566.0	6.03812	1.488869	8.442574	0.015555	0.030811	-0.051588	-0.521973	0.034424	-0.487061
567.0	5.993178	1.534039	8.393367	0.016697	0.030531	-0.053958	-0.522217	0.041016	-0.489502
568.0	5.997085	1.491474	8.421883	0.017652	0.032289	-0.044004	-0.517578	0.034668	-0.493896
569.0	6.020743	1.448625	8.422214	0.023335	0.034009	-0.048478	-0.515869	0.043213	-0.489502
570.0	5.956189	1.506805	8.422343	0.024451	0.030961	-0.052448	-0.52002	0.041016	-0.494141
571.0	6.054255	1.482079	8.411187	0.01824	0.031276	-0.048479	-0.52002	0.038818	-0.487305
572.0	6.065386	1.393026	8.466817	0.024475	0.036486	-0.049255	-0.517822	0.043213	-0.487305
573.0	6.069287	1.251267	8.497296	0.034131	0.036717	-0.059529	-0.521973	0.036621	-0.484863
574.0	6.084596	1.358593	8.469223	0.038871	0.04081	-0.071566	-0.515625	0.041016	-0.491699
575.0	5.999057	1.419948	8.497648	0.045565	0.039814	-0.074243	-0.52002	0.038818	-0.491699
576.0	5.864328	1.556034	8.426616	0.038161	0.036242	-0.070312	-0.519775	0.036621	-0.489502
577.0	5.968696	1.575389	8.419623	0.034525	0.029088	-0.062248	-0.522217	0.041016	-0.489502
578.0	5.937448	1.741545	8.441206	0.025468	0.027842	-0.056451	-0.517578	0.034668	-0.489502
579.0	5.900567	1.751438	8.439458	0.007252	0.021543	-0.041482	-0.521973	0.036621	-0.493896
580.0	5.814993	1.8706	8.402116	-0.007828	0.031357	-0.031099	-0.519531	0.030273	-0.489258
581.0	5.762401	2.094389	8.387698	-0.029972	0.036242	-0.004751	-0.522217	0.041016	-0.489502
582.0	5.664895	2.160426	8.406791	-0.058711	0.027222	0.03407	-0.526367	0.036621	-0.489502
583.0	5.807551	2.082645	8.448198	-0.072475	0.01287	0.070658	-0.52002	0.038818	-0.494141
584.0	5.873441	1.789259	8.583861	-0.096067	-0.00659	0.090733	-0.522217	0.038818	-0.491699
585.0	5.810261	1.746387	8.686254	-0.103493	-0.023357	0.111003	-0.526367	0.038818	-0.491699
586.0	5.886884	1.638379	8.906398	-0.123478	-0.057508	0.128771	-0.522217	0.041016	-0.491699
587.0	6.056823	1.475778	8.787324	-0.138755	-0.08756	0.13449	-0.524658	0.04541	-0.494141
588.0	5.932494	1.490615	8.792953	-0.139042	-0.117436	0.141152	-0.522217	0.041016	-0.484863
589.0	5.933193	1.700142	8.79629	-0.141563	-0.15206	0.167883	-0.526855	0.049805	-0.487305
590.0	5.891971	1.878048	8.871853	-0.161022	-0.184304	0.201245	-0.524658	0.049805	-0.485107
591.0	6.093415	1.883857	8.67173	-0.158785	-0.222438	0.253939	-0.520508	0.054199	-0.48291
592.0	5.847744	1.449251	8.726924	-0.073017	-0.260815	0.343271	-0.53125	0.047607	-0.485107
593.0	4.670198	2.194665	10.164501	0.223563	-0.427138	0.513235	-0.535645	0.051758	-0.480713
594.0	3.942493	3.949436	11.273168	0.012403	-0.648742	0.640818	-0.535889	0.053955	-0.478271
595.0	5.762368	1.195186	9.995559	-0.133551	-0.956548	0.687282	-0.531982	0.067139	-0.476318
596.0	6.089429	0.961206	9.774343	-0.0519	-1.094817	0.665087	-0.536133	0.062744	-0.464844
597.0	5.467617	1.981946	10.649784	-0.133184	-1.284309	0.662101	-0.543213	0.071533	-0.465088
598.0	5.626078	2.396532	10.620135	-0.26837	-1.503128	0.731192	-0.541504	0.080078	-0.451416
599.0	6.47083	1.754249	9.815532	-0.296215	-1.77462	0.77885	-0.55249	0.084473	-0.440186
600.0	6.396695	1.035889	9.779722	-0.184863	-2.042525	0.828783	-0.554688	0.086426	-0.426514
601.0	6.000185	0.510157	9.971716	0.008951	-2.315947	0.865128	-0.565674	0.088623	-0.415283
602.0	7.154201	1.106938	10.105843	0.120041	-2.478701	0.901471	-0.577148	0.097168	-0.404053
603.0	7.278779	1.184377	9.536785	0.247557	-2.645783	0.982608	-0.57959	0.105957	-0.388184
604.0	7.791383	1.127323	9.09703	0.371296	-2.840695	1.110986	-0.584229	0.110107	-0.374512
605.0	9.324509	0.69587	8.58164	0.716956	-2.924242	1.139782	-0.59082	0.112305	-0.354004
606.0	8.198111	2.126354	8.632428	1.006722	-2.855701	1.193353	-0.591064	0.118896	-0.335938
607.0	8.898775	2.976745	7.56742	1.042305	-2.741647	1.291894	-0.597656	0.12085	-0.326904
608.0	11.104706	1.998913	7.48987	1.175878	-2.470489	1.300759	-0.5979	0.125244	-0.315674
609.0	10.503967	3.364043	7.80185	1.365246	-2.09165	1.309957	-0.600098	0.125244	-0.306396
610.0	12.449032	8.24911	7.290412	1.071529	-1.650407	1.382265	-0.596191	0.138428	-0.29541
611.0	8.76559	8.136942	7.276724	0.200835	-1.142335	1.526154	-0.594238	0.142578	-0.290771
612.0	3.791563	8.960909	9.89528	-0.709923	-0.388953	1.375473	-0.594727	0.153564	-0.297852
613.0	8.8323	3.61229	8.15126	-1.21885	0.540593	0.780845	-0.582031	0.158203	-0.309326
614.0	8.654807	5.430456	12.922573	-0.623812	1.523683	-0.050724	-0.581543	0.151611	-0.322998
615.0	1.402443	6.401239	10.993191	-0.513826	2.315049	-0.612737	-0.563965	0.147461	-0.334229
616.0	-4.026014	5.015964	8.771112	-0.558306	2.526539	-0.810748	-0.554932	0.140869	-0.359375
617.0	-5.101223	2.160744	8.12776	-0.496699	2.314839	-0.838518	-0.545898	0.134521	-0.377441
618.0	-4.874532	-0.435015	8.221466	-0.103217	2.009342	-0.812151	-0.532471	0.125977	-0.395508
619.0	-3.272402	-1.002566	8.981495	0.427346	1.764925	-0.772959	-0.52124	0.119385	-0.413574
620.0	-0.896433	-0.354438	9.788084	0.843866	1.735218	-0.732995	-0.503418	0.108643	-0.440674
621.0	1.092237	0.904381	10.561422	1.037641	1.895768	-0.666012	-0.483398	0.0979	-0.45874
622.0	1.999429	1.56409	11.068812	0.995336	2.118646	-0.60318	-0.458496	0.080811	-0.479004
623.0	1.830306	1.379036	11.136162	0.855568	2.267119	-0.558767	-0.432129	0.074463	-0.501709
624.0	1.792022	0.982227	11.325753	0.766344	2.28151	-0.563049	-0.400879	0.061523	-0.521973
625.0	2.891488	0.949673	11.498601	0.772544	2.237472	-0.623976	-0.370117	0.052979	-0.537842
626.0	4.507029	1.423342	11.720011	0.80097	2.218495	-0.728544	-0.325684	0.035889	-0.553467
627.0	6.004041	2.292319	11.855437	0.782685	2.257456	-0.866772	-0.279297	0.020996	-0.564697
628.0	7.123516	3.200362	11.839804	0.687995	2.334769	-1.001992	-0.23291	0.010254	-0.562256
629.0	7.836341	3.627261	11.612339	0.535381	2.409229	-1.119271	-0.18457	0.00415	-0.562012
630.0	8.358348	3.673903	11.475517	0.406497	2.45875	-1.21197	-0.129639	-0.006348	-0.552979
631.0	9.027475	3.329536	11.378978	0.358781	2.48902	-1.290593	-0.086426	0.000244	-0.537109
632.0	9.646005	2.98444	11.350627	0.403398	2.513118	-1.372912	-0.03833	0.000488	-0.509766
633.0	9.892865	3.060515	11.212484	0.491362	2.517372	-1.460933	0.015869	0.005127	-0.482666
634.0	9.709677	3.06245	10.932975	0.558356	2.494266	-1.541778	0.05249	0.01416	-0.453125
635.0	9.38197	3.006662	10.620331	0.583797	2.420959	-1.618642	0.08667	0.031738	-0.4104
636.0	8.943677	2.874408	10.237172	0.56299	2.308552	-1.65999	0.112061	0.049072	-0.369629
637.0	8.5558	2.764195	9.959375	0.501382	2.165054	-1.680701	0.131104	0.064453	-0.32666
638.0	8.280488	2.625813	9.592039	0.402005	2.016189	-1.672417	0.136719	0.086182	-0.281494
639.0	7.980677	2.287213	9.39218	0.306715	1.870533	-1.643598	0.127197	0.101318	-0.236328
640.0	7.994219	1.868726	9.264582	0.223561	1.753307	-1.6102	0.119629	0.125244	-0.207031
641.0	7.969769	1.371007	8.953692	0.200584	1.686004	-1.545676	0.099365	0.140137	-0.16626
642.0	7.4678	1.148756	8.648489	0.206546	1.633636	-1.447925	0.07666	0.159668	-0.136963
643.0	6.911966	1.032973	8.552334	0.230036	1.583696	-1.316826	0.049805	0.174805	-0.123535
644.0	6.484437	0.513525	8.290435	0.286212	1.525088	-1.159996	0.025635	0.178955	-0.103271
645.0	6.288347	0.304289	8.367535	0.405501	1.484992	-0.998268	-0.01416	0.189453	-0.087402
646.0	6.381373	0.18508	8.328176	0.553433	1.476761	-0.842193	-0.040527	0.193604	-0.075928
647.0	6.294393	0.075767	8.242087	0.700262	1.511417	-0.708419	-0.075439	0.195557	-0.071533
648.0	5.634308	0.372282	8.096534	0.816507	1.55007	-0.576552	-0.097412	0.197754	-0.071533
649.0	4.924395	0.686297	7.880245	0.878463	1.551516	-0.412006	-0.126221	0.208496	-0.078613
650.0	4.531188	0.925629	7.645482	0.889784	1.530816	-0.243731	-0.147949	0.206055	-0.076172
651.0	4.309828	1.093613	7.427782	0.876852	1.466963	-0.068768	-0.174072	0.208008	-0.076172
652.0	4.648713	1.104321	7.218347	0.883694	1.410297	0.068554	-0.202393	0.205811	-0.089844
653.0	4.9584	1.076094	6.950483	0.920184	1.392115	0.160424	-0.217529	0.205811	-0.09668
654.0	4.828934	1.431573	6.490575	0.972743	1.367796	0.234141	-0.237305	0.207764	-0.101074
655.0	4.483688	1.731339	6.136062	0.987262	1.316557	0.29575	-0.252441	0.205566	-0.114746
656.0	4.092028	1.986574	5.833834	0.959089	1.20468	0.326828	-0.265625	0.207764	-0.121582
657.0	4.076103	2.18239	5.694772	0.875927	1.034032	0.335358	-0.287109	0.200928	-0.130615
658.0	4.561055	2.342959	5.721786	0.745468	0.853248	0.272266	-0.293945	0.203125	-0.139648
659.0	5.353718	2.575923	5.644649	0.554383	0.705409	0.145512	-0.307129	0.209717	-0.144287
660.0	5.849613	2.772178	5.467487	0.304701	0.605448	-0.015388	-0.315918	0.207275	-0.146729
661.0	5.959235	2.667903	5.206592	-0.013715	0.505526	-0.184682	-0.324707	0.21167	-0.148926
662.0	5.720534	2.038313	4.758244	-0.374483	0.346195	-0.323687	-0.339844	0.209473	-0.148926
663.0	5.816144	0.927262	4.320207	-0.711848	0.077205	-0.42955	-0.34668	0.213623	-0.146729
664.0	6.617928	-0.060438	3.835481	-0.98519	-0.252075	-0.478059	-0.357666	0.213623	-0.135254
665.0	7.79031	-0.866274	3.428189	-1.210974	-0.590129	-0.487671	-0.364502	0.222412	-0.130859
666.0	-0.802934	-1.742791	7.187378	-1.252839	-0.847466	-0.29968	-0.37793	0.22876	-0.11499
667.0	-2.78932	1.663041	22.458466	-0.250895	-2.12248	0.15195	-0.386719	0.230957	-0.112793
668.0	-10.162971	5.906929	14.128467	-0.221287	-1.040038	0.628215	-0.393555	0.237305	-0.099365
669.0	-8.939369	9.447454	5.134254	-1.021507	-1.973854	1.895171	-0.407227	0.250244	-0.090332
670.0	3.635245	0.073486	6.829126	-1.328628	-2.454929	2.64947	-0.414063	0.259033	-0.079102
671.0	11.974202	-3.709718	12.293157	-1.228839	-2.187736	2.36814	-0.415039	0.278564	-0.061279
672.0	9.417373	-1.798985	11.006884	-0.659976	-1.873117	1.563758	-0.417236	0.280762	-0.052246
673.0	3.176203	1.784364	9.801867	-0.420372	-1.966665	1.297464	-0.426514	0.293701	-0.036621
674.0	4.261004	1.474328	10.540672	-0.260696	-2.27821	1.153373	-0.435303	0.295898	-0.027344
675.0	8.648982	2.813404	10.727015	-0.117255	-2.23344	0.868534	-0.433594	0.302246	-0.013916
676.0	8.344344	3.113307	10.536325	-0.004155	-2.097863	0.687481	-0.442383	0.304443	-0.000244
677.0	7.063538	2.737949	10.18595	0.078083	-2.034731	0.519604	-0.447266	0.31958	0.015381
678.0	7.258069	3.214425	10.656933	0.10016	-1.977845	0.36446	-0.447021	0.312988	0.022461
679.0	7.874602	3.593525	9.864958	0.062412	-1.817732	0.307407	-0.453857	0.317383	0.035889
680.0	6.876745	3.674267	9.339952	0.038192	-1.71308	0.255355	-0.458008	0.315186	0.042969
681.0	7.701171	6.146152	8.970791	-0.074568	-1.621491	0.148795	-0.453857	0.317383	0.054199
682.0	7.555564	6.932475	8.172077	-0.284008	-1.465699	0.033789	-0.460205	0.317139	0.061035
683.0	6.226214	5.810085	8.503645	-0.453733	-1.390501	-0.07063	-0.458252	0.321533	0.06543
684.0	6.064523	3.398195	8.767018	-0.548296	-1.330839	-0.119651	-0.462646	0.321533	0.074707
685.0	6.118266	1.522776	9.274902	-0.545544	-1.253902	-0.063985	-0.464844	0.321533	0.08374
686.0	5.934292	-0.165103	9.645677	-0.417497	-1.175513	0.038357	-0.462402	0.314941	0.095215
687.0	14.071258	4.642616	10.759391	-0.634194	-0.853095	0.091275	-0.464844	0.321533	0.088379
688.0	6.585475	1.008382	9.04157	-0.505254	-0.536081	0.156976	-0.464844	0.319336	0.095215
689.0	5.755831	0.100733	9.718961	-0.393306	-0.557643	0.081329	-0.467041	0.32373	0.102051
690.0	7.527026	0.330695	9.517284	-0.222537	-0.460366	0.007563	-0.460449	0.319336	0.102051
691.0	6.877513	1.217571	9.261477	-0.121468	-0.345007	0.009498	-0.469238	0.32373	0.108887
692.0	6.03533	2.070223	9.093423	-0.067806	-0.294677	-0.02039	-0.4646	0.317139	0.104492
693.0	6.102902	2.172833	9.033097	-0.064186	-0.239995	-0.022935	-0.462646	0.319336	0.102051
694.0	6.071776	2.233209	8.968114	-0.051881	-0.196445	-0.006662	-0.4646	0.314941	0.108887
695.0	6.182895	2.257356	8.946435	-0.047395	-0.147892	-0.010586	-0.462891	0.325928	0.108643
696.0	6.18922	2.183247	8.992747	-0.038436	-0.07756	-0.003222	-0.462891	0.325928	0.113281
697.0	5.838469	2.121359	8.941991	-0.022042	-0.034604	-0.012955	-0.460205	0.317139	0.115723
698.0	5.651575	2.249651	8.828249	-0.010602	-0.025493	-0.023849	-0.460205	0.317139	0.108887
699.0	5.668171	2.205708	8.801685	0.000856	-0.000795	-0.037705	-0.460693	0.32373	0.111084
700.0	5.608035	2.146374	8.781886	0.012749	0.007733	-0.047241	-0.460449	0.319336	0.108887
701.0	5.540927	2.146713	8.657883	0.032162	0.023079	-0.057177	-0.462646	0.321533	0.113525
702.0	5.410687	2.201295	8.703299	0.049337	0.033633	-0.065349	-0.462646	0.319336	0.113525
703.0	5.229483	2.221605	8.617994	0.05441	0.038392	-0.069656	-0.4646	0.317139	0.108887
704.0	5.325173	2.315512	8.625382	0.070918	0.030384	-0.072612	-0.464844	0.32373	0.111084
705.0	5.207399	2.456076	8.578328	0.06756	0.030974	-0.071452	-0.464844	0.319336	0.104248
706.0	5.233417	2.688396	8.505517	0.063581	0.022299	-0.058762	-0.462402	0.317139	0.111328
707.0	5.204384	2.827163	8.465244	0.044736	0.025024	-0.027784	-0.464844	0.321533	0.115723
708.0	5.166333	2.950078	8.464493	0.027018	0.022367	0.003804	-0.462646	0.319336	0.113525
709.0	5.387834	3.017122	8.466946	0.00177	0.028461	0.032801	-0.467041	0.321533	0.111084
710.0	5.422728	2.695552	8.497063	-0.013243	0.034889	0.053976	-0.467041	0.321533	0.113525
711.0	5.448179	2.445445	8.624962	-0.012004	0.037462	0.06725	-0.462646	0.321533	0.11792
712.0	5.470469	2.323424	8.686797	-0.003193	0.037655	0.080915	-0.460693	0.32373	0.113281
713.0	5.443019	2.252473	8.767059	0.015147	0.035102	0.081937	-0.464844	0.32373	0.11792
714.0	5.311044	2.255407	8.720635	0.035187	0.009676	0.094314	-0.458252	0.321533	0.113281
715.0	4.992567	2.387857	8.649728	0.051472	-0.030051	0.116578	-0.467285	0.325684	0.11792
716.0	5.070711	2.54719	8.684096	0.067359	-0.08761	0.139076	-0.462891	0.325928	0.115479
717.0	5.083231	2.658633	8.591402	0.062293	-0.123274	0.170608	-0.460693	0.325928	0.115479
718.0	4.705046	2.984398	8.329374	0.024598	-0.169702	0.205379	-0.460693	0.325928	0.115479
719.0	4.458013	3.485524	8.033632	-0.042855	-0.256003	0.235522	-0.458984	0.334473	0.115479
720.0	4.647294	3.555707	7.937704	-0.119088	-0.351277	0.288195	-0.454346	0.33252	0.122314
721.0	4.590819	3.186453	7.777161	-0.200184	-0.428547	0.349071	-0.456543	0.332275	0.120117
722.0	4.276966	3.282868	7.640154	-0.279768	-0.557972	0.412033	-0.454346	0.332275	0.126953
723.0	4.561114	3.686651	7.516423	-0.376493	-0.704448	0.463736	-0.452637	0.341064	0.131348
724.0	5.405459	3.307033	7.858333	-0.505765	-0.824067	0.514121	-0.450684	0.343262	0.135742
725.0	6.555422	1.815613	8.713187	-0.571282	-0.798588	0.56678	-0.448975	0.354248	0.140137
726.0	8.165974	0.257947	8.764239	-0.637357	-0.696126	0.516947	-0.453125	0.349854	0.144775
727.0	6.894973	-0.368142	9.928807	-0.524298	-0.32731	0.443012	-0.446533	0.352051	0.151611
728.0	6.541939	2.427629	8.788546	-0.453985	-0.215847	0.322211	-0.444336	0.347656	0.151611
729.0	6.260988	1.379134	8.732212	-0.456469	-0.086916	0.313094	-0.444336	0.349854	0.153809
730.0	6.319367	1.646771	8.601683	-0.4297	0.01339	0.258016	-0.444336	0.347656	0.153809
731.0	6.136957	1.891348	8.586504	-0.443107	0.079822	0.246483	-0.444336	0.352051	0.156006
732.0	6.123145	1.796935	8.600144	-0.449374	0.142938	0.233151	-0.446289	0.347656	0.151611
733.0	5.997913	1.896378	8.663105	-0.449002	0.174431	0.240689	-0.44458	0.354248	0.151367
734.0	5.778004	1.85939	8.671899	-0.45828	0.177902	0.237683	-0.442139	0.352051	0.153809
735.0	5.659535	1.894546	8.83663	-0.438358	0.157406	0.25695	-0.44458	0.354248	0.153809
736.0	5.601561	1.858368	8.986521	-0.439918	0.11748	0.293008	-0.442139	0.352051	0.158447
737.0	5.605064	1.750316	9.120148	-0.423139	0.067704	0.318729	-0.446533	0.352051	0.151611
738.0	5.784705	1.941052	9.173713	-0.391208	0.008506	0.342395	-0.448975	0.354248	0.153809
739.0	5.267235	2.14905	9.681698	-0.317736	-0.097709	0.40294	-0.44458	0.356445	0.158203
740.0	4.96191	1.861397	10.234304	-0.265606	-0.299355	0.470197	-0.44043	0.36084	0.1604
741.0	4.466372	2.805665	11.453824	-0.074166	-0.50952	0.634332	-0.436035	0.36084	0.1604
742.0	1.607384	1.677743	14.384605	-0.184361	-1.196447	0.817111	-0.427246	0.36084	0.165039
743.0	5.528385	-0.242645	11.50786	0.015812	-1.746703	0.859104	-0.425537	0.369629	0.171631
744.0	5.161306	-0.940357	12.143887	0.163145	-2.255949	0.814208	-0.423096	0.365234	0.17627
745.0	4.857112	0.107955	12.657355	0.344086	-2.856216	0.777335	-0.416748	0.365234	0.183105
746.0	4.321092	0.01144	13.081278	0.396425	-3.459918	0.769274	-0.409912	0.363037	0.192383
747.0	4.789624	-0.090561	13.056031	0.545866	-4.070526	0.704443	-0.397217	0.371826	0.201172
748.0	5.131735	1.298988	13.164981	0.600045	-4.641923	0.659573	-0.392578	0.365234	0.221924
749.0	5.561972	1.692174	13.319651	0.483882	-5.335288	0.711687	-0.375488	0.369629	0.237793
750.0	6.880475	5.454914	12.136291	0.514296	-6.018885	0.893032	-0.357422	0.358887	0.256104
751.0	9.64787	6.154521	12.391071	0.527999	-6.420073	1.341296	-0.340332	0.367676	0.269531
752.0	9.308518	3.78622	13.294954	1.011032	-6.98166	1.701413	-0.322754	0.365479	0.290039
753.0	11.731619	5.531168	15.32517	1.356796	-7.166336	1.933664	-0.297119	0.376709	0.299072
754.0	9.506193	6.992413	14.916887	1.437796	-7.280636	2.286191	-0.279785	0.378906	0.305664
755.0	12.555144	8.187619	14.443302	1.371328	-7.068764	2.493892	-0.253662	0.381104	0.321533
756.0	12.508189	6.939284	14.143476	0.986196	-6.551871	2.692931	-0.240967	0.385742	0.330566
757.0	9.06887	7.285236	13.303953	0.645548	-6.112167	2.849264	-0.219238	0.390137	0.335205
758.0	3.09588	7.528028	12.114559	0.305353	-5.723597	3.055587	-0.208496	0.394531	0.341797
759.0	-4.001684	7.36549	9.087745	-0.155621	-5.462432	3.159173	-0.193359	0.394531	0.355469
760.0	12.604451	5.278139	5.505405	-0.297853	-5.294054	2.534672	-0.182129	0.388184	0.366943
761.0	25.918065	7.453929	14.700265	-0.29659	-2.395331	1.16744	-0.193115	0.390137	0.362549
762.0	15.459885	7.063799	15.24838	-0.321994	0.410693	-0.122641	-0.225586	0.387939	0.355713
763.0	6.863438	7.9929	14.287451	-0.638691	2.504628	-0.819122	-0.255371	0.370117	0.344727
764.0	-0.204947	5.516208	11.705192	-1.027483	3.379516	-0.921789	-0.294189	0.356934	0.324463
765.0	-4.613411	3.560303	9.340943	-1.115633	3.588875	-0.690002	-0.322021	0.348145	0.306396
766.0	-6.039817	1.007677	8.077254	-0.917677	3.43061	-0.371314	-0.352295	0.341309	0.292969
767.0	-4.69141	-0.809481	7.771849	-0.520726	3.170684	-0.190967	-0.376221	0.336914	0.265625
768.0	-2.192406	-2.062313	7.40562	0.052925	3.037335	-0.191409	-0.399414	0.321533	0.254639
769.0	0.94135	-2.279705	7.919312	0.758417	3.157784	-0.347922	-0.425781	0.325684	0.229492
770.0	4.025651	-1.223952	7.99665	1.403264	3.509907	-0.56037	-0.445313	0.321289	0.202393
771.0	6.120033	0.809447	8.099705	1.868152	4.021369	-0.749836	-0.471191	0.316895	0.17041
772.0	7.271622	3.325894	8.008482	1.975875	4.549584	-0.863008	-0.486084	0.310303	0.129639
773.0	7.757078	5.009903	7.762443	1.751128	4.981009	-0.920809	-0.505859	0.310303	0.097656
774.0	7.905249	5.390728	7.551309	1.311928	5.22966	-0.979036	-0.524658	0.292725	0.059326
775.0	8.053675	4.770673	7.489781	0.893145	5.277377	-1.062362	-0.539795	0.288574	0.016113
776.0	8.507478	3.792483	7.819845	0.623255	5.183847	-1.199689	-0.556396	0.270996	-0.022217
777.0	9.268423	2.837445	8.275802	0.511173	5.006185	-1.402112	-0.560547	0.266602	-0.058594
778.0	10.215803	2.102523	8.656942	0.516253	4.802638	-1.646599	-0.576904	0.242676	-0.094482
779.0	11.244425	2.175026	8.771296	0.627995	4.626958	-1.876293	-0.580811	0.229736	-0.126221
780.0	11.959656	2.466106	9.020899	0.748592	4.483509	-2.03417	-0.57959	0.205811	-0.164551
781.0	12.429167	2.808072	9.502501	0.848539	4.362479	-2.140593	-0.579102	0.194824	-0.198486
782.0	12.802058	2.931928	10.071263	0.911681	4.255286	-2.211215	-0.580078	0.166748	-0.232178
783.0	13.140358	2.903559	10.587462	0.969655	4.16271	-2.267526	-0.574707	0.14502	-0.268066
784.0	13.64429	2.949606	11.183152	1.012709	4.100742	-2.32575	-0.562988	0.125488	-0.297363
785.0	14.269212	2.884489	11.507527	1.054281	4.069242	-2.362472	-0.55127	0.105957	-0.328857
786.0	14.862521	2.872476	11.718572	1.103078	4.066945	-2.403937	-0.539063	0.079834	-0.351318
787.0	15.181096	3.107292	11.901767	1.114507	4.077434	-2.427244	-0.522949	0.05835	-0.375977
788.0	15.605096	3.280526	11.893562	1.091267	4.090773	-2.423577	-0.502197	0.034424	-0.402832
789.0	16.057592	3.50997	11.452186	1.033403	4.1072	-2.375348	-0.477783	0.021484	-0.425293
790.0	16.430155	3.426047	10.674613	0.940854	4.125926	-2.289246	-0.465576	-0.004639	-0.443115
791.0	16.333132	2.911866	9.296136	0.844184	4.138317	-2.178427	-0.436768	-0.015137	-0.456543
792.0	15.925259	2.148593	7.398174	0.783514	4.083485	-2.039436	-0.412109	-0.032471	-0.474609
793.0	15.610132	0.966996	5.434346	0.819479	3.952109	-1.876002	-0.395996	-0.052002	-0.483154
794.0	15.562415	-0.612536	3.411545	0.972028	3.712117	-1.722653	-0.373779	-0.060547	-0.496826
795.0	15.486699	-2.195824	1.535242	1.214666	3.3553	-1.613395	-0.358154	-0.066895	-0.496582
796.0	15.463211	-3.656446	-0.761168	1.465789	2.8914	-1.528347	-0.342041	-0.084229	-0.496338
797.0	15.628809	-5.196534	-3.288936	1.664526	2.339361	-1.453021	-0.330811	-0.093018	-0.503174
798.0	16.011661	-6.531722	-5.327684	1.76836	1.719108	-1.371425	-0.321533	-0.108154	-0.498291
799.0	16.226593	-6.199257	-6.194111	1.692156	1.017777	-1.254772	-0.3125	-0.112549	-0.493652
800.0	15.876321	-3.647841	-5.523739	1.267208	0.227639	-1.044998	-0.312012	-0.123535	-0.493408
801.0	15.718794	-0.690316	-4.102257	0.430813	-0.536397	-0.741903	-0.310059	-0.119141	-0.489014
802.0	16.195535	0.492911	-2.605529	-0.554445	-1.123408	-0.492231	-0.316406	-0.123535	-0.479736
803.0	11.042468	5.233264	7.988141	-1.996774	-1.843696	-0.348591	-0.318848	-0.116943	-0.479736
804.0	-0.419092	0.782334	7.00693	-1.522392	-3.617352	0.128704	-0.338867	-0.108398	-0.468506
805.0	-1.878651	1.396771	16.523403	-1.466671	-2.401432	-0.42453	-0.343506	-0.099609	-0.459717
806.0	-9.442489	11.281612	5.639307	-2.276829	-3.378581	0.302825	-0.350342	-0.093262	-0.450684
807.0	4.957023	-0.773831	4.93154	-2.586312	-4.000769	1.007332	-0.366455	-0.078125	-0.437256
808.0	19.150929	-4.439922	10.252744	-2.564916	-3.821021	0.998695	-0.377441	-0.071777	-0.419189
809.0	16.127315	-6.484973	13.034313	-1.769123	-3.3277	0.467889	-0.38916	-0.056396	-0.410156
810.0	7.982364	-4.62162	13.067525	-1.2204	-3.268433	0.512765	-0.393555	-0.054443	-0.398926
811.0	9.927581	-4.908167	12.62912	-1.03443	-3.297742	0.906548	-0.409424	-0.043701	-0.385498
812.0	13.481491	-2.381094	12.700315	-0.675443	-3.029917	0.966313	-0.418213	-0.041504	-0.367188
813.0	13.656424	2.463549	10.545535	-0.442007	-2.628431	0.765132	-0.420898	-0.030762	-0.358398
814.0	10.519739	3.466661	9.560547	-0.430376	-2.325143	0.555112	-0.429443	-0.030762	-0.344727
815.0	7.058964	5.051515	11.346344	-0.381611	-2.20621	0.286434	-0.436279	-0.02417	-0.337891
816.0	24.575896	8.682316	9.162355	-1.089278	-1.347888	0.222107	-0.440918	-0.02002	-0.331055
817.0	6.850543	-1.272636	9.394627	-0.808121	-0.967649	0.576476	-0.438965	-0.017822	-0.331299
818.0	7.766187	-0.91628	9.829911	-0.538132	-0.82932	0.424605	-0.443359	-0.013428	-0.331299
819.0	7.509075	1.838919	9.032669	-0.4213	-0.70746	0.381224	-0.443359	-0.013428	-0.319824
820.0	6.719072	2.255646	8.89345	-0.412959	-0.595686	0.408088	-0.445801	-0.009033	-0.322266
821.0	6.610695	1.77439	8.869302	-0.378507	-0.511006	0.396859	-0.441895	-0.000244	-0.317871
822.0	7.063725	1.199865	9.026616	-0.30507	-0.426085	0.37564	-0.446045	-0.002441	-0.317871
823.0	6.340403	0.639797	9.167022	-0.244054	-0.36869	0.3134	-0.444092	0.003906	-0.315674
824.0	8.150728	-1.598036	10.099558	-0.04292	-0.254604	0.230341	-0.446045	-0.004639	-0.317871
825.0	5.055609	1.137706	8.756325	0.005263	-0.269203	0.075327	-0.457275	0.001709	-0.313232
826.0	6.141371	1.853049	8.981936	0.017767	-0.260201	0.06221	-0.452881	0.001709	-0.313232
827.0	5.934572	1.742832	8.965685	0.000209	-0.224829	0.015491	-0.452881	0.006104	-0.308838
828.0	5.868604	2.178353	8.710974	-0.001592	-0.225707	-0.00423	-0.452637	-0.000488	-0.306396
829.0	5.977436	2.26189	8.765602	-0.014129	-0.205348	-0.009925	-0.450439	-0.000488	-0.308838
830.0	5.914555	2.164191	8.608617	-0.020745	-0.170165	-0.004122	-0.452393	-0.00708	-0.306396
831.0	5.855747	2.217488	8.557592	-0.031188	-0.164269	-0.005345	-0.452881	0.006104	-0.311035
832.0	5.835841	2.033203	8.58123	-0.034709	-0.151701	-0.003205	-0.452881	0.001709	-0.304199
833.0	5.875567	1.983544	8.577308	-0.035635	-0.136192	-0.009215	-0.452881	0.001709	-0.304199
834.0	5.798272	1.956842	8.434545	-0.038604	-0.123279	-0.0178	-0.455078	0.003906	-0.304199
835.0	5.831771	1.962467	8.512427	-0.030339	-0.131848	-0.019238	-0.461426	0.001709	-0.306396
836.0	5.946679	1.84199	8.621289	-0.018806	-0.118704	-0.033576	-0.450684	0.001709	-0.306396
837.0	5.872367	1.961087	8.472278	-0.00881	-0.110173	-0.049906	-0.455078	0.003906	-0.308838
838.0	5.892963	2.133567	8.44058	-0.009375	-0.10818	-0.050511	-0.459229	0.001709	-0.297363
839.0	5.758921	2.214143	8.403588	-0.019662	-0.107414	-0.041809	-0.455078	0.003906	-0.306641
840.0	5.786403	2.325904	8.382795	-0.025538	-0.10291	-0.021601	-0.454834	-0.000488	-0.299561
841.0	5.782469	2.326729	8.345522	-0.045033	-0.103993	-0.002234	-0.459229	0.001709	-0.304199
842.0	5.870375	2.235515	8.431872	-0.05788	-0.104784	0.0154	-0.450439	-0.000488	-0.304199
843.0	5.887606	2.243711	8.388339	-0.065589	-0.102034	0.028038	-0.453125	0.008301	-0.297607
844.0	5.910333	2.391803	8.338502	-0.086877	-0.107244	0.051179	-0.457031	-0.002686	-0.294922
845.0	6.00791	2.308546	8.386239	-0.091218	-0.106032	0.074652	-0.459717	0.008301	-0.304443
846.0	5.964838	2.102083	8.420957	-0.100219	-0.089482	0.091368	-0.455078	0.003906	-0.297363
847.0	5.987859	2.230862	8.353023	-0.111119	-0.073263	0.101266	-0.459473	0.006104	-0.299805
848.0	5.870588	2.396721	8.196368	-0.124813	-0.057709	0.13866	-0.457275	0.001709	-0.304199
849.0	5.873375	2.2348	8.201795	-0.134097	-0.060257	0.174191	-0.457275	0.006104	-0.295166
850.0	5.858004	2.305957	8.109287	-0.152869	-0.067798	0.198962	-0.457275	0.006104	-0.295166
851.0	5.90212	2.188034	8.141224	-0.169451	-0.081166	0.221778	-0.459717	0.012695	-0.292969
852.0	5.97196	2.073437	8.25656	-0.183228	-0.095896	0.241227	-0.459717	0.010498	-0.302002
853.0	5.96674	1.851995	8.407713	-0.199727	-0.095293	0.247997	-0.453369	0.012695	-0.29541
854.0	5.990217	1.641859	8.492106	-0.217756	-0.106595	0.236144	-0.462158	0.014893	-0.302246
855.0	6.004544	1.696904	8.461849	-0.223187	-0.116513	0.212366	-0.461914	0.012695	-0.302246
856.0	6.013265	1.924489	8.437351	-0.239611	-0.106899	0.205915	-0.462402	0.02124	-0.302246
857.0	5.878467	2.159578	8.436275	-0.256302	-0.0736	0.212434	-0.460205	0.019043	-0.302246
858.0	5.88667	2.189231	8.541484	-0.280317	-0.048989	0.232641	-0.460205	0.019043	-0.29541
859.0	5.958317	1.821045	8.812221	-0.284012	-0.025429	0.241064	-0.462646	0.025635	-0.295654
860.0	5.86078	1.379912	8.894359	-0.264558	-0.015074	0.221169	-0.462402	0.023438	-0.297852
861.0	5.887089	1.340543	9.130599	-0.21411	-0.032559	0.178939	-0.462402	0.023438	-0.300049
862.0	5.60418	1.237587	9.346841	-0.106529	-0.095561	0.176935	-0.460205	0.023438	-0.297852
863.0	5.324707	1.976346	9.758098	-0.027433	-0.214478	0.240887	-0.464844	0.027832	-0.291016
864.0	4.542144	0.301093	10.858417	0.151206	-0.470246	0.298297	-0.462891	0.032227	-0.293457
865.0	3.429005	2.891752	12.212739	0.110693	-0.899655	0.286807	-0.463135	0.036621	-0.284424
866.0	4.852529	0.839783	11.0923	-0.004636	-1.361615	0.33997	-0.467041	0.030029	-0.272949
867.0	5.214391	2.423735	10.964567	0.170595	-1.679944	0.382967	-0.476318	0.040771	-0.263916
868.0	5.711163	0.277388	11.265488	0.148952	-2.071052	0.420856	-0.476074	0.036377	-0.250244
869.0	5.388779	0.126998	11.451463	0.339478	-2.492983	0.395304	-0.480713	0.040771	-0.234375
870.0	5.308047	1.027113	12.035685	0.449374	-2.980621	0.39369	-0.482666	0.03833	-0.218262
871.0	5.63932	-0.152499	11.357887	0.50106	-3.499499	0.413351	-0.485352	0.047119	-0.195557
872.0	5.677669	0.981257	11.829759	0.695803	-3.95364	0.298252	-0.489502	0.042725	-0.172852
873.0	5.395392	1.975304	12.241905	0.676432	-4.473705	0.298655	-0.487549	0.049072	-0.145508
874.0	5.863623	2.040442	12.021642	0.713045	-5.084165	0.348233	-0.48999	0.055664	-0.11377
875.0	7.606875	3.184194	13.351467	0.696242	-5.709285	0.401808	-0.483643	0.059814	-0.07959
876.0	7.470887	6.121109	12.982622	0.714598	-6.313664	0.662515	-0.479736	0.066406	-0.043457
877.0	11.203548	6.771711	13.486761	0.642757	-6.624489	1.068522	-0.477783	0.072754	0.004395
878.0	9.46767	4.931012	13.625448	1.044079	-6.821899	1.36419	-0.462891	0.081543	0.033691
879.0	11.46732	7.492566	14.369383	1.239962	-7.034859	1.641308	-0.450684	0.103271	0.07666
880.0	13.531726	7.91361	14.964655	1.188716	-6.88518	2.06619	-0.433594	0.107666	0.11084
881.0	15.323342	8.489179	15.524818	1.046994	-6.299319	2.346966	-0.412598	0.127441	0.146729
882.0	8.507985	6.903647	14.478775	0.870063	-5.791654	2.652993	-0.38916	0.140625	0.171631
883.0	0.875517	8.008059	13.470542	0.700509	-5.683234	2.947245	-0.375	0.164551	0.205322
884.0	-8.040672	8.939305	10.815651	0.291673	-5.986933	3.16685	-0.345215	0.180176	0.227783
885.0	15.110644	1.091905	4.764045	0.509433	-6.078508	3.010787	-0.328125	0.188721	0.254883
886.0	26.37111	5.863647	15.977574	0.749348	-3.139765	2.181303	-0.311279	0.201904	0.256836
887.0	20.036393	5.149793	16.28095	1.033729	-0.084887	1.030987	-0.314209	0.219482	0.25415
888.0	10.716592	8.265795	15.362847	1.06603	2.407477	0.226481	-0.320557	0.217285	0.240723
889.0	2.334546	8.017291	12.063377	0.761851	3.668527	0.051008	-0.331787	0.223877	0.215332
890.0	-3.226813	7.211907	9.522034	0.501757	4.081371	0.257057	-0.338135	0.22168	0.201904
891.0	-5.485873	5.315113	7.610785	0.369203	4.04783	0.564465	-0.34082	0.230469	0.178955
892.0	-5.1856	2.67006	6.596063	0.421404	3.77324	0.75412	-0.344971	0.228271	0.160645
893.0	-3.415655	1.178073	6.300037	0.724887	3.541002	0.751938	-0.334229	0.230469	0.135498
894.0	-0.822646	0.135214	6.483627	1.210777	3.474274	0.563637	-0.327881	0.230713	0.108154
895.0	2.225759	0.194559	7.019275	1.786192	3.58481	0.219788	-0.30835	0.23291	0.087646
896.0	4.725461	1.996219	7.574318	2.254383	3.870323	-0.171782	-0.28418	0.22876	0.073975
897.0	6.425677	4.111283	7.784347	2.372818	4.224774	-0.549083	-0.255371	0.222412	0.060303
898.0	7.341923	5.780682	7.564219	2.162918	4.599709	-0.87109	-0.236084	0.227051	0.064941
899.0	7.545909	6.137692	7.466809	1.741483	4.849879	-1.139194	-0.203613	0.231445	0.069336
900.0	7.482399	5.369189	7.544374	1.266717	4.93503	-1.36906	-0.192871	0.240234	0.0896
901.0	7.510056	3.982738	7.686926	0.918413	4.878418	-1.583361	-0.187012	0.253418	0.112061
902.0	7.9106	2.575061	8.032269	0.770803	4.729056	-1.801283	-0.197998	0.255371	0.125732
903.0	8.709343	1.519345	8.515499	0.769198	4.553522	-2.021396	-0.220703	0.272705	0.134521
904.0	9.791579	1.074024	8.928886	0.867718	4.402581	-2.212253	-0.246826	0.272461	0.143799
905.0	10.921121	1.244351	9.14367	1.00272	4.296565	-2.340184	-0.262451	0.28125	0.134521
906.0	11.991288	1.753705	9.715143	1.116175	4.232113	-2.413399	-0.283936	0.274658	0.12085
907.0	12.99553	2.337288	10.191593	1.169295	4.218631	-2.445886	-0.304199	0.289795	0.116211
908.0	13.507965	2.902592	10.719584	1.145792	4.219364	-2.464454	-0.323975	0.291748	0.095703
909.0	13.687183	3.377269	11.265253	1.068029	4.200751	-2.478139	-0.346191	0.302734	0.079346
910.0	14.174204	3.608632	11.992164	0.999116	4.158486	-2.509988	-0.381348	0.309082	0.056641
911.0	15.298015	3.723973	12.470759	0.952721	4.128321	-2.573931	-0.415039	0.326416	0.010742
912.0	16.340132	4.034664	12.722961	0.928627	4.124662	-2.664677	-0.451904	0.324219	-0.039307
913.0	17.209915	4.357422	12.813103	0.890258	4.120069	-2.775668	-0.489014	0.321777	-0.107666
914.0	18.364972	4.612692	12.571875	0.808596	4.118692	-2.876534	-0.505615	0.304443	-0.177979
915.0	19.738808	4.620928	11.550245	0.697781	4.131898	-2.928366	-0.504395	0.278564	-0.259521
916.0	20.687596	3.902732	9.942052	0.613324	4.177698	-2.903052	-0.48999	0.248291	-0.322754
917.0	20.681323	1.978182	7.483127	0.62076	4.202677	-2.818801	-0.45166	0.218018	-0.367676
918.0	19.746888	-0.545199	4.88348	0.818146	4.144787	-2.70632	-0.419434	0.181152	-0.405762
919.0	18.237654	-3.226839	2.413345	1.137812	3.897526	-2.590842	-0.375244	0.168457	-0.421631
920.0	17.371651	-5.368222	-0.205158	1.472893	3.44032	-2.512517	-0.356934	0.148926	-0.416504
921.0	17.799485	-6.363262	-3.178002	1.693024	2.890947	-2.391988	-0.330322	0.142578	-0.416504
922.0	19.590578	-7.628026	-6.649063	1.709336	2.333288	-2.179194	-0.318848	0.129395	-0.409424
923.0	21.075768	-8.745877	-9.198575	1.514423	1.775329	-1.904578	-0.314453	0.127197	-0.402588
924.0	20.576582	-8.255205	-9.931324	1.098234	1.143807	-1.53476	-0.314453	0.125	-0.391113
925.0	18.130611	-5.836504	-8.39953	0.438181	0.312506	-1.021142	-0.308105	0.131592	-0.38208
926.0	16.315815	-3.092884	-6.074582	-0.392005	-0.610641	-0.429602	-0.306152	0.135986	-0.368652
927.0	8.243785	5.806507	9.088565	-1.948012	-1.717909	0.068925	-0.305176	0.162109	-0.346191
928.0	0.338054	-0.521101	9.06133	-1.267054	-3.428484	0.605336	-0.314453	0.175049	-0.325928
929.0	-1.437267	1.95609	17.329063	-1.328015	-2.087153	-0.125606	-0.310791	0.192627	-0.30127
930.0	-14.27517	15.53805	4.794311	-2.349434	-3.201146	0.481005	-0.326904	0.20752	-0.271973
931.0	2.998696	1.048457	1.619941	-2.909216	-4.293267	1.257858	-0.327637	0.227295	-0.242676
932.0	19.755073	-3.912966	10.257217	-2.95283	-4.334772	0.933399	-0.332764	0.244629	-0.19751
933.0	19.215688	-6.501322	12.377112	-1.924957	-3.850896	-0.089387	-0.340088	0.263916	-0.161377
934.0	10.402584	-1.530306	13.175199	-1.500794	-3.667442	0.077397	-0.351563	0.276855	-0.13208
935.0	12.379543	-4.729957	13.425446	-1.416779	-3.415075	0.744545	-0.345703	0.292236	-0.102783
936.0	16.034288	-2.931235	12.311286	-1.08835	-2.909889	0.931602	-0.345947	0.296387	-0.073242
937.0	12.791661	1.045156	10.5947	-0.811854	-2.454803	0.769333	-0.34668	0.313965	-0.052979
938.0	8.484211	2.206311	9.74737	-0.615349	-2.307483	0.448578	-0.34668	0.313965	-0.039307
939.0	14.811384	13.961364	12.245868	-1.042619	-2.16656	0.032537	-0.349365	0.324707	-0.016602
940.0	17.719675	-1.393917	7.714184	-1.233715	-0.931556	0.645138	-0.351807	0.331299	-0.012207
941.0	5.570928	-3.643692	11.047543	-0.897926	-0.997441	0.619571	-0.341064	0.333496	-0.003174
942.0	8.401197	-1.362561	9.489129	-0.501169	-0.900849	0.303993	-0.345459	0.335693	0.003662
943.0	7.402778	1.271821	9.651093	-0.401611	-0.796714	0.286963	-0.348145	0.344238	0.010254
944.0	6.492581	2.023565	8.880488	-0.376022	-0.700126	0.297857	-0.3479	0.339844	0.010254
945.0	6.485747	1.852794	8.857981	-0.335444	-0.634393	0.305669	-0.339355	0.344238	0.014893
946.0	7.342929	0.705073	9.312081	-0.258376	-0.519102	0.297311	-0.34375	0.346436	0.019287
947.0	6.571563	0.688535	9.205913	-0.181456	-0.426058	0.235012	-0.3396	0.35083	0.030518
948.0	7.622957	0.137672	9.341977	-0.092261	-0.366062	0.179396	-0.341797	0.35083	0.030518
949.0	5.497394	0.503771	9.445255	-0.002994	-0.22191	0.10994	-0.337402	0.348633	0.035156
950.0	6.081233	2.517733	8.739505	0.011113	-0.270045	0.041882	-0.337402	0.348633	0.032959
951.0	5.827297	2.177553	8.809037	-0.03027	-0.219846	0.057416	-0.335449	0.353027	0.035156
952.0	6.063625	2.375755	8.648609	-0.037987	-0.20343	0.060783	-0.337402	0.346436	0.037598
953.0	5.957832	2.21149	8.704181	-0.040513	-0.16374	0.073029	-0.337646	0.353027	0.037354
954.0	6.013169	2.057538	8.650164	-0.03997	-0.143748	0.076052	-0.335205	0.348633	0.030762
955.0	5.861502	1.783471	8.750313	-0.03115	-0.117886	0.067341	-0.340088	0.357422	0.039551
956.0	5.881177	1.796044	8.613966	-0.03106	-0.121102	0.045914	-0.335449	0.35083	0.041992
957.0	5.895386	1.850887	8.5382	-0.028817	-0.118049	0.02357	-0.333252	0.353027	0.037354
958.0	5.96492	1.906123	8.644804	-0.021686	-0.11231	0.001282	-0.339844	0.353027	0.039795
959.0	5.930758	1.895168	8.672018	-0.019787	-0.086581	-0.019926	-0.337891	0.361816	0.037354
960.0	5.829653	2.045345	8.499118	-0.01679	-0.082869	-0.025999	-0.337646	0.353027	0.041992
961.0	5.80953	2.165398	8.441728	-0.016722	-0.077829	-0.02878	-0.331055	0.353027	0.037354
962.0	5.797799	2.299668	8.346064	-0.023817	-0.074831	-0.019883	-0.331055	0.353027	0.044189
963.0	5.825631	2.382373	8.287209	-0.037206	-0.072304	0.00487	-0.328857	0.353027	0.044189
964.0	5.871349	2.241944	8.349095	-0.037189	-0.064088	0.023507	-0.331055	0.353027	0.044189
965.0	5.860933	2.097866	8.320778	-0.04424	-0.054642	0.030389	-0.331055	0.355225	0.044189
966.0	5.898442	2.110295	8.456007	-0.044309	-0.053254	0.031128	-0.333008	0.348633	0.05127
967.0	5.840529	2.160477	8.353032	-0.04579	-0.053774	0.038445	-0.331299	0.359619	0.053223
968.0	5.859281	2.233361	8.445944	-0.046459	-0.051332	0.050679	-0.333252	0.355225	0.041992
969.0	5.851598	2.145905	8.349041	-0.058754	-0.052856	0.076639	-0.329102	0.355225	0.048828
970.0	5.899908	2.145699	8.314416	-0.060805	-0.045889	0.093427	-0.333252	0.353027	0.051025
971.0	5.806146	2.049304	8.304261	-0.067084	-0.047808	0.108523	-0.331543	0.361816	0.053223
972.0	5.798711	2.076291	8.422531	-0.069573	-0.054983	0.11441	-0.328857	0.353027	0.048828
973.0	5.825856	2.087953	8.43431	-0.085271	-0.07483	0.12268	-0.329346	0.364014	0.050781
974.0	5.796564	1.936051	8.431648	-0.097494	-0.091557	0.126218	-0.329102	0.357422	0.055664
975.0	5.705276	2.136316	8.395566	-0.111821	-0.118747	0.128396	-0.327148	0.361816	0.051025
976.0	5.764499	2.188432	8.288577	-0.124568	-0.147925	0.141645	-0.329102	0.357422	0.057861
977.0	5.728503	2.214782	8.102959	-0.141419	-0.175848	0.14767	-0.327148	0.364014	0.057617
978.0	5.726086	2.195536	8.121948	-0.1589	-0.213464	0.164887	-0.327148	0.364014	0.062256
979.0	5.724908	2.200492	8.180232	-0.178066	-0.245082	0.180316	-0.327393	0.366211	0.060059
980.0	5.8595	2.240639	8.45181	-0.217708	-0.262667	0.196321	-0.327148	0.364014	0.064453
981.0	5.850922	2.187428	8.657177	-0.261658	-0.273399	0.208176	-0.325195	0.368408	0.064453
982.0	6.011719	1.787043	8.886595	-0.286408	-0.265156	0.197761	-0.324951	0.364014	0.066895
983.0	6.035533	1.421163	9.115255	-0.286103	-0.252229	0.170172	-0.320801	0.368408	0.071289
984.0	6.027475	1.350786	9.298928	-0.272247	-0.26044	0.132683	-0.325195	0.368164	0.071289
985.0	5.779384	1.144693	9.650562	-0.154013	-0.303803	0.109644	-0.325195	0.370361	0.075928
986.0	5.212703	0.693558	10.411557	0.018151	-0.471514	0.131526	-0.32959	0.368164	0.082764
987.0	5.279684	1.41308	10.361297	0.179388	-0.678927	0.145074	-0.325439	0.372559	0.089355
988.0	3.459409	3.089506	12.161898	0.010351	-1.081692	0.17759	-0.331543	0.365967	0.091797
989.0	5.312402	0.876736	10.84215	0.106559	-1.471388	0.249209	-0.325195	0.370361	0.093994
990.0	5.983105	1.415083	10.660728	0.23591	-1.76517	0.260166	-0.331543	0.365967	0.103271
991.0	5.268974	-0.257054	11.459742	0.264046	-2.102739	0.198113	-0.338135	0.36377	0.110107
992.0	5.356196	0.523201	11.7378	0.452435	-2.570279	0.117987	-0.340332	0.36377	0.128418
993.0	5.266652	1.410162	12.248212	0.612607	-3.080516	0.162463	-0.336182	0.36792	0.141846
994.0	5.147461	1.011493	11.700908	0.671472	-3.667768	0.197917	-0.342041	0.354736	0.158203
995.0	5.072682	1.719129	11.774444	0.767881	-4.211955	0.099061	-0.340088	0.359131	0.17627
996.0	5.076967	1.800153	12.370548	0.767192	-4.781902	0.086227	-0.342041	0.356934	0.199219
997.0	6.773277	2.792464	13.532892	0.78215	-5.534748	0.124105	-0.339844	0.352539	0.224365
998.0	6.730712	4.590556	14.01383	0.875775	-6.252599	0.239494	-0.330811	0.348145	0.256348
999.0	9.490475	7.05152	15.403754	0.853524	-6.824475	0.614514	-0.330811	0.345947	0.28833
1000.0	8.195362	4.876867	14.463514	0.953769	-7.142654	0.941729	-0.321777	0.34375	0.317871
1001.0	12.355121	7.015063	16.703688	1.139287	-7.508845	1.2373	-0.297852	0.34375	0.343018
1002.0	13.613819	7.711823	15.923189	1.11103	-7.507378	1.704145	-0.291016	0.334961	0.375
1003.0	16.652007	8.214169	17.858176	1.071656	-6.992186	2.077164	-0.282227	0.334961	0.397705
1004.0	11.256547	9.716078	17.223715	0.866434	-6.216674	2.413815	-0.269043	0.332764	0.425293
1005.0	1.218751	10.375214	16.185287	0.48612	-5.937403	2.936673	-0.251709	0.334961	0.454834
1006.0	-10.75624	10.840024	12.817704	-0.016677	-6.213586	3.186137	-0.242188	0.319824	0.487061
1007.0	11.735508	2.255836	6.456988	0.070459	-6.310819	2.949459	-0.222656	0.319824	0.50293
1008.0	26.465541	6.00381	18.642207	0.264106	-3.089242	2.108747	-0.237305	0.308838	0.516846
1009.0	18.804457	4.9323	19.158858	0.602859	0.344336	0.893153	-0.27417	0.299805	0.514648
1010.0	8.108738	7.908599	17.32659	0.845194	3.044944	0.123542	-0.321777	0.292969	0.499023
1011.0	-1.364964	7.789147	13.612278	0.739216	4.212096	0.061756	-0.367188	0.281738	0.47876
1012.0	-6.376621	6.75644	10.705642	0.559449	4.523134	0.357535	-0.414551	0.272949	0.462891
1013.0	-7.486943	4.063041	8.89228	0.521457	4.384514	0.671976	-0.458008	0.268311	0.431152
1014.0	-5.829098	2.241791	7.861592	0.707017	4.131612	0.836184	-0.494873	0.261475	0.408691
1015.0	-2.677545	1.009919	7.370985	1.087492	4.041322	0.802896	-0.53418	0.261475	0.372314
1016.0	0.753479	0.985714	7.549502	1.589256	4.176371	0.557081	-0.571045	0.259033	0.335938
1017.0	3.952038	2.470665	8.127951	2.059836	4.505402	0.188649	-0.60376	0.256836	0.292725
1018.0	6.45966	4.459397	8.414275	2.222351	4.941426	-0.238539	-0.629639	0.250244	0.238037
1019.0	7.892014	6.008096	8.00929	2.060024	5.360676	-0.654211	-0.657715	0.243652	0.178955
1020.0	8.30995	6.44406	7.726571	1.698014	5.68252	-0.99834	-0.670166	0.228516	0.124512
1021.0	8.412077	5.645065	7.513175	1.28961	5.812365	-1.252581	-0.679932	0.206787	0.061279
1022.0	8.681086	3.982314	7.42241	1.033361	5.761488	-1.45806	-0.687744	0.187256	0.013672
1023.0	9.337193	2.616109	7.568264	0.97676	5.596282	-1.630411	-0.683105	0.176514	-0.047607
1024.0	10.068567	1.667929	8.335197	1.05795	5.349509	-1.801081	-0.671143	0.154785	-0.088135
1025.0	10.855739	1.119695	8.992425	1.190623	5.080965	-1.94935	-0.65332	0.14624	-0.12915
1026.0	11.850483	1.006772	9.143252	1.400392	4.813374	-2.002002	-0.64624	0.133301	-0.16748
1027.0	12.507688	1.404193	9.352598	1.620584	4.593468	-1.95815	-0.624268	0.12915	-0.199463
1028.0	13.195489	2.272186	10.022754	1.7972	4.394431	-1.874587	-0.608398	0.114014	-0.226563
1029.0	14.292055	3.188431	10.938118	1.882663	4.223514	-1.787612	-0.591064	0.116455	-0.256104
1030.0	15.749784	4.206643	12.065262	1.893175	4.119856	-1.771257	-0.57959	0.10791	-0.278809
1031.0	17.369347	5.046562	12.924244	1.833775	4.121539	-1.853972	-0.559814	0.10376	-0.30835
1032.0	18.764773	5.733361	13.355945	1.711888	4.216235	-2.039225	-0.552734	0.088379	-0.328613
1033.0	20.008834	5.872377	13.132168	1.537019	4.363859	-2.299723	-0.52832	0.082275	-0.355957
1034.0	20.644735	5.586369	11.979908	1.311349	4.504779	-2.581773	-0.523926	0.077881	-0.374023
1035.0	19.835946	4.593482	10.139405	1.081885	4.567475	-2.788905	-0.501465	0.064941	-0.401123
1036.0	18.252124	2.82105	8.132294	0.923614	4.452889	-2.891701	-0.498535	0.047607	-0.425781
1037.0	17.053986	0.508564	6.241288	0.891235	4.14806	-2.916199	-0.487061	0.034668	-0.450684
1038.0	16.51582	-1.761122	4.675419	0.991345	3.704312	-2.93063	-0.47998	0.023926	-0.466553
1039.0	17.027169	-3.271015	3.089992	1.152451	3.201561	-2.96715	-0.466309	0.012939	-0.486816
1040.0	18.562171	-3.679133	0.977866	1.237851	2.733293	-2.967081	-0.456543	-0.015137	-0.5
1041.0	20.066629	-3.834761	-1.911091	1.147854	2.345414	-2.877592	-0.447266	-0.023926	-0.508789
1042.0	21.191984	-4.679168	-5.158704	0.895073	2.000637	-2.661111	-0.440186	-0.034668	-0.524658
1043.0	21.205017	-6.140949	-7.565578	0.633833	1.578779	-2.314465	-0.435547	-0.043457	-0.533447
1044.0	19.667581	-7.011393	-8.360316	0.411697	0.955908	-1.860349	-0.430908	-0.052002	-0.535645
1045.0	17.707103	-6.103307	-7.502356	0.161037	0.123719	-1.326478	-0.433105	-0.049805	-0.540283
1046.0	17.027048	-4.1622	-5.939454	-0.191765	-0.736475	-0.79223	-0.443604	-0.056396	-0.540039
1047.0	18.305623	-2.41757	-3.83551	-0.631122	-1.361382	-0.402781	-0.450684	-0.045654	-0.528809
1048.0	19.488938	-0.959311	-1.582285	-1.049686	-1.672218	-0.234053	-0.459717	-0.04126	-0.526611
1049.0	-5.950836	11.572996	22.968955	-1.686424	-1.734577	-0.095819	-0.466553	-0.030518	-0.529297
1050.0	8.453788	7.008226	21.940102	-1.389159	-2.465035	-0.135707	-0.477539	-0.028564	-0.50415
1051.0	-13.595142	4.567196	15.261766	-1.858903	-1.047453	-0.592043	-0.489014	-0.017578	-0.506592
1052.0	-25.048494	7.033678	-2.849214	-2.583478	-3.382597	0.636022	-0.503174	0.00415	-0.48877
1053.0	3.15503	-3.55498	4.634309	-2.923116	-4.927048	1.367387	-0.525879	0.027832	-0.46875
1054.0	26.143934	-7.581278	11.719783	-2.691469	-4.271646	0.733911	-0.543701	0.03418	-0.446045
1055.0	19.066298	-5.668289	11.969631	-1.559558	-3.47582	-0.127673	-0.563721	0.042725	-0.421143
1056.0	6.337292	-0.71117	12.684131	-1.380471	-3.357227	0.506069	-0.574951	0.051514	-0.403076
1057.0	9.33653	-5.082927	13.410806	-1.311115	-3.280458	1.129792	-0.579834	0.062256	-0.382813
1058.0	13.201063	-1.350567	11.422614	-0.986102	-2.987796	1.055038	-0.591309	0.072998	-0.364746
1059.0	12.054575	3.746152	9.770408	-0.810289	-2.685678	0.845468	-0.598389	0.085938	-0.349121
1060.0	9.703305	2.947939	9.830024	-0.714344	-2.49457	0.56283	-0.607178	0.090332	-0.328613
1061.0	19.830477	15.073199	12.425182	-1.305108	-2.233681	0.149913	-0.609619	0.094727	-0.31958
1062.0	15.663993	-3.834243	8.696698	-1.212853	-0.89646	0.75022	-0.610107	0.103271	-0.315186
1063.0	7.053843	-5.386895	11.667571	-0.76584	-0.982495	0.580428	-0.610352	0.109863	-0.303955
1064.0	8.702891	-0.516485	9.492056	-0.374767	-0.785431	0.288941	-0.621338	0.112061	-0.306152
1065.0	7.36441	2.421013	9.391874	-0.361536	-0.678145	0.288857	-0.617188	0.116455	-0.301758
1066.0	7.083662	1.042013	9.295898	-0.330694	-0.556731	0.304474	-0.621582	0.116211	-0.29248
1067.0	7.209229	0.98447	9.312114	-0.236028	-0.430914	0.283366	-0.619629	0.122803	-0.294922
1068.0	6.173089	1.295108	9.099778	-0.181886	-0.355914	0.239688	-0.62207	0.127197	-0.279053
1069.0	6.072404	1.229374	9.263493	-0.12359	-0.32803	0.185152	-0.619873	0.127197	-0.290527
1070.0	6.261643	1.247471	9.272844	-0.099979	-0.285388	0.132845	-0.628418	0.127197	-0.283691
1071.0	6.106068	1.515802	9.104646	-0.091725	-0.237093	0.094647	-0.624268	0.127197	-0.290527
1072.0	6.092424	1.59459	9.05752	-0.069552	-0.197245	0.068231	-0.626221	0.125	-0.276855
1073.0	6.145291	1.407577	9.110291	-0.043656	-0.159398	0.05418	-0.624268	0.127197	-0.283691
1074.0	5.659583	2.001106	8.790718	-0.036497	-0.13576	0.032268	-0.626465	0.129395	-0.276855
1075.0	5.873164	2.131423	8.750723	-0.039354	-0.119602	0.041404	-0.622314	0.135986	-0.281494
1076.0	5.757784	1.854744	8.759634	-0.040323	-0.096985	0.035469	-0.624268	0.131592	-0.279297
1077.0	5.797725	1.951062	8.663767	-0.036429	-0.077947	0.024606	-0.626465	0.129395	-0.279053
1078.0	5.647939	1.896326	8.614734	-0.03208	-0.075906	0.015538	-0.626465	0.129395	-0.276855
1079.0	5.71734	2.00364	8.546747	-0.027154	-0.075854	0.007075	-0.628662	0.131592	-0.274658
1080.0	5.592441	2.165639	8.419458	-0.026695	-0.077755	0.000564	-0.628662	0.129395	-0.274658
1081.0	5.587634	2.093234	8.430371	-0.017166	-0.093635	-0.003076	-0.626465	0.131592	-0.281494
1082.0	5.711742	2.117876	8.4812	-0.017477	-0.094529	0.001922	-0.624268	0.129395	-0.276855
1083.0	5.683364	2.133904	8.489952	-0.011444	-0.084419	0.005602	-0.624268	0.131592	-0.276855
1084.0	5.654801	2.149777	8.498942	-0.01203	-0.086193	0.015608	-0.628662	0.129395	-0.274658
1085.0	5.655526	2.143127	8.350051	-0.006295	-0.08705	0.029806	-0.624268	0.127197	-0.276855
1086.0	5.549898	2.237926	8.356009	-0.014379	-0.095847	0.03993	-0.628662	0.129395	-0.27002
1087.0	5.653094	2.192385	8.388575	-0.018388	-0.107233	0.0566	-0.624512	0.135986	-0.270264
1088.0	5.685332	2.112168	8.404655	-0.02239	-0.113582	0.07051	-0.628418	0.127197	-0.27002
1089.0	5.623438	2.227491	8.399004	-0.034576	-0.110811	0.0878	-0.626709	0.133789	-0.267822
1090.0	5.600378	2.149062	8.434735	-0.043592	-0.115857	0.110931	-0.631104	0.133545	-0.272461
1091.0	5.66366	2.085458	8.49806	-0.057994	-0.126977	0.116114	-0.628906	0.137939	-0.272461
1092.0	5.716167	2.04798	8.366208	-0.068256	-0.142094	0.127071	-0.631104	0.135742	-0.267822
1093.0	5.642699	2.273611	8.341099	-0.079473	-0.154735	0.143178	-0.620361	0.140381	-0.265625
1094.0	5.648417	2.255077	8.392552	-0.103809	-0.173739	0.159444	-0.62915	0.140137	-0.268066
1095.0	5.630777	2.185574	8.355241	-0.131922	-0.197075	0.16541	-0.626953	0.142334	-0.263428
1096.0	5.684281	2.092028	8.308766	-0.13793	-0.224488	0.170417	-0.62915	0.140137	-0.26123
1097.0	5.702976	2.028545	8.294864	-0.151464	-0.27079	0.167367	-0.629395	0.148926	-0.259033
1098.0	5.820098	2.076476	8.331491	-0.165928	-0.313595	0.15734	-0.631592	0.144531	-0.259033
1099.0	5.960877	2.040879	8.478654	-0.182149	-0.30885	0.162357	-0.625244	0.148926	-0.254395
1100.0	5.883385	2.067321	8.712604	-0.223805	-0.272386	0.169737	-0.627197	0.146729	-0.252197
1101.0	6.095435	2.122795	8.720277	-0.271355	-0.219042	0.180705	-0.631836	0.151123	-0.252197
1102.0	5.926197	1.938115	8.764579	-0.293259	-0.170317	0.189462	-0.631836	0.15332	-0.247803
1103.0	5.858589	1.796714	8.963676	-0.309523	-0.139428	0.179818	-0.63208	0.157715	-0.254639
1104.0	5.953185	1.485224	9.192089	-0.326632	-0.137553	0.160044	-0.629883	0.157715	-0.243164
1105.0	5.808342	1.511803	9.367453	-0.319917	-0.149771	0.13138	-0.62793	0.161865	-0.243408
1106.0	5.685676	1.419747	9.758113	-0.273569	-0.242738	0.118016	-0.634033	0.155273	-0.240967
1107.0	4.750627	1.046917	10.724054	-0.126596	-0.401998	0.147046	-0.628174	0.16626	-0.241211
1108.0	4.813988	1.257854	10.821226	0.15888	-0.762179	0.219881	-0.634277	0.159668	-0.229736
1109.0	2.500443	4.134166	13.074053	0.052828	-1.21898	0.335381	-0.630371	0.168457	-0.225342
1110.0	4.781939	0.443737	11.94568	0.07922	-1.766227	0.455931	-0.636719	0.16626	-0.216064
1111.0	5.631349	0.963898	11.757374	0.259213	-2.215596	0.46466	-0.639404	0.174805	-0.197998
1112.0	5.046964	-1.189156	12.074893	0.331247	-2.709339	0.415413	-0.637207	0.174805	-0.175293
1113.0	5.024539	0.9165	12.185973	0.550153	-3.287935	0.35182	-0.641846	0.183594	-0.147949
1114.0	4.444815	1.699167	12.788974	0.566688	-3.913833	0.411943	-0.643799	0.178955	-0.127441
1115.0	4.983706	0.460303	12.916704	0.722533	-4.590508	0.373649	-0.644287	0.187744	-0.088867
1116.0	5.389987	2.0052	13.183496	0.727535	-5.258076	0.29211	-0.644287	0.185303	-0.052246
1117.0	6.848437	5.326275	14.111911	0.719672	-6.000427	0.47679	-0.640137	0.194092	-0.011475
1118.0	7.44662	5.834436	13.03233	0.748026	-6.523697	0.808662	-0.627197	0.194092	0.029541
1119.0	10.003225	5.034195	14.89846	0.805267	-7.108956	1.192252	-0.612549	0.209229	0.079346
1120.0	10.274965	4.619238	15.879767	1.255192	-7.362651	1.366206	-0.600098	0.222412	0.131592
1121.0	11.518371	8.547795	16.3546	1.536563	-7.610359	1.735832	-0.577148	0.246338	0.172119
1122.0	14.203996	9.754405	16.185512	1.310597	-7.36028	2.217032	-0.557861	0.257324	0.221924
1123.0	15.561822	9.532842	16.966231	0.889538	-6.613149	2.576767	-0.52832	0.279297	0.255615
1124.0	8.335139	8.479555	15.712579	0.480474	-5.884416	2.918943	-0.509521	0.294434	0.289551
1125.0	-1.72556	8.020961	14.17693	0.226492	-5.662582	3.186291	-0.484619	0.325195	0.318359
1126.0	-10.694234	6.766502	10.013026	0.01809	-6.034356	3.106986	-0.450195	0.336182	0.352295
1127.0	23.991	3.195635	8.906402	0.65345	-5.389505	2.511836	-0.427246	0.360352	0.365479
1128.0	22.975467	6.836912	17.084349	0.677482	-1.99536	1.422647	-0.420654	0.360352	0.370117
1129.0	14.925485	8.993089	18.219824	0.787642	1.062138	0.134707	-0.438965	0.375488	0.358398
1130.0	4.838675	10.140367	15.723029	0.387988	3.246295	-0.437622	-0.464844	0.371094	0.342529
1131.0	-3.307662	7.92395	12.246028	-0.092526	4.010074	-0.411834	-0.484619	0.373291	0.319824
1132.0	-7.496549	5.511003	9.736928	-0.321423	4.119967	-0.129686	-0.515137	0.375244	0.303955
1133.0	-7.563354	2.755154	8.385883	-0.247392	3.872258	0.161435	-0.532959	0.381592	0.27417
1134.0	-5.277301	1.039684	7.797188	0.039779	3.599985	0.28338	-0.557373	0.390381	0.253418
1135.0	-2.365603	0.063794	7.768974	0.499194	3.515009	0.221967	-0.573242	0.40332	0.230469
1136.0	0.946741	-0.048605	8.195096	1.068672	3.661321	-0.005114	-0.601563	0.401123	0.19873
1137.0	4.317102	1.227823	8.902311	1.63698	3.999447	-0.314139	-0.621582	0.411865	0.164307
1138.0	6.863535	3.349229	9.251291	1.900056	4.440011	-0.639878	-0.649902	0.414063	0.123291
1139.0	8.465681	4.866653	8.798095	1.827274	4.907721	-0.930074	-0.671875	0.414063	0.072998
1140.0	8.950538	5.253744	8.190322	1.555214	5.295501	-1.137296	-0.693115	0.403076	0.034668
1141.0	9.044519	4.407706	7.844151	1.268554	5.507728	-1.279557	-0.7146	0.396484	-0.024414
1142.0	9.14089	3.414635	7.807239	1.077876	5.539484	-1.401824	-0.735596	0.376953	-0.087891
1143.0	9.55456	2.568808	8.053445	1.013724	5.439443	-1.518508	-0.739502	0.366211	-0.140137
1144.0	10.185317	2.019632	8.611151	1.016603	5.266231	-1.657092	-0.749512	0.34668	-0.194336
1145.0	11.118603	1.824061	8.98112	1.087949	5.090311	-1.788452	-0.750977	0.327148	-0.244141
1146.0	12.18312	2.177701	9.212172	1.200841	4.958486	-1.870415	-0.751709	0.298828	-0.284668
1147.0	12.993898	2.763042	9.649223	1.304265	4.874971	-1.911028	-0.744385	0.279297	-0.343506
1148.0	13.225303	3.478078	10.289917	1.350854	4.810163	-1.940784	-0.734619	0.255615	-0.386475
1149.0	13.710649	4.00361	11.30138	1.358263	4.710095	-1.999883	-0.724854	0.231689	-0.417725
1150.0	14.754951	4.531449	12.192524	1.332651	4.62838	-2.091215	-0.710449	0.201172	-0.458252
1151.0	16.21989	4.715163	13.012733	1.348287	4.581403	-2.214317	-0.69873	0.181885	-0.501221
1152.0	17.758584	4.99563	13.583607	1.351825	4.604107	-2.368949	-0.679932	0.151367	-0.532471
1153.0	19.209563	4.861637	13.554563	1.35079	4.64839	-2.533262	-0.661133	0.123291	-0.563965
1154.0	20.265949	4.542647	12.60204	1.323602	4.686638	-2.659997	-0.642334	0.093018	-0.595215
1155.0	20.422807	3.680306	10.895729	1.310384	4.674127	-2.693859	-0.619385	0.066895	-0.624268
1156.0	19.878022	2.112067	8.767084	1.337693	4.570613	-2.623646	-0.594238	0.041016	-0.653564
1157.0	19.126722	-0.564015	6.239541	1.488571	4.338986	-2.497308	-0.566895	0.015137	-0.68042
1158.0	18.415185	-3.081616	3.743327	1.762373	3.990056	-2.388908	-0.541504	-0.017334	-0.697998
1159.0	18.31085	-4.432299	1.410312	2.066921	3.53339	-2.29654	-0.522705	-0.043457	-0.71582
1160.0	19.19452	-4.751211	-1.139791	2.209092	3.022745	-2.130203	-0.499756	-0.071777	-0.726563
1161.0	21.292917	-5.552955	-4.219962	2.136247	2.539362	-1.877016	-0.483398	-0.097656	-0.739746
1162.0	23.170914	-7.402478	-7.758316	1.915573	2.132374	-1.571216	-0.468994	-0.123779	-0.743896
1163.0	23.487184	-7.907755	-9.3649	1.596406	1.682344	-1.257204	-0.455566	-0.134521	-0.748291
1164.0	22.035182	-5.718284	-9.369932	1.000488	1.045933	-0.806711	-0.452881	-0.145508	-0.748047
1165.0	18.772963	-3.264156	-7.821543	0.066421	0.194743	-0.225668	-0.450684	-0.143311	-0.74585
1166.0	17.517293	-2.660425	-5.750576	-0.906537	-0.74151	0.206114	-0.457275	-0.143311	-0.74585
1167.0	18.637759	-2.378349	-3.032188	-1.574331	-1.469965	0.264372	-0.46875	-0.128174	-0.737061
1168.0	-5.552158	10.527838	36.358745	-2.652263	-2.137393	0.197098	-0.484375	-0.121826	-0.732422
1169.0	-2.328273	5.121259	18.874284	-0.80462	-1.875108	-0.191357	-0.493408	-0.113037	-0.728027
1170.0	-21.373114	14.891819	8.422403	-2.505993	-1.440719	-0.380909	-0.505127	-0.095703	-0.717041
1171.0	-11.253602	3.628717	-6.349842	-3.296645	-3.942744	1.06152	-0.532227	-0.074219	-0.703857
1172.0	15.658961	-2.752491	11.288215	-3.450788	-4.478294	1.129074	-0.561523	-0.054688	-0.676758
1173.0	23.072089	-12.473102	12.926617	-2.493861	-3.538113	-0.1615	-0.577393	-0.041748	-0.661133
1174.0	9.095096	-3.343807	10.341571	-1.592429	-3.337426	-0.723635	-0.592285	-0.048584	-0.635742
1175.0	5.963223	-4.155252	13.248646	-1.419888	-3.523281	0.07712	-0.616943	-0.035645	-0.615479
1176.0	12.997638	-6.128053	13.991801	-1.086101	-3.152914	0.4605	-0.628174	-0.0271	-0.597412
1177.0	12.799002	-2.068392	11.94559	-0.726329	-2.66664	0.64696	-0.643799	-0.018311	-0.577148
1178.0	11.346442	2.646442	10.645953	-0.594425	-2.298885	0.672138	-0.658936	-0.020752	-0.563232
1179.0	8.997518	4.760775	9.421973	-0.567552	-2.097433	0.404412	-0.663818	-0.011963	-0.549805
1180.0	8.194618	4.213095	9.013924	-0.593319	-1.998104	0.128048	-0.67041	-0.012207	-0.53833
1181.0	7.246719	2.332251	9.981176	-0.561677	-1.846353	0.050289	-0.683594	-0.005615	-0.524902
1182.0	21.05109	8.411931	11.0791	-1.181968	-1.117216	0.276662	-0.684326	0.007324	-0.522949
1183.0	5.788994	1.959322	8.207932	-1.035485	-0.625102	0.601577	-0.686523	0.007324	-0.518311
1184.0	4.521957	2.123026	9.124794	-0.866011	-0.740233	0.504	-0.688965	0.013916	-0.520752
1185.0	7.886966	-0.142826	9.605464	-0.709484	-0.623571	0.509639	-0.685059	0.024902	-0.509521
1186.0	8.694491	-1.021922	9.78804	-0.437688	-0.445796	0.455217	-0.691406	0.022461	-0.511719
1187.0	6.646067	0.072418	9.789717	-0.270663	-0.319687	0.342565	-0.700439	0.026855	-0.504883
1188.0	6.25356	1.436096	9.310518	-0.200386	-0.271117	0.261004	-0.696289	0.033447	-0.500488
1189.0	6.261863	1.494499	9.20138	-0.170739	-0.215632	0.222746	-0.694336	0.035645	-0.500488
1190.0	6.300512	1.463197	9.257974	-0.138084	-0.175669	0.174398	-0.696533	0.035645	-0.500488
1191.0	5.771652	1.675496	9.108148	-0.121837	-0.145061	0.144874	-0.69873	0.035645	-0.496094
1192.0	5.431246	2.075561	8.869174	-0.097241	-0.160484	0.115283	-0.703125	0.037842	-0.493896
1193.0	5.510293	2.09796	8.847883	-0.08676	-0.17473	0.102055	-0.69873	0.040039	-0.500732
1194.0	5.491427	2.275082	8.792731	-0.08779	-0.170065	0.109913	-0.69873	0.037842	-0.489258
1195.0	5.629873	2.230389	8.857557	-0.083162	-0.162459	0.114344	-0.703125	0.039795	-0.491455
1196.0	5.626533	1.955089	8.727988	-0.069181	-0.136727	0.12209	-0.698975	0.042236	-0.489258
1197.0	5.458618	1.993695	8.686267	-0.050093	-0.130933	0.125703	-0.700928	0.040039	-0.496094
1198.0	5.600909	1.768464	8.699344	-0.035728	-0.107937	0.124903	-0.700928	0.037842	-0.487061
1199.0	5.261669	1.931874	8.607976	-0.02218	-0.110006	0.12056	-0.70166	0.052979	-0.487305
1200.0	5.211112	2.239955	8.375538	-0.028371	-0.143633	0.124609	-0.705566	0.044189	-0.487061
1201.0	5.230237	2.372312	8.36068	-0.041293	-0.184063	0.139271	-0.701172	0.046387	-0.484863
1202.0	5.411657	2.179293	8.470598	-0.045533	-0.20305	0.157311	-0.705811	0.050781	-0.482666
1203.0	5.511989	1.985343	8.476591	-0.05296	-0.212887	0.162954	-0.706055	0.055176	-0.480469
1204.0	6.235762	1.249161	8.706426	-0.010303	-0.196693	0.155362	-0.710205	0.050781	-0.480469
1205.0	5.534209	1.860271	8.614143	-0.002797	-0.168341	0.130499	-0.703857	0.052979	-0.478027
1206.0	5.508701	2.203128	8.538502	0.002739	-0.188203	0.129675	-0.708008	0.052979	-0.478027
1207.0	5.561965	2.345865	8.549258	-0.026891	-0.192463	0.136509	-0.710449	0.057373	-0.485107
1208.0	5.507504	2.315506	8.541616	-0.051869	-0.20411	0.156246	-0.703857	0.052979	-0.473633
1209.0	5.657698	2.140007	8.569568	-0.075815	-0.200492	0.163931	-0.706299	0.05957	-0.476074
1210.0	5.545218	1.938067	8.637453	-0.095379	-0.224071	0.167328	-0.708252	0.057373	-0.473633
1211.0	5.611027	2.147614	8.507708	-0.122526	-0.241688	0.159602	-0.715332	0.065918	-0.473877
1212.0	5.529897	2.386935	8.426145	-0.158106	-0.272942	0.164779	-0.717285	0.063721	-0.469238
1213.0	5.688432	2.287586	8.42117	-0.189245	-0.310141	0.169313	-0.715332	0.068115	-0.464844
1214.0	5.930788	2.213495	8.464449	-0.220854	-0.30195	0.165251	-0.715332	0.068115	-0.460205
1215.0	5.939803	2.090833	8.393852	-0.228242	-0.298315	0.168835	-0.715332	0.068115	-0.462402
1216.0	6.011845	1.966573	8.685681	-0.219724	-0.236631	0.166481	-0.719727	0.068115	-0.462402
1217.0	6.042803	1.87019	8.576544	-0.237077	-0.16149	0.156378	-0.720215	0.079102	-0.455811
1218.0	5.923582	2.024922	8.672688	-0.246043	-0.104988	0.157768	-0.715576	0.07251	-0.448975
1219.0	5.900701	1.980473	8.736766	-0.253104	-0.058633	0.158799	-0.722656	0.085449	-0.458252
1220.0	5.630947	2.039561	8.85745	-0.26706	-0.031748	0.160324	-0.719971	0.076904	-0.460449
1221.0	5.621345	1.891249	9.108149	-0.282972	-0.038728	0.164146	-0.716064	0.083496	-0.453613
1222.0	5.801726	1.648101	9.230452	-0.311115	-0.063353	0.156258	-0.716064	0.083496	-0.451416
1223.0	5.664237	1.49827	9.519723	-0.31295	-0.141571	0.120182	-0.722656	0.087646	-0.456055
1224.0	5.424186	1.564492	9.831359	-0.3018	-0.234976	0.110226	-0.727051	0.085449	-0.449219
1225.0	5.244089	1.274161	10.221289	-0.260185	-0.390355	0.125452	-0.720947	0.096436	-0.447021
1226.0	4.058186	0.756609	11.591115	0.0792	-0.711224	0.235584	-0.720459	0.087646	-0.442383
1227.0	1.822743	5.323861	13.666733	0.144331	-1.303053	0.392207	-0.727295	0.092041	-0.426514
1228.0	4.724024	0.364456	11.908335	-0.00028	-1.916162	0.552625	-0.733887	0.093994	-0.408203
1229.0	5.527302	0.159523	11.93817	0.26847	-2.363063	0.571922	-0.743164	0.10498	-0.394775
1230.0	4.987109	-1.765737	12.610844	0.321138	-2.970256	0.459618	-0.756348	0.106934	-0.355957
1231.0	4.360146	1.917289	12.911216	0.518019	-3.606718	0.414521	-0.765137	0.108887	-0.331055
1232.0	4.227548	1.112043	12.713183	0.496975	-4.265811	0.505228	-0.773926	0.108887	-0.296875
1233.0	5.39366	0.486709	13.015343	0.666421	-4.892192	0.380633	-0.776367	0.115234	-0.251465
1234.0	5.744245	3.120483	13.397802	0.659414	-5.599789	0.389909	-0.785156	0.119385	-0.203613
1235.0	7.43874	5.155895	12.929826	0.605091	-6.195541	0.617056	-0.792236	0.130127	-0.14917
1236.0	7.652457	6.515512	13.269434	0.707013	-6.580629	1.016658	-0.785645	0.12793	-0.089844
1237.0	10.272985	5.902188	14.907606	0.736878	-7.199147	1.526855	-0.786621	0.149414	-0.031006
1238.0	11.693797	6.211134	15.754818	1.187362	-7.356795	1.844565	-0.767334	0.158203	0.039551
1239.0	12.21333	8.803973	15.949992	1.401814	-7.493483	2.216223	-0.759766	0.184326	0.09375
1240.0	14.551557	10.446167	16.202611	1.220832	-7.022202	2.563174	-0.734375	0.203857	0.145752
1241.0	15.550067	9.767711	17.019989	0.878901	-6.072145	2.883178	-0.716309	0.236816	0.188232
1242.0	7.634528	7.978617	15.670618	0.423433	-5.207766	3.161434	-0.686279	0.251953	0.231201
1243.0	-3.783458	7.678636	13.531541	0.120352	-5.061711	3.273307	-0.663574	0.280518	0.269531
1244.0	-9.180755	4.883666	8.807898	0.019465	-5.451788	3.027015	-0.638184	0.295898	0.305664
1245.0	26.06557	5.143719	10.975524	0.907419	-4.488124	2.261422	-0.621582	0.313232	0.33252
1246.0	20.493646	9.023849	18.221384	0.87827	-1.162933	1.010851	-0.617188	0.313477	0.33252
1247.0	11.620951	12.72841	18.031891	0.540318	1.70265	-0.201637	-0.619385	0.313477	0.318848
1248.0	1.611913	11.956943	14.105666	-0.131109	3.301405	-0.510811	-0.63623	0.300293	0.296387
1249.0	-5.479172	8.282165	10.899231	-0.747104	3.711122	-0.349783	-0.651367	0.295898	0.273682
1250.0	-7.662705	5.008426	8.635856	-0.874057	3.626208	-0.055689	-0.664063	0.289307	0.250977
1251.0	-6.600814	1.763357	7.607625	-0.603212	3.334128	0.165773	-0.674805	0.284912	0.226074
1252.0	-3.819209	0.213515	7.438048	-0.079736	3.127415	0.1663	-0.680908	0.276123	0.210205
1253.0	-0.671874	-0.569436	7.670995	0.634578	3.141285	-0.024617	-0.696289	0.27832	0.180664
1254.0	2.736342	0.499821	8.147585	1.377143	3.34958	-0.335111	-0.707031	0.276123	0.157959
1255.0	5.327864	2.99327	8.460687	1.841205	3.711189	-0.671211	-0.713379	0.271729	0.125977
1256.0	6.947752	5.161213	8.425444	1.903204	4.128157	-0.967797	-0.728027	0.258789	0.09668
1257.0	7.739965	6.080954	8.064521	1.653242	4.499875	-1.200981	-0.732178	0.252197	0.049072
1258.0	8.139924	5.723684	7.631735	1.291006	4.76668	-1.374484	-0.746582	0.232666	0.017578
1259.0	8.19819	4.4135	7.374953	1.000619	4.889115	-1.501951	-0.756836	0.217285	-0.018555
1260.0	8.28337	3.025914	7.383257	0.869616	4.879756	-1.609533	-0.758057	0.193359	-0.059326
1261.0	8.729723	2.112854	7.831258	0.897954	4.791605	-1.727966	-0.763916	0.18042	-0.097656
1262.0	9.544866	1.821003	8.344996	0.995503	4.666949	-1.862765	-0.762939	0.156494	-0.126953
1263.0	10.648822	2.07924	8.888519	1.090171	4.566732	-1.974526	-0.762451	0.145752	-0.169922
1264.0	11.974361	2.479124	9.363369	1.192978	4.538703	-2.046961	-0.768066	0.123779	-0.203613
1265.0	13.266098	2.868804	9.82167	1.268635	4.576888	-2.099981	-0.751709	0.102295	-0.239746
1266.0	13.610879	3.752629	10.228624	1.280568	4.668811	-2.122296	-0.754883	0.076172	-0.278076
1267.0	13.656508	4.25716	10.824688	1.23599	4.703653	-2.149837	-0.740967	0.058838	-0.307373
1268.0	13.840737	4.76226	11.615554	1.155472	4.689852	-2.217977	-0.737793	0.037109	-0.343262
1269.0	14.713664	5.184508	12.368612	1.062199	4.655887	-2.304052	-0.713135	0.02002	-0.38623
1270.0	15.735027	5.454157	13.012317	1.000209	4.633699	-2.429998	-0.703125	-0.008301	-0.419922
1271.0	16.665255	5.495757	13.436451	0.95919	4.628633	-2.583696	-0.687012	-0.027832	-0.456055
1272.0	17.368777	5.605001	13.448168	0.925404	4.613762	-2.758054	-0.67041	-0.058105	-0.491943
1273.0	18.172024	5.394852	12.81282	0.876451	4.569742	-2.88742	-0.641113	-0.07959	-0.518799
1274.0	18.661201	4.412184	11.415597	0.85834	4.506249	-2.950288	-0.62915	-0.105713	-0.548096
1275.0	18.280649	2.489799	9.46145	0.934185	4.393081	-2.933338	-0.599365	-0.133789	-0.583984
1276.0	17.641111	-0.171527	7.237631	1.170046	4.185085	-2.864534	-0.57251	-0.15332	-0.606445
1277.0	17.423475	-2.776001	5.122851	1.569769	3.864122	-2.790966	-0.542725	-0.183594	-0.628662
1278.0	18.085684	-4.047132	2.838153	1.974679	3.450862	-2.685255	-0.519531	-0.213867	-0.639404
1279.0	19.578862	-4.723392	-0.127159	2.166066	2.997179	-2.477619	-0.499023	-0.233398	-0.652832
1280.0	21.604794	-7.113264	-4.49823	2.142387	2.564744	-2.145517	-0.473877	-0.259277	-0.656982
1281.0	23.388079	-10.333174	-9.001997	2.068156	2.136267	-1.770585	-0.455566	-0.276611	-0.661133
1282.0	23.575824	-9.469029	-10.769633	1.852342	1.585606	-1.280598	-0.443604	-0.302734	-0.658447
1283.0	21.363934	-5.592041	-9.588143	1.155555	0.770708	-0.526781	-0.439209	-0.300537	-0.656006
1284.0	18.93618	-2.844231	-7.302987	0.072725	-0.182708	0.29006	-0.441406	-0.304932	-0.656006
1285.0	19.821021	-2.05775	-4.703322	-0.914781	-0.910165	0.753835	-0.452881	-0.291992	-0.658447
1286.0	21.159668	-1.184621	-2.069975	-1.551872	-1.275763	0.743705	-0.462158	-0.279053	-0.658691
1287.0	-8.142462	11.258094	29.774809	-2.254383	-1.435347	0.670013	-0.471436	-0.263672	-0.656738
1288.0	3.979656	8.4981	23.438713	-0.98811	-2.116715	0.26387	-0.484863	-0.259521	-0.652344
1289.0	-23.612915	11.218022	8.572953	-2.389239	-0.928493	-0.170019	-0.496582	-0.237793	-0.652588
1290.0	-17.83323	6.581976	-7.219031	-3.292921	-4.135473	1.391965	-0.528076	-0.220459	-0.634766
1291.0	16.152099	-3.431022	10.706362	-3.489469	-4.812946	1.5221	-0.551025	-0.192383	-0.614746
1292.0	26.829449	-12.016599	12.602487	-2.598922	-3.690155	0.183587	-0.568848	-0.183838	-0.594482
1293.0	10.051795	-2.701423	10.906121	-1.607874	-3.378567	-0.420457	-0.588867	-0.17749	-0.585449
1294.0	5.242224	-4.121673	13.887033	-1.522079	-3.560279	0.552316	-0.604492	-0.164307	-0.565186
1295.0	13.317622	-7.02512	13.620264	-1.190353	-3.21649	0.881922	-0.618164	-0.153564	-0.54248
1296.0	13.073989	-0.867665	11.818396	-0.811218	-2.797502	0.925937	-0.631348	-0.151611	-0.533447
1297.0	10.915422	4.001473	10.464392	-0.731121	-2.484235	0.846683	-0.642822	-0.138672	-0.517822
1298.0	9.392176	4.796121	9.341584	-0.734428	-2.321082	0.520211	-0.651611	-0.136475	-0.50415
1299.0	8.159133	2.500634	9.369585	-0.668122	-2.208696	0.273622	-0.663086	-0.123535	-0.486084
1300.0	10.69385	9.188458	13.664719	-0.85294	-2.015716	0.142588	-0.665527	-0.121338	-0.483887
1301.0	20.877868	2.0286	6.847684	-1.23032	-0.910228	0.553706	-0.666016	-0.110596	-0.472656
1302.0	4.470189	-0.065381	9.877074	-0.923018	-0.867528	0.610374	-0.677002	-0.104004	-0.468262
1303.0	7.587829	-0.418233	9.588143	-0.666257	-0.81323	0.402153	-0.67749	-0.095215	-0.468506
1304.0	9.017785	-0.035477	9.758931	-0.480041	-0.618582	0.393657	-0.681396	-0.104004	-0.456787
1305.0	7.010633	0.17284	9.633768	-0.336578	-0.487333	0.327772	-0.684326	-0.091064	-0.454834
1306.0	6.44823	1.101058	9.463228	-0.247644	-0.412173	0.249275	-0.690674	-0.095459	-0.454834
1307.0	6.573324	1.261859	9.324956	-0.195495	-0.340789	0.197337	-0.693115	-0.08667	-0.454834
1308.0	6.393983	1.239364	9.290277	-0.148416	-0.287133	0.150366	-0.690674	-0.091064	-0.452637
1309.0	6.084902	1.593166	9.193326	-0.103935	-0.243412	0.104463	-0.688965	-0.084473	-0.450439
1310.0	5.842423	1.821575	9.054392	-0.082039	-0.20527	0.077251	-0.695313	-0.088867	-0.452637
1311.0	5.853128	2.02793	8.955442	-0.075938	-0.173675	0.066625	-0.693115	-0.08667	-0.445801
1312.0	5.655483	2.140578	8.85307	-0.0827	-0.152078	0.059465	-0.695313	-0.088867	-0.447998
1313.0	5.630924	2.066768	8.762696	-0.081963	-0.134812	0.064367	-0.693359	-0.080078	-0.450439
1314.0	5.512971	2.143221	8.673896	-0.080789	-0.121691	0.067091	-0.693359	-0.082275	-0.448242
1315.0	5.700787	1.970138	8.75178	-0.074684	-0.107195	0.069321	-0.693359	-0.080078	-0.445801
1316.0	5.604513	1.904597	8.646919	-0.06809	-0.074724	0.060905	-0.693359	-0.080078	-0.443604
1317.0	5.490145	2.17263	8.466129	-0.050056	-0.069676	0.051905	-0.691406	-0.077881	-0.443604
1318.0	5.460774	2.238436	8.497107	-0.039745	-0.072527	0.055067	-0.701904	-0.084717	-0.443604
1319.0	5.385275	2.213972	8.461276	-0.028506	-0.085064	0.053094	-0.695801	-0.075928	-0.443604
1320.0	5.544368	2.220258	8.50582	-0.021466	-0.102328	0.051528	-0.697754	-0.082275	-0.445801
1321.0	5.397434	2.231042	8.49168	-0.020905	-0.109359	0.062085	-0.695801	-0.075928	-0.441406
1322.0	5.528692	2.276104	8.384707	-0.022871	-0.107117	0.070826	-0.701904	-0.084717	-0.441162
1323.0	5.486185	2.452415	8.247264	-0.01998	-0.12216	0.098151	-0.695801	-0.078125	-0.443604
1324.0	5.42077	2.52365	8.233641	-0.025339	-0.134497	0.123515	-0.702148	-0.08252	-0.43457
1325.0	5.321624	2.381179	8.266056	-0.041013	-0.153921	0.144235	-0.696045	-0.069336	-0.437012
1326.0	5.382527	2.362048	8.299178	-0.053417	-0.192459	0.175815	-0.706787	-0.07373	-0.439209
1327.0	5.922883	1.836576	8.330375	-0.051977	-0.202226	0.195393	-0.700439	-0.071533	-0.432373
