Acquisition frequency: 100 Hz
PacketCounter	Acc_X	Acc_Y	Acc_Z	Gyr_X	Gyr_Y	Gyr_Z	Mag_X	Mag_Y	Mag_Z
0.0	6.204947	0.43646	8.208385	-0.007452	0.005272	-0.016236	-0.634033	0.103516	-0.397217
1.0	6.174376	0.429975	8.193208	-0.008876	0.005112	-0.015345	-0.629395	0.099121	-0.401611
2.0	6.193196	0.416918	8.200372	-0.010548	0.005009	-0.01834	-0.629639	0.105713	-0.397217
3.0	6.204815	0.458428	8.159178	-0.00824	0.006815	-0.016517	-0.636475	0.107666	-0.401855
4.0	6.191525	0.40127	8.170816	-0.011687	0.00892	-0.017542	-0.631836	0.101318	-0.397217
5.0	6.21226	0.441689	8.188862	-0.009029	0.008357	-0.016798	-0.629639	0.101318	-0.399414
6.0	6.200174	0.405631	8.150339	-0.011402	0.012991	-0.017636	-0.629639	0.105713	-0.399414
7.0	6.180004	0.435306	8.174949	-0.010326	0.015518	-0.017449	-0.634033	0.105469	-0.392578
8.0	6.200001	0.459575	8.162772	-0.009816	0.009898	-0.01708	-0.634033	0.105713	-0.401855
9.0	6.186762	0.418523	8.205146	-0.012189	0.01453	-0.017919	-0.627686	0.105713	-0.401855
10.0	6.176582	0.435841	8.177507	-0.010956	0.013807	-0.016282	-0.634033	0.105713	-0.397217
11.0	6.205048	0.426584	8.163502	-0.010516	0.01463	-0.014925	-0.634033	0.103516	-0.40625
12.0	6.163741	0.432074	8.201101	-0.010954	0.013804	-0.016285	-0.63208	0.109863	-0.399658
13.0	6.192227	0.422678	8.187097	-0.015033	0.0142	-0.016143	-0.629639	0.105713	-0.399414
14.0	6.191171	0.42269	8.187895	-0.009807	0.00989	-0.017087	-0.629883	0.10791	-0.39502
15.0	6.181159	0.440068	8.160137	-0.010511	0.014623	-0.014928	-0.631836	0.101318	-0.397217
16.0	6.199804	0.443081	8.198222	-0.012106	0.008078	-0.018918	-0.631836	0.105713	-0.397217
17.0	6.197436	0.422155	8.249197	-0.008731	0.012415	-0.016901	-0.629639	0.105713	-0.397217
18.0	6.187246	0.42337	8.190826	-0.013091	0.008736	-0.016671	-0.634033	0.105469	-0.392578
19.0	6.147759	0.449883	8.177802	-0.009558	0.009826	-0.013203	-0.631836	0.103516	-0.399414
20.0	6.195703	0.411449	8.139801	-0.007582	0.008502	-0.017704	-0.634277	0.107666	-0.397217
21.0	6.225069	0.434749	8.18664	-0.009715	0.013071	-0.014654	-0.627441	0.103516	-0.394775
22.0	6.1645	0.437442	8.186533	-0.009088	0.005147	-0.019256	-0.63208	0.107666	-0.397217
23.0	6.212689	0.41518	8.179109	-0.010505	0.014611	-0.014935	-0.634033	0.101318	-0.397217
24.0	6.181874	0.42469	8.194813	-0.008369	0.01004	-0.017987	-0.629639	0.103516	-0.397217
25.0	6.210897	0.431858	8.211171	-0.010148	0.012242	-0.016018	-0.629639	0.105713	-0.399414
26.0	6.17985	0.42514	8.196316	-0.008918	0.011522	-0.014379	-0.625488	0.105713	-0.397217
27.0	6.199908	0.44944	8.184154	-0.010583	0.011415	-0.01738	-0.634033	0.105713	-0.397217
28.0	6.177853	0.425332	8.197812	-0.011768	0.011192	-0.012601	-0.634033	0.105713	-0.397217
29.0	6.187703	0.44556	8.207225	-0.009868	0.006681	-0.019544	-0.631836	0.105713	-0.399414
30.0	6.176106	0.425668	8.19911	-0.010499	0.0146	-0.014941	-0.63208	0.107666	-0.397217
31.0	6.174931	0.425864	8.199985	-0.008716	0.012397	-0.016913	-0.629639	0.103516	-0.394775
32.0	6.193274	0.41282	8.207568	-0.010774	0.010526	-0.014856	-0.630127	0.112061	-0.397461
33.0	6.164007	0.443214	8.172931	-0.012992	0.011901	-0.014247	-0.634033	0.103516	-0.392578
34.0	6.171938	0.425783	8.202242	-0.011763	0.011183	-0.012607	-0.629639	0.105713	-0.397217
35.0	6.17102	0.425731	8.202935	-0.011206	0.009698	-0.01622	-0.631836	0.101318	-0.399414
36.0	6.199878	0.416493	8.188758	-0.011761	0.01118	-0.012609	-0.625488	0.10791	-0.39502
37.0	6.170772	0.446938	8.154	-0.009184	0.007439	-0.0143	-0.627441	0.103516	-0.399414
38.0	6.168333	0.425572	8.204964	-0.013344	0.014259	-0.013171	-0.632324	0.112061	-0.39502
39.0	6.18815	0.433475	8.162349	-0.012627	0.009528	-0.015335	-0.634033	0.101318	-0.399414
40.0	6.155762	0.405291	8.197595	-0.008905	0.011506	-0.014389	-0.634033	0.103516	-0.399414
41.0	6.165217	0.409241	8.176633	-0.013183	0.011008	-0.011725	-0.627441	0.103516	-0.399414
42.0	6.174955	0.429149	8.186154	-0.011397	0.008808	-0.013696	-0.631836	0.103516	-0.399414
43.0	6.163606	0.425039	8.208543	-0.011555	0.012053	-0.015145	-0.629639	0.103516	-0.404053
44.0	6.181908	0.395914	8.185495	-0.008976	0.008315	-0.016837	-0.63208	0.107666	-0.397217
45.0	6.182693	0.433572	8.166478	-0.01056	0.011393	-0.017398	-0.629639	0.105713	-0.399414
46.0	6.181915	0.449696	8.197739	-0.012619	0.009518	-0.015343	-0.63208	0.109863	-0.399658
47.0	6.170533	0.429649	8.189462	-0.007313	0.00842	-0.013834	-0.63208	0.10791	-0.399414
48.0	6.160735	0.447068	8.161578	-0.011983	0.011222	-0.016513	-0.634033	0.103516	-0.401611
49.0	6.198753	0.436737	8.206478	-0.011823	0.007975	-0.015066	-0.629639	0.105713	-0.39502
50.0	6.176737	0.39636	8.189376	-0.012975	0.011876	-0.014264	-0.634033	0.103516	-0.399414
51.0	6.177489	0.44972	8.201073	-0.010322	0.011327	-0.01351	-0.634033	0.101318	-0.399414
52.0	6.185238	0.400287	8.16917	-0.01218	0.010334	-0.013986	-0.63208	0.109863	-0.397217
53.0	6.175619	0.449597	8.202488	-0.010752	0.010501	-0.014874	-0.629639	0.101318	-0.397217
54.0	6.18345	0.416293	8.20118	-0.011544	0.012038	-0.015155	-0.631836	0.105713	-0.392578
55.0	6.163187	0.429473	8.195001	-0.013472	0.007858	-0.018079	-0.634033	0.105713	-0.397217
56.0	6.192231	0.420432	8.180764	-0.009524	0.009782	-0.013233	-0.63208	0.109863	-0.39502
57.0	6.191459	0.436519	8.211994	-0.011179	0.009671	-0.016241	-0.625488	0.105713	-0.399414
58.0	6.181527	0.437832	8.153584	-0.010315	0.011318	-0.013515	-0.634033	0.105713	-0.397217
59.0	6.179111	0.416395	8.204444	-0.013035	0.008676	-0.01672	-0.63208	0.10791	-0.399414
60.0	6.167945	0.412143	8.226653	-0.012012	0.007078	-0.012546	-0.629883	0.110107	-0.399658
61.0	6.177626	0.416186	8.205573	-0.010744	0.010491	-0.014881	-0.631836	0.105713	-0.399414
62.0	6.178384	0.437562	8.15598	-0.013665	0.006965	-0.015557	-0.63623	0.103516	-0.399414
63.0	6.186594	0.420228	8.185038	-0.009949	0.008951	-0.014602	-0.627686	0.10791	-0.401855
64.0	6.175303	0.416173	8.207323	-0.011171	0.009663	-0.016248	-0.634277	0.107666	-0.397217
65.0	6.174389	0.416124	8.208013	-0.011737	0.01114	-0.012633	-0.63208	0.107666	-0.397217
66.0	6.154134	0.429059	8.201824	-0.0128	0.008608	-0.012832	-0.634033	0.105469	-0.39502
67.0	6.192014	0.402615	8.21621	-0.011531	0.012021	-0.015166	-0.629639	0.105713	-0.397217
68.0	6.162806	0.433143	8.181519	-0.010373	0.008122	-0.015971	-0.629639	0.103516	-0.401611
69.0	6.181288	0.419947	8.18906	-0.012527	0.012672	-0.012917	-0.631836	0.103516	-0.397217
70.0	6.1595	0.411502	8.23301	-0.011004	0.006413	-0.014807	-0.63208	0.10791	-0.399414
71.0	6.17969	0.419585	8.190285	-0.014586	0.010791	-0.010867	-0.63208	0.10791	-0.404053
72.0	6.198204	0.406138	8.197819	-0.012589	0.009484	-0.015369	-0.629639	0.101318	-0.399414
73.0	6.177861	0.419239	8.191683	-0.011525	0.012013	-0.015171	-0.631836	0.105713	-0.399414
74.0	6.18746	0.423404	8.170699	-0.011793	0.007945	-0.015091	-0.629883	0.10791	-0.399414
75.0	6.176171	0.403265	8.162346	-0.01073	0.010475	-0.014892	-0.631836	0.105713	-0.399414
76.0	6.155837	0.432399	8.186803	-0.010729	0.010473	-0.014893	-0.629883	0.10791	-0.399414
77.0	6.154916	0.432437	8.187494	-0.010728	0.010472	-0.014894	-0.635986	0.101318	-0.397217
78.0	6.1735	0.419024	8.194981	-0.015642	0.008248	-0.011074	-0.634277	0.107666	-0.401855
79.0	6.202712	0.425749	8.211326	-0.010993	0.006403	-0.014816	-0.63208	0.109863	-0.399658
80.0	6.151267	0.378596	8.17801	-0.008931	0.008282	-0.016867	-0.63208	0.109863	-0.399658
81.0	6.171427	0.419202	8.196532	-0.00893	0.008281	-0.016868	-0.631836	0.101318	-0.397217
82.0	6.181188	0.423531	8.175438	-0.010136	0.008048	-0.012086	-0.629639	0.103516	-0.399414
83.0	6.148968	0.395031	8.21031	-0.009722	0.009814	-0.01715	-0.627686	0.105713	-0.399414
84.0	6.179487	0.439618	8.207308	-0.010928	0.00958	-0.012368	-0.629639	0.105713	-0.397217
85.0	6.158007	0.399499	8.189755	-0.008192	0.003559	-0.019043	-0.634277	0.10791	-0.404053
86.0	6.178334	0.440014	8.208155	-0.010133	0.008043	-0.012089	-0.634277	0.107666	-0.401855
87.0	6.177793	0.424281	8.177965	-0.008983	0.005092	-0.019326	-0.634033	0.105713	-0.399414
88.0	6.186325	0.391475	8.17614	-0.007762	0.00438	-0.017679	-0.629639	0.103516	-0.394775
89.0	6.166303	0.420905	8.2003	-0.008129	0.006738	-0.016594	-0.625488	0.110107	-0.397217
90.0	6.195613	0.412319	8.185974	-0.009556	0.006563	-0.01571	-0.625488	0.105713	-0.401855
91.0	6.175575	0.425697	8.179567	-0.008127	0.006736	-0.016595	-0.634033	0.105713	-0.397217
92.0	6.145131	0.43484	8.194713	-0.007539	0.004317	-0.013784	-0.63208	0.10791	-0.40625
93.0	6.204393	0.433209	8.196186	-0.012626	0.006271	-0.017843	-0.627686	0.105713	-0.401855
94.0	6.163556	0.422062	8.202306	-0.009183	0.0042	-0.0168	-0.63208	0.109863	-0.397217
95.0	6.192971	0.413555	8.18791	-0.008124	0.006732	-0.016598	-0.631836	0.105713	-0.401855
96.0	6.192481	0.413623	8.188277	-0.013464	0.003675	-0.014149	-0.634277	0.107666	-0.397217
97.0	6.151703	0.402282	8.194355	-0.009975	0.005731	-0.017083	-0.629639	0.105713	-0.39502
98.0	6.202114	0.41794	8.16731	-0.013887	0.002848	-0.015519	-0.629883	0.10791	-0.397217
99.0	6.200212	0.380511	8.187089	-0.008121	0.006729	-0.016601	-0.631836	0.105713	-0.401855
100.0	6.211362	0.438459	8.17719	-0.010342	0.008086	-0.015998	-0.634277	0.109863	-0.39502
101.0	6.159795	0.423026	8.205081	-0.008914	0.00826	-0.016882	-0.629883	0.10791	-0.39502
102.0	6.199564	0.41887	8.169198	-0.008118	0.006726	-0.016603	-0.629883	0.10791	-0.39502
103.0	6.17931	0.43221	8.162943	-0.008859	0.01144	-0.014428	-0.634033	0.105713	-0.404053
104.0	6.167877	0.428043	8.185251	-0.011133	0.009613	-0.016282	-0.63208	0.107666	-0.397217
105.0	6.186492	0.415179	8.192724	-0.010128	0.008963	-0.018535	-0.634277	0.107666	-0.397217
106.0	6.185673	0.415556	8.193323	-0.007057	0.009255	-0.016402	-0.634033	0.105713	-0.397217
107.0	6.195367	0.420218	8.172312	-0.008484	0.009077	-0.015519	-0.631836	0.103516	-0.399414
108.0	6.154122	0.424829	8.209244	-0.008692	0.008193	-0.012988	-0.634033	0.105469	-0.39502
109.0	6.193928	0.420655	8.17338	-0.009751	0.006601	-0.019627	-0.629639	0.103516	-0.401611
110.0	6.15278	0.425544	8.210213	-0.007899	0.007601	-0.019143	-0.638428	0.103271	-0.399414
111.0	6.173205	0.43438	8.167445	-0.011174	0.005479	-0.012312	-0.631836	0.101318	-0.392578
112.0	6.171124	0.39697	8.187354	-0.00827	0.009956	-0.018056	-0.629639	0.103516	-0.394775
113.0	6.180605	0.417497	8.197048	-0.008479	0.009071	-0.015524	-0.633789	0.099121	-0.396973
114.0	6.220214	0.429108	8.1919	-0.010961	0.006359	-0.014847	-0.631836	0.105713	-0.397217
115.0	6.168758	0.413464	8.219634	-0.007681	0.007538	-0.015245	-0.631836	0.103516	-0.397217
116.0	6.208581	0.409447	8.183792	-0.00932	0.007418	-0.018265	-0.629639	0.101318	-0.401611
117.0	6.188211	0.422731	8.177603	-0.009646	0.012954	-0.014718	-0.629639	0.103516	-0.399414
118.0	6.178074	0.456226	8.180552	-0.007046	0.009243	-0.016411	-0.629883	0.10791	-0.399414
119.0	6.186144	0.439108	8.209656	-0.012336	0.010298	-0.017947	-0.631836	0.105713	-0.399414
120.0	6.1945	0.405932	8.208039	-0.01175	0.007882	-0.015134	-0.631836	0.103516	-0.401611
121.0	6.18478	0.423271	8.18017	-0.012545	0.009411	-0.015415	-0.631836	0.105713	-0.397217
122.0	6.182594	0.38571	8.200159	-0.011116	0.009588	-0.016299	-0.631836	0.105713	-0.401855
123.0	6.193401	0.443565	8.190527	-0.009898	0.008882	-0.014649	-0.629639	0.101318	-0.394775
124.0	6.152308	0.432208	8.196741	-0.008468	0.009059	-0.015533	-0.634277	0.107666	-0.399414
125.0	6.200936	0.410704	8.189523	-0.010692	0.010409	-0.014932	-0.634521	0.112061	-0.399658
126.0	6.180581	0.423708	8.183321	-0.01254	0.009404	-0.015421	-0.629639	0.105713	-0.39502
127.0	6.199234	0.410878	8.190803	-0.007037	0.009236	-0.016417	-0.629883	0.10791	-0.399414
128.0	6.15953	0.437133	8.177617	-0.012161	0.007046	-0.016513	-0.634033	0.103516	-0.401611
129.0	6.187467	0.390879	8.18281	-0.012117	0.010225	-0.014053	-0.63623	0.105469	-0.397217
130.0	6.17713	0.439763	8.216405	-0.01132	0.008694	-0.013773	-0.63208	0.10791	-0.401855
131.0	6.176638	0.423925	8.186286	-0.012954	0.008572	-0.016797	-0.629639	0.103516	-0.399414
132.0	6.146077	0.416835	8.170902	-0.008041	0.009877	-0.014168	-0.627441	0.103516	-0.399414
133.0	6.18515	0.444258	8.196722	-0.013329	0.010923	-0.015708	-0.634033	0.103516	-0.399414
134.0	6.16393	0.403743	8.179007	-0.011151	0.005451	-0.012334	-0.63623	0.103516	-0.397217
135.0	6.184239	0.428338	8.166934	-0.011774	0.004684	-0.017611	-0.63623	0.105469	-0.399414
136.0	6.192518	0.411181	8.195867	-0.00661	0.010054	-0.015051	-0.629883	0.10791	-0.397217
137.0	6.162024	0.404163	8.180421	-0.010517	0.007157	-0.013498	-0.627686	0.105713	-0.399414
138.0	6.180523	0.406994	8.218516	-0.010302	0.00804	-0.016033	-0.629639	0.105713	-0.392578
139.0	6.17116	0.408885	8.159904	-0.008872	0.00822	-0.016915	-0.627686	0.105713	-0.39502
140.0	6.199864	0.431998	8.207161	-0.010514	0.007153	-0.013501	-0.629639	0.103516	-0.399414
141.0	6.159311	0.404618	8.182442	-0.012563	0.006204	-0.017898	-0.629639	0.101318	-0.404053
142.0	6.179435	0.429565	8.170505	-0.007858	0.007573	-0.019171	-0.634277	0.107666	-0.399414
143.0	6.187791	0.412337	8.199377	-0.011144	0.00544	-0.012341	-0.627441	0.103516	-0.399414
144.0	6.178162	0.429739	8.171459	-0.011094	0.009561	-0.016319	-0.629883	0.10791	-0.401855
145.0	6.177396	0.429949	8.172026	-0.007652	0.007511	-0.015267	-0.627441	0.101318	-0.404053
146.0	6.155576	0.421347	8.215664	-0.008865	0.008213	-0.016921	-0.634033	0.103516	-0.404053
147.0	6.174446	0.408657	8.223	-0.009913	0.005676	-0.017133	-0.625244	0.103516	-0.401855
148.0	6.175404	0.43081	8.173487	-0.007233	0.008334	-0.013896	-0.629639	0.105713	-0.397217
149.0	6.183742	0.413463	8.202375	-0.012769	0.005309	-0.015373	-0.631836	0.105713	-0.399414
150.0	6.18356	0.397873	8.172053	-0.008064	0.006681	-0.016643	-0.631836	0.105713	-0.397217
151.0	6.192956	0.418174	8.181824	-0.011685	0.01102	-0.012698	-0.63208	0.10791	-0.399414
152.0	6.181684	0.41373	8.203913	-0.008694	0.00497	-0.015483	-0.634033	0.103516	-0.399414
153.0	6.161279	0.442558	8.228148	-0.011335	0.005487	-0.016257	-0.623291	0.105713	-0.404053
154.0	6.201359	0.438719	8.192335	-0.00949	0.006495	-0.015766	-0.634277	0.107666	-0.397217
155.0	6.210589	0.389995	8.159658	-0.01012	0.004783	-0.014605	-0.631836	0.105713	-0.401855
156.0	6.190057	0.418656	8.183993	-0.0113	0.008661	-0.013794	-0.634521	0.112061	-0.397217
157.0	6.149263	0.406946	8.189881	-0.010948	0.00313	-0.017354	-0.631836	0.105713	-0.397217
158.0	6.168467	0.394149	8.196986	-0.00932	0.003254	-0.014327	-0.638672	0.112061	-0.401855
159.0	6.158989	0.411927	8.168942	-0.00784	0.007559	-0.019184	-0.631836	0.105713	-0.397217
160.0	6.167354	0.39476	8.197794	-0.009701	0.005604	-0.013235	-0.629639	0.105713	-0.39502
161.0	6.187623	0.419726	8.185778	-0.006458	0.00362	-0.01609	-0.636475	0.107666	-0.401855
162.0	6.157313	0.428422	8.200597	-0.010776	-0.000112	-0.015917	-0.631836	0.103516	-0.399414
163.0	6.196718	0.387036	8.183641	-0.008931	0.000897	-0.015424	-0.631836	0.101318	-0.404053
164.0	6.197144	0.440903	8.195406	-0.004811	0.004688	-0.019506	-0.631836	0.103516	-0.397217
165.0	6.177784	0.438773	8.157941	-0.006702	-0.000446	-0.016025	-0.627441	0.103516	-0.394775
166.0	6.18667	0.421739	8.186395	-0.0075	0.001079	-0.016306	-0.629883	0.10791	-0.401855
167.0	6.196339	0.442029	8.195954	-0.012725	0.008462	-0.01292	-0.63208	0.107666	-0.397217
168.0	6.196473	0.410809	8.134998	-0.00742	0.008376	-0.017816	-0.631836	0.105713	-0.397217
169.0	6.17423	0.417658	8.209325	-0.010908	0.006293	-0.014896	-0.629883	0.10791	-0.399414
170.0	6.184081	0.422268	8.188325	-0.011076	0.009528	-0.016338	-0.634277	0.107666	-0.397217
171.0	6.172625	0.417879	8.210521	-0.009232	0.010539	-0.015844	-0.629639	0.103516	-0.399414
172.0	6.2121	0.42981	8.205649	-0.013959	0.005976	-0.01705	-0.631836	0.103516	-0.399414
173.0	6.202313	0.447207	8.177862	-0.009835	0.012002	-0.012216	-0.629639	0.105713	-0.399414
174.0	6.151481	0.399351	8.144029	-0.011676	0.010989	-0.012712	-0.625244	0.103516	-0.397217
175.0	6.179827	0.422506	8.191523	-0.007824	0.007545	-0.019196	-0.631836	0.105713	-0.39502
176.0	6.179663	0.406949	8.161235	-0.013347	0.006738	-0.011769	-0.63208	0.107666	-0.397217
177.0	6.177961	0.43808	8.223339	-0.009445	0.009648	-0.013313	-0.627686	0.105713	-0.399414
178.0	6.197631	0.393954	8.169314	-0.010655	0.010345	-0.01497	-0.627686	0.105713	-0.39502
179.0	6.186881	0.442663	8.203062	-0.013537	0.006793	-0.015683	-0.634033	0.103516	-0.401611
180.0	6.176465	0.406913	8.163658	-0.008594	0.012241	-0.01701	-0.636475	0.107666	-0.399414
181.0	6.205235	0.414498	8.18043	-0.009054	0.007293	-0.014411	-0.629883	0.10791	-0.399414
182.0	6.17435	0.423088	8.195622	-0.006993	0.009191	-0.016451	-0.629639	0.105713	-0.397217
183.0	6.202943	0.430688	8.212527	-0.010409	0.014399	-0.015039	-0.634033	0.103516	-0.401611
184.0	6.202599	0.415061	8.1824	-0.012731	0.005262	-0.015408	-0.629639	0.103516	-0.394775
185.0	6.181711	0.443689	8.206903	-0.008589	0.012235	-0.017014	-0.638184	0.101318	-0.399414
186.0	6.190217	0.410705	8.205259	-0.013287	0.010843	-0.015756	-0.629883	0.109863	-0.39502
187.0	6.19935	0.430983	8.215224	-0.008007	0.009825	-0.0142	-0.631836	0.101318	-0.401611
188.0	6.188316	0.410959	8.20668	-0.011225	0.01274	-0.017796	-0.636475	0.109863	-0.401855
189.0	6.15833	0.456914	8.202875	-0.011905	0.006907	-0.012662	-0.629639	0.103516	-0.404053
190.0	6.167587	0.408295	8.170298	-0.008583	0.01223	-0.017019	-0.627441	0.103516	-0.394775
191.0	6.186031	0.395474	8.178028	-0.013262	0.01401	-0.013289	-0.627441	0.101318	-0.401611
192.0	6.194919	0.415746	8.188182	-0.00858	0.012228	-0.017021	-0.627441	0.103516	-0.392578
193.0	6.163719	0.424172	8.203565	-0.011848	0.011021	-0.016642	-0.629639	0.105713	-0.399414
194.0	6.193401	0.400547	8.158953	-0.009378	0.013747	-0.017303	-0.627686	0.10791	-0.401855
195.0	6.181752	0.396084	8.181234	-0.010637	0.010322	-0.014987	-0.634033	0.105469	-0.39502
196.0	6.171237	0.429196	8.184369	-0.010227	0.011147	-0.01361	-0.63208	0.109863	-0.399658
197.0	6.170278	0.429396	8.185082	-0.007775	0.0107	-0.016744	-0.63208	0.109863	-0.397217
198.0	6.178877	0.396519	8.183384	-0.011434	0.01184	-0.015271	-0.63208	0.107666	-0.397217
199.0	6.178922	0.434317	8.165059	-0.012249	0.010186	-0.018027	-0.631836	0.103516	-0.401611
200.0	6.18608	0.379177	8.213089	-0.008624	0.008099	-0.013052	-0.634033	0.105713	-0.397217
201.0	6.186337	0.41702	8.194603	-0.009831	0.008793	-0.014711	-0.629639	0.101318	-0.394775
202.0	6.174943	0.412452	8.216672	-0.00983	0.008792	-0.014712	-0.63208	0.10791	-0.401855
203.0	6.185401	0.401756	8.164959	-0.008399	0.008982	-0.01559	-0.629639	0.105713	-0.399414
204.0	6.173357	0.412853	8.217844	-0.011443	0.008658	-0.017751	-0.63208	0.109863	-0.401855
205.0	6.193908	0.422285	8.17539	-0.00925	0.006382	-0.011897	-0.631836	0.105713	-0.397217
206.0	6.163102	0.430606	8.190422	-0.008003	0.006632	-0.016689	-0.63208	0.107666	-0.397217
207.0	6.171916	0.397733	8.188577	-0.011426	0.011828	-0.015279	-0.629639	0.101318	-0.399414
208.0	6.211147	0.409956	8.184041	-0.007988	0.009804	-0.014216	-0.638672	0.109863	-0.392822
209.0	6.150552	0.410832	8.183003	-0.009824	0.008784	-0.014718	-0.63208	0.109863	-0.39502
210.0	6.179355	0.418379	8.1998	-0.010229	0.007957	-0.016098	-0.634521	0.112061	-0.399658
211.0	6.168713	0.39838	8.190959	-0.007591	0.007454	-0.015315	-0.635986	0.101318	-0.394775
212.0	6.179653	0.4412	8.150948	-0.007996	0.006627	-0.016695	-0.634033	0.105713	-0.401855
213.0	6.186966	0.386356	8.19883	-0.008571	0.009031	-0.019514	-0.634277	0.109863	-0.399658
214.0	6.177441	0.457478	8.18289	-0.00982	0.008778	-0.014722	-0.634033	0.103516	-0.404053
215.0	6.186421	0.424671	8.180933	-0.007993	0.006624	-0.016697	-0.631836	0.105713	-0.401855
216.0	6.17519	0.419958	8.202856	-0.013309	0.006678	-0.011813	-0.634277	0.107666	-0.397217
217.0	6.165558	0.437553	8.174983	-0.006155	0.007642	-0.016196	-0.634033	0.103516	-0.392578
218.0	6.164085	0.400093	8.194358	-0.010455	0.003889	-0.016045	-0.634277	0.109863	-0.406494
219.0	6.194666	0.430011	8.161241	-0.008385	0.008966	-0.015602	-0.629639	0.103516	-0.40625
220.0	6.183423	0.425373	8.183163	-0.011479	0.00452	-0.013791	-0.631836	0.105713	-0.397217
221.0	6.172126	0.420617	8.205128	-0.010615	0.01029	-0.015009	-0.631836	0.101318	-0.397217
222.0	6.181997	0.425578	8.18423	-0.007986	0.006618	-0.016703	-0.63208	0.109863	-0.399658
223.0	6.190309	0.408113	8.213088	-0.012674	0.008381	-0.012977	-0.63208	0.109863	-0.39502
224.0	6.200129	0.41269	8.192253	-0.012044	0.010092	-0.014135	-0.634033	0.105713	-0.397217
225.0	6.179673	0.425474	8.18599	-0.009811	0.008767	-0.014731	-0.634033	0.105713	-0.399414
226.0	6.187819	0.408014	8.214969	-0.010611	0.010284	-0.015013	-0.636475	0.112061	-0.397217
227.0	6.168113	0.405305	8.177852	-0.01124	0.00857	-0.013857	-0.631836	0.101318	-0.399414
228.0	6.177205	0.425464	8.187853	-0.010835	0.009396	-0.012477	-0.629639	0.105713	-0.401855
229.0	6.196135	0.412676	8.195275	-0.012447	0.006088	-0.018	-0.631836	0.103516	-0.399414
230.0	6.134897	0.428942	8.224894	-0.006944	0.009151	-0.016486	-0.63208	0.109863	-0.39502
231.0	6.194661	0.413059	8.196371	-0.012667	0.00837	-0.012985	-0.629639	0.103516	-0.404053
232.0	6.153688	0.400791	8.202135	-0.009174	0.010472	-0.015893	-0.63208	0.10791	-0.401855
233.0	6.163639	0.405818	8.1812	-0.008603	0.004896	-0.015555	-0.634033	0.103516	-0.401611
234.0	6.202462	0.433791	8.207318	-0.009403	0.006413	-0.015837	-0.634033	0.105713	-0.397217
235.0	6.192869	0.398313	8.167424	-0.008601	0.004895	-0.015557	-0.631836	0.101318	-0.394775
236.0	6.191601	0.414144	8.198627	-0.008775	0.004953	-0.019476	-0.631836	0.105713	-0.397217
237.0	6.191832	0.399013	8.168176	-0.008999	0.007236	-0.014458	-0.631836	0.101318	-0.397217
238.0	6.161698	0.444995	8.164324	-0.007166	0.008258	-0.013953	-0.631836	0.105713	-0.399414
239.0	6.200164	0.419689	8.178727	-0.012206	0.010132	-0.018067	-0.631836	0.105713	-0.399414
240.0	6.169132	0.427706	8.193821	-0.010829	0.00621	-0.014967	-0.629639	0.103516	-0.394775
241.0	6.178336	0.394797	8.191738	-0.008996	0.007232	-0.014462	-0.634033	0.105713	-0.397217
242.0	6.188296	0.399863	8.170814	-0.008767	0.008118	-0.017	-0.629639	0.105713	-0.39502
243.0	6.176156	0.410747	8.223605	-0.009395	0.006403	-0.015845	-0.631836	0.101318	-0.397217
244.0	6.197661	0.405237	8.150331	-0.007562	0.007426	-0.015339	-0.631836	0.105713	-0.401855
245.0	6.186329	0.400571	8.172268	-0.011626	0.00772	-0.015254	-0.629883	0.10791	-0.406494
246.0	6.193942	0.39858	8.231878	-0.00899	0.004057	-0.016948	-0.629883	0.110107	-0.399658
247.0	6.204955	0.44165	8.191892	-0.00876	0.004943	-0.019487	-0.63208	0.10791	-0.399414
248.0	6.165056	0.414155	8.16655	-0.009793	0.008741	-0.014748	-0.638672	0.109863	-0.399658
249.0	6.19308	0.437233	8.214218	-0.010418	0.003856	-0.016076	-0.627441	0.101318	-0.397217
250.0	6.183552	0.401767	8.174312	-0.00836	0.008937	-0.015624	-0.63208	0.10791	-0.404053
251.0	6.182006	0.417339	8.205703	-0.010819	0.006197	-0.014977	-0.634033	0.103516	-0.399414
252.0	6.182141	0.402236	8.175356	-0.005096	0.010158	-0.015991	-0.629883	0.10791	-0.397217
253.0	6.191359	0.422798	8.185235	-0.011042	0.002138	-0.014924	-0.63208	0.10791	-0.399414
254.0	6.160505	0.430883	8.200142	-0.006926	0.009131	-0.016501	-0.634277	0.107666	-0.397217
255.0	6.190034	0.423318	8.18621	-0.009787	0.008733	-0.014754	-0.629639	0.103516	-0.399414
256.0	6.179413	0.403224	8.177369	-0.009158	0.010446	-0.01591	-0.634277	0.107666	-0.399414
257.0	6.177693	0.418902	8.208871	-0.008753	0.008102	-0.017013	-0.631836	0.103516	-0.404053
258.0	6.187629	0.424028	8.187991	-0.010183	0.007902	-0.01614	-0.63208	0.107666	-0.397217
259.0	6.166398	0.398988	8.200525	-0.010587	0.010243	-0.015039	-0.627441	0.101318	-0.394775
260.0	6.215411	0.431831	8.205614	-0.011382	0.008587	-0.017807	-0.634033	0.105713	-0.399414
261.0	6.195254	0.391509	8.187121	-0.009775	0.005557	-0.017244	-0.629639	0.103516	-0.404053
262.0	6.194628	0.391783	8.187582	-0.007149	0.008237	-0.013968	-0.63208	0.10791	-0.399414
263.0	6.184001	0.424997	8.190681	-0.010576	0.007069	-0.017528	-0.629639	0.101318	-0.397217
264.0	6.163822	0.437949	8.18414	-0.007768	0.003353	-0.0153	-0.636475	0.107666	-0.401855
265.0	6.193062	0.3925	8.188732	-0.010002	0.004666	-0.014709	-0.627686	0.10791	-0.392822
266.0	6.19258	0.39268	8.189087	-0.00977	0.005552	-0.017249	-0.629639	0.103516	-0.404053
267.0	6.192663	0.430853	8.170745	-0.008743	0.008092	-0.017021	-0.627441	0.103516	-0.397217
268.0	6.182361	0.410991	8.161655	-0.007532	0.004236	-0.017842	-0.63623	0.105469	-0.399414
269.0	6.180856	0.42659	8.192972	-0.011605	0.007688	-0.015276	-0.627197	0.099121	-0.394775
270.0	6.190077	0.393863	8.190923	-0.006913	0.009117	-0.016512	-0.63623	0.103271	-0.394775
271.0	6.199122	0.414475	8.200925	-0.008168	0.005687	-0.014203	-0.63623	0.103516	-0.399414
272.0	6.199394	0.399377	8.170522	-0.009543	0.0096	-0.017307	-0.634033	0.105713	-0.397217
273.0	6.177946	0.427619	8.195113	-0.01017	0.007884	-0.016153	-0.634033	0.105713	-0.399414
274.0	6.2075	0.420095	8.181231	-0.009145	0.010425	-0.015924	-0.627686	0.105713	-0.401855
275.0	6.16653	0.4076	8.186872	-0.012007	0.010021	-0.014179	-0.634033	0.103516	-0.397217
276.0	6.186021	0.433003	8.175661	-0.008106	0.009797	-0.018183	-0.631836	0.105713	-0.404053
277.0	6.17443	0.428233	8.19773	-0.013204	0.010703	-0.015848	-0.634033	0.103516	-0.401611
278.0	6.174587	0.412738	8.16745	-0.012632	0.008302	-0.013027	-0.627686	0.110107	-0.399658
279.0	6.193643	0.399996	8.174852	-0.01079	0.006163	-0.015004	-0.634033	0.105713	-0.401855
280.0	6.192042	0.415336	8.206227	-0.010395	0.00699	-0.01362	-0.627441	0.103516	-0.404053
281.0	6.182315	0.433002	8.178464	-0.009766	0.008703	-0.014775	-0.629639	0.103516	-0.401611
282.0	6.181466	0.433178	8.179096	-0.009137	0.010417	-0.01593	-0.631836	0.105713	-0.399414
283.0	6.18002	0.395394	8.19844	-0.01159	0.007671	-0.01529	-0.631836	0.105713	-0.399414
284.0	6.199594	0.420799	8.187188	-0.009529	0.009587	-0.017317	-0.629639	0.103516	-0.394775
285.0	6.20932	0.425826	8.166536	-0.012409	0.012346	-0.013084	-0.629639	0.103516	-0.392578
286.0	6.167329	0.42859	8.203056	-0.010314	0.00793	-0.020091	-0.634277	0.107666	-0.397217
287.0	6.197916	0.405684	8.158302	-0.014233	0.011312	-0.0136	-0.631836	0.103516	-0.397217
288.0	6.166469	0.413231	8.173556	-0.009542	0.012749	-0.014831	-0.631836	0.103516	-0.399414
289.0	6.215607	0.392987	8.166757	-0.011994	0.010002	-0.014192	-0.631836	0.103516	-0.397217
290.0	6.165549	0.397976	8.144107	-0.00954	0.012747	-0.014833	-0.634033	0.105713	-0.399414
291.0	6.18324	0.400763	8.182686	-0.010952	0.009376	-0.016453	-0.62793	0.112061	-0.39502
292.0	6.181304	0.416106	8.21428	-0.008968	0.010346	-0.012012	-0.634277	0.107666	-0.401855
293.0	6.170761	0.396023	8.205381	-0.007693	0.01061	-0.016811	-0.627686	0.105713	-0.401855
294.0	6.17942	0.416352	8.215685	-0.014225	0.011301	-0.013609	-0.634277	0.109863	-0.399658
295.0	6.189223	0.421438	8.194998	-0.006886	0.009098	-0.016531	-0.629639	0.103516	-0.399414
296.0	6.159132	0.413988	8.179048	-0.011574	0.007654	-0.015305	-0.627686	0.110107	-0.399658
297.0	6.147624	0.409075	8.201004	-0.009121	0.010401	-0.015943	-0.631836	0.105713	-0.39502
298.0	6.177161	0.401561	8.187237	-0.011985	0.009989	-0.014202	-0.63623	0.105469	-0.401855
299.0	6.17636	0.401679	8.187836	-0.008706	0.008061	-0.01705	-0.625244	0.103516	-0.404053
300.0	6.204998	0.409621	8.204863	-0.008941	0.007173	-0.01451	-0.634033	0.103516	-0.397217
301.0	6.184472	0.422511	8.198528	-0.007685	0.010602	-0.016817	-0.634033	0.103516	-0.394775
302.0	6.194907	0.374464	8.165511	-0.012609	0.008268	-0.013053	-0.63208	0.109863	-0.399658
303.0	6.182965	0.422684	8.199656	-0.007896	0.006548	-0.016771	-0.629639	0.101318	-0.394775
304.0	6.172602	0.402591	8.190625	-0.010156	0.011015	-0.01369	-0.629883	0.10791	-0.397217
305.0	6.183612	0.392589	8.138943	-0.008699	0.008055	-0.017055	-0.632324	0.112061	-0.399658
306.0	6.161407	0.382701	8.18221	-0.010936	0.009357	-0.016468	-0.631836	0.105713	-0.39502
307.0	6.170166	0.403201	8.192429	-0.008307	0.008881	-0.015669	-0.629639	0.105713	-0.401855
308.0	6.178917	0.423702	8.202655	-0.010934	0.009354	-0.01647	-0.63208	0.109863	-0.392822
309.0	6.188892	0.428918	8.181866	-0.008932	0.007163	-0.014518	-0.629639	0.101318	-0.397217
310.0	6.18814	0.42915	8.182423	-0.009499	0.009559	-0.017342	-0.634033	0.105713	-0.401855
311.0	6.167158	0.403943	8.194658	-0.010753	0.006126	-0.015038	-0.634033	0.103516	-0.404053
312.0	6.206393	0.416954	8.19046	-0.007285	0.01142	-0.015437	-0.629883	0.10791	-0.39502
313.0	6.154739	0.399292	8.217247	-0.010928	0.009348	-0.016475	-0.627686	0.105713	-0.399414
314.0	6.164556	0.404532	8.196586	-0.008716	0.01121	-0.014569	-0.634277	0.107666	-0.399414
315.0	6.203652	0.417601	8.192503	-0.009493	0.009553	-0.017347	-0.633789	0.099121	-0.401611
316.0	6.133381	0.397245	8.181411	-0.00952	0.012716	-0.014853	-0.631836	0.105713	-0.401855
317.0	6.172434	0.410412	8.177362	-0.008446	0.008931	-0.019608	-0.629639	0.103516	-0.401611
318.0	6.210072	0.400858	8.222687	-0.008118	0.005646	-0.014244	-0.634277	0.109863	-0.392822
319.0	6.192197	0.383162	8.154198	-0.010744	0.006116	-0.015047	-0.63208	0.10791	-0.404053
320.0	6.179476	0.393477	8.20708	-0.00886	0.011263	-0.018504	-0.634277	0.107666	-0.401855
321.0	6.169554	0.411528	8.179479	-0.009874	0.008718	-0.018742	-0.638428	0.105469	-0.397217
322.0	6.177793	0.394177	8.208314	-0.008292	0.008865	-0.015682	-0.634033	0.101318	-0.401611
323.0	6.198523	0.404826	8.166208	-0.006052	0.007566	-0.016269	-0.631836	0.105713	-0.399414
324.0	6.16733	0.412616	8.181102	-0.011691	0.007677	-0.019266	-0.631836	0.105713	-0.39502
325.0	6.185072	0.415485	8.2196	-0.007903	0.00969	-0.014295	-0.629639	0.101318	-0.399414
326.0	6.17662	0.418353	8.160844	-0.008643	0.00487	-0.019572	-0.634277	0.109863	-0.39502
327.0	6.194513	0.421301	8.199226	-0.009721	0.00865	-0.014817	-0.634277	0.107666	-0.392578
328.0	6.182931	0.416339	8.221168	-0.009093	0.010365	-0.01597	-0.629883	0.110107	-0.406494
329.0	6.163701	0.413962	8.183768	-0.009686	0.005485	-0.017316	-0.631836	0.105713	-0.39502
330.0	6.192364	0.421968	8.200815	-0.008913	0.00714	-0.014537	-0.629639	0.103516	-0.401611
331.0	6.162443	0.414352	8.184696	-0.010104	0.007817	-0.016211	-0.634277	0.107666	-0.39502
332.0	6.172445	0.419939	8.163921	-0.005803	0.008447	-0.018818	-0.63208	0.10791	-0.399414
333.0	6.180755	0.402604	8.192698	-0.011535	0.007604	-0.015344	-0.631836	0.105713	-0.404053
334.0	6.180029	0.402666	8.193243	-0.009715	0.008642	-0.014823	-0.63623	0.105469	-0.399414
335.0	6.15948	0.4153	8.186878	-0.009715	0.008641	-0.014824	-0.631836	0.105713	-0.397217
336.0	6.18929	0.40822	8.17304	-0.009051	0.007194	-0.018475	-0.634277	0.107666	-0.397217
337.0	6.187189	0.423769	8.204627	-0.007652	0.010566	-0.016845	-0.631836	0.103516	-0.401611
338.0	6.186386	0.424146	8.205213	-0.007472	0.007343	-0.015412	-0.63208	0.107666	-0.39502
339.0	6.176252	0.404171	8.196016	-0.008662	0.008019	-0.017087	-0.634033	0.105713	-0.397217
340.0	6.175464	0.404492	8.196594	-0.009468	0.009523	-0.017371	-0.631836	0.103516	-0.399414
341.0	6.165634	0.422503	8.168934	-0.00866	0.008017	-0.017089	-0.627686	0.10791	-0.399658
342.0	6.194079	0.43048	8.186163	-0.012333	0.009097	-0.015636	-0.629883	0.110107	-0.401855
343.0	6.173098	0.405171	8.198343	-0.00684	0.009055	-0.016567	-0.627441	0.101318	-0.404053
344.0	6.172341	0.405489	8.198897	-0.01009	0.007801	-0.016223	-0.632324	0.112061	-0.39502
345.0	6.17196	0.443739	8.180935	-0.008272	0.008841	-0.015701	-0.629639	0.105713	-0.397217
346.0	6.181767	0.411155	8.178584	-0.010291	0.003749	-0.016183	-0.627686	0.10791	-0.401855
347.0	6.181217	0.411409	8.178987	-0.008654	0.00801	-0.017094	-0.638428	0.103271	-0.399414
348.0	6.180544	0.411584	8.179487	-0.01033	0.006908	-0.013684	-0.629639	0.101318	-0.399414
349.0	6.189347	0.43222	8.18965	-0.006794	0.005889	-0.019072	-0.627686	0.105713	-0.401855
350.0	6.199239	0.399986	8.187226	-0.008609	0.004846	-0.019598	-0.629639	0.105713	-0.401855
351.0	6.148375	0.420066	8.194978	-0.008087	0.005614	-0.014271	-0.63208	0.107666	-0.397217
352.0	6.207566	0.420991	8.19773	-0.007842	0.006501	-0.016815	-0.63623	0.103516	-0.397217
353.0	6.177848	0.413469	8.181428	-0.008468	0.004783	-0.015665	-0.63208	0.109863	-0.399658
354.0	6.206473	0.421674	8.198522	-0.00903	0.007174	-0.018492	-0.634033	0.105713	-0.399414
355.0	6.165951	0.408791	8.20354	-0.009518	0.005396	-0.013406	-0.634033	0.103516	-0.397217
356.0	6.174778	0.429255	8.213687	-0.009273	0.006284	-0.015951	-0.63208	0.10791	-0.399414
357.0	6.195699	0.440096	8.171562	-0.009409	0.006342	-0.019888	-0.63623	0.103271	-0.394775
358.0	6.184294	0.435048	8.193316	-0.009942	0.007725	-0.012299	-0.636475	0.107666	-0.392578
359.0	6.194113	0.402437	8.190985	-0.007836	0.006495	-0.01682	-0.634277	0.107666	-0.397217
360.0	6.182866	0.435713	8.194358	-0.006202	0.010757	-0.017729	-0.63208	0.109863	-0.401855
361.0	6.182002	0.436069	8.194992	-0.009695	0.00861	-0.014845	-0.631836	0.101318	-0.399414
362.0	6.171879	0.415944	8.185807	-0.00826	0.008823	-0.015713	-0.631836	0.103516	-0.404053
363.0	6.200264	0.424046	8.203096	-0.009693	0.008608	-0.014847	-0.631836	0.101318	-0.392578
364.0	6.170212	0.416226	8.187049	-0.011308	0.011611	-0.015415	-0.632324	0.112061	-0.399658
365.0	6.169341	0.416413	8.187696	-0.008637	0.007992	-0.017109	-0.627441	0.103516	-0.399414
366.0	6.197769	0.424633	8.204951	-0.007067	0.008146	-0.01404	-0.631836	0.103516	-0.404053
367.0	6.138513	0.408844	8.172214	-0.013168	0.013723	-0.01344	-0.634033	0.101318	-0.397217
368.0	6.176121	0.437187	8.199365	-0.008205	0.005658	-0.018223	-0.62793	0.112061	-0.39502
369.0	6.176639	0.384378	8.187255	-0.010875	0.009274	-0.01653	-0.631836	0.105713	-0.399414
370.0	6.17462	0.43769	8.200468	-0.008252	0.008816	-0.01572	-0.636475	0.107666	-0.399414
371.0	6.165951	0.402697	8.160242	-0.008004	0.009703	-0.018265	-0.629883	0.10791	-0.397217
372.0	6.181984	0.420735	8.229917	-0.009437	0.009486	-0.0174	-0.634521	0.112061	-0.397217
373.0	6.172172	0.438694	8.202258	-0.008874	0.007095	-0.014573	-0.631592	0.099121	-0.401611
374.0	6.172844	0.423847	8.17181	-0.008678	0.011142	-0.014613	-0.634277	0.107666	-0.401855
375.0	6.190366	0.426847	8.210423	-0.007569	0.007369	-0.01938	-0.629639	0.103516	-0.394775
376.0	6.160679	0.419255	8.194071	-0.009876	0.004544	-0.01482	-0.631836	0.103516	-0.401611
377.0	6.170777	0.386614	8.191569	-0.011062	0.005215	-0.016499	-0.634033	0.101318	-0.399414
378.0	6.15978	0.457636	8.176489	-0.008245	0.008807	-0.015727	-0.629883	0.10791	-0.399414
379.0	6.22931	0.387921	8.194936	-0.010251	0.003712	-0.016218	-0.63208	0.107666	-0.39502
380.0	6.169314	0.425429	8.174393	-0.00819	0.005646	-0.018234	-0.634277	0.107666	-0.401855
381.0	6.168613	0.387803	8.193142	-0.007002	0.004974	-0.016557	-0.631836	0.105713	-0.401855
382.0	6.206847	0.45454	8.201571	-0.009816	0.001379	-0.017332	-0.634277	0.10791	-0.404053
383.0	6.178901	0.43183	8.153994	-0.008058	0.005584	-0.014297	-0.631836	0.101318	-0.399414
384.0	6.188894	0.399302	8.151582	-0.010053	0.007754	-0.01626	-0.629639	0.105713	-0.397217
385.0	6.186758	0.414504	8.183094	-0.008056	0.005582	-0.014298	-0.634033	0.105713	-0.399414
386.0	6.176893	0.394446	8.173723	-0.008617	0.00797	-0.017127	-0.634033	0.105713	-0.404053
387.0	6.216056	0.40813	8.169795	-0.008616	0.007969	-0.017128	-0.631836	0.103516	-0.399414
388.0	6.174098	0.448256	8.187452	-0.008991	0.007138	-0.018525	-0.631836	0.105713	-0.392578
389.0	6.193181	0.436125	8.194985	-0.010482	0.010077	-0.015152	-0.634033	0.105713	-0.401855
390.0	6.172421	0.410644	8.206937	-0.007803	0.006466	-0.016848	-0.631836	0.105713	-0.401855
391.0	6.182439	0.454361	8.168022	-0.010289	0.014121	-0.015191	-0.627441	0.103516	-0.397217
392.0	6.181231	0.416439	8.187171	-0.009044	0.010292	-0.016021	-0.63208	0.10791	-0.399414
393.0	6.181864	0.401723	8.156796	-0.010228	0.01096	-0.017702	-0.634033	0.105713	-0.397217
394.0	6.159512	0.429333	8.181578	-0.009417	0.00946	-0.017419	-0.63208	0.109863	-0.397217
395.0	6.178545	0.417193	8.18916	-0.010851	0.009239	-0.016555	-0.634033	0.101318	-0.401611
396.0	6.157836	0.429737	8.182818	-0.007855	0.009618	-0.014344	-0.629639	0.105713	-0.401855
397.0	6.187634	0.422941	8.169205	-0.010474	0.010066	-0.015161	-0.629883	0.10791	-0.39502
398.0	6.176097	0.417783	8.190977	-0.007793	0.006459	-0.016855	-0.631836	0.105713	-0.397217
399.0	6.184268	0.40028	8.219836	-0.010282	0.01411	-0.015198	-0.631836	0.103516	-0.394775
400.0	6.15435	0.430517	8.185399	-0.010035	0.007735	-0.016277	-0.638672	0.109863	-0.397217
401.0	6.193435	0.40604	8.199828	-0.010408	0.006904	-0.017675	-0.629639	0.101318	-0.401611
402.0	6.174496	0.403738	8.162275	-0.008598	0.007953	-0.017143	-0.636475	0.107666	-0.397217
403.0	6.181224	0.401361	8.222073	-0.007162	0.008173	-0.018009	-0.629639	0.103516	-0.394775
404.0	6.20211	0.412761	8.180156	-0.007534	0.007342	-0.019407	-0.634033	0.103516	-0.397217
405.0	6.1509	0.432462	8.18789	-0.006227	0.006614	-0.013783	-0.63208	0.10791	-0.399414
406.0	6.141056	0.412332	8.178513	-0.009656	0.008557	-0.014885	-0.634277	0.107666	-0.399414
407.0	6.221962	0.424451	8.139021	-0.01003	0.000464	-0.014816	-0.634033	0.103516	-0.40625
408.0	6.149148	0.395074	8.207414	-0.004352	0.011768	-0.01723	-0.63208	0.109863	-0.397217
409.0	6.199321	0.414192	8.182197	-0.015079	-0.001863	-0.015021	-0.634033	0.103516	-0.397217
410.0	6.177393	0.441686	8.206595	-0.003913	0.00944	-0.018345	-0.631836	0.105713	-0.39502
411.0	6.169339	0.406806	8.166021	-0.010464	0.002787	-0.013706	-0.634033	0.101318	-0.397217
412.0	6.156425	0.416266	8.21866	-0.010277	0.006832	-0.013741	-0.631836	0.103516	-0.399414
413.0	6.208079	0.420579	8.162495	-0.00597	0.007498	-0.016334	-0.63208	0.110107	-0.406494
414.0	6.185939	0.409845	8.205296	-0.014262	0.003895	-0.016209	-0.63623	0.105469	-0.399414
415.0	6.196271	0.415509	8.18444	-0.005158	0.006	-0.016051	-0.634033	0.101318	-0.394775
416.0	6.17737	0.413184	8.14687	-0.012268	0.00899	-0.01571	-0.63208	0.10791	-0.399414
417.0	6.193009	0.430877	8.216711	-0.008772	0.011154	-0.018587	-0.629883	0.10791	-0.401855
418.0	6.193747	0.416325	8.186309	-0.009023	0.010263	-0.016042	-0.631836	0.105713	-0.399414
419.0	6.182105	0.411041	8.208125	-0.009647	0.008543	-0.014895	-0.634277	0.109863	-0.39502
420.0	6.162953	0.408504	8.170757	-0.012079	0.013029	-0.015748	-0.63208	0.107666	-0.397217
421.0	6.189267	0.431578	8.219493	-0.007838	0.009594	-0.014362	-0.631836	0.105713	-0.399414
422.0	6.179259	0.411176	8.210261	-0.014136	0.011083	-0.01374	-0.62793	0.112061	-0.397461
423.0	6.169276	0.429036	8.18276	-0.006771	0.008986	-0.016626	-0.634033	0.105713	-0.399414
424.0	6.168595	0.429304	8.183259	-0.010636	0.005988	-0.015151	-0.631836	0.103516	-0.399414
425.0	6.147974	0.403505	8.195056	-0.010452	0.010032	-0.015185	-0.629883	0.10791	-0.39502
426.0	6.167078	0.391242	8.20264	-0.011075	0.008311	-0.014038	-0.634277	0.107666	-0.39502
427.0	6.177106	0.396882	8.182045	-0.009384	0.009424	-0.017449	-0.635986	0.101318	-0.399414
428.0	6.196194	0.384832	8.189638	-0.010819	0.009198	-0.016587	-0.63208	0.107666	-0.397217
429.0	6.164825	0.42996	8.186066	-0.007202	0.004048	-0.014051	-0.627441	0.101318	-0.401611
430.0	6.193191	0.438355	8.203436	-0.009381	0.009421	-0.017452	-0.631592	0.099121	-0.399414
431.0	6.163359	0.43056	8.187138	-0.00938	0.009419	-0.017453	-0.629639	0.103516	-0.404053
432.0	6.193154	0.424164	8.17364	-0.008386	0.011968	-0.017201	-0.629639	0.105713	-0.397217
433.0	6.183154	0.404137	8.16439	-0.009378	0.009417	-0.017455	-0.629639	0.105713	-0.397217
434.0	6.182324	0.404649	8.164994	-0.006874	0.009036	-0.020582	-0.634033	0.105713	-0.399414
435.0	6.168937	0.41457	8.217849	-0.007128	0.008145	-0.018036	-0.634033	0.105469	-0.39502
436.0	6.198871	0.446644	8.186002	-0.005691	0.00837	-0.018899	-0.634033	0.105713	-0.399414
437.0	6.171084	0.386352	8.156603	-0.00381	0.00627	-0.020879	-0.629639	0.105713	-0.401855
438.0	6.190426	0.375118	8.163988	-0.005357	0.006102	-0.023966	-0.63208	0.10791	-0.404053
439.0	6.168223	0.365793	8.206659	0.007757	0.004922	-0.030298	-0.631836	0.103516	-0.397217
440.0	6.202545	0.293912	8.148428	0.006924	-0.003941	-0.035587	-0.631836	0.103516	-0.401611
441.0	6.16195	0.530791	8.245517	0.02142	0.008615	-0.035266	-0.634033	0.103516	-0.401611
442.0	6.241755	0.351808	8.126111	-0.006727	-0.00765	-0.030629	-0.63208	0.10791	-0.399414
443.0	6.233386	0.528092	8.196367	0.016465	0.020725	-0.034465	-0.627686	0.10791	-0.401855
444.0	6.131097	0.492009	8.247825	-0.002761	0.002545	-0.029621	-0.638428	0.105469	-0.399414
445.0	6.177615	0.410108	8.137799	0.006795	0.012711	-0.025564	-0.631348	0.094727	-0.392334
446.0	6.17303	0.441551	8.200623	-0.002472	0.006528	-0.025707	-0.629639	0.103516	-0.401611
447.0	6.229909	0.459397	8.2352	-0.002121	0.014613	-0.025774	-0.629639	0.105713	-0.399414
448.0	6.132234	0.49198	8.139056	-0.000848	0.02115	-0.021605	-0.63623	0.105469	-0.397217
449.0	6.160118	0.42521	8.193422	-0.00229	0.010565	-0.025745	-0.631592	0.099121	-0.399414
450.0	6.249399	0.459518	8.164609	-0.007047	0.012205	-0.022043	-0.63623	0.105469	-0.397217
451.0	6.159479	0.412741	8.164079	0.003466	0.021827	-0.024197	-0.631836	0.101318	-0.401611
452.0	6.186481	0.460338	8.164078	-0.009121	0.017506	-0.021504	-0.632324	0.112061	-0.397461
453.0	6.172196	0.470506	8.217467	-0.002192	0.017756	-0.023268	-0.629395	0.096924	-0.399414
454.0	6.183219	0.462277	8.166439	-0.007507	0.021771	-0.022404	-0.631836	0.105713	-0.399414
455.0	6.161583	0.436715	8.179008	-0.009912	0.022091	-0.015327	-0.629639	0.105713	-0.39502
456.0	6.159521	0.475081	8.162191	-0.011814	0.021082	-0.019822	-0.631836	0.105713	-0.399414
457.0	6.147045	0.469523	8.184557	-0.013318	0.016756	-0.014976	-0.627441	0.101318	-0.404053
458.0	6.205439	0.433151	8.206808	-0.009818	0.01893	-0.01785	-0.631836	0.105713	-0.397217
459.0	6.153101	0.452091	8.215013	-0.010802	0.016377	-0.018105	-0.629639	0.103516	-0.401611
460.0	6.193283	0.451526	8.180897	-0.007201	0.018498	-0.017025	-0.631836	0.105713	-0.397217
461.0	6.160895	0.458483	8.196135	-0.010537	0.017259	-0.02066	-0.629639	0.101318	-0.404053
462.0	6.21205	0.425539	8.15918	-0.00775	0.02087	-0.019866	-0.63623	0.103516	-0.399414
463.0	6.126817	0.466087	8.212581	-0.007105	0.015338	-0.019548	-0.633789	0.099121	-0.403809
464.0	6.173833	0.500929	8.219661	-0.007648	0.020812	-0.015915	-0.629639	0.103516	-0.399414
465.0	6.188016	0.36262	8.191849	-0.013575	0.012751	-0.018913	-0.631836	0.103516	-0.397217
466.0	6.133446	0.434778	8.212906	-0.002254	0.020895	-0.020764	-0.634033	0.103516	-0.401611
467.0	6.182503	0.454921	8.188859	-0.014386	0.014235	-0.019205	-0.629639	0.103516	-0.399414
468.0	6.181047	0.455414	8.18993	-0.002875	0.019173	-0.019618	-0.634033	0.105713	-0.401855
469.0	6.150644	0.447219	8.174028	-0.01843	0.017525	-0.012706	-0.635986	0.101318	-0.401611
470.0	6.135985	0.456133	8.227582	-0.009629	0.022945	-0.017902	-0.634033	0.103516	-0.397217
471.0	6.198377	0.390571	8.187751	-0.012314	0.016175	-0.021222	-0.631836	0.105713	-0.397217
472.0	6.152435	0.482789	8.218916	-0.009435	0.019734	-0.016469	-0.634033	0.105469	-0.39502
473.0	6.162047	0.450237	8.217116	-0.016265	0.016311	-0.017243	-0.631836	0.101318	-0.404053
474.0	6.129722	0.456272	8.232242	-0.017343	0.01691	-0.014981	-0.625488	0.10791	-0.404053
475.0	6.108245	0.46803	8.226293	-0.014464	0.017371	-0.016702	-0.625244	0.103516	-0.404053
476.0	6.118571	0.434737	8.223996	-0.024223	0.002145	-0.010306	-0.629639	0.101318	-0.401611
477.0	6.17754	0.474042	8.209363	-0.014249	0.006918	-0.013801	-0.629639	0.101318	-0.399414
478.0	6.157383	0.447085	8.220783	-0.025393	0.002796	-0.012002	-0.631836	0.101318	-0.401611
479.0	6.106201	0.46447	8.228012	-0.019903	0.002836	-0.012888	-0.629639	0.105713	-0.397217
480.0	6.128219	0.474675	8.185742	-0.02733	-0.009556	-0.011056	-0.634033	0.103516	-0.397217
481.0	6.137885	0.45557	8.213543	-0.021673	-0.005477	-0.011972	-0.634033	0.103516	-0.40625
482.0	6.158144	0.480325	8.202185	-0.028763	-0.009794	-0.010202	-0.631836	0.103516	-0.397217
483.0	6.140944	0.476132	8.16353	-0.025527	-0.008498	-0.010516	-0.631836	0.103516	-0.392578
484.0	6.179483	0.464835	8.208427	-0.032092	-0.007948	-0.00737	-0.634277	0.107666	-0.397217
485.0	6.160067	0.474434	8.201084	-0.035687	-0.006989	-0.001986	-0.631836	0.103516	-0.401611
486.0	6.180616	0.45974	8.207861	-0.034339	-0.0067	-0.006804	-0.62793	0.112305	-0.399658
487.0	6.129988	0.475356	8.214836	-0.040019	-0.000453	-0.000873	-0.631836	0.103516	-0.397217
488.0	6.070865	0.469802	8.211535	-0.041763	-0.012929	0.007969	-0.634521	0.112061	-0.39502
489.0	6.094011	0.477064	8.168599	-0.049825	-0.019811	0.009465	-0.629639	0.103516	-0.397217
490.0	6.078885	0.510355	8.282106	-0.045556	-0.027376	0.018798	-0.629883	0.10791	-0.401855
491.0	6.114523	0.521401	8.217038	-0.068668	-0.04245	0.033986	-0.627441	0.103516	-0.397217
492.0	6.125666	0.47174	8.291951	-0.065754	-0.043084	0.046669	-0.638672	0.109863	-0.397217
493.0	6.112233	0.460783	8.250875	-0.065388	-0.060892	0.054913	-0.63208	0.10791	-0.401855
494.0	6.144315	0.512846	8.277786	-0.062982	-0.066419	0.066192	-0.634277	0.107666	-0.399414
495.0	6.045574	0.530893	8.368405	-0.066285	-0.083239	0.075839	-0.634277	0.109863	-0.397217
496.0	6.019767	0.555148	8.439478	-0.078843	-0.117683	0.090655	-0.634277	0.109863	-0.392822
497.0	6.020859	0.613524	8.417007	-0.077946	-0.163813	0.105909	-0.634277	0.109863	-0.388184
498.0	6.049272	0.76171	8.485025	-0.059964	-0.208145	0.117275	-0.636475	0.112061	-0.392822
499.0	5.851488	0.861292	8.617006	-0.058075	-0.260144	0.140541	-0.636719	0.114258	-0.392822
500.0	5.489368	0.852601	8.88211	-0.006205	-0.361141	0.194141	-0.638672	0.109863	-0.390381
501.0	5.511156	0.562036	9.668046	-0.022071	-0.580915	0.217136	-0.641113	0.116455	-0.381348
502.0	5.667967	0.939961	9.359364	0.08669	-0.785477	0.261435	-0.641357	0.118652	-0.381592
503.0	5.839731	1.402953	10.062837	0.077922	-0.95337	0.364126	-0.647705	0.116455	-0.376953
504.0	5.8535	1.005918	9.768129	-0.058926	-1.255461	0.557032	-0.652344	0.122803	-0.372559
505.0	6.533577	1.374998	10.064566	-0.049642	-1.53129	0.711205	-0.658936	0.125	-0.361084
506.0	6.601082	1.834715	10.158254	-0.148647	-1.667777	0.95394	-0.663818	0.135742	-0.349854
507.0	6.704158	2.40562	10.141779	-0.285573	-1.909254	1.197101	-0.662109	0.144531	-0.341064
508.0	7.57453	3.286108	10.194632	-0.507833	-2.110096	1.44066	-0.668945	0.15332	-0.329834
509.0	8.046863	3.611489	10.333177	-0.80053	-2.201623	1.65082	-0.669434	0.164063	-0.316162
510.0	8.656341	3.373549	10.423714	-1.013537	-2.341674	1.763005	-0.676758	0.179199	-0.309814
511.0	9.265303	3.360339	10.076357	-1.141484	-2.342196	1.82723	-0.677246	0.190186	-0.284912
512.0	7.437265	2.836822	11.710107	-1.139549	-2.013175	1.810116	-0.675537	0.201172	-0.27832
513.0	4.869835	5.078679	13.889512	-0.541779	-1.269346	1.424186	-0.673584	0.209717	-0.280762
514.0	4.354209	6.852172	14.585083	-0.550606	-0.427804	0.762505	-0.673584	0.209717	-0.280762
515.0	4.856029	6.267269	12.934268	-0.704524	-0.793639	-0.234491	-0.664551	0.201172	-0.285156
516.0	1.043738	7.002791	11.861751	0.354723	1.06244	-0.781231	-0.661865	0.192383	-0.300781
517.0	-3.962412	6.992549	12.380326	0.318822	1.023746	-1.111386	-0.648438	0.183838	-0.314453
518.0	-2.393075	3.878122	11.695317	-0.977023	-0.086663	-1.090783	-0.643799	0.175293	-0.323242
519.0	-0.259254	-0.171189	11.380617	-0.655612	0.036751	-1.055898	-0.629883	0.155762	-0.338867
520.0	0.257605	-0.26371	11.745469	0.450798	1.144017	-1.037396	-0.611572	0.138428	-0.359131
521.0	-0.966384	0.439828	12.981783	0.424125	1.414561	-0.905563	-0.587158	0.129883	-0.379395
522.0	-0.115195	-1.097031	11.831218	0.13154	1.299261	-0.757043	-0.558105	0.114746	-0.404297
523.0	0.175548	-1.736527	11.147865	0.403289	1.670752	-0.669994	-0.522461	0.093262	-0.422119
524.0	0.601137	-1.049228	11.319208	0.444866	1.727644	-0.645096	-0.487061	0.084717	-0.442627
525.0	1.122967	-0.955593	10.666472	0.421679	1.779299	-0.64215	-0.436035	0.063477	-0.458252
526.0	1.82008	-0.412836	10.66377	0.397523	1.779993	-0.709191	-0.389404	0.046143	-0.4646
527.0	2.558962	-0.134891	10.158169	0.345887	1.756784	-0.792647	-0.333984	0.026855	-0.468994
528.0	2.658874	0.341323	9.702018	0.323198	1.73504	-0.903305	-0.283447	0.018555	-0.478027
529.0	2.869262	0.561267	9.405758	0.234937	1.538731	-1.002289	-0.214844	-0.005127	-0.466064
530.0	3.596225	0.598943	9.281277	0.201438	1.29494	-1.110789	-0.151123	-0.013428	-0.447754
531.0	5.116207	0.781865	9.989835	0.18924	1.061958	-1.227185	-0.080811	-0.026123	-0.424805
532.0	7.809033	1.110152	11.370704	0.111389	0.880244	-1.319801	-0.006592	-0.025635	-0.393066
533.0	10.30812	1.141101	12.012942	0.011147	1.02415	-1.37852	0.072021	-0.027588	-0.343018
534.0	11.708887	0.485227	12.651948	-0.024881	1.45789	-1.477531	0.136963	-0.016357	-0.279541
535.0	12.604533	-0.370254	12.748881	-0.111566	1.849964	-1.54456	0.204102	-0.005127	-0.202393
536.0	12.006416	-1.678688	11.458625	-0.170617	2.297772	-1.540456	0.235596	0.018799	-0.107178
537.0	10.295331	-2.398812	10.313216	-0.174203	2.599238	-1.487263	0.252197	0.03833	-0.011719
538.0	9.173622	-3.291664	8.883012	-0.241897	2.616114	-1.339717	0.238037	0.062012	0.078857
539.0	8.59666	-3.491652	7.992581	-0.148443	2.550826	-1.191119	0.210938	0.083252	0.171875
540.0	8.702971	-3.116288	7.723511	-0.154016	2.379287	-0.990954	0.162354	0.100342	0.235596
541.0	9.138528	-2.75431	7.286663	-0.150919	2.245148	-0.807993	0.103027	0.106445	0.290283
542.0	9.290264	-2.117967	6.737468	-0.128007	2.124561	-0.650907	0.041504	0.121094	0.331055
543.0	9.27185	-1.413704	5.881785	-0.077903	1.966465	-0.540786	-0.030518	0.120605	0.358398
544.0	9.165571	-0.672614	4.837087	-0.013981	1.772694	-0.460789	-0.091797	0.124512	0.37207
545.0	9.063745	-0.133613	3.77669	0.049347	1.500926	-0.404232	-0.144043	0.12207	0.374512
546.0	9.037607	0.244346	2.705367	0.14176	1.178504	-0.38923	-0.196289	0.119629	0.374512
547.0	9.343343	0.454543	2.103663	0.225404	0.799376	-0.407167	-0.246338	0.119141	0.370117
548.0	10.063655	0.573075	1.552125	0.280623	0.453734	-0.447921	-0.2854	0.114502	0.361084
549.0	10.942946	0.697153	1.337699	0.315153	0.191597	-0.491982	-0.315918	0.112305	0.356689
550.0	11.655222	0.711667	1.241059	0.252624	0.005799	-0.511516	-0.348877	0.12085	0.354248
551.0	12.364245	0.547765	1.199342	0.145051	-0.140796	-0.494389	-0.372559	0.114014	0.352051
552.0	12.505225	0.252646	0.982405	0.052098	-0.189206	-0.434109	-0.387695	0.109619	0.343018
553.0	12.155198	0.11275	0.945739	-0.013902	-0.25685	-0.325128	-0.403076	0.109619	0.349854
554.0	11.637186	-0.04699	0.930203	-0.074059	-0.373729	-0.175285	-0.418457	0.11377	0.356689
555.0	11.171906	-0.114093	0.898269	-0.012976	-0.530719	-0.04372	-0.422607	0.111572	0.359131
556.0	11.266271	0.247661	1.314667	0.120067	-0.699805	0.04239	-0.431885	0.120117	0.374756
557.0	11.425092	0.860566	1.650658	0.268595	-0.809265	0.099343	-0.427734	0.126709	0.383789
558.0	6.812929	3.676766	3.285844	0.647552	-0.436014	-0.164057	-0.432617	0.139648	0.404053
559.0	6.776361	8.762461	9.447056	0.265543	-0.782602	-0.137067	-0.432861	0.144043	0.419922
560.0	0.305448	2.358886	8.774576	-2.438296	-1.926298	0.234905	-0.430664	0.144043	0.442871
561.0	-0.260152	-0.697415	17.659063	-0.728327	-1.574091	-0.584118	-0.437256	0.141846	0.460938
562.0	-1.746256	3.184052	20.029267	-0.3602	-0.581582	-0.843756	-0.439209	0.139648	0.474854
563.0	-2.643659	-1.215628	7.184839	-2.380388	-2.683499	-0.213241	-0.438965	0.133057	0.495361
564.0	4.847012	-11.619879	2.700361	-2.741002	-4.780133	0.112454	-0.429688	0.12207	0.525146
565.0	19.161452	-14.573795	7.1553	0.427311	-2.947476	-0.42368	-0.427734	0.126465	0.543457
566.0	14.6846	-3.947026	16.105124	1.370772	-1.172097	-0.020105	-0.426025	0.13501	0.552246
567.0	9.432341	-1.748234	8.525398	0.431346	-1.351823	0.176375	-0.428223	0.139404	0.563721
568.0	5.768416	2.736457	7.291148	1.814399	-0.663921	-0.44011	-0.430908	0.150146	0.57251
569.0	11.738736	12.223377	16.331926	1.552518	-0.916985	-0.51432	-0.428711	0.147949	0.581787
570.0	15.336425	8.040557	13.255323	-2.595978	-1.565108	0.701873	-0.426025	0.13501	0.588867
571.0	6.097894	-6.134119	0.225537	-1.240719	-0.176517	0.697057	-0.427979	0.132813	0.58667
572.0	5.178646	0.804851	10.880807	1.536111	0.379067	-0.440404	-0.428467	0.141602	0.586426
573.0	6.083629	5.299148	9.650287	-0.439234	-0.19375	0.043123	-0.428467	0.141602	0.588623
574.0	6.985999	-1.491625	8.693935	-1.265489	-0.922668	0.404496	-0.423828	0.139404	0.593262
575.0	7.176331	-1.727425	6.320295	0.13559	0.023152	0.007184	-0.428223	0.137207	0.5979
576.0	5.691149	1.010364	10.057922	0.138936	0.030007	-0.003699	-0.421631	0.13501	0.588867
577.0	6.774551	-0.765077	8.083606	-0.371989	-0.455998	0.0267	-0.423828	0.139404	0.5979
578.0	6.795256	-0.674015	7.907753	0.14496	-0.043138	-0.093579	-0.426025	0.137207	0.600098
579.0	6.221332	0.773742	8.798196	0.096102	-0.137109	-0.116382	-0.419189	0.132813	0.593506
580.0	6.529882	0.389916	7.986123	0.020624	-0.160159	-0.097821	-0.421631	0.137207	0.5979
581.0	6.375038	0.569145	8.341222	0.106445	-0.079815	-0.132255	-0.421387	0.130615	0.602539
582.0	6.41177	0.725734	8.331526	0.070398	-0.094692	-0.119081	-0.41748	0.139404	0.5979
583.0	6.262729	0.770515	8.240415	0.086455	-0.063024	-0.119156	-0.423584	0.130615	0.600342
584.0	6.045877	1.104476	8.32424	0.096097	-0.060431	-0.112647	-0.419189	0.132813	0.602539
585.0	6.094583	1.006553	8.194694	0.042604	-0.102041	-0.082719	-0.421387	0.132813	0.5979
586.0	6.23741	0.871963	8.178462	0.038435	-0.097803	-0.068631	-0.421631	0.137207	0.602539
587.0	6.328588	0.603537	8.160852	0.025157	-0.09442	-0.062183	-0.421143	0.128418	0.60498
588.0	6.482439	0.60779	8.102711	0.042419	-0.077778	-0.069926	-0.423828	0.13501	0.600098
589.0	6.340207	0.918718	8.18423	0.048532	-0.034096	-0.067143	-0.419189	0.132813	0.600342
590.0	6.299051	0.989783	8.136943	-0.018906	-0.030436	-0.035939	-0.419434	0.137207	0.604736
591.0	6.268706	0.956963	8.105458	-0.031638	-0.009007	-0.013833	-0.421387	0.130615	0.604736
592.0	6.261607	0.8034	8.115848	-0.065743	0.008757	0.001459	-0.417236	0.13501	0.602539
593.0	6.174993	0.742109	8.050484	-0.059373	0.018762	0.005984	-0.421875	0.141602	0.606934
594.0	6.116124	0.753576	8.093465	-0.071732	0.010886	0.013356	-0.427979	0.132813	0.604736
595.0	6.112271	0.806156	8.093519	-0.077632	0.003227	0.021738	-0.419434	0.13501	0.602539
596.0	6.128696	0.688443	8.075561	-0.095262	-0.010309	0.028078	-0.419434	0.13501	0.602539
597.0	6.117182	0.758887	8.140528	-0.094729	0.002012	0.036206	-0.423584	0.130615	0.614014
598.0	6.085766	0.953828	8.054815	-0.12468	0.000988	0.058482	-0.419189	0.132813	0.607178
599.0	6.079299	1.026499	8.009607	-0.163388	0.001178	0.094307	-0.421631	0.137207	0.604736
600.0	6.159058	0.930514	8.008621	-0.188327	-0.000889	0.112634	-0.419189	0.130615	0.604736
601.0	6.098529	0.775536	8.152217	-0.202345	0.014245	0.12799	-0.421143	0.126221	0.602539
602.0	6.101007	0.641826	8.1875	-0.1981	-0.004496	0.13064	-0.419434	0.137207	0.606934
603.0	6.155067	0.591435	8.257837	-0.181079	-0.00862	0.126727	-0.421387	0.132813	0.609375
604.0	6.115265	0.497261	8.201358	-0.170743	-0.023674	0.120819	-0.418945	0.128418	0.611816
605.0	6.091563	0.496181	8.227921	-0.135321	-0.02562	0.115716	-0.423584	0.132813	0.607178
606.0	6.16884	0.361627	8.287474	-0.142094	-0.076768	0.105937	-0.421387	0.132813	0.609375
607.0	6.314226	0.372304	8.093755	-0.098733	-0.067882	0.092249	-0.419189	0.130615	0.609375
608.0	6.25575	0.455607	8.289289	-0.086294	-0.05984	0.080823	-0.421387	0.132813	0.607178
609.0	6.331749	0.41831	8.066469	-0.073251	-0.068928	0.070961	-0.418945	0.128418	0.607178
610.0	6.158101	0.530004	8.222496	-0.052184	-0.052016	0.067775	-0.414795	0.130615	0.607178
611.0	6.110814	0.528807	8.227876	-0.061915	-0.084484	0.06682	-0.416992	0.128418	0.607178
612.0	5.960292	0.432984	8.282605	-0.054616	-0.105526	0.069062	-0.419434	0.137207	0.611572
613.0	6.017786	0.486679	8.299168	-0.043804	-0.14744	0.061017	-0.414795	0.132813	0.614014
614.0	6.045715	0.34873	8.346867	-0.064881	-0.184444	0.069194	-0.414795	0.132813	0.611572
615.0	6.106442	0.182657	8.331463	-0.046078	-0.22046	0.050606	-0.419189	0.130615	0.611572
616.0	6.101606	0.127182	8.219859	-0.022911	-0.264307	0.031463	-0.416992	0.130615	0.614014
617.0	6.149952	0.176271	8.299538	0.025445	-0.294832	0.004716	-0.416992	0.128418	0.611816
618.0	6.23452	0.420257	8.342971	0.038545	-0.333769	-0.008248	-0.412598	0.132813	0.614014
619.0	6.299874	0.235973	8.179502	0.015535	-0.389702	-0.007112	-0.410645	0.132813	0.616211
620.0	6.226135	0.487866	8.235412	0.132794	-0.391382	-0.032901	-0.408447	0.132813	0.618408
621.0	6.153512	0.423329	8.562503	0.12939	-0.482928	-0.000622	-0.406006	0.130615	0.616211
622.0	6.310374	0.222232	8.349268	0.160359	-0.579517	-0.019188	-0.410645	0.13501	0.616211
623.0	6.025769	-0.063748	8.424833	0.2054	-0.657294	-0.045364	-0.40625	0.13501	0.625244
624.0	6.402937	0.381716	8.461473	0.269918	-0.771668	-0.073248	-0.404053	0.132813	0.625244
625.0	6.116311	0.165155	8.347829	0.273366	-0.863907	-0.078385	-0.395264	0.132813	0.629883
626.0	6.396546	0.342944	8.23916	0.302061	-1.005829	-0.107093	-0.397461	0.13501	0.625244
627.0	6.254036	0.346792	8.186304	0.342726	-1.084037	-0.118277	-0.391113	0.13501	0.625244
628.0	6.204263	0.508719	8.320648	0.374247	-1.233175	-0.120766	-0.384766	0.139404	0.627441
629.0	6.276288	0.554412	8.142811	0.380169	-1.39136	-0.113849	-0.380127	0.135254	0.63208
630.0	6.215948	0.588865	8.157695	0.449766	-1.49061	-0.125028	-0.375977	0.141602	0.636475
631.0	6.049675	0.770327	8.502822	0.519304	-1.663567	-0.12814	-0.369385	0.139648	0.636475
632.0	5.869951	0.595943	8.468134	0.491683	-1.974862	-0.119901	-0.360596	0.137451	0.636475
633.0	5.898629	0.366889	8.477159	0.619555	-2.2312	-0.137913	-0.354004	0.135254	0.643311
634.0	5.650702	0.421403	8.71115	0.735842	-2.563235	-0.173947	-0.345703	0.144043	0.650146
635.0	5.289247	0.609439	8.930592	0.802463	-3.013861	-0.219228	-0.332275	0.137451	0.65918
636.0	5.207234	1.169647	9.173114	0.794374	-3.628603	-0.265991	-0.312988	0.144287	0.65918
637.0	5.089687	1.414137	9.56604	0.764049	-4.263512	-0.239138	-0.299561	0.139893	0.672852
638.0	4.929705	1.587843	9.665078	0.823748	-5.022827	-0.178548	-0.277832	0.142334	0.679688
639.0	5.493483	1.865222	9.625587	0.876789	-5.838553	-0.087829	-0.253662	0.135742	0.684326
640.0	7.120306	2.097005	9.517682	0.940291	-6.725251	0.215593	-0.227783	0.142578	0.707031
641.0	11.718655	2.460854	10.098729	1.025001	-7.514821	0.594508	-0.188477	0.142822	0.70459
642.0	18.050731	2.259077	11.301303	0.87926	-7.967639	0.605507	-0.15332	0.138672	0.711426
643.0	21.089097	4.0882	9.786893	0.781073	-7.539506	0.713602	-0.125	0.136475	0.711426
644.0	18.671821	4.808681	11.410807	0.178455	-7.40894	1.152645	-0.096436	0.130127	0.704834
645.0	19.736216	2.937732	10.515868	-0.373809	-7.61606	1.244483	-0.084961	0.117188	0.700439
646.0	22.419983	3.397537	10.64029	-0.381722	-6.941116	1.269214	-0.069336	0.11084	0.689209
647.0	32.717558	3.251553	13.17293	-0.225237	-5.147878	1.162427	-0.06665	0.097656	0.677979
648.0	23.951892	4.679033	10.940213	0.224853	-2.523827	1.239913	-0.093018	0.104248	0.664307
649.0	5.871715	7.508748	19.952671	0.392474	-0.115935	0.726988	-0.13623	0.095215	0.64624
650.0	-3.253329	5.73897	22.756051	-0.434184	1.139851	0.814083	-0.168701	0.088379	0.641846
651.0	15.805143	0.356437	28.271026	-2.75052	-2.347604	2.170302	-0.189941	0.075195	0.633057
652.0	0.462258	-2.546871	8.270565	0.167371	3.823242	0.859522	-0.24707	0.085938	0.612305
653.0	-13.425293	3.905145	18.264779	2.347381	3.02835	0.665616	-0.290771	0.087891	0.5896
654.0	-3.580482	5.974225	15.11649	-1.08436	1.647957	0.728524	-0.323242	0.083252	0.587402
655.0	-1.571676	-0.182377	11.789933	-1.18075	1.925374	1.004803	-0.355713	0.07666	0.564697
656.0	-0.41954	2.180147	11.737821	0.391698	3.503562	0.804728	-0.397461	0.082764	0.544189
657.0	-1.617808	3.035541	11.9572	0.24699	4.24268	0.690028	-0.43457	0.082764	0.514648
658.0	-1.682398	2.262547	10.791551	-0.35686	3.876458	0.565103	-0.463135	0.089111	0.494141
659.0	-0.081844	0.642388	9.600717	-0.70189	3.650734	0.515834	-0.495605	0.08252	0.462402
660.0	2.117816	-0.394172	8.548807	-0.401383	3.896602	0.529519	-0.526123	0.084473	0.434814
661.0	3.719795	-0.296288	8.516478	0.025004	4.301133	0.48073	-0.550293	0.08667	0.398438
662.0	4.801633	0.233125	8.696976	0.209349	4.568503	0.374521	-0.574463	0.088867	0.362061
663.0	5.915335	0.496327	8.920192	0.174631	4.610788	0.413024	-0.593994	0.086426	0.327881
664.0	7.516648	0.047084	8.973143	0.098661	4.542348	0.504999	-0.615967	0.093018	0.29126
665.0	9.044194	-0.744106	8.725758	0.246995	4.626469	0.571657	-0.639893	0.093018	0.252686
666.0	10.176785	-0.985668	8.642201	0.555324	4.833512	0.511297	-0.651123	0.095215	0.216064
667.0	10.830271	-0.912154	8.980533	0.785269	4.972581	0.399533	-0.664307	0.101807	0.163574
668.0	11.756295	-0.749476	9.148848	0.899046	4.920816	0.344795	-0.668701	0.101807	0.124756
669.0	12.719131	-1.119649	9.085918	0.963105	4.829922	0.340909	-0.677246	0.097656	0.083984
670.0	13.836765	-1.417824	8.867192	1.065678	4.723599	0.287694	-0.681885	0.104248	0.049561
671.0	14.297145	-1.627722	8.409881	1.189157	4.629117	0.210818	-0.679688	0.099854	0.001709
672.0	14.490002	-1.452242	8.216931	1.257242	4.421785	0.134689	-0.675537	0.104492	-0.027832
673.0	14.492749	-1.191683	7.690521	1.323556	4.16061	0.043599	-0.670898	0.100098	-0.064209
674.0	14.219946	-0.000466	7.182804	1.36828	3.868779	-0.116675	-0.664307	0.100342	-0.109863
675.0	14.019226	1.373973	6.875931	1.270681	3.489778	-0.405757	-0.659424	0.089355	-0.130127
676.0	13.947686	2.195955	6.785269	1.031605	3.072074	-0.821011	-0.647949	0.076416	-0.157227
677.0	14.677893	2.273	7.010131	0.732794	2.634653	-1.295884	-0.634521	0.067871	-0.179932
678.0	16.050384	2.111385	7.651479	0.417575	2.358384	-1.694828	-0.625244	0.052734	-0.207031
679.0	19.545	1.598311	9.940005	0.024908	2.190804	-1.976979	-0.613525	0.0354	-0.222656
680.0	25.375097	1.039733	11.244755	-0.371158	2.547817	-2.120403	-0.599854	0.022461	-0.240723
681.0	26.391992	-0.182564	10.148242	-0.679417	3.534146	-2.068645	-0.573242	0.011719	-0.263184
682.0	23.486285	-1.964911	7.054681	-0.980662	4.240195	-1.899719	-0.555664	0.007568	-0.283691
683.0	19.226706	-3.017437	2.559211	-1.123375	4.539694	-1.666039	-0.526367	-0.009521	-0.306152
684.0	16.240816	-2.673871	-1.264116	-0.965772	4.294629	-1.437386	-0.509033	-0.009521	-0.322266
685.0	15.355765	-2.790236	-3.412069	-0.923047	3.668244	-1.17011	-0.486816	-0.018066	-0.328857
686.0	17.818477	-5.104897	-6.098002	-0.601325	2.862337	-0.86945	-0.477783	-0.022461	-0.333252
687.0	20.150781	-7.670249	-9.535171	0.305845	2.479406	-0.639749	-0.458008	-0.028809	-0.346924
688.0	19.753308	-7.449539	-13.150235	1.616004	2.176592	-0.633184	-0.450928	-0.039551	-0.344482
689.0	18.77664	-3.75474	-14.196284	2.235729	1.641474	-0.586005	-0.437256	-0.05249	-0.346436
690.0	15.630021	0.187984	-13.107974	2.17848	1.074522	-0.45054	-0.437012	-0.059082	-0.341797
691.0	15.225919	6.913036	-13.143785	1.753883	-0.662663	-0.587233	-0.436523	-0.067871	-0.330322
692.0	13.880211	8.128916	-15.500396	-0.752311	-1.758404	0.418632	-0.441406	-0.057129	-0.332764
693.0	0.354428	2.515554	-6.752146	-1.466143	-3.557827	0.764301	-0.454834	-0.050537	-0.312256
694.0	2.068162	-0.220037	23.809245	-0.815173	-4.918691	-0.331617	-0.468262	-0.044189	-0.289551
695.0	12.368764	6.41153	24.965904	-1.8513	-5.127142	-1.069637	-0.481201	-0.044434	-0.271484
696.0	10.173075	-0.31762	4.105151	-2.123843	-3.890418	-0.446672	-0.488281	-0.035645	-0.250977
697.0	13.574193	-11.322728	4.564051	-2.022118	-4.55392	-0.423093	-0.501465	-0.033691	-0.23291
698.0	21.899452	-13.369975	12.45754	0.451215	-3.361407	-0.618272	-0.505615	-0.035889	-0.221436
699.0	16.983678	-8.709041	14.922444	0.262873	-2.400216	0.015057	-0.509766	-0.040283	-0.20752
700.0	9.873924	-4.3329	6.718454	1.401893	-1.772539	-0.292718	-0.511719	-0.044678	-0.205322
701.0	9.822439	5.698411	10.950328	2.296298	-1.437448	-1.015609	-0.506836	-0.055664	-0.193604
702.0	23.449908	15.012065	25.290416	-0.172515	-1.526408	-0.189914	-0.51416	-0.04248	-0.187012
703.0	9.109607	1.582771	-3.339418	-2.52392	-0.273272	1.034946	-0.51416	-0.04248	-0.19165
704.0	2.874505	-5.00956	12.879168	0.605061	0.513694	0.358784	-0.518799	-0.036133	-0.187256
705.0	6.880324	3.464498	6.569368	-0.055118	-0.655189	-0.330183	-0.516357	-0.040527	-0.187012
706.0	8.948531	3.577064	10.029685	-0.570662	-0.028878	0.428624	-0.516602	-0.031738	-0.187256
707.0	5.872019	-1.961638	7.27268	-0.988824	-0.261414	0.500201	-0.514404	-0.036133	-0.189453
708.0	7.273461	-0.957156	8.146841	-0.008877	-0.107833	0.110953	-0.514404	-0.033936	-0.187256
709.0	6.427951	-0.354777	8.585731	-0.190432	0.028211	0.121089	-0.518799	-0.033936	-0.182617
710.0	6.512493	-0.889065	8.258216	-0.130198	-0.214183	0.027399	-0.519287	-0.025146	-0.182861
711.0	6.546492	-0.252117	8.262203	-0.000932	-0.085335	-0.047247	-0.523193	-0.031738	-0.182617
712.0	5.993814	-0.308077	8.382145	0.002759	-0.166996	-0.088121	-0.516846	-0.027344	-0.18042
713.0	6.415386	0.442091	8.165214	0.0788	-0.195943	-0.131877	-0.518799	-0.031738	-0.182617
714.0	6.379512	1.389006	8.333924	0.089722	-0.113847	-0.117945	-0.520996	-0.033936	-0.18042
715.0	6.374699	1.49585	8.314908	-0.040439	-0.146548	-0.060856	-0.518799	-0.031738	-0.178223
716.0	6.410058	0.853354	8.010442	-0.067571	-0.141449	-0.027158	-0.518799	-0.031738	-0.178223
717.0	6.169523	0.673094	8.21223	-0.042071	-0.082288	-0.020937	-0.520996	-0.031738	-0.185059
718.0	6.21385	0.664188	8.158968	-0.062797	-0.120696	-0.010472	-0.520996	-0.031738	-0.18042
719.0	6.132735	0.693109	8.131392	-0.044049	-0.08429	-0.004974	-0.52124	-0.029541	-0.175781
720.0	6.157442	0.457973	8.151696	-0.087312	-0.126939	0.013129	-0.525635	-0.027344	-0.176025
721.0	6.261687	0.410243	8.132644	-0.057473	-0.119404	-0.001344	-0.520996	-0.031738	-0.182617
722.0	6.28416	0.437932	8.119205	-0.038409	-0.113974	-0.006084	-0.525391	-0.033936	-0.177979
723.0	6.33653	0.521156	8.060454	-0.024233	-0.102066	-0.00353	-0.52124	-0.029541	-0.18042
724.0	6.268437	0.532683	8.058369	-0.01838	-0.092996	0.003968	-0.519043	-0.027344	-0.178223
725.0	6.204664	0.513142	8.101517	-0.021162	-0.088932	0.003286	-0.519287	-0.025146	-0.176025
726.0	6.212274	0.510644	8.095842	-0.027194	-0.097892	0.014085	-0.519043	-0.027344	-0.178223
727.0	6.314338	0.517099	8.045691	-0.028426	-0.113992	0.011794	-0.514648	-0.029541	-0.178223
728.0	6.357978	0.565733	8.084558	-0.022731	-0.09502	0.018896	-0.520996	-0.031738	-0.18042
729.0	6.308693	0.468425	8.059571	-0.019141	-0.090586	0.019336	-0.523438	-0.027344	-0.173584
730.0	6.295191	0.372082	8.111261	-0.018095	-0.091796	0.015327	-0.52124	-0.029541	-0.173584
731.0	6.280695	0.378412	8.100116	-0.010413	-0.102375	0.00861	-0.519043	-0.029541	-0.171387
732.0	6.28912	0.406173	8.14015	-0.002331	-0.106078	-0.001442	-0.52124	-0.029541	-0.175781
733.0	6.275975	0.414759	8.127923	0.00652	-0.122243	-0.004111	-0.52124	-0.027344	-0.169189
734.0	6.270346	0.313373	8.143797	0.005265	-0.144084	-0.00995	-0.52124	-0.029541	-0.173584
735.0	6.260194	0.35272	8.175917	0.033013	-0.155452	-0.023226	-0.523193	-0.033936	-0.168945
736.0	6.295921	0.428818	8.185158	0.043757	-0.190871	-0.030289	-0.525635	-0.027344	-0.166748
737.0	6.308568	0.753607	8.233667	0.079066	-0.196419	-0.023162	-0.525635	-0.027344	-0.169189
738.0	6.240925	0.841565	8.260077	0.063876	-0.229034	0.002442	-0.523193	-0.031738	-0.164551
739.0	6.221251	0.571363	8.219384	0.039793	-0.300068	0.04134	-0.525635	-0.025146	-0.169189
740.0	6.220902	0.780307	8.304065	0.137057	-0.338458	0.05363	-0.525635	-0.029541	-0.164551
741.0	6.162508	0.864315	8.465097	0.149251	-0.401775	0.101055	-0.525391	-0.031738	-0.157715
742.0	5.889266	0.416241	8.645978	0.12606	-0.554664	0.127152	-0.523682	-0.023193	-0.157715
743.0	6.138957	0.253965	8.384183	0.178546	-0.727225	0.124663	-0.527832	-0.027588	-0.157715
744.0	6.138024	0.090886	8.627272	0.233216	-0.821817	0.111335	-0.530029	-0.027588	-0.14624
745.0	6.067922	0.125994	8.553699	0.284358	-0.99589	0.074675	-0.532471	-0.023193	-0.144043
746.0	6.021413	0.081296	8.692957	0.280671	-1.15451	0.032705	-0.536377	-0.031982	-0.132568
747.0	6.076444	-0.054959	8.423844	0.293436	-1.371717	-0.007231	-0.532227	-0.027588	-0.121338
748.0	6.156179	0.107351	8.420876	0.30212	-1.533602	-0.066401	-0.542969	-0.029785	-0.118896
749.0	6.125665	0.185656	8.319654	0.312444	-1.709923	-0.118378	-0.541016	-0.025391	-0.105225
750.0	6.00103	0.437911	8.321372	0.354134	-1.922433	-0.154869	-0.540771	-0.027832	-0.096191
751.0	6.110225	0.599942	8.465425	0.391058	-2.192174	-0.161749	-0.544922	-0.032227	-0.077881
752.0	5.805336	0.591353	8.837946	0.521743	-2.439776	-0.152784	-0.545166	-0.030029	-0.066406
753.0	5.410293	0.64517	9.258575	0.665873	-2.834998	-0.123024	-0.544922	-0.034424	-0.043701
754.0	4.959667	0.796178	9.559827	0.812016	-3.320279	-0.10566	-0.551514	-0.034424	-0.027588
755.0	4.100246	1.718423	9.522353	0.894699	-4.013613	-0.060316	-0.55127	-0.038818	-0.002441
756.0	3.99442	2.074765	10.491822	0.640301	-5.058221	0.00579	-0.551514	-0.032471	0.0271
757.0	3.733538	2.074092	10.363047	0.596582	-6.090301	0.151346	-0.549316	-0.032471	0.068115
758.0	4.337207	3.76696	10.15119	0.83549	-7.186343	0.554108	-0.545166	-0.026123	0.111328
759.0	8.715696	3.872727	10.646841	0.623383	-8.495416	1.294102	-0.532471	-0.017334	0.1521
760.0	15.935193	1.16071	11.499965	0.730491	-9.622373	1.289446	-0.517578	-0.008789	0.204346
761.0	26.784698	1.670201	11.345049	1.207805	-9.446972	1.275018	-0.491943	0.0	0.260986
762.0	25.566903	3.108962	10.534653	0.524229	-8.293943	1.555568	-0.466064	0.006592	0.297363
763.0	23.030448	2.692914	13.012633	-0.058059	-8.256189	1.776727	-0.435791	0.01123	0.338379
764.0	27.020809	6.927017	12.801538	-0.121857	-7.628353	1.520538	-0.414307	0.022217	0.369873
765.0	41.638313	5.667136	16.465383	-0.716786	-5.213376	1.76121	-0.40332	0.02002	0.388184
766.0	23.249323	3.105165	15.911921	-0.44916	-2.225716	1.87763	-0.39502	0.031006	0.399414
767.0	-5.990348	10.205195	24.191054	0.497127	1.626544	0.273033	-0.39502	0.028809	0.387939
768.0	6.40967	9.457827	21.12911	-1.041551	-0.885259	0.341828	-0.376953	0.017822	0.410889
769.0	16.262114	2.944272	32.406216	-3.9609	-0.592639	0.151334	-0.376709	0.009277	0.404297
770.0	-8.772281	-2.79276	7.139796	0.222606	4.469112	-0.683191	-0.385254	0.004883	0.38623
771.0	-11.075178	2.235166	18.120059	0.639071	2.571146	-1.283305	-0.389648	0.006836	0.383789
772.0	-4.724933	-0.532336	16.646541	-1.259464	1.921889	-0.313834	-0.402588	0.002441	0.379395
773.0	-3.818878	-3.727283	10.707953	-0.482829	2.307879	0.044189	-0.404541	0.000244	0.368164
774.0	-2.680644	-1.987251	12.396807	0.411906	3.591193	0.328888	-0.418701	0.02002	0.356201
775.0	-2.699043	-1.578899	12.010291	0.231037	3.721769	0.651672	-0.420898	0.022217	0.338135
776.0	-0.842892	-2.519188	10.69115	0.046822	3.72784	0.931463	-0.432129	0.028564	0.315186
777.0	1.340604	-2.508479	10.058902	0.328336	4.104188	1.069629	-0.43042	0.037598	0.276123
778.0	2.714291	-1.827877	9.0928	0.601235	4.593045	1.013881	-0.417725	0.048584	0.244141
779.0	3.339238	-0.42774	8.773741	0.770576	5.026076	0.914608	-0.395752	0.046631	0.209961
780.0	3.758488	0.09481	8.615044	0.56968	5.077584	0.855895	-0.354492	0.046875	0.19165
781.0	4.740192	-0.399094	8.381039	0.382556	4.998046	0.788875	-0.301758	0.038574	0.19165
782.0	6.044393	-1.462994	8.681226	0.364934	4.893906	0.733266	-0.266602	0.034424	0.212158
783.0	8.173253	-2.609828	9.035437	0.527255	4.828781	0.713112	-0.242188	0.025635	0.262451
784.0	10.563936	-3.141836	9.509154	0.940972	4.979292	0.726685	-0.237549	0.02124	0.30127
785.0	11.852656	-3.027289	9.817949	1.26318	5.24198	0.666305	-0.257324	0.020996	0.333252
786.0	12.681779	-2.650749	10.182368	1.450779	5.273275	0.662331	-0.2854	0.01416	0.340332
787.0	13.92585	-2.780131	9.827473	1.520433	5.128509	0.741657	-0.311035	0.005371	0.335938
788.0	15.34142	-2.676922	9.211028	1.661057	4.9808	0.694564	-0.324219	0.005371	0.335938
789.0	15.915859	-1.978862	8.945719	1.811327	4.88216	0.465292	-0.344238	0.016113	0.333496
790.0	16.257782	-0.680036	8.858259	1.806912	4.621017	0.198067	-0.362061	0.022461	0.333496
791.0	16.504299	0.609336	8.243263	1.677204	4.338079	-0.131253	-0.378662	0.052979	0.3396
792.0	16.406093	1.998773	7.756772	1.395043	4.023601	-0.58318	-0.421631	0.085449	0.341309
793.0	16.247657	2.403761	7.071705	0.947787	3.584456	-1.146809	-0.467285	0.133301	0.310791
794.0	16.393859	2.242722	6.556171	0.529019	3.149453	-1.712246	-0.525879	0.174316	0.282715
795.0	17.409505	1.852242	6.465146	0.065812	2.752331	-2.151063	-0.588379	0.204834	0.213867
796.0	19.096888	0.653	7.17699	-0.362712	2.467747	-2.398067	-0.632813	0.224365	0.133789
797.0	24.466408	-0.951766	9.353325	-0.74953	2.348807	-2.474016	-0.648193	0.226563	0.038086
798.0	31.057941	-1.534302	9.526439	-0.837461	3.054885	-2.407851	-0.628174	0.218262	-0.059814
799.0	29.698115	-1.269144	7.330425	-1.029439	4.28337	-2.086154	-0.573242	0.205811	-0.132568
800.0	23.915555	-2.08235	2.774289	-1.394826	4.929526	-1.691621	-0.509521	0.195313	-0.162109
801.0	18.199018	-2.366207	-4.260061	-1.340026	4.522642	-1.576352	-0.458496	0.178223	-0.166504
802.0	16.559146	-3.132694	-7.737709	-1.309094	4.201219	-1.069529	-0.418945	0.171875	-0.159424
803.0	20.220425	-8.786735	-11.804686	-0.499364	2.669175	-0.686938	-0.396729	0.163086	-0.136475
804.0	21.973992	-8.858411	-18.100325	1.324883	2.540203	-0.911034	-0.378906	0.154541	-0.109131
805.0	20.564689	-3.958599	-19.18387	2.392803	1.639257	-1.002217	-0.369873	0.145752	-0.097412
806.0	19.953755	1.940706	-22.635404	1.7011	0.520276	-0.634343	-0.365723	0.150146	-0.074707
807.0	18.213012	2.598185	-22.384575	-0.038216	-1.075267	0.53585	-0.350342	0.152344	-0.049805
808.0	11.705406	-1.52548	-22.177329	-1.564046	-4.433871	1.291956	-0.333496	0.161133	-0.009033
809.0	-3.395622	-8.223008	13.13085	1.309736	-3.683382	0.624721	-0.305176	0.16333	0.022949
810.0	11.139959	12.772632	39.749604	3.249438	-4.812817	-1.017671	-0.2854	0.161133	0.068604
811.0	25.18232	14.156919	1.343429	-2.795637	-5.486721	0.25906	-0.272705	0.169922	0.11377
812.0	23.17837	-13.622185	8.903473	-2.270036	-4.567912	0.676588	-0.251221	0.176514	0.138916
813.0	18.806961	-1.372034	15.285144	2.200176	-2.09235	-1.403832	-0.23999	0.172119	0.161621
814.0	11.37825	0.00488	12.363139	-0.733482	-1.980744	-0.005293	-0.229248	0.172119	0.175293
815.0	6.054888	-4.06044	5.331886	0.470418	-2.088	-0.254354	-0.209717	0.174561	0.200439
816.0	17.777674	9.216317	18.467777	1.442791	-1.803765	-0.672234	-0.203125	0.176758	0.209473
817.0	13.212406	6.428871	7.655745	-1.860194	-0.744902	0.558366	-0.200928	0.176758	0.209473
818.0	9.277922	-4.94578	9.342024	-1.375454	-0.678884	0.7155	-0.194336	0.174561	0.218506
819.0	7.602514	-2.160142	6.127743	0.302169	-0.093394	-0.053492	-0.196533	0.176758	0.220703
820.0	7.02965	2.60494	10.78564	0.273055	0.206615	-0.025217	-0.187744	0.174561	0.225342
821.0	5.438392	-0.944854	8.298196	-0.808653	-0.490728	0.231061	-0.19873	0.174561	0.227539
822.0	6.986155	-0.438236	7.787414	-0.06438	-0.292331	0.014721	-0.192139	0.174561	0.225342
823.0	6.174231	0.828082	8.738288	-0.056946	-0.026963	0.019296	-0.187988	0.178955	0.232178
824.0	6.389186	-0.069009	8.399673	-0.23687	-0.365853	-0.002114	-0.185791	0.176758	0.232178
825.0	7.097537	-0.058302	7.960223	-0.034826	-0.218275	-0.083598	-0.1875	0.167969	0.239258
826.0	6.586798	1.184497	8.469064	0.06338	-0.091932	-0.113758	-0.187988	0.178955	0.239014
827.0	6.159454	0.771637	8.329175	-0.080531	-0.168647	-0.091888	-0.189941	0.174561	0.234375
828.0	6.415259	0.776572	8.012192	0.006204	-0.163599	-0.101551	-0.183594	0.176758	0.239014
829.0	6.10718	1.735447	8.168794	0.032872	-0.071017	-0.065927	-0.185547	0.172363	0.243652
830.0	6.083957	1.77957	8.144491	-0.135609	-0.14201	0.029484	-0.185791	0.176758	0.236816
831.0	6.357734	0.845984	8.025491	-0.198696	-0.146296	0.075283	-0.181396	0.174561	0.239014
832.0	6.313883	0.450986	8.118154	-0.164425	-0.094455	0.076164	-0.183594	0.176758	0.236816
833.0	6.18768	0.412288	8.188772	-0.13093	-0.10509	0.058333	-0.181396	0.174561	0.243652
834.0	6.173622	0.557209	8.079916	-0.125892	-0.105989	0.054424	-0.179199	0.176758	0.241211
835.0	6.013759	0.658199	8.269951	-0.101712	-0.11154	0.050489	-0.181396	0.174561	0.243652
836.0	6.233985	0.524527	8.109987	-0.143481	-0.168715	0.056984	-0.178955	0.172363	0.239014
837.0	6.287933	0.496012	8.02084	-0.096023	-0.141278	0.049625	-0.178955	0.170166	0.24585
838.0	6.120593	0.71873	8.211699	-0.062273	-0.122431	0.050339	-0.174561	0.172363	0.248291
839.0	6.339431	0.696422	8.109382	-0.120374	-0.183512	0.06981	-0.179199	0.174561	0.259521
840.0	6.435415	0.552058	8.003033	-0.088966	-0.148768	0.064034	-0.178711	0.165771	0.255127
841.0	6.353852	0.48211	8.069542	-0.082528	-0.138467	0.060357	-0.179199	0.174561	0.254883
842.0	6.379745	0.402268	8.117827	-0.076052	-0.15449	0.05266	-0.17041	0.174561	0.259521
843.0	6.419249	0.347377	8.034753	-0.059324	-0.143977	0.040282	-0.172363	0.172363	0.257324
844.0	6.43309	0.594032	7.957527	-0.010168	-0.13547	0.024719	-0.179199	0.174561	0.26416
845.0	6.322698	0.658119	8.11333	-0.013475	-0.117083	0.037978	-0.172363	0.170166	0.259521
846.0	6.241133	0.536	8.088386	-0.036307	-0.153726	0.050788	-0.177002	0.174561	0.261719
847.0	6.344571	0.418085	8.084834	-0.020937	-0.175055	0.037441	-0.172363	0.170166	0.259521
848.0	6.361554	0.154254	8.108218	-0.011957	-0.196744	0.022974	-0.176758	0.172363	0.259521
849.0	6.468148	0.150832	8.161646	0.033756	-0.219353	-0.015692	-0.172607	0.174561	0.268555
850.0	6.435344	0.334463	8.074297	0.080465	-0.226499	-0.035519	-0.174561	0.170166	0.266357
851.0	6.265204	0.885444	8.248287	0.115283	-0.229349	-0.021423	-0.170166	0.172363	0.261963
852.0	6.2106	0.654366	8.304028	0.059522	-0.324797	0.041549	-0.172363	0.172363	0.273193
853.0	6.33459	0.759319	8.139076	0.126909	-0.373154	0.051368	-0.17041	0.176758	0.270996
854.0	6.296633	0.576613	8.246241	0.104242	-0.444205	0.079656	-0.168213	0.176758	0.270996
855.0	6.167387	0.193574	8.466494	0.119286	-0.523463	0.075739	-0.166016	0.176758	0.275391
856.0	6.23137	0.325147	8.324603	0.192023	-0.661435	0.059287	-0.163818	0.174561	0.273193
857.0	6.160454	0.226811	8.46056	0.23082	-0.768588	0.049656	-0.168457	0.178955	0.284424
858.0	6.122572	0.145379	8.515719	0.260259	-0.94732	0.028873	-0.168213	0.176758	0.284668
859.0	6.296652	-0.054809	8.396058	0.281632	-1.116071	-0.014912	-0.170654	0.178711	0.293701
860.0	6.135063	0.033625	8.431547	0.353436	-1.246638	-0.073641	-0.16626	0.178955	0.295898
861.0	6.030271	0.261509	8.513784	0.355383	-1.477301	-0.122968	-0.163818	0.176758	0.30957
862.0	5.983552	0.295025	8.408496	0.33874	-1.780274	-0.164568	-0.159668	0.178711	0.318604
863.0	6.207174	0.212831	8.224857	0.40264	-1.944257	-0.206275	-0.161621	0.174316	0.327881
864.0	6.035145	0.386874	8.51007	0.509063	-2.143159	-0.24001	-0.161621	0.174316	0.336914
865.0	5.853472	0.407577	8.642579	0.590471	-2.444361	-0.245269	-0.155273	0.178711	0.350586
866.0	5.589575	0.420437	8.926759	0.744263	-2.771051	-0.232572	-0.155273	0.178711	0.368896
867.0	5.184547	0.494886	9.409939	0.870474	-3.248911	-0.256417	-0.146729	0.180908	0.380127
868.0	4.688218	0.887257	9.705247	0.957326	-3.917801	-0.301727	-0.140137	0.183105	0.398438
869.0	4.161013	1.530624	10.388963	1.032058	-4.831663	-0.345739	-0.127197	0.185303	0.432373
870.0	3.686263	2.091329	10.641858	1.009918	-5.910346	-0.331847	-0.114258	0.189697	0.45752
871.0	3.535251	4.112165	10.505258	1.306047	-7.031514	-0.040658	-0.090576	0.196289	0.486816
872.0	6.108243	5.691693	10.648067	1.035681	-8.363708	0.813139	-0.060059	0.194336	0.520996
873.0	15.245641	2.931429	11.3035	0.779354	-9.189953	1.303178	-0.027588	0.200928	0.562012
874.0	24.308514	1.620024	12.572373	1.107208	-9.7501	1.455757	0.000732	0.203125	0.591553
875.0	29.909561	5.59451	9.556585	0.741876	-9.017729	1.287876	0.013916	0.19873	0.616699
876.0	27.441304	4.758481	14.469199	-0.284609	-8.006879	2.056949	0.023193	0.190186	0.632813
877.0	27.130966	5.509201	13.006643	-0.430193	-7.509949	1.776761	0.019531	0.174805	0.655762
878.0	38.485949	7.129	16.575346	-0.532607	-4.908404	1.796214	-0.010254	0.156982	0.669922
879.0	17.981179	3.177093	19.272217	-0.597481	-2.390629	1.800134	-0.049072	0.143799	0.686279
880.0	-5.403979	12.738512	25.767481	0.688708	1.231909	-0.023019	-0.118164	0.130127	0.695557
881.0	5.918138	9.869109	23.581859	-1.718617	-0.991102	0.60059	-0.140625	0.097168	0.705322
882.0	14.609059	1.002425	33.447457	-4.182059	-0.629438	0.787791	-0.200195	0.061768	0.719971
883.0	-9.509933	-3.243365	8.321587	0.402698	4.475173	-0.33775	-0.272217	0.061523	0.706299
884.0	-11.065193	3.31872	18.945038	1.326913	3.403864	-0.825122	-0.336914	0.045654	0.702148
885.0	-7.036934	1.315777	17.412607	-0.978677	2.146502	0.271208	-0.375244	0.028076	0.695801
886.0	-3.946347	-2.217764	13.038869	-1.111968	1.712396	0.669032	-0.428955	0.010254	0.677979
887.0	-0.847722	-2.696376	11.652852	0.094988	3.294248	0.93154	-0.483398	0.005615	0.652832
888.0	-1.377372	-0.955635	12.080983	0.959196	4.455934	1.03277	-0.533203	0.000977	0.62793
889.0	-0.862091	-0.054778	11.328811	0.625688	4.404043	1.194094	-0.596436	0.000732	0.591553
890.0	1.388611	-0.563457	10.137416	0.509397	4.324864	1.247075	-0.642334	-0.001709	0.543945
891.0	3.721545	-0.174867	9.24115	0.741112	4.624565	1.193893	-0.681641	0.000488	0.496094
892.0	5.168021	0.611687	8.837889	0.900713	5.024518	0.93064	-0.725342	0.004639	0.43457
893.0	6.079434	1.190019	8.860822	0.854033	5.300134	0.654596	-0.760254	0.004639	0.373047
894.0	6.931492	0.850763	8.77814	0.673921	5.32483	0.502501	-0.780273	0.009033	0.311279
895.0	8.391916	-0.290069	8.820555	0.556526	5.128713	0.471514	-0.78418	0.002686	0.240967
896.0	10.750043	-1.55583	8.929331	0.667275	5.007018	0.517392	-0.781982	0.002686	0.177002
897.0	12.551162	-2.67371	9.023724	0.965449	5.223841	0.42708	-0.77124	0.00293	0.122314
898.0	13.74455	-2.032698	9.665936	1.344918	5.334007	0.299324	-0.749512	0.007568	0.072021
899.0	15.244752	-1.085846	9.926131	1.370567	5.269773	0.321337	-0.730225	0.014404	0.033203
900.0	16.35982	-0.837163	9.497613	1.326555	5.228793	0.25957	-0.707031	0.030029	-0.001465
901.0	17.006617	-0.495198	9.176629	1.338288	5.158466	0.07586	-0.689697	0.032227	-0.028809
902.0	17.115	0.267096	8.995563	1.286148	5.054408	-0.18945	-0.670898	0.052002	-0.056641
903.0	16.973729	0.859497	9.061424	1.139036	4.893473	-0.507741	-0.655762	0.052246	-0.086182
904.0	16.994651	1.209567	9.015207	0.947894	4.69456	-0.85334	-0.642822	0.056885	-0.102295
905.0	16.829871	1.358878	8.814152	0.736972	4.506178	-1.224008	-0.631836	0.054688	-0.125
906.0	16.123153	1.216176	8.407025	0.504407	4.268063	-1.592181	-0.616699	0.059326	-0.141113
907.0	16.161636	1.002753	8.163828	0.232703	3.93563	-1.900902	-0.603516	0.057129	-0.156982
908.0	17.999423	0.103154	8.659936	-0.114922	3.579313	-2.10279	-0.601074	0.050781	-0.175049
909.0	22.339808	-1.074347	9.842779	-0.430907	3.430343	-2.164882	-0.603271	0.048584	-0.181885
910.0	26.588504	-1.638096	9.144679	-0.625824	3.840381	-2.086619	-0.598633	0.044189	-0.20459
911.0	25.536358	-1.291733	6.54118	-0.762281	4.469107	-1.875431	-0.585449	0.044434	-0.231934
912.0	22.529075	-0.714507	2.478912	-1.005752	4.642885	-1.651253	-0.587402	0.037842	-0.259277
913.0	19.372517	-1.224563	-2.172684	-1.120982	4.423877	-1.443519	-0.57666	0.040283	-0.277588
914.0	18.86711	-4.038584	-6.43484	-0.981821	3.700786	-1.182965	-0.565918	0.044678	-0.300293
915.0	20.91219	-8.793495	-11.604549	-0.168534	2.847972	-0.905358	-0.56543	0.033691	-0.311523
916.0	22.613408	-10.748285	-17.528537	1.445585	2.245494	-0.967863	-0.560791	0.027344	-0.325195
917.0	22.832315	-6.33333	-19.125346	2.529033	1.687194	-0.773954	-0.553955	0.020752	-0.336426
918.0	22.074238	-2.058547	-18.227723	1.85552	0.75164	-0.177544	-0.558105	0.016357	-0.331787
919.0	19.228545	1.639575	-15.36124	0.753699	-0.315777	0.253903	-0.567139	0.022949	-0.324951
920.0	14.614242	0.885058	-9.693032	-0.78612	-1.362817	0.739629	-0.580566	0.029297	-0.318359
921.0	14.460558	-0.316121	-8.678326	-1.302344	-4.645623	0.985425	-0.590088	0.046631	-0.29126
922.0	2.43959	-1.54881	-0.289365	0.722102	-1.436707	0.597081	-0.596191	0.040039	-0.281982
923.0	-1.624456	13.938316	39.012841	2.728096	-2.332035	-0.979333	-0.604736	0.033447	-0.270508
924.0	0.082973	11.884417	6.907999	-0.267945	-1.606031	-0.509623	-0.620117	0.037598	-0.25
925.0	6.241347	1.425967	3.934658	-3.478844	-8.043647	0.154675	-0.64502	0.059082	-0.17749
926.0	36.441192	-13.260862	17.867333	-5.601857	-10.373542	-0.188339	-0.6604	0.061035	-0.138672
927.0	24.23836	-19.746828	3.765691	1.077611	-1.276347	-0.332143	-0.657959	0.056641	-0.127197
928.0	13.381521	-5.637314	17.195159	2.01304	-2.613716	-0.650163	-0.670898	0.050049	-0.113525
929.0	12.11782	2.340198	8.233024	1.350767	-1.912077	-0.280255	-0.670654	0.047852	-0.102051
930.0	15.485002	10.584207	16.181843	1.708959	-1.475167	-0.449492	-0.673096	0.050049	-0.095215
931.0	16.728282	11.938027	10.709531	-1.312489	-0.685423	0.089586	-0.675537	0.056641	-0.095459
932.0	7.390083	-3.307773	7.680913	-2.130964	-0.413773	1.153678	-0.671387	0.060791	-0.086426
933.0	6.053763	-5.421495	6.743535	-0.244218	-0.634808	0.036588	-0.677979	0.060791	-0.086426
934.0	8.298525	3.187601	9.753933	0.75835	0.311568	-0.172092	-0.675781	0.060791	-0.086426
935.0	6.150443	1.433818	9.021721	-0.773303	-0.104863	0.274085	-0.675781	0.060791	-0.083984
936.0	5.532937	-0.593106	7.903502	-0.366805	-0.371875	0.151585	-0.675781	0.062988	-0.081787
937.0	6.775462	1.224926	8.434159	-0.183246	-0.038641	0.128055	-0.677979	0.062988	-0.083984
938.0	6.316876	0.169147	8.320048	-0.332077	-0.205132	0.138438	-0.673584	0.065186	-0.081787
939.0	6.165285	-1.039577	8.25775	-0.271845	-0.186353	0.085464	-0.675781	0.065186	-0.07959
940.0	6.530003	-0.381075	8.248514	-0.04515	-0.203202	-0.028113	-0.674072	0.071777	-0.077393
941.0	6.510236	0.412877	8.429744	-0.053469	-0.165927	-0.066912	-0.676025	0.06958	-0.072754
942.0	6.315033	0.015761	8.179831	-0.065702	-0.23447	-0.084069	-0.678223	0.06958	-0.075195
943.0	6.425185	0.949235	8.256934	0.032784	-0.155048	-0.102624	-0.676025	0.06958	-0.075195
944.0	6.103539	1.304574	8.257918	-0.001904	-0.149461	-0.080552	-0.676025	0.067383	-0.074951
945.0	6.42154	1.049091	7.969603	-0.07375	-0.224161	-0.055354	-0.675537	0.058594	-0.07251
946.0	6.32232	0.636805	8.033238	-0.001696	-0.140917	-0.058489	-0.677979	0.065186	-0.070557
947.0	6.260989	0.298869	8.248613	-0.005833	-0.175131	-0.064984	-0.680176	0.062988	-0.068115
948.0	6.45423	-0.039419	8.214433	0.002212	-0.196291	-0.076813	-0.677979	0.062988	-0.063477
949.0	6.220692	0.63612	8.109561	0.058809	-0.112207	-0.071735	-0.675781	0.065186	-0.065918
950.0	6.230882	1.250223	8.207954	-0.022919	-0.137914	-0.032741	-0.680176	0.062988	-0.063477
951.0	6.3368	0.768363	7.908747	-0.118244	-0.171681	0.020013	-0.68042	0.067383	-0.063721
952.0	6.404478	0.954221	7.947808	-0.076197	-0.099726	0.031015	-0.677979	0.065186	-0.063721
953.0	6.292326	1.071564	7.962277	-0.106772	-0.069394	0.074637	-0.677979	0.065186	-0.065918
954.0	6.454956	0.849094	8.002443	-0.159264	-0.079196	0.113969	-0.678467	0.071777	-0.063721
955.0	6.61279	0.394651	7.84781	-0.187037	-0.088772	0.130252	-0.680176	0.065186	-0.061279
956.0	6.604901	0.293415	7.882962	-0.099572	-0.01026	0.104632	-0.682617	0.067383	-0.059082
957.0	6.237811	0.526661	7.88903	-0.037651	0.04291	0.101993	-0.68042	0.06958	-0.059082
958.0	5.969983	0.700133	8.362145	-0.043453	0.046364	0.117073	-0.68042	0.06958	-0.061523
959.0	6.127529	0.749372	8.04443	-0.101114	-0.077578	0.132465	-0.687256	0.078125	-0.063965
960.0	6.280491	0.411805	8.165091	-0.115877	-0.070338	0.141413	-0.678467	0.076172	-0.059326
961.0	6.220696	0.037046	8.225613	-0.087714	-0.092039	0.118982	-0.682861	0.076172	-0.063721
962.0	6.282584	0.174324	8.116122	-0.028642	-0.12922	0.066069	-0.680664	0.073975	-0.066162
963.0	6.215965	0.062612	8.375848	-0.043846	-0.135643	0.059249	-0.68042	0.071777	-0.061523
964.0	6.270093	-0.137125	8.240622	-0.051427	-0.217351	0.02902	-0.680664	0.073975	-0.05249
965.0	6.298133	0.102287	8.220081	0.017487	-0.212136	-0.011416	-0.67627	0.076172	-0.059326
966.0	6.170016	0.388251	8.363157	0.042648	-0.250278	-0.017101	-0.678467	0.073975	-0.05249
967.0	6.217463	0.63701	8.285291	0.046614	-0.318903	-0.011889	-0.685059	0.078125	-0.045654
968.0	6.046245	0.626988	8.527679	0.097911	-0.377771	0.031129	-0.683105	0.078125	-0.047852
969.0	5.978246	0.824208	8.563625	0.149742	-0.474275	0.054179	-0.678711	0.078125	-0.050293
970.0	5.912949	0.223219	8.763016	0.091254	-0.677175	0.088563	-0.682861	0.07373	-0.041016
971.0	6.086647	-0.025392	8.527538	0.175926	-0.862822	0.058239	-0.685303	0.080322	-0.036621
972.0	6.094268	0.004672	8.837242	0.252694	-0.967404	0.029602	-0.689453	0.078125	-0.022949
973.0	5.96903	-0.378231	8.606232	0.25869	-1.203911	-0.008692	-0.689453	0.075928	-0.011475
974.0	6.190691	-0.341653	8.518448	0.30607	-1.377082	-0.083193	-0.689697	0.080322	-0.004639
975.0	5.893581	-0.225208	8.608801	0.378561	-1.566404	-0.142487	-0.691895	0.080078	0.004395
976.0	5.843799	0.052509	8.450175	0.404968	-1.836734	-0.19009	-0.689453	0.077881	0.018311
977.0	5.93395	0.449671	8.463422	0.398932	-2.141077	-0.215208	-0.680664	0.07373	0.025146
978.0	6.059859	0.531389	8.496785	0.472605	-2.309661	-0.208877	-0.691406	0.071289	0.045654
979.0	5.666178	0.93056	8.80725	0.636476	-2.577098	-0.16924	-0.691406	0.073486	0.063965
980.0	5.357654	1.011618	9.215907	0.694413	-2.960545	-0.081998	-0.687012	0.071289	0.079834
981.0	4.828402	0.782744	9.742091	0.76101	-3.489616	-0.018516	-0.6875	0.080078	0.106934
982.0	4.069545	1.018433	9.87039	0.865929	-4.274772	-0.057653	-0.682861	0.073242	0.143555
983.0	3.58436	1.954768	10.72064	0.874283	-5.322307	-0.070313	-0.67627	0.075439	0.179932
984.0	2.9712	2.679156	10.696424	0.7847	-6.473741	0.010495	-0.667725	0.079834	0.220947
985.0	3.722901	4.997044	10.606094	0.953565	-7.705167	0.458693	-0.648682	0.092773	0.273193
986.0	8.459409	5.403097	10.872286	0.537709	-9.087611	1.519853	-0.625244	0.10376	0.332031
987.0	17.642107	1.58072	12.412565	0.494828	-9.849365	1.938776	-0.591064	0.119141	0.388672
988.0	27.959998	1.139994	11.604822	0.795612	-10.13736	1.842219	-0.552246	0.132324	0.452148
989.0	28.944641	2.157365	9.615858	0.346089	-8.897199	1.850807	-0.515625	0.143311	0.495361
990.0	27.193516	5.066595	14.423224	0.119614	-8.443274	1.900319	-0.476807	0.150146	0.536133
991.0	35.675015	10.573212	16.74928	-0.208446	-7.10915	1.713284	-0.446289	0.152344	0.563477
992.0	38.317813	4.35833	16.271222	-1.456315	-4.179263	2.329445	-0.440186	0.158936	0.579346
993.0	11.603472	4.884118	23.264744	0.064833	-1.069739	1.442237	-0.437988	0.16333	0.576904
994.0	-9.670225	16.388407	26.454635	1.135835	2.840644	-1.172407	-0.451172	0.161133	0.572266
995.0	10.856184	14.864794	27.574914	-3.905216	-2.515216	-0.435295	-0.452148	0.136963	0.593262
996.0	9.641262	-0.514461	20.65412	-4.055517	1.485021	-0.386747	-0.471191	0.121582	0.584473
997.0	-15.386986	-6.531209	11.462176	0.647161	4.570954	-1.542707	-0.501465	0.119385	0.564209
998.0	-5.384807	2.45417	16.530182	0.480035	2.810446	-1.687268	-0.520996	0.116943	0.55957
999.0	-5.823092	-2.730049	15.787099	-1.451792	1.831209	-0.506251	-0.536133	0.110352	0.555176
1000.0	-0.88422	-4.849858	12.68459	-0.804209	2.058319	0.177412	-0.564941	0.121094	0.545898
1001.0	0.476906	-4.727575	11.799871	0.408397	4.067391	0.72598	-0.593506	0.129639	0.516113
1002.0	-0.825309	-3.042717	11.967856	0.661401	4.576758	1.161751	-0.622559	0.144775	0.493164
1003.0	0.535318	-3.218962	10.238452	0.431889	4.433692	1.476215	-0.651611	0.157959	0.465576
1004.0	2.320398	-2.622614	8.682404	0.809024	4.836324	1.581594	-0.685059	0.177246	0.43335
1005.0	2.761991	-0.906666	8.061263	1.101103	5.203999	1.473671	-0.716797	0.198975	0.396484
1006.0	3.254703	0.772082	7.710499	1.10207	5.271954	1.31083	-0.747803	0.212158	0.348389
1007.0	4.230513	1.809709	7.999963	0.831559	5.141913	1.015253	-0.774414	0.220703	0.307129
1008.0	5.564598	1.406141	8.479588	0.499606	5.006887	0.681	-0.801025	0.233887	0.261475
1009.0	7.407267	0.336059	9.044898	0.415864	4.9088	0.413486	-0.816162	0.229492	0.206787
1010.0	9.426998	-0.943934	9.502204	0.519988	4.964309	0.238736	-0.82959	0.233887	0.149658
1011.0	10.884916	-1.979047	9.850089	0.791737	5.155712	0.116485	-0.844482	0.229492	0.102051
1012.0	11.786063	-2.452404	10.159805	1.000798	5.16017	0.157993	-0.844727	0.229736	0.047363
1013.0	13.785348	-3.106455	10.429345	1.159939	5.099543	0.301482	-0.844238	0.223389	-0.011719
1014.0	15.66096	-3.393979	10.464166	1.409687	5.134234	0.332593	-0.840088	0.223389	-0.064209
1015.0	17.532974	-3.274801	11.235075	1.635053	5.099078	0.329673	-0.828857	0.219238	-0.105225
1016.0	19.6069	-2.814501	11.275074	1.831652	5.102932	0.26842	-0.818115	0.219482	-0.159912
1017.0	20.424727	-1.103268	11.001308	2.018829	5.2424	0.043687	-0.811035	0.20874	-0.205322
1018.0	20.56204	0.841169	10.399302	1.883069	5.232208	-0.266909	-0.792969	0.195801	-0.248291
1019.0	20.198288	2.355621	9.290158	1.590138	5.125304	-0.723465	-0.783936	0.189453	-0.296143
1020.0	19.792015	3.529969	8.12552	1.150736	4.857035	-1.270331	-0.767334	0.15918	-0.327393
1021.0	19.441611	3.781346	6.97219	0.597448	4.49931	-1.801861	-0.749023	0.139648	-0.354492
1022.0	19.609383	3.188649	6.386546	0.047545	4.087777	-2.187033	-0.739502	0.122314	-0.385986
1023.0	21.762765	2.332594	6.587687	-0.441967	3.736095	-2.372628	-0.72583	0.109375	-0.410889
1024.0	24.101519	0.696326	5.627283	-0.96011	3.62061	-2.420835	-0.714111	0.089844	-0.437744
1025.0	24.921623	-0.905826	3.148715	-1.078518	3.793745	-2.464329	-0.693848	0.076904	-0.462646
1026.0	23.504258	-0.103492	1.031987	-1.145214	3.953784	-2.314902	-0.669189	0.059814	-0.491943
1027.0	23.093437	-2.926801	-3.198395	-1.582429	3.652789	-1.875378	-0.655762	0.053467	-0.507813
1028.0	24.800128	-8.791521	-9.717951	-1.139261	3.24067	-1.212032	-0.637939	0.046875	-0.532715
1029.0	24.359055	-14.071517	-17.449001	0.580573	2.854005	-1.004945	-0.62207	0.029541	-0.541504
1030.0	21.833447	-10.35868	-21.547964	2.954333	2.484495	-1.195539	-0.609863	0.003662	-0.559326
1031.0	19.700049	-2.611958	-18.935265	3.585216	1.606831	-0.984717	-0.602051	-0.024658	-0.556396
1032.0	16.705624	3.845544	-14.999867	2.709939	0.459281	-0.493992	-0.594971	-0.037842	-0.562988
1033.0	16.451004	10.850081	-12.876908	1.291556	-0.664551	-0.26171	-0.612061	-0.046631	-0.553711
1034.0	11.413363	6.822821	-10.351179	-3.025734	-3.263292	0.938525	-0.633057	-0.018555	-0.533691
1035.0	-5.469542	-3.98821	-3.590761	-2.140542	-3.986098	1.310495	-0.657227	-0.012207	-0.506592
1036.0	5.491766	1.342406	42.241807	-0.188743	-6.797167	-0.550121	-0.687744	-0.014648	-0.469971
1037.0	9.809317	5.440702	7.366258	-2.597412	-3.978087	-0.465447	-0.708008	0.000488	-0.438232
1038.0	10.530049	-6.913943	3.079131	-3.321703	-6.132342	0.635644	-0.741211	0.015381	-0.388428
1039.0	27.737394	-19.167681	8.602728	-1.33909	-5.88542	-0.590643	-0.756104	0.006592	-0.36084
1040.0	23.560784	-9.643488	18.678988	1.335299	-2.710592	-0.432988	-0.766846	0.001953	-0.344971
1041.0	15.233623	-5.299537	9.49314	0.517946	-2.523759	-0.176222	-0.772949	-0.006836	-0.324219
1042.0	11.590626	1.898475	10.477006	2.035492	-1.727108	-0.566898	-0.783447	-0.02002	-0.3125
1043.0	22.588548	14.738463	23.004396	0.891849	-1.344215	-0.50163	-0.787842	-0.015625	-0.303467
1044.0	12.145163	4.318191	4.11579	-2.459754	-0.419911	0.831958	-0.78833	-0.004639	-0.305908
1045.0	2.43485	-7.206786	7.578805	-0.580831	-0.034996	0.56838	-0.788574	-0.002686	-0.299072
1046.0	6.898477	1.005937	9.078881	0.717091	-0.545752	-0.408717	-0.794678	-0.009277	-0.299072
1047.0	8.745826	4.413622	9.012956	-0.202664	-0.155672	0.099859	-0.78833	-0.006836	-0.30127
1048.0	5.119829	-0.156412	8.016403	-0.565283	-0.174471	0.260442	-0.788574	0.001709	-0.296875
1049.0	6.734017	0.869309	8.125218	-0.154299	-0.360493	0.121055	-0.794922	-0.004883	-0.292236
1050.0	6.736705	-0.55905	8.617045	-0.37227	-0.239555	0.14482	-0.790771	-0.000488	-0.296875
1051.0	6.525403	-1.610157	8.144373	-0.117734	-0.312781	0.01019	-0.79541	0.003906	-0.29248
1052.0	7.213639	-0.170457	8.66687	0.073434	-0.203031	-0.100316	-0.797607	0.006104	-0.285645
1053.0	6.617044	-0.138352	8.39888	0.04069	-0.193191	-0.151194	-0.797363	0.003906	-0.287842
1054.0	6.299324	-0.159335	8.204144	0.118867	-0.174705	-0.192217	-0.797363	-0.000488	-0.283203
1055.0	6.437987	1.293173	8.245663	0.271677	-0.112005	-0.238467	-0.795166	0.001709	-0.278809
1056.0	6.258578	1.632302	8.208607	0.157357	-0.112928	-0.18949	-0.796875	-0.00708	-0.287598
1057.0	6.290049	1.163826	8.223338	0.100791	-0.168811	-0.163622	-0.797119	-0.004883	-0.2854
1058.0	6.305145	0.982603	8.158339	0.114578	-0.114956	-0.142608	-0.796875	-0.009277	-0.276123
1059.0	6.149915	0.743648	8.25962	0.078917	-0.112552	-0.120977	-0.799072	-0.009277	-0.280762
1060.0	6.099283	0.979598	8.144669	0.038727	-0.10512	-0.087538	-0.794678	-0.009277	-0.278564
1061.0	6.015006	1.495047	8.184196	-0.006436	-0.096086	-0.048642	-0.796875	-0.00708	-0.273926
1062.0	6.107882	1.040762	8.040545	-0.139078	-0.165941	0.005822	-0.80127	-0.00708	-0.273926
1063.0	6.334309	0.830885	7.889927	-0.102278	-0.13525	0.012349	-0.80127	-0.00708	-0.276367
1064.0	6.177118	0.857953	7.952489	-0.097737	-0.071084	0.032343	-0.799072	-0.00708	-0.280762
1065.0	6.17877	0.926659	7.962491	-0.114359	-0.098442	0.044395	-0.801758	0.001709	-0.27417
1066.0	6.22455	0.766359	8.039471	-0.130477	-0.094297	0.061327	-0.801514	-0.004883	-0.278564
1067.0	6.067579	0.811998	8.026015	-0.091265	-0.071698	0.056529	-0.799316	-0.002686	-0.278564
1068.0	5.912209	0.833907	8.273878	-0.094068	-0.076946	0.06637	-0.801758	-0.000488	-0.276367
1069.0	6.16195	0.682803	8.200706	-0.141318	-0.193467	0.070683	-0.799316	-0.002686	-0.264893
1070.0	6.391698	0.347173	8.093604	-0.123023	-0.188763	0.052366	-0.799561	-0.000488	-0.267334
1071.0	6.385616	0.414269	8.150648	-0.043856	-0.143727	0.020013	-0.801514	-0.002686	-0.267334
1072.0	6.275491	0.413522	8.209498	-0.014366	-0.158043	-0.010145	-0.801514	-0.004883	-0.271729
1073.0	6.38579	0.257785	8.146213	0.006468	-0.211053	-0.03657	-0.803711	-0.004883	-0.269531
1074.0	6.397892	0.485272	8.112406	0.07073	-0.179533	-0.056287	-0.803711	-0.002686	-0.264893
1075.0	6.0556	1.015403	8.285786	0.087566	-0.169062	-0.039731	-0.803711	-0.002686	-0.264893
1076.0	6.19227	0.856168	8.224982	-0.002072	-0.292149	-0.00024	-0.8125	-0.00293	-0.260498
1077.0	6.391578	0.782277	8.146498	0.035852	-0.298313	-0.003332	-0.807861	-0.00708	-0.260254
1078.0	6.201475	0.774196	8.239204	0.064208	-0.310631	0.014979	-0.805908	-0.002686	-0.258057
1079.0	6.167481	0.777987	8.369179	0.124248	-0.402901	0.039473	-0.807861	-0.007324	-0.251221
1080.0	6.138673	0.955303	8.504969	0.134458	-0.435595	0.027448	-0.805908	-0.000732	-0.249023
1081.0	5.873377	0.598494	8.521625	0.09916	-0.58413	0.047163	-0.812256	-0.005127	-0.244385
1082.0	6.096638	0.313182	8.61727	0.134876	-0.766885	0.034871	-0.814453	-0.005127	-0.237549
1083.0	6.403359	0.230163	8.424613	0.194398	-0.891871	-0.004549	-0.814697	-0.000732	-0.230713
1084.0	6.187039	0.14023	8.483607	0.298891	-0.961167	-0.040145	-0.819092	-0.000732	-0.22168
1085.0	6.240913	0.317386	8.42825	0.354635	-1.143922	-0.074044	-0.822998	-0.009521	-0.210205
1086.0	6.214659	0.225673	8.408488	0.399353	-1.289621	-0.099708	-0.823242	-0.007324	-0.205566
1087.0	5.842443	0.370403	8.498346	0.442183	-1.564954	-0.143125	-0.833984	-0.009766	-0.182861
1088.0	6.199181	0.285835	8.251642	0.410448	-1.787302	-0.162727	-0.831543	-0.01416	-0.164551
1089.0	6.1473	0.268821	7.979539	0.517625	-1.944525	-0.211428	-0.837891	-0.018555	-0.152832
1090.0	6.150675	0.613963	8.158105	0.574412	-2.125416	-0.253463	-0.844482	-0.018555	-0.136963
1091.0	6.005917	0.683659	8.190915	0.649299	-2.312768	-0.287493	-0.842285	-0.018799	-0.111816
1092.0	5.826879	0.872841	8.402191	0.727889	-2.600991	-0.290759	-0.850586	-0.027588	-0.093506
1093.0	5.536803	0.685299	8.496356	0.798305	-2.989068	-0.293323	-0.850342	-0.031982	-0.068359
1094.0	5.103868	0.844183	9.078232	0.920256	-3.543903	-0.36032	-0.854248	-0.040771	-0.029297
1095.0	4.835747	0.776976	9.555443	0.92722	-4.29485	-0.445398	-0.852051	-0.040771	0.00708
1096.0	4.056672	0.845079	9.830586	1.086622	-5.169263	-0.496285	-0.856445	-0.043213	0.054932
1097.0	3.74446	2.01499	9.865811	1.311531	-6.246977	-0.508576	-0.849609	-0.047607	0.118896
1098.0	4.552624	4.918399	9.723326	1.643018	-7.450041	-0.041872	-0.849609	-0.047852	0.178223
1099.0	8.835935	5.372591	11.146966	1.465526	-8.311869	0.186391	-0.82373	-0.043457	0.248535
1100.0	16.3141	2.90416	11.482002	1.546944	-9.389786	0.618812	-0.797852	-0.034912	0.330566
1101.0	26.722764	4.803838	12.136523	1.563443	-9.712263	0.962745	-0.77002	-0.023926	0.405518
1102.0	25.57904	6.688707	9.227854	0.83397	-9.088459	1.629661	-0.731689	-0.00415	0.478027
1103.0	23.024262	3.943312	12.553869	0.110708	-8.802083	1.957288	-0.69043	0.000244	0.532471
1104.0	27.846048	6.101227	13.122545	0.110394	-8.221639	1.722091	-0.649658	0.017822	0.584473
1105.0	44.991546	5.443844	13.973479	-0.517143	-5.569894	1.778111	-0.630127	0.022217	0.611816
1106.0	22.998807	1.698154	14.964064	0.194341	-2.1274	1.550913	-0.608643	0.026855	0.607178
1107.0	0.490204	12.71021	24.724988	1.477745	1.220316	-0.119471	-0.626221	0.028809	0.595703
1108.0	6.970357	13.754734	25.240739	-0.490851	1.132286	0.173713	-0.61499	0.022461	0.607178
1109.0	12.925684	5.074551	32.068014	-5.027836	-0.493214	0.924689	-0.624512	-0.006104	0.5896
1110.0	-4.135163	-4.462387	4.556913	-1.099624	4.365857	0.469824	-0.64209	-0.006104	0.562256
1111.0	-15.109647	-1.014785	16.533394	1.428884	4.041751	-0.674301	-0.657471	-0.003906	0.537109
1112.0	-5.165638	2.788079	13.769547	-0.796937	2.676513	0.287149	-0.667725	-0.01709	0.525879
1113.0	-3.744939	-1.675461	12.122831	-1.825854	1.587575	0.938617	-0.674072	-0.019287	0.512451
1114.0	0.664209	-3.209403	11.753084	-0.992043	2.581595	1.393682	-0.687256	-0.01709	0.498779
1115.0	0.432009	-2.930978	10.770829	0.309753	4.373839	1.560439	-0.707275	-0.008301	0.462158
1116.0	-0.198537	-0.886618	11.210648	0.442259	4.711317	1.741751	-0.733643	-0.00415	0.425537
1117.0	1.067707	-0.899255	9.492128	0.264804	4.583663	1.811552	-0.747559	0.013428	0.391113
1118.0	2.521797	-0.080508	8.369169	0.628098	5.001679	1.688316	-0.769531	0.015625	0.352295
1119.0	3.076937	1.708222	8.115033	0.793556	5.359728	1.438538	-0.781006	0.026367	0.315674
1120.0	3.590126	2.759655	7.963508	0.609626	5.441518	1.145897	-0.79834	0.026367	0.274658
1121.0	4.466839	2.580342	8.163603	0.233004	5.31095	0.815523	-0.809814	0.035156	0.226563
1122.0	5.814525	1.345358	8.465197	-0.005888	5.134549	0.624169	-0.816162	0.031006	0.190186
1123.0	7.668671	-0.34363	8.983735	0.002845	4.996108	0.522904	-0.822754	0.033203	0.153809
1124.0	10.095782	-1.862909	9.425101	0.331512	5.054606	0.439235	-0.82251	0.028809	0.110596
1125.0	11.704871	-2.30349	10.093237	0.787835	5.286028	0.361242	-0.824707	0.03125	0.067139
1126.0	13.205307	-2.113142	10.402473	1.007387	5.362662	0.426245	-0.833496	0.03125	0.030762
1127.0	14.389493	-2.22709	10.516751	1.12911	5.367659	0.574587	-0.825195	0.037842	-0.017334
1128.0	15.363854	-2.446708	10.391895	1.224741	5.287219	0.6589	-0.820801	0.038086	-0.062988
1129.0	16.483571	-2.183384	10.064987	1.424226	5.139095	0.60547	-0.81665	0.04248	-0.094971
1130.0	17.475126	-0.932673	10.222129	1.597799	5.011983	0.389663	-0.814453	0.040527	-0.135986
1131.0	17.741404	0.55931	10.358901	1.610081	4.900319	0.028727	-0.796631	0.036377	-0.174561
1132.0	18.1139	2.243438	10.162028	1.455925	4.718758	-0.416101	-0.792236	0.031982	-0.213135
1133.0	18.325266	3.198869	9.390978	1.108639	4.510285	-0.916101	-0.780762	0.02124	-0.251709
1134.0	18.455386	3.059666	8.679462	0.682639	4.224095	-1.455462	-0.771484	0.006104	-0.283447
1135.0	20.2384	2.382379	8.889371	0.270162	3.899921	-1.88594	-0.761963	-0.009033	-0.312744
1136.0	23.66253	0.858772	10.013889	-0.145223	3.760625	-2.085103	-0.748047	-0.030518	-0.348877
1137.0	27.109852	-0.900677	9.647498	-0.396122	4.026144	-2.106078	-0.723877	-0.034668	-0.376221
1138.0	27.637929	-2.00468	7.159191	-0.473571	4.615439	-2.025288	-0.707764	-0.052002	-0.419189
1139.0	24.708829	-1.850303	2.835054	-0.441194	4.951215	-1.882709	-0.674561	-0.0625	-0.448486
1140.0	21.195322	-0.785757	-1.336669	-0.56126	4.819632	-1.722859	-0.652344	-0.073242	-0.484863
1141.0	19.31392	-1.795739	-5.702154	-0.831937	4.182864	-1.45557	-0.630371	-0.075195	-0.507568
1142.0	21.719771	-6.213176	-10.746788	-0.643415	3.155113	-1.051641	-0.610596	-0.081543	-0.528076
1143.0	23.944793	-11.291849	-17.882431	0.697942	2.416171	-0.850373	-0.592285	-0.09668	-0.536865
1144.0	23.020434	-9.015226	-21.713833	3.07367	2.009265	-1.075407	-0.586914	-0.118408	-0.547852
1145.0	21.093073	-1.739791	-19.226545	3.640561	1.202743	-0.831437	-0.574951	-0.142578	-0.547363
1146.0	18.515509	4.058449	-16.45033	2.828116	0.098798	-0.24206	-0.578613	-0.162109	-0.540039
1147.0	15.597001	10.576934	-12.662697	1.47261	-0.651609	0.148973	-0.587158	-0.164307	-0.531006
1148.0	10.472602	9.808255	-4.279611	-1.80359	-3.036484	0.684641	-0.603516	-0.140625	-0.522217
1149.0	-1.510653	-0.841894	2.357395	-3.043727	-3.848504	1.21764	-0.632568	-0.123291	-0.488525
1150.0	5.402066	-0.885341	36.931979	-0.381202	-5.026988	-0.528575	-0.6521	-0.12793	-0.469971
1151.0	2.788621	4.118892	5.140424	-1.38034	-2.276222	-1.335039	-0.662842	-0.12793	-0.456299
1152.0	4.468748	-4.863199	6.235742	-1.451353	-4.797021	-0.668297	-0.697998	-0.126221	-0.417725
1153.0	23.944264	-15.346988	15.503896	-4.292331	-9.164734	0.158385	-0.722656	-0.108887	-0.365479
1154.0	29.374879	-20.997691	2.787778	0.807544	-2.535003	-0.170264	-0.733154	-0.117676	-0.358398
1155.0	14.109444	-4.369186	17.881548	3.266418	-1.796013	-0.503296	-0.739014	-0.135254	-0.335449
1156.0	11.472392	7.324404	9.675025	1.752646	-1.985011	-0.6955	-0.742676	-0.148438	-0.32373
1157.0	11.206406	9.7159	11.315635	1.059019	-1.347871	-0.34197	-0.753662	-0.146484	-0.30542
1158.0	15.166677	11.75696	18.223192	-0.638799	-1.707695	0.627551	-0.753906	-0.139893	-0.303467
1159.0	9.663101	0.959591	3.739776	-3.017233	-1.517129	0.967645	-0.759033	-0.124512	-0.296875
1160.0	8.375654	-5.017373	10.259598	-0.216687	-0.36627	0.382618	-0.759277	-0.118164	-0.294678
1161.0	7.99888	0.332673	8.019835	-0.052112	-0.201489	-0.018579	-0.761475	-0.120361	-0.296875
1162.0	5.743755	2.282876	8.556435	0.249747	0.104839	0.050152	-0.763672	-0.120361	-0.294678
1163.0	6.472489	1.736888	9.922163	-0.520271	-0.386996	0.181823	-0.765869	-0.120361	-0.287842
1164.0	6.912347	-1.199018	7.421619	-0.866606	-0.842535	0.208326	-0.765869	-0.115967	-0.285645
1165.0	7.501138	-1.218068	8.225775	-0.011504	-0.08274	0.041438	-0.768311	-0.111572	-0.283447
1166.0	6.470359	-0.506421	8.538887	0.025171	-0.115189	-0.004273	-0.770508	-0.11377	-0.285645
1167.0	7.10134	0.258362	8.541688	-0.070572	-0.300907	-0.047965	-0.768311	-0.109375	-0.276611
1168.0	6.600164	-0.408044	8.120476	-0.022065	-0.163034	-0.074375	-0.770508	-0.11377	-0.283447
1169.0	6.518937	0.450941	8.267199	0.091478	-0.132462	-0.110871	-0.772461	-0.11377	-0.278809
1170.0	6.394748	1.635637	8.160174	0.090239	-0.045181	-0.090056	-0.768311	-0.111572	-0.27417
1171.0	6.068318	1.736191	8.208809	-0.049648	-0.075184	-0.02673	-0.774902	-0.111572	-0.27417
1172.0	6.23882	1.217231	8.098168	-0.175293	-0.155465	0.028974	-0.770264	-0.115967	-0.278809
1173.0	6.433157	0.683013	8.08301	-0.17027	-0.11035	0.035295	-0.772461	-0.115967	-0.27417
1174.0	6.323693	0.420518	8.119347	-0.137275	-0.071961	0.029571	-0.772461	-0.11377	-0.276611
1175.0	6.066563	0.555943	8.080574	-0.091301	-0.036475	0.026237	-0.7771	-0.111816	-0.276611
1176.0	5.845043	0.661529	8.348797	-0.095344	-0.053557	0.030058	-0.775146	-0.107422	-0.274414
1177.0	6.133306	0.651378	8.107624	-0.158836	-0.159471	0.041944	-0.776855	-0.11377	-0.27417
1178.0	6.215826	0.584822	8.164193	-0.123724	-0.103154	0.049255	-0.772949	-0.107422	-0.269775
1179.0	6.295891	0.643904	8.081147	-0.112479	-0.114999	0.048309	-0.770508	-0.11377	-0.271973
1180.0	6.376561	0.580609	8.046811	-0.129056	-0.114332	0.058717	-0.776855	-0.114014	-0.269531
1181.0	6.23897	0.650821	7.992558	-0.089621	-0.073639	0.0577	-0.775146	-0.105225	-0.274414
1182.0	6.178328	0.70456	8.213097	-0.097319	-0.066623	0.069658	-0.775146	-0.103027	-0.272217
1183.0	6.152633	0.692347	8.039119	-0.113557	-0.10524	0.070257	-0.777344	-0.105225	-0.269775
1184.0	6.20202	0.499311	8.158028	-0.107025	-0.108924	0.075409	-0.774902	-0.109619	-0.269775
1185.0	6.157777	0.564629	8.050089	-0.067408	-0.113324	0.06539	-0.770996	-0.103027	-0.265381
1186.0	6.042493	0.579771	8.339952	-0.053641	-0.09983	0.079815	-0.779785	-0.10083	-0.267578
1187.0	6.129612	0.319059	8.243776	-0.107593	-0.204357	0.08627	-0.781982	-0.096436	-0.263184
1188.0	6.356507	0.135693	8.130123	-0.078472	-0.235342	0.064408	-0.775146	-0.103027	-0.267578
1189.0	6.317666	0.208416	8.230887	-0.004937	-0.204589	0.031728	-0.781982	-0.098633	-0.265381
1190.0	6.271697	0.346427	8.33403	0.030946	-0.231724	0.017428	-0.78418	-0.10083	-0.262939
1191.0	6.372385	0.431783	8.220567	0.033063	-0.289862	0.017316	-0.779785	-0.10083	-0.258545
1192.0	6.329571	0.4823	8.321849	0.064944	-0.317108	0.012605	-0.779785	-0.098633	-0.260742
1193.0	6.236461	0.490531	8.368368	0.092888	-0.378981	0.009357	-0.779541	-0.105225	-0.258301
1194.0	6.120197	0.592328	8.329691	0.171432	-0.464075	0.032411	-0.786133	-0.10083	-0.24707
1195.0	6.224879	0.449804	8.597523	0.132507	-0.558731	0.029108	-0.786133	-0.103027	-0.244873
1196.0	6.019263	-0.074848	8.580352	0.141288	-0.703515	0.004045	-0.78833	-0.105225	-0.237793
1197.0	6.395534	0.250399	8.303164	0.250127	-0.839184	-0.048926	-0.78833	-0.101074	-0.238037
1198.0	6.145233	0.087911	8.483883	0.280208	-0.915406	-0.063956	-0.794678	-0.105469	-0.226563
1199.0	6.195542	-0.076387	8.413056	0.330913	-1.106722	-0.095157	-0.79248	-0.105469	-0.212891
1200.0	6.18001	-0.001687	8.317143	0.410096	-1.248924	-0.133358	-0.803223	-0.109863	-0.205811
1201.0	6.091498	0.033527	8.449538	0.465887	-1.427754	-0.164819	-0.798828	-0.109863	-0.189941
1202.0	6.031637	0.022445	8.283564	0.490882	-1.647094	-0.211837	-0.80957	-0.114258	-0.180664
1203.0	6.11639	-0.10045	8.203549	0.524304	-1.858835	-0.261755	-0.807129	-0.12085	-0.15332
1204.0	6.064142	-0.055025	8.09412	0.587201	-2.085827	-0.338493	-0.809326	-0.121094	-0.137207
1205.0	6.13527	0.323675	8.118624	0.666004	-2.348926	-0.410443	-0.815674	-0.125488	-0.118896
1206.0	6.108918	0.576563	8.111926	0.757044	-2.492243	-0.43782	-0.819824	-0.129883	-0.098389
1207.0	5.829639	0.979914	8.217749	0.86884	-2.818984	-0.44496	-0.81958	-0.134277	-0.077637
1208.0	5.408841	1.171252	8.755394	0.913748	-3.243976	-0.432063	-0.821777	-0.132324	-0.045898
1209.0	5.225146	0.901287	9.308254	0.912326	-3.908099	-0.487681	-0.825928	-0.138916	-0.009277
1210.0	4.936714	0.682471	9.686861	1.021044	-4.64755	-0.549726	-0.823242	-0.149902	0.03418
1211.0	4.296749	1.781642	9.347229	1.341691	-5.52048	-0.669873	-0.825195	-0.154297	0.084473
1212.0	4.425447	4.481772	10.28507	1.608765	-6.518362	-0.547319	-0.81665	-0.152344	0.143555
1213.0	6.443624	5.05069	10.425385	1.39476	-7.73502	0.274268	-0.801514	-0.147949	0.207275
1214.0	13.674634	3.396323	10.851948	1.421313	-8.486153	0.395876	-0.790771	-0.143799	0.284668
1215.0	21.36214	3.929857	13.660342	1.328746	-9.089513	0.759969	-0.760742	-0.130615	0.348389
1216.0	24.388016	6.153902	8.710801	0.782052	-8.968428	1.333123	-0.73291	-0.121826	0.416504
1217.0	23.406363	5.167839	12.93492	0.103166	-8.531005	1.925706	-0.705322	-0.104492	0.468506
1218.0	23.046031	6.412245	11.607633	-0.231948	-8.44356	1.894785	-0.666504	-0.093506	0.534424
1219.0	37.375309	7.101524	17.125632	-0.819158	-7.003111	2.208104	-0.638916	-0.078125	0.565918
1220.0	33.821204	4.18049	11.210883	-1.058045	-3.810869	2.220724	-0.623779	-0.07373	0.588623
1221.0	13.309611	6.49977	22.414723	0.303192	-1.133137	1.479956	-0.624268	-0.060547	0.581543
1222.0	-5.279184	12.4195	31.498805	0.13591	2.479555	0.016565	-0.63501	-0.067139	0.567871
1223.0	12.937512	6.386293	25.589272	-3.486484	-2.35718	1.484942	-0.630127	-0.078125	0.572754
1224.0	9.662462	-1.699844	20.600371	-1.647233	3.188135	0.562355	-0.654053	-0.080322	0.54541
1225.0	-14.77358	0.418501	16.35445	1.288748	4.474831	-0.161475	-0.67627	-0.071533	0.522461
1226.0	-6.339814	4.670309	13.611949	-0.379605	3.29407	-0.216298	-0.688721	-0.08252	0.497559
1227.0	-4.792033	-0.069721	14.852477	-1.549617	2.598055	0.723289	-0.701904	-0.080322	0.474854
1228.0	-2.276065	-1.946822	11.770212	-0.925308	2.897048	0.975398	-0.717285	-0.080566	0.461182
1229.0	-1.276102	-2.139198	10.488139	-0.046299	4.141938	1.103849	-0.737549	-0.067383	0.428955
1230.0	-1.490524	-0.941967	10.702666	0.425066	4.567599	1.157638	-0.763916	-0.061035	0.392578
1231.0	-0.249878	-0.577812	9.736438	0.261817	4.505593	1.239302	-0.773193	-0.050049	0.360352
1232.0	1.799347	-0.110517	9.200282	0.40245	4.621398	1.237971	-0.791016	-0.039063	0.32373
1233.0	3.733687	0.73052	8.841335	0.438905	4.890642	1.137956	-0.806885	-0.026123	0.287109
1234.0	4.451872	0.969817	8.207139	0.435988	5.269981	0.897083	-0.824707	-0.019531	0.250488
1235.0	4.750318	0.928882	8.107147	0.425304	5.46814	0.657427	-0.835938	-0.012939	0.204834
1236.0	5.389222	0.299651	8.335334	0.342711	5.360443	0.53221	-0.851318	-0.010742	0.163818
1237.0	7.259296	-0.750254	9.201853	0.292125	5.084529	0.553245	-0.856201	0.000244	0.11792
1238.0	10.18163	-1.959953	9.563331	0.428947	4.908276	0.658348	-0.860352	-0.001953	0.081543
1239.0	12.65043	-2.640086	9.445107	0.899034	5.302175	0.633887	-0.869629	0.01123	0.033447
1240.0	12.70294	-1.77515	10.046983	1.337499	5.533611	0.569199	-0.870117	0.018066	-0.003174
1241.0	13.88474	-1.151273	10.152154	1.337483	5.357476	0.583991	-0.872559	0.024658	-0.05127
1242.0	15.528246	-0.824358	9.813045	1.442191	5.186861	0.493309	-0.870605	0.029053	-0.090088
1243.0	16.835787	0.06851	9.614665	1.508059	5.015403	0.305031	-0.864258	0.033691	-0.135742
1244.0	17.188068	1.381967	9.308279	1.488392	4.853783	0.030493	-0.859619	0.029297	-0.178955
1245.0	17.314849	2.87459	9.276365	1.346161	4.600535	-0.336955	-0.855713	0.036133	-0.213135
1246.0	18.330579	3.379342	9.382074	1.003736	4.264192	-0.785586	-0.844482	0.029541	-0.238281
1247.0	19.919503	3.20092	8.909063	0.737669	3.988499	-1.276119	-0.834961	0.014404	-0.274414
1248.0	22.027284	2.899609	9.021355	0.476352	3.841714	-1.713431	-0.821289	0.001465	-0.299316
1249.0	24.349199	1.964497	9.107917	0.171916	3.819941	-1.994898	-0.812256	-0.00708	-0.331055
1250.0	25.387131	0.269215	8.173958	-0.14672	4.085509	-2.098902	-0.800781	-0.017822	-0.36499
1251.0	23.575601	-2.63541	6.231967	-0.39411	4.413463	-2.082614	-0.774414	-0.02417	-0.394531
1252.0	21.251757	-4.155824	3.38663	-0.346967	4.538308	-2.066594	-0.762939	-0.034912	-0.433105
1253.0	20.196953	-2.037901	1.893445	-0.30282	4.407996	-1.991807	-0.740967	-0.04126	-0.458008
1254.0	19.784252	0.369227	-0.006735	-0.801067	4.029889	-1.833696	-0.72998	-0.041016	-0.487549
1255.0	19.052627	0.422455	-2.285764	-1.388035	3.645279	-1.607464	-0.717041	-0.040771	-0.508301
1256.0	20.405894	-3.473615	-5.915059	-1.663778	2.989123	-1.187197	-0.70874	-0.031982	-0.535645
1257.0	22.65377	-9.269905	-11.054292	-0.769985	2.457393	-0.662722	-0.700195	-0.027588	-0.549561
1258.0	21.601924	-11.4365	-16.827756	1.426663	2.095326	-0.723329	-0.690674	-0.042725	-0.556152
1259.0	19.471592	-4.896895	-16.522312	3.201874	1.590269	-0.900676	-0.691895	-0.064697	-0.5625
1260.0	17.282815	1.356849	-14.8309	3.019027	0.755042	-0.597847	-0.688965	-0.084229	-0.559814
1261.0	17.572332	8.900099	-13.578818	2.217799	-0.454079	-0.56292	-0.706055	-0.09082	-0.552734
1262.0	16.853861	9.501335	-9.53829	-1.385844	-2.152045	0.213558	-0.722168	-0.073486	-0.530273
1263.0	3.078393	-0.26386	-13.845616	-2.769681	-4.030305	1.379047	-0.751465	-0.049805	-0.501221
1264.0	2.154438	-8.092388	25.019945	-0.046099	-4.628524	0.206603	-0.777588	-0.052246	-0.459961
1265.0	6.960923	5.164061	27.128199	-0.172277	-3.308174	-0.841256	-0.795166	-0.048096	-0.439453
1266.0	6.310066	-0.592737	2.997162	-1.814911	-4.13646	0.24415	-0.830811	-0.033203	-0.387451
1267.0	15.431034	-13.772387	5.950153	-3.010531	-8.161222	0.192171	-0.85498	-0.024658	-0.328369
1268.0	30.372574	-11.903075	11.501061	1.606821	-3.280144	-0.91165	-0.87207	-0.035889	-0.302979
1269.0	15.359748	-3.614144	16.797405	1.607718	-2.152018	-0.229587	-0.878418	-0.040283	-0.280029
1270.0	11.549468	0.89871	8.118641	1.30598	-2.415897	-0.397395	-0.884521	-0.05127	-0.261719
1271.0	11.45215	7.068246	9.773568	1.919477	-1.568651	-0.731786	-0.888428	-0.057861	-0.243164
1272.0	18.721966	17.388788	19.575337	0.750189	-1.219049	-0.071245	-0.890869	-0.055908	-0.234131
1273.0	10.196434	5.024404	4.630933	-3.353432	-1.168914	1.124558	-0.900635	-0.029785	-0.227783
1274.0	7.995155	-8.621725	9.838468	-1.510437	-0.974049	0.922278	-0.900635	-0.029785	-0.214111
1275.0	8.37164	-2.592863	5.82213	0.420502	-0.096734	-0.259619	-0.902588	-0.03418	-0.214111
1276.0	7.153568	3.987727	10.000617	0.832074	0.654365	-0.117842	-0.902832	-0.027588	-0.223389
1277.0	5.204773	1.614647	9.76975	-0.733006	-0.173832	0.263621	-0.898682	-0.025391	-0.21875
1278.0	6.469113	-1.10778	8.299151	-0.970723	-1.062892	0.201554	-0.911865	-0.025391	-0.211914
1279.0	8.372584	-0.643018	7.094032	-0.183032	-0.115925	0.076894	-0.90332	-0.018799	-0.20752
1280.0	5.903655	-0.440453	8.785732	0.149571	0.265783	0.003614	-0.907471	-0.023193	-0.211914
1281.0	6.007067	-0.159793	8.796518	-0.16303	-0.278099	-0.027297	-0.907471	-0.023193	-0.211914
1282.0	7.069388	-0.237325	7.848481	-0.066421	-0.24931	-0.091558	-0.907471	-0.025391	-0.202881
1283.0	6.384383	0.822192	8.348875	0.201334	0.049704	-0.135697	-0.909424	-0.027588	-0.205078
1284.0	6.013026	1.28797	8.430434	0.033246	-0.089919	-0.108371	-0.902832	-0.027588	-0.207275
1285.0	6.18603	0.555411	8.051837	-0.030672	-0.18957	-0.095924	-0.907227	-0.029785	-0.200439
1286.0	6.325265	1.264441	8.087976	0.096386	-0.066686	-0.103443	-0.907227	-0.027588	-0.205078
1287.0	6.087249	1.509904	8.154437	-0.027058	-0.092625	-0.050705	-0.902832	-0.029785	-0.202881
1288.0	6.299779	1.164369	7.929098	-0.114903	-0.126127	0.006398	-0.907227	-0.027588	-0.200439
1289.0	6.227965	1.133037	8.093566	-0.134702	-0.055851	0.036949	-0.911621	-0.029785	-0.200439
1290.0	6.183621	0.791252	8.137334	-0.207419	-0.092952	0.062955	-0.913818	-0.025391	-0.200684
1291.0	6.353941	0.499126	8.03164	-0.209868	-0.085773	0.068434	-0.909668	-0.023193	-0.202881
1292.0	6.242004	0.556734	8.149091	-0.141702	-0.037303	0.054992	-0.909912	-0.018799	-0.198486
1293.0	6.169858	0.638831	8.14425	-0.161711	-0.067198	0.05882	-0.907715	-0.018799	-0.198486
1294.0	6.193595	0.834777	8.006862	-0.139362	-0.063073	0.054184	-0.913818	-0.025391	-0.191406
1295.0	5.925267	0.792902	8.206339	-0.139834	-0.03377	0.081157	-0.912354	-0.014648	-0.198486
1296.0	6.091306	0.642285	8.157029	-0.184479	-0.134169	0.087611	-0.911865	-0.020996	-0.196045
1297.0	6.345995	0.404345	8.086701	-0.172839	-0.126687	0.087496	-0.912354	-0.014648	-0.193848
1298.0	6.285323	0.479329	8.046154	-0.099768	-0.084472	0.07143	-0.909668	-0.020996	-0.193848
1299.0	6.309699	0.366497	8.263889	-0.116212	-0.113689	0.058954	-0.914307	-0.014648	-0.193848
1300.0	6.368967	0.233138	8.040466	-0.08935	-0.140688	0.034685	-0.916504	-0.014648	-0.196289
1301.0	6.272081	0.40508	8.134824	-0.035656	-0.094055	0.02416	-0.914307	-0.014648	-0.196289
1302.0	6.235403	0.571414	8.190108	-0.039727	-0.1181	0.031086	-0.910156	-0.012451	-0.187256
1303.0	6.222278	0.643371	8.160495	-0.055524	-0.144117	0.041447	-0.910156	-0.010254	-0.184814
1304.0	6.253236	0.588979	8.129375	-0.06538	-0.150726	0.062767	-0.914551	-0.010254	-0.187256
1305.0	6.272934	0.572316	8.086757	-0.061285	-0.163663	0.077512	-0.914795	-0.008057	-0.185059
1306.0	6.307979	0.627471	8.067174	-0.047517	-0.159751	0.09273	-0.918945	-0.010254	-0.182617
1307.0	6.226414	0.737936	8.157043	-0.03077	-0.158944	0.110295	-0.916992	-0.003662	-0.18042
1308.0	6.226437	0.885329	8.181781	-0.032341	-0.187387	0.12633	-0.914551	-0.012451	-0.18042
1309.0	6.387786	0.824732	8.170163	-0.066181	-0.23582	0.162438	-0.919189	-0.005859	-0.173584
1310.0	6.375269	0.481985	8.110688	-0.064541	-0.255011	0.180814	-0.914795	-0.003662	-0.173584
1311.0	6.373328	0.522144	8.150086	0.012957	-0.267843	0.167982	-0.919434	-0.001465	-0.169189
1312.0	6.294195	0.505106	8.330169	0.064781	-0.298993	0.204623	-0.916992	-0.005859	-0.168945
1313.0	6.274717	0.325598	8.51512	0.059009	-0.402855	0.193427	-0.923828	0.000488	-0.164551
1314.0	6.093686	-0.158551	8.478061	0.065218	-0.567178	0.16404	-0.921631	0.002686	-0.155518
1315.0	6.111509	-0.439694	8.673818	0.152281	-0.697198	0.095039	-0.924072	0.00708	-0.148682
1316.0	6.218482	-0.41012	8.592514	0.193601	-0.878959	0.016067	-0.932617	0.002686	-0.137207
1317.0	6.142319	-0.436699	8.593386	0.252726	-1.00847	-0.0674	-0.93042	0.004883	-0.132813
1318.0	5.956762	-0.377098	8.677517	0.315538	-1.220782	-0.118329	-0.932617	0.002686	-0.121338
1319.0	5.987835	-0.125676	8.700307	0.360774	-1.451571	-0.170713	-0.934814	0.000244	-0.107666
1320.0	5.846539	0.028128	8.604853	0.399522	-1.684468	-0.208329	-0.943604	0.004639	-0.084961
1321.0	5.715309	0.145835	8.6513	0.43072	-1.956999	-0.245492	-0.941162	-0.001953	-0.068848
1322.0	5.735427	0.283277	8.763491	0.460619	-2.284745	-0.294385	-0.949707	-0.006348	-0.043701
1323.0	5.653435	0.34533	8.945607	0.610563	-2.571365	-0.309192	-0.945068	-0.008789	-0.013916
