Acquisition frequency: 100 Hz
PacketCounter	Acc_X	Acc_Y	Acc_Z	Gyr_X	Gyr_Y	Gyr_Z	Mag_X	Mag_Y	Mag_Z
0.0	5.470795	0.269763	8.263732	-0.003501	0.002689	-0.006222	-0.598633	-0.0979	-0.49292
1.0	5.484706	0.277599	8.245612	-0.006289	0.002115	-0.004901	-0.598633	-0.100098	-0.49292
2.0	5.484423	0.277384	8.245808	-0.004991	0.004453	-0.004246	-0.59668	-0.095703	-0.490723
3.0	5.498233	0.285164	8.22776	-0.004436	0.002897	-0.004109	-0.596436	-0.0979	-0.48877
4.0	5.498089	0.305814	8.171941	-0.006005	0.005514	-0.005836	-0.594238	-0.0979	-0.495117
5.0	5.497276	0.284924	8.228408	-0.002855	0.008633	-0.004388	-0.596436	-0.0979	-0.48877
6.0	5.499224	0.252559	8.216927	-0.003791	0.00884	-0.002275	-0.596436	-0.102051	-0.497314
7.0	5.480532	0.30333	8.225554	-0.005624	0.006861	-0.008087	-0.598633	-0.100098	-0.49292
8.0	5.495244	0.284649	8.229774	-0.004249	0.008345	-0.003728	-0.596436	-0.0979	-0.48877
9.0	5.479122	0.302987	8.226506	-0.00574	0.010108	-0.001752	-0.592041	-0.099854	-0.495117
10.0	5.494977	0.257451	8.252833	-0.007495	0.007275	-0.003862	-0.596436	-0.100098	-0.48877
11.0	5.464929	0.288589	8.21178	-0.004901	0.01195	-0.00255	-0.596436	-0.100098	-0.49292
12.0	5.522636	0.246035	8.23962	-0.008244	0.01293	-0.001367	-0.592041	-0.099854	-0.495117
13.0	5.490951	0.282592	8.23271	-0.009541	0.010592	-0.002024	-0.596436	-0.100098	-0.495117
14.0	5.502634	0.295526	8.249163	-0.00918	0.013136	0.000745	-0.596436	-0.102051	-0.497314
15.0	5.487444	0.286844	8.268129	-0.006773	0.012362	0.001676	-0.594482	-0.095703	-0.49292
16.0	5.502037	0.288293	8.216588	-0.010574	0.012847	0.001404	-0.598633	-0.0979	-0.497314
17.0	5.472769	0.27137	8.253747	-0.011412	0.011003	0.0022	-0.59668	-0.095703	-0.499512
18.0	5.473366	0.264703	8.220353	-0.010476	0.010797	8.7e-05	-0.60083	-0.095703	-0.495117
19.0	5.514546	0.266994	8.222377	-0.008242	0.012927	-0.001369	-0.596436	-0.099854	-0.497314
20.0	5.457087	0.255361	8.240041	-0.008339	0.014976	-5.3e-05	-0.598633	-0.095703	-0.486572
21.0	5.471763	0.257072	8.188464	-0.008046	0.008828	-0.004003	-0.594482	-0.095703	-0.49292
22.0	5.467945	0.267991	8.257054	-0.0086	0.010383	-0.00414	-0.594482	-0.095703	-0.49292
23.0	5.510644	0.264661	8.225068	-0.012499	0.012916	-0.003097	-0.594238	-0.0979	-0.497314
24.0	5.467508	0.261038	8.224368	-0.007205	0.01067	-0.004799	-0.594238	-0.099854	-0.495117
25.0	5.46509	0.266291	8.258999	-0.008143	0.010875	-0.002687	-0.598633	-0.0979	-0.497314
26.0	5.502466	0.327575	8.250991	-0.009994	0.010093	-0.003483	-0.598877	-0.095703	-0.49292
27.0	5.462321	0.291522	8.238085	-0.011216	0.0069	-0.000439	-0.598877	-0.093506	-0.49292
28.0	5.503823	0.293615	8.239943	-0.011314	0.008947	0.000878	-0.596436	-0.0979	-0.495117
29.0	5.507074	0.233839	8.250384	-0.011215	0.006899	-0.000439	-0.594238	-0.100098	-0.49292
30.0	5.463044	0.256551	8.227475	-0.011387	0.009803	-0.002826	-0.598633	-0.100098	-0.48877
31.0	5.473738	0.295928	8.221832	-0.01177	0.008453	-0.000577	-0.603027	-0.0979	-0.495117
32.0	5.474105	0.268682	8.244386	-0.006746	0.011162	-0.003346	-0.59668	-0.091309	-0.497314
33.0	5.500003	0.289795	8.242629	-0.009535	0.010584	-0.00203	-0.594482	-0.095703	-0.48877
34.0	5.501827	0.257027	8.23121	-0.006746	0.011161	-0.003346	-0.598633	-0.0979	-0.490723
35.0	5.471376	0.267089	8.246249	-0.009079	0.011076	-0.000577	-0.591797	-0.104248	-0.49292
36.0	5.484839	0.274524	8.228549	-0.006475	0.006208	-0.002278	-0.594238	-0.099854	-0.499512
37.0	5.484014	0.273945	8.229118	-0.010644	0.013691	-0.002306	-0.594238	-0.099854	-0.497314
38.0	5.488482	0.208881	8.205706	-0.005278	0.010591	-0.000301	-0.598633	-0.0979	-0.497314
39.0	5.484643	0.241014	8.218496	-0.003741	0.015994	-0.009296	-0.59668	-0.095703	-0.495117
40.0	5.480499	0.273436	8.231477	-0.004295	0.017547	-0.009434	-0.592285	-0.093506	-0.503906
41.0	5.491488	0.287179	8.248396	-0.004949	0.021147	-0.008254	-0.596436	-0.100098	-0.495117
42.0	5.502811	0.321763	8.209384	-0.005333	0.019796	-0.006006	-0.594482	-0.093506	-0.490967
43.0	5.485365	0.319176	8.262699	-0.006272	0.019998	-0.003895	-0.598633	-0.0979	-0.49292
44.0	5.514757	0.302503	8.215493	-0.006856	0.02274	0.000988	-0.596436	-0.0979	-0.495117
45.0	5.484696	0.285905	8.252958	-0.008961	0.017371	-0.003901	-0.594238	-0.099854	-0.495117
46.0	5.471581	0.245031	8.260195	-0.009715	0.023016	-0.001404	-0.592285	-0.095703	-0.490723
47.0	5.511035	0.274017	8.240789	-0.008791	0.014465	-0.001517	-0.594238	-0.099854	-0.495117
48.0	5.470278	0.238256	8.228145	-0.00526	0.018933	-0.002305	-0.589844	-0.100098	-0.490723
49.0	5.465958	0.270201	8.241247	-0.005713	0.018439	-0.003761	-0.596436	-0.100098	-0.490723
50.0	5.464492	0.269954	8.242227	-0.005159	0.016885	-0.003624	-0.594482	-0.095703	-0.48877
51.0	5.504087	0.29926	8.222764	-0.008958	0.017366	-0.003906	-0.594482	-0.095703	-0.49292
52.0	5.447408	0.261123	8.262293	-0.008016	0.017163	-0.006018	-0.598633	-0.100098	-0.49292
53.0	5.444748	0.287351	8.241362	-0.007662	0.019699	-0.003245	-0.594238	-0.0979	-0.49292
54.0	5.412115	0.303009	8.290645	-0.009696	0.013475	-0.004433	-0.59668	-0.095703	-0.49292
55.0	5.471589	0.254468	8.28451	-0.013061	0.006102	-0.001263	-0.590088	-0.095703	-0.495117
56.0	5.484181	0.288197	8.244802	-0.011665	0.006391	-0.001918	-0.594482	-0.095703	-0.49292
57.0	5.483744	0.287306	8.245124	-0.012959	0.004056	-0.002582	-0.592041	-0.099854	-0.495117
58.0	5.483397	0.286282	8.245391	-0.013901	0.004257	-0.000472	-0.594482	-0.095703	-0.48877
59.0	5.456241	0.263572	8.247898	-0.012505	0.004547	-0.001127	-0.594238	-0.100098	-0.490723
60.0	5.485474	0.252201	8.233837	-0.008706	0.004066	-0.000843	-0.596436	-0.0979	-0.49292
61.0	5.469806	0.270244	8.230259	-0.008217	0.003373	-0.004409	-0.590088	-0.093506	-0.497314
62.0	5.498943	0.259055	8.21626	-0.012671	0.00745	-0.003512	-0.596436	-0.0979	-0.48877
63.0	5.468932	0.269128	8.230876	-0.004871	0.002401	-0.005581	-0.598633	-0.099854	-0.497314
64.0	5.465707	0.300866	8.243279	-0.012671	0.007449	-0.003513	-0.598633	-0.0979	-0.48877
65.0	5.480519	0.281489	8.247469	-0.00926	0.005617	-0.000981	-0.592285	-0.093506	-0.501709
66.0	5.452175	0.285611	8.228076	-0.012051	0.005035	0.000327	-0.592041	-0.0979	-0.490723
67.0	5.481283	0.274122	8.214114	-0.01121	0.006879	-0.000464	-0.594238	-0.0979	-0.495117
68.0	5.481835	0.246665	8.236428	-0.010267	0.006678	-0.002575	-0.598633	-0.099854	-0.499512
69.0	5.453406	0.250925	8.217083	-0.008807	0.006108	0.000474	-0.596436	-0.0979	-0.495117
70.0	5.493121	0.258661	8.253237	-0.012873	0.011536	-0.000876	-0.591797	-0.104248	-0.49292
71.0	5.461627	0.295146	8.24619	-0.007475	0.00726	-0.003883	-0.59668	-0.095703	-0.495117
72.0	5.493352	0.251878	8.220223	-0.00852	0.009503	-0.000454	-0.594238	-0.0979	-0.497314
73.0	5.491903	0.230141	8.276741	-0.008131	0.010856	-0.002701	-0.594238	-0.0979	-0.49292
74.0	5.447829	0.253152	8.253782	-0.008972	0.009011	-0.001911	-0.594238	-0.102051	-0.49292
75.0	5.448819	0.247012	8.220245	-0.009424	0.00852	-0.003368	-0.598633	-0.100098	-0.49292
76.0	5.431249	0.270445	8.250836	-0.010552	0.003279	-0.001651	-0.594238	-0.0979	-0.495117
77.0	5.485577	0.286625	8.268655	-0.004517	0.004936	-0.002807	-0.59668	-0.095703	-0.495117
78.0	5.489679	0.248495	8.222779	-0.01117	0.005693	-0.005491	-0.596436	-0.0979	-0.490723
79.0	5.47224	0.272024	8.253282	-0.010061	0.002588	-0.005218	-0.596436	-0.0979	-0.49292
80.0	5.488959	0.247412	8.223292	-0.009774	0.005985	-0.006145	-0.598633	-0.102051	-0.495117
81.0	5.471393	0.271119	8.253873	-0.007371	0.005215	-0.005205	-0.594238	-0.099854	-0.497314
82.0	5.486282	0.252224	8.257984	-0.00883	0.005785	-0.008255	-0.598389	-0.102295	-0.490723
83.0	5.482893	0.284169	8.27052	-0.00653	0.007058	-0.005995	-0.594238	-0.100098	-0.490723
84.0	5.499253	0.259905	8.240764	-0.006243	0.010454	-0.006921	-0.598633	-0.0979	-0.49292
85.0	5.46782	0.29699	8.233662	-0.004128	0.006289	-0.005054	-0.590088	-0.095703	-0.499512
86.0	5.472761	0.232426	8.209834	-0.008193	0.011713	-0.006406	-0.594238	-0.099854	-0.495117
87.0	5.484373	0.246037	8.226392	-0.0015	0.009779	-0.008743	-0.589844	-0.0979	-0.490723
88.0	5.453744	0.256841	8.24134	-0.003615	0.013943	-0.010611	-0.598633	-0.0979	-0.490723
89.0	5.438418	0.249129	8.260109	-0.00111	0.011131	-0.01099	-0.592041	-0.102051	-0.49292
90.0	5.4798	0.252685	8.262272	-0.003695	0.006461	-0.012326	-0.594482	-0.093506	-0.495117
91.0	5.462771	0.298385	8.236962	-0.000842	0.006183	-0.009927	-0.592041	-0.0979	-0.495117
92.0	5.491879	0.288216	8.223021	-0.003182	0.006088	-0.007166	-0.600586	-0.102051	-0.495117
93.0	5.480009	0.248223	8.229235	0.000165	0.005122	-0.008334	-0.592041	-0.0979	-0.495117
94.0	5.461204	0.299138	8.237973	-0.007985	0.007623	-0.00905	-0.598877	-0.095703	-0.49292
95.0	5.490073	0.288699	8.22421	-0.003901	0.010544	-0.009687	-0.59668	-0.095703	-0.495117
96.0	5.476672	0.275287	8.208841	-0.00345	0.011034	-0.00823	-0.59668	-0.095703	-0.49292
97.0	5.459642	0.272815	8.261595	-0.004456	0.012094	-0.009824	-0.593994	-0.104248	-0.495117
98.0	5.460529	0.267447	8.228145	-0.004291	0.009189	-0.007441	-0.603027	-0.0979	-0.48877
99.0	5.486428	0.289284	8.226622	-0.00345	0.011033	-0.00823	-0.598633	-0.102051	-0.499512
100.0	5.471204	0.281303	8.245312	-0.002999	0.011523	-0.006773	-0.596436	-0.0979	-0.495117
101.0	5.485676	0.262649	8.249721	-0.007637	0.010152	-0.006276	-0.594238	-0.099854	-0.499512
102.0	5.471255	0.275784	8.212435	-0.001498	0.009774	-0.008746	-0.596436	-0.0979	-0.495117
103.0	5.470257	0.275836	8.213098	-0.006901	0.014038	-0.005745	-0.596436	-0.100098	-0.49292
104.0	5.452967	0.273067	8.265994	-0.004109	0.014624	-0.007049	-0.594238	-0.100098	-0.490723
105.0	5.480522	0.289291	8.230558	-0.005235	0.009384	-0.005334	-0.592041	-0.102051	-0.495117
106.0	5.477896	0.294565	8.265141	-0.008086	0.009659	-0.007736	-0.592041	-0.099854	-0.495117
107.0	5.435054	0.291162	8.263869	-0.006525	0.007048	-0.006004	-0.593994	-0.104248	-0.497314
108.0	5.480315	0.283056	8.197897	-0.008313	0.0054	-0.003107	-0.598877	-0.095703	-0.49292
109.0	5.46652	0.247846	8.238213	-0.008534	0.009167	-0.009195	-0.596436	-0.099854	-0.497314
110.0	5.462855	0.279637	8.250903	-0.009873	0.00801	-0.00484	-0.596436	-0.100098	-0.490723
111.0	5.491808	0.268973	8.237155	-0.004287	0.009185	-0.007444	-0.592041	-0.102051	-0.495117
112.0	5.475587	0.287499	8.233904	-0.006239	0.010442	-0.006931	-0.59668	-0.095703	-0.497314
113.0	5.462359	0.27373	8.218424	-0.007529	0.008106	-0.007601	-0.591797	-0.104248	-0.497314
114.0	5.486533	0.300607	8.250926	-0.008027	0.008793	-0.004034	-0.594238	-0.102051	-0.497314
115.0	5.501177	0.281679	8.255242	-0.00663	0.009087	-0.004685	-0.59668	-0.095703	-0.49292
116.0	5.445874	0.264444	8.237949	-0.009423	0.008498	-0.003384	-0.598877	-0.095703	-0.497314
117.0	5.487286	0.267349	8.24022	-0.002833	0.008615	-0.004391	-0.592041	-0.0979	-0.495117
118.0	5.486461	0.267041	8.24078	-0.010982	0.011107	-0.005118	-0.605225	-0.0979	-0.48877
119.0	5.472067	0.279693	8.20352	-0.006181	0.009576	-0.003227	-0.596436	-0.102051	-0.503906
120.0	5.46938	0.284911	8.238118	-0.006685	0.009949	-0.008391	-0.592041	-0.099854	-0.497314
121.0	5.456035	0.271011	8.222714	-0.009137	0.01189	-0.004311	-0.594238	-0.102051	-0.497314
122.0	5.482902	0.265603	8.243195	-0.006736	0.011125	-0.003365	-0.598633	-0.0979	-0.49292
123.0	5.452253	0.275469	8.258053	-0.010532	0.011594	-0.003662	-0.592041	-0.099854	-0.497314
124.0	5.480004	0.291438	8.222603	-0.00568	0.008888	-0.006796	-0.596436	-0.100098	-0.495117
125.0	5.467875	0.250949	8.22893	-0.004336	0.010359	-0.00242	-0.593994	-0.104248	-0.49292
126.0	5.462009	0.288122	8.275876	-0.009691	0.013438	-0.00445	-0.596191	-0.104248	-0.497314
127.0	5.478215	0.26367	8.246372	-0.007291	0.012672	-0.003504	-0.596436	-0.100098	-0.49292
128.0	5.461742	0.281796	8.243291	-0.006843	0.013162	-0.002045	-0.60083	-0.0979	-0.497314
129.0	5.435872	0.254208	8.211915	-0.007738	0.012181	-0.004964	-0.591797	-0.104248	-0.490723
130.0	5.444332	0.299596	8.240839	-0.007182	0.010631	-0.004827	-0.60083	-0.099854	-0.497314
131.0	5.461983	0.248529	8.232915	-0.007468	0.007237	-0.003903	-0.593994	-0.104248	-0.49292
132.0	5.444007	0.271985	8.263606	-0.00942	0.008491	-0.003392	-0.592285	-0.095703	-0.49292
133.0	5.485475	0.274807	8.265916	-0.006518	0.007042	-0.006012	-0.592285	-0.095703	-0.49292
134.0	5.471391	0.287666	8.22847	-0.007467	0.007236	-0.003904	-0.594238	-0.0979	-0.497314
135.0	5.45643	0.278994	8.246904	-0.009866	0.007999	-0.004852	-0.598633	-0.100098	-0.495117
136.0	5.47024	0.286756	8.229267	-0.006356	0.004137	-0.00363	-0.594238	-0.102295	-0.490723
137.0	5.48209	0.299959	8.245701	-0.008022	0.008784	-0.004042	-0.598877	-0.091309	-0.499512
138.0	5.484432	0.267401	8.233907	-0.007467	0.007235	-0.003905	-0.594238	-0.0979	-0.495117
139.0	5.469454	0.258797	8.25234	-0.008469	0.008294	-0.005502	-0.594238	-0.102051	-0.497314
140.0	5.439915	0.290204	8.21113	-0.00607	0.00753	-0.004553	-0.59668	-0.095703	-0.497314
141.0	5.452661	0.276635	8.249476	-0.007129	0.009762	-0.001123	-0.594238	-0.099854	-0.497314
142.0	5.450911	0.302977	8.228148	-0.008359	0.006254	-0.006825	-0.592041	-0.0979	-0.49292
143.0	5.481028	0.265476	8.236235	-0.008577	0.010331	-0.00418	-0.594238	-0.099854	-0.497314
144.0	5.450554	0.275373	8.25091	-0.007466	0.007233	-0.003906	-0.60083	-0.0979	-0.49292
145.0	5.464297	0.283209	8.233337	-0.007912	0.006743	-0.005366	-0.59668	-0.095703	-0.499512
146.0	5.463586	0.282888	8.23382	-0.007626	0.010137	-0.006289	-0.598633	-0.100098	-0.48877
147.0	5.446561	0.279678	8.28634	-0.007465	0.007232	-0.003907	-0.594238	-0.102051	-0.495117
148.0	5.47458	0.295819	8.250839	-0.007516	0.008098	-0.007612	-0.596436	-0.100098	-0.495117
149.0	5.463719	0.276648	8.201013	-0.005798	0.002585	-0.003496	-0.59668	-0.095703	-0.495117
150.0	5.47482	0.268496	8.273184	-0.008357	0.006252	-0.006827	-0.598633	-0.0979	-0.49292
151.0	5.461881	0.25456	8.257486	-0.007465	0.007231	-0.003907	-0.593994	-0.104248	-0.501709
152.0	5.46017	0.280961	8.236151	-0.008912	0.0078	-0.006965	-0.594238	-0.100098	-0.49292
153.0	5.489217	0.270425	8.222467	-0.005672	0.008883	-0.0068	-0.594482	-0.095703	-0.495117
154.0	5.471219	0.294274	8.253123	-0.005006	0.005296	-0.007986	-0.592041	-0.099854	-0.495117
155.0	5.473684	0.262044	8.241227	-0.007069	0.008585	-0.006153	-0.598633	-0.100098	-0.495117
156.0	5.471961	0.288527	8.219907	-0.00791	0.00674	-0.005369	-0.59668	-0.095703	-0.495117
157.0	5.498964	0.283316	8.240329	-0.007229	0.01149	-0.008535	-0.596436	-0.102051	-0.495117
158.0	5.441692	0.271681	8.25688	-0.00467	0.007823	-0.005204	-0.592041	-0.0979	-0.490723
159.0	5.454335	0.306658	8.217586	-0.005561	0.006844	-0.008125	-0.592041	-0.100098	-0.488525
160.0	5.469147	0.287985	8.221798	-0.006067	0.007525	-0.004557	-0.596436	-0.100098	-0.490723
161.0	5.466533	0.293078	8.25627	-0.006512	0.007035	-0.006018	-0.596436	-0.102051	-0.495117
162.0	5.441235	0.2658	8.224463	-0.005115	0.007332	-0.006665	-0.596436	-0.0979	-0.490723
163.0	5.479822	0.301275	8.239026	-0.00205	0.002985	-0.0069	-0.594238	-0.0979	-0.497314
164.0	5.439363	0.292976	8.203227	-0.003099	0.004911	-0.012204	-0.596436	-0.099854	-0.497314
165.0	5.469763	0.255899	8.211133	-0.010196	0.00546	-0.007646	-0.589844	-0.099854	-0.495117
166.0	5.448833	0.311677	8.25397	-0.004448	0.003746	-0.007852	-0.598389	-0.102051	-0.49292
167.0	5.490798	0.315001	8.256038	-0.003732	-0.000707	-0.005333	-0.598633	-0.0979	-0.49292
168.0	5.478294	0.301207	8.240045	-0.009195	0.0044	-0.006049	-0.598633	-0.100098	-0.490723
169.0	5.466597	0.260291	8.245986	-0.010703	0.006139	-0.004079	-0.596436	-0.102051	-0.49292
170.0	5.477395	0.300122	8.240682	-0.009194	0.004399	-0.006049	-0.598633	-0.100098	-0.495117
171.0	5.494372	0.2759	8.210752	-0.007909	0.006734	-0.005372	-0.594238	-0.099854	-0.497314
172.0	5.478347	0.293959	8.207366	-0.008417	0.007414	-0.001804	-0.594238	-0.102295	-0.490723
173.0	5.493023	0.275141	8.21168	-0.00483	0.010724	-0.007585	-0.590088	-0.093506	-0.499512
174.0	5.477818	0.266485	8.230195	-0.011371	0.009721	-0.002893	-0.60083	-0.095703	-0.497314
175.0	5.473964	0.297922	8.243041	-0.009861	0.007983	-0.004864	-0.594238	-0.0979	-0.497314
176.0	5.475265	0.292199	8.209485	-0.006179	0.009557	-0.003234	-0.598877	-0.095703	-0.497314
177.0	5.460064	0.283489	8.227989	-0.008132	0.010806	-0.002725	-0.593994	-0.104248	-0.495117
178.0	5.473556	0.291203	8.21066	-0.009973	0.010018	-0.003541	-0.596436	-0.100098	-0.490723
179.0	5.470672	0.295755	8.245304	-0.010926	0.010208	-0.001434	-0.592041	-0.102051	-0.501709
180.0	5.469954	0.294971	8.245808	-0.009813	0.007112	-0.001161	-0.600586	-0.102051	-0.497314
181.0	5.484626	0.275659	8.250138	-0.011925	0.011266	-0.003033	-0.596436	-0.099854	-0.499512
182.0	5.483881	0.274899	8.250659	-0.010256	0.006623	-0.002623	-0.598633	-0.100098	-0.495117
183.0	5.45549	0.279204	8.23117	-0.008972	0.008957	-0.001944	-0.594238	-0.0979	-0.495117
184.0	5.467145	0.291967	8.247778	-0.014493	0.006594	-0.004393	-0.596436	-0.0979	-0.490723
185.0	5.481949	0.272664	8.252017	-0.009415	0.008468	-0.003406	-0.594238	-0.100098	-0.490723
186.0	5.46901	0.258636	8.236301	-0.007904	0.006732	-0.005376	-0.589844	-0.0979	-0.48877
187.0	5.465297	0.290265	8.249063	-0.008858	0.00692	-0.00327	-0.592041	-0.102051	-0.495117
188.0	5.50673	0.293051	8.251576	-0.010857	0.009038	-0.006467	-0.60083	-0.100098	-0.49292
189.0	5.481449	0.265382	8.219731	-0.008415	0.007408	-0.001808	-0.594238	-0.0979	-0.497314
190.0	5.477472	0.296961	8.232677	-0.007289	0.012648	-0.003508	-0.60083	-0.0979	-0.490723
191.0	5.493979	0.272835	8.203092	-0.008174	0.011671	-0.006432	-0.594482	-0.095703	-0.49292
192.0	5.475562	0.296047	8.23398	-0.011367	0.009713	-0.0029	-0.594482	-0.093506	-0.49292
193.0	5.490162	0.276796	8.238354	-0.009527	0.0105	-0.002083	-0.596436	-0.0979	-0.495117
194.0	5.447106	0.272743	8.236936	-0.00964	0.012534	-0.000758	-0.594238	-0.0979	-0.495117
195.0	5.488257	0.275372	8.239672	-0.009526	0.010499	-0.002084	-0.594482	-0.095703	-0.499512
196.0	5.475124	0.261181	8.22408	-0.009968	0.010011	-0.003546	-0.598633	-0.100098	-0.49292
197.0	5.484514	0.279404	8.274867	-0.008015	0.008764	-0.004054	-0.598633	-0.102051	-0.497314
198.0	5.458038	0.278604	8.221421	-0.010082	0.012044	-0.002221	-0.594238	-0.102051	-0.49292
199.0	5.497252	0.286452	8.258125	-0.010253	0.006616	-0.00263	-0.594238	-0.097656	-0.499512
200.0	5.484267	0.272227	8.242432	-0.009525	0.010497	-0.002085	-0.596436	-0.100098	-0.495117
201.0	5.45669	0.249684	8.244744	-0.010523	0.011555	-0.003684	-0.594238	-0.0979	-0.495117
202.0	5.482515	0.270932	8.24364	-0.009411	0.008462	-0.003412	-0.60083	-0.100098	-0.495117
203.0	5.469542	0.256808	8.227931	-0.009411	0.008462	-0.003412	-0.594238	-0.0979	-0.49292
204.0	5.451138	0.279898	8.258784	-0.010522	0.011554	-0.003685	-0.594238	-0.0979	-0.497314
205.0	5.480254	0.269202	8.2452	-0.0069	0.005669	-0.003783	-0.594238	-0.102051	-0.495117
206.0	5.476334	0.300725	8.258127	-0.010081	0.01204	-0.002223	-0.60083	-0.099854	-0.499512
207.0	5.477574	0.295023	8.224674	-0.006173	0.009549	-0.003237	-0.594238	-0.0979	-0.495117
208.0	5.490013	0.281199	8.26312	-0.010963	0.011065	-0.005149	-0.594482	-0.095703	-0.490723
209.0	5.461561	0.285609	8.243641	-0.008853	0.006913	-0.003278	-0.594238	-0.102051	-0.49292
210.0	5.490809	0.274868	8.229989	-0.008412	0.0074	-0.001815	-0.594238	-0.097656	-0.499512
211.0	5.475733	0.265994	8.248307	-0.008011	0.00876	-0.004058	-0.59668	-0.093506	-0.499512
212.0	5.503822	0.282202	8.213101	-0.009409	0.008458	-0.003415	-0.594482	-0.095703	-0.495117
213.0	5.446661	0.269889	8.229253	-0.008411	0.007399	-0.001816	-0.598633	-0.099854	-0.497314
214.0	5.484822	0.304766	8.244359	-0.008567	0.010305	-0.004194	-0.596436	-0.102051	-0.49292
215.0	5.490389	0.240045	8.220054	-0.011362	0.009702	-0.00291	-0.592041	-0.099854	-0.497314
216.0	5.471119	0.290071	8.229146	-0.007339	0.00518	-0.005249	-0.596436	-0.099854	-0.497314
217.0	5.47158	0.262723	8.251167	-0.009408	0.008457	-0.003416	-0.594238	-0.0979	-0.497314
218.0	5.469839	0.289032	8.230033	-0.009407	0.008456	-0.003417	-0.594238	-0.102051	-0.495117
219.0	5.470236	0.261661	8.252093	-0.007894	0.006725	-0.005386	-0.594238	-0.0979	-0.495117
220.0	5.496273	0.2833	8.250906	-0.007933	0.007599	-0.009092	-0.596436	-0.102051	-0.49292
221.0	5.467831	0.287892	8.231407	-0.009523	0.010487	-0.00209	-0.589844	-0.099854	-0.495117
222.0	5.480399	0.274237	8.269733	-0.003144	0.006084	-0.007177	-0.598633	-0.102051	-0.495117
223.0	5.466573	0.287492	8.232257	-0.007453	0.00721	-0.003924	-0.589844	-0.099854	-0.497314
224.0	5.481341	0.268627	8.236504	-0.006611	0.009057	-0.004702	-0.594482	-0.093506	-0.497314
225.0	5.477419	0.300396	8.249439	-0.006055	0.007512	-0.004566	-0.593994	-0.106445	-0.488525
226.0	5.465563	0.259649	8.255252	-0.008449	0.008268	-0.005524	-0.596436	-0.100098	-0.49292
227.0	5.493726	0.276185	8.220061	-0.004657	0.007813	-0.005208	-0.596436	-0.102051	-0.49292
228.0	5.476357	0.272551	8.272466	-0.009963	0.009997	-0.003556	-0.59668	-0.093506	-0.495117
229.0	5.476784	0.293858	8.217303	-0.008888	0.007781	-0.006989	-0.587646	-0.102051	-0.490723
230.0	5.46263	0.258132	8.25724	-0.008565	0.010299	-0.004198	-0.596191	-0.104248	-0.497314
231.0	5.448852	0.271254	8.219748	-0.004825	0.002388	-0.005623	-0.590088	-0.097656	-0.497314
232.0	5.487245	0.306438	8.234762	-0.008448	0.008266	-0.005526	-0.594238	-0.100098	-0.49292
233.0	5.475397	0.265588	8.240555	-0.007012	0.007693	-0.002462	-0.596436	-0.0979	-0.49292
234.0	5.459332	0.283609	8.237195	-0.00885	0.006904	-0.003285	-0.596436	-0.0979	-0.490723
235.0	5.474119	0.264674	8.241433	-0.00661	0.009054	-0.004704	-0.594238	-0.100098	-0.490723
236.0	5.47232	0.291387	8.220365	-0.005212	0.009357	-0.005345	-0.59668	-0.095703	-0.497314
237.0	5.484885	0.277648	8.258673	-0.009288	0.006417	-0.004751	-0.592285	-0.095703	-0.49292
238.0	5.458758	0.277071	8.205028	-0.008564	0.010296	-0.0042	-0.594238	-0.0979	-0.48877
239.0	5.470294	0.290259	8.221753	-0.005935	0.005477	-0.005897	-0.596436	-0.0979	-0.49292
240.0	5.458498	0.249544	8.227484	-0.009441	0.009323	-0.007129	-0.594482	-0.095703	-0.490723
241.0	5.481131	0.303024	8.238959	-0.009844	0.00796	-0.004888	-0.592041	-0.100098	-0.49292
242.0	5.495904	0.283946	8.243216	-0.009405	0.008446	-0.003424	-0.60083	-0.0979	-0.49292
243.0	5.455363	0.274962	8.207357	-0.008445	0.008263	-0.005529	-0.592041	-0.100098	-0.490723
244.0	5.494433	0.283217	8.244222	-0.006644	0.009928	-0.00841	-0.596436	-0.100098	-0.49292
245.0	5.467144	0.260839	8.246184	-0.012083	0.005807	-0.003473	-0.592041	-0.0979	-0.490723
246.0	5.463255	0.292355	8.259115	-0.003777	0.008782	-0.00228	-0.59668	-0.095703	-0.495117
247.0	5.494759	0.277111	8.211468	-0.00553	0.006838	-0.008139	-0.596436	-0.0979	-0.49292
248.0	5.479652	0.268627	8.229701	-0.005648	0.008868	-0.006811	-0.596436	-0.0979	-0.486572
249.0	5.451257	0.273446	8.210135	-0.006608	0.00905	-0.004706	-0.598633	-0.0979	-0.495117
250.0	5.474854	0.300258	8.243233	-0.005648	0.008868	-0.006811	-0.598633	-0.102051	-0.495117
251.0	5.474085	0.300143	8.243748	-0.00521	0.009353	-0.005346	-0.596436	-0.100098	-0.495117
252.0	5.446636	0.278065	8.245784	-0.006204	0.010411	-0.006948	-0.59668	-0.095703	-0.48877
253.0	5.502293	0.289548	8.230905	-0.009523	0.010471	-0.002099	-0.592285	-0.097656	-0.501709
254.0	5.447182	0.272038	8.212886	-0.008562	0.010289	-0.004204	-0.594482	-0.095703	-0.49292
255.0	5.458589	0.28525	8.229704	-0.004652	0.007808	-0.005211	-0.596436	-0.0979	-0.49292
256.0	5.487693	0.274988	8.216263	-0.008157	0.01165	-0.006445	-0.598633	-0.099854	-0.497314
257.0	5.469011	0.298141	8.247187	-0.008561	0.010287	-0.004205	-0.589844	-0.102051	-0.499512
258.0	5.469167	0.270704	8.269321	-0.008561	0.010287	-0.004205	-0.596436	-0.100098	-0.49292
259.0	5.469737	0.292212	8.214185	-0.007885	0.006713	-0.005399	-0.592285	-0.095703	-0.499512
260.0	5.466861	0.296796	8.248661	-0.008846	0.006894	-0.003295	-0.598633	-0.0979	-0.49292
261.0	5.45396	0.282843	8.232855	-0.006725	0.011076	-0.003379	-0.596436	-0.102051	-0.495117
262.0	5.495221	0.285964	8.235753	-0.010309	0.008344	-0.010068	-0.596436	-0.100098	-0.495117
263.0	5.464654	0.295501	8.25017	-0.010244	0.006588	-0.002657	-0.593994	-0.104248	-0.490723
264.0	5.455249	0.249543	8.221704	-0.006049	0.007502	-0.004573	-0.596436	-0.102051	-0.49292
265.0	5.495654	0.279656	8.202975	-0.00844	0.008255	-0.005536	-0.596436	-0.097656	-0.501709
266.0	5.477257	0.302751	8.233694	-0.009719	0.005921	-0.006228	-0.594238	-0.0979	-0.49292
267.0	5.465514	0.261839	8.239315	-0.008003	0.00874	-0.004071	-0.592041	-0.0979	-0.495117
268.0	5.463975	0.288362	8.218155	-0.007732	0.003804	-0.003025	-0.59668	-0.095703	-0.495117
269.0	5.490975	0.283126	8.238683	-0.004801	0.010713	-0.007588	-0.59668	-0.095703	-0.497314
270.0	5.478148	0.269372	8.222816	-0.007852	0.005832	-0.001696	-0.598633	-0.099854	-0.497314
271.0	5.474138	0.301038	8.235831	-0.006635	0.009922	-0.008416	-0.596436	-0.0979	-0.495117
272.0	5.46135	0.287329	8.219936	-0.006889	0.005651	-0.003801	-0.594482	-0.095703	-0.490723
273.0	5.476283	0.268626	8.224083	-0.005085	0.00732	-0.006679	-0.596436	-0.102051	-0.49292
274.0	5.473232	0.273431	8.258642	-0.006168	0.009528	-0.003245	-0.594238	-0.0979	-0.49292
275.0	5.44485	0.278133	8.239044	-0.006604	0.009043	-0.004711	-0.594238	-0.100098	-0.49292
276.0	5.488536	0.276358	8.207852	-0.00704	0.008557	-0.006177	-0.594238	-0.0979	-0.495117
277.0	5.470942	0.272248	8.260198	-0.012319	0.009848	-0.00083	-0.596436	-0.0979	-0.495117
278.0	5.459624	0.280198	8.188638	-0.003941	0.003354	-0.002702	-0.594238	-0.0979	-0.497314
279.0	5.469811	0.271152	8.260984	-0.010484	0.010638	-2e-06	-0.596436	-0.100098	-0.490723
280.0	5.469055	0.270594	8.261502	-0.006046	0.007498	-0.004576	-0.598633	-0.100098	-0.490723
281.0	5.479507	0.310576	8.256812	-0.010799	0.008124	-0.0028	-0.598633	-0.0979	-0.48877
282.0	5.470145	0.264579	8.228298	-0.00788	0.006708	-0.005405	-0.594482	-0.093506	-0.495117
283.0	5.483895	0.27265	8.211077	-0.008122	0.010763	-0.002744	-0.598877	-0.095703	-0.499512
284.0	5.466125	0.268841	8.263499	-0.004362	0.011195	-0.006122	-0.594238	-0.102051	-0.495117
285.0	5.448887	0.313878	8.238744	-0.011204	0.006758	-0.000562	-0.59668	-0.095459	-0.506104
286.0	5.490472	0.316692	8.241521	-0.008721	0.004858	-0.004634	-0.596436	-0.102295	-0.488525
287.0	5.481263	0.270476	8.212906	-0.012168	0.006936	0.001541	-0.587646	-0.100098	-0.490723
288.0	5.478103	0.274634	8.247535	-0.009113	0.011819	-0.004347	-0.600586	-0.102295	-0.49292
289.0	5.507212	0.264086	8.234191	-0.008963	0.008912	-0.001973	-0.589844	-0.100098	-0.49292
290.0	5.44646	0.283385	8.262617	-0.00952	0.010454	-0.002109	-0.596436	-0.100098	-0.49292
291.0	5.487647	0.286285	8.26567	-0.008121	0.01076	-0.002745	-0.592041	-0.0979	-0.49292
292.0	5.486713	0.285594	8.266314	-0.011475	0.011689	-0.001609	-0.594238	-0.100098	-0.490723
293.0	5.472867	0.298272	8.228994	-0.011203	0.006755	-0.000566	-0.594238	-0.099854	-0.497314
294.0	5.461015	0.256865	8.234605	-0.009614	0.011598	0.002927	-0.594238	-0.0979	-0.497314
295.0	5.471273	0.29656	8.230116	-0.008962	0.00891	-0.001975	-0.596436	-0.102295	-0.490723
296.0	5.458385	0.282451	8.214277	-0.009518	0.010452	-0.00211	-0.592041	-0.0979	-0.49292
297.0	5.481747	0.308625	8.247634	-0.009926	0.009086	0.000128	-0.594238	-0.0979	-0.495117
298.0	5.485325	0.248991	8.257021	-0.008553	0.010274	-0.004214	-0.60083	-0.095703	-0.495117
299.0	5.467903	0.29398	8.232448	-0.008241	0.012783	-0.001415	-0.594238	-0.100098	-0.49292
300.0	5.4671	0.293331	8.233004	-0.010237	0.006575	-0.002672	-0.598877	-0.093506	-0.49292
301.0	5.479376	0.278949	8.271406	-0.011038	0.012169	-0.000145	-0.598633	-0.102051	-0.495117
302.0	5.468016	0.286896	8.199978	-0.007847	0.005823	-0.001706	-0.598633	-0.0979	-0.497314
303.0	5.480393	0.272796	8.2383	-0.008551	0.010273	-0.004215	-0.596436	-0.0979	-0.490723
304.0	5.482036	0.267341	8.20476	-0.00896	0.008907	-0.001977	-0.59668	-0.095703	-0.495117
305.0	5.46582	0.285307	8.201497	-0.007995	0.00873	-0.00408	-0.596436	-0.0979	-0.497314
306.0	5.466045	0.257806	8.223449	-0.007561	0.009213	-0.002613	-0.596436	-0.100098	-0.49292
307.0	5.447304	0.280817	8.254317	-0.007585	0.010096	-0.006318	-0.600586	-0.102295	-0.49292
308.0	5.458656	0.293945	8.27122	-0.007871	0.006704	-0.005413	-0.59668	-0.095703	-0.495117
309.0	5.475947	0.270166	8.241342	-0.007994	0.008729	-0.004081	-0.596436	-0.102051	-0.497314
310.0	5.486406	0.310292	8.236769	-0.008304	0.00622	-0.006881	-0.59668	-0.093506	-0.497314
311.0	5.459229	0.287862	8.238418	-0.009826	0.007937	-0.004914	-0.598633	-0.100098	-0.49292
312.0	5.459594	0.260409	8.260259	-0.005048	0.006435	-0.002978	-0.596191	-0.104248	-0.490723
313.0	5.515525	0.272123	8.245586	-0.00756	0.009211	-0.002614	-0.596436	-0.102051	-0.49292
314.0	5.483735	0.308631	8.23861	-0.00855	0.010269	-0.004218	-0.594482	-0.095703	-0.48877
315.0	5.470844	0.294738	8.22275	-0.008982	0.009785	-0.005686	-0.596436	-0.0979	-0.49292
316.0	5.455353	0.285678	8.241061	-0.009662	0.013351	-0.004489	-0.598877	-0.093506	-0.495117
317.0	5.469862	0.266772	8.245493	-0.007583	0.010093	-0.006321	-0.598877	-0.093506	-0.503906
318.0	5.456037	0.280093	8.208188	-0.00616	0.009517	-0.00325	-0.590088	-0.097656	-0.497314
319.0	5.456113	0.252731	8.2302	-0.004885	0.011849	-0.002551	-0.596436	-0.0979	-0.490723
320.0	5.493804	0.287917	8.246069	-0.007582	0.010092	-0.006322	-0.59668	-0.095703	-0.495117
321.0	5.481888	0.247083	8.251599	-0.005728	0.009998	-0.001782	-0.592285	-0.095703	-0.497314
322.0	5.449965	0.283669	8.244695	-0.007273	0.012598	-0.003522	-0.598389	-0.104248	-0.497314
323.0	5.45252	0.2513	8.232624	-0.007559	0.009207	-0.002617	-0.589844	-0.099854	-0.499512
324.0	5.433711	0.274258	8.263491	-0.00758	0.010091	-0.006323	-0.594238	-0.099854	-0.501709
325.0	5.46209	0.291068	8.228698	-0.006013	0.006606	-0.000879	-0.594238	-0.0979	-0.49292
326.0	5.461543	0.290497	8.229082	-0.010233	0.006565	-0.002684	-0.59668	-0.095703	-0.497314
327.0	5.47403	0.276076	8.267295	-0.010643	0.005197	-0.000447	-0.592041	-0.099854	-0.497314
328.0	5.491525	0.252124	8.237334	-0.007433	0.007182	-0.003951	-0.598633	-0.0979	-0.490723
329.0	5.474425	0.297108	8.212628	-0.010357	0.008588	-0.001352	-0.596436	-0.102051	-0.495117
330.0	5.474733	0.269362	8.23447	-0.008832	0.006873	-0.003318	-0.598633	-0.0979	-0.495117
331.0	5.474094	0.268797	8.234913	-0.009389	0.008413	-0.003454	-0.592041	-0.102051	-0.495117
332.0	5.473328	0.268194	8.235442	-0.009945	0.009954	-0.00359	-0.594238	-0.0979	-0.49292
333.0	5.48469	0.281129	8.252368	-0.006876	0.00564	-0.003817	-0.592041	-0.102295	-0.490723
334.0	5.45743	0.258611	8.253986	-0.010933	0.011012	-0.005194	-0.59668	-0.093506	-0.495117
335.0	5.455789	0.285314	8.233079	-0.005908	0.005466	-0.005919	-0.59668	-0.095703	-0.49292
336.0	5.468067	0.271398	8.271395	-0.007146	0.010571	-0.004856	-0.598633	-0.0979	-0.495117
337.0	5.469853	0.266176	8.237816	-0.01025	0.007447	-0.006394	-0.594238	-0.102051	-0.495117
338.0	5.498247	0.282994	8.203085	-0.006158	0.009511	-0.003252	-0.60083	-0.0979	-0.490723
339.0	5.464884	0.297287	8.251543	-0.007988	0.008719	-0.004089	-0.592285	-0.095703	-0.49292
340.0	5.452153	0.283431	8.235552	-0.007988	0.008719	-0.004089	-0.598633	-0.095703	-0.48877
341.0	5.466855	0.264396	8.239863	-0.009513	0.010432	-0.002123	-0.594238	-0.100098	-0.49292
342.0	5.49352	0.258832	8.26069	-0.006157	0.00951	-0.003253	-0.592285	-0.095703	-0.49292
343.0	5.479793	0.272192	8.223367	-0.006157	0.00951	-0.003253	-0.596436	-0.0979	-0.495117
344.0	5.464445	0.263211	8.241499	-0.009405	0.009295	-0.007164	-0.596436	-0.0979	-0.49292
345.0	5.448219	0.281232	8.23823	-0.009817	0.007926	-0.004928	-0.592041	-0.0979	-0.495117
346.0	5.47665	0.298103	8.203519	-0.007018	0.008545	-0.006192	-0.594482	-0.095703	-0.490723
347.0	5.4889	0.284164	8.241838	-0.00603	0.007487	-0.004587	-0.594482	-0.095703	-0.499512
348.0	5.461658	0.26185	8.24339	-0.006587	0.009027	-0.004723	-0.600586	-0.102051	-0.495117
349.0	5.472081	0.301838	8.238977	-0.012059	0.005764	-0.003531	-0.592285	-0.095703	-0.49292
350.0	5.46315	0.256052	8.210051	-0.005904	0.005464	-0.005922	-0.596436	-0.102051	-0.495117
351.0	5.472129	0.273774	8.260949	-0.011502	0.004223	-0.003397	-0.592041	-0.099854	-0.495117
352.0	5.473379	0.295494	8.205796	-0.008272	0.005325	-0.00319	-0.59668	-0.093506	-0.495117
353.0	5.501305	0.262798	8.247762	-0.009259	0.006383	-0.004795	-0.59668	-0.095703	-0.495117
354.0	5.443116	0.277232	8.241738	-0.007986	0.008715	-0.004092	-0.598633	-0.099854	-0.503906
355.0	5.472527	0.266987	8.228375	-0.007429	0.007175	-0.003957	-0.592041	-0.099854	-0.495117
356.0	5.456278	0.285107	8.22512	-0.007143	0.010565	-0.004858	-0.596436	-0.0979	-0.495117
357.0	5.470172	0.293421	8.208009	-0.006872	0.005634	-0.003823	-0.592041	-0.099854	-0.497314
358.0	5.455905	0.257265	8.247343	-0.009401	0.009291	-0.007167	-0.596436	-0.099854	-0.501709
359.0	5.454182	0.284043	8.226547	-0.006156	0.009505	-0.003254	-0.591797	-0.104248	-0.499512
360.0	5.468968	0.265354	8.230794	-0.004629	0.007795	-0.00522	-0.594238	-0.099854	-0.497314
361.0	5.453704	0.256525	8.248822	-0.007015	0.008542	-0.006194	-0.594238	-0.099854	-0.499512
362.0	5.464148	0.29679	8.244424	-0.007301	0.005152	-0.005294	-0.601074	-0.093506	-0.49292
363.0	5.449162	0.28776	8.262271	-0.009129	0.004359	-0.006134	-0.596436	-0.0979	-0.48877
364.0	5.469584	0.259297	8.198069	-0.009114	0.00347	-0.002428	-0.598877	-0.095703	-0.49292
365.0	5.493018	0.285622	8.23148	-0.008843	0.007749	-0.007034	-0.596436	-0.099854	-0.497314
366.0	5.506999	0.293998	8.214331	-0.005042	0.006424	-0.002984	-0.598633	-0.100098	-0.495117
367.0	5.449835	0.281252	8.229523	-0.010227	0.006549	-0.002699	-0.594238	-0.100098	-0.490723
368.0	5.492251	0.257085	8.253973	-0.008827	0.00686	-0.003329	-0.596436	-0.100098	-0.49292
369.0	5.490744	0.28369	8.233064	-0.008827	0.006859	-0.00333	-0.589844	-0.102051	-0.495117
370.0	5.463664	0.26119	8.234449	-0.008285	0.006209	-0.006901	-0.594238	-0.0979	-0.495117
371.0	5.462026	0.28803	8.213623	-0.007141	0.010561	-0.00486	-0.592041	-0.099854	-0.497314
372.0	5.476724	0.269257	8.217932	-0.006584	0.009021	-0.004725	-0.598877	-0.093506	-0.495117
373.0	5.457792	0.292229	8.248797	-0.005184	0.009332	-0.005355	-0.59668	-0.093506	-0.495117
374.0	5.442638	0.283314	8.266724	-0.006313	0.004091	-0.003691	-0.603027	-0.100098	-0.495117
375.0	5.456589	0.291533	8.249616	-0.010926	0.010994	-0.005207	-0.596436	-0.100098	-0.49292
376.0	5.475046	0.240808	8.241007	-0.004913	0.004402	-0.004321	-0.596436	-0.097656	-0.499512
377.0	5.470023	0.299528	8.232866	-0.006998	0.007649	-0.002491	-0.59668	-0.095703	-0.495117
378.0	5.457491	0.285742	8.216716	-0.007854	0.006688	-0.005433	-0.603027	-0.095703	-0.49292
379.0	5.46977	0.271693	8.254966	-0.006454	0.007	-0.006062	-0.592041	-0.099854	-0.497314
380.0	5.471887	0.266674	8.221238	-0.009682	0.005894	-0.006275	-0.594238	-0.099854	-0.497314
381.0	5.429357	0.262424	8.218795	-0.012053	0.00575	-0.003545	-0.594238	-0.0979	-0.49292
382.0	5.510349	0.273802	8.258775	-0.006312	0.004089	-0.003693	-0.594238	-0.100098	-0.49292
383.0	5.466914	0.297186	8.235016	-0.005482	0.006831	-0.008163	-0.596436	-0.100098	-0.495117
384.0	5.469815	0.265117	8.222667	-0.008968	0.009764	-0.005703	-0.598633	-0.0979	-0.49292
385.0	5.48096	0.278075	8.239772	-0.007983	0.008705	-0.004098	-0.596191	-0.104248	-0.495117
386.0	5.464787	0.296148	8.236465	-0.007853	0.006686	-0.005434	-0.603027	-0.0979	-0.495117
387.0	5.479792	0.277331	8.240574	-0.006868	0.005627	-0.003829	-0.594238	-0.102051	-0.497314
388.0	5.467307	0.263402	8.22439	-0.010782	0.008078	-0.002841	-0.594482	-0.093506	-0.495117
389.0	5.466612	0.263041	8.224863	-0.002798	0.008584	-0.004378	-0.596436	-0.097656	-0.501709
390.0	5.480462	0.271576	8.207851	-0.009394	0.009282	-0.007176	-0.59668	-0.095703	-0.497314
391.0	5.461353	0.294157	8.238813	-0.010069	0.011947	-0.002268	-0.594482	-0.095703	-0.49292
392.0	5.476054	0.275197	8.24313	-0.005597	0.007958	-0.003122	-0.592041	-0.099854	-0.495117
393.0	5.489961	0.283562	8.226094	-0.007981	0.008703	-0.0041	-0.594238	-0.0979	-0.497314
394.0	5.462716	0.261096	8.227514	-0.006581	0.009015	-0.004728	-0.594238	-0.0979	-0.495117
395.0	5.446382	0.27918	8.224309	-0.008538	0.01024	-0.004235	-0.594238	-0.099854	-0.495117
396.0	5.487606	0.282355	8.227707	-0.007554	0.009182	-0.002629	-0.596436	-0.102295	-0.490723
397.0	5.472125	0.273128	8.245807	-0.009095	0.011778	-0.00437	-0.594238	-0.102051	-0.49292
398.0	5.467597	0.304545	8.259265	-0.006154	0.009494	-0.003257	-0.592041	-0.0979	-0.495117
399.0	5.496906	0.294226	8.246092	-0.010484	0.010572	-3.7e-05	-0.592041	-0.102051	-0.501709
400.0	5.484092	0.280165	8.230124	-0.009094	0.011777	-0.004371	-0.598633	-0.099854	-0.499512
401.0	5.471291	0.266303	8.21414	-0.008537	0.010238	-0.004237	-0.592285	-0.095703	-0.499512
402.0	5.455871	0.257183	8.232177	-0.006579	0.009013	-0.00473	-0.596436	-0.099854	-0.497314
403.0	5.443269	0.243475	8.21605	-0.008405	0.00822	-0.005575	-0.592041	-0.102051	-0.495117
404.0	5.481849	0.251349	8.253519	-0.007979	0.008699	-0.004103	-0.594238	-0.0979	-0.497314
405.0	5.447473	0.292536	8.280511	-0.007716	0.004664	-0.006778	-0.594238	-0.0979	-0.497314
406.0	5.468071	0.264821	8.216332	-0.003942	0.005126	-0.010132	-0.594238	-0.099854	-0.497314
407.0	5.463911	0.296417	8.229544	-0.010222	0.006532	-0.002715	-0.598633	-0.100098	-0.495117
408.0	5.464338	0.2688	8.251112	-0.006316	0.004977	-0.007406	-0.594482	-0.093506	-0.501709
409.0	5.478538	0.27727	8.233921	-0.00869	0.004828	-0.00468	-0.594238	-0.099854	-0.495117
410.0	5.462576	0.295341	8.230468	-0.00729	0.005142	-0.005307	-0.596436	-0.099854	-0.497314
411.0	5.477676	0.276577	8.234518	-0.00729	0.005142	-0.005307	-0.594238	-0.102051	-0.49292
412.0	5.461666	0.294649	8.231097	-0.009673	0.005885	-0.006287	-0.603027	-0.0979	-0.495117
413.0	5.464824	0.262355	8.21857	-0.009247	0.006364	-0.004815	-0.598633	-0.099854	-0.497314
414.0	5.490836	0.284013	8.218064	-0.008689	0.004827	-0.004681	-0.596436	-0.100098	-0.495117
415.0	5.502126	0.29681	8.235102	-0.012187	0.008645	-0.00593	-0.590088	-0.095703	-0.495117
416.0	5.489586	0.282889	8.218937	-0.006996	0.007637	-0.002498	-0.598633	-0.0979	-0.495117
417.0	5.458723	0.292204	8.233136	-0.006578	0.00901	-0.004731	-0.594482	-0.093506	-0.49292
418.0	5.491779	0.250343	8.207062	-0.008536	0.010232	-0.004239	-0.598633	-0.100098	-0.49292
419.0	5.472511	0.272937	8.238072	-0.007267	0.012563	-0.003527	-0.594238	-0.099854	-0.495117
420.0	5.444174	0.277687	8.218318	-0.00756	0.010067	-0.006339	-0.601074	-0.093506	-0.495117
421.0	5.455329	0.290659	8.23544	-0.009245	0.006362	-0.004818	-0.594238	-0.0979	-0.497314
422.0	5.482371	0.285127	8.256082	-0.007573	0.00175	-0.004416	-0.594238	-0.0979	-0.490723
423.0	5.458301	0.257803	8.223048	-0.012603	0.007268	-0.003701	-0.596436	-0.100098	-0.490723
424.0	5.484219	0.279334	8.222641	-0.006438	0.006097	-0.002365	-0.60083	-0.100098	-0.495117
425.0	5.483602	0.278918	8.223067	-0.007977	0.008692	-0.004106	-0.59668	-0.093506	-0.497314
426.0	5.498328	0.260071	8.227369	-0.006709	0.011023	-0.003393	-0.592285	-0.095703	-0.495117
427.0	5.470016	0.264876	8.207595	-0.005309	0.011339	-0.004019	-0.594238	-0.099854	-0.497314
428.0	5.465378	0.296483	8.221139	-0.005733	0.010859	-0.005493	-0.598633	-0.0979	-0.49292
429.0	5.479981	0.277696	8.225522	-0.009091	0.011765	-0.004376	-0.594238	-0.100098	-0.490723
430.0	5.469898	0.259418	8.175468	-0.006847	0.013932	-0.005762	-0.598633	-0.0979	-0.497314
431.0	5.436444	0.246175	8.245356	-0.004313	0.018594	-0.004335	-0.589844	-0.099854	-0.497314
432.0	5.4724	0.308806	8.241039	-0.006004	0.015784	-0.006522	-0.598877	-0.093506	-0.49292
433.0	5.446335	0.232058	8.285082	-0.00516	0.017635	-0.007282	-0.592041	-0.102051	-0.49292
434.0	5.4406	0.29097	8.277562	-0.006998	0.008526	-0.006209	-0.596436	-0.0979	-0.49292
435.0	5.510325	0.33918	8.22501	-0.009799	0.007893	-0.00496	-0.596436	-0.100098	-0.49292
436.0	5.490446	0.252968	8.200499	-0.008246	0.013613	-0.00514	-0.60083	-0.0979	-0.499512
437.0	5.476339	0.189247	8.261105	-0.006556	0.016422	-0.002952	-0.596436	-0.102051	-0.49292
438.0	5.423196	0.19474	8.186972	-0.004043	0.01456	-0.007014	-0.596436	-0.0979	-0.49292
439.0	5.538883	0.188505	8.146186	0.003247	0.019529	-0.01103	-0.60083	-0.0979	-0.495117
440.0	5.511692	0.24886	8.225003	0.003544	0.032125	-0.017553	-0.60083	-0.0979	-0.497314
441.0	5.444704	0.301214	8.267038	0.007616	0.034191	-0.014383	-0.594482	-0.095703	-0.495117
442.0	5.406533	0.262503	8.218753	0.005794	0.033393	-0.015235	-0.598633	-0.099854	-0.499512
443.0	5.392516	0.358917	8.259246	0.000326	0.030111	-0.01408	-0.596191	-0.104248	-0.495117
444.0	5.443401	0.403864	8.259153	-0.003196	0.017299	-0.01149	-0.603027	-0.0979	-0.495117
445.0	5.477066	0.335295	8.254613	-0.006285	0.012383	-0.005642	-0.591797	-0.106445	-0.495117
446.0	5.490762	0.34352	8.237903	-0.012869	0.011279	-0.001051	-0.60083	-0.095703	-0.490967
447.0	5.505328	0.324193	8.242385	-0.009224	0.012869	0.00065	-0.594238	-0.099854	-0.497314
448.0	5.477584	0.300956	8.243961	-0.013836	0.018856	0.002828	-0.596436	-0.100098	-0.495117
449.0	5.415662	0.318883	8.272148	-0.01272	0.015784	0.003098	-0.592041	-0.102051	-0.497314
450.0	5.418267	0.285752	8.260043	-0.014965	0.013614	0.004478	-0.596436	-0.0979	-0.495117
451.0	5.44846	0.247344	8.268261	-0.017494	0.008953	0.003045	-0.594238	-0.097656	-0.499512
452.0	5.462349	0.254631	8.25147	-0.016649	0.010804	0.002287	-0.596436	-0.097656	-0.499512
453.0	5.435976	0.203827	8.273807	-0.015953	0.008151	-0.002624	-0.594482	-0.095703	-0.495117
454.0	5.434342	0.229868	8.253208	-0.015668	0.010641	0.000189	-0.598633	-0.0979	-0.497314
455.0	5.475637	0.2326	8.256855	-0.013433	0.006293	-0.006684	-0.589844	-0.099854	-0.499512
456.0	5.459376	0.250476	8.253564	-0.010343	0.010315	-0.008821	-0.596436	-0.097656	-0.499512
457.0	5.47398	0.231629	8.257981	-0.010479	0.012327	-0.007482	-0.587646	-0.100098	-0.49292
458.0	5.543351	0.280067	8.206109	-0.008791	0.016031	-0.008996	-0.603027	-0.0979	-0.495117
459.0	5.497738	0.253188	8.259177	-0.009485	0.019578	-0.007793	-0.594238	-0.100098	-0.49292
460.0	5.510668	0.261638	8.243028	-0.010179	0.023124	-0.006589	-0.598389	-0.102051	-0.49292
461.0	5.516466	0.306244	8.274179	-0.01269	0.026771	-0.009946	-0.592041	-0.0979	-0.497314
462.0	5.506417	0.260452	8.245906	-0.017314	0.025338	-0.00956	-0.594238	-0.097656	-0.501709
463.0	5.491464	0.273428	8.209658	-0.015486	0.032645	-0.003213	-0.592041	-0.100098	-0.49292
464.0	5.498156	0.262731	8.283571	-0.019816	0.035495	-0.007427	-0.598633	-0.099854	-0.501709
465.0	5.514253	0.211525	8.276601	-0.016992	0.044435	-0.010589	-0.594482	-0.095703	-0.497314
466.0	5.535824	0.259991	8.257702	-0.023555	0.05252	-0.011643	-0.596436	-0.0979	-0.495117
467.0	5.558391	0.253512	8.281471	-0.026755	0.059705	-0.013804	-0.592041	-0.0979	-0.495117
468.0	5.531241	0.27907	8.349541	-0.030659	0.069532	-0.011057	-0.592285	-0.095703	-0.490723
469.0	5.547438	0.222116	8.310539	-0.039037	0.083315	-0.007486	-0.589844	-0.102051	-0.49292
470.0	5.429027	0.21673	8.288007	-0.038602	0.091178	-0.004235	-0.592041	-0.102051	-0.495117
471.0	5.382819	0.206013	8.255393	-0.033529	0.087467	-0.012352	-0.592041	-0.0979	-0.49292
472.0	5.433034	0.18952	8.267504	-0.025689	0.089099	-0.008788	-0.592285	-0.095459	-0.503906
473.0	5.474709	0.155478	8.228845	-0.02778	0.092302	-0.006984	-0.592041	-0.099854	-0.497314
474.0	5.310945	0.151609	8.236532	-0.02486	0.089114	-0.002155	-0.590088	-0.093506	-0.497314
475.0	5.26198	0.146061	8.237485	-0.016499	0.080918	0.003476	-0.592041	-0.099854	-0.503906
476.0	5.380791	0.183564	8.231434	-0.007293	0.074577	0.008363	-0.594482	-0.093506	-0.497314
477.0	5.319768	0.409502	8.305923	-0.00705	0.068752	0.013089	-0.587891	-0.093262	-0.510254
478.0	5.32634	0.312715	8.270321	-0.015742	0.064344	0.013941	-0.592041	-0.099854	-0.499512
479.0	5.320595	0.337777	8.252691	-0.01623	0.061154	0.023577	-0.590088	-0.097656	-0.501709
480.0	5.304328	0.322024	8.238899	-0.011779	0.056291	0.02647	-0.587891	-0.097656	-0.499512
481.0	5.303517	0.395959	8.284868	-0.015352	0.049984	0.034511	-0.587891	-0.097656	-0.503906
482.0	5.326046	0.414732	8.287411	-0.019595	0.048115	0.040044	-0.583496	-0.097656	-0.501709
483.0	5.341327	0.388081	8.259797	-0.020884	0.04488	0.043015	-0.590088	-0.097656	-0.506104
484.0	5.308454	0.33848	8.317392	-0.025539	0.042537	0.047066	-0.590088	-0.097656	-0.506104
485.0	5.373944	0.251236	8.267242	-0.029308	0.042948	0.04666	-0.585693	-0.093262	-0.503906
486.0	5.260099	0.217067	8.261975	-0.025494	0.043424	0.043346	-0.592285	-0.093506	-0.503906
487.0	5.218469	0.285901	8.30349	-0.021291	0.036989	0.039725	-0.583252	-0.099854	-0.499512
488.0	5.261169	0.281985	8.275158	-0.016022	0.032218	0.02661	-0.587891	-0.093506	-0.499512
489.0	5.21669	0.275989	8.272943	-0.014258	0.030346	0.015914	-0.58374	-0.089111	-0.501709
490.0	5.237364	0.300465	8.308521	-0.014384	0.025871	0.011757	-0.588135	-0.089111	-0.501709
491.0	5.285362	0.239105	8.287445	-0.012962	0.019715	0.005654	-0.587891	-0.093262	-0.503906
492.0	5.326168	0.214073	8.313352	-0.008638	0.01776	0.006197	-0.585693	-0.095459	-0.508057
493.0	5.36997	0.212403	8.284342	-0.009841	0.023729	0.00355	-0.587646	-0.099854	-0.503906
494.0	5.367888	0.211702	8.285709	-0.001579	0.02673	0.004949	-0.590088	-0.095703	-0.497314
495.0	5.312311	0.16723	8.287296	-0.000516	0.034865	0.000947	-0.590088	-0.095459	-0.503906
496.0	5.247553	0.241181	8.273497	0.000201	0.038712	0.001536	-0.587891	-0.095459	-0.506104
497.0	5.240623	0.273052	8.288484	0.004809	0.032756	-0.000595	-0.590088	-0.097656	-0.501709
498.0	5.234493	0.19735	8.246831	0.012538	0.030815	-0.004826	-0.588135	-0.086914	-0.503906
499.0	5.22879	0.176443	8.303346	0.027632	0.027374	-0.018466	-0.58374	-0.093506	-0.501709
500.0	5.360019	0.155012	8.269597	0.032184	0.025232	-0.026666	-0.587891	-0.093506	-0.501709
501.0	5.350004	0.195689	8.31818	0.045122	0.030561	-0.02931	-0.588135	-0.091309	-0.501709
502.0	5.306935	0.087423	8.399629	0.034951	0.029668	-0.033963	-0.590088	-0.093262	-0.510254
503.0	5.421992	0.193983	8.418329	0.034791	0.024285	-0.034413	-0.583496	-0.099854	-0.501709
504.0	5.35467	0.195584	8.360466	0.026102	0.027277	-0.031816	-0.592285	-0.095459	-0.503906
505.0	5.374651	0.253304	8.375028	0.02596	0.029273	-0.030484	-0.587891	-0.095459	-0.501709
506.0	5.264573	0.331446	8.390429	0.024815	0.031424	-0.027068	-0.585693	-0.097656	-0.506104
507.0	5.220635	0.303257	8.408735	0.013389	0.023499	-0.022666	-0.587646	-0.101807	-0.508057
508.0	5.233813	0.341481	8.371598	0.006433	0.011627	-0.019041	-0.585693	-0.097656	-0.503906
509.0	5.190095	0.447158	8.424076	-0.001513	0.007288	-0.011555	-0.585449	-0.099854	-0.501709
510.0	5.329846	0.549488	8.356315	-0.007818	-0.009014	-0.005412	-0.587891	-0.097656	-0.510254
511.0	5.185635	0.559703	8.373601	-0.025013	-0.008833	0.004526	-0.587891	-0.095459	-0.503906
512.0	5.179568	0.539393	8.32169	-0.029808	-0.027722	0.012431	-0.590088	-0.095459	-0.503906
513.0	5.309328	0.464616	8.395478	-0.04113	-0.038556	0.019203	-0.587646	-0.099854	-0.508057
514.0	5.261462	0.252731	8.379164	-0.03821	-0.040829	0.020356	-0.589844	-0.099854	-0.506104
515.0	5.151418	0.223239	8.402678	-0.03616	-0.052329	0.020475	-0.589844	-0.102051	-0.503906
516.0	5.353927	0.278876	8.36086	-0.041597	-0.066805	0.025845	-0.592285	-0.097656	-0.501709
517.0	5.363715	0.242418	8.344229	-0.038672	-0.069086	0.026989	-0.590088	-0.095459	-0.501709
518.0	5.351811	0.125227	8.335091	-0.031095	-0.076412	0.022297	-0.592285	-0.095703	-0.499512
519.0	5.387791	0.167118	8.27607	-0.022277	-0.074947	0.023828	-0.594482	-0.095459	-0.506104
520.0	5.261065	0.162118	8.328473	-0.014058	-0.074605	0.013651	-0.594238	-0.097656	-0.506104
521.0	5.339656	0.181996	8.294113	-0.009746	-0.083951	0.012389	-0.592285	-0.091309	-0.495117
522.0	5.481157	0.07328	8.316889	-0.007619	-0.079794	0.012362	-0.592041	-0.0979	-0.497314
523.0	5.455911	0.136976	8.284172	0.001731	-0.067744	0.006045	-0.594238	-0.099854	-0.499512
524.0	5.465179	0.104964	8.267505	-0.002838	-0.060886	0.00448	-0.59668	-0.095703	-0.501709
525.0	5.363258	0.151986	8.300184	0.001715	-0.055642	-0.001942	-0.594238	-0.097656	-0.501709
526.0	5.336562	0.216621	8.2685	0.001829	-0.058561	0.000415	-0.592285	-0.093506	-0.497314
527.0	5.368063	0.238992	8.265153	0.005306	-0.062373	0.001687	-0.590088	-0.095459	-0.506104
528.0	5.431103	0.196763	8.290309	-8e-06	-0.060275	0.00324	-0.590332	-0.091309	-0.499512
529.0	5.416625	0.247046	8.296456	0.005062	-0.057471	0.000654	-0.594238	-0.099854	-0.499512
530.0	5.47883	0.124274	8.244363	0.001729	-0.055674	-0.001968	-0.594482	-0.091309	-0.497314
531.0	5.426772	0.084866	8.275981	0.007948	-0.047632	-0.006187	-0.594482	-0.091309	-0.501709
532.0	5.414116	0.159609	8.227676	0.013291	-0.048833	-0.01146	-0.598633	-0.0979	-0.499512
533.0	5.357315	0.180396	8.251788	0.012741	-0.047306	-0.011599	-0.592529	-0.091309	-0.497314
534.0	5.335427	0.132719	8.270319	0.011245	-0.05029	-0.02256	-0.592285	-0.095703	-0.499512
535.0	5.325235	0.126103	8.28444	0.014847	-0.063503	-0.024441	-0.590088	-0.097656	-0.499512
536.0	5.38733	0.141449	8.267338	0.01321	-0.06449	-0.034062	-0.598877	-0.095703	-0.49292
537.0	5.358651	0.077828	8.233869	0.017583	-0.071126	-0.046468	-0.596436	-0.099854	-0.499512
538.0	5.369383	0.131421	8.293988	0.024314	-0.079417	-0.05418	-0.60083	-0.095703	-0.497314
539.0	5.41338	0.199476	8.28519	0.025605	-0.082695	-0.062681	-0.598633	-0.0979	-0.490723
540.0	5.443749	0.123661	8.257913	0.031369	-0.089937	-0.072018	-0.598633	-0.100098	-0.495117
541.0	5.398288	0.086295	8.253729	0.037297	-0.090886	-0.08461	-0.594238	-0.099854	-0.497314
542.0	5.405554	0.229477	8.283481	0.030997	-0.110879	-0.086367	-0.60083	-0.095703	-0.495117
543.0	5.344534	0.187533	8.329437	0.029901	-0.122669	-0.090277	-0.596191	-0.104248	-0.49292
544.0	5.393905	0.230408	8.338286	0.027132	-0.153907	-0.092594	-0.60083	-0.0979	-0.49292
545.0	5.386797	0.423131	8.373783	0.022982	-0.179888	-0.085085	-0.600586	-0.104248	-0.490723
546.0	5.497594	0.477129	8.364888	0.003336	-0.214851	-0.071207	-0.603027	-0.100098	-0.48877
547.0	5.464361	0.543432	8.4094	-0.018754	-0.257238	-0.047664	-0.602783	-0.104248	-0.490723
548.0	5.370455	0.656474	8.493063	-0.050026	-0.294271	-0.02524	-0.603027	-0.100098	-0.49292
549.0	5.528391	0.63159	8.470539	-0.089764	-0.368265	0.001919	-0.605225	-0.100098	-0.48877
550.0	5.355466	0.60454	8.610877	-0.128346	-0.427035	0.018053	-0.607178	-0.100098	-0.484375
551.0	5.110976	0.396829	8.695371	-0.185669	-0.52189	0.035655	-0.605225	-0.095947	-0.47998
552.0	5.287682	0.820627	8.724653	-0.170312	-0.656717	0.073103	-0.614014	-0.095947	-0.477783
553.0	5.289414	0.597798	8.569622	-0.213301	-0.770063	0.100754	-0.618408	-0.093994	-0.47583
554.0	5.341191	0.76231	8.607843	-0.223857	-0.900346	0.13245	-0.620605	-0.091797	-0.467041
555.0	5.373115	0.665907	8.615856	-0.246001	-1.026639	0.163849	-0.625244	-0.087646	-0.462646
556.0	5.356677	0.449846	8.610797	-0.262924	-1.165173	0.17548	-0.629639	-0.085693	-0.456299
557.0	5.424175	0.378003	8.497022	-0.279389	-1.298384	0.183056	-0.634033	-0.083496	-0.44751
558.0	5.47746	0.424643	8.484216	-0.298632	-1.430847	0.195958	-0.640625	-0.077393	-0.436768
559.0	5.625027	0.305695	8.375776	-0.33111	-1.565779	0.199858	-0.647217	-0.077393	-0.43042
560.0	5.694505	0.243145	8.32287	-0.35626	-1.704383	0.216029	-0.6604	-0.075439	-0.421631
561.0	5.760466	-0.027975	8.212564	-0.368032	-1.848459	0.216783	-0.658203	-0.075684	-0.408691
562.0	5.802893	-0.099984	8.232116	-0.391651	-2.01407	0.21286	-0.665039	-0.064941	-0.395752
563.0	5.862118	-0.27026	8.163817	-0.410109	-2.200299	0.199107	-0.671631	-0.062988	-0.387207
564.0	5.811411	-0.733366	7.930888	-0.435521	-2.404504	0.167568	-0.684814	-0.061035	-0.37207
565.0	5.800387	-0.758722	7.824192	-0.387607	-2.655376	0.123415	-0.687256	-0.052734	-0.358887
566.0	5.934586	-0.645401	7.746673	-0.38175	-2.929705	0.074287	-0.700439	-0.048828	-0.333008
567.0	5.932222	-0.900736	7.516331	-0.369914	-3.22098	0.039162	-0.706787	-0.049072	-0.315674
568.0	5.86242	-1.186705	7.277292	-0.31436	-3.584958	-0.023939	-0.715576	-0.049561	-0.2854
569.0	6.171409	-1.54533	7.184906	-0.282567	-3.993456	-0.116409	-0.722168	-0.043457	-0.268066
570.0	6.696738	-1.736502	7.019038	-0.196338	-4.374071	-0.235319	-0.730713	-0.045898	-0.235596
571.0	7.414523	-1.789277	7.26045	-0.102225	-4.749127	-0.401392	-0.737305	-0.044434	-0.200928
572.0	9.024319	-2.233412	7.284734	0.03114	-5.049305	-0.617477	-0.74585	-0.049072	-0.174805
573.0	10.784241	-2.179149	7.834324	0.234461	-5.176586	-0.858308	-0.75	-0.049561	-0.144531
574.0	12.585326	-2.454303	8.058709	0.409325	-5.171305	-1.085025	-0.75415	-0.054443	-0.103271
575.0	12.808296	-2.066591	8.398972	0.539752	-5.094654	-1.293178	-0.751465	-0.067627	-0.079346
576.0	12.198699	-1.256593	8.023734	0.486041	-5.170346	-1.444069	-0.74707	-0.065918	-0.044678
577.0	13.544144	-0.48884	7.969719	0.243244	-5.235742	-1.532056	-0.737793	-0.074951	-0.012207
578.0	14.58066	-0.82243	7.671482	-0.058605	-5.071509	-1.530597	-0.729248	-0.072998	0.009521
579.0	15.456249	-1.52904	7.843013	-0.283655	-4.99372	-1.486352	-0.718018	-0.077637	0.037598
580.0	19.234589	-3.348265	8.794163	-0.437086	-4.265426	-1.460637	-0.702881	-0.077881	0.057129
581.0	20.285912	-2.099537	7.520257	-0.0125	-3.296346	-1.677082	-0.678467	-0.086426	0.068115
582.0	15.946289	-1.961878	7.242823	0.5871	-2.477643	-1.923842	-0.665283	-0.08667	0.081299
583.0	5.786089	-3.549176	8.936256	0.625321	-1.773338	-1.935595	-0.643555	-0.08667	0.083496
584.0	4.829799	-12.25226	14.769753	0.121626	-1.283556	-1.097024	-0.626465	-0.079834	0.076904
585.0	18.151886	-9.828444	16.731098	0.873186	-0.77028	-0.041285	-0.603027	-0.064697	0.07251
586.0	8.94274	-10.01364	15.297747	1.422609	1.506647	0.778287	-0.584229	-0.045166	0.055176
587.0	-2.057402	-3.574565	12.410179	1.926872	2.001268	1.252943	-0.559326	-0.018799	0.0354
588.0	-1.809417	-1.513601	11.178445	1.516044	2.07412	1.550448	-0.527832	0.011719	0.009521
589.0	-2.783577	0.827134	10.807888	1.260236	2.246543	1.651868	-0.498047	0.029053	0.000732
590.0	-2.221401	1.880116	10.652886	0.748256	2.298018	1.567323	-0.459717	0.051025	-0.023193
591.0	-0.826318	2.008599	10.995415	0.375835	2.537988	1.338046	-0.415283	0.08374	-0.031982
592.0	1.114537	1.886844	11.424161	0.146396	2.921291	1.029861	-0.374512	0.099121	-0.044922
593.0	3.046483	1.573857	11.769057	0.031928	3.43563	0.694634	-0.323242	0.123047	-0.044922
594.0	4.44162	1.042149	11.511631	0.009124	4.021115	0.388983	-0.271729	0.140137	-0.03418
595.0	4.818871	0.721223	10.724545	0.016767	4.587939	0.154014	-0.215576	0.155029	-0.008057
596.0	4.355901	0.53888	9.671733	0.022968	4.993205	0.012336	-0.172607	0.171875	0.032959
597.0	4.214501	0.286458	8.724429	-0.009059	5.184263	-0.049224	-0.142334	0.182129	0.085205
598.0	4.652743	-0.198941	8.065825	-0.057208	5.232225	-0.051629	-0.125	0.185547	0.145752
599.0	5.104394	-0.619174	7.519108	-0.067577	5.208379	-0.021362	-0.135498	0.18042	0.215088
600.0	5.31799	-0.693711	7.231811	-0.081037	5.105846	0.041193	-0.16333	0.170654	0.284424
601.0	5.921026	-0.393619	7.375335	-0.147055	4.897138	0.137045	-0.212646	0.150635	0.321289
602.0	7.473243	-0.060384	8.137367	-0.279505	4.644679	0.227465	-0.268311	0.128418	0.358154
603.0	9.596142	0.174755	9.147686	-0.438364	4.472125	0.289756	-0.33667	0.095703	0.369141
604.0	10.762835	-0.310729	9.810307	-0.556566	4.403258	0.308562	-0.40332	0.078369	0.366943
605.0	10.858185	-0.716399	10.099062	-0.60201	4.288571	0.264455	-0.472168	0.054688	0.33667
606.0	11.860235	-0.793993	10.4786	-0.618123	4.08667	0.242931	-0.519287	0.031494	0.299805
607.0	13.564333	-0.849897	10.949587	-0.664947	3.921992	0.290658	-0.568848	0.018799	0.258545
608.0	14.995081	-1.021737	11.118691	-0.71881	3.872808	0.398854	-0.601074	0.004395	0.206543
609.0	14.801213	-1.229124	10.546604	-0.689111	3.880128	0.563162	-0.631592	0.000732	0.147949
610.0	13.694667	-1.087044	9.711149	-0.583102	3.79158	0.717067	-0.642578	-0.002686	0.09375
611.0	12.683272	-0.158304	9.018621	-0.456991	3.592251	0.8364	-0.653564	0.0	0.037354
612.0	12.007195	1.357116	8.651848	-0.429395	3.321497	0.948707	-0.653564	-0.001465	-0.001465
613.0	12.050602	2.273676	8.6516	-0.487205	3.03408	1.020958	-0.643066	0.005615	-0.055664
614.0	13.112299	2.566713	9.172262	-0.560668	2.814823	1.023038	-0.636963	0.010498	-0.092529
615.0	14.853019	2.574841	9.870878	-0.593386	2.723286	0.910921	-0.630615	0.013428	-0.144775
616.0	16.727656	3.018819	10.487514	-0.649506	2.856936	0.73793	-0.613281	0.018311	-0.175049
617.0	17.609935	3.549863	10.201091	-0.799931	3.200952	0.488113	-0.602295	0.01001	-0.20752
618.0	16.370664	3.940014	8.297819	-1.064113	3.528008	0.211131	-0.587158	0.010742	-0.246338
619.0	14.114391	4.006726	5.874084	-1.369863	3.640098	-0.053248	-0.571777	0.004883	-0.2854
620.0	12.827873	3.516966	3.725456	-1.644347	3.476952	-0.284405	-0.558594	0.005127	-0.300537
621.0	12.35044	2.730099	1.865613	-1.82403	3.148384	-0.451395	-0.536865	0.001465	-0.3396
622.0	12.729377	2.083109	0.262189	-1.845291	2.739448	-0.543373	-0.528076	-0.000488	-0.356934
623.0	13.623297	1.656914	-1.221427	-1.714296	2.351831	-0.557363	-0.510742	0.001953	-0.374023
624.0	14.381043	1.38429	-2.90219	-1.468188	1.947001	-0.517689	-0.504395	0.002197	-0.391357
625.0	14.371971	1.143261	-4.784388	-1.092327	1.491698	-0.480602	-0.497803	0.000244	-0.408691
626.0	13.635628	0.947744	-6.064907	-0.612164	0.886628	-0.501944	-0.493164	-0.00415	-0.402344
627.0	13.321886	0.86183	-6.240372	-0.114472	0.167721	-0.577166	-0.486572	-0.008057	-0.413086
628.0	13.355925	0.737067	-5.178259	0.343194	-0.530916	-0.701277	-0.49707	-0.016846	-0.404297
629.0	12.361338	-1.771512	-4.333334	1.144922	-1.265783	-0.912531	-0.496582	-0.029785	-0.399902
630.0	16.111327	0.160572	-4.16545	1.920275	-2.028582	-1.131363	-0.506836	-0.045166	-0.391357
631.0	14.928054	1.494613	-3.679659	2.232544	-2.431432	-1.193551	-0.51709	-0.0625	-0.380371
632.0	7.864791	4.365111	7.085556	2.119541	-2.182955	-1.101135	-0.523193	-0.071533	-0.36084
633.0	6.810764	1.664725	21.355169	0.896091	-2.360163	-0.470289	-0.5271	-0.082275	-0.356445
634.0	-6.815977	-8.163474	17.397412	0.87226	-2.175133	-0.314246	-0.548584	-0.089111	-0.341309
635.0	5.333892	1.966543	3.657833	2.759006	-3.769736	-0.400385	-0.554443	-0.106689	-0.310791
636.0	21.169677	16.753774	15.4263	1.685957	-3.442124	0.281131	-0.565674	-0.098389	-0.295654
637.0	16.96059	5.226183	15.165007	-0.266676	-2.215369	0.308839	-0.569824	-0.100586	-0.284912
638.0	8.484092	4.766981	10.668345	0.125147	-1.556586	-0.112768	-0.576416	-0.10083	-0.276123
639.0	4.30756	-0.310819	8.466725	-0.190609	-1.659626	-0.029468	-0.578369	-0.105225	-0.267578
640.0	5.555516	-4.490927	8.104303	-0.056365	-1.775704	0.135329	-0.585205	-0.09668	-0.254639
641.0	6.601876	-4.182422	8.322578	0.255359	-1.707839	0.286353	-0.591309	-0.103271	-0.248047
642.0	10.001682	-6.302397	11.434904	0.721163	-1.801661	-0.084165	-0.5979	-0.103516	-0.237305
643.0	12.838106	3.330008	9.805552	1.189024	-0.785311	-0.179832	-0.595459	-0.10791	-0.230713
644.0	6.110847	0.893408	8.861438	0.815074	-0.634885	-0.103097	-0.597656	-0.10791	-0.224121
645.0	9.688241	2.881567	12.020445	0.52086	-0.595453	0.003259	-0.599609	-0.114502	-0.224121
646.0	6.813837	3.151091	8.322421	0.246902	-0.092103	-0.053197	-0.599854	-0.110107	-0.224121
647.0	5.571775	0.405557	8.500189	0.026621	-0.183339	-0.041929	-0.597412	-0.112549	-0.213379
648.0	5.011182	0.593668	8.562339	0.092888	-0.187915	-0.025496	-0.599609	-0.112305	-0.221924
649.0	5.377294	0.906773	8.651738	0.103862	-0.186291	-0.017833	-0.599854	-0.110107	-0.219727
650.0	6.122267	0.637167	8.400826	0.085292	-0.187701	-0.00386	-0.597412	-0.114502	-0.213379
651.0	5.709271	0.315066	8.495773	0.075082	-0.141067	0.028056	-0.599609	-0.112305	-0.221924
652.0	5.589567	0.019019	8.482998	0.060066	-0.17859	0.029385	-0.606201	-0.112549	-0.215576
653.0	6.049601	-0.109171	8.377701	0.060497	-0.156664	0.026263	-0.593018	-0.116699	-0.221924
654.0	5.832597	0.091278	8.37802	0.061114	-0.122971	0.029252	-0.601807	-0.116699	-0.217529
655.0	5.841659	-0.17465	8.29283	0.043115	-0.106316	0.004695	-0.599609	-0.116699	-0.215576
656.0	6.028315	-0.117654	8.30137	0.04819	-0.070677	-0.006502	-0.599854	-0.110352	-0.213379
657.0	5.841377	0.039373	8.246054	0.042226	-0.025899	-0.006843	-0.601807	-0.112549	-0.213379
658.0	5.679356	0.23995	8.313135	0.028942	-0.007701	0.001198	-0.604004	-0.112549	-0.213379
659.0	5.595999	0.397924	8.323482	0.016233	-0.001326	0.009802	-0.604004	-0.112549	-0.211182
660.0	5.538808	0.440731	8.295656	-0.010424	-0.001174	0.026686	-0.61084	-0.108154	-0.211182
661.0	5.486056	0.365984	8.314421	-0.022837	-0.009052	0.033006	-0.601807	-0.112549	-0.208984
662.0	5.504742	0.070977	8.205193	-0.027296	-0.00663	0.018562	-0.605957	-0.116699	-0.219727
663.0	5.598732	-0.069915	8.07184	-0.014699	0.011491	0.00307	-0.604004	-0.114502	-0.213379
664.0	5.588924	-0.114047	8.041784	-0.002651	0.036019	-0.022237	-0.601807	-0.112549	-0.208984
665.0	5.489528	-0.130183	8.018917	0.020184	0.061754	-0.050108	-0.599609	-0.114502	-0.213379
666.0	5.236986	-0.208153	8.144353	0.033233	0.074883	-0.073385	-0.601807	-0.114502	-0.215576
667.0	4.961248	-0.444796	8.195662	0.035624	0.062295	-0.087217	-0.597412	-0.116699	-0.215576
668.0	4.908532	-0.511831	8.182755	0.052281	0.025568	-0.097756	-0.602051	-0.110352	-0.208984
669.0	4.884441	-0.392207	8.188007	0.068559	0.010889	-0.118051	-0.60376	-0.121094	-0.211182
670.0	4.812597	-0.401011	8.21773	0.093698	-0.007775	-0.146009	-0.60376	-0.116943	-0.208984
671.0	5.040738	-0.280897	8.299753	0.105475	-0.060009	-0.132283	-0.597168	-0.121094	-0.215332
672.0	5.164255	-0.164066	8.316379	0.116411	-0.073015	-0.128413	-0.599609	-0.116699	-0.211182
673.0	5.325884	-0.01086	8.350224	0.130494	-0.069784	-0.134447	-0.597168	-0.123291	-0.213379
674.0	5.104524	-0.202458	8.239459	0.135828	-0.07929	-0.137921	-0.599609	-0.114502	-0.213379
675.0	5.04423	-0.158027	8.329876	0.139922	-0.10491	-0.149579	-0.594971	-0.121094	-0.213379
676.0	5.376096	0.068626	8.335248	0.144301	-0.133858	-0.144969	-0.60376	-0.121094	-0.208984
677.0	5.455485	0.195155	8.41054	0.160129	-0.140759	-0.159969	-0.601074	-0.129639	-0.208984
678.0	5.381322	0.184431	8.448977	0.128331	-0.164436	-0.163701	-0.603516	-0.127686	-0.202393
679.0	5.41502	0.261725	8.486838	0.124384	-0.19708	-0.170757	-0.601318	-0.127686	-0.20459
680.0	5.499028	0.203342	8.454869	0.106304	-0.239399	-0.168532	-0.603516	-0.127686	-0.202393
681.0	5.497465	0.27474	8.484447	0.091111	-0.280191	-0.171228	-0.603271	-0.134033	-0.202393
682.0	5.591716	0.369031	8.395382	0.075379	-0.322289	-0.162945	-0.607422	-0.136475	-0.197998
683.0	5.547842	0.547741	8.54255	0.041976	-0.366485	-0.152613	-0.603271	-0.134277	-0.197998
684.0	5.380869	0.342591	8.649301	-0.009895	-0.443242	-0.141803	-0.607422	-0.134277	-0.197998
685.0	5.202124	0.341177	8.745193	-0.062142	-0.542699	-0.152098	-0.605225	-0.136475	-0.19165
686.0	5.30818	0.360679	8.942335	-0.195423	-0.654516	-0.170056	-0.607422	-0.136475	-0.187256
687.0	4.937195	0.756833	9.107627	-0.135261	-0.847698	-0.099361	-0.605225	-0.138672	-0.180664
688.0	5.062066	1.566196	9.096509	-0.261417	-1.070595	-0.017055	-0.609375	-0.138672	-0.180664
689.0	5.290462	1.50175	8.945586	-0.279039	-1.291414	0.079746	-0.611816	-0.134521	-0.174316
690.0	5.175918	1.592786	8.958762	-0.320277	-1.515403	0.194233	-0.616211	-0.132568	-0.16333
691.0	4.98723	1.667027	9.086973	-0.358618	-1.765736	0.293448	-0.618652	-0.128418	-0.154785
692.0	4.870692	1.173418	9.108903	-0.424247	-2.056371	0.365653	-0.618652	-0.126465	-0.133057
693.0	4.722491	0.433957	9.213571	-0.478915	-2.367139	0.385463	-0.625244	-0.124512	-0.130859
694.0	4.628713	0.063345	9.292009	-0.503233	-2.725092	0.383342	-0.625244	-0.118408	-0.107178
695.0	4.773303	-0.107503	9.553793	-0.569191	-3.12526	0.3625	-0.631836	-0.118408	-0.094238
696.0	4.456673	-1.007143	9.348042	-0.669005	-3.553731	0.328098	-0.634033	-0.116699	-0.070313
697.0	4.138315	-1.372458	9.392789	-0.652991	-4.091212	0.246484	-0.63623	-0.11499	-0.042236
698.0	3.769971	-1.665896	9.396885	-0.656869	-4.749445	0.151633	-0.638428	-0.113281	-0.009766
699.0	3.165917	-2.618695	8.933136	-0.618215	-5.602907	0.010871	-0.634033	-0.111572	0.018555
700.0	3.805347	-2.908074	9.161214	-0.515497	-6.662845	-0.205472	-0.635986	-0.114258	0.063965
701.0	6.095006	-3.411454	8.961978	-0.44674	-7.618873	-0.532478	-0.626709	-0.125732	0.114014
702.0	11.250813	-3.130381	9.94175	-0.222851	-8.271888	-0.924637	-0.619873	-0.13501	0.168213
703.0	19.139122	-2.675235	11.61204	0.164642	-8.224077	-1.277509	-0.602051	-0.139893	0.21167
704.0	19.48113	-2.882096	11.102518	0.431753	-7.521751	-1.551039	-0.580078	-0.144531	0.255127
705.0	17.827175	-1.435536	11.34414	0.485756	-7.426956	-1.733039	-0.557861	-0.153564	0.294189
706.0	15.953	-2.954813	10.836921	0.257075	-7.074546	-1.86678	-0.533447	-0.164795	0.328857
707.0	18.907512	-6.278204	12.335604	0.233435	-6.852867	-2.025297	-0.506592	-0.177979	0.35498
708.0	26.471926	-6.836752	12.390713	0.540569	-5.479118	-2.33028	-0.48877	-0.191162	0.383301
709.0	24.437683	-7.447374	13.706963	1.544713	-4.078427	-2.741918	-0.4729	-0.204102	0.398682
710.0	7.980775	-5.767992	14.595214	2.403867	-2.383138	-3.036396	-0.45752	-0.206299	0.402832
711.0	-0.690845	-10.99349	13.047075	1.876228	-1.712132	-1.872341	-0.453125	-0.20874	0.418213
712.0	31.433613	-6.26958	34.770315	0.678047	-0.817356	-0.456654	-0.455322	-0.206543	0.411621
713.0	1.752631	-12.295405	15.70546	1.614926	3.171691	0.525789	-0.46875	-0.199951	0.396484
714.0	-6.899321	-7.950342	13.289005	1.842692	2.666468	0.828279	-0.484619	-0.186768	0.378906
715.0	-4.634246	-3.006054	12.269136	2.062978	2.718249	1.047072	-0.500488	-0.171631	0.365723
716.0	-3.251079	0.52861	12.297581	1.617395	2.803231	1.121164	-0.517822	-0.173584	0.348389
717.0	-1.461007	2.111728	12.281896	0.799172	3.124558	1.03769	-0.522461	-0.168945	0.320313
718.0	-0.480637	1.799255	11.914535	0.140568	3.584876	0.871159	-0.544434	-0.164307	0.296387
719.0	0.64931	0.798651	11.29558	-0.240721	4.071778	0.626838	-0.555176	-0.17041	0.259521
720.0	1.661971	0.355175	10.407116	-0.374818	4.496223	0.363776	-0.568115	-0.169922	0.224854
721.0	3.096066	0.427868	9.859179	-0.443754	4.849507	0.151937	-0.570557	-0.171387	0.179199
722.0	4.37407	0.748864	9.395785	-0.534169	5.213577	0.014947	-0.576904	-0.17749	0.148926
723.0	4.644938	0.902374	8.689223	-0.661455	5.508284	-0.021299	-0.572266	-0.1875	0.099121
724.0	4.718449	0.494165	7.804607	-0.773495	5.677473	0.006323	-0.563477	-0.189209	0.064453
725.0	4.800735	0.033134	7.008961	-0.790545	5.704793	0.089344	-0.559082	-0.195068	0.027832
726.0	5.007662	0.029204	6.984051	-0.713718	5.634805	0.172225	-0.548096	-0.194824	-0.002686
727.0	5.742003	0.603171	7.656504	-0.652318	5.491256	0.250678	-0.539307	-0.19873	-0.030762
728.0	7.098741	1.537524	8.702751	-0.687224	5.360746	0.306183	-0.537109	-0.204834	-0.05249
729.0	8.982921	2.621217	9.74879	-0.849948	5.287969	0.33341	-0.532471	-0.210938	-0.071777
730.0	11.177878	3.371509	10.583617	-1.104099	5.249962	0.330864	-0.52832	-0.208496	-0.093506
731.0	12.43505	3.468732	10.794717	-1.348916	5.226756	0.322434	-0.534668	-0.212402	-0.119629
732.0	12.779635	2.668387	11.149172	-1.449748	5.08479	0.243079	-0.534912	-0.209961	-0.147705
733.0	14.548843	1.883594	12.584407	-1.416276	4.86685	0.147786	-0.532715	-0.20752	-0.162842
734.0	18.173433	1.524702	14.248342	-1.372155	4.815495	0.149591	-0.541748	-0.200684	-0.193359
735.0	20.616992	0.899761	14.32011	-1.342277	5.095887	0.32388	-0.537598	-0.200439	-0.217041
736.0	19.890863	1.123083	12.947819	-1.1661	5.460807	0.622653	-0.538086	-0.187012	-0.249756
737.0	17.88751	1.426212	10.972328	-1.046349	5.543697	0.889739	-0.519043	-0.173584	-0.291016
738.0	17.011563	2.735795	9.541243	-0.953254	5.357449	1.021555	-0.494141	-0.146973	-0.327881
739.0	17.192717	3.721264	8.776489	-0.947521	5.046189	1.012494	-0.455811	-0.123047	-0.347412
740.0	16.190779	3.583431	8.125603	-0.953113	4.735096	0.909285	-0.411377	-0.094727	-0.351807
741.0	19.680354	1.160904	4.519285	-0.619798	3.58102	0.66637	-0.375	-0.077637	-0.334473
742.0	17.414278	3.889834	1.953008	-0.199989	3.820601	0.368227	-0.346924	-0.064941	-0.306396
743.0	23.26874	5.599102	3.549156	-0.552165	3.383819	0.203311	-0.338867	-0.050293	-0.273926
744.0	20.521434	6.289151	0.103255	-0.97996	3.410241	0.120998	-0.336914	-0.040039	-0.24585
745.0	20.25583	6.38222	-3.919599	-1.156875	2.979794	-0.027535	-0.34375	-0.033691	-0.237061
746.0	21.340483	7.580922	-9.13471	-1.032858	2.314384	-0.222836	-0.345947	-0.029785	-0.215576
747.0	21.560945	7.644656	-12.99022	-0.915336	1.489288	-0.461095	-0.357178	-0.02124	-0.208984
748.0	20.687349	6.076837	-14.470119	-0.42617	0.627456	-0.724313	-0.368408	-0.015137	-0.1875
749.0	18.780259	1.772269	-15.28823	1.036828	-0.714186	-1.305623	-0.376465	-0.026123	-0.167969
750.0	19.169437	7.775635	-15.015603	2.13397	-1.887783	-1.670137	-0.380859	-0.024414	-0.139648
751.0	17.483285	6.489944	-13.547201	1.41281	-3.327747	-1.850075	-0.378418	-0.033447	-0.111572
752.0	1.787379	0.137178	3.315343	0.774214	-3.724503	-1.557789	-0.391357	-0.029785	-0.07251
753.0	2.198629	-5.116316	33.232426	-0.881394	-5.735647	-1.046296	-0.382813	-0.023682	-0.033447
754.0	18.544431	-18.938488	6.801375	0.260476	-5.182255	-0.542192	-0.38501	-0.02002	0.007568
755.0	25.317728	8.637272	11.217297	3.679852	-3.85323	0.719986	-0.378906	-0.011719	0.035889
756.0	19.063565	10.018039	17.669904	-0.094902	-3.102052	1.168056	-0.37915	-0.003418	0.055176
757.0	11.701476	5.99508	12.107859	0.235331	-2.339835	0.362511	-0.372559	-0.001465	0.070557
758.0	6.198506	3.854926	9.251269	-0.23054	-2.215246	0.169186	-0.368164	-0.001709	0.087891
759.0	9.332531	-11.994166	13.25869	-0.278123	-2.658266	-0.408689	-0.359619	0.000244	0.109375
760.0	18.576803	-6.135382	7.020551	1.600324	-1.451508	0.069236	-0.364258	0.006592	0.111572
761.0	8.085543	5.915101	10.214499	2.374529	-0.432238	0.103095	-0.353271	0.004395	0.11377
762.0	10.660964	6.110749	13.146142	0.370119	-0.76046	0.007851	-0.353271	0.008789	0.118164
763.0	7.696002	0.000862	7.474021	-0.039942	-0.130902	-0.043221	-0.355469	0.006592	0.111572
764.0	6.198766	1.106746	8.990516	0.189868	-0.252902	0.012515	-0.351074	0.008789	0.122559
765.0	6.434556	1.151967	8.511517	0.044086	-0.132733	-0.018064	-0.353271	0.008789	0.122559
766.0	6.340046	0.934524	8.45685	0.074918	-0.109308	0.021151	-0.353516	0.010742	0.122314
767.0	5.842158	0.835109	8.610378	0.028389	-0.088233	0.02169	-0.353271	0.010742	0.131104
768.0	5.950351	-0.319495	8.275618	0.023968	-0.081829	0.001209	-0.348877	0.006348	0.128906
769.0	5.838946	-0.094815	8.258555	0.048661	-0.033022	-0.01969	-0.357666	0.008545	0.131104
770.0	5.415264	-0.251909	8.240685	0.053272	-0.01537	-0.033701	-0.351074	0.008545	0.126709
771.0	5.359766	-0.258186	8.252029	0.058166	-0.020264	-0.048342	-0.346924	0.012939	0.131104
772.0	5.277863	-0.228331	8.222292	0.076021	-0.029969	-0.065026	-0.349121	0.012939	0.128906
773.0	5.098334	-0.297418	8.259808	0.089144	-0.029365	-0.099447	-0.348877	0.008545	0.126709
774.0	5.201137	-0.315572	8.149929	0.115667	-0.046848	-0.141989	-0.355713	0.012939	0.128906
775.0	5.096587	-0.48868	8.11819	0.14341	-0.02977	-0.178409	-0.348877	0.006592	0.124512
776.0	4.956743	-0.26758	8.101001	0.186651	-0.052049	-0.203658	-0.34668	0.008545	0.135498
777.0	5.585625	0.139365	8.20196	0.177397	-0.077609	-0.186261	-0.34668	0.008545	0.131104
778.0	5.56857	0.188166	8.262393	0.170664	-0.075495	-0.165231	-0.348877	0.008545	0.133301
779.0	5.717334	0.175254	8.293322	0.143285	-0.096179	-0.14551	-0.349121	0.010742	0.133301
780.0	5.581708	0.097821	8.2466	0.135704	-0.090057	-0.137138	-0.349121	0.010742	0.137695
781.0	5.704654	0.219262	8.261705	0.13276	-0.081483	-0.132752	-0.346924	0.010742	0.135498
782.0	5.610468	0.115861	8.240688	0.118552	-0.070811	-0.133314	-0.348877	0.006348	0.139893
783.0	5.730866	0.264181	8.236041	0.121439	-0.066706	-0.126645	-0.351074	0.008545	0.137695
784.0	5.685202	0.287774	8.156365	0.104733	-0.058138	-0.117092	-0.34668	0.008545	0.135498
785.0	5.798973	0.46607	8.165985	0.112265	-0.042325	-0.119957	-0.344482	0.008545	0.135498
786.0	5.759582	0.476693	8.159416	0.094377	-0.031631	-0.106925	-0.344482	0.006348	0.135498
787.0	5.760085	0.517609	8.137178	0.08111	-0.018491	-0.097903	-0.342041	0.001953	0.137695
788.0	5.73492	0.374719	8.131545	0.065162	-0.00895	-0.085325	-0.34668	0.006348	0.137695
789.0	5.542542	0.184824	8.131733	0.063941	0.009752	-0.085556	-0.34668	0.00415	0.137695
790.0	5.338719	-0.017983	8.115287	0.07246	0.005345	-0.094781	-0.342285	0.008545	0.139893
791.0	5.305553	-0.022505	8.183307	0.075519	-0.003363	-0.099248	-0.34668	0.006348	0.144043
792.0	5.203885	-0.129566	8.201906	0.077758	-0.016552	-0.114623	-0.34668	0.008545	0.141846
793.0	5.186778	-0.094989	8.23115	0.08243	-0.038764	-0.127145	-0.342285	0.006348	0.14209
794.0	5.10605	-0.090445	8.39493	0.089129	-0.074019	-0.146231	-0.342529	0.010498	0.144043
795.0	5.135576	-0.019915	8.403721	0.104773	-0.126922	-0.171712	-0.342285	0.00415	0.139893
796.0	5.528162	0.249508	8.442909	0.159048	-0.176753	-0.22656	-0.342285	0.00415	0.14209
797.0	5.314661	0.605882	8.602657	0.143266	-0.122213	-0.315507	-0.339844	-0.002441	0.14624
798.0	5.382911	0.545246	8.621248	0.033362	-0.33541	-0.182954	-0.339844	0.001953	0.144287
799.0	5.307747	0.647939	8.703769	0.013525	-0.385566	-0.171152	-0.342041	0.001953	0.14624
800.0	5.190688	0.77615	8.827142	-0.038828	-0.50873	-0.151244	-0.342041	0.0	0.139893
801.0	5.475046	0.570792	8.874652	-0.132953	-0.649831	-0.142898	-0.339844	-0.000244	0.150635
802.0	4.877162	0.555582	9.184902	-0.158852	-0.818174	-0.125397	-0.337891	0.003906	0.159424
803.0	5.088521	1.226742	9.145785	-0.217058	-1.093442	-0.087746	-0.339844	-0.000488	0.167969
804.0	5.073521	0.800161	8.895893	-0.220305	-1.297793	-0.05048	-0.337891	0.005859	0.167969
805.0	4.996722	1.31572	8.971531	-0.241394	-1.53429	0.015462	-0.335449	-0.000488	0.174561
806.0	5.087117	1.410711	8.946667	-0.227259	-1.788404	0.1165	-0.337402	-0.00293	0.183105
807.0	4.709088	0.943889	9.234638	-0.240562	-2.08757	0.187839	-0.331299	0.003662	0.1875
808.0	4.600811	0.438841	9.33326	-0.17849	-2.435758	0.203927	-0.331055	0.001221	0.202637
809.0	4.427142	0.354454	9.736179	-0.150419	-2.838498	0.204313	-0.329102	0.009766	0.211426
810.0	4.143476	0.704569	10.161884	-0.134011	-3.316068	0.204406	-0.326904	0.009521	0.230957
811.0	4.087706	0.31537	10.538845	-0.280143	-3.898658	0.253173	-0.318604	0.02002	0.243896
812.0	2.658381	-1.226728	10.735786	-0.535685	-4.593765	0.228085	-0.313965	0.015381	0.27417
813.0	1.769953	-2.459066	10.94952	-0.623516	-5.677361	0.03416	-0.294678	0.019531	0.293701
814.0	0.968582	-4.834416	9.766886	-0.548002	-6.984771	-0.283129	-0.270508	0.01709	0.322021
815.0	2.327896	-4.671112	9.478531	-0.156653	-8.55285	-0.77649	-0.246582	0.020996	0.356689
816.0	9.464188	-2.814611	10.548536	-0.079377	-9.649262	-1.332558	-0.209717	0.024902	0.395752
817.0	21.720871	-1.591726	11.598206	0.281995	-9.573239	-1.789545	-0.174805	0.026855	0.419678
818.0	24.798598	-0.254948	11.104596	0.653532	-8.057034	-2.028468	-0.148682	0.028809	0.443359
819.0	22.980032	-4.395151	12.456072	0.618214	-7.551728	-2.190192	-0.12915	0.030762	0.462891
820.0	21.156301	-9.265392	10.406345	0.923504	-6.545921	-2.463844	-0.107422	0.030518	0.484619
821.0	26.639754	-5.267144	14.249282	1.554832	-5.807898	-2.962867	-0.10083	0.032715	0.491211
822.0	23.357564	-6.802437	15.342193	2.279664	-4.286812	-3.424537	-0.098877	0.034424	0.515137
823.0	15.451031	-7.57131	19.759372	3.062089	-2.945625	-3.142011	-0.105469	0.038574	0.528076
824.0	2.44215	-8.880315	17.693609	2.409654	-0.954623	-1.616319	-0.116211	0.036377	0.530273
825.0	19.875066	-7.240363	29.551579	1.067007	-0.570117	0.330624	-0.131348	0.033691	0.553955
826.0	3.745794	-12.032801	17.664658	0.912162	2.490243	1.59727	-0.170654	0.037842	0.560547
827.0	-8.618202	-9.945358	11.501566	1.719087	2.292264	2.078647	-0.197021	0.046143	0.573242
828.0	-5.668306	-3.920242	11.519229	2.047238	1.921018	2.331304	-0.225586	0.054688	0.577637
829.0	-2.787373	1.000534	12.644411	1.816282	2.145966	2.284635	-0.263184	0.067383	0.583984
830.0	-0.830283	4.147157	13.452247	1.042056	2.714145	2.061285	-0.307129	0.077881	0.585938
831.0	-0.422367	4.018923	13.006639	0.158271	3.273206	1.697641	-0.368164	0.082031	0.572754
832.0	0.477525	2.871801	12.117544	-0.280599	3.841255	1.227301	-0.423096	0.090576	0.559814
833.0	0.963745	1.881019	10.793359	-0.410572	4.31607	0.728362	-0.488281	0.084473	0.5271
834.0	1.685175	1.519925	9.830167	-0.381414	4.667409	0.263331	-0.560791	0.099854	0.474854
835.0	2.460267	1.89627	9.1559	-0.353329	4.936649	-0.081772	-0.604492	0.102783	0.401123
836.0	3.174651	2.271397	8.6908	-0.443432	5.130807	-0.27057	-0.637695	0.108398	0.305664
837.0	3.758105	2.229263	8.362754	-0.580838	5.256688	-0.30514	-0.629639	0.122559	0.218994
838.0	4.763894	1.748245	8.215438	-0.697708	5.309969	-0.245091	-0.589111	0.138672	0.140869
839.0	5.625451	1.249721	8.246389	-0.726826	5.395701	-0.135379	-0.520264	0.156738	0.099609
840.0	6.258597	0.927793	8.685011	-0.699611	5.417546	-0.01745	-0.455078	0.161377	0.097656
841.0	7.149065	1.336909	9.340442	-0.680725	5.425213	0.095741	-0.411377	0.160889	0.141113
842.0	8.532639	2.377291	10.059053	-0.787256	5.41233	0.218172	-0.416504	0.12793	0.195313
843.0	10.543603	3.314431	10.718715	-1.011435	5.395745	0.326468	-0.460693	0.086182	0.236816
844.0	12.268915	3.5742	11.145063	-1.270263	5.385907	0.405938	-0.52832	0.034424	0.232422
845.0	12.663502	3.040801	11.577899	-1.433244	5.297599	0.399556	-0.591309	-0.025391	0.189453
846.0	13.51072	2.508255	12.449149	-1.473975	5.089012	0.292824	-0.633057	-0.076416	0.131104
847.0	16.175978	1.976315	13.73181	-1.497847	4.899093	0.1911	-0.668457	-0.122803	0.053223
848.0	20.270972	1.215854	14.822581	-1.552175	4.917456	0.182353	-0.679932	-0.165039	-0.015869
849.0	22.353907	0.396236	13.964054	-1.424935	5.314871	0.315956	-0.680908	-0.202637	-0.091553
850.0	20.35679	1.464862	11.861731	-1.221644	5.643516	0.546545	-0.677979	-0.225342	-0.158691
851.0	18.226445	2.48954	9.193976	-1.171981	5.56907	0.691208	-0.668701	-0.241455	-0.232422
852.0	17.569102	4.253977	7.594099	-1.221345	5.246567	0.735624	-0.648926	-0.251465	-0.292969
853.0	17.564084	4.715897	6.529629	-1.346481	4.834577	0.664809	-0.635986	-0.25293	-0.340576
854.0	16.261048	3.111268	5.609929	-1.279273	4.344265	0.493569	-0.609863	-0.252197	-0.385986
855.0	20.035264	2.038614	2.498584	-0.919288	3.70676	0.191414	-0.585938	-0.251709	-0.41626
856.0	19.121208	3.496287	2.583644	-0.870029	3.436114	-0.012164	-0.564453	-0.249023	-0.442383
857.0	20.045597	5.42399	1.501885	-1.004684	3.500687	-0.151964	-0.540771	-0.241943	-0.472656
858.0	20.856448	5.83131	-2.011706	-1.273197	2.952199	-0.269859	-0.52832	-0.230957	-0.48999
859.0	20.834165	7.140374	-6.737932	-1.3442	2.480349	-0.417113	-0.506836	-0.224121	-0.507324
860.0	21.954594	7.231617	-10.18403	-1.569363	1.813488	-0.542227	-0.493896	-0.217529	-0.513916
861.0	22.154838	5.169814	-12.982486	-1.33731	1.111121	-0.638303	-0.483154	-0.213135	-0.524658
862.0	18.305453	1.031057	-13.729301	-0.381442	0.299001	-0.739921	-0.483398	-0.20874	-0.526855
863.0	18.635436	-3.007235	-14.459127	1.582107	-1.484336	-1.189039	-0.486816	-0.230469	-0.509521
864.0	19.317231	3.557178	-14.740542	2.371607	-2.520821	-1.434764	-0.499023	-0.252441	-0.48999
865.0	12.822102	2.508657	-8.031865	2.18259	-3.635912	-1.323083	-0.509277	-0.269775	-0.474609
866.0	-2.701088	1.398473	21.222787	1.59831	-4.343959	-0.910099	-0.52417	-0.276855	-0.44873
867.0	3.292348	-8.826973	24.936351	-0.018908	-5.33188	-0.396383	-0.550049	-0.283691	-0.424805
868.0	23.128036	2.010527	2.766909	3.054648	-5.051197	0.203325	-0.569092	-0.292725	-0.387939
869.0	25.530164	19.628404	19.521561	1.487658	-3.772949	0.935606	-0.584473	-0.291016	-0.370605
870.0	17.35192	7.373113	15.139998	-0.252486	-2.804157	0.461758	-0.593262	-0.289063	-0.362061
871.0	7.845798	6.3302	11.005287	-0.111652	-2.091992	-0.233648	-0.604004	-0.287109	-0.342529
872.0	5.369082	-3.833619	7.911523	-0.601201	-2.270537	-0.097991	-0.601807	-0.291504	-0.33374
873.0	6.194835	-13.58177	9.657137	-0.297139	-2.577657	-0.075484	-0.614746	-0.289551	-0.316406
874.0	19.501622	-9.348002	9.153385	1.905281	-2.202311	-0.399815	-0.618652	-0.300537	-0.303467
875.0	10.342853	5.417917	9.919993	2.555994	-0.308437	-0.041059	-0.616211	-0.307129	-0.299072
876.0	11.353364	7.93958	14.873729	0.744951	-0.866645	-0.034112	-0.618652	-0.302979	-0.286133
877.0	7.552504	2.137082	7.787051	0.123303	0.009845	-0.183429	-0.618408	-0.307129	-0.29248
878.0	6.25449	0.592394	8.45087	0.177759	-0.255947	-0.087649	-0.618164	-0.313721	-0.290283
879.0	6.764685	2.314518	8.986014	0.1805	-0.098619	-0.123042	-0.615967	-0.313721	-0.283936
880.0	6.388151	0.558049	8.382892	0.11201	-0.077627	-0.111751	-0.61792	-0.318115	-0.288086
881.0	5.714632	0.614782	8.531608	0.122856	-0.050043	-0.104154	-0.618408	-0.30957	-0.281738
882.0	5.503455	0.623969	8.430242	0.105532	-0.070844	-0.08502	-0.620361	-0.315918	-0.290283
883.0	5.124824	0.238468	8.372822	0.082958	-0.085264	-0.06013	-0.620361	-0.311523	-0.290283
884.0	4.817283	-0.123635	8.321788	0.073547	-0.132677	-0.048538	-0.622559	-0.313721	-0.281738
885.0	5.139821	-0.032529	8.39924	0.059596	-0.165988	-0.036552	-0.620361	-0.313721	-0.283936
886.0	5.502483	0.15618	8.313883	0.052879	-0.180527	-0.020741	-0.61792	-0.318115	-0.281738
887.0	5.688112	0.201809	8.269367	0.033656	-0.169384	-0.011017	-0.618164	-0.316162	-0.272949
888.0	5.364285	-0.276758	8.241551	0.02887	-0.157714	-0.013527	-0.620361	-0.313721	-0.283936
889.0	5.508115	-0.131616	8.219676	0.058636	-0.158792	-0.032811	-0.61792	-0.320313	-0.275146
890.0	5.652439	0.147283	8.20419	0.072517	-0.146071	-0.035403	-0.624512	-0.315918	-0.279541
891.0	5.800848	0.207431	8.206968	0.061582	-0.153814	-0.02982	-0.628906	-0.316162	-0.275146
892.0	6.030887	0.172174	8.192178	0.067459	-0.134409	-0.029188	-0.620117	-0.316162	-0.275146
893.0	5.78191	0.321082	8.213328	0.07528	-0.100519	-0.028868	-0.620117	-0.318115	-0.277344
894.0	5.904666	0.118467	8.11655	0.058725	-0.089098	-0.030439	-0.624512	-0.316162	-0.275146
895.0	5.796678	-0.083322	8.030388	0.062415	-0.054284	-0.035746	-0.61792	-0.316162	-0.266602
896.0	5.507465	-0.291417	8.031655	0.075808	-0.029751	-0.047658	-0.620117	-0.320313	-0.270752
897.0	5.457919	-0.195166	8.034737	0.091956	-0.016282	-0.066928	-0.624512	-0.316162	-0.270996
898.0	5.488488	0.017405	8.107111	0.105283	-0.001036	-0.073399	-0.624512	-0.320313	-0.270752
899.0	5.543055	0.14995	8.154536	0.098499	-0.003816	-0.075536	-0.624512	-0.318359	-0.264404
900.0	5.538572	0.192925	8.168362	0.089827	-0.001006	-0.072961	-0.620117	-0.318359	-0.268799
901.0	5.513489	0.152967	8.187176	0.077898	-0.0086	-0.065192	-0.619873	-0.32251	-0.270752
902.0	5.489283	0.112147	8.205538	0.076226	-0.02066	-0.061979	-0.61792	-0.320557	-0.268555
903.0	5.506253	0.131274	8.187363	0.071636	-0.030478	-0.059904	-0.62207	-0.326904	-0.264404
904.0	5.411111	-0.037474	8.208492	0.061745	-0.040814	-0.067924	-0.61792	-0.320557	-0.268555
905.0	5.24023	-0.170357	8.252172	0.070376	-0.059877	-0.080909	-0.62207	-0.322754	-0.262207
906.0	5.26905	-0.002604	8.28812	0.072127	-0.095404	-0.094716	-0.619873	-0.322754	-0.264404
907.0	5.307417	-0.052759	8.343403	0.065141	-0.132557	-0.11015	-0.619873	-0.324707	-0.275146
908.0	5.259834	-0.052104	8.382237	0.062119	-0.172106	-0.126552	-0.626465	-0.324951	-0.262207
909.0	5.385942	-0.007418	8.380464	0.071943	-0.218883	-0.147941	-0.619873	-0.324951	-0.262207
910.0	5.588608	0.139077	8.391131	0.080747	-0.258249	-0.165405	-0.625977	-0.333496	-0.26001
911.0	5.641543	0.096039	8.436599	0.097789	-0.299705	-0.204789	-0.623779	-0.333496	-0.253418
912.0	5.141897	0.420505	8.636061	0.116171	-0.264266	-0.308998	-0.621826	-0.331299	-0.255615
913.0	5.371748	0.39604	8.691147	-0.039851	-0.500557	-0.204605	-0.623779	-0.333496	-0.255615
914.0	5.448209	0.444273	8.748262	-0.100509	-0.567823	-0.219619	-0.619385	-0.333496	-0.249023
915.0	5.536806	0.330838	8.640354	-0.131832	-0.718267	-0.203201	-0.621826	-0.329346	-0.244873
916.0	4.97458	1.394209	9.074227	-0.140839	-0.889613	-0.154493	-0.630371	-0.33374	-0.240479
917.0	5.450546	0.843778	8.615562	-0.226207	-1.09709	-0.084476	-0.628174	-0.333984	-0.229492
918.0	5.180193	1.141129	8.711855	-0.208486	-1.295788	-0.007282	-0.630371	-0.331787	-0.225342
919.0	5.119872	1.405632	8.799777	-0.224074	-1.497	0.073618	-0.632568	-0.332031	-0.216553
920.0	5.168462	1.104619	8.826605	-0.247587	-1.755091	0.162591	-0.636963	-0.330078	-0.205811
921.0	4.754885	0.737008	9.050094	-0.258454	-2.038485	0.191866	-0.641357	-0.325928	-0.186279
922.0	4.834161	0.480103	9.224552	-0.243648	-2.392914	0.214975	-0.643555	-0.326172	-0.168945
923.0	4.69218	0.61332	9.517562	-0.217806	-2.786938	0.247708	-0.650391	-0.320068	-0.147461
924.0	4.535291	0.479124	10.056381	-0.276264	-3.254568	0.26839	-0.656738	-0.320313	-0.12793
925.0	4.218124	-0.541418	10.419887	-0.414411	-3.795187	0.235462	-0.65918	-0.310059	-0.095459
926.0	3.258317	-1.113622	10.289168	-0.516649	-4.447997	0.180272	-0.666016	-0.306152	-0.067139
927.0	2.33501	-1.691055	10.504336	-0.557655	-5.388387	0.04593	-0.670166	-0.306641	-0.026123
928.0	1.045565	-3.879188	9.736081	-0.600353	-6.617786	-0.186237	-0.663574	-0.302979	0.017334
929.0	1.656882	-4.68338	9.587295	-0.428883	-8.279133	-0.585722	-0.663574	-0.303955	0.082275
930.0	7.346771	-3.32745	10.383334	-0.247528	-9.547556	-1.14095	-0.643311	-0.313232	0.143066
931.0	18.529272	-2.292281	11.646832	0.074418	-9.84786	-1.634008	-0.614746	-0.318359	0.210205
932.0	26.082915	-0.512102	11.663446	0.520013	-8.652144	-1.898738	-0.592773	-0.323242	0.266846
933.0	22.658261	-0.912543	11.643218	0.54992	-7.911787	-1.94433	-0.564453	-0.321777	0.314453
934.0	21.314559	-7.044737	11.652825	0.388511	-7.083454	-2.086382	-0.526855	-0.330811	0.355713
935.0	21.948951	-8.614781	11.617033	1.149369	-6.450192	-2.477868	-0.500732	-0.326904	0.390381
936.0	24.162204	-5.241828	13.703414	1.921535	-4.998698	-3.100524	-0.468018	-0.327148	0.418701
937.0	21.194604	-6.753356	17.716182	2.785662	-4.046858	-3.225567	-0.435547	-0.325195	0.444824
938.0	7.422268	-5.990859	23.314682	2.719579	-1.884335	-2.421351	-0.427246	-0.310303	0.461914
939.0	11.506964	-6.41332	21.618942	1.628149	-1.065776	-0.636437	-0.421143	-0.303955	0.464111
940.0	17.489306	-9.700609	26.459879	0.03194	1.720583	0.949391	-0.44165	-0.280273	0.455322
941.0	-3.984335	-10.08888	13.925929	1.221147	2.908551	1.489812	-0.453369	-0.258545	0.450928
942.0	-6.401937	-7.217743	11.293407	1.739448	2.496325	1.746812	-0.469482	-0.234863	0.442139
943.0	-4.553035	-1.427958	11.268775	2.025266	2.554316	1.811584	-0.481445	-0.204834	0.435303
944.0	-2.44111	2.320697	12.010118	1.441989	2.65127	1.724961	-0.499512	-0.191895	0.428711
945.0	-0.487651	3.663186	12.223402	0.633193	3.044273	1.521722	-0.506592	-0.174316	0.411377
946.0	1.31217	3.035311	12.26515	-0.02364	3.573953	1.204763	-0.526855	-0.161133	0.387451
947.0	1.98683	1.896541	11.49414	-0.343799	4.191717	0.813485	-0.547119	-0.148193	0.36792
948.0	2.233246	1.055268	10.213792	-0.409416	4.671606	0.410308	-0.557861	-0.147949	0.341797
949.0	2.754606	0.995133	9.28988	-0.392022	5.013064	0.064606	-0.575684	-0.13916	0.322266
950.0	2.875411	1.149253	8.405732	-0.416638	5.245144	-0.167495	-0.586914	-0.132324	0.296143
951.0	3.141792	1.64627	7.999495	-0.527142	5.304515	-0.259634	-0.606689	-0.129883	0.27002
952.0	4.088291	1.313775	7.642595	-0.68336	5.317632	-0.238792	-0.624268	-0.129639	0.244141
953.0	4.764227	1.025495	7.773296	-0.743213	5.315209	-0.171473	-0.637451	-0.126953	0.213623
954.0	5.959959	0.853287	8.301839	-0.751482	5.326385	-0.063497	-0.652832	-0.122559	0.1875
955.0	7.244243	1.029815	9.287321	-0.708606	5.366508	0.022504	-0.677246	-0.115723	0.152832
956.0	8.439464	1.923073	10.298386	-0.707966	5.456902	0.070721	-0.697021	-0.108887	0.122314
957.0	9.281779	3.428777	10.792335	-0.90042	5.558398	0.123217	-0.714355	-0.112793	0.085449
958.0	10.479493	4.445523	10.825176	-1.247133	5.575674	0.175571	-0.723633	-0.101563	0.048584
959.0	11.809763	4.452376	10.7447	-1.562484	5.501096	0.196121	-0.735107	-0.092285	0.000977
960.0	12.441258	3.614981	11.14506	-1.740733	5.327496	0.16627	-0.743896	-0.087646	-0.031738
961.0	13.588082	2.913012	12.381657	-1.769242	5.077325	0.094456	-0.746582	-0.080566	-0.072754
962.0	16.415766	2.308542	14.520033	-1.771403	4.904536	0.049526	-0.751221	-0.075684	-0.114014
963.0	20.460315	1.103722	15.918653	-1.789546	5.018382	0.073706	-0.764893	-0.062256	-0.153076
964.0	21.958094	-0.005531	14.805797	-1.532781	5.525818	0.212627	-0.762939	-0.059326	-0.205322
965.0	20.308383	0.922287	12.511656	-1.314036	5.821561	0.50501	-0.75708	-0.043457	-0.268066
966.0	18.796508	1.484417	9.741899	-1.24147	5.739777	0.758093	-0.749023	-0.027588	-0.320313
967.0	19.165924	2.817576	8.248175	-1.230168	5.402879	0.899455	-0.736816	-0.007568	-0.370117
968.0	20.27855	2.781526	6.766173	-1.237315	5.027048	0.918949	-0.713623	0.006104	-0.422119
969.0	19.959804	1.20748	4.336726	-0.97705	4.468004	0.762985	-0.69458	0.019775	-0.467773
970.0	22.779201	2.171863	0.576479	-0.718006	4.04457	0.620697	-0.662354	0.029053	-0.509033
971.0	21.186032	3.997064	-0.412699	-0.697182	3.591042	0.529772	-0.643311	0.038086	-0.534912
972.0	21.827131	6.006158	-3.437613	-0.710558	3.103567	0.359693	-0.617432	0.042725	-0.562988
973.0	24.165016	8.712572	-7.491785	-0.794809	2.469172	0.080718	-0.600098	0.047363	-0.580322
974.0	24.899556	10.248095	-12.189986	-1.104882	1.855233	-0.274881	-0.587402	0.054199	-0.593506
975.0	24.466128	8.52955	-15.919973	-1.26246	1.088919	-0.642009	-0.576416	0.054443	-0.606445
976.0	20.004663	3.564973	-16.731487	-0.430885	0.182134	-0.996869	-0.576172	0.047852	-0.604248
977.0	20.320077	-1.590614	-17.287352	1.575163	-1.757124	-1.594881	-0.583984	0.026123	-0.591064
978.0	20.477788	7.617227	-16.210745	2.669982	-2.813481	-1.930981	-0.602539	-0.00415	-0.575928
979.0	6.12941	5.76018	-4.531413	1.699483	-3.402973	-1.792039	-0.625732	-0.019775	-0.554199
980.0	-6.610979	0.276604	29.900659	0.211952	-5.210292	-1.386545	-0.653809	-0.026611	-0.528076
981.0	8.525798	-15.804098	15.689651	-0.398641	-6.08679	-0.959533	-0.679443	-0.035889	-0.478271
982.0	27.410366	4.310396	4.197195	3.609482	-5.149286	-0.022822	-0.704834	-0.051514	-0.452148
983.0	26.526191	15.575684	21.573934	0.556084	-3.938807	0.943211	-0.722656	-0.043213	-0.432861
984.0	17.224399	3.365999	13.996561	-0.112648	-2.765061	0.267245	-0.729004	-0.045654	-0.411133
985.0	8.207061	2.73044	10.56544	-0.010866	-2.206603	-0.166684	-0.744385	-0.041748	-0.398193
986.0	11.160118	-16.84757	12.905908	-0.09952	-2.677087	-0.770753	-0.750488	-0.052734	-0.37207
987.0	14.250388	-7.712193	4.54465	2.481935	-1.192208	0.103427	-0.748047	-0.057129	-0.369873
988.0	12.047312	13.239224	17.288184	3.120953	-0.957883	0.294545	-0.75415	-0.070068	-0.363281
989.0	12.339388	9.28602	8.759489	-0.286658	0.070346	-0.148516	-0.751709	-0.072266	-0.367676
990.0	4.056113	-3.981531	7.168884	-0.193803	-0.321884	-0.04017	-0.760498	-0.070068	-0.363281
991.0	7.676457	2.982491	9.699689	0.263997	-0.184011	-0.055326	-0.75415	-0.065918	-0.359131
992.0	6.621337	0.941283	8.365574	0.101996	-0.068911	-0.094768	-0.751953	-0.065918	-0.363281
993.0	6.116697	1.517184	8.655497	0.134469	-0.027844	-0.059198	-0.751953	-0.070068	-0.361084
994.0	5.508232	0.77174	8.534336	0.065939	-0.070456	-0.025145	-0.756104	-0.070313	-0.356934
995.0	5.102544	0.163021	8.400578	0.074841	-0.070745	-0.0247	-0.753906	-0.070068	-0.359131
996.0	4.938296	0.181735	8.387231	0.073293	-0.116304	-0.025024	-0.758301	-0.074463	-0.356934
997.0	5.412636	0.166302	8.362165	0.064468	-0.140896	-0.020326	-0.756104	-0.074463	-0.354736
998.0	5.429884	-0.118375	8.35536	0.056366	-0.144125	-0.022082	-0.760498	-0.07251	-0.352539
999.0	5.587497	-0.117534	8.333896	0.062956	-0.139817	-0.028769	-0.755859	-0.07666	-0.352539
1000.0	5.667915	-0.214066	8.325514	0.048988	-0.118161	-0.042355	-0.753906	-0.074463	-0.354736
1001.0	5.571233	0.165834	8.35124	0.054737	-0.097746	-0.045215	-0.756104	-0.072266	-0.356934
1002.0	5.847105	0.572758	8.340489	0.038138	-0.094477	-0.034951	-0.762451	-0.078857	-0.352539
1003.0	5.788221	0.446043	8.299728	0.017968	-0.070497	-0.019127	-0.760498	-0.074463	-0.356934
1004.0	5.621104	0.153634	8.238752	0.013184	-0.048201	-0.020431	-0.758057	-0.07666	-0.350342
1005.0	5.564201	-0.050384	8.119096	0.027529	-0.031403	-0.022062	-0.753906	-0.074707	-0.348145
1006.0	5.489274	-0.115297	8.111731	0.041315	-0.013534	-0.034125	-0.758057	-0.07666	-0.352539
1007.0	5.421739	-0.063592	8.151598	0.051538	0.003134	-0.037764	-0.756104	-0.074707	-0.34375
1008.0	5.338037	-0.066177	8.141151	0.068493	0.008114	-0.058628	-0.758057	-0.07666	-0.352539
1009.0	5.392491	0.061653	8.158836	0.082029	0.004585	-0.073037	-0.758301	-0.074707	-0.348145
1010.0	5.507749	0.158627	8.064945	0.084508	0.018024	-0.08719	-0.758057	-0.078857	-0.348145
1011.0	5.538684	0.105991	8.092615	0.08686	0.034845	-0.093365	-0.755859	-0.07666	-0.350342
1012.0	5.480417	0.203399	8.099521	0.092962	0.064966	-0.10025	-0.762451	-0.076904	-0.348145
1013.0	5.133674	0.010184	8.279289	0.077835	0.073474	-0.100291	-0.762207	-0.083252	-0.350342
1014.0	4.827651	-0.168295	8.35807	0.075035	0.045941	-0.08647	-0.758057	-0.078857	-0.352539
1015.0	4.933525	-0.049831	8.418982	0.074914	-0.010481	-0.074253	-0.757568	-0.087646	-0.348145
1016.0	4.982531	-0.08325	8.322399	0.068359	-0.043514	-0.071764	-0.76001	-0.085449	-0.350342
1017.0	4.924101	-0.186968	8.371	0.086709	-0.079559	-0.075597	-0.755615	-0.085449	-0.350342
1018.0	5.096527	-0.09723	8.348469	0.088149	-0.117658	-0.085219	-0.762207	-0.083252	-0.345947
1019.0	5.179412	0.162888	8.421205	0.104588	-0.143379	-0.094135	-0.76001	-0.085449	-0.350342
1020.0	5.397855	0.176507	8.49249	0.062915	-0.188732	-0.090464	-0.757568	-0.087646	-0.348145
1021.0	5.37224	0.430008	8.562558	0.048938	-0.216876	-0.084669	-0.763916	-0.093994	-0.348145
1022.0	5.577283	0.494446	8.499341	-0.00789	-0.273229	-0.066194	-0.757568	-0.092041	-0.339355
1023.0	5.428002	0.368636	8.644753	-0.021967	-0.309262	-0.0639	-0.76416	-0.089844	-0.337158
1024.0	5.365645	0.142144	8.57839	-0.039089	-0.395859	-0.072199	-0.763916	-0.094238	-0.335205
1025.0	5.341684	0.128869	8.601446	-0.047616	-0.45893	-0.081892	-0.770508	-0.090088	-0.330811
1026.0	5.122274	0.41713	8.924232	-0.08458	-0.548289	-0.100192	-0.770508	-0.090088	-0.330811
1027.0	5.385747	0.484568	8.980868	-0.211955	-0.668589	-0.12449	-0.766113	-0.092285	-0.319824
1028.0	5.386145	0.224641	8.621781	-0.227462	-0.796937	-0.095857	-0.765869	-0.098877	-0.313477
1029.0	5.049264	1.694298	9.168178	-0.191032	-0.991073	-0.050542	-0.772461	-0.094727	-0.304688
1030.0	5.355836	1.032021	8.670801	-0.294645	-1.181469	0.038566	-0.776855	-0.094727	-0.29834
1031.0	5.285053	1.499275	8.839272	-0.289007	-1.391508	0.08356	-0.779297	-0.088379	-0.289551
1032.0	4.751634	1.496483	8.916849	-0.346194	-1.591681	0.154491	-0.788086	-0.084229	-0.283203
1033.0	5.089158	0.957064	8.904871	-0.400936	-1.922272	0.264004	-0.794922	-0.078125	-0.261475
1034.0	4.784346	0.732542	9.009725	-0.406203	-2.220306	0.293715	-0.799072	-0.082764	-0.244141
1035.0	4.735905	0.547107	9.16388	-0.431717	-2.532751	0.321206	-0.797119	-0.074463	-0.218262
1036.0	4.589142	0.194961	9.543561	-0.503737	-2.936857	0.34046	-0.803711	-0.070557	-0.196533
1037.0	4.337989	-0.752963	9.911723	-0.617016	-3.423407	0.330711	-0.81665	-0.070801	-0.16626
1038.0	3.789498	-1.178288	10.053304	-0.694571	-3.974072	0.287437	-0.81665	-0.069092	-0.135986
1039.0	3.271979	-1.943683	10.183531	-0.736453	-4.715409	0.184199	-0.819092	-0.061035	-0.096924
1040.0	2.220125	-2.982809	10.159082	-0.748111	-5.65075	0.009443	-0.827637	-0.065918	-0.055664
1041.0	1.741953	-4.201807	9.894002	-0.610117	-6.901302	-0.257213	-0.827393	-0.069092	0.013672
1042.0	4.213986	-4.252982	10.024157	-0.491654	-8.252067	-0.682803	-0.822754	-0.067871	0.080811
1043.0	10.364577	-3.555507	10.762825	-0.233996	-9.207469	-1.185304	-0.811035	-0.085938	0.152344
1044.0	20.819929	-3.026054	12.680674	0.204367	-9.123512	-1.65151	-0.790771	-0.104004	0.219727
1045.0	22.096273	-1.393466	11.657061	0.491667	-8.095938	-1.891542	-0.759766	-0.109131	0.284912
1046.0	19.956694	-3.013501	12.619925	0.2867	-7.823049	-2.017226	-0.734863	-0.133301	0.337158
1047.0	20.531036	-9.131767	12.123436	0.37416	-7.202265	-2.374093	-0.708008	-0.151123	0.386963
1048.0	26.520368	-7.766076	13.941646	1.029332	-6.168712	-2.820792	-0.681152	-0.166748	0.42627
1049.0	26.853786	-6.733552	14.656443	1.699729	-4.62232	-3.242935	-0.649902	-0.182129	0.456543
1050.0	15.674724	-7.882007	18.178533	3.08785	-2.966642	-3.358159	-0.634521	-0.186523	0.474121
1051.0	-0.680293	-11.678741	19.66706	2.215074	-1.102974	-2.00968	-0.623535	-0.188721	0.480469
1052.0	20.327016	-5.596791	29.881112	1.945748	-0.751493	-0.590015	-0.62793	-0.188721	0.480469
1053.0	6.078276	-11.198767	19.657484	1.130993	2.674804	0.857574	-0.63916	-0.177734	0.45874
1054.0	-9.086624	-8.628306	13.160431	1.851478	2.678942	1.311134	-0.650879	-0.158203	0.443604
1055.0	-6.299731	-4.221104	12.05709	2.016297	2.34601	1.515167	-0.660156	-0.143066	0.439209
1056.0	-4.701281	-0.264131	12.241973	1.895122	2.519051	1.5353	-0.676025	-0.13208	0.419434
1057.0	-2.523128	2.291919	12.68963	1.27671	2.809454	1.391987	-0.696045	-0.119141	0.404297
1058.0	-1.145254	2.478436	12.460969	0.570764	3.281904	1.141551	-0.707275	-0.114502	0.371582
1059.0	0.283553	1.674663	11.892352	0.147404	3.801016	0.812047	-0.718262	-0.114014	0.339111
1060.0	1.286834	0.815732	10.897139	-0.058665	4.257327	0.454246	-0.740234	-0.111572	0.308838
1061.0	2.589676	0.493985	10.183717	-0.129248	4.640165	0.14359	-0.750977	-0.113281	0.267578
1062.0	3.628875	0.300065	9.703523	-0.192349	4.963679	-0.056541	-0.765625	-0.129883	0.228516
1063.0	4.380639	0.103605	9.104969	-0.258193	5.246443	-0.132368	-0.774658	-0.127197	0.185303
1064.0	4.986893	-0.097796	8.660898	-0.304062	5.437279	-0.109492	-0.784912	-0.141602	0.141846
1065.0	5.573392	-0.452232	8.185484	-0.349466	5.579171	-0.002836	-0.787598	-0.136719	0.098633
1066.0	6.008645	-0.684424	7.917679	-0.342852	5.627759	0.146488	-0.793945	-0.144775	0.042236
1067.0	6.570558	-0.565097	8.414786	-0.313878	5.578619	0.293767	-0.795898	-0.152588	-0.003174
1068.0	7.813629	0.021727	9.283176	-0.315257	5.511363	0.398744	-0.791504	-0.15625	-0.050781
1069.0	9.288998	1.165645	10.133	-0.435138	5.474985	0.460643	-0.782959	-0.151367	-0.094238
1070.0	11.333563	2.190389	10.939548	-0.68501	5.424378	0.480707	-0.776367	-0.157227	-0.141846
1071.0	13.110059	2.588753	11.524086	-0.958286	5.389311	0.430167	-0.763184	-0.158691	-0.1875
1072.0	14.020598	2.091568	12.18548	-1.182808	5.296031	0.304941	-0.743652	-0.160156	-0.235107
1073.0	15.355065	1.407754	13.310989	-1.307925	5.123615	0.117447	-0.737305	-0.161621	-0.269775
1074.0	18.346307	0.76086	14.723988	-1.425291	5.030318	-0.02051	-0.710938	-0.167725	-0.300049
1075.0	21.389332	-0.220549	14.890565	-1.503686	5.211992	-0.026293	-0.685059	-0.162598	-0.341064
1076.0	21.596558	-0.54895	13.556305	-1.432558	5.570913	0.131672	-0.663086	-0.168457	-0.380127
1077.0	20.020973	0.65072	11.372684	-1.404232	5.686128	0.415196	-0.643799	-0.161621	-0.406006
1078.0	18.621262	1.761678	9.323472	-1.484309	5.506934	0.598893	-0.622314	-0.158936	-0.440674
1079.0	18.380886	3.656108	8.022478	-1.587449	5.152825	0.611189	-0.603271	-0.145508	-0.475342
1080.0	18.172288	4.502544	6.678191	-1.726965	4.753238	0.514787	-0.57959	-0.138428	-0.503662
1081.0	17.724169	3.803026	5.113564	-1.76117	4.327516	0.375329	-0.55835	-0.131592	-0.533936
1082.0	17.896304	2.425632	3.163983	-1.574153	3.861589	0.2105	-0.539063	-0.120605	-0.55127
1083.0	19.018671	2.321561	1.168372	-1.287348	3.391075	0.066331	-0.521973	-0.11377	-0.564209
1084.0	20.694434	4.079956	-1.006689	-1.106128	2.97105	-0.039046	-0.504639	-0.111328	-0.58374
1085.0	22.57459	6.678597	-3.864754	-1.112602	2.640959	-0.105641	-0.487549	-0.106689	-0.594727
1086.0	23.617691	8.763826	-7.727171	-1.349436	2.310897	-0.186597	-0.472656	-0.0979	-0.614258
1087.0	22.767985	8.081641	-12.166757	-1.611869	1.783317	-0.305195	-0.468506	-0.091309	-0.618408
1088.0	21.3961	5.288473	-15.300973	-1.196035	0.935695	-0.518094	-0.46875	-0.089111	-0.620605
1089.0	19.7674	2.766214	-15.355363	-0.148269	-0.121397	-0.704482	-0.463867	-0.0979	-0.616211
1090.0	19.771906	2.180536	-11.886578	0.973916	-1.144072	-0.878202	-0.476563	-0.108643	-0.612061
1091.0	18.03173	2.968779	-7.082368	1.663506	-1.702768	-0.928533	-0.482422	-0.125977	-0.605469
1092.0	18.67297	-0.250287	-4.642066	2.689049	-3.029861	-1.353565	-0.494385	-0.154297	-0.581299
1093.0	-1.421246	5.410507	7.457504	2.316727	-1.468729	-1.153151	-0.513428	-0.165283	-0.572754
1094.0	-10.192608	-4.319837	30.463635	-0.151816	-4.355789	-0.232135	-0.530762	-0.169922	-0.551025
1095.0	-4.2247	-14.554645	4.155356	1.613927	-4.999743	-0.288598	-0.560303	-0.192139	-0.516357
1096.0	28.827999	19.792971	8.837105	5.292647	-6.04618	0.738062	-0.590088	-0.207764	-0.475098
1097.0	28.551233	20.444846	22.239856	-1.005672	-3.616666	0.872095	-0.609863	-0.199463	-0.464355
1098.0	15.624567	8.457387	13.145618	-0.311792	-2.610034	-0.022422	-0.614014	-0.201904	-0.438232
1099.0	5.435769	2.072132	9.520479	-0.882043	-2.229078	-0.239413	-0.629639	-0.193359	-0.434082
1100.0	5.697822	-10.991006	9.210494	-1.017618	-2.800054	0.050147	-0.644531	-0.200195	-0.416748
1101.0	18.178702	-20.727874	11.651877	0.341576	-3.015155	-0.58034	-0.644531	-0.200439	-0.39502
1102.0	11.461301	0.664332	5.372599	3.818178	-0.334389	0.164834	-0.645752	-0.224365	-0.384033
1103.0	11.63926	14.336614	18.329341	1.825458	-1.021709	0.061175	-0.650391	-0.218018	-0.375488
1104.0	10.014221	1.475954	6.924197	-0.423961	-0.044251	-0.16619	-0.650391	-0.218018	-0.379883
1105.0	5.27691	-1.01616	8.235337	0.202837	-0.382187	-0.020667	-0.652588	-0.218018	-0.371094
1106.0	7.212323	2.446875	9.094237	0.226703	-0.111725	-0.085511	-0.654541	-0.222412	-0.371094
1107.0	6.883421	1.655282	8.612706	0.116113	-0.124431	-0.029779	-0.650146	-0.224365	-0.373291
1108.0	6.047943	1.330043	8.797436	0.06396	-0.08175	0.018809	-0.661133	-0.222412	-0.373291
1109.0	6.024593	-0.016801	8.372117	0.003106	-0.105302	0.03419	-0.656738	-0.220215	-0.368896
1110.0	5.792026	0.238959	8.401195	0.021787	-0.062093	0.039527	-0.656738	-0.222412	-0.373291
1111.0	5.331617	-0.117894	8.35359	0.007771	-0.054335	0.041041	-0.658936	-0.220215	-0.368896
1112.0	5.350641	-0.183312	8.286966	0.010144	-0.065673	0.032228	-0.654785	-0.218018	-0.371094
1113.0	5.265188	-0.082903	8.367769	0.017506	-0.075121	0.024738	-0.652588	-0.218018	-0.373291
1114.0	5.396031	-0.325814	8.223895	0.015937	-0.081169	0.014482	-0.654541	-0.222412	-0.366699
1115.0	5.292833	-0.116727	8.276559	0.030118	-0.081048	0.000953	-0.654541	-0.222412	-0.373291
1116.0	5.351323	-0.114945	8.209789	0.038698	-0.08563	-0.018276	-0.658936	-0.220215	-0.364502
1117.0	5.402953	-0.182625	8.12956	0.059507	-0.081273	-0.03843	-0.656738	-0.222412	-0.371094
1118.0	5.469054	-0.058968	8.143238	0.070725	-0.073005	-0.057787	-0.658691	-0.224609	-0.366699
1119.0	5.614972	-0.086404	8.179529	0.083506	-0.065975	-0.068857	-0.65918	-0.218018	-0.368896
1120.0	5.661782	-0.043465	8.162559	0.089804	-0.047627	-0.073125	-0.661133	-0.222412	-0.368896
1121.0	5.559605	-0.063561	8.113047	0.085471	-0.025272	-0.074518	-0.654541	-0.220459	-0.360352
1122.0	5.311736	-0.34879	8.133833	0.089566	-0.01542	-0.083167	-0.656738	-0.224609	-0.364502
1123.0	5.137868	-0.552704	8.089737	0.108772	-0.02408	-0.105328	-0.66333	-0.222656	-0.360352
1124.0	5.1593	-0.435984	8.206064	0.11307	-0.034142	-0.127165	-0.661133	-0.222412	-0.364502
1125.0	5.315585	-0.272862	8.144546	0.122759	-0.048757	-0.137896	-0.654297	-0.229004	-0.360107
1126.0	5.54726	-0.021501	8.208401	0.12089	-0.043724	-0.143525	-0.660645	-0.235352	-0.364502
1127.0	5.508897	-0.035604	8.220274	0.119564	-0.040214	-0.149031	-0.660645	-0.233398	-0.355957
1128.0	5.587614	0.182944	8.264945	0.114451	-0.039798	-0.13876	-0.658691	-0.229004	-0.360352
1129.0	5.533681	0.157254	8.292771	0.099796	-0.045711	-0.127226	-0.656006	-0.237549	-0.362305
1130.0	5.411277	0.028589	8.26663	0.08476	-0.052059	-0.117171	-0.65625	-0.235352	-0.358154
1131.0	5.41243	0.147348	8.324077	0.077904	-0.067003	-0.111603	-0.658447	-0.233398	-0.360107
1132.0	5.318102	-0.06513	8.272018	0.059643	-0.090068	-0.101984	-0.658203	-0.237549	-0.360107
1133.0	5.275128	-0.024899	8.309719	0.057649	-0.1089	-0.105922	-0.653809	-0.241943	-0.355713
1134.0	5.306341	-0.092674	8.312427	0.041684	-0.141951	-0.113962	-0.660156	-0.244141	-0.351563
1135.0	5.244886	0.045854	8.457786	0.044764	-0.181784	-0.118666	-0.656006	-0.237793	-0.35376
1136.0	5.336669	0.069455	8.525523	0.028061	-0.228001	-0.121899	-0.658203	-0.241943	-0.355957
1137.0	5.484061	0.221698	8.533136	0.011277	-0.291818	-0.117876	-0.658203	-0.241943	-0.351563
1138.0	5.435646	0.28157	8.623826	-0.016269	-0.345909	-0.115593	-0.660156	-0.244141	-0.347168
1139.0	5.401332	0.230052	8.616814	-0.040468	-0.422888	-0.111389	-0.662354	-0.246582	-0.340576
1140.0	5.40389	0.424225	8.745912	-0.060582	-0.505375	-0.130182	-0.662354	-0.242188	-0.336426
1141.0	5.513476	0.274961	8.683159	-0.141471	-0.597486	-0.144022	-0.666748	-0.242188	-0.338623
1142.0	5.551105	0.836528	8.791981	-0.129398	-0.702215	-0.177471	-0.668701	-0.248779	-0.334229
1143.0	4.746967	2.039186	9.246665	-0.205276	-0.911495	0.001848	-0.675293	-0.244629	-0.327637
1144.0	5.370421	1.186635	8.702538	-0.349972	-1.153998	0.153971	-0.675293	-0.246826	-0.321045
1145.0	5.233585	1.817691	8.97012	-0.38783	-1.38824	0.269338	-0.677979	-0.229736	-0.30835
1146.0	4.895595	1.051037	8.848614	-0.440851	-1.622239	0.346565	-0.686279	-0.24292	-0.295166
1147.0	4.901016	0.72625	9.036078	-0.458979	-1.896632	0.36627	-0.691162	-0.230225	-0.282227
1148.0	4.966498	0.436785	8.982971	-0.479828	-2.18892	0.360574	-0.701904	-0.228027	-0.278076
1149.0	4.952975	0.027237	8.938261	-0.502405	-2.465343	0.369732	-0.70874	-0.224121	-0.25415
1150.0	4.819954	-0.213465	9.204085	-0.569521	-2.822172	0.365035	-0.717285	-0.224609	-0.228027
1151.0	4.659308	-0.881277	9.43284	-0.658744	-3.231163	0.344103	-0.719727	-0.218262	-0.210938
1152.0	4.176673	-1.642844	9.463828	-0.709663	-3.731396	0.278886	-0.730713	-0.212402	-0.180664
1153.0	3.800645	-1.965031	9.681097	-0.713718	-4.371853	0.178234	-0.737061	-0.215088	-0.147949
1154.0	2.940445	-2.874572	9.543472	-0.692409	-5.163698	0.045896	-0.741455	-0.211182	-0.109131
1155.0	2.321772	-4.071069	9.500763	-0.607988	-6.288261	-0.173554	-0.752197	-0.214111	-0.061279
1156.0	3.998679	-4.501939	10.026059	-0.544803	-7.525488	-0.530478	-0.751953	-0.217041	0.001465
1157.0	8.498337	-3.905139	10.397222	-0.303085	-8.526798	-0.990563	-0.740723	-0.224365	0.070801
1158.0	17.343496	-3.196303	12.222901	0.058653	-8.760365	-1.46853	-0.733398	-0.238037	0.129395
1159.0	22.493978	-1.743632	12.387766	0.406523	-8.014185	-1.742501	-0.717529	-0.249512	0.186035
1160.0	18.316916	-0.964143	12.27446	0.182988	-7.653712	-1.80541	-0.69751	-0.260986	0.242432
1161.0	21.753924	-6.928089	13.124434	-0.108401	-7.316762	-2.029647	-0.66626	-0.276611	0.29248
1162.0	23.41953	-9.722791	12.992805	0.56967	-6.277495	-2.578407	-0.64624	-0.287842	0.33374
1163.0	28.520336	-5.97267	13.805135	1.231385	-4.873782	-2.949135	-0.619385	-0.303467	0.372803
1164.0	19.753999	-7.08481	14.921346	2.526212	-3.438953	-3.226675	-0.599365	-0.310059	0.394531
1165.0	-1.464331	-9.905042	20.88839	2.294771	-1.836761	-2.74634	-0.586182	-0.31665	0.405518
1166.0	12.369755	-7.984269	18.559251	2.371105	-1.915789	-1.324637	-0.579834	-0.310547	0.427002
1167.0	18.890921	-8.955898	27.651358	0.441345	1.008903	0.298956	-0.593018	-0.308105	0.41626
1168.0	-4.406656	-8.124794	15.928692	1.691866	2.520703	0.915276	-0.602295	-0.291016	0.407471
1169.0	-7.180186	-6.742659	12.748043	1.64846	2.159841	1.251157	-0.622314	-0.280029	0.400879
1170.0	-5.657432	-1.628614	12.865119	1.753651	2.323659	1.389051	-0.640381	-0.262695	0.387695
1171.0	-4.210676	0.928227	12.706226	1.385086	2.480085	1.336066	-0.654053	-0.247559	0.372559
1172.0	-3.175945	2.53222	12.631992	0.798131	2.855295	1.160327	-0.669678	-0.23877	0.357178
1173.0	-1.673173	2.628783	12.441124	0.227696	3.252721	0.895282	-0.687744	-0.227783	0.331055
1174.0	-0.033585	1.836351	12.011645	-0.12157	3.711281	0.57119	-0.698486	-0.231689	0.305176
1175.0	2.023399	1.198561	11.655222	-0.279384	4.158208	0.235	-0.718018	-0.233398	0.268311
1176.0	3.745182	1.029257	11.208119	-0.366126	4.686402	-0.040077	-0.730957	-0.237549	0.237793
1177.0	4.021867	0.688375	10.093667	-0.430472	5.169252	-0.213564	-0.744141	-0.239014	0.192383
1178.0	3.853243	0.457287	9.040364	-0.454233	5.475183	-0.292262	-0.75708	-0.244873	0.140381
1179.0	4.37148	0.227569	8.261368	-0.471242	5.610147	-0.273097	-0.768066	-0.246338	0.094727
1180.0	4.79581	0.04985	7.716643	-0.450418	5.652481	-0.200659	-0.770264	-0.247803	0.042725
1181.0	5.294698	0.136822	7.807677	-0.425157	5.585032	-0.09912	-0.774658	-0.249268	-0.002686
1182.0	6.720319	0.375283	8.614461	-0.426877	5.489883	0.008787	-0.770264	-0.25293	-0.048096
1183.0	8.064598	1.272533	9.515084	-0.525779	5.445736	0.11734	-0.768311	-0.250244	-0.089355
1184.0	10.043042	2.194859	10.638885	-0.751012	5.39147	0.221512	-0.761719	-0.251709	-0.141357
1185.0	12.282385	2.502795	11.308575	-1.009625	5.410368	0.299978	-0.757568	-0.249023	-0.182617
1186.0	13.128545	1.982201	11.863041	-1.197396	5.410439	0.323019	-0.749023	-0.246338	-0.217285
1187.0	13.70751	1.464167	12.666583	-1.25374	5.301534	0.243592	-0.732178	-0.236816	-0.275879
1188.0	15.746159	1.394904	13.935451	-1.300414	5.163384	0.155502	-0.717041	-0.236328	-0.306152
1189.0	19.308089	1.093257	15.106115	-1.40306	5.16515	0.123584	-0.701904	-0.235596	-0.35376
1190.0	21.710923	0.531771	14.882451	-1.441103	5.456252	0.230746	-0.682617	-0.228516	-0.397217
1191.0	20.894651	0.44898	12.947961	-1.345528	5.763283	0.448389	-0.654785	-0.217041	-0.44043
1192.0	18.851277	1.618775	10.704803	-1.327882	5.744082	0.638733	-0.633301	-0.214355	-0.488037
1193.0	18.387335	3.303113	9.166685	-1.337512	5.46318	0.690881	-0.607666	-0.202881	-0.516357
1194.0	18.691228	4.391831	7.893271	-1.43316	5.089138	0.610116	-0.581787	-0.197998	-0.55542
1195.0	18.215217	4.418335	6.236462	-1.493536	4.661341	0.434717	-0.55835	-0.187012	-0.576904
1196.0	17.819283	3.560701	4.251454	-1.455594	4.136288	0.216843	-0.543457	-0.180176	-0.60083
1197.0	18.586637	3.251257	2.472687	-1.342119	3.549316	0.007687	-0.52417	-0.171143	-0.620361
1198.0	20.711066	4.629071	1.013275	-1.34243	3.037425	-0.166754	-0.500488	-0.166504	-0.64209
1199.0	22.936181	6.76848	-1.061643	-1.501494	2.701877	-0.265259	-0.492188	-0.159668	-0.655029
1200.0	24.756607	8.359671	-4.984586	-1.831341	2.520466	-0.337956	-0.470947	-0.148682	-0.676758
1201.0	24.030314	7.418964	-10.396022	-2.113458	2.242819	-0.405621	-0.460449	-0.135498	-0.685547
1202.0	23.338097	4.760961	-14.846192	-1.928161	1.540124	-0.470016	-0.44751	-0.131104	-0.694092
1203.0	21.530299	0.87183	-16.597022	-1.073005	0.549058	-0.544673	-0.449951	-0.126709	-0.698486
1204.0	19.935398	-1.15254	-14.804506	0.259201	-0.671851	-0.660869	-0.456055	-0.139893	-0.689697
1205.0	18.701304	-1.02676	-10.132783	1.297229	-1.567444	-0.700266	-0.466309	-0.155029	-0.674561
1206.0	19.554754	-4.013887	-7.294514	2.952242	-2.920272	-0.960989	-0.493652	-0.174805	-0.657227
1207.0	5.040409	5.845825	2.305859	3.128658	-1.727502	-0.858736	-0.501465	-0.196533	-0.641846
1208.0	-4.420856	0.314505	29.891585	0.696949	-3.886072	0.080519	-0.527588	-0.198975	-0.624512
1209.0	-12.590083	-14.70786	12.220228	1.310758	-3.733065	-0.030754	-0.55957	-0.2146	-0.596436
1210.0	16.116869	12.739226	0.097578	5.984527	-5.944746	0.432485	-0.595215	-0.245605	-0.550781
1211.0	30.572461	29.883676	22.382075	0.545252	-4.346806	0.954566	-0.61499	-0.237305	-0.522705
1212.0	19.750508	10.027042	15.417432	-0.833821	-3.32556	0.065431	-0.632568	-0.235352	-0.51416
1213.0	7.687622	7.978795	11.125047	-0.493173	-2.102318	-0.523763	-0.636963	-0.233643	-0.494629
1214.0	5.642431	-7.758485	8.271674	-1.416056	-2.690453	-0.264769	-0.656494	-0.231689	-0.475098
1215.0	8.303551	-16.132065	8.928556	-0.439724	-2.77538	0.067606	-0.669678	-0.227539	-0.464355
1216.0	19.758906	-12.758073	10.404343	1.849221	-2.384953	-0.4432	-0.67334	-0.245117	-0.442627
1217.0	11.779819	7.199754	10.449172	3.116352	-0.319365	0.048617	-0.679443	-0.260254	-0.436035
1218.0	11.83599	10.708209	14.218063	0.422407	-0.705859	0.044928	-0.681641	-0.258301	-0.433838
1219.0	5.848117	-0.761464	8.351978	-0.127167	-0.126474	-0.158305	-0.683838	-0.253906	-0.433838
1220.0	6.414343	-0.018845	8.30214	0.275554	-0.323418	-0.108019	-0.679443	-0.258301	-0.427246
1221.0	6.898216	2.212862	8.745373	0.232046	-0.072491	-0.166898	-0.683838	-0.256104	-0.429443
1222.0	6.407409	0.267062	8.439739	0.162269	-0.110206	-0.146369	-0.679199	-0.262695	-0.427246
1223.0	5.973385	0.892014	8.605596	0.202755	-0.02502	-0.146598	-0.683594	-0.264893	-0.425049
1224.0	5.641876	0.679313	8.491837	0.141851	-0.051543	-0.119133	-0.681152	-0.269043	-0.429443
1225.0	5.415037	0.378452	8.505368	0.114548	-0.069961	-0.106229	-0.683594	-0.262695	-0.422852
1226.0	5.317462	0.184522	8.374795	0.111739	-0.087793	-0.096477	-0.681396	-0.264648	-0.425049
1227.0	5.527875	0.100399	8.321626	0.091267	-0.09229	-0.085269	-0.68335	-0.27124	-0.425049
1228.0	5.394663	0.090257	8.312895	0.086858	-0.087125	-0.078031	-0.685303	-0.273438	-0.422852
1229.0	5.39671	-0.089951	8.180485	0.083963	-0.077669	-0.077352	-0.68335	-0.266846	-0.425049
1230.0	5.323941	-0.0552	8.302468	0.08052	-0.07103	-0.081054	-0.685547	-0.27124	-0.425049
1231.0	5.350906	-0.064937	8.268445	0.079813	-0.071937	-0.084094	-0.68335	-0.27124	-0.422852
1232.0	5.232019	0.093211	8.234616	0.075358	-0.068151	-0.083413	-0.68335	-0.269043	-0.420654
1233.0	5.232383	0.340066	8.300588	0.075897	-0.080878	-0.079212	-0.68335	-0.27124	-0.418701
1234.0	5.400978	0.305894	8.201815	0.065076	-0.089177	-0.068638	-0.685303	-0.275635	-0.425049
1235.0	5.178854	0.228915	8.254904	0.067454	-0.084161	-0.056764	-0.681152	-0.27124	-0.416504
1236.0	5.202536	0.144644	8.20647	0.066855	-0.106469	-0.055285	-0.685303	-0.27124	-0.418701
1237.0	5.273719	0.313695	8.250759	0.070309	-0.12142	-0.049866	-0.685303	-0.275635	-0.416504
1238.0	5.133985	0.172681	8.301677	0.07028	-0.140908	-0.044014	-0.687256	-0.282227	-0.41626
1239.0	5.523603	-0.247839	8.277209	0.07135	-0.177917	-0.057221	-0.69165	-0.277832	-0.407715
1240.0	5.676711	-0.249024	8.098125	0.11067	-0.134968	-0.071402	-0.685059	-0.280029	-0.409912
1241.0	5.640104	0.08832	8.286455	0.099468	-0.133973	-0.07298	-0.687256	-0.277832	-0.407715
1242.0	5.775448	0.095698	8.210131	0.089296	-0.128704	-0.072369	-0.685059	-0.282227	-0.407715
1243.0	5.760006	0.129799	8.267175	0.06776	-0.123347	-0.069542	-0.685303	-0.273682	-0.412109
1244.0	5.742915	0.247767	8.265377	0.064805	-0.113875	-0.068869	-0.691406	-0.284424	-0.405518
1245.0	5.763211	0.194274	8.229815	0.04744	-0.123976	-0.064121	-0.6875	-0.273682	-0.405518
1246.0	5.751548	0.204616	8.167014	0.04392	-0.117362	-0.067816	-0.689209	-0.284424	-0.40332
1247.0	5.663491	0.033851	8.178491	0.051577	-0.104969	-0.07841	-0.687256	-0.282227	-0.405518
1248.0	5.616106	-0.101825	8.176532	0.075293	-0.098928	-0.103664	-0.691406	-0.284424	-0.40332
1249.0	5.567002	-0.110287	8.289087	0.090082	-0.049905	-0.235629	-0.691162	-0.291016	-0.40332
1250.0	5.080855	0.087886	8.409451	0.039021	-0.16537	-0.144026	-0.68457	-0.288818	-0.394775
1251.0	5.30881	0.045242	8.346705	0.028345	-0.18449	-0.158711	-0.688965	-0.291016	-0.398926
1252.0	5.290901	0.187761	8.49453	0.011353	-0.244453	-0.167458	-0.686768	-0.293213	-0.394531
1253.0	5.220482	0.220395	8.518128	-0.014089	-0.303758	-0.17513	-0.688965	-0.291016	-0.394775
1254.0	5.371352	0.141571	8.522848	-0.061462	-0.381745	-0.18486	-0.692871	-0.301758	-0.390381
1255.0	5.463986	0.085297	8.442201	-0.109605	-0.463318	-0.200598	-0.688965	-0.291016	-0.390381
1256.0	5.613841	0.380442	8.404427	-0.110605	-0.556896	-0.194354	-0.695557	-0.29126	-0.385986
1257.0	5.16208	1.444961	8.876663	-0.099098	-0.670605	-0.131064	-0.69751	-0.293213	-0.385986
1258.0	5.50647	1.061727	8.670577	-0.193731	-0.845649	-0.028227	-0.706299	-0.293457	-0.373047
1259.0	5.105943	1.280534	8.887497	-0.192234	-1.02031	0.068027	-0.706299	-0.291504	-0.364258
1260.0	5.095245	1.398434	9.141896	-0.222897	-1.252329	0.169828	-0.708252	-0.295898	-0.360107
1261.0	4.888223	0.992189	9.057368	-0.264289	-1.540512	0.241778	-0.719727	-0.283203	-0.344971
1262.0	4.740306	0.903568	9.188814	-0.291914	-1.823234	0.287101	-0.724121	-0.279053	-0.336182
1263.0	4.785798	0.706962	9.13492	-0.317487	-2.156573	0.313666	-0.735107	-0.2771	-0.321045
1264.0	4.782153	0.445123	9.172362	-0.328191	-2.493846	0.333931	-0.743408	-0.281982	-0.290771
1265.0	4.636312	0.333124	9.58842	-0.347978	-2.874151	0.344585	-0.748047	-0.275635	-0.277832
1266.0	4.489002	0.119662	9.834011	-0.406083	-3.345765	0.350915	-0.765625	-0.273926	-0.256104
1267.0	4.17024	-0.057783	10.144512	-0.542905	-3.871018	0.373226	-0.774658	-0.263672	-0.219482
1268.0	3.13712	-0.476413	10.140993	-0.709514	-4.55555	0.40135	-0.7854	-0.261963	-0.182617
1269.0	2.416046	-1.00069	10.427462	-0.909552	-5.535691	0.387259	-0.790039	-0.25415	-0.13916
1270.0	1.382973	-3.45922	9.569031	-1.065187	-6.808925	0.265243	-0.802734	-0.259277	-0.080811
1271.0	3.041941	-4.059196	9.395196	-0.828999	-8.323129	-0.090765	-0.806885	-0.258057	-0.00708
1272.0	10.786392	-3.258993	11.044319	-0.766048	-9.335007	-0.605217	-0.806396	-0.265381	0.064453
1273.0	20.242788	-3.36035	11.985737	-0.190088	-8.997144	-1.104432	-0.788574	-0.274902	0.134033
1274.0	22.630371	-2.402403	10.94652	0.259177	-7.981221	-1.378447	-0.770752	-0.284424	0.203369
1275.0	20.678609	-3.304701	11.597773	0.296703	-7.458751	-1.639844	-0.750488	-0.298096	0.259766
1276.0	20.909292	-8.548195	10.915188	0.680225	-6.788287	-2.117425	-0.725586	-0.315918	0.309814
1277.0	22.942581	-8.498083	11.922003	1.443478	-5.836725	-2.631734	-0.697021	-0.322754	0.355469
1278.0	23.797439	-6.396812	12.470636	2.543845	-4.617257	-3.041556	-0.672363	-0.340332	0.387939
1279.0	17.390873	-6.227908	16.761808	3.516129	-3.381445	-2.946127	-0.650635	-0.33667	0.433594
1280.0	2.067476	-2.439681	20.941272	3.132269	-1.437538	-2.248651	-0.639648	-0.338867	0.450928
1281.0	13.496693	0.379081	22.682615	1.648493	-1.321688	-1.173293	-0.633057	-0.336914	0.455322
1282.0	12.79816	-6.630806	23.709445	-0.310681	1.555658	-0.031489	-0.644287	-0.330322	0.44873
1283.0	-5.036622	-8.166821	13.431688	0.508665	2.397471	0.316928	-0.652832	-0.33252	0.442139
1284.0	-6.35114	-7.101224	11.287394	0.985148	2.076494	0.536908	-0.672852	-0.325928	0.433594
1285.0	-4.761601	-2.942805	11.146483	1.242885	2.137786	0.662962	-0.682129	-0.306641	0.431152
1286.0	-2.880949	-0.200313	11.554182	1.043516	2.320762	0.722128	-0.693359	-0.300049	0.42041
1287.0	-1.538478	1.312068	11.698598	0.54885	2.727617	0.722439	-0.715332	-0.293457	0.409424
1288.0	-0.113806	1.085579	11.60653	0.06561	3.180314	0.653356	-0.731201	-0.27832	0.389893
1289.0	1.089446	0.324924	11.138087	-0.152245	3.669284	0.500436	-0.753174	-0.275879	0.361572
1290.0	2.432998	-0.052026	10.650208	-0.188151	4.130908	0.322874	-0.770752	-0.27124	0.339844
1291.0	3.463762	0.016752	10.102982	-0.151825	4.587562	0.163816	-0.790527	-0.268799	0.315918
1292.0	4.223203	0.515547	9.671251	-0.139958	4.959045	0.06343	-0.810303	-0.266357	0.287842
1293.0	4.739604	1.061747	9.132786	-0.20193	5.278911	0.027803	-0.834717	-0.255127	0.244385
1294.0	4.877124	1.193765	8.400725	-0.319474	5.499223	0.048075	-0.858887	-0.254883	0.21167
1295.0	4.697874	1.081997	7.721242	-0.408762	5.599792	0.095076	-0.881348	-0.239502	0.181396
1296.0	5.145323	0.946865	7.646604	-0.449054	5.553385	0.133736	-0.894775	-0.230225	0.140137
1297.0	6.578633	1.078602	8.560053	-0.41992	5.462281	0.114605	-0.921387	-0.219238	0.115967
1298.0	8.055493	1.559549	9.409912	-0.441386	5.45344	0.051305	-0.943604	-0.210449	0.087891
1299.0	9.331006	2.779972	9.959391	-0.592858	5.458	-0.010411	-0.983154	-0.201416	0.055176
1300.0	10.63048	3.700735	9.999164	-0.925849	5.398348	-0.019352	-1.03125	-0.198975	0.009521
1301.0	12.067856	3.482724	10.130889	-1.274801	5.230182	-0.00496	-1.085938	-0.194092	-0.03833
1302.0	12.971532	2.26068	10.849	-1.512575	4.975423	-0.03403	-1.14502	-0.193359	-0.114258
1303.0	15.184724	1.366101	12.508874	-1.651646	4.679219	-0.090941	-1.193359	-0.186035	-0.190186
1304.0	19.992733	0.479147	14.437219	-1.781095	4.559886	-0.07235	-1.232666	-0.184814	-0.290039
1305.0	23.811789	-0.699439	14.10962	-1.729243	4.964093	0.106292	-1.270264	-0.174805	-0.40918
1306.0	22.130138	-0.059503	11.890487	-1.418043	5.491009	0.390413	-1.288574	-0.160156	-0.530762
1307.0	19.082094	1.624107	8.998344	-1.321463	5.580555	0.683708	-1.296387	-0.136963	-0.66748
1308.0	17.608855	3.498441	7.28043	-1.242374	5.319008	0.82337	-1.27832	-0.104736	-0.812744
1309.0	17.599849	4.401865	6.71629	-1.233284	4.947226	0.802484	-1.245605	-0.059814	-0.947266
1310.0	17.881616	4.147504	6.448826	-1.123647	4.60075	0.67548	-1.175049	-0.030029	-1.064453
1311.0	17.77244	3.205995	5.434318	-0.899927	4.290915	0.530438	-1.076904	0.012695	-1.170654
1312.0	17.332137	2.534269	3.376677	-0.65113	3.925371	0.376612	-0.984375	0.042236	-1.244385
1313.0	17.44476	3.254538	1.265938	-0.528041	3.442462	0.221863	-0.887695	0.068848	-1.291992
1314.0	18.941432	5.398939	-0.656505	-0.66836	2.919827	0.047778	-0.803955	0.099854	-1.317871
