Acquisition frequency: 100 Hz
PacketCounter	Acc_X	Acc_Y	Acc_Z	Gyr_X	Gyr_Y	Gyr_Z	Mag_X	Mag_Y	Mag_Z
0.0	9.594017	-0.033006	2.865718	-0.004317	0.020468	-0.009029	-0.472412	0.076416	-0.602295
1.0	9.598156	-0.030821	2.833396	-0.006629	0.018211	-0.00934	-0.477295	0.085449	-0.604736
2.0	9.5967	-0.064675	2.833549	-0.005609	0.01848	-0.007236	-0.474854	0.081055	-0.602295
3.0	9.618498	-0.048326	2.856427	-0.003097	0.016902	-0.008944	-0.472412	0.078857	-0.602295
4.0	9.615183	-0.065672	2.874384	-0.003334	0.017959	-0.005985	-0.477051	0.078613	-0.599854
5.0	9.592308	-0.0808	2.855183	-0.003269	0.023508	-0.007847	-0.479492	0.083008	-0.602539
6.0	9.609237	-0.066111	2.912667	-0.004695	0.020662	-0.004114	-0.474854	0.081055	-0.606934
7.0	9.583535	-0.099415	2.909735	0.002404	0.020821	-0.004257	-0.475098	0.085449	-0.604736
8.0	9.580981	-0.082629	2.929765	0.002063	0.023794	-0.000285	-0.474854	0.081055	-0.602295
9.0	9.552358	-0.134214	2.943368	0.004338	0.023274	0.000966	-0.474854	0.080811	-0.600098
10.0	9.549841	-0.117566	2.963218	0.010353	0.017614	0.000583	-0.470459	0.083252	-0.602539
11.0	9.552136	-0.09931	2.94871	0.019626	0.01917	0.002706	-0.472656	0.081055	-0.600098
12.0	9.548737	-0.116698	2.966807	0.026963	0.01827	-0.000387	-0.472656	0.085449	-0.607178
13.0	9.553839	-0.080109	2.936169	0.024341	0.021761	0.002338	-0.470459	0.085449	-0.609375
14.0	9.526237	-0.097049	2.951006	0.029739	0.01736	0.009821	-0.474854	0.081055	-0.609375
15.0	9.50161	-0.09623	2.949131	0.032218	0.013006	0.009052	-0.477051	0.081055	-0.606934
16.0	9.49147	-0.091	2.84437	0.032423	0.009171	0.007032	-0.477051	0.078613	-0.599854
17.0	9.516396	-0.057102	2.84987	0.033612	0.002833	0.008048	-0.472656	0.083252	-0.602539
18.0	9.591781	-0.041561	2.843576	0.029978	-0.004179	0.010449	-0.472412	0.078857	-0.604492
19.0	9.719492	0.024739	2.828565	0.030286	-0.009931	0.007418	-0.468018	0.081055	-0.609375
20.0	9.817355	0.056021	2.842655	0.018536	-0.007132	0.006057	-0.474609	0.078613	-0.599854
21.0	9.868624	0.072328	2.832804	0.01042	0.002678	0.002295	-0.474609	0.078613	-0.604492
22.0	9.818156	0.090722	2.844654	0.011673	0.012123	-0.000344	-0.472656	0.081055	-0.604736
23.0	9.74223	0.075852	2.852795	0.009565	0.026504	-0.006262	-0.472656	0.081055	-0.602295
24.0	9.67562	0.063842	2.793554	0.003551	0.032165	-0.005891	-0.470215	0.07666	-0.602295
25.0	9.595351	0.082008	2.838928	-0.004843	0.040261	-0.005761	-0.472412	0.078857	-0.604492
26.0	9.543035	0.065998	2.852207	-0.007291	0.03715	-0.004132	-0.479248	0.080811	-0.606934
27.0	9.540083	0.082709	2.873376	-0.011906	0.032641	-0.004772	-0.474854	0.081055	-0.604736
28.0	9.519947	0.085054	2.838547	-0.01631	0.0243	-0.007441	-0.474854	0.081055	-0.602295
29.0	9.516423	0.067185	2.856978	-0.02232	0.019726	-0.005291	-0.472656	0.085449	-0.604736
30.0	9.589497	0.013945	2.84934	-0.018229	0.011607	-0.010882	-0.472412	0.078857	-0.604492
31.0	9.592304	-0.053546	2.812831	-0.02112	0.003159	-0.002503	-0.477295	0.087646	-0.60498
32.0	9.588278	-0.020382	2.848802	-0.014656	0.002839	-0.00963	-0.475098	0.085449	-0.604736
33.0	9.558311	-0.055127	2.878072	-0.012553	-0.001307	-0.005504	-0.470459	0.087646	-0.602539
34.0	9.586428	-0.088863	2.845764	-0.004548	0.001036	-0.002507	-0.479248	0.078613	-0.604492
35.0	9.579561	-0.073578	2.897857	0.000138	0.000856	-0.001943	-0.470459	0.085449	-0.602539
36.0	9.575744	-0.125709	2.912652	0.006083	-0.000113	-0.002229	-0.474854	0.083252	-0.602539
37.0	9.553626	-0.140882	2.891196	0.015666	-0.004306	-0.003127	-0.472656	0.083252	-0.604736
38.0	9.53239	-0.121529	2.871388	0.023458	0.00187	0.001899	-0.472656	0.083252	-0.604736
39.0	9.537346	-0.119285	2.836966	0.038042	-0.008255	-0.001468	-0.477051	0.083252	-0.602539
40.0	9.589778	-0.067657	2.827987	0.038607	-0.013323	0.007403	-0.472656	0.083252	-0.602539
41.0	9.663586	-0.03508	2.838346	0.043392	-0.015424	0.006967	-0.474609	0.078613	-0.602295
42.0	9.762514	0.031186	2.85345	0.044402	-0.015156	0.009083	-0.474609	0.078613	-0.604492
43.0	9.786973	0.030685	2.855832	0.034884	-0.005418	0.008115	-0.475098	0.085449	-0.607178
44.0	9.759991	0.013707	2.868547	0.026595	0.00076	0.007222	-0.477051	0.080811	-0.602295
45.0	9.711542	0.015531	2.862166	0.019841	0.007855	0.001588	-0.472656	0.081055	-0.604736
46.0	9.662913	0.017671	2.856386	0.014208	0.013305	-0.002953	-0.477051	0.078613	-0.602295
47.0	9.589055	-0.014019	2.846224	0.016024	0.017686	0.003285	-0.472656	0.085449	-0.5979
48.0	9.564459	-0.01284	2.844278	0.016478	0.012785	-0.00169	-0.474609	0.076416	-0.602295
49.0	9.574712	0.024713	2.778774	0.018537	0.016102	0.001593	-0.472656	0.083252	-0.602539
50.0	9.590655	0.005214	2.83424	0.017521	0.015827	-0.000511	-0.477051	0.083008	-0.600098
51.0	9.591194	0.040277	2.836973	0.015323	0.011656	-0.001846	-0.472656	0.085449	-0.600098
52.0	9.660452	0.020239	2.864682	0.012391	0.010683	0.005683	-0.477295	0.085449	-0.602539
53.0	9.686242	0.002649	2.851499	0.007742	0.013635	0.004176	-0.474854	0.083252	-0.607178
54.0	9.681845	0.03592	2.888543	0.006899	0.016982	-0.000807	-0.474854	0.081055	-0.606934
55.0	9.607966	0.00372	2.878422	0.008646	0.015826	0.007298	-0.472656	0.083252	-0.5979
56.0	9.605502	0.01992	2.897798	0.007526	0.017469	0.006203	-0.477051	0.083252	-0.604736
57.0	9.558669	0.004668	2.874816	0.008922	0.017528	0.003414	-0.472656	0.081055	-0.604736
58.0	9.577403	0.002469	2.914104	0.009933	0.017802	0.005524	-0.470459	0.083252	-0.600098
59.0	9.574891	0.019004	2.933583	0.01133	0.01786	0.002735	-0.4729	0.087646	-0.600342
60.0	9.579321	0.020519	2.901051	0.012834	0.016001	-0.001065	-0.474854	0.083252	-0.600098
61.0	9.577016	-0.047997	2.899706	0.010531	0.013749	-0.001393	-0.477051	0.083252	-0.602539
62.0	9.62774	-0.030889	2.89198	0.019113	0.022262	-0.007079	-0.472412	0.078857	-0.604492
63.0	9.55174	-0.045183	2.899977	0.019079	0.019492	-0.006143	-0.472656	0.081055	-0.604736
64.0	9.57633	-0.010146	2.906457	0.025231	0.014678	-0.008425	-0.474854	0.081055	-0.609375
65.0	9.557855	-0.057705	2.850932	0.023036	0.010508	-0.009763	-0.470215	0.081055	-0.604736
66.0	9.550644	-0.040995	2.903645	0.023733	0.006314	-0.00283	-0.477051	0.080811	-0.602295
67.0	9.574682	-0.040813	2.907514	0.023808	0.001627	-0.002905	-0.474854	0.083252	-0.602539
68.0	9.528465	-0.055154	2.882596	0.024723	-0.006401	0.002007	-0.474854	0.081055	-0.602295
69.0	9.549902	-0.072985	2.901765	0.027486	-0.009057	-0.002633	-0.472656	0.081055	-0.606934
70.0	9.54737	-0.090136	2.916867	0.032796	-0.018968	0.006759	-0.472412	0.078857	-0.602295
71.0	9.573027	-0.056025	2.919757	0.037577	-0.021075	0.006345	-0.477051	0.080811	-0.602295
72.0	9.574572	-0.020959	2.919034	0.036562	-0.021355	0.004244	-0.474609	0.076416	-0.606934
73.0	9.602276	-0.003162	2.904024	0.04364	-0.021213	0.004163	-0.465576	0.07666	-0.602295
74.0	9.60396	-0.053389	2.88301	0.042623	-0.021495	0.002065	-0.474854	0.080811	-0.600098
75.0	9.631594	-0.035307	2.868179	0.047217	-0.016998	0.002734	-0.474609	0.078613	-0.604492
76.0	9.661053	-0.033813	2.836169	0.048425	-0.010343	0.001032	-0.479248	0.078613	-0.604492
77.0	9.688386	-0.0158	2.822285	0.04566	-0.007683	0.005679	-0.470215	0.080811	-0.588379
78.0	9.667156	0.003722	2.802342	0.046966	0.007272	0.00115	-0.472412	0.07666	-0.604492
79.0	9.613816	0.005216	2.830007	0.042084	0.001078	0.004396	-0.474854	0.081055	-0.606934
80.0	9.614704	0.040603	2.831338	0.039952	0.002436	0.001188	-0.475098	0.087646	-0.600342
81.0	9.634904	0.074227	2.870032	0.031797	-0.003519	0.00105	-0.474609	0.078613	-0.604492
82.0	9.634073	0.040476	2.868514	0.029389	-0.003848	0.00173	-0.472412	0.078857	-0.604492
83.0	9.659211	0.075027	2.872938	0.030708	0.000885	-0.000992	-0.472412	0.07666	-0.604492
84.0	9.629152	0.04106	2.902694	0.024534	0.002947	0.002205	-0.469971	0.074219	-0.597412
85.0	9.633006	0.008252	2.867799	0.022545	0.005149	-0.002959	-0.470215	0.081055	-0.606934
86.0	9.649188	-0.010564	2.922401	0.01634	0.004448	0.001178	-0.476807	0.076416	-0.604492
87.0	9.60267	-0.025814	2.8985	0.011071	0.008717	0.007484	-0.474609	0.074219	-0.599854
88.0	9.603338	0.008408	2.900503	0.008944	0.010075	0.004265	-0.468018	0.081055	-0.600098
89.0	9.597166	-0.027334	2.934587	0.008698	0.011154	0.007216	-0.483643	0.078613	-0.602295
90.0	9.579588	-0.042799	2.880436	0.006432	0.01167	0.005944	-0.476807	0.076416	-0.604492
91.0	9.600457	-0.061542	2.901588	0.01124	0.012322	0.004598	-0.474609	0.076416	-0.604492
92.0	9.579827	-0.008449	2.883878	0.01504	0.012693	0.00114	-0.474854	0.083252	-0.609375
93.0	9.608647	-0.008217	2.854085	0.012429	0.005994	0.005651	-0.474854	0.081055	-0.604736
94.0	9.585186	0.026937	2.852561	0.015907	0.012131	0.005203	-0.477051	0.081055	-0.606934
95.0	9.638093	0.026163	2.826505	0.008833	0.011995	0.005275	-0.479248	0.080811	-0.600098
96.0	9.637771	0.025896	2.827605	0.007684	0.01087	0.005111	-0.472656	0.081055	-0.606934
97.0	9.609426	-0.025691	2.840573	0.010195	0.009273	0.003437	-0.474609	0.078613	-0.602295
98.0	9.662443	-0.026255	2.814197	0.012707	0.007676	0.001763	-0.470215	0.07666	-0.609131
99.0	9.611918	-0.007655	2.825597	0.01511	0.008001	0.001093	-0.472656	0.081055	-0.604736
100.0	9.581622	-0.041854	2.855993	0.022181	0.008135	0.001028	-0.474854	0.081055	-0.606934
101.0	9.61356	-0.023515	2.809224	0.019958	0.0012	0.000642	-0.470215	0.07666	-0.599854
102.0	9.612363	0.028577	2.828378	0.021452	0.009533	-0.004976	-0.474609	0.076416	-0.602295
103.0	9.635414	-0.006084	2.831322	0.020822	0.000641	0.004708	-0.472656	0.085449	-0.600098
104.0	9.588003	0.030277	2.825588	0.025661	0.004053	0.002425	-0.470215	0.078857	-0.597656
105.0	9.634189	0.045731	2.850535	0.022867	0.003969	0.007995	-0.472412	0.07666	-0.604492
106.0	9.612882	0.064161	2.830878	0.023006	0.004808	0.00605	-0.474609	0.076416	-0.604492
107.0	9.609808	0.046416	2.847822	0.01705	0.003036	0.007225	-0.472656	0.081055	-0.600098
108.0	9.611708	0.029351	2.830595	0.013532	0.004352	0.006783	-0.472168	0.072021	-0.602051
109.0	9.583431	0.063876	2.862657	0.010653	0.004341	-0.001508	-0.470215	0.076416	-0.597656
110.0	9.609408	0.046361	2.849172	0.001972	0.008016	0.003337	-0.474854	0.083252	-0.604736
111.0	9.560968	0.047735	2.84265	-0.000108	0.001923	0.001001	-0.474609	0.078613	-0.599854
112.0	9.580093	0.046195	2.880463	-0.002121	0.001356	-0.003228	-0.474609	0.078613	-0.604492
113.0	9.578093	0.06316	2.898019	-0.004557	-0.00173	-0.001612	-0.472412	0.07666	-0.606934
114.0	9.626629	-0.024066	2.884916	-0.006529	-0.009747	-0.004949	-0.474609	0.078613	-0.597656
115.0	9.65108	-0.02437	2.887412	-0.001615	-0.011023	-0.007287	-0.472168	0.074219	-0.604492
116.0	9.679545	-0.058201	2.85473	-0.002871	-0.010223	-0.006451	-0.474854	0.081055	-0.602295
117.0	9.675863	-0.109516	2.86953	0.006774	-0.006165	-0.010075	-0.477051	0.078613	-0.602295
118.0	9.652792	-0.073303	2.866647	0.0029	-0.001843	-0.006568	-0.474609	0.078857	-0.606934
119.0	9.625707	-0.089472	2.879675	0.005195	0.000404	-0.006236	-0.472412	0.078857	-0.602295
120.0	9.623695	-0.071892	2.89729	0.005195	0.000404	-0.006235	-0.477051	0.078613	-0.597656
121.0	9.617758	-0.106625	2.930558	0.004946	0.001487	-0.003286	-0.477051	0.083252	-0.602539
122.0	9.574291	-0.103728	2.889862	0.008421	0.007621	-0.003736	-0.470459	0.083252	-0.602539
123.0	9.599147	-0.069401	2.895158	0.012978	0.009353	-0.002123	-0.472412	0.07666	-0.604492
124.0	9.601797	-0.051419	2.879602	0.010218	0.012036	0.002496	-0.474609	0.074219	-0.602051
125.0	9.598453	-0.068904	2.897473	0.019579	0.014415	0.002773	-0.467773	0.07666	-0.602295
126.0	9.628175	-0.034132	2.868969	0.02066	0.010013	0.004838	-0.472412	0.078857	-0.604492
127.0	9.649012	-0.052214	2.890235	0.023234	0.013936	0.001277	-0.474609	0.076416	-0.602295
128.0	9.623455	-0.08562	2.88731	0.026282	0.017551	0.006678	-0.477051	0.080811	-0.600098
129.0	9.623864	-0.050986	2.890068	0.028573	0.019796	0.007017	-0.474609	0.078613	-0.602295
130.0	9.59618	-0.067529	2.905021	0.033483	0.018515	0.004692	-0.477051	0.078613	-0.606934
131.0	9.598618	-0.049305	2.890218	0.035881	0.018835	0.004034	-0.472412	0.07666	-0.606934
132.0	9.550746	-0.012657	2.885863	0.038137	0.018316	0.005326	-0.470215	0.078857	-0.602295
133.0	9.545273	-0.012936	2.921514	0.033406	0.012985	0.006611	-0.467773	0.074463	-0.609131
134.0	9.604187	0.022027	2.862435	0.032541	0.013533	0.002552	-0.465576	0.07666	-0.604492
135.0	9.596784	0.03881	2.91523	0.034764	0.010255	0.004793	-0.470215	0.081055	-0.600098
136.0	9.596437	0.039247	2.916367	0.026477	0.013689	0.00472	-0.467773	0.07666	-0.606934
137.0	9.599095	0.057074	2.900844	0.020636	0.01	0.004881	-0.472412	0.07666	-0.604492
138.0	9.574674	0.057989	2.898215	0.01723	0.009392	0.003428	-0.474609	0.076416	-0.606934
139.0	9.601566	0.074945	2.885957	0.011424	0.008464	0.002635	-0.470215	0.078857	-0.602295
140.0	9.579295	0.058901	2.865464	0.008096	0.003172	0.001132	-0.472412	0.076416	-0.602295
141.0	9.606404	0.075879	2.852495	-0.001003	-0.000287	-0.002118	-0.474609	0.076416	-0.599854
142.0	9.603513	-0.027638	2.84994	-0.000143	-0.000835	0.001949	-0.472656	0.081055	-0.606934
143.0	9.604514	0.006849	2.850666	-0.002149	-0.00141	-0.002286	-0.470215	0.081055	-0.604736
144.0	9.600604	-0.045077	2.866268	-0.006698	-0.00314	-0.003911	-0.470215	0.07666	-0.599854
145.0	9.608711	-0.026783	2.815274	-0.010465	-0.000733	-0.00142	-0.474609	0.078857	-0.606934
146.0	9.619736	-0.046728	2.903851	-0.009429	0.002314	-0.000252	-0.474854	0.081055	-0.604736
147.0	9.624701	-0.046237	2.869966	-0.003624	0.003242	0.000542	-0.476807	0.076416	-0.604492
148.0	9.620566	-0.098498	2.886307	-0.003701	0.007926	0.000591	-0.472412	0.07666	-0.606934
149.0	9.599171	-0.080282	2.866969	-0.001409	0.010171	0.000929	-0.468018	0.081055	-0.602295
150.0	9.619962	-0.098442	2.88832	0.004824	0.013604	-0.004122	-0.470215	0.078857	-0.602295
151.0	9.569284	-0.079524	2.899874	0.004791	0.010844	-0.003172	-0.467773	0.074219	-0.597412
152.0	9.61626	-0.029384	2.926076	0.004582	0.004489	0.000676	-0.472412	0.078857	-0.602295
153.0	9.622229	-0.080111	2.874182	0.000958	0.007731	0.001218	-0.472656	0.081055	-0.606934
154.0	9.593804	-0.045673	2.906215	0.000925	0.004971	0.002168	-0.467773	0.07666	-0.604492
155.0	9.587632	-0.081077	2.939973	0.003183	0.004456	0.003456	-0.472656	0.083252	-0.607178
156.0	9.590569	-0.063706	2.92358	0.004406	0.000895	0.003575	-0.474609	0.076416	-0.599854
157.0	9.587536	-0.081419	2.940276	0.010321	-0.000103	0.003373	-0.468018	0.078857	-0.599854
158.0	9.592565	-0.080863	2.906259	0.008954	0.002624	0.005203	-0.472656	0.083252	-0.602539
159.0	9.59541	-0.063564	2.890178	0.008767	0.009232	0.006252	-0.472656	0.083252	-0.604736
160.0	9.595207	-0.063907	2.890845	0.008843	0.004548	0.006203	-0.470215	0.07666	-0.604492
161.0	9.614062	-0.065625	2.929246	0.011167	0.009551	0.005594	-0.474609	0.078613	-0.602295
162.0	9.640922	-0.048981	2.917165	0.010054	0.011188	0.004475	-0.472168	0.074219	-0.602051
163.0	9.643676	-0.031369	2.901415	0.012676	0.007657	0.001818	-0.474609	0.074219	-0.602051
164.0	9.649491	0.003938	2.86892	0.012565	0.009581	0.002819	-0.472412	0.078857	-0.602295
165.0	9.627045	-0.012349	2.849081	0.002916	0.015748	0.004556	-0.474854	0.081055	-0.602295
166.0	9.595242	0.004214	2.898842	0.006096	0.020203	0.008017	-0.474854	0.081055	-0.606934
167.0	9.575704	0.00516	2.862779	0.001769	0.014625	0.004389	-0.468018	0.081055	-0.600098
168.0	9.57019	0.004042	2.89828	0.001624	0.013791	0.006339	-0.468018	0.081055	-0.602295
169.0	9.570822	0.038179	2.900263	0.001991	0.010775	0.002392	-0.472656	0.081055	-0.606934
170.0	9.622902	0.002518	2.873564	0.002991	0.011063	0.004512	-0.470459	0.085449	-0.602539
171.0	9.593272	0.002313	2.905359	-0.000489	0.015139	0.003102	-0.468018	0.081055	-0.600098
172.0	9.619055	-0.015586	2.89287	0.002023	0.013533	0.001445	-0.463379	0.078857	-0.599854
173.0	9.610571	-0.033685	2.944659	0.003614	0.006956	-0.002384	-0.468018	0.078857	-0.599854
174.0	9.588225	-0.049562	2.924509	0.002279	0.012442	-0.001503	-0.470459	0.083252	-0.602539
175.0	9.587797	-0.049422	2.925912	-0.000201	0.016806	-0.000793	-0.468018	0.078857	-0.604492
176.0	9.587337	-0.049572	2.927418	0.001764	0.014622	0.004398	-0.474609	0.078613	-0.602295
177.0	9.587982	-0.01529	2.929348	0.002099	0.008849	0.001397	-0.468262	0.085449	-0.600098
178.0	9.560493	-0.032056	2.943331	0.003389	0.010804	-0.00038	-0.470215	0.081055	-0.602295
179.0	9.590442	0.002327	2.914684	-0.000269	0.011288	0.001106	-0.468018	0.081055	-0.609375
180.0	9.589181	-0.032461	2.914768	0.001807	0.007181	0.005295	-0.472656	0.083252	-0.600098
181.0	9.59511	0.002481	2.882167	0.003355	0.008045	0.00057	-0.470215	0.07666	-0.602295
182.0	9.564602	-0.032027	2.912611	0.004208	0.007499	0.00464	-0.472412	0.078857	-0.604492
183.0	9.571638	-0.048362	2.861711	0.009269	0.007044	0.000379	-0.468018	0.081055	-0.600098
184.0	9.542168	-0.048094	2.892791	0.007978	0.00509	0.002156	-0.472656	0.081055	-0.614014
185.0	9.568282	-0.065552	2.879305	0.013005	0.001877	-0.001157	-0.468018	0.081055	-0.602295
186.0	9.568292	-0.064998	2.879285	0.015485	-0.002488	-0.001864	-0.474609	0.078613	-0.604492
187.0	9.587346	-0.065899	2.916763	0.017593	-0.003837	0.001379	-0.470459	0.083252	-0.600098
188.0	9.620829	-0.013578	2.869998	0.022248	-0.004035	0.002019	-0.470459	0.083252	-0.600098
189.0	9.617768	-0.030883	2.886615	0.010344	0.002649	0.00245	-0.470215	0.081055	-0.602295
190.0	9.617842	-0.030821	2.886369	0.009356	-0.007836	0.002176	-0.472656	0.081055	-0.604736
191.0	9.645133	-0.013859	2.873049	0.014001	0.002162	0.000968	-0.46582	0.078857	-0.609131
192.0	9.642049	-0.031274	2.889751	0.016075	-0.001943	0.005162	-0.472412	0.078857	-0.604492
193.0	9.617918	-0.030474	2.88612	0.017252	0.001934	0.004386	-0.477051	0.083252	-0.604736
194.0	9.641931	-0.031159	2.890144	0.013775	0.006011	0.00297	-0.470215	0.081055	-0.606934
195.0	9.617651	-0.030306	2.88701	0.014884	0.004374	0.004094	-0.470215	0.081055	-0.595459
196.0	9.591266	-0.012452	2.901386	0.012663	0.007646	0.00185	-0.468018	0.081055	-0.600098
197.0	9.561761	-0.01191	2.932559	0.012921	0.006552	-0.001098	-0.470215	0.07666	-0.599854
198.0	9.591857	0.023081	2.903475	0.009816	0.007609	-0.006465	-0.472656	0.081055	-0.606934
199.0	9.566523	-0.009905	2.899779	0.007269	0.006462	-0.003861	-0.470459	0.083252	-0.602539
200.0	9.590471	-0.010129	2.90402	0.009522	0.005946	-0.002564	-0.472412	0.078857	-0.599854
201.0	9.59136	0.024968	2.9051	0.012001	0.00158	-0.003265	-0.472656	0.083252	-0.602539
202.0	9.59033	-0.00892	2.904491	0.006203	0.000659	-0.004081	-0.475098	0.089844	-0.60498
203.0	9.61126	-0.026615	2.925216	0.005014	0.006976	-0.005156	-0.472656	0.081055	-0.604736
204.0	9.564972	-0.041435	2.900917	0.007347	0.001779	-0.003907	-0.470215	0.081055	-0.602295
205.0	9.60804	-0.042895	2.942377	0.006316	-0.001267	-0.005079	-0.474609	0.078613	-0.604492
206.0	9.592083	-0.023232	2.888213	0.007559	0.008122	-0.007757	-0.468018	0.081055	-0.606934
207.0	9.583683	-0.040318	2.939498	0.010005	0.001	-0.007506	-0.470215	0.081055	-0.606934
208.0	9.583607	-0.039433	2.939758	0.012032	0.004336	-0.004211	-0.470215	0.078857	-0.599854
209.0	9.566634	-0.054227	2.885012	0.016831	0.004968	-0.005514	-0.468262	0.085449	-0.602539
210.0	9.588514	-0.037023	2.90657	0.012177	0.005166	-0.006158	-0.470215	0.078857	-0.604492
211.0	9.56638	-0.05229	2.885889	0.014543	0.002726	-0.005858	-0.468018	0.083252	-0.602539
212.0	9.569432	-0.034059	2.869283	0.010708	-0.000371	-0.001481	-0.467773	0.07666	-0.602295
213.0	9.588329	-0.034439	2.907214	0.013691	0.003263	-0.009927	-0.470215	0.078857	-0.602295
214.0	9.618608	0.000938	2.877464	0.012223	-0.002273	-0.00525	-0.468018	0.081055	-0.597656
215.0	9.617646	-0.032811	2.876764	0.011996	0.001579	-0.003254	-0.468018	0.083252	-0.5979
216.0	9.640573	0.018457	2.898691	0.011736	0.002675	-0.000307	-0.470215	0.07666	-0.599854
217.0	9.645672	0.019341	2.86487	0.012878	0.003796	-0.000133	-0.470459	0.083252	-0.602539
218.0	9.66972	0.019059	2.868791	0.017643	0.001672	-0.000481	-0.472412	0.078857	-0.599854
219.0	9.693819	0.018791	2.872541	0.014101	0.000235	-3e-06	-0.470459	0.083252	-0.600098
220.0	9.695861	0.002273	2.855387	0.013023	0.004624	-0.00208	-0.468018	0.083252	-0.604736
221.0	9.697777	-0.014268	2.838671	0.005891	0.009188	-0.002034	-0.470215	0.078857	-0.606934
222.0	9.62393	0.039935	2.8468	0.004812	0.013576	-0.004111	-0.472412	0.078857	-0.602295
223.0	9.615314	0.02225	2.898767	0.004488	0.009164	0.000739	-0.467773	0.07666	-0.599854
224.0	9.615906	0.056823	2.900651	-0.000214	0.016798	-0.000817	-0.470459	0.083252	-0.607178
225.0	9.588206	0.040232	2.915322	-0.00121	0.016505	-0.002939	-0.468018	0.078857	-0.599854
226.0	9.613988	0.022679	2.90316	-0.007005	0.015581	-0.003763	-0.463379	0.078857	-0.602295
227.0	9.591654	0.006462	2.883221	-0.009353	0.00783	-0.002207	-0.470215	0.081055	-0.600098
228.0	9.565121	0.024296	2.897845	-0.009175	0.011413	-0.005106	-0.470215	0.081055	-0.602295
229.0	9.567071	0.00727	2.881064	-0.01056	0.0012	-0.000479	-0.472656	0.081055	-0.600098
230.0	9.596374	0.006982	2.850792	-0.013662	0.002249	-0.005849	-0.472412	0.078857	-0.606934
231.0	9.596231	0.007245	2.851273	-0.013599	0.007758	-0.007749	-0.470215	0.07666	-0.602295
232.0	9.592977	-0.009991	2.868539	-0.012521	0.003369	-0.005673	-0.470215	0.081055	-0.602295
233.0	9.615965	-0.044894	2.872165	-0.010059	0.009194	-0.00822	-0.472656	0.081055	-0.597656
234.0	9.588455	-0.061305	2.886186	-0.009179	0.011411	-0.005098	-0.466064	0.085449	-0.604736
235.0	9.610336	-0.130787	2.889674	-0.003386	0.012336	-0.004272	-0.468018	0.083252	-0.600098
236.0	9.635068	-0.096916	2.895177	-0.000285	0.011286	0.001098	-0.472412	0.07666	-0.609131
237.0	9.607432	-0.11343	2.909587	0.00598	0.017452	-0.004866	-0.472656	0.083252	-0.595459
238.0	9.611096	-0.060959	2.894823	0.011534	0.009284	0.000755	-0.470215	0.081055	-0.600098
239.0	9.565571	-0.041787	2.87198	0.015868	0.017618	0.003456	-0.468018	0.083252	-0.602539
240.0	9.60699	0.007775	2.932719	0.014748	0.006308	0.00513	-0.474854	0.081055	-0.602295
241.0	9.565994	-0.007165	2.874394	0.016152	0.006331	0.002361	-0.470215	0.07666	-0.602295
242.0	9.611922	0.008594	2.899706	0.013868	0.004089	0.002011	-0.468018	0.083252	-0.602539
243.0	9.562666	-0.024223	2.891853	0.015094	0.00053	0.002138	-0.463623	0.083252	-0.602539
244.0	9.60259	-0.043601	2.949917	0.012633	-0.005293	0.004685	-0.472656	0.081055	-0.606934
245.0	9.583919	-0.04231	2.911497	0.019798	-0.007101	0.003696	-0.470215	0.081055	-0.602295
246.0	9.627033	-0.043948	2.952578	0.018718	-0.002715	0.001622	-0.472412	0.076416	-0.602295
247.0	9.611378	-0.024994	2.897713	0.013919	-0.003346	0.002916	-0.472656	0.085449	-0.602539
248.0	9.589346	-0.040909	2.87686	0.016443	0.007983	-0.001531	-0.474854	0.081055	-0.606934
249.0	9.591091	0.028608	2.87865	0.012871	0.003794	-0.000109	-0.470459	0.083252	-0.604736
250.0	9.587923	0.011265	2.89559	0.005644	9.6e-05	0.00278	-0.468018	0.078857	-0.606934
251.0	9.618225	0.045586	2.865932	0.00708	0.00287	-0.00094	-0.46582	0.081055	-0.609375
252.0	9.662339	-0.007644	2.889688	0.01044	0.000725	0.00149	-0.468018	0.081055	-0.606934
253.0	9.643395	-0.00628	2.852175	0.008104	0.005917	0.000234	-0.470459	0.083252	-0.607178
254.0	9.594024	-0.039234	2.844738	0.004449	0.006408	0.001701	-0.472656	0.081055	-0.604736
255.0	9.585417	-0.057171	2.896343	0.006731	0.008649	0.002053	-0.468018	0.078857	-0.604492
256.0	9.588387	-0.03983	2.880071	0.007777	0.00151	0.005083	-0.472656	0.083252	-0.607178
257.0	9.605024	-0.024228	2.935412	0.007777	0.001509	0.005083	-0.470215	0.081055	-0.606934
258.0	9.613372	-0.006519	2.88469	0.010175	0.001823	0.004439	-0.472656	0.083252	-0.607178
259.0	9.612334	-0.040934	2.884354	0.015119	0.003278	0.001201	-0.472656	0.085449	-0.602539
260.0	9.589091	-0.005434	2.881514	0.01272	0.002964	0.001847	-0.479248	0.078613	-0.602295
261.0	9.588994	-0.005149	2.881838	0.012868	0.00379	-0.000101	-0.477051	0.083252	-0.602539
262.0	9.63616	-0.040933	2.889058	0.013713	0.003257	0.003974	-0.468018	0.083252	-0.602539
263.0	9.636018	-0.040536	2.889537	0.014303	0.006561	-0.00382	-0.472412	0.078857	-0.599854
264.0	9.587739	-0.038462	2.882245	0.015317	-0.00333	0.000166	-0.472656	0.083252	-0.609375
265.0	9.615051	-0.021332	2.868959	0.019848	-0.001602	0.001825	-0.468018	0.083252	-0.600098
266.0	9.615057	-0.020892	2.868941	0.019879	0.001149	0.000874	-0.477051	0.081055	-0.609375
267.0	9.617194	-0.037564	2.851688	0.01973	0.000323	0.002825	-0.467773	0.07666	-0.606934
268.0	9.611907	-0.037681	2.88582	0.021978	-0.00019	0.004133	-0.475098	0.085449	-0.607178
269.0	9.614987	-0.019862	2.869185	0.022157	0.003387	0.001233	-0.46582	0.081055	-0.597656
270.0	9.588599	-0.001836	2.883156	0.020487	0.004471	0.006948	-0.472656	0.083252	-0.607178
271.0	9.639865	0.014242	2.874129	0.013971	0.002152	0.001039	-0.472656	0.083252	-0.604736
272.0	9.588413	-0.001316	2.883773	0.015259	0.004096	-0.000733	-0.468018	0.081055	-0.602295
273.0	9.612448	-0.001773	2.887774	0.009176	0.001528	0.002325	-0.472656	0.081055	-0.602295
274.0	9.563235	-0.03445	2.879846	0.01435	-0.00088	-0.002897	-0.470459	0.083252	-0.602539
275.0	9.612477	-0.000962	2.887681	0.012797	-0.00172	0.001821	-0.472656	0.081055	-0.600098
276.0	9.609356	-0.017836	2.904464	0.015637	0.001063	-0.004668	-0.470215	0.078857	-0.599854
277.0	9.606213	-0.034821	2.92133	0.010283	-0.000104	0.003459	-0.472656	0.083252	-0.609375
278.0	9.606151	-0.034461	2.921536	0.012015	0.00431	-0.004162	-0.470215	0.078857	-0.602295
279.0	9.608194	-0.051142	2.904631	0.011454	0.003767	0.002681	-0.470215	0.081055	-0.597656
280.0	9.587148	-0.032642	2.884283	0.010842	0.000438	-0.003382	-0.472656	0.081055	-0.600098
281.0	9.610255	-0.067292	2.887687	0.010726	0.002366	-0.002387	-0.477051	0.078613	-0.597656
282.0	9.61327	-0.049319	2.871257	0.014145	0.005724	-0.001857	-0.472656	0.081055	-0.602295
283.0	9.628783	-0.067231	2.926535	0.012888	0.006532	-0.001039	-0.472412	0.07666	-0.604492
284.0	9.609783	-0.065605	2.889295	0.01654	0.006035	-0.002495	-0.474609	0.076416	-0.604492
285.0	9.610569	-0.030499	2.890357	0.012887	0.006532	-0.001036	-0.474609	0.078613	-0.604492
286.0	9.605141	-0.030608	2.924899	0.018194	0.002232	0.006616	-0.474854	0.081055	-0.604736
287.0	9.587223	0.005143	2.887725	0.018755	0.00277	-0.000225	-0.470215	0.081055	-0.602295
288.0	9.6071	-0.047086	2.908313	0.016125	0.006316	0.002403	-0.474854	0.083252	-0.609375
289.0	9.585974	-0.028714	2.888222	0.018488	0.003876	0.002722	-0.474609	0.078613	-0.595215
290.0	9.588993	-0.011175	2.871774	0.014835	0.004374	0.004179	-0.470215	0.081055	-0.604736
291.0	9.613014	-0.011737	2.875834	0.01396	0.002147	0.00106	-0.470459	0.083252	-0.607178
292.0	9.638218	-0.063688	2.862265	0.016387	0.005207	-0.000535	-0.472412	0.076416	-0.599854
293.0	9.639038	-0.028844	2.86319	0.010339	0.005396	0.001559	-0.474609	0.078613	-0.597656
294.0	9.633563	-0.028761	2.897852	0.009497	0.005919	-0.002518	-0.474609	0.078857	-0.606934
295.0	9.609247	-0.027506	2.894781	0.011775	0.008157	-0.002162	-0.472656	0.081055	-0.602295
296.0	9.585902	0.008106	2.892101	0.008091	0.005907	0.000249	-0.470459	0.083252	-0.602539
297.0	9.558505	-0.008353	2.905665	0.005813	0.003668	-0.000106	-0.472656	0.081055	-0.602295
298.0	9.582504	-0.008865	2.909796	0.003566	0.004179	-0.001418	-0.474609	0.076416	-0.602295
299.0	9.581424	-0.043079	2.909769	0.004822	0.003369	-0.002232	-0.475098	0.085449	-0.607178
300.0	9.60648	-0.008895	2.914005	0.009549	-0.001511	-0.001592	-0.474854	0.083252	-0.602539
301.0	9.584569	-0.024912	2.892918	0.006046	-0.00019	-0.002089	-0.472656	0.083252	-0.609375
302.0	9.592119	-0.04168	2.841384	0.006857	-0.003462	0.002946	-0.472412	0.078857	-0.606934
303.0	9.559655	-0.058498	2.888227	0.007122	-0.004571	4e-06	-0.474609	0.078613	-0.604492
304.0	9.613281	-0.059364	2.861361	0.007302	-0.001001	-0.002904	-0.474609	0.078613	-0.602295
305.0	9.610175	-0.076273	2.878115	0.009548	-0.001512	-0.00159	-0.477051	0.080811	-0.604736
306.0	9.61649	-0.04111	2.844288	0.010687	-0.000392	-0.001413	-0.470215	0.081055	-0.602295
307.0	9.63528	-0.041591	2.882177	0.011826	0.000727	-0.001235	-0.4729	0.087646	-0.602539
308.0	9.640596	-0.041049	2.848074	0.013923	-0.000604	0.00203	-0.468018	0.078857	-0.602295
309.0	9.636176	-0.006264	2.882783	0.013144	0.005414	-0.003965	-0.474854	0.081055	-0.604736
310.0	9.61414	-0.022306	2.862128	0.009164	0.001527	0.002346	-0.474609	0.078613	-0.599854
311.0	9.632799	-0.023263	2.900441	0.011208	0.007624	0.004684	-0.477051	0.083008	-0.597656
312.0	9.614814	0.012282	2.863467	0.012846	0.003774	-6.2e-05	-0.474854	0.083252	-0.607178
313.0	9.586477	-0.038645	2.876611	0.011441	0.003764	0.002703	-0.477051	0.080811	-0.600098
314.0	9.613612	-0.021781	2.863904	0.013984	0.004892	0.000118	-0.474609	0.078613	-0.604492
315.0	9.591588	-0.037867	2.843231	0.010567	0.001534	-0.000415	-0.474854	0.083252	-0.602539
316.0	9.615695	-0.038286	2.847012	0.010535	-0.001215	0.000546	-0.474609	0.078857	-0.606934
317.0	9.607229	-0.055668	2.897983	0.008024	0.000407	0.002172	-0.474854	0.083252	-0.602539
318.0	9.613476	-0.020763	2.86437	0.00946	0.003163	-0.001551	-0.468018	0.078857	-0.597656
319.0	9.632161	-0.021191	2.902576	0.007214	0.003674	-0.002866	-0.474854	0.081055	-0.606934
320.0	9.610138	-0.037383	2.881903	0.0103	0.002645	0.002529	-0.472656	0.081055	-0.602295
321.0	9.606879	-0.054343	2.89917	0.015385	0.004898	-0.002641	-0.470215	0.07666	-0.602295
322.0	9.585829	-0.035742	2.878809	0.015204	0.001331	0.000271	-0.472412	0.078857	-0.602295
323.0	9.585793	-0.035296	2.878933	0.019843	0.001128	0.000954	-0.474854	0.080811	-0.600098
324.0	9.609899	-0.035477	2.882723	0.019959	-0.000803	-3.4e-05	-0.468018	0.081055	-0.606934
325.0	9.612074	-0.052343	2.865551	0.024064	0.001219	0.006531	-0.470215	0.081055	-0.606934
326.0	9.63498	-0.001279	2.886785	0.018404	-0.001629	0.004683	-0.474854	0.081055	-0.604736
327.0	9.614053	0.016682	2.865996	0.018137	-0.000516	0.007626	-0.474609	0.078613	-0.599854
328.0	9.613066	-0.017732	2.865764	0.0152	0.001326	0.000279	-0.472656	0.083252	-0.5979
329.0	9.589901	0.017715	2.862365	0.01604	0.000811	0.00436	-0.477051	0.083252	-0.602539
330.0	9.586762	0.000555	2.879236	0.017411	-0.001933	0.002561	-0.477051	0.078613	-0.599854
331.0	9.586794	0.001002	2.879129	0.017708	-0.000299	-0.00134	-0.472412	0.078857	-0.604492
332.0	9.592179	0.001467	2.844841	0.013879	-0.003358	0.003019	-0.474854	0.081055	-0.604736
333.0	9.586888	0.001846	2.878817	0.017856	0.000516	-0.003289	-0.472168	0.074219	-0.604492
334.0	9.589107	-0.014693	2.861502	0.009656	-0.003453	-0.002556	-0.477051	0.080811	-0.602295
335.0	9.613357	-0.014926	2.864806	0.009624	-0.006201	-0.001592	-0.472412	0.078857	-0.599854
336.0	9.589324	-0.013778	2.860779	0.011814	0.000715	-0.001211	-0.474609	0.076416	-0.599854
337.0	9.608131	-0.014212	2.89858	0.00939	-0.002339	0.000385	-0.474609	0.078857	-0.606934
338.0	9.60503	-0.031106	2.915357	0.011931	-0.001217	-0.002198	-0.472656	0.081055	-0.604736
339.0	9.601923	-0.047712	2.932168	0.015577	-0.001724	-0.003639	-0.474854	0.083252	-0.604736
340.0	9.61579	-0.029754	2.846793	0.014025	-0.002543	0.001075	-0.472656	0.083252	-0.602539
341.0	9.610428	-0.029215	2.881029	0.022402	0.004987	-0.002571	-0.470215	0.081055	-0.600098
342.0	9.637596	-0.012075	2.86816	0.016182	0.001626	0.00242	-0.476807	0.076416	-0.604492
343.0	9.658518	-0.029645	2.889015	0.014203	0.001018	-0.001837	-0.467773	0.07666	-0.606934
344.0	9.642815	-0.011243	2.834423	0.01382	0.004067	0.002089	-0.472656	0.081055	-0.602295
345.0	9.661476	-0.011565	2.872711	0.017614	0.004373	-0.001302	-0.474609	0.074219	-0.604492
346.0	9.639378	-0.027738	2.852355	0.014839	0.007117	0.003256	-0.472656	0.081055	-0.604736
347.0	9.569878	-0.008154	2.825166	0.010299	0.01556	-0.00033	-0.470459	0.083252	-0.602539
348.0	9.56094	-0.025231	2.877729	0.013529	0.015354	0.003123	-0.470215	0.078857	-0.599854
349.0	9.558368	-0.007639	2.896153	0.015166	0.01149	-0.001608	-0.474609	0.078613	-0.604492
350.0	9.580061	0.009071	2.917827	0.0134	0.004369	0.006989	-0.472412	0.07666	-0.604492
351.0	9.609378	0.008253	2.88797	0.01594	0.005487	0.004408	-0.474609	0.078613	-0.602295
352.0	9.634274	0.042083	2.892546	0.01358	0.007928	0.004073	-0.472412	0.078857	-0.602295
353.0	9.584884	0.009046	2.885467	0.010318	0.005386	0.001586	-0.472656	0.081055	-0.597656
354.0	9.614227	0.008463	2.855553	0.008044	0.00315	0.00123	-0.470215	0.078857	-0.604492
355.0	9.61629	-0.008554	2.838849	0.007088	0.00559	-0.001867	-0.470215	0.081055	-0.602295
356.0	9.612014	-0.060069	2.856119	0.008044	0.00315	0.001231	-0.477051	0.078613	-0.604492
357.0	9.613808	0.009467	2.856958	0.010915	0.008639	-0.00622	-0.472412	0.078857	-0.604492
358.0	9.605137	-0.007106	2.908512	0.007174	0.000912	-0.001885	-0.472656	0.081055	-0.597656
359.0	9.580979	-0.006133	2.904886	0.004665	0.00254	-0.000271	-0.472412	0.078857	-0.604492
360.0	9.57995	-0.040523	2.904925	0.005769	0.000913	0.000875	-0.472656	0.085449	-0.604736
361.0	9.585261	-0.040365	2.871001	0.007055	0.002844	-0.000899	-0.474854	0.080811	-0.597656
362.0	9.579832	-0.040019	2.905321	0.010551	0.001521	-0.000381	-0.477051	0.083252	-0.607178
363.0	9.563245	-0.056105	2.850449	0.016587	0.001314	-0.002443	-0.472656	0.083252	-0.607178
364.0	9.568656	-0.05535	2.816206	0.022559	-0.004384	-0.00257	-0.472656	0.081055	-0.602295
365.0	9.543795	-0.088573	2.811564	0.022196	-0.0115	0.003272	-0.472412	0.078857	-0.602295
366.0	9.619647	-0.072915	2.804723	0.030588	-0.014151	0.001555	-0.470215	0.081055	-0.597656
367.0	9.694571	-0.091737	2.797591	0.028046	-0.015268	0.00414	-0.477295	0.085449	-0.600098
368.0	9.789188	-0.076865	2.828561	0.030198	-0.0111	0.005486	-0.472656	0.081055	-0.602295
369.0	9.862656	-0.044018	2.839436	0.023303	-0.000219	0.001541	-0.472656	0.081055	-0.600098
370.0	9.788	-0.024433	2.845674	0.021462	0.010264	0.007267	-0.477051	0.083252	-0.604736
371.0	9.714093	0.029409	2.852761	0.020271	0.016567	0.006135	-0.472656	0.085449	-0.5979
372.0	9.590861	0.050159	2.852604	0.017911	0.019009	0.005795	-0.474854	0.081055	-0.602295
373.0	9.518012	0.051954	2.842994	0.016357	0.018202	0.01051	-0.470215	0.081055	-0.600098
374.0	9.470311	0.087667	2.83704	0.011275	0.015854	0.001804	-0.470215	0.078857	-0.602295
375.0	9.494106	0.08652	2.841894	0.00583	0.006522	0.012809	-0.472412	0.078857	-0.599854
376.0	9.542116	0.084616	2.850189	0.003323	0.00803	0.000551	-0.474609	0.076416	-0.602295
377.0	9.597743	0.065651	2.807155	-0.006001	0.002957	0.001084	-0.470215	0.081055	-0.602295
378.0	9.642744	0.046908	2.831877	-0.009141	-0.001519	-0.002391	-0.474854	0.081055	-0.604736
379.0	9.669096	0.028977	2.818427	-0.013502	-0.002435	-0.00603	-0.470215	0.07666	-0.604492
380.0	9.663728	0.029351	2.852487	-0.012335	0.001426	-0.006819	-0.474854	0.081055	-0.604736
381.0	9.663769	0.029499	2.852349	-0.01479	-0.004364	-0.004254	-0.474609	0.07666	-0.61377
382.0	9.636491	0.012939	2.865529	-0.013858	0.003365	-0.003075	-0.468262	0.085449	-0.602539
383.0	9.63317	-0.00432	2.883013	-0.013826	0.006108	-0.004043	-0.470215	0.078857	-0.606934
384.0	9.659297	-0.022331	2.870326	-0.013827	0.006108	-0.004042	-0.470215	0.081055	-0.597656
385.0	9.599099	-0.055219	2.931628	-0.012659	0.00997	-0.004829	-0.472412	0.07666	-0.604492
386.0	9.609622	-0.055284	2.864254	-0.010301	0.007527	-0.004486	-0.472656	0.081055	-0.602295
387.0	9.577665	-0.03696	2.912496	-0.00788	0.010574	-0.006078	-0.474854	0.081055	-0.606934
388.0	9.551334	-0.105104	2.909406	-0.004686	0.007627	-0.001651	-0.474609	0.078613	-0.597656
389.0	9.583808	-0.088456	2.862823	0.001349	0.007418	-0.003707	-0.472656	0.081055	-0.604736
390.0	9.596926	-0.088629	2.935479	0.002454	0.005791	-0.00256	-0.470215	0.081055	-0.602295
391.0	9.58223	-0.036213	2.881154	0.008905	0.005387	0.004359	-0.470459	0.083252	-0.602539
392.0	9.57891	-0.053386	2.898598	0.010428	0.00345	0.000617	-0.4729	0.087646	-0.600342
393.0	9.576617	-0.035968	2.915954	0.012517	0.00213	0.003898	-0.474609	0.076416	-0.602295
394.0	9.597464	-0.053725	2.937006	0.013922	0.002126	0.001141	-0.474854	0.081055	-0.609375
395.0	9.579681	-0.018409	2.899362	0.014907	0.002432	0.003275	-0.474609	0.078857	-0.606934
396.0	9.603765	-0.018973	2.90325	0.016129	-0.001128	0.00344	-0.479248	0.078613	-0.604492
397.0	9.609209	-0.018827	2.86902	0.019772	-0.001642	0.002012	-0.470459	0.083252	-0.602539
398.0	9.63553	-0.036262	2.855752	0.021208	0.001096	-0.001711	-0.472656	0.081055	-0.600098
399.0	9.659562	-0.036442	2.859821	0.018429	0.00385	0.002836	-0.472412	0.078857	-0.606934
400.0	9.6858	-0.054308	2.846837	0.02401	0.001207	0.006646	-0.472656	0.083252	-0.600098
401.0	9.635287	-0.035316	2.856584	0.024342	0.005569	0.001774	-0.474854	0.080811	-0.597656
402.0	9.635122	-0.03488	2.857144	0.025325	0.005876	0.00391	-0.477051	0.083252	-0.602539
403.0	9.608625	-0.016498	2.870992	0.026458	0.006992	0.004094	-0.474854	0.080811	-0.600098
404.0	9.61485	0.01814	2.837487	0.022932	0.005573	0.004539	-0.474609	0.078613	-0.595215
405.0	9.563253	0.002737	2.847522	0.026606	0.007798	0.002147	-0.477051	0.078613	-0.599854
406.0	9.587235	0.002369	2.851755	0.020627	0.000594	0.005154	-0.472656	0.085449	-0.602539
407.0	9.568558	0.003377	2.813801	0.025943	-0.001059	-0.001958	-0.472656	0.081055	-0.606934
408.0	9.615798	-0.031965	2.821397	0.020743	-0.001341	0.004177	-0.481445	0.078613	-0.602295
409.0	9.613633	-0.014301	2.838273	0.024385	-0.00186	0.002756	-0.472656	0.081055	-0.604736
410.0	9.618058	-0.048524	2.804217	0.022178	0.00139	0.000454	-0.472412	0.078857	-0.602295
411.0	9.664058	-0.032036	2.828886	0.024382	-0.001861	0.002762	-0.472656	0.081055	-0.600098
412.0	9.615925	-0.030212	2.820985	0.027871	-0.003188	0.003298	-0.474854	0.080811	-0.600098
413.0	9.665195	0.003432	2.828341	0.026767	-0.001564	0.002148	-0.472656	0.080811	-0.595459
414.0	9.643352	-0.012993	2.807328	0.020585	-0.002151	0.006146	-0.474609	0.076416	-0.606934
415.0	9.616086	-0.029285	2.820446	0.023123	-0.001047	0.003574	-0.481689	0.083008	-0.602295
416.0	9.637977	-0.012445	2.841295	0.019362	0.001408	0.005977	-0.472656	0.081055	-0.602295
417.0	9.586488	-0.028225	2.850993	0.017006	0.003851	0.005624	-0.474609	0.078857	-0.609131
418.0	9.612705	-0.046254	2.838135	0.019511	0.002212	0.004026	-0.476807	0.076416	-0.606934
419.0	9.566725	-0.062081	2.813419	0.023085	-0.003792	0.004559	-0.472656	0.081055	-0.600098
420.0	9.583343	-0.04481	2.867888	0.023202	-0.005729	0.003582	-0.474609	0.076416	-0.606934
421.0	9.593228	-0.079476	2.799608	0.029024	0.000658	0.002532	-0.477051	0.083252	-0.604736
422.0	9.620559	-0.062698	2.786267	0.027585	-0.002069	0.006266	-0.472656	0.085449	-0.5979
423.0	9.64035	-0.028402	2.82374	0.025314	-0.004304	0.005909	-0.472656	0.081055	-0.602295
424.0	9.666778	-0.046468	2.810162	0.025161	-0.005109	0.007868	-0.472656	0.081055	-0.597656
425.0	9.667856	-0.011729	2.809784	0.024395	0.000863	0.001825	-0.476807	0.076416	-0.599854
426.0	9.642538	0.04139	2.822864	0.020906	0.00219	0.001288	-0.477051	0.080811	-0.602295
427.0	9.610775	0.060122	2.870271	0.017115	0.00191	0.00466	-0.474609	0.078613	-0.602295
428.0	9.615119	0.025469	2.836521	0.015149	0.001284	0.000389	-0.472656	0.081055	-0.604736
429.0	9.615064	0.025686	2.836706	0.010258	0.002629	0.002602	-0.474609	0.078613	-0.597656
430.0	9.617184	0.008438	2.820012	0.011661	0.002612	-0.000151	-0.477051	0.080811	-0.604736
431.0	9.617149	0.008734	2.82013	0.011627	-0.000129	0.000828	-0.472412	0.07666	-0.604492
432.0	9.591018	-0.059508	2.816671	0.00909	-0.001227	0.003402	-0.477051	0.083252	-0.602539
433.0	9.6457	-0.026654	2.789874	0.007124	-0.001854	-0.000871	-0.474854	0.083252	-0.602539
434.0	9.594288	-0.042095	2.79934	0.00814	0.001199	0.000287	-0.477051	0.081055	-0.609375
435.0	9.612944	-0.042198	2.837389	0.00814	0.001199	0.000287	-0.472412	0.076416	-0.597412
436.0	9.615107	-0.059508	2.82056	0.005754	0.000904	0.000904	-0.477051	0.080811	-0.602295
437.0	9.633832	-0.059667	2.858371	0.008224	-0.003478	0.00029	-0.474854	0.080811	-0.600098
438.0	9.640274	-0.025546	2.824027	0.006619	0.003155	0.004018	-0.474854	0.081055	-0.602295
439.0	9.643367	-0.008337	2.807295	0.009459	0.005857	-0.002467	-0.472412	0.078857	-0.599854
440.0	9.619043	-0.007575	2.804223	0.001796	0.009981	0.004269	-0.479492	0.083008	-0.604736
441.0	9.632001	-0.007635	2.877292	0.002099	0.011586	0.000357	-0.470459	0.083252	-0.5979
442.0	9.60977	-0.024437	2.857625	-0.000287	0.011291	0.000973	-0.477051	0.078613	-0.604492
443.0	9.590852	-0.024343	2.820507	-0.000355	0.005812	0.002932	-0.472656	0.081055	-0.604736
444.0	9.636678	-0.008588	2.845712	0.003013	0.00642	0.004453	-0.476807	0.076416	-0.604492
445.0	9.614635	-0.025438	2.825424	0.005787	0.003643	-7.2e-05	-0.472656	0.081055	-0.602295
446.0	9.619888	-0.025728	2.791946	0.00445	0.00914	0.000722	-0.479248	0.078613	-0.599854
447.0	9.573644	-0.04178	2.768178	0.006684	0.008633	0.002064	-0.477051	0.080811	-0.600098
448.0	9.610777	-0.042569	2.844714	0.004112	0.004796	0.005615	-0.470215	0.081055	-0.600098
449.0	9.596218	0.009142	2.789925	0.004568	0.007203	-0.000254	-0.470215	0.078857	-0.597656
450.0	9.592795	-0.007611	2.807733	0.004839	0.006067	-0.003187	-0.470459	0.083252	-0.604736
451.0	9.589367	-0.024148	2.825556	0.008358	0.007478	-0.00362	-0.474609	0.078613	-0.597656
452.0	9.590234	0.01062	2.82586	0.002148	0.004169	0.00134	-0.474854	0.080811	-0.593018
453.0	9.611013	-0.006778	2.847159	0.006328	0.001371	-0.005936	-0.475098	0.085449	-0.5979
454.0	9.636207	-0.058763	2.834649	0.002724	0.004637	-0.005505	-0.481689	0.083008	-0.604736
455.0	9.613022	-0.023022	2.830929	0.00719	0.003622	-0.002821	-0.477051	0.078613	-0.599854
456.0	9.65787	-0.041056	2.856195	0.008171	0.003937	-0.000683	-0.475098	0.085449	-0.607178
457.0	9.658773	-0.006303	2.856353	0.006919	0.004758	0.000113	-0.472656	0.081055	-0.602295
458.0	9.642186	-0.023283	2.802024	0.005818	0.006381	-0.001047	-0.472412	0.078857	-0.602295
459.0	9.636492	-0.022473	2.836931	0.00937	0.010529	-0.002457	-0.477051	0.083008	-0.600098
460.0	9.641598	-0.022377	2.804055	0.005918	0.014596	-0.003983	-0.479248	0.080811	-0.606934
461.0	9.609382	-0.003655	2.852666	0.000602	0.01628	0.003111	-0.470215	0.078857	-0.604492
462.0	9.605654	-0.020759	2.871458	-0.002459	0.017273	-0.002325	-0.472412	0.078857	-0.599854
463.0	9.630518	-0.073207	2.860152	1.3e-05	0.012891	-0.002936	-0.472656	0.081055	-0.604736
464.0	9.585167	-0.054525	2.836617	-0.001208	0.01645	-0.003118	-0.472656	0.081055	-0.602295
465.0	9.557418	-0.070402	2.851274	0.00267	0.012049	-0.006479	-0.472412	0.078857	-0.599854
466.0	9.581232	-0.07038	2.856116	0.010741	0.00777	-0.00422	-0.472656	0.081055	-0.600098
467.0	9.629262	-0.071085	2.864434	0.016425	0.003196	-0.001349	-0.472656	0.083252	-0.602539
468.0	9.634622	-0.070969	2.830817	0.017436	0.006249	-0.000187	-0.470215	0.078857	-0.602295
469.0	9.616795	-0.035594	2.793417	0.022118	0.011512	-0.001408	-0.475098	0.085449	-0.602539
470.0	9.628521	-0.069073	2.866971	0.021017	0.013133	-0.002566	-0.472412	0.078857	-0.599854
471.0	9.631389	-0.05165	2.851113	0.01793	0.014313	0.005868	-0.474609	0.078613	-0.597656
472.0	9.658402	-0.035054	2.838983	0.020829	0.009593	0.000374	-0.474609	0.076416	-0.597412
473.0	9.607644	-0.01563	2.849178	0.017376	0.013658	-0.001155	-0.470215	0.081055	-0.604736
474.0	9.629054	0.001693	2.871414	0.016001	0.016417	0.000618	-0.477051	0.083252	-0.607178
475.0	9.607771	0.019715	2.851862	0.013615	0.016123	0.001229	-0.472656	0.081055	-0.602295
476.0	9.605092	0.037408	2.87016	0.008965	0.013598	0.001471	-0.472412	0.078857	-0.604492
477.0	9.603706	0.003278	2.871717	0.012878	0.01193	-0.002861	-0.474854	0.081055	-0.602295
478.0	9.556407	-0.046707	2.848562	0.011778	0.01355	-0.004022	-0.472656	0.081055	-0.602295
479.0	9.593141	-0.046338	2.925762	0.009514	0.011319	-0.00439	-0.472412	0.078857	-0.606934
480.0	9.583117	-0.028893	2.837513	0.015382	0.010284	-0.00444	-0.474854	0.081055	-0.602295
481.0	9.578552	-0.07958	2.855992	0.01648	0.008662	-0.003275	-0.474854	0.081055	-0.602295
482.0	9.584879	-0.044714	2.822387	0.015502	0.008345	-0.005414	-0.477051	0.078613	-0.604492
483.0	9.631812	-0.07963	2.83141	0.017732	0.007839	-0.004063	-0.477051	0.080811	-0.604736
484.0	9.638166	-0.044574	2.797726	0.023752	0.007601	-0.006065	-0.472656	0.081055	-0.604736
485.0	9.657439	-0.009314	2.836263	0.01733	0.010916	-0.000152	-0.470215	0.081055	-0.600098
486.0	9.640827	-0.026341	2.782676	0.020445	0.015401	0.003337	-0.474365	0.072021	-0.602051
487.0	9.634797	-0.025317	2.818337	0.018523	0.0175	-0.00192	-0.481445	0.078613	-0.604492
488.0	9.631007	-0.041524	2.837275	0.020905	0.017791	-0.002521	-0.468018	0.078857	-0.604492
489.0	9.60644	-0.040253	2.834972	0.015981	0.016409	0.000646	-0.479248	0.080811	-0.602295
490.0	9.585199	-0.022117	2.815329	0.019617	0.015877	-0.000745	-0.479248	0.076416	-0.602295
491.0	9.606559	-0.004828	2.837579	0.014693	0.014496	0.00242	-0.477051	0.080811	-0.602295
492.0	9.606184	-0.004721	2.838851	0.010048	0.011974	0.002652	-0.476807	0.076416	-0.609131
493.0	9.635458	-0.005563	2.810147	0.015157	0.016883	-0.003441	-0.472412	0.07666	-0.604492
494.0	9.661441	-0.023043	2.798664	0.009506	0.011308	-0.004372	-0.472656	0.081055	-0.604736
495.0	9.617247	0.030468	2.774254	0.009537	0.014042	-0.00535	-0.477295	0.085449	-0.602539
496.0	9.662595	0.047791	2.800758	0.003069	0.021818	-0.013319	-0.470215	0.081055	-0.604736
497.0	9.634665	0.032817	2.815855	-0.002581	0.016242	-0.014251	-0.472656	0.083252	-0.602539
498.0	9.642105	0.016033	2.766715	-0.009391	0.019691	-0.017331	-0.477051	0.080811	-0.600098
499.0	9.588718	0.054195	2.794367	-0.001932	0.022157	-0.023039	-0.472656	0.081055	-0.602295
500.0	9.618709	0.089979	2.766272	0.006531	0.027677	-0.02758	-0.472412	0.07666	-0.606934
501.0	9.640514	0.144139	2.789678	0.00505	0.035107	-0.025807	-0.470215	0.081055	-0.609375
502.0	9.741406	0.14367	2.775268	-0.000792	0.03887	-0.026739	-0.474854	0.081055	-0.602295
503.0	9.834496	0.07455	2.796658	-0.006015	0.051498	-0.023573	-0.467773	0.07666	-0.602295
504.0	9.870136	-0.009628	2.862377	0.00344	0.06007	-0.026922	-0.472412	0.078857	-0.609131
505.0	9.770294	-0.072977	2.8529	0.031692	0.059262	-0.029194	-0.470459	0.085449	-0.602539
506.0	9.711473	-0.084306	2.901643	0.061543	0.054775	-0.022286	-0.472412	0.078857	-0.604492
507.0	9.620391	-0.043939	2.855968	0.083575	0.050674	-0.01961	-0.468018	0.078857	-0.606934
508.0	9.556795	0.012588	2.796823	0.08646	0.051627	-0.013134	-0.472412	0.076416	-0.602295
509.0	9.484254	0.173564	2.80439	0.087325	0.059333	-0.011913	-0.468018	0.078857	-0.604492
510.0	9.517469	0.261266	2.762109	0.078107	0.070896	-0.003451	-0.467773	0.074463	-0.602051
511.0	9.43776	0.387337	2.805113	0.073607	0.069147	-0.005149	-0.467773	0.07666	-0.606934
512.0	9.436765	0.423929	2.810601	0.058015	0.065482	0.000171	-0.472412	0.07666	-0.604492
513.0	9.437513	0.407539	2.799571	0.051769	0.05947	0.006056	-0.470215	0.081055	-0.602295
514.0	9.540873	0.508501	2.78525	0.042131	0.047391	0.012317	-0.467773	0.07666	-0.609131
515.0	9.554782	0.523325	2.704659	0.02636	0.055803	0.016616	-0.468018	0.078857	-0.611572
516.0	9.548226	0.436323	2.728049	0.012445	0.045516	0.018173	-0.470215	0.07666	-0.609131
517.0	9.628483	0.328156	2.678397	0.008327	0.032512	0.01544	-0.468018	0.078857	-0.602295
518.0	9.640554	0.359986	2.612723	0.014479	0.030323	0.012529	-0.472168	0.072021	-0.608887
519.0	9.61668	0.394344	2.610767	0.007817	0.031816	0.008426	-0.472412	0.07666	-0.609131
520.0	9.603168	0.478992	2.556978	0.004838	0.03383	0.014866	-0.468018	0.078857	-0.606934
521.0	9.582774	0.529234	2.537967	-0.004989	0.033827	0.020118	-0.470215	0.081055	-0.606934
522.0	9.582947	0.561415	2.540729	-0.012409	0.036837	0.02382	-0.470215	0.081055	-0.609375
523.0	9.63627	0.556431	2.518815	-0.024486	0.034607	0.028676	-0.465576	0.07666	-0.604492
524.0	9.694099	0.602216	2.479046	-0.032871	0.03729	0.030234	-0.468018	0.078857	-0.606934
525.0	9.723364	0.596743	2.453508	-0.051858	0.043159	0.031972	-0.467773	0.074463	-0.606689
526.0	9.697821	0.679813	2.469533	-0.055129	0.050715	0.027519	-0.46582	0.078857	-0.609131
527.0	9.647268	0.728957	2.482001	-0.073637	0.04338	0.027288	-0.46582	0.081055	-0.611572
528.0	9.624904	0.707334	2.465763	-0.092234	0.043431	0.026116	-0.461182	0.081055	-0.611572
529.0	9.587798	0.704461	2.534175	-0.102759	0.041938	0.026339	-0.463623	0.081055	-0.609375
530.0	9.632965	0.62889	2.548311	-0.116526	0.035171	0.024979	-0.463623	0.081055	-0.618652
531.0	9.603583	0.572762	2.565725	-0.119907	0.034539	0.023483	-0.459229	0.085449	-0.614014
532.0	9.571724	0.534175	2.599375	-0.123212	0.026517	0.02292	-0.463623	0.083252	-0.611816
533.0	9.538679	0.547386	2.648164	-0.127737	0.009199	0.025023	-0.463867	0.089844	-0.612061
534.0	9.535142	0.524302	2.666297	-0.133808	-0.003436	0.029896	-0.461426	0.083252	-0.616455
535.0	9.530925	0.466696	2.683195	-0.132782	-0.021649	0.02299	-0.466064	0.089844	-0.612061
536.0	9.527154	0.408956	2.698305	-0.126494	-0.03765	0.033876	-0.463867	0.089844	-0.612061
537.0	9.433485	0.439956	2.677181	-0.113447	-0.04796	0.034032	-0.461426	0.083252	-0.607178
538.0	9.438728	0.450526	2.655411	-0.111432	-0.062155	0.040228	-0.470947	0.094238	-0.609863
539.0	9.465757	0.477193	2.654091	-0.117732	-0.065487	0.045199	-0.463867	0.092041	-0.607422
540.0	9.432888	0.505292	2.711506	-0.12846	-0.077936	0.049336	-0.466309	0.092041	-0.614258
541.0	9.501487	0.49501	2.750909	-0.139563	-0.092949	0.045457	-0.466309	0.092041	-0.602783
542.0	9.503234	0.539	2.75902	-0.146732	-0.109612	0.03726	-0.466309	0.094238	-0.607422
543.0	9.528136	0.548113	2.770475	-0.157734	-0.11369	0.029647	-0.466309	0.094238	-0.607422
544.0	9.538523	0.576267	2.726517	-0.161726	-0.115866	0.009288	-0.466309	0.092041	-0.607422
545.0	9.510415	0.537771	2.746693	-0.182916	-0.104179	-0.00562	-0.464111	0.096436	-0.59375
546.0	9.510579	0.46464	2.738189	-0.20435	-0.085899	-0.019409	-0.468994	0.103027	-0.60083
547.0	9.524919	0.374168	2.786241	-0.221986	-0.067317	-0.036506	-0.466553	0.10083	-0.59375
548.0	9.62253	0.368627	2.798112	-0.220223	-0.044629	-0.048499	-0.464355	0.103027	-0.60083
549.0	9.76884	0.310923	2.802246	-0.236807	-0.027667	-0.064354	-0.4646	0.105225	-0.60083
550.0	9.908931	0.167483	2.823667	-0.265957	-0.004558	-0.072949	-0.466797	0.105225	-0.598633
551.0	10.026832	0.094521	2.843407	-0.263115	0.009093	-0.082778	-0.466797	0.103027	-0.598633
552.0	10.267218	0.000476	2.866722	-0.268957	0.014367	-0.073203	-0.462158	0.105225	-0.60083
553.0	10.390976	0.133037	2.893011	-0.259926	0.034939	-0.049182	-0.4646	0.107422	-0.601074
554.0	10.430821	0.091365	2.93959	-0.293307	0.060231	-0.01333	-0.467041	0.111816	-0.601074
555.0	10.325914	-0.035751	2.944467	-0.317138	0.086694	0.020151	-0.460205	0.109619	-0.601074
556.0	10.161891	-0.217593	2.991526	-0.324382	0.100802	0.041932	-0.467041	0.109619	-0.603516
557.0	10.087333	-0.487452	2.928674	-0.349398	0.113153	0.064233	-0.460449	0.116211	-0.59668
558.0	10.054708	-0.642186	2.930532	-0.362593	0.152048	0.080314	-0.462646	0.116211	-0.605957
559.0	9.958009	-0.782415	3.012729	-0.366933	0.198261	0.088191	-0.460449	0.118408	-0.601318
560.0	9.786253	-0.777773	2.985267	-0.368752	0.232662	0.096211	-0.460449	0.118408	-0.60376
561.0	9.581518	-0.842746	2.985163	-0.380349	0.2392	0.099932	-0.458496	0.120605	-0.60376
562.0	9.254232	-1.056175	2.937021	-0.377056	0.249418	0.095982	-0.454102	0.125244	-0.596924
563.0	8.914644	-1.297507	2.810756	-0.366602	0.220423	0.087145	-0.449707	0.127441	-0.601807
564.0	8.672109	-1.540332	2.696909	-0.327388	0.190158	0.07692	-0.454346	0.131836	-0.606445
565.0	8.515277	-1.754091	2.665437	-0.297359	0.134002	0.057759	-0.449707	0.129639	-0.601807
566.0	8.567029	-1.875541	2.479044	-0.231415	0.058321	0.040984	-0.449707	0.131836	-0.604248
567.0	8.963155	-1.838246	2.361824	-0.145641	-0.036261	0.032393	-0.445557	0.138428	-0.592773
568.0	9.419325	-1.780901	2.198796	-0.08678	-0.087821	0.035412	-0.449951	0.138428	-0.599854
569.0	9.950616	-1.658319	2.050355	-0.034489	-0.124861	0.053317	-0.449707	0.131836	-0.597168
570.0	10.385074	-1.396567	1.924832	0.037109	-0.146678	0.077638	-0.451904	0.129639	-0.592529
571.0	10.683266	-1.069654	1.881542	0.059696	-0.154464	0.124351	-0.45459	0.13623	-0.595215
572.0	10.803951	-0.894994	1.81348	0.028658	-0.123902	0.16619	-0.452637	0.14502	-0.602295
573.0	10.693413	-0.837067	1.752309	-0.009408	-0.070305	0.204366	-0.454834	0.142822	-0.600098
574.0	10.430842	-0.725375	1.726002	-0.004415	-0.003523	0.227863	-0.450195	0.140625	-0.595215
575.0	10.169809	-0.554707	1.851202	-0.007283	0.057297	0.224972	-0.45459	0.13623	-0.595215
576.0	9.808947	-0.631502	1.895245	-0.029028	0.113481	0.221406	-0.445557	0.140625	-0.595215
577.0	9.678389	-0.758263	2.018148	-0.04413	0.145819	0.202389	-0.450439	0.14502	-0.595459
578.0	9.559803	-0.929053	2.055176	-0.041023	0.176	0.180633	-0.446045	0.149414	-0.600342
579.0	9.417686	-1.010637	2.113566	-0.033045	0.211465	0.157833	-0.445801	0.147217	-0.595459
580.0	9.304864	-1.038533	2.165794	-0.019056	0.238476	0.135412	-0.445801	0.14502	-0.602295
581.0	9.200333	-1.10443	2.288425	0.000167	0.234039	0.121989	-0.445801	0.14502	-0.597656
582.0	9.208709	-1.102702	2.365737	0.028386	0.212528	0.114805	-0.441406	0.147217	-0.604736
583.0	9.259555	-1.079022	2.362107	0.046434	0.174637	0.104148	-0.437012	0.147217	-0.600098
584.0	9.327099	-1.015304	2.291355	0.068523	0.159382	0.08829	-0.445801	0.14502	-0.602295
585.0	9.335576	-0.865539	2.301502	0.080625	0.164189	0.075306	-0.432129	0.142822	-0.604736
586.0	9.323276	-0.779545	2.267634	0.083977	0.151289	0.06707	-0.434814	0.149414	-0.609619
587.0	9.404943	-0.734316	2.249001	0.075164	0.130891	0.051508	-0.438965	0.142822	-0.602295
588.0	9.475551	-0.767358	2.133695	0.074105	0.119155	0.040599	-0.437012	0.149414	-0.607178
589.0	9.584511	-0.738294	2.10007	0.066235	0.118411	0.026327	-0.43457	0.142822	-0.602295
590.0	9.603705	-0.825822	2.094443	0.054484	0.127416	0.01412	-0.432373	0.147217	-0.602539
591.0	9.670487	-0.916481	2.099488	0.059415	0.130747	0.012125	-0.427734	0.14502	-0.604736
592.0	9.64191	-0.99935	2.085183	0.071479	0.13411	0.010194	-0.432373	0.14502	-0.604736
593.0	9.6086	-1.100457	2.086699	0.084542	0.129765	0.020118	-0.429932	0.140625	-0.606934
594.0	9.563137	-1.221903	2.137651	0.111934	0.128236	0.029372	-0.425537	0.142822	-0.606934
595.0	9.517502	-1.343384	2.188632	0.145505	0.119126	0.037111	-0.429932	0.140625	-0.604492
596.0	9.431287	-1.408392	2.215394	0.195742	0.102969	0.045024	-0.42334	0.14502	-0.609375
597.0	9.34316	-1.507609	2.238336	0.231352	0.068353	0.056742	-0.425293	0.140625	-0.604492
598.0	9.361258	-1.53734	2.143692	0.27961	0.02954	0.062221	-0.425537	0.142822	-0.604736
599.0	9.419806	-1.521604	2.110478	0.31895	-0.000163	0.071181	-0.425293	0.138428	-0.606934
600.0	9.493848	-1.554652	1.988914	0.35566	-0.010838	0.080122	-0.422852	0.131836	-0.606689
601.0	9.58902	-1.573882	1.890599	0.378705	-0.006994	0.082829	-0.425049	0.131836	-0.606689
602.0	9.685435	-1.598609	1.899656	0.398496	0.001776	0.082359	-0.422852	0.134033	-0.613525
603.0	9.774371	-1.623698	1.94305	0.418823	-0.004432	0.078209	-0.427246	0.129639	-0.608887
604.0	9.864396	-1.557804	1.900017	0.445635	-0.012001	0.069136	-0.424805	0.125244	-0.606445
605.0	9.99498	-1.547177	1.881182	0.444604	-0.025604	0.065306	-0.422363	0.123047	-0.608643
606.0	9.995449	-1.507173	1.780628	0.460805	-0.017139	0.054392	-0.422119	0.118652	-0.606201
607.0	9.970868	-1.359084	1.60428	0.483491	-0.029461	0.039702	-0.426758	0.118652	-0.608398
608.0	10.026783	-1.322224	1.478782	0.471832	-0.029698	0.034791	-0.424561	0.118652	-0.608398
609.0	10.03508	-1.282228	1.343295	0.486669	-0.013196	0.024128	-0.415527	0.118652	-0.60376
610.0	10.068632	-1.244868	1.320861	0.464909	0.00657	0.004794	-0.419922	0.116455	-0.605957
611.0	10.28086	-1.254138	1.269197	0.44298	0.029894	-0.003445	-0.421875	0.109863	-0.608154
612.0	10.40181	-1.221988	1.305237	0.423537	0.053484	-0.01242	-0.417236	0.105469	-0.60791
613.0	10.693862	-1.374081	1.528428	0.354186	0.117681	-0.0187	-0.417236	0.107666	-0.612549
614.0	11.099331	-1.270669	2.221558	0.3296	0.182135	-0.00747	-0.416992	0.103271	-0.612549
615.0	11.47925	-0.764669	3.029647	0.274632	0.231757	0.013501	-0.414795	0.103271	-0.612549
616.0	11.624148	-0.298851	3.52038	0.190886	0.205896	0.046533	-0.4104	0.105469	-0.610352
617.0	11.487971	0.143302	3.6937	0.123893	0.161555	0.088123	-0.419189	0.101074	-0.614746
618.0	10.923918	0.157322	3.527022	0.046883	0.122799	0.098026	-0.415039	0.105469	-0.617188
619.0	10.375174	-0.018572	3.453394	0.006087	0.095652	0.062419	-0.410156	0.101074	-0.614746
620.0	9.848481	-0.328444	3.457025	0.022894	0.080885	0.006213	-0.409912	0.094482	-0.614502
621.0	9.539683	-0.664345	3.489038	0.105318	-0.008166	-0.043962	-0.414795	0.103271	-0.60791
622.0	9.632444	-1.302663	3.439295	0.148274	-0.101616	-0.069534	-0.412354	0.098877	-0.614746
623.0	10.046046	-1.875613	3.334837	0.302115	-0.120824	-0.046163	-0.414551	0.094482	-0.609863
624.0	10.414822	-1.88208	3.59237	0.463637	-0.113057	0.012908	-0.412109	0.090088	-0.609619
625.0	10.450354	-1.681341	3.611254	0.565896	-0.035133	0.106092	-0.412109	0.090088	-0.612061
626.0	10.105811	-1.369545	3.669089	0.653693	0.037733	0.182548	-0.411865	0.087891	-0.614258
627.0	9.677077	-0.644372	3.987558	0.703189	0.079398	0.239705	-0.405029	0.085693	-0.614258
628.0	8.993913	0.116986	4.220129	0.661441	0.114328	0.272862	-0.409668	0.083496	-0.618652
629.0	8.460685	0.82984	4.337879	0.633283	0.097231	0.259845	-0.407227	0.081299	-0.614014
630.0	8.338742	1.420398	4.388859	0.55875	0.062643	0.248884	-0.40918	0.076904	-0.62085
631.0	8.431947	1.712897	4.401601	0.497391	0.071842	0.198452	-0.406982	0.074707	-0.615967
632.0	8.654232	1.850773	4.352077	0.406592	0.096308	0.152697	-0.404785	0.074707	-0.61377
633.0	8.810998	1.758724	4.18827	0.310326	0.131402	0.105893	-0.406982	0.076904	-0.618408
634.0	8.948131	1.395981	4.123591	0.220819	0.162986	0.062158	-0.406982	0.076904	-0.625488
635.0	9.120177	0.882331	4.176875	0.159088	0.170727	0.020647	-0.404541	0.070313	-0.615967
636.0	9.337181	0.377794	4.153036	0.132927	0.145378	-0.024761	-0.404785	0.074707	-0.625488
637.0	9.625666	-0.118038	4.053026	0.121574	0.060938	-0.072909	-0.4021	0.068115	-0.620605
638.0	9.845165	-0.184194	3.957423	0.169215	0.002533	-0.105314	-0.397705	0.068115	-0.618164
639.0	10.176106	-0.008722	3.891621	0.190977	-0.08847	-0.140881	-0.399902	0.070313	-0.622803
640.0	10.477156	0.113881	3.727566	0.213343	-0.121928	-0.159574	-0.402344	0.070313	-0.620605
641.0	10.367121	0.269045	3.497167	0.217853	-0.072136	-0.172497	-0.404297	0.068115	-0.615723
642.0	10.00596	0.428173	3.462178	0.232474	-0.007383	-0.185035	-0.4021	0.063721	-0.627197
643.0	9.648169	0.655633	3.425421	0.244996	0.032249	-0.188742	-0.399658	0.063721	-0.627197
644.0	9.417604	0.798924	3.358598	0.233972	0.034059	-0.194095	-0.399658	0.059326	-0.622559
645.0	9.397533	0.777267	3.216902	0.199501	0.005527	-0.192992	-0.403809	0.054932	-0.624756
646.0	9.372637	0.73963	3.092658	0.168523	0.006285	-0.212762	-0.401611	0.057129	-0.626953
647.0	9.111916	0.608366	3.08748	0.110877	0.083719	-0.206217	-0.399414	0.057129	-0.626953
648.0	8.450564	0.488509	3.2766	0.092684	0.160038	-0.211039	-0.392578	0.054932	-0.626953
649.0	7.693761	0.425929	3.652226	0.072903	0.170892	-0.203537	-0.399414	0.054932	-0.624756
650.0	7.219825	0.24536	3.784363	0.051042	0.086564	-0.191053	-0.399414	0.052734	-0.624512
651.0	7.23816	0.180357	3.693955	0.060011	-0.017054	-0.180848	-0.394775	0.052734	-0.619873
652.0	7.440293	0.248992	3.50244	0.046668	-0.042419	-0.17177	-0.392578	0.052734	-0.62915
653.0	7.653645	0.350594	3.470042	0.033525	-0.035286	-0.169952	-0.394775	0.050537	-0.619873
654.0	7.999553	0.405532	3.403721	0.025016	-0.057599	-0.16272	-0.39917	0.050537	-0.617432
655.0	8.4126	0.573199	3.285878	-0.002201	-0.051968	-0.167582	-0.39917	0.050537	-0.62207
656.0	8.712521	0.664779	3.203741	-0.035245	-0.037644	-0.164863	-0.398926	0.043945	-0.621826
657.0	8.867491	0.726371	3.091303	-0.07192	-0.01273	-0.163122	-0.394531	0.043945	-0.633545
658.0	8.999571	0.734678	2.962462	-0.080097	-0.021505	-0.151853	-0.401367	0.050537	-0.62207
659.0	9.1219	0.711392	2.86949	-0.105012	-0.035131	-0.134743	-0.394775	0.050537	-0.62915
660.0	9.24849	0.754934	2.768242	-0.119937	-0.0509	-0.114072	-0.39917	0.04834	-0.624512
661.0	9.445231	0.53104	2.659266	-0.165752	-0.06291	-0.087098	-0.392334	0.04834	-0.619873
662.0	9.511849	0.373992	2.47475	-0.151945	-0.036373	-0.066369	-0.396973	0.052734	-0.62915
663.0	9.602286	0.172329	2.392043	-0.174733	-0.015395	-0.05584	-0.394775	0.050537	-0.615234
664.0	9.773975	-0.044025	2.386096	-0.177564	0.010849	-0.058423	-0.397217	0.054932	-0.629395
665.0	9.846687	-0.107525	2.289114	-0.170896	0.056161	-0.058618	-0.39917	0.050537	-0.617432
666.0	9.870725	0.103184	2.316725	-0.173176	0.092034	-0.058955	-0.394775	0.052734	-0.626953
667.0	9.864254	0.298248	2.162761	-0.205259	0.099883	-0.054544	-0.390381	0.057129	-0.622314
668.0	9.65735	0.606965	2.218891	-0.22902	0.138506	-0.041805	-0.392822	0.057129	-0.626953
669.0	9.321522	0.797756	2.473159	-0.251432	0.171397	-0.038648	-0.392822	0.059326	-0.629395
670.0	9.023426	0.944697	2.670405	-0.258552	0.156198	-0.025927	-0.388184	0.054932	-0.629395
671.0	8.969005	0.959655	2.687976	-0.271905	0.107052	-0.019154	-0.38623	0.061523	-0.627197
672.0	9.003989	0.878151	2.642511	-0.302046	0.05272	-0.015622	-0.390625	0.059326	-0.622559
673.0	9.163454	0.941329	2.522335	-0.340145	0.012455	-0.025897	-0.388428	0.061523	-0.625
674.0	9.383832	1.014262	2.558838	-0.348279	0.013663	-0.045339	-0.384033	0.065918	-0.622803
675.0	9.529515	1.109691	2.593452	-0.352319	0.015739	-0.069772	-0.383789	0.059326	-0.627197
676.0	9.697029	1.218117	2.543804	-0.364355	0.001432	-0.091325	-0.38208	0.074707	-0.630127
677.0	9.903101	1.376187	2.447145	-0.384113	-0.005095	-0.109418	-0.379639	0.070313	-0.622803
678.0	9.985967	1.436757	2.326921	-0.411435	-0.005818	-0.124968	-0.381836	0.068115	-0.627441
679.0	10.008764	1.39892	2.232168	-0.429127	-0.040837	-0.125914	-0.38208	0.07251	-0.623047
680.0	10.196091	1.417881	1.992516	-0.4467	-0.101279	-0.130463	-0.384521	0.074707	-0.627686
681.0	10.523872	1.278808	1.7736	-0.488206	-0.143612	-0.126699	-0.384766	0.081299	-0.623291
682.0	10.726784	0.972832	1.527788	-0.498061	-0.12812	-0.121931	-0.380371	0.088135	-0.621338
683.0	10.931529	0.852077	1.595342	-0.49311	-0.083391	-0.121948	-0.382324	0.081299	-0.62793
684.0	11.313604	0.707356	1.657848	-0.505125	-0.041256	-0.125648	-0.380371	0.088135	-0.628174
685.0	11.848257	0.566579	2.119652	-0.491419	0.038483	-0.13035	-0.380371	0.088135	-0.632813
686.0	12.780794	0.232096	3.282853	-0.50776	0.12939	-0.150659	-0.376221	0.094727	-0.621582
687.0	13.672208	-0.882422	4.512336	-0.537579	0.173283	-0.209201	-0.378418	0.096924	-0.628418
688.0	13.828424	-2.423642	5.018338	-0.410667	0.12793	-0.319425	-0.376465	0.099121	-0.626221
689.0	13.069213	-2.502051	5.044701	-0.048657	0.036338	-0.431593	-0.374023	0.094727	-0.626221
690.0	11.752771	-1.413018	4.697983	0.210199	-0.042421	-0.448593	-0.373779	0.090332	-0.628174
691.0	10.820165	-0.304682	4.195297	0.33193	-0.054626	-0.36259	-0.375977	0.088135	-0.632813
692.0	9.998383	1.336039	3.63807	0.38211	-0.040304	-0.23057	-0.378174	0.088135	-0.630615
693.0	9.494327	2.433098	3.268968	0.149316	-0.082299	-0.083866	-0.378418	0.092529	-0.630615
694.0	9.225061	2.678107	3.046471	-0.093455	-0.062061	0.038293	-0.375977	0.090332	-0.628174
695.0	9.020672	2.739986	3.276317	-0.304956	-0.084308	0.103994	-0.383057	0.096924	-0.628418
696.0	9.167319	2.577331	3.314322	-0.517989	-0.135235	0.104862	-0.380859	0.096924	-0.628418
697.0	9.306529	2.064616	3.463412	-0.702501	-0.068025	0.0564	-0.376709	0.10791	-0.626709
698.0	8.926042	1.142343	3.738273	-0.832548	0.069011	-0.014448	-0.369873	0.10791	-0.631348
699.0	8.253794	-0.002336	4.131978	-0.884138	0.186394	-0.115907	-0.374512	0.10791	-0.617432
700.0	7.446218	-1.336779	4.526213	-0.89379	0.229671	-0.217603	-0.368164	0.121094	-0.636475
701.0	7.314409	-2.570144	4.745666	-0.80541	0.139533	-0.316899	-0.372803	0.123291	-0.634277
702.0	7.706664	-3.117866	4.75989	-0.66218	0.06954	-0.393361	-0.368408	0.125488	-0.636475
703.0	8.248526	-3.011389	4.742778	-0.507142	0.014564	-0.423614	-0.368408	0.123291	-0.622559
704.0	8.799534	-2.727187	4.506028	-0.391823	-0.014906	-0.399933	-0.375244	0.127686	-0.63208
705.0	9.24284	-2.236216	4.097741	-0.247978	0.000363	-0.334328	-0.368408	0.127686	-0.629639
706.0	9.480457	-1.530742	3.890794	-0.158894	0.050781	-0.233803	-0.37085	0.129883	-0.629883
707.0	9.213836	-0.96739	3.860986	-0.111121	0.11844	-0.104961	-0.37085	0.13208	-0.629883
708.0	8.784656	-0.72938	4.15243	-0.104316	0.15562	0.030928	-0.37085	0.13208	-0.629883
709.0	8.269084	-0.567544	4.380865	-0.068691	0.104516	0.127883	-0.37085	0.13208	-0.63208
710.0	7.979874	-0.5193	4.420361	-0.077919	-0.024742	0.188855	-0.368896	0.138916	-0.632324
711.0	8.070103	-0.685039	4.265446	-0.069516	-0.160534	0.216065	-0.366699	0.138916	-0.630127
712.0	8.318974	-0.728374	4.093182	-0.021383	-0.287384	0.206831	-0.366455	0.134521	-0.632324
713.0	8.575417	-0.718144	3.897088	-0.019658	-0.377542	0.198248	-0.371338	0.143311	-0.625732
714.0	8.690564	-0.740607	3.657269	-0.018947	-0.392667	0.19511	-0.371094	0.138672	-0.623047
715.0	8.754492	-0.705911	3.6224	0.01345	-0.362498	0.197899	-0.369141	0.145508	-0.618652
716.0	8.702587	-0.65099	3.546086	0.03612	-0.321777	0.218468	-0.373779	0.145508	-0.623291
717.0	8.704705	-0.664957	3.445687	0.059108	-0.321628	0.241766	-0.378174	0.143066	-0.62085
718.0	8.812063	-0.759726	3.206211	0.06895	-0.318113	0.264253	-0.378418	0.147705	-0.628174
719.0	8.896351	-0.940549	2.939399	0.082675	-0.312506	0.263798	-0.378662	0.154297	-0.616699
720.0	9.084198	-0.955836	2.77745	0.106938	-0.3021	0.253421	-0.380859	0.154053	-0.619141
721.0	9.068076	-0.984671	2.624526	0.092871	-0.237189	0.229638	-0.378418	0.1521	-0.621338
722.0	9.017338	-0.933146	2.634188	0.106896	-0.163065	0.208549	-0.376465	0.158691	-0.619141
723.0	8.884784	-0.947243	2.664307	0.104088	-0.098232	0.182908	-0.376221	0.154297	-0.614502
724.0	8.839142	-0.963359	2.753479	0.128402	-0.074507	0.160695	-0.374268	0.156494	-0.626221
725.0	8.888549	-0.940173	2.759595	0.142114	-0.094125	0.138992	-0.378662	0.158691	-0.614502
726.0	9.027129	-0.965357	2.69403	0.16228	-0.086893	0.116008	-0.376465	0.156494	-0.609863
727.0	9.040651	-0.916107	2.641138	0.19041	-0.058226	0.090596	-0.383057	0.154053	-0.619141
728.0	9.025028	-1.036594	2.576802	0.188704	-0.047025	0.081268	-0.378662	0.156494	-0.619141
729.0	8.970433	-1.204211	2.452256	0.20159	-0.00309	0.071176	-0.376709	0.163086	-0.619385
730.0	8.995178	-1.376915	2.420856	0.216199	0.04446	0.05557	-0.381104	0.158691	-0.616943
731.0	9.028037	-1.430781	2.488324	0.269936	0.071061	0.044235	-0.376465	0.158691	-0.619141
732.0	9.139157	-1.445826	2.434504	0.286481	0.065313	0.03412	-0.374268	0.156494	-0.619141
733.0	9.230935	-1.402341	2.25361	0.336435	0.047055	0.014066	-0.374023	0.154297	-0.621338
734.0	9.466306	-1.363217	2.10372	0.364785	0.044666	0.002425	-0.376221	0.154297	-0.625977
735.0	9.663641	-1.372381	1.893393	0.391114	0.082532	-0.012314	-0.376221	0.154297	-0.621338
736.0	9.789515	-1.331781	1.903298	0.417492	0.139399	-0.032921	-0.369385	0.149902	-0.625977
737.0	9.936289	-1.201008	1.836083	0.455172	0.185401	-0.057818	-0.369385	0.147705	-0.618896
738.0	9.96235	-1.013147	1.869681	0.505394	0.219685	-0.087614	-0.367188	0.1521	-0.628174
739.0	9.989459	-0.909004	1.994837	0.503852	0.268089	-0.112893	-0.366943	0.147705	-0.625732
740.0	9.743286	-0.897324	2.094422	0.507812	0.27755	-0.134828	-0.36499	0.149902	-0.625977
741.0	9.444833	-0.623476	2.335094	0.51573	0.207474	-0.137578	-0.366943	0.145508	-0.632568
742.0	9.274537	-0.316861	2.557427	0.496884	0.090359	-0.136654	-0.362305	0.143311	-0.625732
743.0	9.216678	-0.203615	2.600053	0.468013	-0.024685	-0.13869	-0.366699	0.136719	-0.630127
744.0	9.063973	-0.193426	2.505281	0.456108	-0.107907	-0.153896	-0.364258	0.136719	-0.627686
745.0	8.905876	-0.184776	2.328058	0.44979	-0.246107	-0.168567	-0.37085	0.13208	-0.627441
746.0	9.117502	-0.462399	2.053036	0.467874	-0.437921	-0.175067	-0.373291	0.13208	-0.627441
747.0	9.494977	-0.818292	1.590434	0.508214	-0.592128	-0.167369	-0.37085	0.13208	-0.625244
748.0	9.98095	-1.406601	1.060148	0.545348	-0.69337	-0.142608	-0.377441	0.123291	-0.622559
749.0	10.820035	-2.004324	0.60126	0.575471	-0.698717	-0.089066	-0.377441	0.123291	-0.61792
750.0	11.604327	-2.306892	0.384699	0.634364	-0.58201	-0.008147	-0.381836	0.121094	-0.608643
751.0	12.626511	-2.129202	0.717647	0.679676	-0.341932	0.085833	-0.379395	0.118896	-0.617676
752.0	14.133938	-1.084739	2.266637	0.659866	0.004104	0.217855	-0.379395	0.121094	-0.613281
753.0	15.505456	0.826849	4.272888	0.560652	0.333393	0.411498	-0.379395	0.118896	-0.613037
754.0	15.762909	3.768092	5.696302	0.44372	0.288205	0.64371	-0.377197	0.121094	-0.627197
755.0	14.265336	5.723155	5.72468	0.143796	-0.013329	0.861616	-0.379883	0.127686	-0.618164
756.0	11.96422	4.236043	4.399468	-0.290872	-0.094636	0.912484	-0.377686	0.134277	-0.618408
757.0	10.165661	1.400823	3.910917	-0.435636	0.148181	0.739036	-0.375977	0.143066	-0.62085
758.0	8.937881	-0.818709	4.629096	-0.397989	0.259733	0.501078	-0.371338	0.140869	-0.62085
759.0	8.313811	-1.764629	5.223565	-0.17205	0.167095	0.270201	-0.375977	0.147461	-0.616455
760.0	8.008576	-1.556746	5.261139	0.04298	0.095148	0.119012	-0.373779	0.145264	-0.618652
761.0	8.110465	-1.301904	5.057979	0.128264	0.031728	0.059895	-0.375977	0.145264	-0.618652
762.0	8.60762	-1.047351	4.882896	0.19414	0.052544	0.078272	-0.371582	0.147705	-0.616455
763.0	8.894839	-0.459812	4.590044	0.276398	0.151004	0.134552	-0.369141	0.145508	-0.621094
764.0	8.91903	0.141113	4.355669	0.240208	0.295156	0.206565	-0.373779	0.147705	-0.625732
765.0	8.987463	0.589607	4.345213	0.191762	0.365352	0.262423	-0.369385	0.149902	-0.623535
766.0	9.223025	0.915929	4.577145	0.107537	0.333421	0.280266	-0.366943	0.145508	-0.621094
767.0	9.602186	1.120918	4.271614	0.043589	0.10955	0.238764	-0.364746	0.145508	-0.623291
768.0	10.241107	1.564482	3.898288	-0.036025	0.019426	0.150721	-0.367188	0.149902	-0.621338
769.0	10.55584	1.593715	3.632886	-0.176901	0.064341	0.039721	-0.367188	0.1521	-0.630615
770.0	10.13835	1.297952	3.51199	-0.237048	0.188808	-0.086312	-0.362549	0.149902	-0.632813
771.0	9.340405	1.267312	3.683033	-0.287951	0.256369	-0.189059	-0.363037	0.158691	-0.623779
772.0	8.6729	0.933348	3.854076	-0.380342	0.221093	-0.246825	-0.360596	0.154297	-0.630615
773.0	8.385688	0.32381	3.945734	-0.387944	0.150082	-0.283254	-0.365234	0.158691	-0.623779
774.0	8.251629	-0.043855	3.882663	-0.364596	0.076763	-0.287535	-0.363037	0.160889	-0.633301
775.0	8.283338	0.050403	3.870155	-0.301477	0.004382	-0.283337	-0.363037	0.160889	-0.626221
776.0	8.310758	0.364375	3.712722	-0.264867	-0.059888	-0.262049	-0.363037	0.160889	-0.626221
777.0	8.598177	0.240576	3.425566	-0.290047	-0.112823	-0.231132	-0.363281	0.163086	-0.626465
778.0	8.736984	-0.062345	3.20167	-0.288048	-0.066119	-0.200898	-0.365234	0.160889	-0.624023
779.0	8.503596	-0.563557	3.136728	-0.275007	-0.001184	-0.178165	-0.36792	0.16748	-0.624268
780.0	8.124907	-0.897915	3.191529	-0.222395	0.042152	-0.160573	-0.368164	0.174072	-0.626709
781.0	7.827331	-0.976354	3.270714	-0.152578	0.041446	-0.160531	-0.36792	0.16748	-0.624268
782.0	7.712733	-0.894054	3.241337	-0.110667	0.010079	-0.164174	-0.363525	0.171875	-0.617432
783.0	7.774126	-0.613389	3.137018	-0.051154	0.023681	-0.177291	-0.365723	0.169678	-0.628906
784.0	7.854042	-0.400336	3.044155	-0.027971	0.084788	-0.179878	-0.368164	0.174072	-0.624512
785.0	7.819214	-0.036433	3.137255	0.008251	0.16366	-0.179181	-0.363281	0.16748	-0.621826
786.0	7.944836	0.169078	3.368311	-0.004512	0.182698	-0.166036	-0.363525	0.169678	-0.631348
787.0	8.192539	0.462253	3.305177	-0.012176	0.15487	-0.15504	-0.36084	0.163086	-0.628662
788.0	8.671495	0.779068	3.223743	-0.051844	0.127938	-0.139896	-0.365723	0.16748	-0.628906
789.0	8.931811	1.087953	3.215268	-0.100008	0.126419	-0.118918	-0.363281	0.165283	-0.628662
790.0	8.937495	1.366443	3.112963	-0.109636	0.135201	-0.091457	-0.354248	0.16748	-0.631104
791.0	8.787721	1.512428	3.119549	-0.13476	0.094267	-0.048798	-0.361084	0.169678	-0.635986
792.0	8.632239	1.409657	3.021412	-0.177048	-0.001545	-0.022596	-0.356445	0.165283	-0.628662
793.0	8.816754	1.065593	2.844634	-0.227506	-0.116496	-0.019721	-0.356689	0.16748	-0.633545
794.0	9.181874	0.694859	2.541365	-0.265681	-0.202421	-0.03009	-0.356934	0.17627	-0.631592
795.0	9.562114	0.289622	2.163847	-0.283876	-0.22087	-0.04084	-0.359131	0.174072	-0.62915
796.0	9.742695	0.223861	1.816584	-0.261725	-0.173831	-0.054125	-0.359375	0.180664	-0.624756
797.0	10.004206	0.264433	1.667566	-0.281956	-0.11956	-0.047861	-0.368408	0.180664	-0.624756
798.0	10.30727	0.288112	1.660498	-0.299019	-0.02116	-0.040371	-0.361572	0.180664	-0.617676
799.0	10.336854	0.34238	2.07733	-0.295173	0.062076	-0.037116	-0.357178	0.185059	-0.627197
800.0	10.063023	0.246574	2.163158	-0.296337	0.043607	-0.043559	-0.362061	0.19165	-0.625
801.0	9.990454	0.334419	2.163969	-0.27663	-0.034126	-0.061316	-0.359619	0.189453	-0.620361
802.0	9.950598	0.664599	2.057511	-0.271194	-0.084698	-0.074877	-0.362061	0.189453	-0.622803
803.0	9.988863	1.079916	2.056257	-0.286902	-0.094846	-0.079836	-0.357422	0.189697	-0.627441
804.0	10.005396	1.444282	2.140668	-0.291875	-0.097302	-0.088345	-0.357666	0.194092	-0.625244
805.0	10.114227	1.857809	2.157789	-0.29474	-0.137483	-0.085098	-0.364502	0.193848	-0.622803
806.0	10.331353	2.199772	2.020445	-0.325979	-0.184328	-0.079354	-0.355469	0.196289	-0.623047
807.0	10.582075	2.285011	1.587739	-0.397554	-0.196974	-0.071184	-0.366943	0.200439	-0.62085
808.0	10.679042	2.150134	1.246589	-0.474178	-0.129759	-0.062734	-0.364502	0.198242	-0.618408
809.0	10.642465	1.775819	1.021909	-0.554483	-0.040691	-0.050252	-0.371582	0.204834	-0.618652
810.0	10.517464	1.488907	0.872841	-0.602875	0.018206	-0.041933	-0.36499	0.209473	-0.616455
811.0	10.89224	1.390234	1.429224	-0.659276	0.07576	-0.047314	-0.367432	0.213867	-0.618896
812.0	11.510856	0.382373	2.317924	-0.809603	0.155798	-0.058917	-0.365234	0.213867	-0.612061
813.0	12.026602	-1.033993	3.246987	-0.824531	0.179078	-0.111967	-0.356689	0.224854	-0.616943
814.0	12.511348	-2.293473	4.436174	-0.724897	0.094825	-0.248544	-0.365479	0.222656	-0.614746
815.0	13.06561	-3.485731	5.252846	-0.553952	-0.12922	-0.430884	-0.361084	0.224854	-0.612305
816.0	13.329634	-4.228093	5.066554	-0.271688	-0.350447	-0.625602	-0.369873	0.218262	-0.612061
817.0	13.067098	-3.537701	4.548431	0.035395	-0.291096	-0.722732	-0.36792	0.227051	-0.614746
818.0	12.275938	-1.508518	5.120084	0.107444	-0.014149	-0.698084	-0.372314	0.220459	-0.614502
819.0	10.8736	-0.461034	5.325808	0.02459	0.106268	-0.58745	-0.37207	0.213867	-0.614258
820.0	9.421782	0.766456	5.239957	0.097514	0.094893	-0.449908	-0.374268	0.216064	-0.614258
821.0	8.375088	1.829765	5.197736	-0.034639	0.114908	-0.290327	-0.369629	0.209229	-0.614258
822.0	7.394708	1.932255	5.17972	-0.210657	0.181187	-0.164532	-0.37207	0.213867	-0.616699
823.0	6.707808	1.733878	5.084912	-0.300568	0.191464	-0.092533	-0.367432	0.213867	-0.618896
824.0	6.570823	1.086108	5.005606	-0.393371	0.149583	-0.07934	-0.367676	0.220459	-0.621582
825.0	6.689728	0.226098	4.800459	-0.382072	0.140355	-0.094114	-0.37207	0.218262	-0.616699
826.0	7.205982	-0.545316	4.507648	-0.351799	0.099462	-0.123553	-0.370117	0.222656	-0.616943
827.0	8.009963	-1.224165	4.4963	-0.303947	0.099779	-0.136493	-0.374756	0.224854	-0.619385
828.0	8.918702	-2.017076	4.475679	-0.232093	0.046822	-0.112079	-0.370117	0.224854	-0.621582
829.0	9.761205	-2.675312	4.318312	-0.069988	-0.075514	-0.054459	-0.372314	0.222656	-0.616943
830.0	10.130569	-3.002911	3.823144	0.073532	-0.2031	0.022274	-0.372314	0.224854	-0.619385
831.0	10.0198	-2.99246	3.440665	0.174862	-0.246345	0.100914	-0.370361	0.227051	-0.621826
832.0	9.475271	-2.84498	3.298843	0.242692	-0.171833	0.185338	-0.369873	0.220459	-0.616943
833.0	8.882408	-2.440562	3.359702	0.329344	-0.063936	0.256805	-0.372559	0.229248	-0.612549
834.0	8.350388	-1.718291	3.593904	0.39648	0.014866	0.30103	-0.374756	0.224854	-0.621582
835.0	7.963136	-1.182888	3.860094	0.414155	-0.010787	0.309631	-0.372314	0.220459	-0.623779
836.0	7.897534	-0.659813	3.937132	0.440355	-0.137987	0.285434	-0.374512	0.218262	-0.621338
837.0	8.259123	-0.322545	3.796595	0.465397	-0.254426	0.242904	-0.374512	0.218262	-0.619141
838.0	8.510049	-0.105828	3.364903	0.462269	-0.275568	0.197607	-0.374268	0.216064	-0.621338
839.0	8.657734	-0.025235	3.165188	0.458692	-0.256932	0.15094	-0.378662	0.213623	-0.621338
840.0	8.631801	-0.053955	3.065739	0.427055	-0.206943	0.132108	-0.369629	0.213867	-0.621338
841.0	8.576949	-0.100833	2.980513	0.409982	-0.190066	0.124848	-0.381104	0.213623	-0.618896
842.0	8.571687	-0.11925	3.014871	0.399114	-0.180694	0.129717	-0.378906	0.216064	-0.623779
843.0	8.57024	-0.270809	2.904555	0.372133	-0.168846	0.140943	-0.376465	0.213623	-0.621338
844.0	8.574559	-0.353809	2.766099	0.380656	-0.135815	0.144908	-0.380859	0.211426	-0.621094
845.0	8.508729	-0.406624	2.724126	0.367282	-0.095798	0.152529	-0.383057	0.207031	-0.625732
846.0	8.437497	-0.512081	2.702337	0.368526	-0.033687	0.148566	-0.376221	0.207031	-0.621094
847.0	8.480883	-0.601503	2.727417	0.367952	0.004329	0.137183	-0.378662	0.209229	-0.618896
848.0	8.564662	-0.670802	2.676591	0.361957	0.030429	0.114462	-0.376465	0.211426	-0.623535
849.0	8.754646	-0.68691	2.59759	0.363886	0.037272	0.079358	-0.378418	0.202637	-0.630127
850.0	8.999344	-0.701216	2.496022	0.341951	0.057959	0.042711	-0.376221	0.204834	-0.625488
851.0	9.224006	-0.696273	2.373479	0.315888	0.047691	0.011914	-0.376221	0.204834	-0.630127
852.0	9.494807	-0.570122	2.27795	0.288095	0.038512	-0.013359	-0.376221	0.204834	-0.62793
853.0	9.616689	-0.354476	2.064009	0.258199	0.065962	-0.030937	-0.378418	0.202637	-0.632568
854.0	9.552087	-0.224097	1.902808	0.222125	0.131637	-0.036591	-0.375977	0.198242	-0.632324
855.0	9.457402	-0.077408	2.005444	0.192294	0.195216	-0.045237	-0.371338	0.196289	-0.641602
856.0	9.3802	-0.085448	2.133433	0.197711	0.223242	-0.052753	-0.378174	0.198242	-0.636963
857.0	9.367432	-0.057698	2.309218	0.239231	0.173678	-0.062258	-0.373535	0.196045	-0.632324
858.0	9.34783	-0.236166	2.161012	0.268507	0.102857	-0.069682	-0.373291	0.19165	-0.636719
859.0	9.496249	-0.518952	2.045888	0.27392	0.06945	-0.076227	-0.368896	0.193848	-0.63916
860.0	9.730394	-1.025363	2.111146	0.249787	0.074308	-0.073244	-0.375488	0.189453	-0.63208
861.0	9.802678	-1.375368	2.124858	0.268642	0.084851	-0.079814	-0.368652	0.185059	-0.638672
862.0	9.812795	-1.393852	2.315107	0.28184	0.055699	-0.072847	-0.368652	0.189453	-0.638916
863.0	9.73137	-1.168206	2.580849	0.273364	-0.032909	-0.068732	-0.371094	0.19165	-0.638916
864.0	9.718696	-0.982507	2.532434	0.280867	-0.154027	-0.069167	-0.37085	0.185059	-0.641113
865.0	9.642676	-0.62738	2.312665	0.32261	-0.257034	-0.069936	-0.370361	0.17627	-0.640869
866.0	9.647319	-0.466883	1.944203	0.339995	-0.372162	-0.06907	-0.377441	0.178467	-0.638428
867.0	9.816459	-0.539138	1.375145	0.37949	-0.503296	-0.063298	-0.38623	0.17627	-0.63623
868.0	10.227755	-0.995049	0.821399	0.430564	-0.612311	-0.046826	-0.384033	0.174072	-0.643066
869.0	10.80521	-1.659161	0.40692	0.483119	-0.653482	-0.006745	-0.388428	0.17627	-0.638428
870.0	11.557583	-2.235378	0.216702	0.543309	-0.600399	0.04628	-0.385986	0.169678	-0.635986
871.0	12.3576	-2.421294	0.411458	0.606086	-0.479342	0.106995	-0.387939	0.165283	-0.633301
872.0	13.156689	-2.073408	1.011216	0.605885	-0.298971	0.175803	-0.396973	0.162842	-0.630859
873.0	13.888692	-1.301925	2.134509	0.542529	-0.061942	0.259795	-0.392334	0.160645	-0.630859
874.0	14.726061	0.109153	3.640795	0.476167	0.161847	0.37567	-0.390381	0.165283	-0.637939
875.0	14.896697	2.890991	5.272903	0.442485	0.289781	0.513481	-0.387939	0.160889	-0.642578
876.0	13.683729	5.243116	5.902797	0.219049	0.122551	0.658485	-0.388184	0.16748	-0.638184
877.0	11.674507	4.568335	5.103199	-0.116323	-0.067561	0.740044	-0.383789	0.169678	-0.635986
878.0	9.976457	2.454289	4.187061	-0.205353	0.128779	0.675019	-0.38623	0.174072	-0.640625
879.0	8.699232	1.053813	4.524385	-0.154684	0.327976	0.546465	-0.388672	0.178467	-0.643066
880.0	7.719868	-0.122013	5.166922	-0.131881	0.331048	0.41218	-0.381836	0.180664	-0.640869
881.0	7.441099	-1.133777	5.356489	0.002945	0.22261	0.306768	-0.38208	0.182861	-0.641113
882.0	7.717462	-1.548374	5.087974	0.163467	0.142732	0.25278	-0.375	0.178467	-0.645508
883.0	8.272892	-1.745398	4.839254	0.257079	0.155036	0.270952	-0.38623	0.174072	-0.649902
884.0	8.979833	-1.734202	4.748038	0.333906	0.161601	0.316396	-0.379639	0.180664	-0.650146
885.0	9.712966	-1.11586	4.537074	0.398987	0.116912	0.368937	-0.377197	0.174072	-0.647705
886.0	10.258415	-0.152615	4.249159	0.405543	0.105302	0.379345	-0.381836	0.178467	-0.650146
887.0	10.759487	0.678502	4.061156	0.316024	0.077945	0.331155	-0.379395	0.171875	-0.647461
888.0	10.780242	1.484154	3.796008	0.240794	0.14354	0.239701	-0.377197	0.174072	-0.654541
889.0	10.587901	2.324365	3.857664	0.159847	0.143384	0.12541	-0.379639	0.180664	-0.650146
890.0	10.152194	2.446301	3.575897	0.019253	0.137846	0.011334	-0.377197	0.17627	-0.652344
891.0	9.552522	2.522709	3.339619	-0.005536	0.161061	-0.099474	-0.377197	0.174072	-0.652344
892.0	9.023987	2.419447	3.424361	-0.146657	0.19779	-0.17099	-0.377441	0.178467	-0.654785
893.0	8.579538	1.775902	3.567155	-0.239961	0.19721	-0.214136	-0.381836	0.17627	-0.652344
894.0	8.237399	0.928256	3.658126	-0.28954	0.175106	-0.234422	-0.375244	0.182861	-0.657227
895.0	8.055844	0.197257	3.621462	-0.28525	0.160661	-0.232339	-0.375244	0.180664	-0.650146
896.0	7.934281	-0.019172	3.542911	-0.228909	0.155691	-0.231851	-0.372803	0.178467	-0.654785
897.0	7.811007	-0.083615	3.393506	-0.207318	0.117789	-0.224926	-0.375244	0.180664	-0.661865
898.0	7.923713	-0.199862	3.189459	-0.195337	0.088217	-0.225474	-0.375244	0.180664	-0.659424
899.0	8.047671	-0.335587	2.935119	-0.150898	0.093684	-0.222099	-0.381592	0.174072	-0.65918
900.0	8.070842	-0.428871	2.922374	-0.13773	0.119367	-0.22186	-0.373047	0.182861	-0.661865
901.0	8.01529	-0.5159	2.928415	-0.105236	0.121008	-0.224234	-0.375244	0.180664	-0.668701
902.0	8.016952	-0.317179	2.834824	-0.077822	0.118697	-0.231779	-0.375244	0.182861	-0.657227
903.0	8.101929	-0.186556	2.803148	-0.094272	0.165783	-0.241078	-0.372803	0.17627	-0.66626
904.0	7.970283	0.158687	2.978005	-0.079652	0.236997	-0.235168	-0.372803	0.178467	-0.661865
905.0	7.868542	0.627478	3.243596	-0.096316	0.268201	-0.211098	-0.375	0.178467	-0.664063
906.0	8.060761	1.003544	3.407754	-0.131308	0.253621	-0.16832	-0.373047	0.182861	-0.666504
907.0	8.240254	1.382729	3.409333	-0.151835	0.228541	-0.12753	-0.368408	0.180908	-0.666504
908.0	8.645945	1.63817	3.294006	-0.203128	0.17733	-0.094082	-0.373047	0.180908	-0.67334
909.0	8.91163	1.590512	3.006501	-0.284422	0.153891	-0.060144	-0.37085	0.185303	-0.666748
910.0	8.956222	1.311673	2.788011	-0.293561	0.146993	-0.051711	-0.368652	0.185303	-0.668945
911.0	8.904552	0.972157	2.653858	-0.29274	0.121913	-0.034358	-0.368652	0.185303	-0.668945
912.0	8.967429	0.45166	2.44484	-0.284866	0.055991	-0.025295	-0.366455	0.1875	-0.671387
913.0	9.21825	0.028034	2.195824	-0.271855	0.007432	-0.033957	-0.371094	0.189697	-0.664551
914.0	9.43908	-0.478268	1.957325	-0.25408	0.005668	-0.027706	-0.364258	0.191895	-0.662354
915.0	9.521161	-0.750172	1.796914	-0.213537	0.041639	-0.017715	-0.362305	0.194092	-0.666992
916.0	9.516631	-0.856022	1.804434	-0.17036	0.055188	-0.00376	-0.368896	0.194092	-0.666992
917.0	9.552812	-0.806479	1.867681	-0.117169	0.045169	0.020695	-0.371338	0.194092	-0.669189
918.0	9.561074	-0.447965	1.872874	-0.061239	0.028864	0.034484	-0.371582	0.200684	-0.671875
919.0	9.673322	-0.055732	1.972268	-0.044358	0.023379	0.050043	-0.371338	0.196289	-0.666992
920.0	9.812799	0.568098	2.297777	0.009949	0.01445	0.065625	-0.366699	0.194092	-0.669189
921.0	9.825146	1.078843	2.31045	-0.021439	-0.029381	0.094737	-0.369385	0.202881	-0.669678
922.0	9.856943	1.409368	2.226668	-0.053266	-0.048555	0.111441	-0.366699	0.196289	-0.671631
923.0	9.780629	1.735252	2.384119	-0.063473	-0.028411	0.10383	-0.373779	0.202881	-0.669678
924.0	9.701193	2.080559	2.559399	-0.104435	-0.033532	0.068838	-0.371582	0.200684	-0.671875
925.0	9.853793	2.149194	2.465993	-0.188935	-0.06288	0.023889	-0.371582	0.202881	-0.667236
926.0	10.040071	2.162218	2.222342	-0.222627	-0.081845	-0.010691	-0.369385	0.207275	-0.672119
927.0	10.323189	2.247712	2.104283	-0.274452	-0.104518	-0.040034	-0.369141	0.200684	-0.669434
928.0	10.483787	2.140234	1.627339	-0.344124	-0.106721	-0.063228	-0.371582	0.205078	-0.669678
929.0	10.706288	2.038618	1.307532	-0.431645	-0.111214	-0.084714	-0.374023	0.207275	-0.669678
930.0	11.006004	1.820967	1.172091	-0.55852	-0.070738	-0.113097	-0.371826	0.21167	-0.667725
931.0	11.241653	1.408972	1.493999	-0.616521	0.025548	-0.146641	-0.369873	0.216064	-0.665527
932.0	11.786428	0.573839	2.360562	-0.712882	0.072539	-0.173549	-0.369873	0.218262	-0.660889
933.0	12.668946	-0.623871	3.230603	-0.700579	0.071164	-0.23434	-0.372314	0.220459	-0.667969
934.0	13.456439	-1.504734	4.341354	-0.608557	0.011272	-0.334633	-0.376953	0.222656	-0.67041
935.0	14.046269	-2.656721	5.113169	-0.493765	-0.113851	-0.476256	-0.376709	0.220459	-0.660889
936.0	14.126282	-3.861699	5.128549	-0.253958	-0.275822	-0.616841	-0.37915	0.222656	-0.658691
937.0	13.433615	-3.632621	4.68799	0.107246	-0.287791	-0.714837	-0.385742	0.218262	-0.65625
938.0	12.007061	-1.704728	4.689751	0.270185	-0.164346	-0.689317	-0.390137	0.213867	-0.665283
939.0	10.741404	-0.368525	4.507696	0.270823	-0.098254	-0.574264	-0.385742	0.218262	-0.660889
940.0	9.271151	0.989327	4.375842	0.291926	-0.016309	-0.42465	-0.387695	0.209473	-0.658203
941.0	7.826563	2.161273	4.303274	0.13062	-0.016393	-0.268736	-0.387695	0.209473	-0.66748
942.0	6.903321	2.73887	4.365033	-0.095237	0.008763	-0.12228	-0.389648	0.205078	-0.66748
943.0	6.239132	2.746488	4.52401	-0.279989	0.061891	-0.052149	-0.394287	0.207031	-0.6604
944.0	5.818727	1.984012	4.62854	-0.49476	0.091539	-0.033522	-0.394531	0.213623	-0.656006
945.0	5.875643	0.910844	4.619544	-0.531165	0.096729	-0.063698	-0.390137	0.218262	-0.65625
946.0	6.268301	0.031723	4.664108	-0.536597	0.102302	-0.118492	-0.396973	0.218262	-0.658447
947.0	7.138473	-0.735481	4.81152	-0.494719	0.054102	-0.190628	-0.390137	0.218262	-0.658691
948.0	8.359605	-1.533745	4.759627	-0.436483	-0.036514	-0.260872	-0.387939	0.220459	-0.65625
949.0	9.611036	-2.270577	4.381564	-0.356004	-0.119719	-0.309786	-0.39917	0.218018	-0.651611
950.0	10.594089	-2.713269	3.869496	-0.215999	-0.184395	-0.336501	-0.404053	0.224609	-0.661133
951.0	10.961455	-2.593377	3.50352	-0.086211	-0.198073	-0.304862	-0.39917	0.21582	-0.653809
952.0	10.895435	-1.888493	3.336744	0.032485	-0.188957	-0.202345	-0.396973	0.21582	-0.653809
953.0	10.330503	-1.299057	3.258571	0.088141	-0.084744	-0.035741	-0.401611	0.220215	-0.651611
954.0	9.543307	-1.120627	3.408899	0.121535	0.020196	0.129062	-0.403809	0.222412	-0.649414
955.0	8.826292	-1.019677	3.577921	0.172787	0.026976	0.244536	-0.399414	0.220215	-0.654053
956.0	8.518548	-0.806033	3.698716	0.211547	-0.027951	0.296566	-0.4104	0.21582	-0.65625
957.0	8.484511	-0.49694	3.717735	0.23831	-0.104211	0.314708	-0.401611	0.222412	-0.651855
958.0	8.642552	-0.303511	3.677967	0.250558	-0.172711	0.307904	-0.403809	0.218018	-0.651611
959.0	8.666959	-0.175952	3.459061	0.257529	-0.203292	0.297645	-0.403809	0.218018	-0.653809
960.0	8.585412	-0.032908	3.268256	0.268308	-0.208399	0.283561	-0.408447	0.220215	-0.651611
961.0	8.483966	-0.064683	3.173131	0.239329	-0.225568	0.271081	-0.408447	0.220215	-0.654053
962.0	8.498708	-0.217301	3.117393	0.218738	-0.224372	0.260791	-0.408203	0.218018	-0.653809
963.0	8.535719	-0.300635	3.070077	0.243066	-0.191894	0.259253	-0.412598	0.21582	-0.64917
964.0	8.642568	-0.418542	3.041039	0.246567	-0.137668	0.256997	-0.406006	0.220215	-0.646973
965.0	8.702444	-0.554121	2.990777	0.230916	-0.062603	0.261967	-0.415039	0.218018	-0.646973
966.0	8.673678	-0.843693	2.874261	0.238771	-0.008062	0.242401	-0.4104	0.21582	-0.646973
967.0	8.629431	-1.062885	2.830099	0.259719	-0.004069	0.218174	-0.4104	0.21582	-0.644531
968.0	8.716699	-1.140507	2.638415	0.297543	-0.022302	0.175391	-0.408203	0.21582	-0.64917
969.0	8.798112	-0.868773	2.376543	0.339505	-0.00157	0.123876	-0.412598	0.211426	-0.648926
970.0	8.81473	-0.576303	2.190978	0.339467	0.051569	0.080859	-0.412598	0.211426	-0.651367
971.0	8.781579	-0.333109	2.123246	0.306239	0.142661	0.050739	-0.407959	0.211426	-0.651367
972.0	8.759884	-0.08768	2.239082	0.302728	0.194288	0.030552	-0.407959	0.211426	-0.648926
973.0	8.877102	-0.118607	2.387595	0.250635	0.17951	0.016325	-0.405518	0.207031	-0.658203
974.0	9.072459	-0.134666	2.286095	0.254392	0.14426	0.002666	-0.407715	0.202637	-0.65332
975.0	9.318517	-0.238231	2.179052	0.218162	0.163174	0.004769	-0.409912	0.202637	-0.657959
976.0	9.261976	-0.441939	2.082989	0.20213	0.201925	-0.002695	-0.405518	0.204834	-0.657959
977.0	9.083761	-0.535675	2.208216	0.229616	0.205979	-0.021594	-0.407471	0.200439	-0.65332
978.0	8.980477	-0.679518	2.330467	0.264178	0.138727	-0.037064	-0.407227	0.19165	-0.657471
979.0	9.109736	-0.87891	2.305345	0.283552	0.069319	-0.051499	-0.407471	0.198242	-0.662354
980.0	9.4167	-1.133796	2.157939	0.300497	0.023107	-0.062728	-0.407471	0.198242	-0.660156
981.0	9.817009	-1.335965	2.046483	0.328669	0.013076	-0.072668	-0.411621	0.189453	-0.657471
982.0	10.089822	-1.34542	1.952737	0.333241	-0.01541	-0.073798	-0.407227	0.193848	-0.659912
983.0	10.428976	-1.181225	1.899935	0.345836	-0.039965	-0.075118	-0.411621	0.187256	-0.662109
984.0	10.626802	-0.749678	2.031628	0.367507	-0.055579	-0.056565	-0.40918	0.182861	-0.661865
985.0	10.601822	-0.252953	2.034305	0.374447	-0.093365	-0.033397	-0.406738	0.180664	-0.664063
986.0	10.628772	0.02765	1.909801	0.356381	-0.125134	-0.00729	-0.415283	0.171631	-0.656738
987.0	10.505808	0.145453	1.668222	0.337142	-0.133031	-0.000811	-0.41333	0.17627	-0.661621
988.0	10.301099	-0.007203	1.227152	0.3314	-0.156307	-0.016328	-0.415283	0.171875	-0.663818
989.0	10.241878	-0.449209	0.92165	0.320415	-0.187804	-0.023087	-0.417725	0.171631	-0.661377
990.0	10.459191	-1.164665	0.727736	0.357903	-0.212395	-0.030347	-0.419922	0.171631	-0.656738
991.0	11.146617	-1.911201	0.672104	0.424112	-0.247484	-0.009628	-0.424072	0.165039	-0.665771
992.0	12.057196	-2.326334	0.73366	0.502999	-0.197049	0.03185	-0.421631	0.160645	-0.665771
993.0	12.830931	-2.293631	1.085252	0.550488	-0.019526	0.101643	-0.423828	0.158447	-0.660889
994.0	13.07399	-1.870114	2.064408	0.522217	0.223335	0.195832	-0.419189	0.15625	-0.66333
995.0	13.154181	-1.080734	3.551533	0.462105	0.41001	0.31709	-0.416992	0.15625	-0.658691
996.0	13.245739	0.817535	5.280702	0.469276	0.386435	0.446937	-0.416992	0.15625	-0.667969
997.0	13.073789	3.401883	6.532833	0.328275	0.191644	0.575848	-0.414795	0.154053	-0.665527
998.0	12.134654	4.299706	6.031512	0.06174	-0.081573	0.703569	-0.416992	0.15625	-0.665527
999.0	10.64483	3.360114	5.050009	-0.067243	-0.0958	0.719334	-0.416992	0.154053	-0.665527
1000.0	8.998225	1.733168	4.980474	-0.13313	0.168782	0.622711	-0.415039	0.160645	-0.665771
1001.0	7.526705	0.333909	5.262752	-0.029926	0.237821	0.483174	-0.415039	0.162842	-0.668213
1002.0	6.788988	-0.306978	5.550382	0.159843	0.044261	0.354321	-0.412842	0.162842	-0.661133
1003.0	7.149754	-0.891629	5.191465	0.266092	-0.118884	0.272646	-0.419434	0.158447	-0.66333
1004.0	8.004544	-1.271831	4.667367	0.380314	-0.093292	0.233696	-0.417236	0.158447	-0.66333
1005.0	8.599876	-1.307334	4.340548	0.441225	0.018074	0.251439	-0.417236	0.160645	-0.665771
1006.0	9.310324	-1.075223	4.210198	0.469244	0.075301	0.283804	-0.414795	0.158447	-0.665527
1007.0	9.97371	-0.608244	3.884691	0.47028	0.155957	0.297035	-0.416748	0.151855	-0.665283
1008.0	10.588649	0.129881	3.837089	0.399389	0.22037	0.280413	-0.418945	0.149658	-0.667725
1009.0	10.761087	0.857872	3.763851	0.275589	0.22912	0.235923	-0.416748	0.151855	-0.669922
1010.0	10.484572	1.909707	3.755864	0.210342	0.209206	0.140061	-0.419189	0.15625	-0.670166
1011.0	10.124726	2.511957	3.802591	0.049143	0.132304	0.031545	-0.416748	0.147461	-0.66748
1012.0	9.986541	2.600859	3.432349	-0.04136	0.092332	-0.105013	-0.414307	0.145264	-0.669678
1013.0	9.301756	2.762958	3.254727	-0.138449	0.162116	-0.23064	-0.416748	0.149658	-0.665283
1014.0	8.661099	2.278194	3.503975	-0.307807	0.161123	-0.320496	-0.416504	0.143066	-0.672119
1015.0	8.215581	1.578062	3.533884	-0.369086	0.064675	-0.370523	-0.421143	0.145264	-0.674316
1016.0	8.189965	0.670535	3.369639	-0.436708	-0.016385	-0.362344	-0.421143	0.147461	-0.672119
1017.0	8.203218	-0.383544	3.148625	-0.432905	-0.006785	-0.352749	-0.421387	0.149658	-0.669922
1018.0	8.121107	-0.570768	3.152794	-0.315237	0.031479	-0.328535	-0.416504	0.145264	-0.672119
1019.0	7.954978	-0.409232	3.134524	-0.281009	0.048214	-0.284917	-0.418945	0.149658	-0.674561
1020.0	7.883237	-0.404853	3.013956	-0.24667	0.034865	-0.244317	-0.418945	0.147461	-0.669922
1021.0	7.99223	-0.438775	2.974241	-0.227311	0.022065	-0.1936	-0.418945	0.147461	-0.674561
1022.0	8.050545	-0.62998	2.920301	-0.200693	0.017723	-0.156497	-0.425781	0.151855	-0.669922
1023.0	8.131268	-0.682016	2.893024	-0.149409	0.03937	-0.128806	-0.425781	0.149658	-0.674561
1024.0	8.187397	-0.558104	2.880233	-0.111748	0.068692	-0.123635	-0.421143	0.145264	-0.674316
1025.0	8.191556	-0.325775	2.883048	-0.07696	0.09351	-0.122167	-0.427979	0.145264	-0.669678
1026.0	8.229823	0.103086	2.967202	-0.058806	0.134209	-0.111664	-0.423096	0.140869	-0.671875
1027.0	8.306974	0.479912	3.088268	-0.055342	0.179588	-0.086577	-0.418701	0.140869	-0.678955
1028.0	8.360995	0.713893	3.185432	-0.050575	0.196348	-0.046073	-0.42334	0.145264	-0.672119
1029.0	8.592476	0.997705	3.178216	-0.047436	0.174223	-0.010061	-0.420898	0.143066	-0.669678
1030.0	8.794174	1.14114	2.979368	-0.102844	0.144769	0.024658	-0.418701	0.143066	-0.674316
1031.0	8.868466	1.130152	2.780512	-0.14287	0.133823	0.051159	-0.423096	0.140869	-0.669678
1032.0	8.828895	0.977581	2.726663	-0.175207	0.125703	0.070568	-0.418945	0.145264	-0.676758
1033.0	8.788985	0.70205	2.663307	-0.176271	0.083796	0.071254	-0.418701	0.143066	-0.669678
1034.0	8.923341	0.422116	2.406338	-0.178307	0.030496	0.055437	-0.425537	0.143066	-0.674316
1035.0	9.212224	0.031616	2.123512	-0.200398	0.035641	0.036263	-0.421143	0.147461	-0.676758
1036.0	9.296453	-0.314079	2.055432	-0.178067	0.092931	0.027419	-0.421143	0.147461	-0.674561
1037.0	9.480515	-0.394095	2.116933	-0.147843	0.097341	0.033956	-0.418945	0.147461	-0.674561
1038.0	9.731553	-0.325222	2.128799	-0.121738	0.08012	0.04218	-0.421143	0.145264	-0.674316
1039.0	10.085412	-0.088228	2.151985	-0.094469	0.072283	0.065856	-0.418945	0.149658	-0.677002
1040.0	10.396825	0.38079	2.270793	-0.070039	0.075256	0.081949	-0.42334	0.145264	-0.681396
1041.0	10.462866	0.693739	2.250705	-0.083252	0.059712	0.097754	-0.423584	0.151855	-0.681641
1042.0	10.48314	0.964606	2.112726	-0.082746	0.026005	0.110531	-0.423584	0.149658	-0.679199
1043.0	10.53815	1.348651	2.151367	-0.099247	0.022504	0.121742	-0.42334	0.145264	-0.676758
1044.0	10.42761	1.558196	2.324908	-0.13844	0.052904	0.121069	-0.420898	0.143066	-0.672119
1045.0	10.256968	1.615713	2.516894	-0.168627	0.077219	0.106391	-0.428223	0.151855	-0.677002
1046.0	10.269516	1.393743	2.545338	-0.221445	0.041386	0.083189	-0.42334	0.147461	-0.676758
1047.0	10.35415	1.135475	2.286732	-0.242698	-0.004592	0.043103	-0.421143	0.147461	-0.676758
1048.0	10.495072	1.005207	2.117919	-0.272658	-0.035711	0.012404	-0.427979	0.145264	-0.678955
1049.0	10.482847	0.823795	1.749225	-0.357508	-0.070422	-0.025079	-0.43042	0.151855	-0.674561
1050.0	10.709884	0.786813	1.64573	-0.43472	-0.046119	-0.063933	-0.423584	0.151855	-0.679199
1051.0	11.145287	0.734293	2.102753	-0.515488	0.040932	-0.108393	-0.428223	0.154053	-0.679443
1052.0	11.896436	-0.031274	2.885048	-0.619018	0.10727	-0.163641	-0.423828	0.158447	-0.672607
1053.0	12.80793	-0.99341	4.182919	-0.597728	0.17682	-0.256186	-0.426025	0.154053	-0.677002
1054.0	13.278979	-2.099412	5.504798	-0.529472	0.081172	-0.408507	-0.428223	0.15625	-0.677246
1055.0	13.454362	-3.196049	5.782398	-0.335137	-0.223748	-0.602967	-0.428223	0.15625	-0.677246
1056.0	13.321074	-3.055401	4.940786	0.007611	-0.39645	-0.785312	-0.434814	0.147461	-0.676758
1057.0	12.466288	-1.60115	5.060903	0.178453	-0.250633	-0.857635	-0.43457	0.143066	-0.674316
1058.0	11.005647	-0.59854	4.370632	0.232298	-0.198197	-0.785532	-0.438965	0.140869	-0.669678
1059.0	9.899204	1.46244	4.017027	0.290855	-0.075254	-0.64276	-0.447754	0.134033	-0.671631
1060.0	8.585765	2.932203	4.088951	0.066977	0.066696	-0.461233	-0.445557	0.134033	-0.669434
1061.0	7.540731	3.266473	4.384716	-0.168308	0.145142	-0.302555	-0.44751	0.129639	-0.67627
1062.0	6.916496	3.020014	4.633064	-0.347813	0.183009	-0.182895	-0.443359	0.138672	-0.671875
1063.0	6.944034	2.012505	4.832749	-0.511077	0.148502	-0.100515	-0.440918	0.13208	-0.671631
1064.0	7.063443	0.731516	4.784039	-0.541299	0.162598	-0.066327	-0.441162	0.138672	-0.671875
1065.0	7.34293	-0.564265	4.89016	-0.508835	0.20237	-0.066936	-0.441162	0.138672	-0.669434
1066.0	7.731576	-1.785744	5.051197	-0.426184	0.236021	-0.117573	-0.441406	0.143066	-0.674316
1067.0	8.361171	-2.704088	4.964	-0.299629	0.207234	-0.178723	-0.438721	0.136475	-0.671875
1068.0	8.921678	-3.022573	4.568754	-0.144101	0.158766	-0.224841	-0.443359	0.136475	-0.678711
1069.0	9.07067	-2.832919	4.296781	-0.018258	0.117429	-0.215115	-0.436523	0.138672	-0.678711
1070.0	9.116489	-2.382538	4.119719	0.117094	0.0144	-0.148578	-0.440918	0.136475	-0.674072
1071.0	9.126693	-1.53971	4.050694	0.214115	-0.082005	-0.015038	-0.445313	0.131836	-0.673828
1072.0	9.135437	-0.985163	3.89987	0.208401	-0.160362	0.139989	-0.445313	0.127441	-0.678467
1073.0	9.144874	-0.650208	3.851087	0.221903	-0.162457	0.264563	-0.440674	0.129639	-0.673828
1074.0	8.95717	-0.395048	3.787733	0.21992	-0.114235	0.3391	-0.442871	0.127441	-0.678467
1075.0	8.773444	-0.10673	3.905196	0.214684	-0.104595	0.36398	-0.449707	0.129639	-0.671387
1076.0	8.638243	0.129491	3.943204	0.217437	-0.157484	0.361895	-0.44751	0.129639	-0.671387
1077.0	8.685619	0.38404	3.967747	0.216776	-0.216388	0.351125	-0.452148	0.129639	-0.673828
1078.0	8.564908	0.428961	3.769561	0.1909	-0.249146	0.3335	-0.456543	0.131836	-0.666992
1079.0	8.469952	0.250026	3.56415	0.172407	-0.2525	0.310782	-0.449951	0.131836	-0.671631
1080.0	8.399958	0.091515	3.454415	0.16027	-0.26333	0.287009	-0.456299	0.123047	-0.673584
1081.0	8.462989	-0.066367	3.413053	0.130806	-0.275851	0.271389	-0.456543	0.131836	-0.664551
1082.0	8.62789	-0.263096	3.256472	0.134648	-0.247299	0.256187	-0.454102	0.127441	-0.666748
1083.0	8.654332	-0.490786	3.142582	0.119586	-0.194122	0.244623	-0.461182	0.131836	-0.669189
1084.0	8.598197	-0.715447	3.051075	0.126874	-0.122523	0.227092	-0.461182	0.131836	-0.673828
1085.0	8.424835	-0.919199	2.920049	0.140441	-0.071922	0.204014	-0.468018	0.131836	-0.666992
1086.0	8.341239	-0.951009	2.738193	0.174315	-0.036043	0.172654	-0.45874	0.127441	-0.664551
1087.0	8.248425	-0.853061	2.711914	0.219961	-0.017673	0.136248	-0.45874	0.129639	-0.673828
1088.0	8.159477	-0.772776	2.563628	0.243955	-0.020726	0.101714	-0.454102	0.127441	-0.671387
1089.0	8.117429	-0.725267	2.427446	0.268608	-0.024263	0.071338	-0.465332	0.123047	-0.671143
1090.0	8.218667	-0.674849	2.429258	0.281254	-0.068879	0.055446	-0.460693	0.123047	-0.671143
1091.0	8.491082	-0.649233	2.342567	0.294614	-0.144775	0.042183	-0.463135	0.123047	-0.671143
1092.0	8.887897	-0.736178	2.142136	0.303229	-0.200447	0.042571	-0.462891	0.12085	-0.671143
1093.0	9.133646	-0.823803	1.832529	0.321866	-0.203206	0.021336	-0.460693	0.118652	-0.668701
1094.0	9.325357	-0.984678	1.747071	0.332373	-0.168941	0.008889	-0.469482	0.114258	-0.661621
1095.0	9.568042	-1.278503	1.757402	0.35769	-0.120193	-0.025182	-0.467285	0.114258	-0.670898
1096.0	9.610255	-1.360205	1.680077	0.428147	-0.066437	-0.050299	-0.469238	0.109863	-0.668457
1097.0	9.416043	-1.244285	1.559174	0.517694	-0.032736	-0.075988	-0.468994	0.105469	-0.666016
1098.0	9.272738	-1.173441	1.541804	0.608864	-0.076095	-0.075118	-0.466553	0.096436	-0.670166
1099.0	9.458185	-1.130798	1.505451	0.672661	-0.173011	-0.053639	-0.473145	0.096436	-0.667969
1100.0	9.989857	-1.202938	1.477264	0.666972	-0.226058	-0.025358	-0.475342	0.089844	-0.672363
1101.0	10.521805	-1.218747	1.333018	0.641435	-0.222482	-0.001919	-0.473145	0.092041	-0.670166
1102.0	10.890164	-0.840914	1.488478	0.613598	-0.123846	0.013533	-0.477295	0.085449	-0.662842
1103.0	10.889337	-0.374174	1.734227	0.545793	-0.068607	0.020442	-0.477051	0.081055	-0.674316
1104.0	10.683082	0.160358	1.890232	0.504745	-0.064306	0.011092	-0.481445	0.078857	-0.669678
1105.0	10.402891	0.520682	1.688444	0.469988	-0.108181	-0.007932	-0.481445	0.078857	-0.669678
1106.0	10.187748	0.451647	1.404972	0.395925	-0.139702	-0.016998	-0.485596	0.067871	-0.669189
1107.0	10.087619	0.031176	1.277811	0.374702	-0.171913	-0.025341	-0.483398	0.067871	-0.664551
1108.0	10.430108	-0.679599	1.299155	0.317717	-0.223298	-0.024917	-0.487793	0.063477	-0.668945
1109.0	11.344885	-1.270714	1.570581	0.25321	-0.149607	-0.015613	-0.487793	0.065674	-0.673828
1110.0	12.470282	-1.088072	2.63035	0.216426	0.009506	0.007974	-0.487549	0.061035	-0.661865
1111.0	13.847558	0.251202	4.385295	0.164507	0.168066	0.122982	-0.487549	0.061279	-0.673584
1112.0	14.557985	2.622912	5.407662	0.06783	0.038006	0.302014	-0.485107	0.056885	-0.67334
1113.0	14.087354	4.465501	4.915509	-0.137914	-0.270514	0.525281	-0.48999	0.065674	-0.669189
1114.0	12.727107	4.002089	3.799973	-0.377076	-0.250063	0.674804	-0.492432	0.072266	-0.674072
1115.0	10.668238	1.683	3.561641	-0.50298	0.13653	0.663915	-0.495361	0.083252	-0.674316
1116.0	9.055638	-0.605703	4.351894	-0.394038	0.265548	0.539244	-0.490479	0.078857	-0.669678
1117.0	8.500325	-1.88582	5.352088	-0.12897	-0.001096	0.393557	-0.486084	0.081055	-0.672119
1118.0	8.999427	-2.539635	5.47284	0.105594	-0.225376	0.288041	-0.495117	0.081055	-0.671875
1119.0	9.330697	-2.77825	4.91903	0.279638	-0.124608	0.230325	-0.495361	0.085449	-0.672119
1120.0	9.346866	-2.258424	4.804023	0.410372	0.054602	0.221932	-0.495117	0.081055	-0.667236
1121.0	9.325137	-1.337819	4.93863	0.464462	0.154308	0.275291	-0.497559	0.083252	-0.672119
1122.0	9.377562	0.029201	4.931581	0.524716	0.197597	0.330127	-0.497314	0.078857	-0.676514
1123.0	9.616323	1.339554	4.764527	0.474483	0.249681	0.368256	-0.49292	0.078857	-0.676514
1124.0	9.934704	1.805375	4.541635	0.299551	0.238465	0.355035	-0.490723	0.083252	-0.681396
1125.0	10.275406	1.926928	4.158792	0.189998	0.14524	0.270402	-0.49292	0.081055	-0.681396
1126.0	10.747548	2.364966	3.943468	0.090214	0.094172	0.119875	-0.492676	0.07666	-0.678711
1127.0	10.654848	2.089461	3.610703	-0.095146	0.211945	-0.043206	-0.492676	0.07666	-0.68335
1128.0	9.717335	1.778952	3.446307	-0.148371	0.417779	-0.191969	-0.486084	0.081055	-0.683594
1129.0	8.5243	1.613	3.979333	-0.241112	0.460085	-0.31317	-0.493164	0.085449	-0.686035
1130.0	7.824993	1.086926	4.235071	-0.307109	0.283175	-0.385728	-0.486084	0.081055	-0.688232
1131.0	7.716014	0.410371	4.10572	-0.331315	0.111286	-0.413265	-0.486328	0.085449	-0.683838
1132.0	7.747017	-0.342142	3.718243	-0.33749	0.071433	-0.417176	-0.488281	0.078857	-0.685791
1133.0	7.643176	-0.790347	3.551696	-0.273847	0.056043	-0.404659	-0.481689	0.083252	-0.690674
1134.0	7.719249	-0.412573	3.501563	-0.182798	0.013188	-0.403934	-0.488281	0.07666	-0.685791
1135.0	7.949437	0.033937	3.224688	-0.195338	-0.062898	-0.383014	-0.490723	0.083252	-0.686035
1136.0	8.249912	0.28416	2.935288	-0.188631	-0.081336	-0.351604	-0.49292	0.081055	-0.688232
1137.0	8.376508	0.501856	2.735323	-0.209174	-0.082239	-0.306597	-0.488525	0.083252	-0.688232
1138.0	8.380673	0.43424	2.59901	-0.233456	-0.073248	-0.260888	-0.497314	0.081055	-0.688232
1139.0	8.392066	0.424842	2.546178	-0.234105	-0.064163	-0.220396	-0.49292	0.083252	-0.686035
1140.0	8.391454	0.512395	2.444608	-0.219581	-0.025133	-0.198916	-0.49292	0.081055	-0.690674
1141.0	8.344032	0.645857	2.438646	-0.220167	0.039398	-0.182718	-0.49292	0.078857	-0.69043
1142.0	8.258906	0.76714	2.484251	-0.241954	0.081378	-0.17631	-0.488281	0.07666	-0.685791
1143.0	8.202744	0.847503	2.50901	-0.255563	0.10773	-0.147499	-0.490723	0.083252	-0.686035
1144.0	8.219075	0.95782	2.547778	-0.271232	0.093962	-0.109644	-0.486328	0.083252	-0.690674
1145.0	8.34392	0.976993	2.441031	-0.259717	0.043663	-0.076845	-0.495605	0.089844	-0.688477
1146.0	8.550996	0.925906	2.19638	-0.25587	0.003181	-0.040179	-0.486572	0.089844	-0.688477
1147.0	8.699012	0.750203	2.091057	-0.258782	-0.001149	-0.005512	-0.490967	0.085449	-0.688477
1148.0	8.811631	0.462298	1.916313	-0.292395	-0.001303	0.033778	-0.491211	0.096436	-0.686523
1149.0	9.034678	0.051758	1.795523	-0.307619	-0.000807	0.053608	-0.493164	0.089844	-0.695557
1150.0	9.28548	-0.448703	1.866655	-0.319485	0.02649	0.076234	-0.493408	0.094238	-0.693359
1151.0	9.344847	-0.834834	1.795348	-0.302361	0.097622	0.085726	-0.489014	0.094238	-0.693359
1152.0	9.359783	-0.793942	2.051913	-0.278152	0.128442	0.085973	-0.491211	0.094238	-0.693359
1153.0	9.484182	-0.385053	2.197227	-0.233443	0.128089	0.068883	-0.493652	0.096436	-0.697998
1154.0	9.614319	0.2579	2.449817	-0.220428	0.108223	0.061197	-0.489014	0.098633	-0.695801
1155.0	9.739674	0.834057	2.510754	-0.253098	0.060637	0.055658	-0.493896	0.103027	-0.693604
1156.0	9.849565	1.205182	2.6206	-0.273938	0.055337	0.065214	-0.489258	0.103027	-0.693604
1157.0	9.789315	1.395426	2.795486	-0.303682	0.0639	0.067908	-0.489502	0.105225	-0.693848
1158.0	9.675031	1.144691	2.831981	-0.311145	0.057578	0.062646	-0.489502	0.107422	-0.696289
1159.0	9.714593	0.871588	2.84917	-0.213953	0.011943	0.037576	-0.491699	0.107422	-0.703125
1160.0	9.727665	0.743104	2.574616	-0.154516	-0.073037	0.009035	-0.489746	0.114258	-0.696533
1161.0	10.002385	0.645885	2.047432	-0.12007	-0.182425	-0.027623	-0.493896	0.107422	-0.696289
1162.0	10.638934	0.681316	1.587884	-0.134726	-0.227836	-0.068362	-0.494385	0.114014	-0.69873
1163.0	11.211973	0.675165	1.16721	-0.214238	-0.200586	-0.100386	-0.494385	0.116211	-0.691895
1164.0	12.005304	0.572321	1.28932	-0.302144	-0.104247	-0.119025	-0.496582	0.116455	-0.701172
1165.0	12.901723	0.27979	1.813631	-0.366656	0.021927	-0.137679	-0.496582	0.116211	-0.696533
1166.0	14.008319	-0.063913	2.834762	-0.399787	0.201172	-0.210024	-0.489746	0.116455	-0.694092
1167.0	14.592226	-0.843594	4.313635	-0.370679	0.337258	-0.336586	-0.494385	0.118652	-0.698975
1168.0	14.782406	-1.423853	5.244953	-0.215443	0.203456	-0.488371	-0.496338	0.111816	-0.696289
1169.0	14.291484	-1.293177	5.015091	-0.009464	0.023564	-0.608561	-0.487549	0.114258	-0.703369
1170.0	13.362917	-0.503433	5.177066	0.154078	0.087412	-0.608658	-0.494385	0.114014	-0.69873
1171.0	11.893418	-0.21206	5.131069	0.10812	0.145979	-0.515057	-0.489502	0.109863	-0.705566
1172.0	10.66116	0.539596	4.406687	0.143739	0.091601	-0.406842	-0.503174	0.109619	-0.703125
1173.0	9.741431	2.058884	4.125403	0.008518	0.066738	-0.263402	-0.491699	0.105225	-0.703125
1174.0	8.880061	2.278873	4.025852	-0.273079	0.130099	-0.111089	-0.491699	0.107422	-0.703125
1175.0	7.939206	1.951718	4.166148	-0.400373	0.162736	-0.019527	-0.491943	0.109863	-0.705566
1176.0	7.200338	1.422756	4.306834	-0.51442	0.134026	-0.005246	-0.496338	0.107422	-0.700928
1177.0	6.644017	0.375645	4.01971	-0.57003	0.121999	-0.028677	-0.487793	0.12085	-0.703613
1178.0	6.332901	-0.642676	4.049351	-0.538999	0.177583	-0.090151	-0.492188	0.118652	-0.703613
1179.0	6.119432	-1.512995	4.378707	-0.501219	0.249733	-0.1651	-0.492188	0.12085	-0.708252
1180.0	6.253831	-2.314603	4.431905	-0.425701	0.208154	-0.240504	-0.490234	0.127441	-0.703857
1181.0	6.996045	-2.69216	4.488129	-0.298532	0.164834	-0.284314	-0.492432	0.125244	-0.715332
1182.0	8.039856	-2.989545	4.371199	-0.232948	0.122931	-0.313538	-0.490234	0.125244	-0.703857
1183.0	9.222584	-2.912865	4.018217	-0.084101	0.004947	-0.286332	-0.492432	0.125244	-0.708496
1184.0	10.123294	-2.295665	3.855228	0.048699	-0.042106	-0.199125	-0.492432	0.125244	-0.710693
1185.0	9.897562	-1.4537	3.72521	0.11551	0.05772	-0.066372	-0.487793	0.123047	-0.706055
1186.0	9.096134	-0.662713	3.950258	0.141181	0.073352	0.067984	-0.494873	0.127441	-0.703857
1187.0	8.871164	-0.376788	4.019896	0.11797	0.006036	0.171276	-0.494629	0.125244	-0.708496
1188.0	8.666514	-0.237662	3.733051	0.149032	-0.025504	0.218309	-0.490234	0.125244	-0.708496
1189.0	8.791214	0.076866	3.632339	0.17094	-0.097545	0.225231	-0.492188	0.12085	-0.706055
1190.0	9.065947	0.339923	3.545081	0.182695	-0.16088	0.223873	-0.492432	0.125244	-0.703857
1191.0	9.081592	0.340866	3.298747	0.186172	-0.191693	0.207893	-0.490479	0.131836	-0.710938
1192.0	9.019574	0.257203	3.157435	0.17273	-0.189103	0.199899	-0.490479	0.131836	-0.70874
1193.0	8.979914	0.000663	3.026115	0.130992	-0.183349	0.192023	-0.490479	0.129639	-0.704102
1194.0	8.869715	-0.272326	2.969616	0.122476	-0.147135	0.19721	-0.49707	0.129639	-0.703857
1195.0	8.713498	-0.423218	2.992038	0.132273	-0.125749	0.212372	-0.49707	0.129639	-0.703857
1196.0	8.618145	-0.609074	3.069888	0.101993	-0.083081	0.230933	-0.499512	0.131836	-0.704102
1197.0	8.293352	-0.87959	3.153089	0.116721	0.007736	0.237019	-0.495117	0.134033	-0.704102
1198.0	7.814754	-1.146594	3.240481	0.120147	0.047458	0.240663	-0.495361	0.138428	-0.701904
1199.0	7.585353	-1.173489	3.241616	0.196848	-0.00075	0.223607	-0.497314	0.13623	-0.704102
1200.0	7.605375	-0.90809	3.167266	0.243358	-0.062469	0.189948	-0.495117	0.13623	-0.701904
1201.0	7.82227	-0.769371	2.908824	0.235861	-0.110958	0.143451	-0.497314	0.131836	-0.70874
1202.0	8.156787	-0.581332	2.584881	0.250081	-0.123857	0.097863	-0.497314	0.13623	-0.701904
1203.0	8.479574	-0.299951	2.413237	0.234464	-0.101739	0.054938	-0.499512	0.134033	-0.704102
1204.0	8.703079	-0.188524	2.225931	0.18504	-0.048204	0.020428	-0.499512	0.131836	-0.704102
1205.0	8.978891	-0.143014	2.128505	0.165802	-0.02092	-0.003596	-0.499512	0.131836	-0.699463
1206.0	9.09498	-0.317071	2.056943	0.135166	-0.009663	-0.014734	-0.501953	0.134033	-0.704102
1207.0	9.226126	-0.523985	2.025683	0.155346	-0.040561	-0.01706	-0.50415	0.138428	-0.701904
1208.0	9.377209	-0.786015	1.911011	0.159477	-0.063108	-0.02456	-0.50415	0.134033	-0.706543
1209.0	9.475726	-0.907167	1.812361	0.212135	-0.055453	-0.029577	-0.508545	0.131592	-0.697021
1210.0	9.483731	-1.122072	1.877257	0.230481	-0.02324	-0.029486	-0.501709	0.129639	-0.70166
1211.0	9.422892	-1.38749	1.916898	0.281395	0.045532	-0.042177	-0.503906	0.129639	-0.70166
1212.0	9.343572	-1.524589	2.040492	0.350112	0.067617	-0.061665	-0.503906	0.127441	-0.706299
1213.0	9.403318	-1.571432	1.907882	0.432762	0.005219	-0.071441	-0.503906	0.127441	-0.699219
1214.0	9.778092	-1.526479	1.928391	0.494663	-0.09714	-0.079039	-0.501465	0.123047	-0.701416
1215.0	10.396186	-1.505511	1.875613	0.529192	-0.172066	-0.072866	-0.505615	0.118408	-0.696533
1216.0	10.817977	-1.195418	1.69429	0.55764	-0.179537	-0.070687	-0.505615	0.114014	-0.696533
1217.0	11.133637	-0.677769	1.736586	0.529639	-0.112699	-0.060088	-0.505371	0.111816	-0.69873
1218.0	10.889432	-0.089887	1.909877	0.494958	-0.013572	-0.053383	-0.512451	0.116211	-0.701172
1219.0	10.431804	0.296939	1.924255	0.4509	-0.046883	-0.052781	-0.509766	0.109619	-0.700928
1220.0	10.168609	0.317637	1.759566	0.419671	-0.158491	-0.051268	-0.51001	0.111816	-0.69873
1221.0	10.161752	-0.162958	1.480025	0.402127	-0.269957	-0.048124	-0.514404	0.109619	-0.698486
1222.0	10.558409	-0.769567	1.408237	0.389951	-0.341129	-0.027612	-0.51416	0.103027	-0.691406
1223.0	11.301303	-1.433544	1.688576	0.361786	-0.308704	0.001146	-0.518555	0.103027	-0.693604
1224.0	12.516915	-1.563941	2.848035	0.298987	-0.126204	0.086246	-0.518555	0.103027	-0.693604
1225.0	13.640214	-0.576116	4.806966	0.265823	0.078212	0.230734	-0.516357	0.103027	-0.691406
1226.0	14.14252	1.316875	5.943927	0.203039	-0.087228	0.426618	-0.52124	0.109619	-0.69165
1227.0	14.023364	2.711024	5.277281	0.05124	-0.377611	0.615736	-0.52124	0.109619	-0.69165
1228.0	13.138472	2.47283	4.177372	-0.038148	-0.257008	0.689561	-0.52832	0.118408	-0.685059
1229.0	11.583718	1.020963	4.563158	-0.140901	0.129755	0.628368	-0.523682	0.118408	-0.685059
1230.0	9.86676	-0.476312	5.004501	0.043884	0.18714	0.483755	-0.521729	0.122803	-0.6875
1231.0	9.036287	-1.289298	5.174094	0.242266	-0.118264	0.347883	-0.519287	0.120605	-0.685059
1232.0	9.366809	-1.793013	4.6547	0.375394	-0.232267	0.250015	-0.525879	0.118408	-0.685059
1233.0	9.36384	-1.165359	4.511348	0.556971	-0.059805	0.213023	-0.52832	0.118408	-0.68042
1234.0	9.208199	-0.459239	4.49435	0.554399	0.060223	0.23462	-0.526367	0.127197	-0.685303
1235.0	9.284772	-0.075134	4.289116	0.522334	0.133137	0.315662	-0.519287	0.120605	-0.685059
1236.0	9.123537	1.066879	4.24058	0.551325	0.210733	0.401337	-0.526123	0.122803	-0.6875
1237.0	9.307805	1.861541	4.419922	0.385608	0.248952	0.486659	-0.523926	0.122803	-0.6875
1238.0	9.384263	1.894761	4.320357	0.224156	0.274599	0.479513	-0.530762	0.122803	-0.682861
1239.0	9.553013	1.710487	4.114881	0.077595	0.179815	0.37734	-0.519531	0.125	-0.6875
1240.0	9.601357	1.770847	4.144957	0.01494	0.153136	0.196882	-0.519531	0.125	-0.689941
1241.0	9.402845	1.607473	4.21216	-0.050695	0.133101	0.023817	-0.521729	0.122803	-0.6875
1242.0	8.870747	1.691466	4.020382	-0.034685	0.11032	-0.133279	-0.519775	0.129395	-0.687744
1243.0	8.38524	1.739196	4.150526	-0.155065	0.117052	-0.215994	-0.52417	0.129395	-0.69458
1244.0	7.976602	1.224334	4.067133	-0.238853	0.109548	-0.2603	-0.517578	0.131592	-0.687744
1245.0	7.7866	0.431213	3.98188	-0.303951	0.0411	-0.299108	-0.52417	0.127197	-0.689941
1246.0	7.838756	-0.1831	3.769609	-0.268902	-0.041007	-0.321663	-0.519531	0.125	-0.692139
1247.0	7.91636	-0.114502	3.666773	-0.193922	-0.072345	-0.33233	-0.519531	0.125	-0.685303
1248.0	8.039753	0.034067	3.379754	-0.187656	-0.144127	-0.315542	-0.526611	0.131592	-0.694824
1249.0	8.408227	-0.037755	2.980082	-0.19522	-0.174572	-0.286485	-0.521729	0.127197	-0.680664
1250.0	8.643842	-0.068809	2.829764	-0.162663	-0.133217	-0.243192	-0.52417	0.127197	-0.6875
1251.0	8.573503	-0.153893	2.693684	-0.157067	-0.061301	-0.200977	-0.531006	0.131592	-0.678467
1252.0	8.407669	-0.22628	2.646402	-0.113784	-0.012608	-0.161712	-0.526611	0.131592	-0.678467
1253.0	8.310778	-0.018924	2.650452	-0.062942	0.008206	-0.141044	-0.52417	0.131592	-0.680908
1254.0	8.234273	0.131552	2.776557	-0.069233	0.037871	-0.124204	-0.528564	0.129395	-0.678467
1255.0	7.872012	0.144904	2.823998	-0.040784	0.082232	-0.12399	-0.526367	0.129395	-0.685303
1256.0	7.505313	0.420124	3.015636	4.4e-05	0.099856	-0.124926	-0.531006	0.131592	-0.678467
1257.0	7.437498	0.755738	3.106379	0.006417	0.083551	-0.106729	-0.530762	0.127197	-0.676025
1258.0	7.757108	0.613245	3.009373	-0.037853	0.052359	-0.073102	-0.531006	0.133789	-0.685547
1259.0	8.292555	0.573703	2.857051	-0.068277	0.037016	-0.04438	-0.535645	0.131592	-0.683105
1260.0	8.881035	0.458054	2.690362	-0.1242	0.024906	-0.024245	-0.526611	0.131592	-0.673828
1261.0	9.297006	0.482854	2.627561	-0.071889	0.071277	-0.003805	-0.533447	0.135986	-0.67627
1262.0	9.532513	0.763072	2.601163	-0.009259	0.116597	0.007282	-0.528809	0.133789	-0.680908
1263.0	9.737075	0.968172	2.383412	-0.040274	0.114382	0.017526	-0.528809	0.131592	-0.683105
1264.0	10.145864	0.840872	2.240318	-0.109886	0.119842	0.021771	-0.53125	0.138184	-0.681152
1265.0	10.279415	0.596214	2.194269	-0.149352	0.168213	0.021016	-0.529053	0.138184	-0.681152
1266.0	10.090771	0.432447	2.136552	-0.155517	0.199099	0.034283	-0.53125	0.138184	-0.678711
1267.0	9.847916	0.394945	2.103651	-0.153107	0.197607	0.042292	-0.524902	0.144775	-0.686035
1268.0	9.663765	0.508376	2.046679	-0.151603	0.193045	0.0491	-0.524658	0.142578	-0.685791
1269.0	9.545701	0.793167	2.143285	-0.174654	0.156404	0.039882	-0.524658	0.140381	-0.68335
1270.0	9.463573	0.96659	2.187901	-0.225848	0.11685	0.026417	-0.524902	0.144775	-0.676758
1271.0	9.140543	0.970226	2.478945	-0.237478	0.118433	0.007682	-0.522705	0.146973	-0.678955
1272.0	8.744317	0.895882	2.650214	-0.230675	0.054166	-0.011973	-0.522705	0.14917	-0.676758
1273.0	8.724902	0.86154	2.525526	-0.199747	-0.053663	-0.010343	-0.531738	0.151367	-0.683838
1274.0	8.901576	0.849704	2.525803	-0.176458	-0.158658	0.005313	-0.527344	0.153564	-0.679199
1275.0	9.528633	0.692955	2.319591	-0.147059	-0.263694	0.008508	-0.520752	0.153564	-0.674561
1276.0	10.348674	0.722327	1.948409	-0.120082	-0.336046	-0.005956	-0.527344	0.151367	-0.679199
1277.0	11.206583	0.845266	1.620671	-0.154259	-0.350688	-0.035712	-0.532227	0.160156	-0.670166
1278.0	11.570413	1.06698	1.150327	-0.211623	-0.246859	-0.056821	-0.534424	0.160156	-0.670166
1279.0	11.313878	1.432946	0.984853	-0.263115	-0.047369	-0.064196	-0.536621	0.157959	-0.670166
1280.0	10.861951	1.826443	1.23801	-0.349516	0.066457	-0.067045	-0.532471	0.164551	-0.672852
1281.0	10.661606	1.92604	1.678008	-0.452951	0.073314	-0.065796	-0.534668	0.168945	-0.666016
1282.0	11.16669	1.385714	2.574964	-0.584615	0.05823	-0.076423	-0.534912	0.171143	-0.666016
1283.0	12.027542	-0.132308	3.668734	-0.694972	0.065101	-0.148091	-0.534912	0.17334	-0.663818
1284.0	12.663846	-1.711713	4.960929	-0.61724	0.045824	-0.295031	-0.537109	0.168945	-0.670654
1285.0	13.114208	-3.015209	5.834594	-0.422934	-0.182963	-0.474873	-0.539307	0.168945	-0.663574
1286.0	13.338949	-3.445256	5.259887	-0.096406	-0.427975	-0.628578	-0.54834	0.171143	-0.666016
1287.0	12.984857	-2.262539	4.796645	0.206257	-0.374249	-0.703308	-0.548096	0.166748	-0.658936
1288.0	11.796536	-1.076475	4.397199	0.257993	-0.234487	-0.676744	-0.548096	0.162354	-0.661133
1289.0	10.258822	0.406559	3.56272	0.340192	-0.13739	-0.585514	-0.547607	0.151367	-0.656006
1290.0	9.371778	2.273977	3.849705	0.16337	-0.012774	-0.434876	-0.552002	0.151367	-0.658203
1291.0	8.663067	2.682011	4.272185	-0.137557	0.06991	-0.251187	-0.552002	0.151367	-0.658203
1292.0	8.016624	2.293998	4.59317	-0.280418	0.087773	-0.128821	-0.554443	0.155762	-0.653809
1293.0	7.776546	1.46249	4.711215	-0.408895	0.02892	-0.084878	-0.556885	0.155762	-0.64917
1294.0	8.196744	0.481279	4.693788	-0.433479	0.008458	-0.098223	-0.559082	0.155762	-0.653809
1295.0	8.49531	-0.401691	4.869958	-0.45136	0.122525	-0.119115	-0.554688	0.157959	-0.65625
1296.0	8.604686	-1.448097	4.888444	-0.440535	0.19581	-0.150688	-0.556885	0.160156	-0.658691
1297.0	9.085432	-2.175283	4.903437	-0.346762	0.21313	-0.179485	-0.556885	0.160156	-0.651611
1298.0	9.500438	-2.457604	4.636074	-0.246165	0.215187	-0.197688	-0.557129	0.164551	-0.654053
1299.0	9.652454	-2.322835	4.291927	-0.114105	0.181809	-0.186089	-0.559082	0.160156	-0.65625
1300.0	9.738141	-2.127041	4.12416	-0.033811	0.134208	-0.130318	-0.55249	0.160156	-0.658691
1301.0	9.787345	-1.55489	3.966238	0.057677	0.087929	-0.028511	-0.554932	0.164551	-0.658691
1302.0	9.649476	-0.944034	3.741823	0.084803	0.074196	0.07924	-0.554443	0.153564	-0.658447
1303.0	9.507865	-0.686383	3.564909	0.084225	0.091508	0.178261	-0.556885	0.160156	-0.654053
1304.0	9.091607	-0.382518	3.482205	0.098172	0.13997	0.235544	-0.552246	0.157959	-0.65625
1305.0	8.662089	-0.051785	3.663179	0.057739	0.162285	0.250469	-0.554688	0.160156	-0.658691
1306.0	8.243799	0.135887	3.707622	0.040968	0.110657	0.237091	-0.554932	0.164551	-0.661133
1307.0	8.313109	0.361129	3.717407	0.042366	-0.024583	0.216402	-0.550293	0.164551	-0.66333
1308.0	8.433532	0.344766	3.331656	0.014472	-0.099632	0.198845	-0.550293	0.162354	-0.656494
1309.0	8.51863	0.244123	2.990674	-0.008018	-0.110968	0.1861	-0.552734	0.164551	-0.654053
1310.0	8.558225	0.169445	2.833521	-0.02979	-0.092293	0.174242	-0.554932	0.166748	-0.658936
1311.0	8.615782	0.009497	2.705092	-0.052156	-0.054276	0.16958	-0.552734	0.168945	-0.656738
1312.0	8.565008	-0.097082	2.60495	-0.058819	-0.017909	0.171177	-0.550537	0.166748	-0.654297
1313.0	8.532425	-0.185939	2.530725	-0.066502	0.047015	0.180165	-0.555176	0.171143	-0.656738
1314.0	8.452474	-0.427255	2.546695	-0.078405	0.110196	0.196193	-0.552979	0.171143	-0.656738
1315.0	8.261525	-0.787275	2.5995	-0.067111	0.161231	0.198266	-0.55957	0.171143	-0.654297
1316.0	8.213412	-1.23284	2.675851	-0.027237	0.178715	0.178983	-0.553223	0.177734	-0.661621
1317.0	8.147131	-1.48552	2.722544	0.038936	0.175833	0.143036	-0.54834	0.171143	-0.661377
1318.0	8.192495	-1.511578	2.731547	0.108741	0.123905	0.095574	-0.557373	0.17334	-0.65918
1319.0	8.362468	-1.174788	2.65979	0.189638	0.035372	0.05648	-0.548584	0.175537	-0.656982
1320.0	8.725437	-0.72373	2.426327	0.212149	-0.037691	0.021994	-0.550537	0.168945	-0.661377
1321.0	9.119156	-0.411833	2.166093	0.184738	-0.052784	0.012787	-0.543945	0.17334	-0.65918
1322.0	9.37095	-0.216245	1.966646	0.160726	0.002758	0.008003	-0.54834	0.171143	-0.658936
1323.0	9.313445	-0.095795	1.898126	0.120409	0.108231	0.004655	-0.555176	0.168945	-0.666016
1324.0	8.996946	-0.102795	1.958928	0.100096	0.182065	0.001054	-0.550537	0.166748	-0.661133
1325.0	8.79518	-0.173642	2.161573	0.104532	0.179142	0.003196	-0.54834	0.171143	-0.663574
1326.0	8.737283	-0.325023	2.188611	0.115823	0.130497	-0.005176	-0.552734	0.166748	-0.663574
1327.0	8.76573	-0.617396	2.170613	0.140297	0.082412	-0.016516	-0.552734	0.166748	-0.67041
1328.0	8.896803	-0.904148	2.24631	0.185449	0.031808	-0.034041	-0.550293	0.162354	-0.66333
