Acquisition frequency: 100 Hz
PacketCounter	Acc_X	Acc_Y	Acc_Z	Gyr_X	Gyr_Y	Gyr_Z	Mag_X	Mag_Y	Mag_Z
0.0	6.177755	0.016105	8.277156	-0.00897	0.014837	-0.013408	0.000244	0.015869	-0.446289
1.0	6.197838	0.062944	8.296928	-0.008229	0.011036	-0.016975	-0.00415	0.015869	-0.446289
2.0	6.193517	0.026794	8.265377	-0.007568	0.012118	-0.015055	-0.003906	0.011475	-0.439453
3.0	6.178052	0.053394	8.311703	-0.009695	0.012209	-0.015912	-0.010254	0.00708	-0.446045
4.0	6.193129	0.04562	8.283054	-0.006646	0.012941	-0.016873	-0.008301	0.011475	-0.446289
5.0	6.190483	0.027733	8.267646	-0.009757	0.010666	-0.016496	-0.008545	0.013672	-0.44165
6.0	6.192854	0.064268	8.300639	-0.009361	0.012008	-0.010837	-0.008301	0.009277	-0.44165
7.0	6.174052	0.054283	8.314669	-0.005447	0.012023	-0.014198	-0.006348	0.018066	-0.439453
8.0	6.171582	0.036126	8.299131	-0.013793	0.007565	-0.014304	-0.006104	0.011475	-0.446289
9.0	6.170893	0.035972	8.299644	-0.009482	0.008923	-0.012004	-0.012695	0.009277	-0.443848
10.0	6.187944	0.046082	8.286925	-0.009483	0.008923	-0.012005	-0.00415	0.013672	-0.444092
11.0	6.18718	0.046055	8.287495	-0.010085	0.009379	-0.013342	-0.008545	0.015869	-0.444092
12.0	6.22196	0.066262	8.261567	-0.01095	0.010095	-0.010942	-0.006348	0.018066	-0.446289
13.0	6.18551	0.045782	8.288743	-0.009426	0.010461	-0.011421	-0.008545	0.015869	-0.446289
14.0	6.201268	0.032983	8.302008	-0.011553	0.010551	-0.01228	-0.010742	0.013672	-0.444092
15.0	6.181946	0.027235	8.274033	-0.009251	0.015082	-0.00967	-0.010498	0.009277	-0.446289
16.0	6.21507	0.024366	8.274368	-0.014971	0.016434	-0.010325	-0.006104	0.011475	-0.450928
17.0	6.179739	0.02188	8.318047	-0.010455	0.015996	-0.012346	-0.00415	0.015869	-0.437256
18.0	6.176783	0.00363	8.30288	-0.008931	0.016362	-0.012825	-0.008301	0.011475	-0.446289
19.0	6.143764	0.04722	8.294829	-0.008932	0.016361	-0.012825	-0.00415	0.013672	-0.444092
20.0	6.195129	0.050437	8.323957	-0.006864	0.014731	-0.01255	-0.008301	0.011475	-0.443848
21.0	6.159533	0.053186	8.325437	-0.008783	0.013021	-0.017733	-0.010742	0.018066	-0.444092
22.0	6.176383	0.063697	8.312906	-0.006438	0.009651	-0.012966	-0.003906	0.011475	-0.446289
23.0	6.190229	0.037719	8.267905	-0.009824	0.009113	-0.017086	-0.008545	0.015869	-0.44873
24.0	6.1552	0.040409	8.268957	-0.008737	0.005117	-0.01558	-0.006348	0.013672	-0.446289
25.0	6.205664	0.025428	8.281422	-0.010092	0.009368	-0.013348	-0.008301	0.011475	-0.44165
26.0	6.20325	0.007192	8.26587	-0.010036	0.010908	-0.012764	-0.006348	0.015869	-0.446289
27.0	6.187226	0.038126	8.27015	-0.009714	0.01219	-0.015918	-0.006348	0.013672	-0.448486
28.0	6.153376	0.05891	8.287661	-0.008512	0.011275	-0.013242	-0.00415	0.015869	-0.44873
29.0	6.167508	0.028102	8.284798	-0.01064	0.011362	-0.014103	-0.008545	0.015869	-0.444092
30.0	6.233886	0.005111	8.268133	-0.008514	0.011274	-0.013242	-0.008789	0.020264	-0.446533
31.0	6.184919	0.056747	8.289224	-0.006332	0.012726	-0.011796	-0.008301	0.011475	-0.44165
32.0	6.182729	0.033981	8.31582	-0.011243	0.011816	-0.015442	-0.006348	0.013672	-0.44165
33.0	6.199533	0.044114	8.30336	-0.011511	0.012071	-0.011703	-0.010498	0.009277	-0.446289
34.0	6.164526	0.041676	8.346659	-0.009441	0.010444	-0.011428	-0.008545	0.015869	-0.446289
35.0	6.196165	0.02564	8.288531	-0.01217	0.010987	-0.013628	-0.00415	0.015869	-0.441895
36.0	6.180131	0.056454	8.292797	-0.008518	0.01127	-0.013243	-0.00415	0.015869	-0.446289
37.0	6.193752	0.030378	8.248043	-0.008354	0.015888	-0.011487	-0.003906	0.009277	-0.450684
38.0	6.191396	0.007209	8.274753	-0.014511	0.012865	-0.010167	-0.001953	0.013672	-0.448486
39.0	6.175081	0.037705	8.279224	-0.010482	0.015972	-0.012349	-0.008545	0.018066	-0.439453
40.0	6.17218	0.019391	8.264051	-0.010429	0.017511	-0.011764	-0.003906	0.009277	-0.44165
41.0	6.188855	0.024886	8.293992	-0.008904	0.017881	-0.01224	-0.003906	0.011475	-0.446289
42.0	6.189017	0.04311	8.311207	-0.008413	0.014344	-0.012073	-0.008301	0.009277	-0.439453
43.0	6.183717	-0.016113	8.30542	-0.008468	0.012804	-0.012659	-0.008301	0.011475	-0.44165
44.0	6.152381	0.045736	8.313364	-0.008199	0.012548	-0.016399	-0.008789	0.020264	-0.446533
45.0	6.167634	0.03791	8.284773	-0.012723	0.012972	-0.014386	-0.004395	0.020264	-0.439697
46.0	6.1667	0.038082	8.285467	-0.002198	0.009469	-0.011242	-0.00415	0.013672	-0.444092
47.0	6.165493	0.043161	8.244118	-0.009727	0.012174	-0.015924	-0.003906	0.009277	-0.443848
48.0	6.181585	0.025971	8.299409	-0.008632	0.008182	-0.014419	-0.010742	0.013672	-0.444092
49.0	6.198657	0.036287	8.286807	-0.012232	0.009433	-0.014222	-0.001953	0.013672	-0.444092
50.0	6.178649	0.00783	8.284274	-0.008634	0.008181	-0.01442	-0.008301	0.011475	-0.44165
51.0	6.179286	0.026169	8.301121	-0.00913	0.011714	-0.014586	-0.006348	0.015869	-0.446289
52.0	6.178425	0.026484	8.30176	-0.005584	0.008924	-0.01537	-0.006104	0.011475	-0.439453
53.0	6.193963	0.018966	8.272993	-0.009786	0.01063	-0.016512	-0.00415	0.013672	-0.444092
54.0	6.178143	0.045431	8.319281	-0.004608	0.011291	-0.016597	-0.008545	0.015869	-0.446289
55.0	6.19359	0.038061	8.290587	-0.00766	0.010544	-0.015648	-0.00415	0.013672	-0.444092
56.0	6.194272	0.05654	8.307389	-0.009892	0.007548	-0.017687	-0.004395	0.020264	-0.444092
57.0	6.174083	0.033112	8.262766	-0.007113	0.008548	-0.014896	-0.006348	0.018066	-0.444092
58.0	6.190186	0.016136	8.318031	-0.006138	0.010915	-0.016123	-0.008545	0.013672	-0.446289
59.0	6.171237	0.010908	8.289794	-0.00919	0.010167	-0.015175	-0.006348	0.013672	-0.446289
60.0	6.188263	0.021499	8.277251	-0.007115	0.008546	-0.014897	-0.001953	0.013672	-0.44165
61.0	6.172465	0.047922	8.32348	-0.006742	0.011369	-0.017463	-0.00415	0.013672	-0.446289
62.0	6.1684	0.016717	8.2497	-0.009743	0.012159	-0.015928	-0.004395	0.018066	-0.444092
63.0	6.186951	0.04081	8.295529	-0.006794	0.009828	-0.018051	-0.012939	0.018066	-0.439453
64.0	6.168198	0.030977	8.309346	-0.006694	0.012905	-0.016876	-0.006348	0.013672	-0.446289
65.0	6.166917	0.036223	8.268103	-0.005492	0.011993	-0.014198	-0.010498	0.009277	-0.446289
66.0	6.184036	0.042086	8.297696	-0.009195	0.01016	-0.015178	-0.006348	0.013672	-0.448486
67.0	6.180399	0.006075	8.265826	-0.005543	0.010453	-0.014785	-0.006348	0.013672	-0.44165
68.0	6.14802	0.044819	8.299304	-0.012348	0.006332	-0.015406	-0.00415	0.015869	-0.446289
69.0	6.214812	0.022289	8.282703	-0.006419	0.011161	-0.012385	-0.006348	0.015869	-0.444092
70.0	6.180863	0.043064	8.300055	-0.006799	0.009823	-0.018052	-0.008301	0.009277	-0.448486
71.0	6.179887	0.048241	8.258604	-0.008647	0.008162	-0.014427	-0.006348	0.015869	-0.444092
72.0	6.194568	0.012898	8.297623	-0.007024	0.011613	-0.013725	-0.008301	0.009277	-0.443848
73.0	6.2114	0.023492	8.285259	-0.009152	0.011692	-0.014592	-0.008545	0.013672	-0.446289
74.0	6.192646	0.013232	8.299057	-0.008551	0.011237	-0.013253	-0.008545	0.018066	-0.444092
75.0	6.194254	0.05445	8.290251	-0.01133	0.010232	-0.016047	-0.006348	0.013672	-0.448486
76.0	6.174158	0.025888	8.287765	-0.010029	0.012397	-0.012192	-0.008545	0.013672	-0.444092
77.0	6.171698	0.007925	8.272323	-0.006657	0.014434	-0.01629	-0.008301	0.011475	-0.448486
78.0	6.188465	0.018724	8.260022	-0.007679	0.010526	-0.015654	-0.008545	0.013672	-0.444092
79.0	6.17106	0.026719	8.290069	-0.009759	0.012142	-0.015934	-0.008545	0.015869	-0.446289
80.0	6.186658	0.014547	8.30352	-0.005183	0.013269	-0.017351	-0.006104	0.011475	-0.446289
81.0	6.152337	0.040532	8.278937	-0.002229	0.010945	-0.019472	-0.00415	0.015869	-0.441895
82.0	6.16938	0.046807	8.308574	-0.008886	0.01143	-0.018335	-0.006348	0.013672	-0.448486
83.0	6.200353	0.009073	8.276255	-0.001676	0.008951	-0.01872	-0.001953	0.013672	-0.437256
84.0	6.166291	0.034908	8.251473	-0.007732	0.008981	-0.016245	-0.008545	0.013672	-0.444092
85.0	6.183674	0.036257	8.322989	-0.003805	0.009027	-0.019589	-0.004395	0.018066	-0.444092
86.0	6.181447	0.018946	8.307391	-0.007044	0.013087	-0.021961	-0.00415	0.013672	-0.446289
87.0	6.181696	0.042424	8.282328	-0.008658	0.008146	-0.014434	-0.008301	0.009277	-0.437012
88.0	6.182172	0.060913	8.29922	-0.006765	0.011346	-0.017469	-0.001953	0.015869	-0.450928
89.0	6.161041	0.009736	8.322373	-0.007689	0.010514	-0.015658	-0.010498	0.011475	-0.450684
90.0	6.196954	0.049109	8.313291	-0.008246	0.012505	-0.01641	-0.006104	0.011475	-0.448486
91.0	6.193467	0.013273	8.281404	-0.006814	0.009806	-0.018059	-0.00415	0.015869	-0.444092
92.0	6.178515	0.062468	8.301931	-0.009217	0.010133	-0.015188	-0.006104	0.011475	-0.446289
93.0	6.140651	0.028471	8.270344	-0.009821	0.010586	-0.016528	-0.008545	0.015869	-0.446289
94.0	6.17667	0.062859	8.303301	-0.006398	0.012678	-0.0118	-0.003906	0.011475	-0.446289
95.0	6.15551	0.01629	8.284364	-0.012041	0.007584	-0.018577	-0.012939	0.018066	-0.44873
96.0	6.190511	0.032556	8.300848	-0.00649	0.009601	-0.012978	-0.006348	0.015869	-0.444092
97.0	6.205016	0.007165	8.255813	-0.006216	0.009349	-0.016719	-0.00415	0.015869	-0.44873
98.0	6.188986	0.03356	8.301981	-0.004736	0.008189	-0.017779	-0.004395	0.020264	-0.444092
99.0	6.170326	0.028663	8.273553	-0.004692	0.009726	-0.01719	-0.001953	0.015869	-0.444092
100.0	6.18846	0.057958	8.277505	-0.005251	0.011716	-0.017942	-0.006348	0.018066	-0.44873
101.0	6.185217	0.017204	8.287561	-0.008623	0.009671	-0.01385	-0.008545	0.013672	-0.446289
102.0	6.186634	0.058539	8.278866	-0.006407	0.012671	-0.011801	-0.006348	0.015869	-0.441895
103.0	6.20108	0.028175	8.275992	-0.008906	0.011408	-0.018343	-0.006348	0.013672	-0.444092
104.0	6.183495	0.041075	8.263988	-0.007702	0.010501	-0.015662	-0.008545	0.013672	-0.44165
105.0	6.183724	0.059483	8.281033	-0.007012	0.013122	-0.013142	-0.00415	0.013672	-0.44165
106.0	6.181474	0.036702	8.307562	-0.008219	0.014027	-0.015824	-0.010742	0.015869	-0.444092
107.0	6.179245	0.01883	8.292011	-0.009832	0.010571	-0.016534	-0.010498	0.009277	-0.443848
108.0	6.214061	0.035325	8.308656	-0.006826	0.009793	-0.018063	-0.006348	0.013672	-0.44165
109.0	6.177154	0.024762	8.251511	-0.00356	0.018239	-0.016054	-0.001953	0.013672	-0.446289
110.0	6.193501	0.030608	8.281657	-0.013876	0.018397	-0.015331	-0.008545	0.013672	-0.44165
111.0	6.175459	0.043196	8.269984	-0.008827	0.014474	-0.017167	-0.008301	0.011475	-0.44165
112.0	6.174067	0.043538	8.271021	-0.006572	0.019012	-0.014526	-0.00415	0.013672	-0.44165
113.0	6.069556	0.045005	8.314706	-0.003494	0.008813	-0.014511	-0.012695	0.011475	-0.439453
114.0	6.15324	0.010256	8.311091	-0.020472	0.009432	-0.012667	-0.006348	0.015869	-0.44873
115.0	6.172856	0.056999	8.33115	-0.001535	0.002594	-0.015999	-0.008545	0.013672	-0.44165
116.0	6.219089	-0.029613	8.278462	-0.013335	0.003902	-0.01422	-0.008301	0.009277	-0.44165
117.0	6.138941	0.077663	8.348191	-0.00487	0.003569	-0.019554	-0.008301	0.011475	-0.448486
118.0	6.166105	-0.032423	8.250213	-0.005385	0.005607	-0.011481	-0.006348	0.013672	-0.439453
119.0	6.205932	0.061193	8.289882	-0.013981	0.002814	-0.016153	-0.003906	0.011475	-0.446289
120.0	6.203385	0.020285	8.299426	-0.003624	0.004201	-0.016281	-0.00415	0.013672	-0.439453
121.0	6.202934	0.020744	8.299762	-0.008721	0.00658	-0.015037	-0.006104	0.011475	-0.44165
122.0	6.202414	0.021064	8.30015	-0.007841	0.005876	-0.017437	-0.004395	0.018066	-0.444092
123.0	6.167326	0.023446	8.300868	-0.005631	0.008879	-0.015383	-0.008301	0.011475	-0.437012
124.0	6.200953	0.026853	8.259221	-0.009848	0.010554	-0.016539	-0.001709	0.011475	-0.44165
125.0	6.217868	0.032677	8.288937	-0.006473	0.011117	-0.012393	-0.008789	0.020264	-0.446533
126.0	6.182535	0.039936	8.247818	-0.005633	0.008878	-0.015384	-0.006348	0.015869	-0.444092
127.0	6.180667	0.017364	8.274042	-0.00684	0.00978	-0.018067	-0.008057	0.00708	-0.437012
128.0	6.180948	0.041069	8.249002	-0.004713	0.009711	-0.017194	-0.008545	0.015869	-0.441895
129.0	6.196958	0.024304	8.304215	-0.005397	0.007088	-0.019717	-0.006348	0.015869	-0.44873
130.0	6.178442	0.019436	8.2757	-0.005318	0.010161	-0.018536	-0.006348	0.015869	-0.441895
131.0	6.21319	0.036406	8.292428	-0.002587	0.00964	-0.01632	-0.008545	0.018066	-0.446289
132.0	6.178802	0.05694	8.309759	-0.008855	0.014452	-0.01717	-0.006104	0.011475	-0.444092
133.0	6.176637	0.044391	8.252213	-0.002549	0.011176	-0.01573	-0.00415	0.015869	-0.444092
134.0	6.175702	0.039697	8.294899	-0.012868	0.011311	-0.015018	-0.008301	0.011475	-0.44165
135.0	6.191424	0.03251	8.266347	-0.005886	0.012144	-0.019288	-0.010742	0.013672	-0.448486
136.0	6.192472	0.06907	8.29988	-0.008535	0.014247	-0.012088	-0.008545	0.015869	-0.44873
137.0	6.172546	0.040498	8.297245	-0.007088	0.011558	-0.013737	-0.004395	0.020264	-0.444092
138.0	6.173777	0.081788	8.288657	-0.009536	0.010337	-0.011462	-0.003906	0.011475	-0.44165
139.0	6.153035	0.029895	8.311446	-0.010178	0.009251	-0.013395	-0.008301	0.011475	-0.446289
140.0	6.203476	0.020786	8.282534	-0.00777	0.008934	-0.016262	-0.001953	0.015869	-0.439453
141.0	6.149524	-0.005834	8.279756	-0.008731	0.006562	-0.015046	-0.006348	0.013672	-0.448486
142.0	6.186634	0.051901	8.287077	-0.006603	0.006495	-0.01417	-0.00415	0.015869	-0.441895
143.0	6.21958	0.032552	8.270878	-0.004836	0.005094	-0.018971	-0.008301	0.011475	-0.448486
144.0	6.201184	0.022563	8.284246	-0.006853	0.009767	-0.018072	-0.003906	0.011475	-0.444092
145.0	6.18477	0.053802	8.288457	-0.002633	0.008099	-0.016912	-0.003906	0.009277	-0.446289
146.0	6.183089	0.036331	8.272568	-0.007813	0.007393	-0.016856	-0.010498	0.011475	-0.446289
147.0	6.183357	0.054914	8.289504	-0.004086	0.010785	-0.015263	-0.001953	0.013672	-0.448486
148.0	6.199336	0.047877	8.260809	-0.008094	0.00764	-0.013114	-0.003906	0.009277	-0.443848
149.0	6.180876	0.037191	8.274217	-0.011712	0.008855	-0.012933	-0.010498	0.011475	-0.443848
150.0	6.163285	0.044557	8.304106	-0.008626	0.011162	-0.013273	-0.006104	0.011475	-0.448486
151.0	6.195889	0.024887	8.2882	-0.006534	0.009561	-0.012989	-0.006348	0.013672	-0.44165
152.0	6.16168	0.044622	8.305296	-0.014764	0.008079	-0.012002	-0.008545	0.013672	-0.446289
153.0	6.176731	0.01398	8.302118	-0.005968	0.007574	-0.012239	0.000244	0.013672	-0.439453
154.0	6.17833	0.055465	8.293247	-0.00881	0.00348	-0.016234	-0.006104	0.011475	-0.444092
155.0	6.193688	0.025259	8.289843	-0.006646	0.004951	-0.014766	-0.006348	0.015869	-0.444092
156.0	6.176542	0.038089	8.277449	-0.00725	0.005401	-0.016108	-0.006348	0.018066	-0.446289
157.0	6.192883	0.025975	8.290443	-0.008812	0.003477	-0.016235	-0.001709	0.011475	-0.44165
158.0	6.194436	0.067422	8.281603	-0.008706	0.008084	-0.014458	-0.00415	0.015869	-0.446289
159.0	6.191795	0.031464	8.249327	-0.008706	0.008084	-0.014458	-0.008301	0.011475	-0.446289
160.0	6.20962	0.055199	8.295465	-0.010126	0.012303	-0.012215	-0.008545	0.013672	-0.444092
161.0	6.223431	0.006624	8.276113	-0.008032	0.010704	-0.011931	-0.006348	0.013672	-0.444092
162.0	6.190011	0.044408	8.309706	-0.011687	0.010378	-0.012344	0.000488	0.011475	-0.444092
163.0	6.188162	0.026218	8.293966	-0.010163	0.010765	-0.012809	-0.008301	0.009277	-0.446289
164.0	6.189273	0.067337	8.285463	-0.012293	0.010826	-0.013687	-0.00415	0.015869	-0.446289
165.0	6.185464	0.007888	8.278863	-0.008351	0.009414	-0.008782	-0.003906	0.011475	-0.44165
166.0	6.203323	0.036803	8.283061	-0.008963	0.011353	-0.01836	-0.001709	0.011475	-0.444092
167.0	6.203365	0.054955	8.300145	-0.011691	0.010373	-0.012345	-0.006348	0.013672	-0.446289
168.0	6.183771	0.02603	8.297241	-0.010167	0.010761	-0.01281	-0.008545	0.015869	-0.446289
169.0	6.148437	0.027761	8.297992	-0.008677	0.009613	-0.013868	-0.006348	0.015869	-0.446289
170.0	6.199919	0.036807	8.285609	-0.011728	0.008835	-0.01294	-0.006348	0.015869	-0.441895
171.0	6.21587	0.024358	8.298907	-0.008678	0.009612	-0.013868	-0.006592	0.020264	-0.446533
172.0	6.216962	0.0658	8.290426	-0.00712	0.011535	-0.013739	-0.004395	0.018066	-0.444092
173.0	6.196492	0.01926	8.271062	-0.007793	0.008914	-0.016269	-0.006348	0.015869	-0.446289
174.0	6.213329	0.025221	8.300807	-0.00776	0.010448	-0.015676	0.000244	0.015869	-0.446289
175.0	6.17898	0.050175	8.276033	-0.012908	0.011264	-0.015034	-0.006104	0.011475	-0.437012
176.0	6.212519	0.048643	8.276645	-0.004994	0.011473	-0.01286	-0.006104	0.011475	-0.446289
177.0	6.193841	0.038223	8.290147	-0.007762	0.010446	-0.015677	-0.006348	0.018066	-0.441895
178.0	6.192067	0.020511	8.274372	-0.007763	0.010445	-0.015677	-0.006348	0.015869	-0.446289
179.0	6.175259	0.051128	8.278804	-0.011354	0.013184	-0.014906	-0.003906	0.011475	-0.446289
180.0	6.226462	0.060421	8.266696	-0.007732	0.011979	-0.015083	-0.006348	0.013672	-0.444092
181.0	6.189109	0.021055	8.276584	-0.009895	0.010502	-0.016558	-0.001953	0.013672	-0.44165
182.0	6.171358	0.033595	8.264619	-0.008591	0.014207	-0.012089	-0.001953	0.013672	-0.444092
183.0	6.170146	0.02848	8.307371	-0.008655	0.011137	-0.013278	0.000488	0.011475	-0.44165
184.0	6.186917	0.039367	8.29531	-0.008624	0.012671	-0.012684	-0.006348	0.013672	-0.44165
185.0	6.200894	-0.008946	8.275922	-0.007131	0.011526	-0.013741	-0.004395	0.018066	-0.44873
186.0	6.185856	0.057852	8.313183	-0.007768	0.010439	-0.015679	-0.003906	0.011475	-0.446289
187.0	6.217701	0.020427	8.280936	-0.009263	0.011582	-0.014623	-0.001953	0.015869	-0.444092
188.0	6.20016	0.033058	8.26881	-0.006591	0.008006	-0.013588	-0.006104	0.011475	-0.446289
189.0	6.182472	0.045996	8.25679	-0.003738	0.015129	-0.017221	-0.006348	0.013672	-0.446289
190.0	6.164492	0.053738	8.286807	-0.007771	0.010436	-0.015681	-0.006348	0.013672	-0.44165
191.0	6.17941	0.023441	8.283821	-0.010761	0.012721	-0.013568	-0.008545	0.015869	-0.444092
192.0	6.179349	0.041617	8.300939	-0.007803	0.0089	-0.016276	-0.008301	0.009277	-0.439453
193.0	6.177923	0.029077	8.243115	-0.009298	0.010042	-0.01522	-0.008301	0.011475	-0.439453
194.0	6.176935	0.024123	8.285665	-0.007804	0.008899	-0.016276	-0.008301	0.009277	-0.446289
195.0	6.193926	0.035215	8.273472	-0.008695	0.009592	-0.013877	-0.002197	0.018066	-0.446289
196.0	6.173483	-0.011469	8.254107	-0.008292	0.015483	-0.015241	-0.006348	0.013672	-0.444092
197.0	6.21023	0.05936	8.320665	-0.007806	0.008896	-0.016278	-0.00415	0.015869	-0.446289
198.0	6.190188	0.017975	8.259202	-0.009878	0.01202	-0.01597	-0.006104	0.011475	-0.448486
199.0	6.172303	0.02538	8.289112	-0.007778	0.010429	-0.015683	-0.00415	0.015869	-0.444092
200.0	6.207023	0.052792	8.222413	-0.004671	0.014282	-0.015415	-0.00415	0.015869	-0.444092
201.0	6.187878	0.037039	8.277988	-0.009852	0.01355	-0.015376	-0.006592	0.020264	-0.446533
202.0	6.202648	0.00674	8.275151	-0.009219	0.014636	-0.013437	-0.006348	0.013672	-0.444092
203.0	6.185616	0.037243	8.279678	-0.009277	0.011566	-0.014628	-0.001709	0.009277	-0.443848
204.0	6.182698	-0.003911	8.289529	-0.009826	0.015081	-0.014782	-0.001953	0.013672	-0.444092
205.0	6.184059	0.05564	8.297886	-0.006806	0.014333	-0.016299	-0.001953	0.015869	-0.444092
206.0	6.181359	0.019713	8.265808	-0.011669	0.013396	-0.011174	-0.006348	0.013672	-0.44165
207.0	6.163212	0.026852	8.295869	-0.008937	0.014386	-0.017183	-0.008301	0.011475	-0.443848
208.0	6.195738	0.007551	8.280324	-0.009226	0.014629	-0.013439	-0.004395	0.018066	-0.444092
209.0	6.196038	0.043621	8.314183	-0.009227	0.014628	-0.01344	-0.006104	0.011475	-0.446289
210.0	6.159947	0.032371	8.256546	-0.010175	0.012252	-0.012232	-0.006348	0.018066	-0.444092
211.0	6.193993	0.048883	8.273964	-0.009807	0.016608	-0.014188	-0.00415	0.013672	-0.448486
212.0	6.139437	0.016073	8.313041	-0.01228	0.013837	-0.012521	-0.003906	0.011475	-0.446289
213.0	6.208319	0.036366	8.288528	-0.009862	0.013539	-0.015381	-0.006104	0.009277	-0.44165
214.0	6.186937	-0.033894	8.294565	-0.011677	0.013387	-0.011178	-0.006348	0.013672	-0.444092
215.0	6.223205	0.029287	8.260951	-0.008997	0.011313	-0.018377	-0.006104	0.009277	-0.450684
216.0	6.201399	-0.045907	8.309025	-0.008867	0.018978	-0.015397	-0.00415	0.013672	-0.446289
217.0	6.10206	0.093573	8.199277	0.000309	0.02288	-0.017555	-0.003906	0.011475	-0.446289
218.0	6.200871	0.014339	8.318782	-0.018175	0.007404	-0.016223	-0.001953	0.013672	-0.448486
219.0	6.236933	0.071926	8.327059	-0.008027	0.013724	-0.010753	-0.008301	0.011475	-0.443848
220.0	6.2304	-0.058846	8.254502	-0.002217	0.017042	-0.017081	-0.00415	0.013672	-0.446289
221.0	6.163103	0.026836	8.237729	-0.013929	0.025897	-0.012386	-0.006348	0.015869	-0.444092
222.0	6.160622	0.015846	8.32296	-0.012845	0.017336	-0.01268	-0.010498	0.011475	-0.446289
223.0	6.196148	0.073884	8.331649	-0.002535	0.01575	-0.013932	-0.004395	0.020264	-0.441895
224.0	6.102952	-0.059568	8.229806	-0.005753	0.024359	-0.014526	-0.006348	0.015869	-0.441895
225.0	6.158198	0.075397	8.334088	-0.025921	0.017879	-0.014262	-0.00415	0.013672	-0.446289
226.0	6.206971	0.025465	8.314814	0.000706	0.008673	-0.012742	-0.002197	0.018066	-0.446289
227.0	6.153492	0.003764	8.269569	-0.009873	0.013524	-0.015389	-0.001953	0.013672	-0.44165
228.0	6.188433	0.038391	8.303378	-0.010261	0.007635	-0.014032	-0.001709	0.00708	-0.44165
229.0	6.16919	0.009601	8.300121	-0.007769	0.011939	-0.015098	-0.006104	0.011475	-0.446289
230.0	6.184595	-0.020351	8.296895	-0.007888	0.004275	-0.018084	-0.008301	0.011475	-0.44165
231.0	6.202822	0.014467	8.259256	-0.006898	0.009716	-0.018095	-0.008301	0.009277	-0.443848
232.0	6.185502	0.040188	8.305553	-0.001718	0.01046	-0.018121	-0.00415	0.015869	-0.444092
233.0	6.201672	0.034123	8.277111	-0.004431	0.012487	-0.019758	-0.006104	0.009277	-0.448486
234.0	6.182954	0.023786	8.290455	-0.005667	0.010352	-0.014809	-0.00415	0.015869	-0.439453
235.0	6.19871	0.011981	8.303975	-0.00533	0.013174	-0.017359	-0.003906	0.00708	-0.446045
236.0	6.164718	0.055169	8.29576	-0.006834	0.014308	-0.016306	-0.006348	0.015869	-0.444092
237.0	6.178865	0.00203	8.318151	-0.006924	0.008177	-0.018695	-0.008301	0.011475	-0.443848
238.0	6.178411	0.007937	8.276858	-0.006859	0.012773	-0.016904	-0.00415	0.013672	-0.446289
239.0	6.16087	0.033141	8.323262	-0.0087	0.011084	-0.0133	-0.00415	0.015869	-0.439453
240.0	6.159732	0.020756	8.265509	-0.007781	0.011927	-0.015102	-0.006348	0.018066	-0.446289
241.0	6.175609	0.008805	8.278948	-0.005694	0.008814	-0.015408	-0.006104	0.011475	-0.446289
242.0	6.175372	0.027321	8.296093	-0.004754	0.01119	-0.016613	-0.010742	0.013672	-0.444092
243.0	6.156837	0.016809	8.309277	-0.007847	0.007328	-0.016896	-0.008545	0.013672	-0.44165
244.0	6.157213	0.040707	8.284345	-0.004798	0.008125	-0.017808	-0.003906	0.011475	-0.444092
245.0	6.17347	0.028867	8.297504	-0.008811	0.003417	-0.016291	-0.006348	0.013672	-0.446289
246.0	6.190717	0.040279	8.285279	-0.005699	0.008811	-0.015409	-0.00415	0.015869	-0.446289
247.0	6.188973	0.004743	8.252659	-0.005429	0.005542	-0.011514	-0.008301	0.009277	-0.448486
248.0	6.206274	0.028505	8.298966	-0.011486	0.008503	-0.016734	-0.006348	0.015869	-0.441895
249.0	6.187808	0.017604	8.312092	-0.009356	0.008456	-0.015844	-0.003906	0.011475	-0.44165
250.0	6.204762	0.028994	8.300094	-0.006287	0.010786	-0.016157	-0.003906	0.011475	-0.446289
251.0	6.187022	0.041601	8.288032	-0.009297	0.01305	-0.014051	-0.006348	0.015869	-0.444092
252.0	6.202791	0.029497	8.301565	-0.007813	0.010385	-0.015703	-0.002197	0.020264	-0.446533
253.0	6.184343	0.024212	8.273079	-0.006815	0.017357	-0.015111	-0.008545	0.015869	-0.446289
254.0	6.217226	0.017882	8.316097	-0.007814	0.010383	-0.015704	-0.008545	0.013672	-0.444092
255.0	6.148169	0.043956	8.291043	-0.009888	0.015023	-0.0148	-0.003906	0.011475	-0.444092
256.0	6.180448	0.019395	8.317562	-0.008677	0.014132	-0.012108	-0.006104	0.011475	-0.448486
257.0	6.179315	0.019456	8.318404	-0.009303	0.013044	-0.014053	-0.001709	0.011475	-0.44165
258.0	6.19605	0.030708	8.306594	-0.007192	0.011467	-0.01376	-0.006592	0.020264	-0.446533
259.0	6.14326	0.026474	8.277743	-0.009305	0.013042	-0.014054	-0.00415	0.015869	-0.446289
260.0	6.160673	0.055611	8.282369	-0.00815	0.007557	-0.013157	-0.008545	0.015869	-0.444092
261.0	6.175188	0.002113	8.304533	-0.008738	0.009533	-0.013905	-0.008545	0.013672	-0.444092
262.0	6.191669	-0.004278	8.275991	-0.006017	0.009007	-0.020505	-0.006348	0.013672	-0.448486
263.0	6.156928	0.015484	8.29284	-0.005708	0.008802	-0.015413	-0.008545	0.013672	-0.444092
264.0	6.190682	0.01478	8.293659	-0.006314	0.009246	-0.01676	-0.004395	0.020264	-0.444092
265.0	6.207321	0.008485	8.265012	-0.005745	0.005737	-0.016611	-0.006348	0.015869	-0.446289
266.0	6.173194	0.033608	8.239843	-0.006316	0.009244	-0.01676	-0.008545	0.013672	-0.446289
267.0	6.171945	0.028495	8.282319	-0.009367	0.00844	-0.015853	-0.00415	0.015869	-0.446289
268.0	6.187899	0.016545	8.295733	-0.0063	0.010774	-0.016162	-0.006104	0.011475	-0.446289
269.0	6.188013	0.040292	8.271029	-0.009957	0.010413	-0.016601	-0.00415	0.013672	-0.446289
270.0	6.186025	0.01711	8.297129	-0.007793	0.013433	-0.01451	-0.001953	0.015869	-0.441895
271.0	6.202724	0.028567	8.285376	-0.00568	0.011859	-0.014216	-0.006104	0.009277	-0.443848
272.0	6.202238	0.046815	8.302653	-0.010565	0.010855	-0.017949	-0.003906	0.011475	-0.448486
273.0	6.16587	0.012379	8.269926	-0.007813	0.011899	-0.01511	-0.010498	0.011475	-0.44165
274.0	6.183046	0.041758	8.274735	-0.009026	0.012786	-0.017804	-0.006348	0.013672	-0.446289
275.0	6.181955	0.04206	8.275549	-0.007798	0.013428	-0.014511	0.000244	0.013672	-0.437256
276.0	6.179486	0.00091	8.285093	-0.00934	0.011493	-0.014658	-0.006348	0.013672	-0.44165
277.0	6.162198	0.031433	8.289563	-0.003554	0.011814	-0.013323	-0.00415	0.013672	-0.448486
278.0	6.159976	-0.009574	8.298921	-0.012126	0.007383	-0.018699	-0.00415	0.015869	-0.446289
279.0	6.195228	0.030968	8.290974	-0.005718	0.008792	-0.015417	-0.008545	0.015869	-0.444092
280.0	6.175787	-0.015449	8.270954	-0.005391	0.011613	-0.017964	-0.001953	0.013672	-0.448486
281.0	6.19388	0.05001	8.308872	-0.005704	0.010321	-0.014818	-0.006104	0.011475	-0.44165
282.0	6.157663	0.015742	8.276033	-0.006311	0.010764	-0.016165	-0.006592	0.020264	-0.444092
283.0	6.208446	0.02071	8.306446	-0.008443	0.010802	-0.01706	-0.003906	0.011475	-0.446289
284.0	6.173984	0.045686	8.281478	-0.007526	0.011649	-0.01886	-0.006104	0.011475	-0.446289
285.0	6.189404	0.015897	8.278427	-0.006612	0.011001	-0.01242	-0.003906	0.011475	-0.439453
286.0	6.205767	0.009402	8.250082	-0.011169	0.012812	-0.018704	-0.006104	0.011475	-0.444092
287.0	6.17089	0.046572	8.283779	-0.005667	0.014909	-0.013019	-0.006104	0.011475	-0.446289
288.0	6.186136	0.016737	8.280868	-0.008433	0.012328	-0.016462	-0.001953	0.013672	-0.444092
289.0	6.185456	0.035115	8.29825	-0.005385	0.013137	-0.017366	-0.006348	0.013672	-0.444092
290.0	6.149484	0.018626	8.282106	-0.00934	0.013008	-0.014064	-0.006348	0.013672	-0.444092
291.0	6.148127	0.03122	8.341445	-0.006291	0.013818	-0.014967	-0.008545	0.018066	-0.444092
292.0	6.147694	0.037223	8.300301	-0.006925	0.011199	-0.017516	-0.003906	0.011475	-0.444092
293.0	6.179805	-0.004704	8.310175	-0.0069	0.014259	-0.016315	-0.008545	0.013672	-0.44165
294.0	6.163059	0.031456	8.272727	-0.005727	0.008781	-0.015422	-0.010742	0.018066	-0.44873
295.0	6.195862	0.007446	8.298963	-0.005727	0.00878	-0.015422	-0.00415	0.013672	-0.44165
296.0	6.161839	0.050259	8.290492	-0.00906	0.011232	-0.018414	-0.008057	0.00708	-0.446045
297.0	6.178339	0.044001	8.262094	-0.005716	0.010309	-0.014822	-0.003906	0.011475	-0.446289
298.0	6.159385	0.015278	8.258602	-0.008455	0.010788	-0.017067	-0.008545	0.015869	-0.446289
299.0	6.175051	0.015696	8.330562	-0.007255	0.008371	-0.014972	-0.006104	0.011475	-0.448486
300.0	6.210329	0.044049	8.26437	-0.007838	0.011874	-0.015119	-0.003906	0.011475	-0.439453
301.0	6.157156	0.034171	8.277111	-0.00572	0.010307	-0.014823	-0.001953	0.013672	-0.439453
302.0	6.173418	0.040053	8.307188	-0.010901	0.009528	-0.01482	-0.00415	0.015869	-0.450928
303.0	6.189616	0.045651	8.337312	-0.009666	0.011703	-0.010923	0.000244	0.015869	-0.446289
304.0	6.17151	0.02224	8.291761	-0.00728	0.005308	-0.016176	-0.008545	0.018066	-0.44873
305.0	6.187424	-0.007591	8.288409	-0.008783	0.007961	-0.014524	-0.003906	0.009277	-0.448486
306.0	6.187034	0.010678	8.305542	-0.003603	0.008739	-0.014526	-0.010742	0.015869	-0.44165
307.0	6.187266	0.034642	8.280796	-0.007866	0.008808	-0.016323	-0.006592	0.020264	-0.446533
308.0	6.186193	0.017084	8.264757	-0.00725	0.009895	-0.014374	-0.00415	0.013672	-0.446289
309.0	6.20338	0.0466	8.269573	-0.005726	0.010302	-0.014824	-0.008545	0.015869	-0.446289
310.0	6.184116	0.029835	8.324548	-0.011815	0.010201	-0.012424	-0.006104	0.011475	-0.437012
311.0	6.183969	0.035349	8.283255	-0.010908	0.00952	-0.014824	-0.001953	0.013672	-0.439453
312.0	6.182046	0.011793	8.309255	-0.010272	0.013666	-0.011672	-0.001953	0.013672	-0.448486
313.0	6.181994	0.035198	8.284729	-0.010292	0.010606	-0.012875	-0.008301	0.009277	-0.446289
314.0	6.180054	0.011713	8.310736	-0.009366	0.012985	-0.014071	-0.006348	0.013672	-0.44165
315.0	6.161981	0.006305	8.282012	-0.00572	0.011829	-0.014223	-0.008301	0.011475	-0.44165
316.0	6.197092	0.064966	8.29111	-0.010609	0.009278	-0.018574	-0.00415	0.015869	-0.441895
317.0	6.161538	0.048215	8.274608	-0.00878	0.009481	-0.013927	-0.008545	0.013672	-0.437256
318.0	6.159577	0.006874	8.2838	-0.009699	0.00863	-0.01213	-0.006104	0.011475	-0.446289
319.0	6.193543	0.024231	8.301487	-0.003906	0.010469	-0.019021	-0.008545	0.015869	-0.441895
320.0	6.193581	0.048239	8.276905	-0.009381	0.011449	-0.014675	-0.001953	0.013672	-0.44165
321.0	6.191739	0.024932	8.30283	-0.007259	0.009887	-0.014377	-0.001709	0.011475	-0.444092
322.0	6.174116	0.03744	8.290593	-0.007866	0.010328	-0.015726	-0.006348	0.013672	-0.446289
323.0	6.155493	0.026267	8.303646	-0.010908	0.011037	-0.014227	-0.00415	0.015869	-0.446289
324.0	6.189877	0.031164	8.262859	-0.006654	0.009443	-0.013029	-0.001709	0.011475	-0.446289
325.0	6.153749	0.026518	8.304938	-0.012124	0.011918	-0.016926	-0.006348	0.013672	-0.446289
326.0	6.188318	0.049322	8.280835	-0.006655	0.009442	-0.013029	-0.006348	0.013672	-0.444092
327.0	6.169701	0.038318	8.293875	-0.005731	0.011822	-0.014224	-0.001953	0.013672	-0.446289
328.0	6.203287	0.037759	8.295056	-0.010003	0.010354	-0.016629	-0.006348	0.018066	-0.441895
329.0	6.185491	0.032193	8.266139	-0.010314	0.009061	-0.013484	-0.003906	0.011475	-0.44165
330.0	6.184668	0.032422	8.266754	-0.006348	0.010732	-0.016176	-0.004395	0.020264	-0.444092
331.0	6.16623	0.039209	8.296451	-0.008784	0.010998	-0.013329	-0.001709	0.011475	-0.446289
332.0	6.182161	0.02713	8.309958	-0.008791	0.009469	-0.013932	-0.001709	0.009277	-0.44165
333.0	6.164301	0.021679	8.281088	-0.007868	0.011849	-0.015126	-0.006348	0.013672	-0.444092
334.0	6.197865	0.021038	8.282308	-0.008786	0.010996	-0.01333	-0.00415	0.015869	-0.441895
335.0	6.1625	0.021918	8.282427	-0.010925	0.009496	-0.014835	-0.00415	0.013672	-0.439453
336.0	6.179414	0.051407	8.287469	-0.004815	0.014198	-0.015418	-0.003906	0.011475	-0.446289
337.0	6.177008	-0.007507	8.280209	-0.00939	0.012963	-0.014078	-0.003906	0.011475	-0.44165
338.0	6.176288	0.028437	8.31432	-0.006347	0.012256	-0.015574	-0.008789	0.020264	-0.446533
339.0	6.192823	0.022221	8.286076	-0.008784	0.01252	-0.012729	-0.008545	0.013672	-0.450928
340.0	6.174048	0.011045	8.2992	-0.009088	0.012724	-0.017827	-0.006348	0.018066	-0.444092
341.0	6.190789	0.022711	8.287594	-0.00666	0.010961	-0.01243	-0.00415	0.013672	-0.439453
342.0	6.155184	0.005855	8.271083	-0.010007	0.01187	-0.016032	-0.010498	0.011475	-0.443848
343.0	6.205744	0.028876	8.318622	-0.006959	0.012693	-0.016925	-0.001953	0.013672	-0.446289
344.0	6.187682	0.005686	8.273138	-0.009402	0.011427	-0.014684	-0.006348	0.015869	-0.446289
345.0	6.2216	0.05869	8.32446	-0.006353	0.012251	-0.015576	-0.008545	0.013672	-0.446289
346.0	6.167886	-0.005263	8.287008	-0.010919	0.014069	-0.013032	-0.006348	0.015869	-0.444092
347.0	6.201455	0.029605	8.321817	-0.009395	0.014481	-0.013478	-0.001709	0.011475	-0.444092
348.0	6.201097	0.035524	8.280811	-0.008483	0.013805	-0.015877	-0.008545	0.015869	-0.446289
349.0	6.164354	0.013017	8.3064	-0.006952	0.017273	-0.015116	-0.010742	0.015869	-0.446289
350.0	6.181701	0.030451	8.253107	-0.010013	0.011862	-0.016036	-0.001953	0.013672	-0.44165
351.0	6.17978	0.024926	8.2958	-0.009094	0.014242	-0.017228	-0.00415	0.013672	-0.448486
352.0	6.178507	0.025287	8.296747	-0.003609	0.016364	-0.011512	-0.006104	0.009277	-0.44165
353.0	6.194932	0.036965	8.285418	-0.010009	0.014914	-0.014831	-0.00415	0.015869	-0.446289
354.0	6.1759	0.007787	8.281935	-0.009403	0.014473	-0.013481	-0.00415	0.015869	-0.44873
355.0	6.191723	0.049131	8.345804	-0.009404	0.014472	-0.013482	-0.006104	0.009277	-0.44165
356.0	6.173447	0.008004	8.283764	-0.009095	0.015765	-0.016627	-0.006348	0.015869	-0.446289
357.0	6.173245	0.049616	8.276175	-0.010016	0.013382	-0.015437	-0.001953	0.013672	-0.44165
358.0	6.17122	0.026309	8.302166	-0.00697	0.012682	-0.01693	-0.00415	0.015869	-0.444092
359.0	6.170043	0.026472	8.30304	-0.010931	0.015581	-0.012435	-0.006348	0.015869	-0.44873
360.0	6.151164	0.032876	8.332907	-0.007886	0.013354	-0.014532	-0.004395	0.018066	-0.441895
361.0	6.185513	0.038181	8.292446	-0.010021	0.01185	-0.016043	-0.004395	0.018066	-0.446289
362.0	6.14986	0.02123	8.275917	-0.007279	0.01444	-0.012578	-0.00415	0.013672	-0.444092
363.0	6.182386	0.015024	8.319248	-0.005758	0.011799	-0.014231	-0.010742	0.013672	-0.446289
364.0	6.181122	-0.002446	8.303456	-0.00971	0.017723	-0.017376	-0.008545	0.013672	-0.44165
365.0	6.180738	0.039331	8.296001	-0.003626	0.014828	-0.012115	-0.006348	0.013672	-0.444092
366.0	6.144051	-0.001044	8.304697	-0.009106	0.014227	-0.017236	-0.006592	0.020264	-0.441895
367.0	6.177456	0.034165	8.33963	-0.007893	0.013347	-0.014535	-0.010742	0.013672	-0.446289
368.0	6.141931	0.017565	8.322985	-0.003929	0.01045	-0.019029	-0.008545	0.013672	-0.44165
369.0	6.142002	0.024095	8.281743	-0.007586	0.010057	-0.019494	-0.003906	0.011475	-0.450928
370.0	6.175932	0.059743	8.316281	-0.001501	0.00411	-0.01544	-0.00415	0.013672	-0.444092
371.0	6.175498	0.042713	8.299885	-0.004241	0.006099	-0.017095	-0.006592	0.022461	-0.446533
372.0	6.158245	0.055376	8.287306	-0.006683	0.004828	-0.014858	-0.006348	0.013672	-0.448486
373.0	6.175592	0.067086	8.275345	-0.009733	0.003995	-0.013973	-0.008789	0.020264	-0.444092
374.0	6.191895	0.037278	8.27192	-0.008817	0.007904	-0.014557	-0.006348	0.018066	-0.444092
375.0	6.173532	0.00815	8.267927	-0.008818	0.007903	-0.014557	-0.006348	0.015869	-0.444092
376.0	6.155112	0.032197	8.314094	-0.011261	0.008158	-0.011717	-0.010742	0.015869	-0.444092
377.0	6.206805	0.025466	8.286251	-0.005161	0.005242	-0.015302	-0.006104	0.011475	-0.444092
378.0	6.17183	0.008587	8.269197	-0.010952	0.006396	-0.016072	-0.006104	0.011475	-0.44165
379.0	6.204823	0.0202	8.328893	-0.005163	0.006769	-0.014697	-0.006104	0.011475	-0.450928
380.0	6.170724	0.026982	8.286723	-0.008213	0.005934	-0.013813	0.000244	0.015869	-0.439453
381.0	6.17115	0.050931	8.261944	-0.007904	0.005701	-0.017563	-0.008545	0.015869	-0.439453
382.0	6.186466	0.033091	8.317129	-0.011873	0.007063	-0.013675	-0.006348	0.013672	-0.446289
383.0	6.185822	0.015366	8.300911	-0.006693	0.009403	-0.013045	-0.010498	0.011475	-0.446289
384.0	6.203023	0.009282	8.272381	-0.009738	0.003987	-0.013978	-0.00415	0.015869	-0.446289
385.0	6.184751	0.015708	8.301708	-0.007301	0.008314	-0.015002	-0.00415	0.013672	-0.444092
386.0	6.201686	0.027577	8.290076	-0.007912	0.010278	-0.015747	-0.003906	0.011475	-0.446289
387.0	6.166442	0.028492	8.289905	-0.007909	0.007224	-0.016959	-0.006348	0.015869	-0.446289
388.0	6.200343	0.028141	8.291079	-0.010352	0.007475	-0.014119	-0.008301	0.009277	-0.443848
389.0	6.130677	0.011538	8.273424	-0.008831	0.00942	-0.013955	-0.008545	0.013672	-0.439453
390.0	6.215626	0.016337	8.305141	-0.007916	0.010275	-0.015748	-0.006348	0.015869	-0.441895
391.0	6.198164	0.011032	8.27602	-0.007911	0.007221	-0.01696	-0.010742	0.015869	-0.444092
392.0	6.180584	0.023457	8.263674	-0.007312	0.011362	-0.013792	-0.00415	0.015869	-0.444092
393.0	6.160839	0.006311	8.318514	-0.007008	0.014183	-0.01633	-0.001709	0.011475	-0.446289
394.0	6.160715	0.030356	8.294155	-0.007919	0.010272	-0.01575	-0.006348	0.018066	-0.446289
395.0	6.176683	0.000867	8.291029	-0.006399	0.012217	-0.015585	-0.00415	0.013672	-0.44165
396.0	6.175617	0.019218	8.308498	-0.002739	0.01109	-0.015722	-0.006348	0.015869	-0.444092
397.0	6.175695	0.025495	8.267322	-0.010973	0.010957	-0.014263	-0.003906	0.011475	-0.44165
398.0	6.191444	0.031495	8.297714	-0.00609	0.011983	-0.019336	-0.00415	0.013672	-0.446289
399.0	6.156053	0.014775	8.28094	-0.005794	0.011776	-0.014235	-0.006348	0.013672	-0.444092
400.0	6.171797	0.020954	8.311331	-0.004875	0.011106	-0.016633	0.000488	0.011475	-0.448486
401.0	6.188713	0.015345	8.283083	-0.0064	0.010685	-0.016193	-0.006348	0.018066	-0.444092
402.0	6.205526	0.027424	8.27158	-0.006401	0.010684	-0.016194	-0.008545	0.013672	-0.444092
403.0	6.186875	0.016269	8.284455	-0.006406	0.01221	-0.015588	-0.006592	0.020264	-0.444092
404.0	6.167987	0.022935	8.314154	-0.005492	0.013066	-0.01738	-0.001953	0.015869	-0.444092
405.0	6.16695	0.023381	8.314922	-0.007932	0.011787	-0.015148	-0.008301	0.011475	-0.439453
406.0	6.18353	0.035445	8.303598	-0.006107	0.015028	-0.018126	-0.008545	0.015869	-0.446289
407.0	6.199336	-0.011596	8.283996	-0.008247	0.016569	-0.018432	-0.006104	0.009277	-0.446289
408.0	6.180689	0.054287	8.322351	-0.003374	0.016099	-0.015256	-0.00415	0.015869	-0.446289
409.0	6.17967	0.019331	8.289823	-0.007641	0.016129	-0.017081	-0.010742	0.013672	-0.448486
410.0	6.161317	0.049517	8.294658	-0.006431	0.016781	-0.013771	-0.010742	0.015869	-0.446289
411.0	6.176953	0.019994	8.291846	-0.009167	0.015706	-0.016643	-0.010986	0.020264	-0.441895
412.0	6.175674	0.038107	8.30943	-0.006407	0.010675	-0.016198	-0.008545	0.018066	-0.444092
413.0	6.1923	0.050355	8.298096	-0.003982	0.015006	-0.017216	-0.006348	0.015869	-0.450928
414.0	6.173383	0.039346	8.311126	-0.004898	0.014146	-0.015425	-0.00415	0.013672	-0.448486
415.0	6.172434	0.021995	8.295206	-0.007947	0.013302	-0.014547	-0.001709	0.011475	-0.446289
416.0	6.187986	0.027952	8.325724	-0.008549	0.012212	-0.016507	-0.003906	0.011475	-0.446289
417.0	6.171399	0.028463	8.254938	-0.010082	0.013314	-0.015462	-0.006104	0.011475	-0.444092
418.0	6.169248	0.022756	8.297574	-0.006419	0.012196	-0.015594	-0.006348	0.015869	-0.441895
419.0	6.168204	0.023013	8.298349	-0.009475	0.012876	-0.01411	-0.008545	0.013672	-0.44165
420.0	6.184609	0.052566	8.303816	-0.007343	0.012861	-0.013196	-0.006348	0.018066	-0.446289
421.0	6.165954	0.023246	8.300021	-0.008885	0.015489	-0.011544	-0.008545	0.013672	-0.446289
422.0	6.181635	0.011261	8.313828	-0.010078	0.011784	-0.016072	-0.00415	0.015869	-0.44873
423.0	6.181263	0.053033	8.306304	-0.007031	0.012629	-0.016948	-0.006104	0.011475	-0.44165
424.0	6.180455	0.035562	8.290299	-0.008871	0.012435	-0.01276	-0.006348	0.013672	-0.444092
425.0	6.179383	0.035708	8.291097	-0.007956	0.013293	-0.014551	-0.00415	0.015869	-0.446289
426.0	6.160642	0.024272	8.303961	-0.007948	0.011767	-0.015158	-0.00415	0.013672	-0.44165
427.0	6.177033	-0.022851	8.284049	-0.006416	0.010665	-0.016204	-0.006104	0.011475	-0.446289
428.0	6.176576	0.036828	8.293184	-0.006408	0.009139	-0.016812	-0.00415	0.013672	-0.444092
429.0	6.175504	0.055022	8.310574	-0.005809	0.010227	-0.014851	-0.00415	0.013672	-0.444092
430.0	6.157613	0.008281	8.28961	-0.007923	0.007188	-0.016983	-0.004395	0.022461	-0.446533
431.0	6.175008	0.002776	8.261167	-0.006999	0.006522	-0.019381	-0.005859	0.00708	-0.443848
432.0	6.156151	0.026967	8.307283	-0.007326	0.008276	-0.015023	-0.008545	0.015869	-0.441895
433.0	6.207583	0.038691	8.296688	-0.007946	0.010236	-0.015768	-0.008545	0.015869	-0.441895
434.0	6.17225	0.039222	8.296393	-0.008862	0.009375	-0.013979	0.0	0.020264	-0.450928
435.0	6.171819	0.021654	8.280131	-0.008852	0.00785	-0.014587	-0.003906	0.009277	-0.448486
436.0	6.187588	0.027392	8.310472	-0.010398	0.010474	-0.012934	-0.00415	0.013672	-0.444092
437.0	6.187021	0.009866	8.294314	-0.005816	0.010223	-0.014852	-0.008301	0.009277	-0.446289
438.0	6.16932	0.022155	8.281992	-0.008875	0.010897	-0.013372	-0.006348	0.013672	-0.448486
439.0	6.185087	0.028081	8.312331	-0.007928	0.007182	-0.016986	-0.00415	0.013672	-0.44165
440.0	6.168072	0.005098	8.266345	-0.006439	0.012181	-0.015598	-0.008545	0.018066	-0.439453
441.0	6.166597	0.040886	8.300588	-0.007332	0.00827	-0.015026	-0.006348	0.018066	-0.444092
442.0	6.183863	0.035156	8.272282	-0.008868	0.009369	-0.013981	-0.001953	0.015869	-0.444092
443.0	6.166346	0.047436	8.259817	-0.00793	0.007179	-0.016988	-0.001953	0.015869	-0.44873
444.0	6.180445	0.005831	8.340163	-0.008869	0.009367	-0.013982	-0.003906	0.011475	-0.437256
445.0	6.198293	0.04169	8.303616	-0.005799	0.007169	-0.016071	-0.006348	0.013672	-0.44165
446.0	6.163485	0.024577	8.286328	-0.008859	0.007841	-0.014591	-0.008545	0.013672	-0.446289
447.0	6.179134	0.030431	8.316749	-0.006763	0.012405	-0.011848	-0.001953	0.015869	-0.444092
448.0	6.179464	0.036643	8.275562	-0.011603	0.008283	-0.016864	-0.008545	0.018066	-0.444092
449.0	6.195623	0.024759	8.289046	-0.008861	0.007839	-0.014592	-0.010742	0.013672	-0.446289
450.0	6.177099	0.013088	8.301702	-0.0089	0.012411	-0.012766	-0.00415	0.015869	-0.44873
451.0	6.159308	0.025352	8.289431	-0.006436	0.01065	-0.016209	-0.001953	0.013672	-0.448486
452.0	6.192104	0.001732	8.316045	-0.007961	0.010222	-0.015774	-0.010986	0.020264	-0.446533
453.0	6.174838	0.055515	8.29556	-0.007975	0.011745	-0.015165	-0.006348	0.018066	-0.450928
454.0	6.173352	0.014131	8.304487	-0.011037	0.012415	-0.013686	-0.00415	0.015869	-0.446289
455.0	6.189642	0.043925	8.310055	-0.006134	0.011943	-0.019353	-0.010742	0.015869	-0.448486
456.0	6.189084	0.026552	8.293924	-0.010416	0.010454	-0.012943	-0.00415	0.015869	-0.444092
457.0	6.153648	0.026908	8.293628	-0.005845	0.011735	-0.014247	-0.006104	0.011475	-0.444092
458.0	6.170492	0.039073	8.282243	-0.007342	0.008259	-0.015031	-0.004395	0.020264	-0.444092
459.0	6.168506	0.033185	8.324625	-0.00949	0.009789	-0.015342	0.000488	0.011475	-0.439453
460.0	6.202316	0.033534	8.326137	-0.003353	0.006927	-0.018908	-0.008545	0.013672	-0.444092
461.0	6.168358	0.040226	8.283827	-0.013149	0.009365	-0.015828	-0.006348	0.015869	-0.444092
462.0	6.167136	0.058122	8.301269	-0.003702	0.010202	-0.013937	-0.00415	0.015869	-0.44873
463.0	6.167662	0.005679	8.251279	-0.007011	0.006504	-0.019395	-0.006348	0.013672	-0.444092
464.0	6.184354	0.035752	8.25655	-0.005808	0.007159	-0.016077	-0.006348	0.015869	-0.441895
465.0	6.165195	0.00059	8.294008	-0.005824	0.008682	-0.015467	-0.003906	0.011475	-0.44165
466.0	6.199733	0.02468	8.270637	-0.008583	0.010644	-0.017133	0.000244	0.015869	-0.450928
467.0	6.180834	0.03092	8.300059	-0.005825	0.008681	-0.015468	-0.006348	0.013672	-0.446289
468.0	6.179999	0.031217	8.300679	-0.009514	0.011303	-0.014736	-0.003906	0.009277	-0.439453
469.0	6.214811	0.037452	8.2606	-0.007991	0.011731	-0.01517	-0.006104	0.011475	-0.44165
470.0	6.178096	0.031595	8.302095	-0.008906	0.010868	-0.013382	-0.00415	0.013672	-0.446289
471.0	6.211665	0.031722	8.303825	-0.005859	0.011726	-0.014249	-0.006348	0.015869	-0.441895
472.0	6.159376	0.044116	8.290488	-0.010721	0.010643	-0.018057	0.000244	0.013672	-0.446289
473.0	6.210152	0.014763	8.288444	-0.004964	0.014111	-0.015427	-0.006348	0.013672	-0.44165
474.0	6.174586	0.015197	8.288192	-0.009519	0.011297	-0.014739	-0.00415	0.013672	-0.444092
475.0	6.174396	0.039405	8.263983	-0.005559	0.013019	-0.017393	-0.006104	0.009277	-0.443848
476.0	6.171898	0.033796	8.306695	-0.005594	0.016065	-0.016173	-0.001953	0.015869	-0.444092
477.0	6.170811	0.034013	8.307501	-0.009825	0.009997	-0.011598	-0.00415	0.015869	-0.450928
478.0	6.18684	0.022269	8.321115	-0.00705	0.00954	-0.018182	-0.004395	0.020264	-0.446533
479.0	6.169616	0.017033	8.291889	-0.009202	0.011065	-0.018494	-0.001953	0.013672	-0.446289
480.0	6.186268	0.029291	8.280698	-0.005885	0.013242	-0.013641	-0.004395	0.018066	-0.441895
481.0	6.18523	0.029607	8.281472	-0.008002	0.01172	-0.015175	-0.006348	0.015869	-0.444092
482.0	6.182879	0.023659	8.324054	-0.00802	0.013243	-0.014565	-0.004395	0.018066	-0.446289
483.0	6.164074	0.012082	8.336834	-0.007108	0.014106	-0.016352	-0.010498	0.011475	-0.448486
484.0	6.181954	0.030489	8.283915	-0.006802	0.012375	-0.011855	-0.00415	0.013672	-0.444092
485.0	6.180341	0.048431	8.301599	-0.007109	0.014104	-0.016353	-0.010742	0.015869	-0.444092
486.0	6.196108	0.036769	8.315419	-0.010139	0.011717	-0.016101	-0.006348	0.013672	-0.44165
487.0	6.161829	0.043255	8.273338	-0.00591	0.01476	-0.013032	-0.006348	0.015869	-0.437256
488.0	6.194359	0.019578	8.300244	-0.010159	0.013238	-0.015491	-0.006348	0.013672	-0.444092
489.0	6.192744	0.037317	8.317922	-0.00955	0.012805	-0.014136	-0.00415	0.015869	-0.441895
490.0	6.192943	0.043688	8.276976	-0.008047	0.014758	-0.013957	-0.006348	0.015869	-0.444092
491.0	6.174054	0.031895	8.289799	-0.010182	0.014758	-0.014882	-0.008301	0.011475	-0.446289
492.0	6.189663	0.019899	8.303746	-0.010506	0.014982	-0.011129	-0.006348	0.015869	-0.444092
493.0	6.153954	0.019753	8.303513	-0.011097	0.013891	-0.013096	-0.006104	0.011475	-0.446289
494.0	6.204743	0.031677	8.293777	-0.008111	0.019322	-0.012124	-0.003906	0.011475	-0.444092
495.0	6.201946	0.025501	8.336635	-0.010185	0.014754	-0.014884	-0.006592	0.020264	-0.441895
496.0	6.184263	0.019748	8.307769	-0.011771	0.018887	-0.01262	-0.004395	0.018066	-0.439453
497.0	6.200463	0.03162	8.296977	-0.010207	0.016274	-0.014273	-0.006348	0.015869	-0.441895
498.0	6.199009	0.031732	8.298063	-0.009316	0.01866	-0.015449	-0.006348	0.013672	-0.444092
499.0	6.356832	0.021048	8.174873	-0.013079	0.025835	-0.012888	-0.00415	0.013672	-0.439453
500.0	6.173513	0.225732	8.415232	-0.012536	0.029967	-0.009699	-0.003906	0.009277	-0.44165
501.0	6.107126	0.066153	8.262878	-0.019655	0.034976	-0.003139	-0.003906	0.009277	-0.443848
502.0	6.153219	-0.019713	8.35383	-0.04158	0.030843	-0.00674	-0.010498	0.011475	-0.446289
503.0	6.257662	0.175495	8.260528	0.001261	0.024749	-0.008365	-0.004395	0.018066	-0.444092
504.0	6.118025	-0.246625	8.237113	-0.050018	0.04279	-0.000455	0.000244	0.015869	-0.444092
505.0	6.195762	0.224169	8.38495	0.004872	0.028226	-0.006635	-0.010742	0.015869	-0.448486
506.0	6.076676	0.087458	8.27639	-0.039161	0.026067	0.006306	-0.006348	0.015869	-0.44873
507.0	6.123334	0.142197	8.359974	-0.036753	0.025853	0.012343	0.000244	0.015869	-0.444092
508.0	6.088519	0.085563	8.309625	-0.03678	0.027369	0.012954	-0.00415	0.015869	-0.444092
509.0	6.206997	0.009323	8.319129	-0.062799	0.026064	0.02266	-0.012939	0.015869	-0.444092
510.0	6.219706	0.103851	8.393421	-0.027896	0.018029	0.026966	-0.00415	0.015869	-0.44873
511.0	6.151605	0.187972	8.334318	-0.045376	0.012164	0.047408	-0.002197	0.018066	-0.444092
512.0	6.327149	-0.001837	8.214347	-0.061568	0.029523	0.058899	-0.001953	0.015869	-0.446289
513.0	6.218263	0.020373	8.288104	-0.014787	0.03276	0.048906	-0.002197	0.020264	-0.439697
514.0	6.195604	-0.003448	8.344103	-0.046411	0.047533	0.042432	-0.00415	0.015869	-0.444092
515.0	6.305939	-0.140739	8.488703	-0.013628	0.069648	0.036641	-0.00415	0.015869	-0.444092
516.0	6.150705	-0.331297	8.329443	-0.032361	0.064902	0.013788	-0.008789	0.020264	-0.441895
517.0	6.063895	0.137628	8.231885	0.043694	0.068518	0.01556	-0.006592	0.022461	-0.44873
518.0	6.276996	0.323388	8.402204	-0.04336	0.059035	0.019241	-0.004395	0.020264	-0.444092
519.0	6.138794	-0.080897	8.252728	-0.019355	0.066154	0.025085	-0.006348	0.015869	-0.446289
520.0	6.286388	0.198891	8.322092	-0.019843	0.080025	0.0255	-0.008545	0.018066	-0.446289
521.0	6.03683	0.17055	8.341877	-0.055545	0.088485	0.03745	-0.006592	0.020264	-0.446533
522.0	6.04675	0.032482	8.341768	-0.073908	0.083267	0.042486	-0.004395	0.020264	-0.450928
523.0	6.091822	-0.065307	8.335145	-0.075211	0.082576	0.048002	-0.006836	0.024658	-0.444336
524.0	6.22338	-0.033431	8.338723	-0.072182	0.083413	0.047151	-0.008789	0.020264	-0.441895
525.0	6.228222	-0.109168	8.448322	-0.069502	0.090546	0.043658	-0.006592	0.022461	-0.444092
526.0	6.261422	-0.013899	8.315738	-0.051648	0.109578	0.039079	-0.010742	0.015869	-0.446289
527.0	6.143893	-0.134802	8.399356	-0.070739	0.116942	0.038772	-0.006836	0.024658	-0.441895
528.0	6.204745	-0.194823	8.358991	-0.051198	0.127309	0.030103	-0.006836	0.024658	-0.439697
529.0	6.175361	-0.153865	8.388221	-0.05411	0.142891	0.025093	-0.006836	0.024658	-0.444336
530.0	5.876951	-0.344593	8.223291	-0.061619	0.149557	0.027089	-0.006592	0.020264	-0.441895
531.0	5.723516	-0.144277	8.328425	-0.04538	0.126135	0.022058	-0.004395	0.022461	-0.441895
532.0	5.509762	-0.319001	8.252925	-0.068991	0.100606	0.022555	-0.002197	0.022461	-0.444092
533.0	5.494874	-0.370361	8.40636	-0.060744	0.048195	0.024819	-0.002686	0.03125	-0.442139
534.0	5.875284	-0.407375	8.353227	-0.046929	0.015906	0.027754	-0.00708	0.03125	-0.439697
535.0	5.686179	-0.29821	8.333126	-0.041535	0.006185	0.023556	-0.004883	0.029053	-0.442139
536.0	5.66901	-0.314923	8.343666	-0.045871	-0.028148	0.014909	-0.009033	0.029053	-0.442139
537.0	6.104205	-0.625237	8.601793	-0.045426	-0.040489	0.015058	-0.004883	0.03125	-0.442139
538.0	5.769391	-0.30675	8.190062	0.016987	-0.025638	0.009677	-0.002441	0.024658	-0.444336
539.0	5.698678	-0.20251	8.287066	-0.019476	-0.046534	0.00629	-0.002441	0.024658	-0.439697
540.0	5.647506	-0.483232	8.31984	-0.016665	-0.0801	0.007561	-0.006836	0.029053	-0.442139
541.0	5.880841	-0.255637	8.336341	0.00255	-0.104196	0.009928	-0.006592	0.022461	-0.439697
542.0	6.316872	-0.144364	8.443354	-0.010961	-0.105283	0.011102	-0.004639	0.024658	-0.444336
543.0	6.189668	0.079853	8.411006	-0.029506	-0.074357	0.018312	-0.004639	0.026855	-0.446533
544.0	6.281136	-0.072551	8.386811	-0.046164	-0.055005	0.011306	-0.004883	0.029053	-0.442139
545.0	6.251703	-0.229831	8.328083	-0.057364	-0.036563	0.008918	-0.006836	0.026855	-0.444336
546.0	6.097424	-0.168572	8.357851	-0.040018	-0.017061	0.003108	-0.002441	0.024658	-0.439697
547.0	6.113716	-0.208757	8.39442	-0.041864	-0.012704	0.000278	-0.006836	0.024658	-0.441895
548.0	6.321846	-0.172565	8.397042	-0.043156	0.001861	-0.005692	-0.006836	0.026855	-0.444336
549.0	6.171553	-0.106262	8.287195	-0.045695	0.020341	-0.013128	0.0	0.022461	-0.439697
550.0	6.110735	-0.318615	8.392962	-0.044036	0.020854	-0.022396	0.001953	0.026855	-0.44873
551.0	6.183025	-0.323822	8.297123	-0.027684	0.021551	-0.030143	-0.004639	0.026855	-0.44873
552.0	6.159695	-0.425688	8.365767	-0.013695	0.022531	-0.043942	-0.004639	0.024658	-0.441895
553.0	6.191212	-0.211115	8.433329	0.024191	0.018679	-0.05294	0.0	0.022461	-0.446533
554.0	6.172503	-0.118132	8.448632	2.5e-05	0.01764	-0.05649	0.001953	0.026855	-0.441895
555.0	6.1727	-0.089909	8.425169	0.010761	0.013054	-0.053625	0.00415	0.022461	-0.44873
556.0	6.172896	-0.003099	8.411628	-0.000429	0.014705	-0.045137	0.001953	0.022461	-0.446533
557.0	6.190087	-0.284304	8.35121	-0.024804	0.018098	-0.037965	-0.002686	0.03125	-0.448975
558.0	6.083596	-0.247663	8.381472	5.1e-05	0.020297	-0.041287	-0.000244	0.024658	-0.451172
559.0	6.031955	-0.249682	8.350479	0.00203	0.016018	-0.047319	0.00415	0.024658	-0.444336
560.0	6.079657	-0.206376	8.417798	0.018759	0.008932	-0.053065	-0.000244	0.024658	-0.446533
561.0	6.116555	-0.052734	8.374166	0.01316	0.00975	-0.048824	0.002197	0.020264	-0.446533
562.0	6.063866	-0.179336	8.364281	-0.002864	0.010336	-0.044219	0.0	0.020264	-0.446533
563.0	6.11684	-0.14003	8.330989	0.009691	0.010561	-0.043635	-0.000488	0.029053	-0.446533
564.0	6.012063	-0.077551	8.336387	0.004967	0.015281	-0.039915	-0.002441	0.024658	-0.44873
565.0	6.043385	-0.082262	8.380536	0.001893	0.008285	-0.032731	0.0	0.022461	-0.44873
566.0	6.043954	-0.215671	8.344069	-0.003493	0.016469	-0.029124	-0.000244	0.024658	-0.444336
567.0	6.022193	-0.114795	8.417694	0.011415	0.006131	-0.031949	-0.002441	0.024658	-0.446533
568.0	6.109803	-0.176781	8.383226	0.001191	0.007139	-0.025856	0.0	0.022461	-0.44873
569.0	6.055719	-0.110847	8.420248	0.003985	0.003672	-0.024794	0.001953	0.022461	-0.44873
570.0	6.055218	-0.050401	8.430312	0.000287	-0.001369	-0.018344	-0.000244	0.024658	-0.446533
571.0	6.087929	-0.057062	8.473451	-0.012841	-0.008794	-0.014548	-0.002441	0.026855	-0.446533
572.0	6.073601	-0.121563	8.432448	-0.015606	-0.012953	-0.009867	-0.000244	0.024658	-0.44873
573.0	6.040812	-0.180899	8.419726	-0.010914	-0.016163	-0.012965	-0.000244	0.024658	-0.446533
574.0	6.111452	-0.223094	8.429001	-0.018622	-0.033287	-0.013403	0.0	0.022461	-0.44873
575.0	6.013519	-0.274854	8.369887	-0.004138	-0.034296	-0.017603	-0.000244	0.024658	-0.44873
576.0	5.996823	-0.192362	8.423272	0.003442	-0.045504	-0.021517	-0.000244	0.026855	-0.446533
577.0	6.091656	-0.206299	8.336473	-0.000464	-0.051807	-0.020802	0.0	0.022461	-0.446533
578.0	6.043741	-0.116301	8.345629	0.007557	-0.055906	-0.020243	-0.000244	0.026855	-0.44873
579.0	6.085657	-0.166954	8.292176	-0.0035	-0.06033	-0.014242	0.0	0.020264	-0.446533
580.0	6.018636	-0.197861	8.351022	-0.001638	-0.064686	-0.011419	-0.002197	0.022461	-0.44873
581.0	6.011833	-0.2293	8.240871	0.011813	-0.062043	-0.012002	-0.000244	0.024658	-0.444336
582.0	6.048467	-0.20089	8.3144	-0.006363	-0.077938	-0.011428	0.0	0.022461	-0.446533
583.0	6.12142	-0.047411	8.367366	0.013579	-0.079832	-0.011062	-0.002197	0.022461	-0.450928
584.0	6.010793	-0.145309	8.283031	-0.007666	-0.078661	-0.005908	0.002197	0.018066	-0.446289
585.0	6.083308	-0.076738	8.350191	-0.012565	-0.08284	-0.002168	-0.002441	0.026855	-0.444336
586.0	6.126314	-0.153629	8.319166	-0.004816	-0.0913	0.000241	-0.002197	0.020264	-0.44873
587.0	6.115789	-0.108017	8.334956	-0.018034	-0.09423	0.005952	0.002441	0.015869	-0.446289
588.0	6.139533	-0.146241	8.36638	-0.010952	-0.099229	0.008244	-0.00415	0.015869	-0.44873
589.0	6.131453	-0.136176	8.347055	-0.026203	-0.108219	0.010524	0.0	0.018066	-0.446289
590.0	6.316016	-0.10705	8.281048	-0.015381	-0.117326	0.011447	-0.000244	0.024658	-0.446533
591.0	6.222101	-0.109465	8.26962	-0.023747	-0.114584	0.014048	0.0	0.022461	-0.446533
592.0	6.229302	-0.001502	8.324242	-0.021002	-0.116569	0.015699	-0.002441	0.026855	-0.446533
593.0	6.168936	-0.070916	8.345846	-0.029331	-0.119963	0.024665	-0.000244	0.026855	-0.444336
594.0	6.196962	-0.063578	8.326584	-0.04374	-0.128166	0.03406	-0.002197	0.018066	-0.444092
595.0	6.173583	-0.027186	8.310167	-0.030864	-0.132756	0.03775	0.0	0.022461	-0.446533
596.0	6.148841	-0.023057	8.359221	-0.048571	-0.149257	0.04861	0.0	0.018066	-0.44873
597.0	6.181045	-0.069973	8.286118	-0.049147	-0.162679	0.059297	-0.002197	0.018066	-0.446289
598.0	6.141604	-0.038696	8.338004	-0.057667	-0.179588	0.066357	-0.000244	0.024658	-0.444336
599.0	6.210564	-0.087367	8.263852	-0.05458	-0.19413	0.07689	-0.000244	0.024658	-0.444336
600.0	6.173167	-0.065462	8.355365	-0.075974	-0.218735	0.084103	-0.000488	0.029053	-0.442139
601.0	6.140684	-0.106486	8.334553	-0.076835	-0.245746	0.092804	0.001953	0.024658	-0.441895
602.0	6.109296	0.07261	8.436952	-0.081089	-0.278074	0.104192	-0.000244	0.026855	-0.444336
603.0	6.084259	0.340069	8.481838	-0.106478	-0.332266	0.129191	-0.009033	0.026855	-0.444336
604.0	6.145448	-0.396992	8.275761	-0.18769	-0.372964	0.141242	-0.006836	0.024658	-0.439697
605.0	6.13635	-0.765171	8.488962	-0.138002	-0.401027	0.125289	-0.004639	0.024658	-0.444336
606.0	5.968563	-0.703698	8.28615	-0.018456	-0.502881	0.074773	-0.004883	0.03125	-0.439697
607.0	6.098745	-0.64674	8.39515	-0.0752	-0.552015	0.04845	-0.009033	0.024658	-0.4375
608.0	6.129595	-0.774828	8.307354	-0.027068	-0.642453	0.004381	-0.009033	0.029053	-0.4375
609.0	6.139848	-0.466638	8.40809	-0.008107	-0.72204	-0.026891	-0.004639	0.024658	-0.4375
610.0	6.154905	-0.318063	8.388474	-0.023598	-0.814732	-0.04592	-0.009277	0.031006	-0.4375
611.0	6.196313	-0.256754	8.447467	-0.03639	-0.905634	-0.0439	-0.01123	0.026611	-0.428223
612.0	6.226199	-0.210862	8.412766	-0.051454	-0.998919	-0.038458	-0.015381	0.022461	-0.432861
613.0	6.404976	-0.116613	8.417921	-0.056481	-1.097369	-0.027127	-0.015625	0.028809	-0.426025
614.0	6.325633	-0.069891	8.578907	-0.088622	-1.199187	-0.007255	-0.013428	0.028809	-0.421631
615.0	6.351179	-0.181694	8.571192	-0.120414	-1.326349	0.010414	-0.011475	0.031006	-0.419189
616.0	6.30812	-0.004644	8.587952	-0.09519	-1.467339	0.022997	-0.02002	0.028809	-0.414551
617.0	6.283877	0.286046	8.792884	-0.139008	-1.632879	0.050854	-0.024414	0.028809	-0.407715
618.0	6.345876	0.285305	8.813673	-0.201842	-1.807698	0.109108	-0.024414	0.031006	-0.398682
619.0	5.983212	0.284672	8.639921	-0.293031	-2.002199	0.179635	-0.024658	0.033203	-0.398682
620.0	6.579535	0.035679	8.811644	-0.360184	-2.264771	0.240457	-0.024658	0.035156	-0.39209
621.0	6.905356	-0.161521	9.216059	-0.389039	-2.458455	0.307297	-0.024658	0.035156	-0.385254
622.0	5.963132	0.474572	8.499518	-0.354404	-2.703166	0.438134	-0.03125	0.035156	-0.389648
623.0	6.587438	0.088985	8.463504	-0.482949	-3.025277	0.576003	-0.029297	0.039551	-0.364746
624.0	6.4022	0.651344	8.949822	-0.36084	-3.32142	0.746112	-0.026855	0.035156	-0.362305
625.0	7.703164	2.523862	9.497318	-0.390972	-3.679092	0.948741	-0.025146	0.043945	-0.353516
626.0	7.497464	1.482054	9.103723	-1.020919	-4.032617	1.206561	-0.022949	0.04834	-0.344482
627.0	8.410032	0.264196	8.330356	-0.868235	-4.36632	1.346687	-0.014648	0.054932	-0.326416
628.0	11.299634	-1.965975	8.647597	-1.141327	-4.729747	1.325134	-0.012451	0.056885	-0.312744
629.0	10.720743	-2.153712	7.453928	-0.350353	-4.833336	1.279221	-0.003906	0.061279	-0.296875
630.0	14.002068	0.702966	9.988238	-0.560553	-4.885476	1.321147	0.000244	0.065674	-0.27417
631.0	19.238291	-2.187058	7.778396	-0.514123	-4.621934	1.060457	0.002441	0.061279	-0.255859
632.0	17.372331	2.39038	11.456851	-0.089352	-4.204143	1.108806	0.012939	0.072266	-0.226318
633.0	17.872183	2.800057	10.906848	-0.510232	-3.680818	1.214566	0.019287	0.076416	-0.192383
634.0	11.047973	6.250759	13.570519	-0.94277	-3.09353	1.563343	0.03418	0.087402	-0.160645
635.0	8.934489	0.455639	13.672808	-1.718544	-2.365674	1.426628	0.048828	0.098389	-0.117676
636.0	5.37765	-3.028091	11.597946	-0.776864	-0.26239	0.467316	0.063721	0.107178	-0.079102
637.0	10.652313	2.122802	13.742125	1.41013	-0.554642	-0.518496	0.081055	0.111328	-0.035889
638.0	4.014495	11.119997	16.537894	-0.002763	0.688327	-0.287867	0.091309	0.124512	0.01416
639.0	-0.660889	0.700934	9.158298	-1.046219	0.719217	-0.297877	0.102051	0.128662	0.066406
640.0	2.482785	1.18071	12.407424	0.032824	0.949866	-0.380069	0.10791	0.144043	0.116211
641.0	0.392588	-0.976389	9.985159	-0.074204	1.388715	-0.342229	0.116211	0.154785	0.166016
642.0	-0.243196	0.579625	10.474154	0.424531	1.58376	-0.307917	0.113525	0.16333	0.220703
643.0	0.107799	-0.30182	9.66702	0.377522	1.83271	-0.203843	0.099854	0.180664	0.275146
644.0	0.894732	-0.636735	9.789396	0.496262	2.079917	-0.122308	0.08374	0.195557	0.320313
645.0	2.014195	-1.638207	9.687351	0.643959	2.38233	-0.07063	0.057129	0.208496	0.372559
646.0	3.392413	-1.642332	9.802188	0.853122	2.732616	-0.057066	0.012451	0.234375	0.413086
647.0	4.325829	-1.003408	9.788123	0.974601	3.10534	-0.048207	-0.036133	0.244873	0.449463
648.0	4.606866	-0.585521	9.452115	0.937801	3.436808	-0.037716	-0.089111	0.261963	0.462891
649.0	4.710769	-0.405965	8.999424	0.866089	3.665209	-0.059845	-0.148438	0.270264	0.47876
650.0	4.911713	-0.629125	8.440597	0.783382	3.784461	-0.109571	-0.208008	0.285156	0.480713
651.0	5.582391	-0.598493	8.218049	0.794007	3.81641	-0.193839	-0.269287	0.29126	0.47168
652.0	6.582669	-0.842264	8.250383	0.777777	3.820596	-0.294411	-0.334961	0.295166	0.453369
653.0	7.764158	-0.74786	8.626568	0.812307	3.822857	-0.387326	-0.383057	0.299316	0.416748
654.0	8.910162	-0.834068	8.808568	0.8073	3.81289	-0.47423	-0.426758	0.30127	0.387207
655.0	9.708087	-0.761856	8.90209	0.813387	3.808257	-0.57202	-0.472412	0.294678	0.348633
656.0	10.249505	-0.335667	8.92546	0.800685	3.758438	-0.686469	-0.50293	0.294434	0.307617
657.0	10.455413	0.039009	8.889601	0.711678	3.673633	-0.848207	-0.539795	0.292236	0.264404
658.0	9.92491	0.127932	8.52927	0.571724	3.532517	-1.034554	-0.563477	0.28125	0.223633
659.0	9.298066	-0.304082	8.129517	0.485672	3.273575	-1.214471	-0.580322	0.272461	0.176025
660.0	9.150016	-0.467258	8.021411	0.402986	2.980022	-1.36237	-0.593018	0.259521	0.14209
661.0	8.831172	-0.490941	7.854822	0.34385	2.633315	-1.462757	-0.60083	0.241943	0.105957
662.0	8.45012	-0.513027	7.884189	0.213552	2.287069	-1.523676	-0.61792	0.230957	0.07666
663.0	8.42866	-0.686722	7.848233	0.155702	1.890139	-1.601795	-0.61499	0.21582	0.051758
664.0	9.257727	-0.611044	8.297934	0.09567	1.470574	-1.687981	-0.616455	0.200684	0.029297
665.0	13.591561	-2.093105	9.517212	0.093518	1.159805	-1.896162	-0.615723	0.18335	0.006836
666.0	13.081287	-0.05708	9.559526	0.355442	1.338859	-1.937919	-0.628418	0.172363	-0.013428
667.0	16.90636	0.683152	10.849227	-0.078117	1.446911	-1.838898	-0.627686	0.15918	-0.035889
668.0	21.461343	-1.284571	11.58925	-0.322833	2.033432	-1.825923	-0.629395	0.14624	-0.065186
669.0	18.752506	-1.872304	9.555238	-0.445254	2.747027	-1.716887	-0.626465	0.128906	-0.085449
670.0	14.816937	-2.964911	7.099347	-0.681819	3.132247	-1.538807	-0.619629	0.122314	-0.105957
671.0	11.79835	-4.272529	4.410011	-0.664021	3.118472	-1.309922	-0.617188	0.118164	-0.135498
672.0	10.672146	-4.010302	3.136903	-0.463478	2.792176	-1.094924	-0.612061	0.103027	-0.164795
673.0	11.269481	-3.387735	2.468668	-0.345044	2.428948	-0.938231	-0.603516	0.103027	-0.182861
674.0	12.325587	-2.458147	2.113525	-0.280026	2.129606	-0.851208	-0.596436	0.094482	-0.196533
675.0	12.534958	-2.306121	0.950554	-0.292278	1.884064	-0.787927	-0.598633	0.092285	-0.217041
676.0	11.99659	-2.78218	-0.629919	-0.289198	1.574761	-0.714762	-0.5896	0.083496	-0.22583
677.0	11.678664	-3.480445	-2.424121	-0.164376	1.127568	-0.637094	-0.580566	0.079346	-0.239502
678.0	12.144691	-3.649568	-3.824255	0.090929	0.616005	-0.581126	-0.582764	0.077148	-0.246338
679.0	14.017093	-3.199833	-4.395189	0.302959	0.1211	-0.515615	-0.580078	0.068359	-0.239258
680.0	16.364018	-1.980052	-4.037896	0.383682	-0.171385	-0.385119	-0.575439	0.064209	-0.241455
681.0	17.735257	-1.336816	-3.455922	0.198401	-0.271962	-0.183489	-0.582275	0.066162	-0.243896
682.0	11.392953	0.210392	-1.272246	0.041424	-0.184048	0.081476	-0.588623	0.066162	-0.241455
683.0	16.880221	0.107547	-7.125148	-0.476977	-1.940861	0.215777	-0.593262	0.070557	-0.234863
684.0	10.770397	-2.796164	-14.132217	-0.856925	-1.71263	0.024849	-0.591064	0.070557	-0.232422
685.0	-7.938193	-1.629321	6.800261	1.034329	-1.624622	-0.361319	-0.60376	0.061768	-0.21167
686.0	21.333599	8.985726	22.035672	2.234969	-4.469637	-0.217796	-0.608154	0.063721	-0.188965
687.0	25.269247	2.424453	22.131585	-3.154269	-2.095419	0.74716	-0.613281	0.076904	-0.177979
688.0	11.613115	-9.854324	1.015196	-1.552137	-1.363048	0.189833	-0.62207	0.081055	-0.171143
689.0	12.483982	-2.324335	11.02905	1.365755	-2.08377	-0.226413	-0.619629	0.074463	-0.155029
690.0	21.429457	0.535163	15.443366	-0.265146	-0.679621	0.096993	-0.62207	0.078857	-0.155029
691.0	2.895343	-0.740961	6.967755	-0.435487	0.165411	0.154231	-0.624023	0.074463	-0.152832
692.0	2.393075	2.866415	9.608179	0.344234	-0.823577	-0.131852	-0.621826	0.074463	-0.150391
693.0	8.273332	0.729415	9.000865	-0.610847	-0.53299	-0.022018	-0.621826	0.07666	-0.148193
694.0	5.216522	0.349658	7.320751	-0.134844	-0.437919	0.056848	-0.626221	0.078857	-0.152832
695.0	6.532893	1.979209	9.031306	-0.35144	-0.468568	0.104933	-0.62207	0.078857	-0.136963
696.0	10.804861	-2.551172	9.424464	-0.653884	-0.246572	0.164057	-0.626221	0.078857	-0.141357
697.0	2.629355	-0.459723	7.035	0.023245	0.033898	0.20465	-0.628418	0.07666	-0.148193
698.0	6.950864	0.844776	9.151385	-0.169353	-0.19212	0.146416	-0.626709	0.085449	-0.143799
699.0	6.174626	-1.459334	8.251644	-0.355193	-0.102844	0.146579	-0.624512	0.087646	-0.143799
700.0	6.079892	-2.287722	8.607896	-0.094308	-0.094295	0.05566	-0.626465	0.083252	-0.13916
701.0	6.339616	-1.789468	8.476421	0.067972	-0.154795	-0.040126	-0.626465	0.081055	-0.141357
702.0	6.381463	-0.703473	8.632117	0.113609	-0.125444	-0.122859	-0.626465	0.083252	-0.141602
703.0	6.260812	-0.919918	8.37443	0.164367	-0.151795	-0.188085	-0.631104	0.085205	-0.134766
704.0	6.372804	0.737138	8.891978	0.251562	-0.125302	-0.219667	-0.628418	0.078857	-0.13916
705.0	5.851134	-0.002385	8.337893	0.082961	-0.140468	-0.203106	-0.626221	0.078857	-0.134521
706.0	6.162659	0.759781	8.560866	0.216656	-0.17362	-0.204731	-0.626221	0.074463	-0.134521
707.0	6.252058	1.191363	8.490852	0.071415	-0.144226	-0.139505	-0.632568	0.074463	-0.134521
708.0	5.865532	0.358199	8.409667	-0.00957	-0.142122	-0.094087	-0.623779	0.072266	-0.138916
709.0	5.998356	-0.028756	8.616427	0.026165	-0.171399	-0.099593	-0.634766	0.074463	-0.132324
710.0	6.142818	-0.33343	8.536269	0.035588	-0.194854	-0.115555	-0.624023	0.074463	-0.136719
711.0	6.126168	-0.189326	8.44272	0.095658	-0.204824	-0.119344	-0.628418	0.078857	-0.125488
712.0	6.327775	0.374504	8.469167	0.070966	-0.218655	-0.113209	-0.628174	0.072266	-0.127686
713.0	6.152635	0.128723	8.336366	0.033315	-0.218474	-0.097355	-0.630615	0.07666	-0.132324
714.0	6.153827	0.247614	8.294014	0.050159	-0.226381	-0.093263	-0.630127	0.067871	-0.125244
715.0	6.048574	0.340902	8.344799	0.034862	-0.238248	-0.08094	-0.634766	0.072266	-0.129883
716.0	5.970121	0.368887	8.451211	0.014294	-0.260042	-0.07064	-0.632568	0.072266	-0.12085
717.0	6.135151	0.20258	8.31623	0.006794	-0.278976	-0.066521	-0.628174	0.072266	-0.125244
718.0	6.166124	0.165426	8.301766	0.010072	-0.296695	-0.053598	-0.636719	0.069824	-0.118408
719.0	6.382569	0.097668	8.220237	0.005531	-0.303068	-0.063771	-0.634521	0.065674	-0.125244
720.0	6.390606	-0.07806	8.122109	0.021174	-0.294761	-0.072631	-0.632568	0.072266	-0.116211
721.0	6.301777	-0.04368	8.155049	0.036087	-0.29032	-0.077335	-0.632324	0.067871	-0.11377
722.0	6.2492	0.262943	8.262273	0.058834	-0.298687	-0.085527	-0.634521	0.067871	-0.11377
723.0	6.292972	0.383256	8.15614	0.035858	-0.320796	-0.072248	-0.641113	0.069824	-0.107178
724.0	6.467967	0.622293	8.196971	0.032989	-0.330945	-0.051489	-0.636719	0.067627	-0.111572
725.0	6.454083	0.293332	8.056086	-0.005691	-0.334479	-0.019338	-0.632324	0.067627	-0.0979
726.0	6.520517	0.550605	8.088745	0.02913	-0.332217	-0.00993	-0.634521	0.067627	-0.100098
727.0	6.241311	0.279162	8.233641	-0.002045	-0.329772	0.017944	-0.632568	0.069824	-0.100342
728.0	6.173166	0.702488	8.329157	0.068526	-0.369862	0.033432	-0.636719	0.067627	-0.0979
729.0	6.663032	-0.138216	7.888503	-0.049401	-0.377777	0.04775	-0.634521	0.065674	-0.102539
730.0	6.460427	0.055458	8.172216	0.048667	-0.403238	0.030818	-0.638916	0.067627	-0.086426
731.0	6.533965	-0.066829	8.125164	0.024313	-0.416533	0.022788	-0.640869	0.063232	-0.095459
732.0	6.342359	0.021285	8.246257	0.079431	-0.453317	0.010747	-0.636719	0.06543	-0.091064
733.0	6.234443	0.16753	8.332967	0.084057	-0.526218	0.000205	-0.643066	0.06543	-0.081787
734.0	6.363633	0.20334	8.286424	0.0954	-0.595787	0.002798	-0.643555	0.072021	-0.079834
735.0	6.435851	0.089292	8.095232	0.102364	-0.656253	-0.001765	-0.636963	0.072021	-0.077393
736.0	6.37227	0.188436	8.184683	0.144658	-0.715058	-0.013108	-0.641357	0.072021	-0.075195
737.0	6.400046	-0.008224	8.112721	0.126197	-0.777086	-0.02345	-0.645508	0.067627	-0.068359
738.0	6.427127	-0.073939	8.057404	0.153821	-0.843626	-0.041245	-0.638672	0.063232	-0.063721
739.0	6.437905	0.01118	8.126847	0.145014	-0.918318	-0.056565	-0.647705	0.071777	-0.056885
740.0	6.501971	-0.191436	8.052693	0.149498	-0.997178	-0.080535	-0.647461	0.06543	-0.050049
741.0	6.649284	-0.148404	7.939596	0.191826	-1.094318	-0.113165	-0.647705	0.067627	-0.04541
742.0	6.58683	0.104887	8.044628	0.223933	-1.164122	-0.130744	-0.649658	0.065186	-0.031738
743.0	6.722272	0.414127	7.9864	0.231631	-1.281559	-0.131387	-0.649902	0.067383	-0.029541
744.0	7.044771	0.611855	7.921815	0.169528	-1.380523	-0.108425	-0.647217	0.060791	-0.020264
745.0	6.681235	0.398589	7.928259	0.083852	-1.457388	-0.070214	-0.651367	0.056396	-0.006592
746.0	6.652447	0.178288	7.571181	0.139765	-1.59424	-0.074805	-0.651611	0.060791	0.000244
747.0	6.909651	0.720044	7.595856	0.170744	-1.701329	-0.062549	-0.651855	0.062988	0.009277
748.0	6.771549	0.594576	7.717772	0.123026	-1.824167	-0.02373	-0.653564	0.056396	0.025391
749.0	6.585992	0.985607	7.818244	0.174645	-2.021066	0.012019	-0.647217	0.058594	0.034424
750.0	6.662128	0.990467	8.192253	0.076295	-2.220615	0.074729	-0.649414	0.060791	0.043457
751.0	6.465169	0.460452	8.250679	0.059415	-2.486126	0.136792	-0.649414	0.060547	0.066406
752.0	6.134027	0.597436	8.783148	0.126713	-2.821667	0.183721	-0.649414	0.060547	0.082275
753.0	5.861556	0.608045	9.134106	0.052435	-3.26195	0.237272	-0.645264	0.064941	0.10498
754.0	5.965127	1.086649	9.70587	0.0587	-3.824583	0.303066	-0.642822	0.056152	0.132568
755.0	5.041053	1.778386	9.90996	-0.037654	-4.516115	0.408878	-0.634766	0.071533	0.159668
756.0	6.792182	2.356461	10.230007	0.044537	-5.479778	0.515319	-0.626221	0.077881	0.191406
757.0	9.372775	2.897878	11.27922	0.070378	-6.251465	0.664771	-0.615479	0.080078	0.234619
758.0	11.026577	3.292009	11.640537	-0.389898	-6.886673	0.968078	-0.600342	0.082275	0.277832
759.0	15.79904	-1.504208	9.809819	-0.640296	-7.231027	1.042549	-0.580811	0.084473	0.314209
760.0	22.916985	-0.859045	10.33524	0.580619	-6.854287	0.878304	-0.559082	0.091064	0.348145
761.0	17.547415	-2.532497	11.67819	0.404454	-6.698217	0.731932	-0.540039	0.102051	0.375244
762.0	18.218984	7.035092	8.661204	2.410875	-6.517556	0.998686	-0.51416	0.11084	0.406982
763.0	25.891328	3.939698	17.044084	-0.303595	-5.839787	1.396914	-0.490479	0.115234	0.434326
764.0	23.976478	4.176036	17.592538	1.153998	-4.178898	1.830087	-0.469238	0.130615	0.443115
765.0	7.244086	11.121033	17.337355	-0.193287	-3.302611	1.607297	-0.465088	0.132813	0.458984
766.0	3.88727	4.340237	19.533749	-1.934942	-0.165106	1.007541	-0.462402	0.12207	0.443359
767.0	22.63709	6.599014	19.890784	1.231126	0.370911	-0.209584	-0.467041	0.126465	0.436279
768.0	2.652242	13.958112	22.074515	-2.599086	2.54706	0.205692	-0.477051	0.108887	0.423096
769.0	-4.240103	-3.141348	8.445201	-3.131024	2.706182	0.208444	-0.485352	0.100098	0.409424
770.0	-0.828605	-3.244279	12.441402	-0.821187	2.617077	-0.051153	-0.493896	0.093506	0.38916
771.0	-0.511481	-3.555611	10.923301	-0.581565	3.247704	0.047434	-0.504395	0.084717	0.368896
772.0	-0.367121	-0.571314	11.154964	0.071122	3.62052	0.308102	-0.515381	0.089111	0.345947
773.0	0.945022	-0.052181	10.369476	-0.124638	4.023226	0.723794	-0.521973	0.089111	0.313965
774.0	1.764835	-0.616759	9.589609	-0.187781	4.424553	1.08145	-0.528809	0.095703	0.28418
775.0	1.734497	-1.757052	8.514388	-0.040011	4.705258	1.26939	-0.535645	0.0979	0.256836
776.0	2.331894	-1.816612	7.757179	0.297742	4.87648	1.29092	-0.531006	0.095947	0.222656
777.0	3.239158	-0.585615	7.364547	0.593782	4.955527	1.201367	-0.531494	0.106934	0.192871
778.0	4.434413	0.280587	7.50533	0.644415	4.972412	1.034737	-0.5271	0.104736	0.170166
779.0	5.494328	0.078103	7.593489	0.632677	4.944427	0.779941	-0.516357	0.109375	0.147217
780.0	6.640374	0.008451	7.924184	0.648363	4.918116	0.487978	-0.510254	0.118164	0.119629
781.0	7.861289	-0.358362	8.308087	0.596704	4.87829	0.228451	-0.510254	0.115967	0.10376
782.0	9.342634	-0.92774	8.726319	0.549664	4.856722	0.038968	-0.499512	0.118408	0.090088
783.0	10.486928	-1.72282	8.988112	0.499634	4.838211	-0.085811	-0.486328	0.116211	0.071777
784.0	11.717055	-2.212551	9.100368	0.518588	4.796451	-0.137284	-0.471436	0.125244	0.048828
785.0	12.725514	-1.982085	9.141543	0.514486	4.730243	-0.105276	-0.467285	0.129639	0.041992
786.0	12.916788	-1.511913	8.638154	0.467527	4.624788	-0.056955	-0.45874	0.138428	0.028076
787.0	11.865004	-1.13707	7.948876	0.397917	4.408524	-0.062751	-0.450439	0.147217	0.016602
788.0	11.130977	-1.439456	7.399843	0.384607	4.055199	-0.157161	-0.442139	0.153809	0.005127
789.0	10.556207	-1.402145	6.9253	0.521678	3.653195	-0.364924	-0.442627	0.166992	-0.002197
790.0	10.087032	-0.945063	6.811694	0.596886	3.176693	-0.609312	-0.441162	0.182373	-0.020508
791.0	10.154665	-0.588167	6.892973	0.645891	2.712053	-0.898143	-0.427734	0.175781	-0.041016
792.0	11.060178	0.031039	7.199678	0.585189	2.234313	-1.208091	-0.417236	0.18042	-0.054688
793.0	12.600145	0.006902	7.600066	0.422468	1.829232	-1.527637	-0.385498	0.156494	-0.063477
794.0	17.35008	-1.08284	9.183366	0.360201	1.606194	-1.860922	-0.352051	0.13916	-0.056396
795.0	22.770643	-1.502574	10.563751	0.44036	1.912583	-2.067714	-0.320068	0.106689	-0.037598
796.0	27.356377	-0.994062	11.572979	0.44672	2.629811	-2.015751	-0.303467	0.076172	-0.005127
797.0	27.161007	0.131738	10.516597	0.121617	3.700269	-1.652893	-0.297852	0.052002	0.027344
798.0	20.273847	-1.18363	6.789157	-0.434654	4.398128	-1.249473	-0.31665	0.032227	0.04834
799.0	13.437265	-5.385046	1.542891	-0.683411	4.339942	-1.060053	-0.333496	0.019043	0.069092
800.0	11.970074	-5.301183	-1.43029	0.32022	3.660742	-1.082526	-0.354492	-0.000732	0.073975
801.0	14.81051	-2.098542	-1.159049	0.548957	3.004388	-1.034996	-0.374023	-0.005371	0.078613
802.0	16.828556	-1.940659	-3.192717	0.508115	2.536697	-0.900281	-0.393066	-0.01416	0.069824
803.0	16.987083	-3.214875	-6.233261	0.50863	2.078669	-0.705013	-0.410156	-0.022949	0.067627
804.0	16.515367	-4.826892	-9.467611	0.751033	1.473138	-0.459982	-0.416504	-0.029541	0.061035
805.0	17.480712	-4.448721	-11.513886	1.133769	0.730367	-0.168458	-0.427246	-0.029541	0.067871
806.0	18.272484	-1.945494	-11.70712	1.064945	0.064942	0.206585	-0.429443	-0.029541	0.070068
807.0	18.242874	-0.726006	-10.887225	0.343522	-0.529736	0.534973	-0.434082	-0.025391	0.079102
808.0	17.809158	-0.875088	-8.918093	-0.091341	-1.06442	0.698927	-0.440674	-0.025391	0.088379
809.0	11.842182	-0.057707	-4.724142	-0.178123	-1.003432	0.772895	-0.438721	-0.020996	0.106445
810.0	6.481429	2.896537	1.994795	0.002676	-2.846625	0.058368	-0.429688	-0.023193	0.122314
811.0	-10.835209	0.693187	9.424127	-1.634619	-1.017125	0.139378	-0.425049	-0.029785	0.138428
812.0	10.824648	-3.96593	19.727972	1.255203	-3.74425	-0.797153	-0.427734	-0.023193	0.165771
813.0	7.447973	11.029138	20.687689	0.07863	-3.541198	-0.094718	-0.425049	-0.029785	0.186279
814.0	19.066381	-5.120229	5.958283	-3.890787	-3.473926	0.282442	-0.414307	-0.029785	0.206787
815.0	11.465286	-13.628984	0.442534	-0.203075	-3.374741	-0.130757	-0.409424	-0.040771	0.225342
816.0	25.870582	-6.111935	19.213119	1.607659	-3.27201	-0.321618	-0.400635	-0.040771	0.239014
817.0	27.200467	-1.178687	16.277197	0.418715	-1.050198	-0.112898	-0.403076	-0.03418	0.245605
818.0	-0.371463	3.265193	5.52662	-0.250385	0.005528	0.015691	-0.402832	-0.042969	0.239014
819.0	8.035157	0.097786	10.495167	0.474431	-1.47398	-0.594009	-0.395996	-0.047363	0.252686
820.0	9.326985	0.517703	9.276452	-0.202245	-0.387948	-0.281104	-0.393799	-0.049561	0.25293
821.0	5.002733	0.815738	7.208822	0.32306	-0.663562	-0.283248	-0.398193	-0.045166	0.257324
822.0	10.256195	4.223054	11.075828	0.227176	-0.566082	-0.206017	-0.395996	-0.045166	0.259521
823.0	7.272025	0.057053	6.887497	-0.732921	-0.035485	0.050264	-0.393799	-0.047363	0.257324
824.0	5.327642	0.490476	8.937367	0.197897	-0.360803	0.000452	-0.393799	-0.045166	0.261963
825.0	6.181429	0.954924	8.591061	-0.314638	-0.175088	0.092939	-0.393555	-0.051758	0.259766
826.0	5.967892	-1.184872	8.395261	-0.232882	-0.247725	0.076742	-0.395996	-0.047363	0.270996
827.0	6.302716	-0.532974	8.598199	-0.038743	-0.22888	0.022737	-0.393799	-0.045166	0.26416
828.0	5.736098	-0.349042	8.809483	-0.088599	-0.222727	-0.018735	-0.393799	-0.045166	0.270996
829.0	6.200565	-0.75877	8.377397	-0.050503	-0.27126	-0.069561	-0.391602	-0.047363	0.266357
830.0	6.180434	0.271956	8.434797	0.101216	-0.2708	-0.102945	-0.389404	-0.047363	0.270996
831.0	6.207847	0.988212	8.613312	-0.004536	-0.27031	-0.074048	-0.389404	-0.047363	0.273193
832.0	6.211745	0.302781	8.289863	-0.080521	-0.25635	-0.051926	-0.389404	-0.047363	0.268799
833.0	6.431929	0.398467	8.380102	-0.01112	-0.256665	-0.04305	-0.391357	-0.051758	0.275635
834.0	6.439425	-0.21366	8.405807	-0.076153	-0.232581	-0.043465	-0.385254	-0.045166	0.275391
835.0	6.209971	-0.537821	8.285638	0.042025	-0.242169	-0.080877	-0.393799	-0.047363	0.273193
836.0	6.486943	-0.311855	8.427087	0.08513	-0.263016	-0.118629	-0.389648	-0.045166	0.277832
837.0	6.257065	-0.40385	8.332469	0.112448	-0.259716	-0.155715	-0.382568	-0.055908	0.275635
838.0	6.51269	0.066066	8.233771	0.181683	-0.286416	-0.185383	-0.384766	-0.051758	0.280273
839.0	6.408175	0.234712	8.232776	0.135082	-0.26173	-0.189605	-0.38916	-0.053955	0.280273
840.0	6.494371	0.313657	8.098852	0.147603	-0.265383	-0.193301	-0.378418	-0.049561	0.277832
841.0	6.430984	0.662949	8.067077	0.108329	-0.250903	-0.159962	-0.386963	-0.053955	0.282471
842.0	6.315609	0.968472	8.143375	0.067732	-0.246589	-0.100237	-0.386963	-0.056152	0.284912
843.0	6.518218	0.999916	7.938814	-0.000684	-0.246935	-0.039209	-0.380371	-0.053955	0.284668
844.0	6.461459	0.888689	7.862178	-0.058572	-0.22159	0.019107	-0.380615	-0.051758	0.287109
845.0	6.356969	1.057128	7.936474	-0.066715	-0.213152	0.069907	-0.384766	-0.053955	0.282471
846.0	6.42855	0.96931	7.92968	-0.143762	-0.193974	0.126912	-0.380371	-0.053955	0.287109
847.0	6.363126	0.829244	8.017429	-0.15051	-0.173799	0.169125	-0.380371	-0.053955	0.284668
848.0	6.46931	0.242945	7.975786	-0.220269	-0.168402	0.186454	-0.378418	-0.049561	0.284668
849.0	6.53701	0.143642	7.969845	-0.132251	-0.163558	0.176327	-0.380371	-0.053955	0.284668
850.0	6.498471	0.301535	8.093112	-0.144671	-0.156418	0.175681	-0.376221	-0.051514	0.284668
851.0	6.484042	0.400511	8.019894	-0.12864	-0.154512	0.191739	-0.380371	-0.053955	0.287109
852.0	6.516923	0.572752	8.087559	-0.132663	-0.161186	0.211245	-0.38501	-0.047363	0.289307
853.0	6.766276	0.40987	7.921678	-0.169803	-0.150378	0.250194	-0.378418	-0.051758	0.284668
854.0	6.396854	0.367693	8.204374	-0.150953	-0.152879	0.260994	-0.376465	-0.045166	0.286865
855.0	6.467163	0.263072	8.13775	-0.147829	-0.180197	0.280887	-0.380859	-0.042969	0.284668
856.0	6.014757	0.394225	8.732084	-0.185876	-0.234111	0.286561	-0.376465	-0.045166	0.291504
857.0	6.426443	-0.417856	7.921031	-0.188447	-0.30279	0.276418	-0.376465	-0.045166	0.291504
858.0	6.234588	0.019895	8.55529	-0.115066	-0.376504	0.25894	-0.376465	-0.047363	0.300537
859.0	6.276291	-0.397625	8.323033	-0.119916	-0.450175	0.245238	-0.37207	-0.042969	0.293701
860.0	6.144121	-0.223499	8.514607	-0.037057	-0.557787	0.212413	-0.376709	-0.040771	0.293701
861.0	6.003492	-0.411564	8.50399	-0.048877	-0.664511	0.178184	-0.374268	-0.042969	0.295898
862.0	5.956304	-0.257848	8.597008	0.013953	-0.79949	0.142443	-0.36792	-0.040771	0.300537
863.0	5.920802	-0.086673	8.583226	0.003737	-0.943502	0.117283	-0.370117	-0.038574	0.30957
864.0	6.019667	-0.234838	8.414059	-0.007426	-1.078485	0.082855	-0.365967	-0.03418	0.30957
865.0	6.125693	-0.107711	8.522879	-0.011354	-1.217381	0.063333	-0.359619	-0.031982	0.311768
866.0	6.199868	-0.411818	8.645217	-0.075727	-1.363603	0.06742	-0.359375	-0.03418	0.318604
867.0	6.038127	-0.671327	8.458318	-0.089866	-1.542811	0.042789	-0.352539	-0.040771	0.325439
868.0	6.435272	-0.661393	8.042441	-0.009131	-1.725986	0.012553	-0.348145	-0.042969	0.334717
869.0	6.76122	-0.270127	8.588686	0.040884	-1.888949	0.018048	-0.346191	-0.038574	0.334473
870.0	5.323531	-0.587803	9.245289	-0.043942	-2.118463	0.015179	-0.341797	-0.038574	0.34375
871.0	5.571674	-1.091881	8.81648	0.039959	-2.492746	-0.038802	-0.333008	-0.040527	0.348389
872.0	5.753138	-0.794987	9.327448	0.101513	-2.832284	-0.055405	-0.322021	-0.040527	0.359619
873.0	5.710396	-0.639631	9.714248	0.099252	-3.226943	-0.048918	-0.315674	-0.040527	0.368652
874.0	5.437699	-0.701735	9.899473	0.068256	-3.667852	-0.014631	-0.298096	-0.040527	0.382324
875.0	4.787614	-1.061765	9.86814	0.190145	-4.210953	0.038198	-0.293945	-0.03833	0.38916
876.0	4.023729	0.922799	10.849441	0.366796	-4.975992	0.114721	-0.269775	-0.04248	0.414307
877.0	5.431708	3.813054	10.637614	0.401052	-6.008117	0.308005	-0.245605	-0.04248	0.425781
878.0	8.230441	5.451656	11.896252	-0.19671	-6.991428	0.645392	-0.223877	-0.040039	0.434814
879.0	13.785658	0.836015	10.781378	-0.615692	-7.479992	0.843929	-0.191406	-0.037842	0.455078
880.0	14.274441	1.046264	11.086105	-0.043817	-7.869826	1.018444	-0.156494	-0.0354	0.46875
881.0	27.711164	-0.303272	10.692042	-0.306003	-7.172916	0.960282	-0.130859	-0.026611	0.477783
882.0	26.731871	-0.658906	13.150737	0.739599	-6.534778	0.87538	-0.11792	-0.02002	0.486572
883.0	15.40411	5.482277	11.016951	0.242861	-5.147091	1.288708	-0.098877	-0.006836	0.490967
884.0	24.610692	2.796338	16.491518	0.199024	-5.719476	1.538735	-0.088379	0.001953	0.502197
885.0	13.287657	1.787877	23.565596	-0.493867	-2.894406	1.559718	-0.091064	0.010742	0.508789
886.0	2.321688	5.336458	10.592139	-0.134503	-1.37285	1.473696	-0.096191	0.028076	0.506104
887.0	15.966785	-1.129555	22.261678	1.110573	-0.310263	0.329122	-0.108154	0.049805	0.508057
888.0	7.88295	18.005325	23.219239	0.980392	1.783566	0.271953	-0.126221	0.067139	0.512207
889.0	-0.997435	6.2307	11.039914	-2.889091	1.9066	0.182637	-0.152832	0.075684	0.516602
890.0	-1.674348	-0.467384	11.044403	-1.02714	2.211715	-0.104596	-0.184082	0.093018	0.516357
891.0	-0.404546	-2.184151	10.366805	-0.694599	2.680715	-0.392732	-0.211182	0.112549	0.513672
892.0	-2.024898	-1.163033	9.067606	0.16017	2.960102	-0.495767	-0.246826	0.129883	0.506592
893.0	-1.548976	0.432683	9.311054	0.279455	3.177206	-0.367347	-0.282715	0.14917	0.492676
894.0	-0.042422	0.449829	9.057102	0.187356	3.336779	-0.093171	-0.320313	0.164307	0.469482
895.0	1.741872	-0.984618	8.773172	0.054716	3.606248	0.168337	-0.358643	0.19043	0.44165
896.0	3.173272	-2.485674	8.555549	0.199579	3.921914	0.342074	-0.381104	0.203369	0.393799
897.0	3.617776	-2.66379	8.386802	0.445973	4.224724	0.440788	-0.392578	0.216553	0.345459
898.0	4.207753	-2.31582	8.239407	0.642809	4.45445	0.505532	-0.386475	0.227539	0.290527
899.0	4.591197	-2.071509	8.054033	0.73419	4.602253	0.538439	-0.358154	0.228027	0.247314
900.0	4.904346	-2.511334	7.949857	0.767188	4.633619	0.531638	-0.314453	0.223877	0.229004
901.0	6.042684	-3.021683	7.980215	0.899372	4.603277	0.47058	-0.259521	0.217773	0.240479
902.0	7.498499	-2.98561	8.377519	1.009763	4.611965	0.372496	-0.222168	0.208984	0.283936
903.0	8.738794	-2.778403	8.962359	0.981444	4.653271	0.269151	-0.217285	0.200195	0.3479
904.0	9.959731	-3.191136	9.194327	0.873449	4.701659	0.178246	-0.256836	0.206299	0.420898
905.0	10.611154	-3.593164	9.128079	0.80703	4.72315	0.122418	-0.331299	0.214355	0.475342
906.0	10.903934	-3.731595	8.926134	0.754475	4.644339	0.1073	-0.431641	0.213867	0.487061
907.0	11.167012	-3.826468	8.490192	0.730664	4.448668	0.127422	-0.53418	0.213135	0.462158
908.0	11.907852	-3.565324	8.29662	0.776057	4.144726	0.159897	-0.628174	0.217041	0.421143
909.0	12.357072	-2.945718	8.216062	0.793315	3.821827	0.167085	-0.697266	0.203613	0.35083
910.0	13.009754	-2.328847	8.345939	0.839002	3.450793	0.130152	-0.74707	0.197021	0.289307
911.0	14.534039	-1.446528	8.693449	0.904108	3.103906	-0.007633	-0.783447	0.181641	0.216797
912.0	16.37011	-0.369401	9.332372	0.924689	2.907819	-0.265544	-0.808838	0.164063	0.15332
913.0	18.42852	0.116374	9.382351	0.850435	2.890901	-0.669645	-0.823242	0.144531	0.092285
914.0	18.975185	0.705639	9.051143	0.745988	3.027611	-1.105511	-0.833252	0.120605	0.028809
915.0	18.896833	0.819777	8.399407	0.500622	3.173863	-1.479293	-0.834229	0.096924	-0.022949
916.0	19.357579	0.234008	7.915448	0.254867	3.300192	-1.72199	-0.833008	0.066406	-0.083984
917.0	20.365247	-0.350472	7.195802	0.056384	3.518626	-1.846388	-0.81665	0.042725	-0.12915
918.0	19.114984	-0.20709	5.82798	-0.084815	3.786933	-1.897568	-0.802734	0.023193	-0.185791
919.0	16.425353	-0.657818	3.769091	-0.402034	3.89355	-1.934141	-0.773438	0.001709	-0.224121
920.0	13.735821	-3.536	1.07286	-0.658009	3.716595	-2.022469	-0.753174	-0.013428	-0.262451
921.0	13.593155	-4.541019	-1.78924	-0.116025	3.232041	-2.021171	-0.728027	-0.034912	-0.291748
922.0	14.834401	-3.501724	-2.555517	0.215968	2.665748	-1.699186	-0.708008	-0.047852	-0.312012
923.0	15.937177	-5.264627	-4.931346	0.189998	2.107094	-1.169838	-0.696533	-0.058594	-0.330078
924.0	16.690544	-7.109026	-8.017452	0.694434	1.530284	-0.644996	-0.678711	-0.067139	-0.343506
925.0	16.858188	-5.748832	-9.822809	1.433603	0.949604	-0.195411	-0.669678	-0.07373	-0.352539
926.0	16.73827	-2.039282	-9.887548	1.474885	0.334584	0.23668	-0.662842	-0.080322	-0.352539
927.0	16.237404	0.576077	-8.994699	0.857166	-0.282666	0.636284	-0.66333	-0.071533	-0.345947
928.0	16.239573	0.860611	-7.238808	0.224595	-0.850991	0.889816	-0.665283	-0.075928	-0.3479
929.0	6.839906	4.508608	-1.820773	0.247641	-1.383766	0.75406	-0.667725	-0.069336	-0.33667
930.0	14.054375	7.849872	-6.369454	-1.153896	-3.190061	0.457572	-0.672607	-0.058594	-0.327881
931.0	-10.584941	-1.558094	5.19506	-2.838821	-0.874558	0.442341	-0.677002	-0.054199	-0.30957
932.0	8.834893	-8.517743	17.986967	1.160453	-4.073496	-1.096387	-0.691895	-0.067383	-0.298096
933.0	12.128532	6.117025	24.771076	0.306419	-3.861942	-0.270258	-0.69873	-0.061035	-0.272949
934.0	22.075594	-11.0594	7.818868	-3.90291	-3.284828	0.444029	-0.703369	-0.050049	-0.261963
935.0	9.82723	-15.797977	-1.497209	0.603349	-3.065063	-0.088677	-0.707275	-0.061035	-0.23877
936.0	21.387473	-0.300114	17.041738	3.029247	-3.56057	-0.262125	-0.718018	-0.065674	-0.2229
937.0	27.038878	6.258015	18.052249	0.371253	-1.749215	-0.121636	-0.722168	-0.070068	-0.206787
938.0	8.654579	7.467422	7.62967	-0.423633	-0.008777	0.065065	-0.720215	-0.063477	-0.213623
939.0	1.403154	-0.27509	8.854671	-1.103999	-0.924384	-0.247185	-0.726807	-0.065674	-0.197754
940.0	9.668586	-2.002518	8.549903	0.05368	-0.825891	-0.145967	-0.722168	-0.072266	-0.195313
941.0	3.792716	2.031836	8.239257	-0.081321	-0.638345	0.046414	-0.726563	-0.067871	-0.193115
942.0	6.125085	3.894228	9.195883	-0.273609	-0.863523	0.175036	-0.726807	-0.065674	-0.186279
943.0	7.422067	0.360397	9.064332	-1.043144	-0.637047	0.376946	-0.731445	-0.057129	-0.186523
944.0	11.756708	-3.385557	7.97891	-0.602514	-0.329254	0.411883	-0.729492	-0.054932	-0.181885
945.0	3.490064	1.073806	9.670681	0.198111	-0.188075	0.373555	-0.725098	-0.054932	-0.184326
946.0	7.493098	-0.794787	7.980715	-0.758637	-0.173549	0.361682	-0.729492	-0.052734	-0.184326
947.0	6.12977	-1.928415	8.130256	-0.134542	-0.161981	0.226168	-0.729736	-0.046143	-0.182129
948.0	6.946368	-0.954516	8.86066	-0.211834	-0.123179	0.141079	-0.72998	-0.039551	-0.179932
949.0	6.459955	-1.697108	8.242265	-0.130061	-0.141052	0.057771	-0.732178	-0.041748	-0.177734
950.0	6.317823	-0.807111	8.41581	0.035322	-0.14496	-0.024174	-0.72998	-0.041748	-0.177734
951.0	6.136718	0.151066	8.354745	0.052019	-0.163488	-0.048926	-0.729736	-0.04834	-0.17749
952.0	6.099431	0.741521	8.559563	-0.009827	-0.160938	-0.020056	-0.734375	-0.043945	-0.179932
953.0	6.133158	0.174642	8.401926	-0.099663	-0.158592	-6e-05	-0.72998	-0.041748	-0.177734
954.0	6.144511	-0.222342	8.421178	-0.06783	-0.176493	-0.010397	-0.727783	-0.043945	-0.175293
955.0	6.336263	-0.446419	8.397627	-0.04414	-0.187606	-0.025502	-0.732178	-0.041748	-0.173096
956.0	6.303939	-0.195828	8.471104	-0.011972	-0.194613	-0.03486	-0.732178	-0.041748	-0.175293
957.0	6.499863	-0.229617	8.34607	-0.032193	-0.200536	-0.025308	-0.732178	-0.043945	-0.170898
958.0	6.420914	-0.339714	8.293494	-0.026485	-0.19645	-0.025941	-0.736328	-0.046143	-0.168457
959.0	6.408981	-0.287544	8.26822	-0.001529	-0.197063	-0.042568	-0.729736	-0.046143	-0.168457
960.0	6.372479	-0.150908	8.301144	0.010757	-0.194656	-0.046792	-0.734131	-0.046143	-0.170654
961.0	6.341577	-0.14482	8.214426	0.008244	-0.193573	-0.047167	-0.72998	-0.041748	-0.173096
962.0	6.357845	-0.12751	8.162245	0.012709	-0.19192	-0.035235	-0.734375	-0.041992	-0.164063
963.0	6.196435	-0.063273	8.184607	0.014978	-0.196055	-0.028774	-0.731934	-0.046143	-0.154785
964.0	6.116691	0.019086	8.244341	-0.000169	-0.20033	-0.01484	-0.739014	-0.037598	-0.157227
965.0	6.172414	-0.0592	8.204331	-0.009395	-0.224155	-0.003044	-0.736328	-0.04834	-0.156982
966.0	6.310485	-0.10583	8.159985	-0.021523	-0.225656	0.007108	-0.734131	-0.04834	-0.154785
967.0	6.229386	0.145326	8.218161	0.000265	-0.236608	0.022605	-0.736328	-0.044189	-0.157227
968.0	6.539783	-0.1416	8.044735	-0.062849	-0.240155	0.035308	-0.734131	-0.046143	-0.154785
969.0	6.733598	-0.383899	7.841881	-0.013558	-0.220668	0.03013	-0.736328	-0.048584	-0.147949
970.0	6.621356	-0.32751	7.938957	-0.00466	-0.188542	0.020272	-0.740723	-0.044189	-0.147949
971.0	6.48927	0.044328	8.027952	0.021904	-0.170775	0.026181	-0.734131	-0.044189	-0.147949
972.0	6.412977	0.10953	8.070776	-0.005812	-0.173166	0.042949	-0.736572	-0.041992	-0.147949
973.0	6.342663	0.217144	8.144103	-0.008894	-0.179241	0.069776	-0.740723	-0.046387	-0.145752
974.0	6.269273	0.176614	8.255923	-0.045982	-0.205169	0.085435	-0.734375	-0.041992	-0.141113
975.0	6.246008	0.172297	8.31943	-0.050479	-0.237314	0.11014	-0.736816	-0.0354	-0.143555
976.0	6.352511	0.032369	8.25762	-0.11154	-0.289709	0.124053	-0.739014	-0.0354	-0.141357
977.0	6.403725	-0.166194	8.188847	-0.084854	-0.318758	0.132336	-0.740967	-0.037598	-0.143555
978.0	6.18743	-0.263299	8.413417	-0.077067	-0.345764	0.142398	-0.741211	-0.0354	-0.136719
979.0	6.21171	-0.552826	8.366586	-0.045853	-0.441788	0.118622	-0.739014	-0.0354	-0.13916
980.0	6.083038	-0.178634	8.611368	0.011729	-0.508817	0.100164	-0.743408	-0.0354	-0.129883
981.0	6.107573	-0.622332	8.4832	-0.01081	-0.620452	0.077597	-0.741455	-0.031006	-0.125488
982.0	6.030761	-0.913022	8.525103	0.040509	-0.739	0.017474	-0.743408	-0.033203	-0.123047
983.0	5.989996	-1.060719	8.533222	0.083214	-0.867169	-0.0459	-0.745361	-0.037598	-0.114014
984.0	5.923102	-1.092928	8.425322	0.139189	-1.017565	-0.127078	-0.741211	-0.0354	-0.10498
985.0	6.005633	-0.7839	8.492332	0.181597	-1.167606	-0.193223	-0.743408	-0.035645	-0.093506
986.0	6.074169	-0.663646	8.46888	0.168296	-1.312155	-0.236654	-0.747803	-0.033447	-0.082031
987.0	6.228027	-0.466891	8.483834	0.193697	-1.462517	-0.252751	-0.740967	-0.042236	-0.072754
988.0	6.208581	-0.411871	8.293391	0.165818	-1.626248	-0.253617	-0.745117	-0.042236	-0.056885
989.0	6.436708	-0.330139	8.04246	0.215015	-1.780799	-0.249585	-0.747314	-0.042236	-0.047852
990.0	7.250153	0.005137	7.771577	0.245461	-1.928348	-0.218109	-0.745117	-0.042236	-0.029541
991.0	6.42673	0.460448	8.725607	0.24215	-2.008755	-0.163173	-0.745117	-0.044434	-0.013428
992.0	5.435996	0.249696	8.721961	0.155192	-2.323278	-0.128095	-0.74707	-0.048828	0.00708
993.0	5.799319	0.098223	8.826741	0.189423	-2.655792	-0.095616	-0.740723	-0.04248	0.020508
994.0	5.875546	-0.322208	9.028292	0.160557	-3.009233	-0.092653	-0.740479	-0.049072	0.043457
995.0	5.644241	-0.664704	9.232733	0.262464	-3.384068	-0.095677	-0.738525	-0.046875	0.077637
996.0	5.391495	-0.307832	9.793304	0.300992	-3.892953	-0.090874	-0.738525	-0.046875	0.100586
997.0	4.301572	0.813807	10.365036	0.289215	-4.518688	-0.034633	-0.727539	-0.044678	0.130127
998.0	4.685826	2.537545	10.447929	0.350153	-5.492415	0.110147	-0.710205	-0.04248	0.177734
999.0	7.947291	3.322475	11.159931	0.179549	-6.602543	0.29365	-0.70166	-0.042725	0.216553
1000.0	9.895906	1.320106	11.175004	-0.24499	-7.009929	0.430015	-0.675781	-0.033936	0.270996
1001.0	12.587246	0.872099	10.523889	-0.026329	-7.660846	0.548916	-0.656494	-0.025146	0.330078
1002.0	23.227147	-1.38824	12.263898	-0.134593	-7.55053	0.511821	-0.624023	-0.020752	0.366455
1003.0	15.945895	-1.992683	9.466846	-0.060558	-6.78878	0.513089	-0.5979	-0.018555	0.402832
1004.0	28.83966	5.268268	12.180505	2.149192	-6.883408	0.495818	-0.567871	-0.005371	0.443604
1005.0	14.809348	12.181807	18.310991	-1.038033	-5.649637	1.43667	-0.537842	0.003662	0.475342
1006.0	30.844837	-1.06222	14.686436	-0.917967	-5.178504	1.513083	-0.509521	0.003662	0.500244
1007.0	11.813961	8.430903	22.547587	-0.108462	-3.001241	1.228402	-0.492432	0.014648	0.504639
1008.0	-0.596761	1.703447	18.336074	-2.601691	-0.070845	1.308527	-0.486084	0.016846	0.502197
1009.0	20.28706	-0.557894	20.723934	2.071816	0.13	-0.290265	-0.480225	0.034424	0.499756
1010.0	0.186188	15.880321	24.879389	-0.941181	2.363885	0.148854	-0.490967	0.030029	0.483887
1011.0	-4.919021	-0.834596	9.274664	-2.313823	2.242991	0.080261	-0.497559	0.027832	0.474854
1012.0	-0.701566	-0.810281	13.588129	-0.183297	2.421573	-0.133298	-0.497559	0.027832	0.45874
1013.0	-0.641451	-2.579811	10.934316	-0.247456	3.138325	-0.095275	-0.513184	0.036621	0.445068
1014.0	-1.52142	-0.127694	10.773304	0.541221	3.435804	0.06491	-0.513672	0.047607	0.421875
1015.0	-0.797522	0.173132	10.037376	0.362073	3.743885	0.356776	-0.524902	0.056152	0.398926
1016.0	0.687283	0.165636	9.774528	0.321226	3.993807	0.643329	-0.533936	0.064941	0.389648
1017.0	2.209916	-1.417926	8.778945	0.280122	4.283618	0.843266	-0.543213	0.075928	0.366699
1018.0	3.461915	-1.984481	8.310458	0.566461	4.560541	0.911091	-0.550781	0.095459	0.343506
1019.0	4.088145	-1.194168	7.962632	0.828459	4.793864	0.896722	-0.559814	0.102051	0.316162
1020.0	4.514843	-0.494191	8.017642	0.863755	4.909196	0.855109	-0.56958	0.128174	0.295166
1021.0	5.613692	-0.958302	8.009665	0.880649	4.956311	0.792098	-0.581055	0.13916	0.274414
1022.0	6.997411	-1.382701	8.030055	0.950111	4.963021	0.734118	-0.592285	0.150146	0.244629
1023.0	8.219141	-1.918037	8.151789	1.043254	4.945619	0.685967	-0.601807	0.163086	0.226074
1024.0	9.416298	-2.171075	8.359265	1.204033	4.909137	0.606756	-0.611328	0.180664	0.202881
1025.0	10.788688	-2.071678	8.883475	1.284797	4.871099	0.476502	-0.620605	0.197998	0.173096
1026.0	12.289064	-1.905035	9.19095	1.314478	4.844145	0.339774	-0.634277	0.208984	0.143066
1027.0	13.511732	-1.363986	8.795137	1.263762	4.766224	0.230418	-0.641357	0.217773	0.120117
1028.0	13.245526	-0.884173	8.592324	1.08031	4.70021	0.129774	-0.654785	0.22876	0.083496
1029.0	13.143756	-0.781428	8.012613	0.900651	4.464155	0.020267	-0.661621	0.23291	0.05835
1030.0	12.686208	-1.513986	7.776767	0.760354	4.098754	-0.133628	-0.677246	0.243896	0.023926
1031.0	12.48793	-1.704214	7.608006	0.844897	3.708294	-0.341204	-0.67749	0.248291	-0.001221
1032.0	12.399355	-1.236129	7.800156	0.904714	3.283133	-0.557451	-0.684082	0.250488	-0.026123
1033.0	13.662638	-0.615301	8.529248	0.877121	2.904615	-0.797671	-0.692871	0.252686	-0.05127
1034.0	16.201716	0.040478	9.034116	0.773663	2.693632	-1.051025	-0.697266	0.250488	-0.067139
1035.0	18.996436	-0.347173	10.447323	0.487308	2.666636	-1.302852	-0.703613	0.246338	-0.087646
1036.0	23.685356	-1.752681	10.590269	0.43892	2.998616	-1.555607	-0.711914	0.237549	-0.119385
1037.0	24.470591	-0.204276	9.80011	0.431646	3.675059	-1.591469	-0.720215	0.224365	-0.148682
1038.0	20.992018	0.832986	7.365042	-0.013013	4.208684	-1.479181	-0.717773	0.220215	-0.19873
1039.0	16.390495	-0.823271	4.49933	-0.408387	4.170466	-1.475515	-0.712891	0.209473	-0.22583
1040.0	14.575597	-1.34553	1.252511	-0.400778	3.81244	-1.526756	-0.712646	0.205078	-0.262451
1041.0	15.338451	-5.670639	-0.654446	-0.464571	3.413662	-1.514057	-0.712158	0.192139	-0.298584
1042.0	17.591453	-5.792148	-1.706442	0.646652	3.133387	-1.470874	-0.703125	0.187988	-0.325928
1043.0	17.985648	-4.675421	-3.637597	0.999422	2.696827	-1.288176	-0.700439	0.172607	-0.350586
1044.0	17.593708	-5.224838	-7.849924	1.245771	2.134591	-1.021876	-0.693115	0.157471	-0.366211
1045.0	16.89116	-4.888058	-11.607772	1.764	1.390205	-0.850059	-0.692627	0.146729	-0.391113
1046.0	16.465118	-1.514924	-12.674316	2.025766	0.543391	-0.624811	-0.692383	0.137939	-0.397705
1047.0	13.755198	5.100936	-8.213637	1.427317	-0.856516	-0.169027	-0.69873	0.133545	-0.395508
1048.0	16.448136	4.542928	-11.877361	-1.171442	-1.590295	0.386548	-0.705566	0.144287	-0.379639
1049.0	15.661061	4.756606	-11.113951	-1.461373	-2.570216	0.544164	-0.721191	0.152832	-0.359375
1050.0	10.03462	7.453808	-8.674569	-2.742377	-2.329861	0.572339	-0.72876	0.172607	-0.355225
1051.0	-5.876295	-13.888886	12.903112	-3.744772	-2.477881	-0.561162	-0.74585	0.167969	-0.322998
1052.0	17.099083	-10.71685	20.93066	1.507913	-4.094799	-1.194993	-0.769775	0.16333	-0.30249
1053.0	16.944773	-7.06543	20.077002	-2.744087	-3.889079	0.563425	-0.7771	0.182861	-0.26416
1054.0	12.66311	-25.171737	-5.597318	-2.40078	-3.527457	0.339538	-0.794678	0.182861	-0.24585
1055.0	18.070672	-4.313747	8.468779	5.284779	-4.198084	-0.506625	-0.804443	0.160889	-0.21582
1056.0	39.162709	13.488148	30.266135	2.180687	-2.682835	-0.30424	-0.806641	0.160645	-0.208984
1057.0	10.369519	11.309187	3.758717	-2.291659	0.89071	0.163856	-0.813721	0.171631	-0.206787
1058.0	-6.325659	-2.958434	9.260902	-2.188711	-0.759013	-0.096335	-0.807129	0.169434	-0.190918
1059.0	12.726271	-6.193389	6.640642	0.447827	-1.347806	-0.23882	-0.817871	0.169434	-0.190918
1060.0	3.321495	6.134235	9.699902	0.915588	-0.64752	0.109306	-0.822021	0.165039	-0.181641
1061.0	15.534161	3.285739	13.527035	-1.027637	-0.935523	0.250879	-0.818359	0.175781	-0.179688
1062.0	3.08677	-1.973551	3.647643	-1.282193	0.383866	0.621033	-0.81665	0.186768	-0.175293
1063.0	6.670184	-0.282161	9.575852	0.318983	-0.577791	0.417181	-0.818848	0.188965	-0.17749
1064.0	6.716576	0.187063	9.77517	-0.75274	-0.075964	0.520619	-0.812256	0.188965	-0.173096
1065.0	5.676127	-3.224656	6.800364	-0.354947	-0.103315	0.339719	-0.816895	0.193359	-0.170898
1066.0	7.291354	-0.54276	9.036163	-0.002746	-0.176073	0.1957	-0.814697	0.195557	-0.170898
1067.0	6.111688	-2.126858	8.312173	-0.347374	-0.080409	0.138968	-0.8125	0.195557	-0.173096
1068.0	6.346795	-1.333541	8.205335	0.145815	-0.171522	0.029533	-0.812744	0.199951	-0.166504
1069.0	6.204771	0.677549	8.648677	0.043949	-0.158246	0.021336	-0.814697	0.195557	-0.16626
1070.0	5.854537	0.405541	8.351793	-0.064546	-0.14528	0.042051	-0.817139	0.197754	-0.16626
1071.0	5.955715	0.395501	8.644989	-0.083013	-0.164954	0.070767	-0.814941	0.197754	-0.161865
1072.0	6.274125	-0.045096	8.317988	-0.121181	-0.166876	0.085667	-0.819336	0.201904	-0.164063
1073.0	6.217455	0.145205	8.481293	-0.079212	-0.166213	0.092792	-0.81958	0.204102	-0.157227
1074.0	6.457032	-0.093263	8.384936	-0.138918	-0.175616	0.094564	-0.817139	0.202148	-0.159668
1075.0	6.393446	-0.346406	8.302395	-0.107114	-0.16284	0.083254	-0.819336	0.201904	-0.159668
1076.0	6.255491	-0.292699	8.384769	-0.091379	-0.18114	0.073901	-0.81958	0.206299	-0.164307
1077.0	6.210644	-0.317836	8.45634	-0.092866	-0.187375	0.069716	-0.817139	0.201904	-0.157227
1078.0	6.325389	-0.408327	8.373304	-0.081	-0.210677	0.055869	-0.821777	0.204102	-0.148193
1079.0	6.349173	-0.649911	8.156713	-0.059971	-0.214649	0.035722	-0.817139	0.201904	-0.150391
1080.0	6.18872	-0.375079	8.357597	-0.009273	-0.232492	0.011708	-0.821777	0.204102	-0.150391
1081.0	6.206383	-0.393237	8.232072	-0.024797	-0.24455	0.005093	-0.823975	0.204102	-0.145996
1082.0	6.170668	-0.000862	8.385769	0.003288	-0.273435	0.011739	-0.81958	0.206299	-0.148193
1083.0	6.342263	-0.21823	8.100174	-0.056689	-0.270865	0.032668	-0.821533	0.201904	-0.143555
1084.0	6.319	-0.16114	8.209645	-0.029441	-0.270316	0.03999	-0.823975	0.208496	-0.13916
1085.0	6.384779	-0.041781	8.177807	-0.054669	-0.283999	0.053735	-0.817383	0.204102	-0.134521
1086.0	6.322068	-0.215352	8.159275	-0.071041	-0.289211	0.060079	-0.821777	0.208496	-0.136963
1087.0	6.451846	-0.460794	7.96634	-0.065326	-0.286282	0.045604	-0.830566	0.208496	-0.134521
1088.0	6.311865	-0.230317	8.167091	-0.046099	-0.308177	0.041984	-0.823975	0.208496	-0.130127
1089.0	6.418389	-0.406682	8.071044	-0.056113	-0.313604	0.045503	-0.823975	0.206299	-0.132324
1090.0	6.401428	-0.495223	8.155305	-0.044206	-0.333148	0.027143	-0.826172	0.206299	-0.125488
1091.0	6.35361	-0.357659	8.229846	-0.028824	-0.355747	0.005749	-0.826416	0.212891	-0.12793
1092.0	6.239138	-1.087928	8.122662	-0.032044	-0.399123	-0.009798	-0.82373	0.201904	-0.123047
1093.0	6.366997	-0.296081	8.485554	0.10211	-0.460378	-0.041651	-0.826172	0.208496	-0.118652
1094.0	6.339755	-0.749049	8.153465	0.073365	-0.507395	-0.061074	-0.828369	0.208496	-0.111816
1095.0	6.287364	-0.512818	8.277857	0.134314	-0.568142	-0.085549	-0.828369	0.208252	-0.107178
1096.0	6.286774	-0.594883	8.296416	0.124263	-0.637493	-0.108993	-0.828369	0.206055	-0.100342
1097.0	6.270861	-0.360482	8.363648	0.184252	-0.725736	-0.126036	-0.83252	0.203857	-0.098145
1098.0	6.275331	-0.076666	8.276652	0.168018	-0.813446	-0.129123	-0.828125	0.203857	-0.095703
1099.0	6.258512	-0.077064	8.369528	0.144657	-0.907007	-0.126141	-0.834961	0.206055	-0.089111
1100.0	6.216078	-0.361539	8.314585	0.138458	-1.013992	-0.139878	-0.83667	0.197266	-0.072754
1101.0	6.112665	-0.503039	8.415133	0.153446	-1.132539	-0.167918	-0.843262	0.20166	-0.063721
1102.0	6.076458	-0.933234	8.359752	0.143894	-1.286727	-0.209756	-0.838623	0.195068	-0.052246
1103.0	6.190127	-1.930598	7.995322	0.219086	-1.437928	-0.316336	-0.843018	0.192871	-0.04541
1104.0	6.590829	-2.349516	7.787373	0.395904	-1.584122	-0.485669	-0.844971	0.186279	-0.033936
1105.0	6.779022	-1.870218	7.865133	0.591144	-1.682478	-0.634817	-0.844727	0.184082	-0.015625
1106.0	7.196795	0.130724	7.95329	0.755101	-1.88723	-0.647694	-0.849121	0.181885	-0.006348
1107.0	6.114895	1.709624	9.254008	0.50958	-1.969159	-0.50639	-0.842041	0.173096	0.009766
1108.0	5.451286	0.379722	8.41828	0.324107	-2.307759	-0.405893	-0.846436	0.173096	0.027832
1109.0	5.990431	1.063489	8.690345	0.472279	-2.599519	-0.331418	-0.852783	0.170654	0.046143
1110.0	6.183598	0.862412	9.027621	0.307745	-2.920251	-0.245089	-0.84375	0.164063	0.075928
1111.0	5.774185	0.826865	9.035922	0.366406	-3.293876	-0.178658	-0.845947	0.161865	0.105713
1112.0	5.320066	2.006269	9.804335	0.421235	-3.798892	-0.08968	-0.8396	0.168457	0.130615
1113.0	4.605757	2.800089	10.610303	0.1398	-4.485888	0.062522	-0.841797	0.168213	0.169189
1114.0	5.141052	1.603327	10.271606	-0.106139	-5.402325	0.187788	-0.828857	0.172607	0.22168
1115.0	8.376125	1.583586	11.405651	0.260948	-6.383245	0.176162	-0.815674	0.17041	0.269531
1116.0	9.265071	3.924477	12.384344	0.185427	-6.975143	0.424391	-0.79834	0.17041	0.326416
1117.0	15.171236	0.869207	12.662952	-0.768189	-7.598836	0.652218	-0.778809	0.172607	0.387939
1118.0	25.136827	-5.338384	11.250528	-0.102425	-7.210603	0.191044	-0.757324	0.178955	0.435547
1119.0	20.423543	2.046732	15.767256	0.860177	-6.60777	0.246111	-0.729004	0.183594	0.476563
1120.0	19.472787	3.624427	9.184242	0.791451	-6.461465	0.510984	-0.694336	0.187988	0.515137
1121.0	26.567166	4.467758	19.799919	-0.297833	-5.726766	0.931458	-0.670166	0.183594	0.544922
1122.0	23.525582	1.228995	20.615583	-0.11382	-3.827781	0.919252	-0.648682	0.19043	0.55835
1123.0	-5.840337	10.666081	12.840231	-0.454393	-1.892608	0.969331	-0.64209	0.19043	0.565186
1124.0	19.421466	-0.17367	29.115852	-0.257218	-1.289671	0.276998	-0.642334	0.194824	0.565186
1125.0	7.365261	13.365149	23.03104	-0.379576	1.529462	0.533103	-0.650635	0.186035	0.547119
1126.0	-1.24568	1.858283	13.845761	-2.798509	1.333919	0.553575	-0.66333	0.177246	0.538086
1127.0	-1.89888	-2.888886	15.436002	-1.086336	1.861057	0.664576	-0.671875	0.172852	0.524414
1128.0	1.398524	-4.422197	14.361276	-0.437335	2.58247	0.712031	-0.682861	0.175049	0.499512
1129.0	-1.278942	-0.883528	12.853013	0.44542	3.141543	0.808973	-0.698486	0.181641	0.47876
1130.0	-1.628397	1.15608	11.75513	0.275075	3.54893	1.017865	-0.714355	0.19458	0.448975
1131.0	-0.507939	0.867135	10.692219	0.138724	3.834062	1.176358	-0.729492	0.19458	0.416992
1132.0	-0.416112	-0.665715	9.188023	0.064841	4.113617	1.208922	-0.74292	0.198975	0.382813
1133.0	-0.041992	-1.232405	8.266121	0.335772	4.248492	1.125295	-0.764893	0.205322	0.353027
1134.0	1.139203	-1.12999	7.847488	0.537859	4.331381	1.001755	-0.77002	0.218506	0.313965
1135.0	2.669948	-0.709611	8.060213	0.709895	4.375555	0.889885	-0.787598	0.225098	0.281982
1136.0	4.519436	-0.63333	8.584557	0.734419	4.450977	0.813301	-0.796387	0.227295	0.243408
1137.0	6.437694	-1.306954	8.868081	0.803487	4.557885	0.740768	-0.80542	0.229492	0.20459
1138.0	7.777006	-1.774087	9.005616	0.927271	4.710134	0.674714	-0.818604	0.233887	0.158936
1139.0	8.71931	-1.980227	9.214327	1.072285	4.830617	0.633716	-0.825439	0.240479	0.117676
1140.0	9.797288	-2.254895	9.20287	1.174848	4.907507	0.635591	-0.827881	0.245117	0.081055
1141.0	10.637065	-2.653782	9.100075	1.286822	4.930382	0.648225	-0.829834	0.24292	0.026611
1142.0	11.495326	-2.361123	8.970575	1.454674	4.884279	0.636291	-0.830078	0.245117	-0.007813
1143.0	12.667226	-1.58766	9.043591	1.498659	4.773347	0.585823	-0.827881	0.243164	-0.048828
1144.0	13.831995	-0.844459	8.990851	1.441805	4.670579	0.486501	-0.825439	0.240967	-0.092041
1145.0	15.226068	-0.163386	9.037959	1.382046	4.533401	0.302118	-0.823242	0.236816	-0.137451
1146.0	15.777636	0.507755	8.850199	1.248825	4.437319	0.02982	-0.813965	0.226074	-0.173828
1147.0	15.600663	1.089618	7.956153	1.193281	4.269227	-0.361689	-0.804932	0.219727	-0.210205
1148.0	14.78337	1.791018	7.416981	1.02433	3.973045	-0.772058	-0.799561	0.195801	-0.246094
1149.0	15.338269	1.614061	7.270305	0.817624	3.57285	-1.153835	-0.792236	0.178467	-0.273193
1150.0	17.93215	1.716543	7.463179	0.69538	3.226668	-1.511542	-0.780518	0.158936	-0.29541
1151.0	20.076152	3.044293	7.854752	0.482729	3.119488	-1.759064	-0.770996	0.141602	-0.32251
1152.0	21.719015	4.131244	7.206666	-0.123311	3.158311	-1.901193	-0.76123	0.117676	-0.335693
1153.0	21.833075	0.003436	5.216362	-1.031123	3.263268	-2.027811	-0.751709	0.102539	-0.367432
1154.0	21.733763	-5.94204	1.858991	-1.000234	3.276575	-2.185118	-0.737793	0.080811	-0.385254
1155.0	22.330002	-4.71289	0.615642	-0.15123	3.232568	-2.133552	-0.723633	0.059082	-0.403076
1156.0	21.755554	-2.851687	-1.269268	-0.449412	3.154873	-1.769508	-0.705811	0.050537	-0.427979
1157.0	19.863378	-4.507251	-4.37699	-0.787788	2.877706	-1.234758	-0.69873	0.039795	-0.448242
1158.0	18.834955	-8.24159	-8.657349	-0.668523	2.296965	-0.687652	-0.685303	0.033447	-0.452637
1159.0	19.194946	-10.833762	-13.115021	0.507542	1.539157	-0.328138	-0.674072	0.024658	-0.46167
1160.0	16.904172	-7.634939	-13.915426	1.965799	0.936725	-0.186389	-0.675781	0.011719	-0.466064
1161.0	17.008573	-1.314374	-12.621282	2.227522	-0.568218	-0.297731	-0.679443	-0.001465	-0.454346
1162.0	14.713046	4.607079	-12.579848	0.770968	-1.443314	-0.167036	-0.692383	-0.008057	-0.44043
1163.0	17.176854	6.810663	-13.720299	-1.115867	-2.594898	0.161167	-0.703857	0.009277	-0.429443
1164.0	6.702502	-4.089037	-12.811423	-3.022853	-1.753702	0.309166	-0.713135	0.017822	-0.42041
1165.0	-7.301361	-13.929012	13.252487	0.608141	-3.707679	-1.102948	-0.729248	-0.010742	-0.381104
1166.0	30.090062	4.714103	32.407229	3.565952	-5.300699	-0.352879	-0.746582	-0.010986	-0.351563
1167.0	25.786197	-7.14206	16.769273	-5.466543	-2.910427	0.953268	-0.751953	0.010742	-0.33374
1168.0	8.012739	-14.649731	-9.730301	0.035457	-2.470146	0.032461	-0.766602	-0.002441	-0.310547
1169.0	27.543347	6.730519	21.494142	5.478185	-3.688468	-0.562058	-0.776855	-0.02002	-0.285156
1170.0	28.402713	17.420172	18.531099	-1.173959	0.185909	0.183106	-0.772949	-0.006836	-0.30127
1171.0	-7.800471	-4.102809	3.535241	-4.706301	0.889948	0.585442	-0.775635	0.003906	-0.294678
1172.0	9.695755	-11.273296	6.150422	1.356579	-1.804619	-0.448852	-0.777832	0.001709	-0.283203
1173.0	8.886467	4.614211	11.482135	1.377874	-0.144483	-0.07007	-0.777588	-0.002686	-0.281006
1174.0	5.779991	1.670015	8.103815	-0.922927	-0.458765	-0.054638	-0.777588	-0.002441	-0.2854
1175.0	6.887113	1.112823	8.069847	0.089744	-0.324983	-0.014089	-0.781738	-0.004883	-0.278564
1176.0	5.581261	1.206777	8.250808	-0.495341	-0.269288	0.12513	-0.78418	0.001709	-0.27417
1177.0	5.348435	-0.282011	8.812747	-0.295631	-0.344312	0.171217	-0.779785	-0.002686	-0.276367
1178.0	7.874921	-2.171782	8.263736	-0.488398	-0.15377	0.238479	-0.782227	0.006104	-0.276611
1179.0	3.946964	-0.265063	8.951102	0.16491	-0.24032	0.184896	-0.780029	0.006104	-0.271973
1180.0	6.360073	0.279769	8.819806	-0.321249	-0.20961	0.190384	-0.784668	0.010498	-0.265137
1181.0	7.085335	-1.568649	7.905934	-0.227878	-0.217088	0.120369	-0.784668	0.008301	-0.265137
1182.0	6.55999	-0.86917	8.693957	-0.047841	-0.149075	0.038465	-0.784912	0.014893	-0.262939
1183.0	6.508276	-0.487693	8.543899	-0.044772	-0.193113	-0.012181	-0.793213	0.008301	-0.265137
1184.0	6.698427	-0.524766	8.243984	-0.028484	-0.15778	-0.044629	-0.786865	0.008301	-0.269775
1185.0	6.246385	0.316355	8.547221	0.084386	-0.147287	-0.070034	-0.789063	0.008301	-0.260742
1186.0	6.226579	0.345283	8.603533	-0.032651	-0.163894	-0.064326	-0.786865	0.012695	-0.256104
1187.0	6.113079	-0.128106	8.484106	-0.023673	-0.17209	-0.068003	-0.791016	0.006104	-0.265137
1188.0	6.22584	-0.375362	8.524332	-0.021442	-0.1962	-0.079668	-0.786621	0.003906	-0.256104
1189.0	6.160769	-0.381311	8.340328	0.049427	-0.214522	-0.096975	-0.793213	0.003906	-0.253662
1190.0	6.181527	-0.045561	8.468644	0.045385	-0.238818	-0.096756	-0.786621	0.006104	-0.256104
1191.0	6.378079	-0.081	8.294085	0.038749	-0.247075	-0.088338	-0.792969	-0.000488	-0.251465
1192.0	6.343193	8e-05	8.272193	0.038148	-0.241664	-0.08017	-0.786865	0.010498	-0.244629
1193.0	6.237309	0.10792	8.332368	0.043536	-0.253862	-0.082367	-0.795166	0.001709	-0.246826
1194.0	6.195607	0.433824	8.259682	0.049942	-0.264009	-0.067164	-0.791016	0.003906	-0.242432
1195.0	6.217113	0.570503	8.243242	0.002153	-0.271726	-0.031334	-0.795166	0.001709	-0.244629
1196.0	6.177553	0.506736	8.129253	-0.027313	-0.272705	0.009097	-0.788574	-0.000488	-0.244629
1197.0	6.290382	0.469964	8.191999	-0.058061	-0.278517	0.042324	-0.79541	0.005859	-0.237793
1198.0	6.444536	0.215692	8.077398	-0.09748	-0.270812	0.075971	-0.79541	0.005859	-0.233154
1199.0	6.316484	0.19257	8.145419	-0.097919	-0.265599	0.097225	-0.803711	-0.000732	-0.233154
1200.0	6.457727	0.237427	8.030476	-0.092028	-0.268802	0.121385	-0.800049	0.010254	-0.233398
1201.0	6.705848	0.047162	8.013801	-0.13521	-0.263437	0.144451	-0.79541	0.008057	-0.230957
1202.0	6.754604	-0.201444	7.768642	-0.1034	-0.212063	0.140346	-0.798096	0.016846	-0.229004
1203.0	6.452157	0.066817	8.047925	-0.070445	-0.21491	0.135763	-0.797852	0.014648	-0.22876
1204.0	6.330413	0.177342	8.212824	-0.087337	-0.222725	0.147088	-0.797607	0.008057	-0.224121
1205.0	6.42633	0.004406	8.20309	-0.121612	-0.247475	0.156432	-0.804688	0.016846	-0.224365
1206.0	6.319257	0.15656	8.33645	-0.107546	-0.305557	0.157443	-0.804688	0.019043	-0.224365
1207.0	6.466648	-0.096351	8.233567	-0.160787	-0.323193	0.1689	-0.804688	0.020996	-0.217529
1208.0	6.258285	-0.382184	8.449112	-0.121661	-0.375042	0.159424	-0.804932	0.023193	-0.219971
1209.0	6.332419	-0.752096	8.160781	-0.033815	-0.454755	0.11311	-0.806885	0.018799	-0.210693
1210.0	6.296479	-0.471654	8.398644	0.011161	-0.516351	0.071303	-0.804688	0.016602	-0.208252
1211.0	6.100895	-0.68088	8.505539	0.017159	-0.59653	0.034277	-0.80957	0.029785	-0.201904
1212.0	6.18903	-0.654268	8.427522	0.087888	-0.725684	-0.015628	-0.807129	0.025391	-0.187988
1213.0	6.097295	-0.873251	8.409714	0.101954	-0.819518	-0.059813	-0.811279	0.020996	-0.192383
1214.0	6.101578	-0.72877	8.434524	0.180976	-0.970261	-0.121629	-0.817627	0.016602	-0.176514
1215.0	6.088055	-0.527429	8.440928	0.186624	-1.098044	-0.152482	-0.813232	0.016602	-0.178711
1216.0	6.129335	-0.487384	8.438761	0.194958	-1.251476	-0.182242	-0.819824	0.014404	-0.156006
1217.0	6.294583	-0.459596	8.427995	0.21013	-1.388858	-0.195085	-0.821777	0.01001	-0.146729
1218.0	6.215652	-0.265283	8.48841	0.209991	-1.536708	-0.196667	-0.826172	0.009766	-0.135254
1219.0	6.417165	-0.627128	8.245057	0.153339	-1.704843	-0.213359	-0.826172	0.011963	-0.124023
1220.0	6.792128	-0.483821	7.52191	0.264152	-1.846962	-0.223184	-0.83252	0.005371	-0.10791
1221.0	7.457847	0.146119	8.2657	0.259174	-1.953524	-0.189359	-0.832275	0.003174	-0.084961
1222.0	5.65734	0.135096	8.479653	0.220904	-2.127758	-0.173679	-0.834473	0.005371	-0.069092
1223.0	5.806338	0.612396	8.599982	0.213217	-2.422237	-0.114083	-0.838867	0.00293	-0.050781
1224.0	5.979128	0.173217	8.758934	0.152352	-2.738801	-0.047609	-0.834229	-0.001465	-0.020996
1225.0	5.786073	0.270871	9.521726	0.185834	-3.090699	0.000175	-0.843262	0.00293	0.008545
1226.0	5.615923	0.104099	9.838769	0.151363	-3.572034	0.051035	-0.843018	0.000488	0.035889
1227.0	4.476166	1.221792	10.41098	0.259946	-4.133183	0.161357	-0.836426	-0.001709	0.070068
1228.0	4.062835	2.451819	10.862541	0.224024	-5.050279	0.299677	-0.832275	0.004883	0.11792
1229.0	6.291514	3.996634	11.741107	0.135334	-6.159531	0.502933	-0.828125	0.009033	0.170166
1230.0	10.531383	2.30271	12.905175	-0.360108	-6.957518	0.674498	-0.817627	0.015381	0.236084
1231.0	11.438349	1.069904	11.428059	-0.255353	-7.558776	0.894976	-0.798096	0.021973	0.295166
1232.0	25.532824	-1.528786	14.148314	0.030844	-7.975469	0.735362	-0.763184	0.022217	0.349854
1233.0	23.69426	-1.813846	11.317448	0.370148	-6.43128	0.652059	-0.748535	0.035156	0.397461
1234.0	26.443647	3.649867	12.711976	1.778979	-6.327876	0.918381	-0.727295	0.04834	0.438232
1235.0	12.855741	7.961015	20.068264	-0.017	-5.551404	1.323397	-0.697021	0.050537	0.483643
1236.0	29.486777	3.301187	19.128644	0.112192	-4.22177	1.582206	-0.682129	0.061523	0.503906
1237.0	-1.668366	10.002587	15.217473	-0.528719	-2.306427	1.399515	-0.673828	0.068115	0.515137
1238.0	8.428326	1.038532	24.64678	-0.871834	-0.71832	0.670454	-0.665039	0.068115	0.515137
1239.0	9.546147	12.930618	20.66574	0.635827	0.691034	-0.054766	-0.669189	0.063721	0.510742
1240.0	-3.116853	6.461658	16.274501	-3.029151	1.073627	-0.134233	-0.675049	0.050537	0.501953
1241.0	-3.948613	-3.143704	13.716378	-1.416336	1.508888	-0.280444	-0.681152	0.039795	0.497559
1242.0	0.799915	-3.356361	15.671635	-0.498722	2.172319	-0.328926	-0.687256	0.031006	0.470459
1243.0	-1.340859	-2.329493	13.778929	0.098106	2.873178	-0.058929	-0.704834	0.031006	0.449951
1244.0	-1.713745	-1.064898	12.956128	0.113537	3.405389	0.435505	-0.718018	0.033203	0.427002
1245.0	-0.421097	-2.009714	11.500477	0.123722	3.85325	0.902333	-0.727295	0.04834	0.397217
1246.0	0.005421	-3.152522	9.833263	0.290974	4.229537	1.207317	-0.747314	0.057129	0.371826
1247.0	0.781562	-2.707971	8.835903	0.726358	4.480317	1.296877	-0.760742	0.061523	0.335449
1248.0	2.074243	-1.63779	8.408368	0.99111	4.62309	1.245808	-0.77417	0.072266	0.296387
1249.0	4.105993	-0.625781	8.444056	1.136453	4.725888	1.088926	-0.794678	0.089844	0.261963
1250.0	5.813505	-0.184814	8.575479	1.106762	4.836014	0.877463	-0.799072	0.092041	0.227783
1251.0	7.221881	-0.429883	8.573534	1.056294	4.903548	0.624295	-0.810059	0.094238	0.188965
1252.0	8.361249	-0.780868	8.585915	1.026521	4.927604	0.373379	-0.817139	0.105225	0.143066
1253.0	9.633431	-1.316196	8.922382	0.961671	4.94462	0.16225	-0.821533	0.103027	0.106689
1254.0	11.005693	-2.24133	9.212382	0.906153	4.943599	0.001526	-0.830322	0.105469	0.061035
1255.0	12.306507	-2.625892	9.449111	0.887106	4.939293	-0.075411	-0.83252	0.103271	0.022461
1256.0	13.319629	-2.659335	9.547388	0.856129	4.905114	-0.068578	-0.830078	0.099121	-0.023193
1257.0	14.210007	-2.784974	9.52902	0.755828	4.826665	-0.039123	-0.825684	0.099121	-0.066406
1258.0	15.205585	-1.726264	8.950618	0.857876	4.68973	-0.025737	-0.825684	0.097168	-0.107422
1259.0	14.55709	-1.428241	8.918442	0.580294	4.597129	-0.00993	-0.819092	0.099365	-0.148438
1260.0	14.326104	-1.760478	9.118992	0.625541	4.394315	-0.110426	-0.810303	0.095215	-0.187012
1261.0	14.565528	-2.384186	8.880167	0.694187	4.182042	-0.285867	-0.798828	0.084473	-0.223389
1262.0	14.482302	-1.581566	8.659137	0.920796	3.966715	-0.532858	-0.789795	0.078125	-0.255127
1263.0	13.676979	-0.346493	8.048349	0.85559	3.692471	-0.79033	-0.783203	0.07373	-0.284668
1264.0	12.662198	0.219566	7.272587	0.614135	3.337786	-1.05817	-0.773682	0.058594	-0.313965
1265.0	12.288424	-0.407084	6.592595	0.333923	2.847653	-1.319731	-0.762207	0.04126	-0.336426
1266.0	14.110577	-1.220636	6.760473	0.204522	2.343065	-1.546102	-0.750977	0.034912	-0.345459
1267.0	18.926656	-1.474858	7.653494	0.163625	2.072661	-1.656809	-0.743408	0.013184	-0.36792
1268.0	24.297294	-2.665113	8.03966	0.002881	2.324692	-1.619867	-0.734375	0.006592	-0.388184
1269.0	26.083035	-3.893951	5.63999	0.066017	2.949307	-1.355103	-0.720703	-0.00415	-0.410889
1270.0	22.719859	-3.635423	2.35123	0.079172	3.455682	-0.942113	-0.696533	-0.010498	-0.433594
1271.0	18.176401	-4.631938	-2.658337	0.085854	3.418868	-0.495868	-0.692139	-0.012451	-0.45874
1272.0	15.969567	-5.483301	-6.659781	0.502143	2.855683	-0.167961	-0.667969	-0.016602	-0.476807
1273.0	16.751035	-6.028418	-9.573982	1.177365	2.059648	-0.098225	-0.665527	-0.020996	-0.488037
1274.0	18.323909	-4.262239	-11.514745	1.966926	1.359441	-0.257126	-0.653809	-0.040527	-0.494629
1275.0	18.381678	-0.764716	-11.719137	2.159107	0.793915	-0.437728	-0.646729	-0.053467	-0.494385
1276.0	16.943342	2.0383	-11.180464	1.607209	0.198938	-0.504238	-0.657227	-0.060303	-0.491943
1277.0	15.049027	3.584738	-9.586711	0.834568	-0.536305	-0.461895	-0.65918	-0.06665	-0.491699
1278.0	12.919742	4.252754	-6.882683	0.141863	-1.151938	-0.388788	-0.658936	-0.071045	-0.482666
1279.0	11.488713	10.548414	1.248348	-0.33652	-3.049581	-0.527537	-0.680908	-0.069092	-0.450684
1280.0	10.148032	7.099417	-7.104941	-4.183487	-1.788332	-0.290032	-0.688477	-0.045166	-0.455811
1281.0	-8.203156	-7.50898	12.97214	-2.822308	-2.006787	-0.559543	-0.703613	-0.047607	-0.432861
1282.0	12.499766	-10.857918	18.136966	-0.404701	-3.453482	-1.09637	-0.71875	-0.047607	-0.412354
1283.0	10.904048	-10.460104	18.118517	-2.363775	-3.862565	0.311747	-0.73291	-0.028076	-0.389893
1284.0	16.828804	-22.866363	0.924012	-2.317234	-3.738743	0.465278	-0.750244	-0.026123	-0.362549
1285.0	14.717519	-8.519298	2.051955	3.168869	-3.88861	-0.141127	-0.77124	-0.04834	-0.327881
1286.0	36.802349	9.494325	28.161653	3.331901	-3.35408	-0.25508	-0.772949	-0.054932	-0.311768
1287.0	18.945105	13.402386	9.899969	-1.729133	0.567331	0.285918	-0.769287	-0.039551	-0.323486
1288.0	-8.822136	-3.492099	7.577314	-3.63001	0.024855	0.268382	-0.771973	-0.028564	-0.312256
1289.0	11.665672	-9.653862	5.437417	0.750747	-1.83575	-0.314716	-0.77832	-0.035156	-0.30542
1290.0	5.688947	4.474816	10.911647	1.238423	-0.520896	0.036541	-0.778076	-0.041748	-0.29834
1291.0	13.779872	0.897957	9.875657	-1.022068	-0.694054	0.108037	-0.780518	-0.033203	-0.298584
1292.0	3.763312	-0.050735	7.542364	-0.118016	0.003812	0.312735	-0.782959	-0.031006	-0.296387
1293.0	7.99711	1.408805	7.819167	-0.046307	-0.320801	0.271207	-0.782715	-0.033203	-0.287109
1294.0	6.614353	-0.008702	9.081539	-0.587216	-0.093894	0.373487	-0.783203	-0.022217	-0.294189
1295.0	6.557586	-1.40662	7.579432	-0.224425	-0.003733	0.298123	-0.7854	-0.024414	-0.294189
1296.0	6.468634	-0.985258	8.738847	-0.278482	-0.010435	0.232506	-0.783203	-0.024414	-0.294189
1297.0	6.560272	-2.05287	8.248353	-0.185374	-0.01216	0.151195	-0.785645	-0.017822	-0.289795
1298.0	6.55218	-1.119774	8.452907	-0.012966	-0.012507	0.063205	-0.78125	-0.015625	-0.294434
1299.0	6.305294	-0.50332	8.435376	-0.01871	-0.011132	0.01749	-0.785645	-0.017822	-0.289795
1300.0	5.786139	-0.417002	8.507491	0.000944	-0.029895	-0.011843	-0.788086	-0.01123	-0.292236
1301.0	5.979306	-0.074603	8.579818	0.019734	-0.067994	-0.019542	-0.781494	-0.013428	-0.289795
1302.0	6.01196	0.1351	8.41157	0.01832	-0.082361	-0.017914	-0.787842	-0.017822	-0.287598
1303.0	6.084665	0.268984	8.458903	-0.035939	-0.091114	0.001833	-0.7854	-0.02002	-0.294189
1304.0	6.170652	-0.110839	8.337604	-0.058002	-0.084581	0.022963	-0.785889	-0.013428	-0.2854
1305.0	6.416404	-0.478814	8.320833	-0.070275	-0.07901	0.021015	-0.783447	-0.015625	-0.285156
1306.0	6.239044	-0.808062	8.292415	-0.048202	-0.070803	0.004546	-0.785889	-0.01123	-0.289795
1307.0	6.234307	-0.650846	8.329455	0.016361	-0.077347	-0.022566	-0.790039	-0.013428	-0.2854
1308.0	6.19757	-0.615706	8.318854	0.001061	-0.080756	-0.040408	-0.785889	-0.01123	-0.289795
1309.0	6.338561	-0.271617	8.279493	0.050536	-0.083767	-0.050545	-0.785889	-0.013428	-0.2854
1310.0	6.327791	-0.125094	8.265096	0.012822	-0.062987	-0.040952	-0.796631	-0.015869	-0.280762
1311.0	6.324337	-0.066444	8.220993	0.015151	-0.053625	-0.026461	-0.785645	-0.017822	-0.285156
1312.0	6.191419	-0.071756	8.178388	-0.004293	-0.033427	-0.000136	-0.785889	-0.013428	-0.287598
1313.0	5.884796	0.038311	8.245076	-0.006549	-0.029001	0.02151	-0.785645	-0.015625	-0.287598
1314.0	5.83005	-0.095009	8.373026	-0.052486	-0.048382	0.042711	-0.792236	-0.015869	-0.282959
1315.0	5.812236	-0.181178	8.294532	-0.032371	-0.062009	0.056521	-0.787842	-0.017822	-0.285156
1316.0	5.757961	-0.128637	8.473962	-0.064288	-0.0903	0.071745	-0.785889	-0.009277	-0.2854
1317.0	5.986328	-0.34661	8.313425	-0.06343	-0.112688	0.076273	-0.788086	-0.009277	-0.280762
1318.0	6.028876	-0.260501	8.282611	-0.046096	-0.122032	0.078085	-0.783936	-0.00708	-0.278564
1319.0	5.958645	0.016321	8.330145	-0.046462	-0.13324	0.090004	-0.794678	-0.011475	-0.278564
1320.0	6.119644	-0.306625	8.334876	-0.098403	-0.160536	0.098768	-0.794678	-0.009277	-0.273926
1321.0	6.261169	-0.373617	8.280199	-0.037974	-0.169989	0.086603	-0.79248	-0.011475	-0.276123
1322.0	6.177261	-0.261321	8.369148	-0.06372	-0.186934	0.081843	-0.794922	-0.004883	-0.276367
