Acquisition frequency: 100 Hz
PacketCounter	Acc_X	Acc_Y	Acc_Z	Gyr_X	Gyr_Y	Gyr_Z	Mag_X	Mag_Y	Mag_Z
0.0	5.898991	1.6201	7.988136	0.053354	-0.022074	-0.042147	-0.66333	0.026611	-0.32959
1.0	5.87895	1.55498	8.004196	0.051397	-0.027432	-0.045791	-0.661133	0.026611	-0.333984
2.0	5.866767	1.516508	7.966289	0.077376	-0.032422	-0.047259	-0.663086	0.024414	-0.32959
3.0	5.899715	1.601795	8.003515	0.085228	-0.03196	-0.055513	-0.663086	0.024414	-0.331787
4.0	5.927203	1.568874	7.927891	0.083949	-0.031128	-0.052732	-0.665283	0.022217	-0.327148
5.0	5.906452	1.605835	7.967045	0.108405	-0.032323	-0.063561	-0.660889	0.024414	-0.327148
6.0	5.872091	1.716469	7.983165	0.105811	-0.022027	-0.06138	-0.665283	0.02002	-0.327148
7.0	5.89328	1.740196	7.955722	0.091615	-0.014507	-0.057535	-0.658691	0.022217	-0.327148
8.0	5.896556	1.733302	7.923868	0.084034	-0.004069	-0.052718	-0.660889	0.022217	-0.333984
9.0	5.851004	1.73458	8.001505	0.063246	-0.003742	-0.048088	-0.663086	0.022217	-0.329346
10.0	5.889862	1.68576	7.957199	0.049225	-0.002274	-0.044806	-0.660645	0.018066	-0.336182
11.0	5.873676	1.683826	7.939403	0.047773	0.004665	-0.041391	-0.667236	0.02002	-0.327148
12.0	5.907041	1.689478	7.943102	0.048455	0.000713	-0.037918	-0.658691	0.022217	-0.329346
13.0	5.85113	1.683312	7.962956	0.036803	0.006516	-0.039681	-0.663086	0.022217	-0.331787
14.0	5.804126	1.782845	7.922784	0.047151	0.00587	-0.03683	-0.656494	0.022217	-0.329346
15.0	5.737622	1.886972	8.037534	0.026245	0.003695	-0.028118	-0.660889	0.02002	-0.324951
16.0	5.797112	1.845414	7.969838	-0.008404	0.00374	-0.022433	-0.658447	0.013672	-0.329346
17.0	5.887395	1.758974	7.930998	-0.019494	0.003091	-0.016657	-0.663086	0.02002	-0.327148
18.0	5.833604	1.707949	7.934288	-0.021578	0.005388	-0.013286	-0.665283	0.022217	-0.333984
19.0	5.887866	1.718961	7.914642	-0.0198	0.00665	-0.012029	-0.660889	0.024414	-0.327148
20.0	5.878218	1.730883	7.986928	-0.032393	0.005466	-0.013869	-0.658691	0.020264	-0.329346
21.0	5.833412	1.665824	7.918844	-0.021853	0.004647	-0.006941	-0.658447	0.017822	-0.32251
22.0	5.86195	1.779123	7.976897	-0.0246	0.000694	-0.010006	-0.656494	0.022217	-0.329346
23.0	5.885915	1.713107	7.917363	-0.032516	0.002941	-0.009845	-0.658936	0.024414	-0.324951
24.0	5.907117	1.741343	8.023696	-0.023976	0.005346	-0.009955	-0.663086	0.02002	-0.331787
25.0	5.932518	1.636955	7.946667	-0.033824	0.008106	-0.008738	-0.660889	0.02002	-0.329346
26.0	5.878567	1.704358	7.961588	-0.012849	0.007596	-0.009345	-0.665283	0.022217	-0.331787
27.0	5.915553	1.686142	7.936986	-0.024046	0.00805	-0.018063	-0.660889	0.022217	-0.329346
28.0	5.86141	1.635847	7.940255	0.001141	0.010434	-0.014364	-0.663086	0.022217	-0.327148
29.0	5.908144	1.742748	7.985737	0.001449	0.006875	-0.019003	-0.658691	0.020264	-0.331787
30.0	5.842606	1.608358	7.936007	-0.005159	0.003949	-0.019961	-0.663086	0.02002	-0.331787
31.0	5.889557	1.775194	7.986945	0.014541	0.004321	-0.017727	-0.656738	0.024414	-0.327148
32.0	5.92847	1.720463	7.944161	-0.013887	0.007607	-0.019261	-0.663086	0.02002	-0.333984
33.0	5.896972	1.704559	7.910487	0.005312	0.005846	-0.021122	-0.660889	0.02002	-0.329346
34.0	5.887043	1.718185	7.982534	-0.015785	0.009705	-0.011823	-0.665527	0.026611	-0.32959
35.0	5.886087	1.658604	7.977545	-0.006626	0.01089	-0.016533	-0.658936	0.024414	-0.327148
36.0	5.907504	1.692716	7.941579	-0.007591	0.008202	-0.018342	-0.658691	0.022217	-0.327148
37.0	5.904703	1.672118	7.954209	-0.005349	0.010016	-0.01937	-0.665283	0.02002	-0.329346
38.0	5.898152	1.669007	7.996589	0.000291	0.010258	-0.02022	-0.663086	0.022217	-0.329346
39.0	5.885154	1.704541	7.95612	0.007053	0.011409	-0.021583	-0.658447	0.018066	-0.324707
40.0	5.900956	1.676186	7.956132	0.000254	0.01455	-0.021943	-0.661133	0.024414	-0.331787
41.0	5.882226	1.70781	7.957584	0.011724	0.01485	-0.019572	-0.658691	0.020264	-0.331787
42.0	5.882422	1.730516	7.94642	-0.004267	0.015208	-0.021615	-0.660645	0.017822	-0.327148
43.0	5.879385	1.65094	7.953482	0.00172	0.013485	-0.020716	-0.658691	0.022217	-0.329346
44.0	5.917276	1.715964	7.922764	0.007481	0.016245	-0.025607	-0.665283	0.02002	-0.329346
45.0	5.893087	1.683756	7.960366	-0.002652	0.018249	-0.018039	-0.660645	0.015869	-0.333984
46.0	5.877455	1.757306	7.938174	0.004575	0.019951	-0.021694	-0.665283	0.02002	-0.333984
47.0	5.923159	1.745021	7.973063	-0.010894	0.024033	-0.013254	-0.658691	0.020264	-0.329346
48.0	5.81218	1.664762	7.867181	-0.007707	0.034421	-0.007807	-0.656738	0.024414	-0.331787
49.0	5.843645	1.997187	8.162948	0.004629	0.023132	-0.008916	-0.660889	0.022217	-0.327148
50.0	5.857221	1.671059	7.892444	-0.069749	0.025786	-0.003219	-0.661133	0.026611	-0.336426
51.0	5.847204	1.761945	7.960019	-0.007323	0.028155	-0.004338	-0.663086	0.022217	-0.336182
52.0	5.877303	1.737992	7.978777	-0.057019	0.031095	0.000977	-0.663086	0.022217	-0.331787
53.0	5.844394	1.717667	7.947078	-0.029747	0.031247	0.00136	-0.660645	0.018066	-0.331543
54.0	5.853545	1.68002	7.990758	-0.059302	0.033552	0.000247	-0.662842	0.018066	-0.333984
55.0	5.858263	1.701641	7.939823	-0.034271	0.03189	0.001668	-0.660889	0.02002	-0.329346
56.0	5.831106	1.701996	7.996917	-0.062994	0.034354	0.006386	-0.660645	0.015869	-0.331543
57.0	5.820576	1.71434	7.929105	-0.043463	0.03654	0.011003	-0.658936	0.024414	-0.333984
58.0	5.895218	1.772067	8.006574	-0.074687	0.045952	0.009201	-0.660645	0.018066	-0.336182
59.0	5.81611	1.723933	7.924324	-0.071559	0.037751	0.011052	-0.658691	0.02002	-0.327148
60.0	5.834119	1.686915	8.02793	-0.080323	0.047229	0.016358	-0.658936	0.024414	-0.336426
61.0	5.834625	1.662725	8.002052	-0.077882	0.042964	0.014706	-0.65625	0.018066	-0.331543
62.0	5.867704	1.617002	7.99248	-0.079822	0.043445	0.015719	-0.660889	0.022217	-0.329346
63.0	5.84762	1.580721	7.990667	-0.069325	0.039501	0.009926	-0.658691	0.022217	-0.329346
64.0	5.848295	1.6175	7.970405	-0.062867	0.038334	0.008553	-0.661133	0.024414	-0.336426
65.0	5.826396	1.620826	7.986163	-0.05753	0.036259	0.00769	-0.660889	0.020264	-0.336182
66.0	5.804621	1.624917	8.001659	-0.047843	0.033747	0.002461	-0.658936	0.026611	-0.333984
67.0	5.819613	1.59104	8.003238	-0.048258	0.023033	0.001766	-0.661133	0.024414	-0.331787
68.0	5.852025	1.586931	8.009983	-0.044383	0.022027	-0.000327	-0.66333	0.028809	-0.32959
69.0	5.831215	1.592576	8.024435	-0.029042	0.021347	5.4e-05	-0.661133	0.024414	-0.331787
70.0	5.850527	1.602819	8.00177	-0.036938	0.017699	-0.004543	-0.663574	0.031006	-0.338623
71.0	5.84894	1.600445	8.003405	-0.027752	0.02049	-0.00278	-0.658691	0.022217	-0.327148
72.0	5.84917	1.619552	7.993318	-0.03323	0.018457	-0.004312	-0.661133	0.024414	-0.333984
73.0	5.845657	1.59593	8.006705	-0.028569	0.021893	-0.00225	-0.658936	0.026611	-0.333984
74.0	5.83995	1.610597	8.038318	-0.0284	0.02013	-0.004579	-0.658936	0.026611	-0.333984
75.0	5.821456	1.579187	8.034161	-0.025952	0.015897	-0.006199	-0.656738	0.028809	-0.338623
76.0	5.825739	1.582241	7.993965	-0.024045	0.019694	-0.00895	-0.654541	0.026611	-0.333984
77.0	5.843226	1.571959	7.982888	-0.028063	0.018147	-0.002845	-0.661133	0.028809	-0.331787
78.0	5.837824	1.587026	8.014187	-0.022719	0.014549	-0.010073	-0.658936	0.028809	-0.334229
79.0	5.82316	1.598965	7.986436	-0.021768	0.017219	-0.008251	-0.658936	0.028809	-0.32959
80.0	5.834865	1.584682	8.016805	-0.018705	0.017635	-0.00979	-0.661133	0.024414	-0.333984
81.0	5.854355	1.596694	7.993785	-0.017072	0.014816	-0.010869	-0.65918	0.033203	-0.334229
82.0	5.847114	1.591178	8.036569	-0.019012	0.015309	-0.009835	-0.658936	0.026611	-0.331787
83.0	5.832479	1.603678	8.0087	-0.013364	0.015582	-0.010622	-0.656982	0.033203	-0.336426
84.0	5.830851	1.603086	8.010004	-0.017923	0.020514	-0.012047	-0.66333	0.028809	-0.336426
85.0	5.840575	1.567692	8.052044	-0.017245	0.016566	-0.008555	-0.656738	0.028809	-0.334229
86.0	5.789417	1.618549	8.037793	-0.015644	0.018044	-0.011341	-0.65918	0.031006	-0.327393
87.0	5.824289	1.57928	8.025557	-0.020954	0.015792	-0.008814	-0.66333	0.026611	-0.333984
88.0	5.805889	1.548686	8.021083	-0.018708	0.017619	-0.009813	-0.661133	0.028809	-0.336426
89.0	5.838035	1.606749	8.034027	-0.020344	0.020432	-0.008741	-0.65918	0.033203	-0.338867
90.0	5.838573	1.567633	8.017122	-0.021937	0.01741	-0.012361	-0.656738	0.028809	-0.336426
91.0	5.801014	1.545661	8.025193	-0.018535	0.015858	-0.012148	-0.65918	0.031006	-0.334229
92.0	5.816425	1.57421	8.032253	-0.022418	0.016839	-0.010082	-0.656738	0.026611	-0.336426
93.0	5.817129	1.535499	8.015138	-0.011763	0.01705	-0.013426	-0.661133	0.026611	-0.331787
94.0	5.811573	1.551806	8.046234	-0.015775	0.013954	-0.013728	-0.658936	0.028809	-0.336426
95.0	5.816165	1.55626	8.005693	-0.012068	0.014726	-0.013471	-0.658936	0.026611	-0.331787
96.0	5.814376	1.615325	8.01353	-0.015133	0.0143	-0.011943	-0.663574	0.033203	-0.336426
97.0	5.830265	1.585066	8.013681	-0.012887	0.016129	-0.012938	-0.658936	0.026611	-0.343262
98.0	5.824717	1.601323	8.04477	-0.016418	0.013599	-0.015527	-0.65918	0.031006	-0.341064
99.0	5.825527	1.562786	8.027553	-0.015007	0.01837	-0.009582	-0.656738	0.028809	-0.331787
100.0	5.800595	1.587227	8.071394	-0.016292	0.017671	-0.013165	-0.661133	0.028809	-0.336426
101.0	5.826448	1.54479	8.000175	-0.0213	0.017732	-0.010608	-0.66333	0.026611	-0.333984
102.0	5.80354	1.590715	8.032274	-0.008664	0.013172	-0.013264	-0.656738	0.026611	-0.333984
103.0	5.819568	1.560672	8.032284	-0.015776	0.01394	-0.013751	-0.656738	0.028809	-0.334229
104.0	5.801025	1.590282	8.034176	-0.008325	0.011198	-0.011518	-0.656982	0.031006	-0.331787
105.0	5.814836	1.598383	8.052498	-0.011249	0.013309	-0.014028	-0.656982	0.031006	-0.341064
106.0	5.820073	1.54369	8.005026	-0.009966	0.014005	-0.010448	-0.661377	0.031006	-0.331787
107.0	5.848734	1.559932	8.040922	-0.010768	0.013874	-0.016318	-0.656738	0.024414	-0.333984
108.0	5.794018	1.568724	8.049502	-0.006901	0.014431	-0.011977	-0.656982	0.031006	-0.336426
109.0	5.810054	1.538916	8.049473	-0.011249	0.013304	-0.014036	-0.658936	0.028809	-0.334229
110.0	5.812386	1.581709	8.02732	-0.009486	0.014567	-0.012741	-0.658936	0.028809	-0.331787
111.0	5.807305	1.538813	8.051476	-0.010948	0.015621	-0.013998	-0.65918	0.033203	-0.336426
112.0	5.809644	1.581694	8.029308	-0.007204	0.012106	-0.012025	-0.656982	0.031006	-0.336426
113.0	5.810164	1.603152	8.018693	-0.006443	0.016526	-0.007864	-0.656738	0.026611	-0.331787
114.0	5.809467	1.543696	8.012725	-0.012191	0.010629	-0.01588	-0.658936	0.024414	-0.338623
115.0	5.771757	1.581959	8.027034	-0.007844	0.011755	-0.013821	-0.661377	0.031006	-0.343262
116.0	5.82405	1.573394	8.020237	-0.010089	0.009921	-0.012834	-0.658936	0.028809	-0.341064
117.0	5.821191	1.551931	8.032542	-0.008327	0.011185	-0.011537	-0.661377	0.031006	-0.343262
118.0	5.785958	1.552292	8.02832	-0.007023	0.01035	-0.014361	-0.654785	0.031006	-0.343262
119.0	5.802434	1.522681	8.027965	-0.008445	0.007112	-0.01391	-0.658691	0.022461	-0.338623
120.0	5.803385	1.544367	8.017002	-0.006201	0.008946	-0.014899	-0.661133	0.026611	-0.336426
121.0	5.78147	1.53179	8.041605	-0.002795	0.007406	-0.014672	-0.658936	0.028809	-0.336426
122.0	5.799275	1.583112	8.036521	-0.008928	0.006541	-0.011627	-0.654785	0.031006	-0.341064
123.0	5.795023	1.540505	8.059998	-0.005496	0.00347	-0.01781	-0.656982	0.031006	-0.336426
124.0	5.806542	1.550807	7.977279	-0.005862	0.006972	-0.013152	-0.658936	0.028809	-0.336426
125.0	5.814681	1.554401	8.036779	-0.005679	0.00522	-0.015483	-0.65918	0.031006	-0.338623
126.0	5.779827	1.555199	8.032172	-0.002612	0.005652	-0.017007	-0.656982	0.031006	-0.336426
127.0	5.813302	1.555624	8.037539	-0.005679	0.005218	-0.015485	-0.658936	0.028809	-0.336426
128.0	5.799528	1.569539	8.008841	-0.00115	0.004598	-0.015751	-0.661377	0.031006	-0.336426
129.0	5.818268	1.561846	7.996558	-0.004516	0.001844	-0.014271	-0.65918	0.031006	-0.338623
130.0	5.807257	1.573866	8.068481	-0.005381	0.007535	-0.015446	-0.656738	0.026611	-0.333984
131.0	5.810863	1.557844	8.038873	-0.004217	0.004162	-0.014231	-0.656738	0.028809	-0.336426
132.0	5.776039	1.558444	8.034268	-0.007143	0.006266	-0.01675	-0.658936	0.028809	-0.334229
133.0	5.811219	1.580135	8.028215	-0.007143	0.006265	-0.016751	-0.656982	0.031006	-0.336426
134.0	5.774562	1.559254	8.035173	-0.00568	0.005212	-0.015493	-0.65918	0.031006	-0.341064
135.0	5.81422	1.564537	7.998975	-0.004218	0.00416	-0.014235	-0.656738	0.028809	-0.338623
136.0	5.790104	1.589574	8.041856	-0.009869	0.003856	-0.01348	-0.654785	0.029053	-0.343262
137.0	5.808747	1.581346	8.029766	-0.006987	0.006043	-0.012672	-0.658936	0.028809	-0.336426
138.0	5.823031	1.58944	8.047753	-0.015037	0.004119	-0.015016	-0.656982	0.031006	-0.338623
139.0	5.791021	1.551259	8.024608	-0.012594	0.001448	-0.010208	-0.656738	0.028809	-0.343262
140.0	5.771331	1.559372	8.037471	-0.008109	0.005123	-0.012181	-0.656982	0.031006	-0.334229
141.0	5.803128	1.537873	8.054408	-0.008748	0.004772	-0.013979	-0.654785	0.033203	-0.336426
142.0	5.806181	1.58083	8.031723	-0.010165	0.001532	-0.01353	-0.65918	0.031006	-0.336426
143.0	5.80577	1.580534	8.032078	-0.014882	0.003895	-0.010938	-0.656738	0.028809	-0.336426
144.0	5.837544	1.558365	8.049167	-0.015411	0.007614	-0.01036	-0.661377	0.031006	-0.338623
145.0	5.807054	1.541294	8.014751	-0.018291	0.005424	-0.011173	-0.650391	0.029053	-0.338623
146.0	5.836194	1.55726	8.05036	-0.010212	0.00582	-0.015245	-0.65918	0.031006	-0.338623
147.0	5.820495	1.548675	8.033489	-0.018822	0.009141	-0.010597	-0.654785	0.028809	-0.331787
148.0	5.81712	1.586161	8.052673	-0.00811	0.00512	-0.012189	-0.65918	0.033203	-0.334229
149.0	5.786585	1.569375	8.01823	-0.018184	0.009488	-0.008803	-0.656982	0.031006	-0.334229
150.0	5.834888	1.576678	8.041488	-0.016346	0.004938	-0.012211	-0.661377	0.031006	-0.336426
151.0	5.781675	1.52505	8.04248	-0.016051	0.007257	-0.012168	-0.658936	0.028809	-0.336426
152.0	5.801996	1.537933	8.019059	-0.010694	0.005248	-0.012964	-0.658936	0.026611	-0.336426
153.0	5.875842	1.542497	7.988101	-0.016346	0.004934	-0.012216	-0.654541	0.026855	-0.338623
154.0	5.772455	1.578879	8.092771	0.00168	0.011082	-0.016664	-0.658936	0.028809	-0.343262
155.0	5.814445	1.545818	8.038419	-0.026234	0.007544	-0.01117	-0.661133	0.028809	-0.336426
156.0	5.798833	1.537367	8.021454	0.000609	0.005873	-0.014464	-0.656982	0.033203	-0.332031
157.0	5.812945	1.545881	8.039492	-0.013622	0.007341	-0.015496	-0.656982	0.031006	-0.336426
158.0	5.812149	1.545957	8.040053	-0.006507	0.006606	-0.014982	-0.661377	0.031006	-0.338623
159.0	5.827998	1.575713	8.046672	-0.012159	0.00629	-0.014236	-0.665527	0.028809	-0.336426
160.0	5.846506	1.567301	8.034769	-0.012986	0.007687	-0.013702	-0.65918	0.031006	-0.338623
161.0	5.807982	1.524153	8.053332	-0.013329	0.009656	-0.015457	-0.658936	0.028809	-0.341064
162.0	5.841093	1.524081	8.059149	-0.009625	0.010449	-0.015178	-0.656738	0.024414	-0.331787
163.0	5.826992	1.537232	8.030865	-0.014933	0.00816	-0.01268	-0.656738	0.026611	-0.34082
164.0	5.827821	1.558766	8.020057	-0.00363	0.008796	-0.014171	-0.66333	0.028809	-0.338623
165.0	5.811999	1.550781	8.003155	-0.01333	0.00965	-0.015465	-0.656738	0.028809	-0.341064
166.0	5.788334	1.516014	8.039212	-0.007334	0.008	-0.014456	-0.665771	0.033203	-0.341064
167.0	5.804057	1.545818	8.045923	-0.011675	0.006852	-0.016541	-0.656738	0.028809	-0.336426
168.0	5.822517	1.53769	8.034023	-0.009919	0.008123	-0.015232	-0.661133	0.028809	-0.343262
169.0	5.821712	1.537688	8.034607	-0.012795	0.005928	-0.016054	-0.661133	0.028809	-0.334229
170.0	5.822434	1.55932	8.023861	-0.007388	0.012285	-0.01617	-0.654785	0.031006	-0.336426
171.0	5.815208	1.554044	8.066152	-0.013663	0.008849	-0.009093	-0.656982	0.033203	-0.334229
172.0	5.818664	1.537345	8.03688	-0.01304	0.011961	-0.015432	-0.654785	0.028809	-0.338623
173.0	5.817488	1.537384	8.037724	-0.008508	0.011361	-0.015684	-0.65918	0.031006	-0.336426
174.0	5.814732	1.516064	8.049876	-0.008164	0.009391	-0.013931	-0.661133	0.028809	-0.331787
175.0	5.811007	1.554104	8.069168	-0.007335	0.007993	-0.014468	-0.65918	0.033203	-0.334229
176.0	5.799743	1.530001	8.022093	-0.005732	0.009487	-0.01725	-0.661377	0.031006	-0.341064
177.0	5.815385	1.560022	8.028835	-0.010846	0.005444	-0.017095	-0.65918	0.031006	-0.331787
178.0	5.83385	1.552215	8.016906	-0.005732	0.009485	-0.017253	-0.65918	0.031006	-0.336426
179.0	5.807301	1.555339	8.071598	-0.008843	0.01056	-0.009308	-0.658936	0.028809	-0.338623
180.0	5.810843	1.539044	8.042212	-0.0088	0.009034	-0.015741	-0.65918	0.031006	-0.341064
181.0	5.8264	1.568916	8.049046	-0.010555	0.007759	-0.017056	-0.654785	0.031006	-0.334229
182.0	5.813578	1.523138	8.013343	-0.007971	0.007636	-0.01628	-0.654541	0.026611	-0.333984
183.0	5.805211	1.577578	8.062762	-0.007682	0.009954	-0.016235	-0.656738	0.026611	-0.34082
184.0	5.792337	1.531971	8.027067	-0.005387	0.007513	-0.015505	-0.65918	0.031006	-0.341064
185.0	5.822744	1.570217	8.051437	-0.007337	0.007984	-0.014482	-0.658936	0.026611	-0.333984
186.0	5.807081	1.562313	8.034398	-0.007972	0.007632	-0.016286	-0.661377	0.033203	-0.336426
187.0	5.799924	1.557197	8.076543	-0.010117	0.00985	-0.012924	-0.65918	0.033203	-0.32959
188.0	5.803506	1.540926	8.047148	-0.007533	0.009728	-0.012147	-0.661133	0.028809	-0.338623
189.0	5.821883	1.532927	8.035355	-0.01202	0.008794	-0.018338	-0.657227	0.0354	-0.334229
190.0	5.822575	1.554694	8.02462	-0.006218	0.008904	-0.014977	-0.659424	0.0354	-0.338867
191.0	5.841008	1.546703	8.012796	-0.011237	0.008921	-0.012441	-0.658936	0.024414	-0.333984
192.0	5.817411	1.511851	8.048696	-0.006853	0.008552	-0.016784	-0.658936	0.028809	-0.336426
193.0	5.819759	1.555208	8.026562	-0.008169	0.009373	-0.013957	-0.657227	0.0354	-0.336426
194.0	5.817111	1.534024	8.038601	-0.005734	0.009474	-0.017276	-0.656738	0.028809	-0.336426
195.0	5.816103	1.534265	8.039285	-0.010119	0.009841	-0.012936	-0.65918	0.033203	-0.332031
196.0	5.814951	1.534495	8.040075	-0.006913	0.012834	-0.018501	-0.659424	0.0354	-0.341064
197.0	5.794379	1.542822	8.053359	-0.008367	0.011114	-0.011623	-0.665771	0.031006	-0.334229
198.0	5.827454	1.543113	8.059263	-0.007684	0.00994	-0.016258	-0.656982	0.033203	-0.341064
199.0	5.792265	1.543306	8.054787	-0.007684	0.009939	-0.01626	-0.656738	0.028809	-0.338623
200.0	5.791161	1.54358	8.055528	-0.008517	0.011332	-0.015727	-0.661377	0.031006	-0.336426
201.0	5.811131	1.557396	8.032387	-0.006852	0.008544	-0.016799	-0.65918	0.031006	-0.334229
202.0	5.808396	1.536104	8.044504	-0.008717	0.013075	-0.013389	-0.650391	0.03125	-0.341064
203.0	5.789346	1.565988	8.046473	-0.006914	0.012827	-0.018514	-0.656738	0.028809	-0.341064
204.0	5.810613	1.520395	8.016051	-0.010121	0.009829	-0.012952	-0.656982	0.031006	-0.338623
205.0	5.819652	1.545262	8.064487	-0.003298	0.00957	-0.02061	-0.65918	0.031006	-0.338623
206.0	5.808467	1.521442	8.017408	-0.009151	0.010973	-0.017544	-0.656982	0.031006	-0.336426
207.0	5.817301	1.546353	8.065974	-0.004332	0.012706	-0.017738	-0.656738	0.026611	-0.338623
208.0	5.786583	1.530462	8.031466	-0.007401	0.012247	-0.016229	-0.65918	0.031006	-0.336426
209.0	5.822672	1.574157	8.014806	-0.006283	0.013172	-0.016719	-0.65918	0.033203	-0.338867
210.0	5.818271	1.53156	8.038269	-0.005734	0.00946	-0.017302	-0.656982	0.031006	-0.334229
211.0	5.799296	1.561656	8.04011	-0.006916	0.012817	-0.01853	-0.656982	0.033203	-0.334229
212.0	5.815798	1.532751	8.039831	-0.005596	0.011996	-0.021362	-0.656982	0.031006	-0.331787
213.0	5.829253	1.541641	8.05828	-0.005451	0.011774	-0.017261	-0.659424	0.037598	-0.338867
214.0	5.774445	1.550044	8.066279	-0.004333	0.012699	-0.01775	-0.656982	0.031006	-0.336426
215.0	5.800594	1.569628	8.00176	-0.004617	0.01038	-0.017799	-0.654785	0.033203	-0.332031
216.0	5.825734	1.543684	8.060434	-0.004414	0.008633	-0.020144	-0.65918	0.031006	-0.336426
217.0	5.790497	1.544167	8.055856	-0.006083	0.011416	-0.019077	-0.661133	0.028809	-0.338623
218.0	5.80875	1.537047	8.044105	0.001667	0.011078	-0.016718	-0.661133	0.028809	-0.336426
219.0	5.802859	1.55402	8.074898	-0.00657	0.01084	-0.016785	-0.661133	0.026611	-0.338623
220.0	5.821289	1.546808	8.063046	-0.000995	0.007125	-0.019898	-0.654785	0.028809	-0.338623
221.0	5.787752	1.56898	8.046999	-0.004618	0.010372	-0.01781	-0.654785	0.028809	-0.336426
222.0	5.819284	1.548415	8.064185	-0.002317	0.007942	-0.017071	-0.65918	0.031006	-0.338623
223.0	5.805323	1.562494	8.035633	-0.003434	0.007015	-0.016585	-0.654785	0.028809	-0.336426
224.0	5.786526	1.511755	8.041204	-0.007833	0.010126	-0.020413	-0.663574	0.031006	-0.336426
225.0	5.803419	1.563812	8.036752	-0.003228	0.005268	-0.018932	-0.661133	0.028809	-0.341064
226.0	5.77987	1.529384	8.072395	-0.002243	0.012001	-0.014686	-0.656982	0.031006	-0.341064
227.0	5.814602	1.551996	8.066873	-0.003228	0.005266	-0.018935	-0.656738	0.028809	-0.334229
228.0	5.800775	1.565973	8.03824	-0.00329	0.006792	-0.012484	-0.656738	0.026611	-0.338623
229.0	5.783734	1.536823	8.032341	-0.002948	0.007582	-0.018891	-0.656982	0.031006	-0.338623
230.0	5.79918	1.567422	8.039109	-0.004344	0.004336	-0.018452	-0.65918	0.031006	-0.334229
231.0	5.810005	1.533343	8.079838	-0.001482	0.006544	-0.017617	-0.657227	0.0354	-0.338867
232.0	5.797554	1.569037	8.039966	-0.003156	0.009324	-0.016551	-0.656738	0.028809	-0.336426
233.0	5.780484	1.539909	8.034089	-0.005811	0.005369	-0.019734	-0.658936	0.026611	-0.34082
234.0	5.794258	1.548849	8.052289	-0.003156	0.009322	-0.016554	-0.656738	0.024414	-0.333984
235.0	5.793293	1.549522	8.052854	-0.004902	0.008039	-0.017879	-0.65918	0.033203	-0.336426
236.0	5.798933	1.555552	8.011815	-0.00546	0.003403	-0.017974	-0.656982	0.033203	-0.336426
237.0	5.8064	1.559	8.071429	-0.00637	0.009072	-0.01916	-0.654785	0.031006	-0.334229
238.0	5.811885	1.56489	8.030533	-0.006506	0.006536	-0.015098	-0.658936	0.026611	-0.333984
239.0	5.79012	1.551702	8.054716	-0.005181	0.005718	-0.017932	-0.661133	0.024414	-0.338623
240.0	5.808764	1.544332	8.042811	-0.006858	0.008496	-0.016866	-0.663574	0.033203	-0.336426
241.0	5.788238	1.552658	8.055884	-0.00658	0.010813	-0.016821	-0.658936	0.026611	-0.331787
242.0	5.792143	1.537236	8.026312	-0.00274	0.005827	-0.021257	-0.658936	0.028809	-0.331787
243.0	5.820512	1.554461	8.062246	-0.006229	0.008848	-0.015059	-0.654785	0.028809	-0.331787
244.0	5.786886	1.576195	8.046249	-0.005256	0.009992	-0.019659	-0.65918	0.031006	-0.334229
245.0	5.790731	1.560516	8.01678	-0.008813	0.008951	-0.015854	-0.661377	0.033203	-0.338867
246.0	5.802897	1.547741	8.04639	-0.00295	0.007568	-0.018917	-0.65918	0.033203	-0.332031
247.0	5.802015	1.548298	8.046919	-0.007346	0.007915	-0.014578	-0.65918	0.033203	-0.338867
248.0	5.802575	1.570281	8.036212	-0.005744	0.009416	-0.017366	-0.654785	0.028809	-0.334229
249.0	5.798634	1.527622	8.059409	-0.005391	0.007453	-0.015601	-0.654785	0.033203	-0.336426
250.0	5.799294	1.549677	8.048615	-0.005392	0.007453	-0.015602	-0.65918	0.033203	-0.336426
251.0	5.812997	1.558431	8.0669	-0.007488	0.008128	-0.018698	-0.65918	0.031006	-0.336426
252.0	5.763327	1.549928	8.044482	-0.010142	0.009758	-0.013031	-0.65918	0.031006	-0.331787
253.0	5.81748	1.564295	8.026783	-0.00686	0.008482	-0.016887	-0.654785	0.028809	-0.334229
254.0	5.795556	1.550833	8.051084	-0.010558	0.007655	-0.017197	-0.661377	0.033203	-0.334229
255.0	5.796128	1.572683	8.040393	-0.006232	0.008837	-0.015076	-0.654785	0.028809	-0.334229
256.0	5.814706	1.565229	8.028611	-0.006232	0.008836	-0.015077	-0.65918	0.033203	-0.338867
257.0	5.812278	1.54404	8.040513	-0.00686	0.008479	-0.016893	-0.65918	0.031006	-0.334229
258.0	5.79679	1.535992	8.02338	-0.009303	0.008363	-0.013574	-0.663574	0.031006	-0.336426
259.0	5.820162	1.568885	8.089563	-0.007134	0.00616	-0.016943	-0.65918	0.031006	-0.336426
260.0	5.795093	1.536257	8.024555	-0.011473	0.010563	-0.010208	-0.656738	0.028809	-0.336426
261.0	5.810214	1.566266	8.031659	-0.006647	0.006732	-0.019248	-0.656738	0.028809	-0.331787
262.0	5.807799	1.545153	8.043535	-0.008329	0.009505	-0.018183	-0.65918	0.031006	-0.336426
263.0	5.787264	1.553332	8.056565	-0.006234	0.008831	-0.015086	-0.657227	0.0354	-0.343262
264.0	5.820472	1.554247	8.062501	-0.005393	0.007443	-0.015621	-0.654541	0.024658	-0.338623
265.0	5.805011	1.546301	8.045328	-0.008817	0.008928	-0.015886	-0.656982	0.031006	-0.336426
266.0	5.783102	1.532882	8.069564	-0.006646	0.006727	-0.019256	-0.65918	0.033203	-0.338867
267.0	5.804664	1.5687	8.035197	-0.008818	0.008926	-0.01589	-0.661133	0.028809	-0.338623
268.0	5.816916	1.555918	8.064745	-0.003222	0.00524	-0.018995	-0.656982	0.031006	-0.336426
269.0	5.817534	1.578078	8.053962	-0.004983	0.00954	-0.011461	-0.665527	0.026611	-0.336426
270.0	5.766535	1.547912	8.042682	-0.00735	0.007894	-0.01461	-0.654785	0.028809	-0.338623
271.0	5.794806	1.564835	8.078739	-0.007134	0.006149	-0.016962	-0.654785	0.028809	-0.334229
272.0	5.78588	1.562499	8.020081	-0.006863	0.008465	-0.016916	-0.66333	0.028809	-0.338623
273.0	5.812658	1.557853	8.067441	-0.005882	0.006862	-0.01333	-0.66333	0.026611	-0.336426
274.0	5.797302	1.549777	8.050215	-0.010559	0.00763	-0.017232	-0.661133	0.026611	-0.34082
275.0	5.81606	1.542386	8.038355	-0.004551	0.006049	-0.016169	-0.654541	0.026855	-0.336426
276.0	5.790507	1.56656	8.081487	-0.007924	0.011591	-0.014038	-0.652588	0.033203	-0.338867
277.0	5.796078	1.572466	8.040657	-0.00629	0.004758	-0.017504	-0.654785	0.031006	-0.341064
278.0	5.779397	1.54279	8.034615	-0.011048	0.007051	-0.014936	-0.658936	0.028809	-0.334229
279.0	5.794566	1.572847	8.041672	-0.005882	0.006858	-0.013337	-0.661621	0.0354	-0.332031
280.0	5.797472	1.535381	8.023264	-0.010204	0.005664	-0.015472	-0.658936	0.026611	-0.331787
281.0	5.772054	1.559283	8.066322	-0.006727	0.008242	-0.012806	-0.658936	0.028809	-0.331787
282.0	5.811854	1.565588	8.030865	-0.010204	0.005662	-0.015475	-0.658936	0.026611	-0.336426
283.0	5.825523	1.573963	8.049251	-0.011405	0.009005	-0.016714	-0.652588	0.028809	-0.334229
284.0	5.789121	1.551766	8.055718	-0.011049	0.007045	-0.014945	-0.66333	0.028809	-0.338623
285.0	5.768682	1.559348	8.068721	-0.010643	0.009145	-0.010775	-0.650391	0.033203	-0.334229
286.0	5.804824	1.602919	8.05227	-0.01265	0.005537	-0.012159	-0.65918	0.033203	-0.338867
287.0	5.785395	1.52929	8.068787	-0.016077	0.007015	-0.01243	-0.65918	0.031006	-0.338623
288.0	5.791171	1.534633	8.027956	-0.009579	0.006016	-0.013664	-0.661377	0.033203	-0.334229
289.0	5.819511	1.551236	8.064033	-0.011317	0.004724	-0.015001	-0.661377	0.031006	-0.336426
290.0	5.804351	1.542758	8.046742	-0.010288	0.007182	-0.009009	-0.658936	0.028809	-0.338623
291.0	5.805015	1.564444	8.036032	-0.007134	0.006137	-0.01699	-0.65918	0.031006	-0.334229
292.0	5.786116	1.593785	8.037666	-0.012026	0.005889	-0.010348	-0.655029	0.0354	-0.332031
293.0	5.789145	1.555829	8.019282	-0.014745	0.006198	-0.015278	-0.654785	0.028809	-0.338623
294.0	5.834196	1.521138	8.065586	-0.013496	0.006913	-0.011638	-0.658936	0.028809	-0.341064
295.0	5.820329	1.534121	8.03718	-0.012383	0.007845	-0.012123	-0.654785	0.031006	-0.334229
296.0	5.798464	1.519809	8.061452	-0.013229	0.009228	-0.011592	-0.658936	0.028809	-0.338623
297.0	5.779281	1.548751	8.063359	-0.011492	0.010518	-0.010256	-0.656982	0.031006	-0.331787
298.0	5.817529	1.532985	8.039424	-0.015812	0.009317	-0.0124	-0.661377	0.033203	-0.341064
299.0	5.782567	1.531974	8.034664	-0.013632	0.007126	-0.015773	-0.661377	0.031006	-0.336426
300.0	5.781772	1.531952	8.03524	-0.008467	0.006942	-0.014164	-0.656982	0.033203	-0.336426
301.0	5.811364	1.570366	8.060181	-0.006997	0.005916	-0.012876	-0.656982	0.031006	-0.338623
302.0	5.778936	1.510515	8.047449	-0.010426	0.007389	-0.01315	-0.661133	0.028809	-0.338623
303.0	5.808506	1.548851	8.072421	-0.007621	0.005557	-0.0147	-0.654785	0.028809	-0.338623
304.0	5.799896	1.546416	8.013667	-0.010204	0.005647	-0.015508	-0.658936	0.028809	-0.334229
305.0	5.808536	1.570652	8.062163	-0.010692	0.00507	-0.013204	-0.654785	0.031006	-0.336426
306.0	5.811567	1.532822	8.043766	-0.013232	0.009216	-0.011606	-0.658691	0.022461	-0.336182
307.0	5.810729	1.532779	8.044379	-0.005885	0.006847	-0.013365	-0.658936	0.024414	-0.34082
308.0	5.81131	1.554497	8.033747	-0.013633	0.007115	-0.015788	-0.650391	0.031006	-0.336426
309.0	5.814303	1.516605	8.015395	-0.014969	0.00792	-0.012951	-0.659424	0.0354	-0.334229
310.0	5.827989	1.5247	8.033829	-0.00958	0.006001	-0.013694	-0.661133	0.028809	-0.336426
311.0	5.807653	1.532255	8.046701	-0.012163	0.006088	-0.014503	-0.656738	0.028809	-0.338623
312.0	5.808265	1.553893	8.036065	-0.007845	0.007292	-0.012355	-0.661377	0.033203	-0.336426
313.0	5.819063	1.518863	8.076939	-0.011634	0.010719	-0.014405	-0.661377	0.033203	-0.338867
314.0	5.819507	1.5403	8.066464	-0.014122	0.006532	-0.013493	-0.65918	0.031006	-0.32959
315.0	5.804122	1.531828	8.049329	-0.010523	0.011652	-0.01489	-0.65918	0.033203	-0.338867
316.0	5.804284	1.553298	8.039056	-0.014442	0.012543	-0.012862	-0.654785	0.031006	-0.336426
317.0	5.81632	1.539773	8.068863	-0.009939	0.007953	-0.015477	-0.658936	0.028809	-0.334229
318.0	5.835091	1.532265	8.057137	-0.009316	0.00831	-0.013654	-0.65918	0.031006	-0.334229
319.0	5.800045	1.531618	8.052307	-0.009676	0.010267	-0.015429	-0.654785	0.031006	-0.336426
320.0	5.798992	1.531842	8.053023	-0.007716	0.009821	-0.016446	-0.656738	0.026611	-0.338623
321.0	5.8177	1.5246	8.041302	-0.007979	0.007504	-0.016499	-0.656738	0.028809	-0.336426
322.0	5.811504	1.540768	8.072143	-0.007094	0.010177	-0.014624	-0.661133	0.026611	-0.336426
323.0	5.783125	1.546255	8.025809	-0.004548	0.006036	-0.016223	-0.656982	0.031006	-0.336426
324.0	5.81504	1.525943	8.042972	-0.004908	0.007992	-0.017999	-0.65918	0.031006	-0.336426
325.0	5.801025	1.539718	8.014549	-0.008207	0.009238	-0.014147	-0.656738	0.026611	-0.333984
326.0	5.793484	1.534195	8.056539	-0.006868	0.008435	-0.016988	-0.654785	0.031006	-0.336426
327.0	5.827926	1.556997	8.051551	-0.009451	0.008518	-0.017802	-0.656982	0.031006	-0.338623
328.0	5.786388	1.550629	8.08795	-0.009091	0.00656	-0.016029	-0.656982	0.033203	-0.345703
329.0	5.790851	1.535032	8.058272	-0.00798	0.007496	-0.016511	-0.656982	0.033203	-0.334229
330.0	5.823979	1.53625	8.064415	-0.005758	0.009367	-0.017475	-0.65918	0.031006	-0.334229
331.0	5.795532	1.541712	8.018138	-0.005005	0.009508	-0.011516	-0.658936	0.028809	-0.338623
332.0	5.802453	1.544443	8.077949	-0.009712	0.006197	-0.017862	-0.656738	0.028809	-0.334229
333.0	5.806927	1.528754	8.048297	-0.00932	0.008294	-0.013677	-0.659424	0.0354	-0.338867
334.0	5.805978	1.529024	8.048931	-0.005137	0.009724	-0.015654	-0.661133	0.028809	-0.334229
335.0	5.791914	1.54275	8.020553	-0.00883	0.008869	-0.015989	-0.654785	0.033203	-0.341064
336.0	5.804049	1.529814	8.050172	-0.004908	0.007984	-0.018017	-0.66333	0.028809	-0.338623
337.0	5.804356	1.551862	8.039689	-0.009061	0.010605	-0.013632	-0.661377	0.031006	-0.338623
338.0	5.816375	1.538719	8.069431	-0.008341	0.009443	-0.018302	-0.661133	0.028809	-0.334229
339.0	5.781309	1.538192	8.064518	-0.008831	0.008864	-0.015995	-0.65918	0.033203	-0.336426
340.0	5.799987	1.531251	8.052826	-0.002687	0.009856	-0.018984	-0.661621	0.0354	-0.336426
341.0	5.79229	1.525948	8.094828	-0.007101	0.010159	-0.014651	-0.652588	0.033203	-0.343262
342.0	5.831952	1.533094	8.059733	-0.005759	0.009357	-0.017494	-0.65918	0.033203	-0.332031
343.0	5.798202	1.554543	8.043611	-0.004908	0.007978	-0.018028	-0.65918	0.031006	-0.341064
344.0	5.79727	1.555085	8.044178	-0.00687	0.008417	-0.017017	-0.658936	0.028809	-0.336426
345.0	5.814735	1.526519	8.043565	-0.003798	0.008914	-0.018512	-0.661133	0.028809	-0.334229
346.0	5.808352	1.54298	8.074395	-0.00576	0.009353	-0.017501	-0.658936	0.028809	-0.341064
347.0	5.77459	1.564405	8.058264	-0.004908	0.007974	-0.018035	-0.661377	0.031006	-0.334229
348.0	5.790759	1.514174	8.068787	-0.004031	0.010649	-0.016155	-0.661377	0.031006	-0.338623
349.0	5.797708	1.542358	8.016924	-0.006018	0.007034	-0.017558	-0.65918	0.031006	-0.336426
350.0	5.790176	1.537037	8.058781	-0.004908	0.007971	-0.01804	-0.654785	0.033203	-0.338867
351.0	5.789349	1.537677	8.059253	-0.005166	0.005655	-0.018093	-0.661377	0.033203	-0.334229
352.0	5.823832	1.560926	8.054233	-0.004909	0.007969	-0.018043	-0.656982	0.031006	-0.338623
353.0	5.807334	1.531531	8.047957	-0.004909	0.007968	-0.018045	-0.656738	0.028809	-0.338623
354.0	5.786538	1.539546	8.060916	-0.004887	0.01202	-0.015632	-0.65918	0.031006	-0.338623
355.0	5.78538	1.540162	8.061629	-0.005272	0.00992	-0.019827	-0.65918	0.031006	-0.343262
356.0	5.78446	1.54081	8.062165	-0.004546	0.006011	-0.016271	-0.65918	0.033203	-0.336426
357.0	5.803323	1.533981	8.050383	-0.006382	0.00898	-0.019351	-0.654785	0.033203	-0.336426
358.0	5.802313	1.534699	8.050975	-0.004419	0.008541	-0.020365	-0.65918	0.033203	-0.332031
359.0	5.816799	1.565484	8.05843	-0.004036	0.010638	-0.016172	-0.654785	0.031006	-0.336426
360.0	5.819957	1.528704	8.039928	-0.0038	0.0089	-0.018537	-0.657227	0.0354	-0.338867
361.0	5.779588	1.544185	8.065013	-0.004546	0.006006	-0.016279	-0.656982	0.031006	-0.334229
362.0	5.812758	1.545766	8.071171	-0.007001	0.008611	-0.021192	-0.657227	0.0354	-0.336426
363.0	5.777737	1.5454	8.066106	-0.003674	0.008681	-0.014398	-0.661133	0.028809	-0.334229
364.0	5.816342	1.531349	8.04204	-0.003565	0.007158	-0.020907	-0.654785	0.033203	-0.336426
365.0	5.782555	1.552824	8.025843	-0.005765	0.009331	-0.017534	-0.654785	0.028809	-0.336426
366.0	5.807816	1.526723	8.084435	-0.005164	0.00564	-0.018119	-0.663574	0.033203	-0.336426
367.0	5.780809	1.554088	8.026856	-0.003184	0.009255	-0.016716	-0.65918	0.031006	-0.334229
368.0	5.794083	1.563199	8.045383	-0.003802	0.008892	-0.01855	-0.65918	0.031006	-0.338623
369.0	5.786511	1.557898	8.087202	-0.004546	0.005999	-0.016291	-0.663574	0.031006	-0.331787
370.0	5.809708	1.513717	8.056275	-0.003185	0.009253	-0.01672	-0.65918	0.031006	-0.336426
371.0	5.812368	1.579715	8.02353	0.000252	0.007804	-0.016431	-0.658936	0.028809	-0.336426
372.0	5.789285	1.544373	8.0585	-0.007493	0.008021	-0.018899	-0.656738	0.028809	-0.338623
373.0	5.808083	1.53754	8.046826	-0.005767	0.009322	-0.017547	-0.656982	0.031006	-0.336426
374.0	5.807064	1.538095	8.047456	-0.005767	0.009321	-0.017549	-0.656738	0.028809	-0.338623
375.0	5.772054	1.537633	8.042362	-0.004294	0.008308	-0.016248	-0.654785	0.033203	-0.341064
376.0	5.806403	1.560989	8.037482	-0.006636	0.006641	-0.019438	-0.656982	0.031006	-0.338623
377.0	5.805524	1.561586	8.038001	-0.004295	0.008306	-0.016251	-0.65918	0.031006	-0.334229
378.0	5.789218	1.532071	8.031636	-0.006637	0.006639	-0.019442	-0.65918	0.031006	-0.341064
379.0	5.815751	1.527711	8.079094	-0.004546	0.00599	-0.016305	-0.658936	0.028809	-0.331787
380.0	5.801938	1.541489	8.050503	-0.005895	0.006786	-0.013461	-0.654541	0.026855	-0.336426
381.0	5.781357	1.549369	8.063231	-0.004672	0.006202	-0.020458	-0.656982	0.031006	-0.336426
382.0	5.821253	1.55719	8.028102	-0.004913	0.007939	-0.018093	-0.656738	0.028809	-0.336426
383.0	5.793802	1.559114	8.082225	-0.004297	0.008301	-0.016259	-0.656982	0.031006	-0.341064
384.0	5.813842	1.574185	8.059424	-0.005529	0.007573	-0.019932	-0.656982	0.031006	-0.338623
385.0	5.817153	1.537483	8.040913	-0.00503	0.012201	-0.019831	-0.654785	0.033203	-0.332031
386.0	5.776495	1.552915	8.066033	-0.001474	0.006492	-0.017806	-0.65918	0.031006	-0.336426
387.0	5.815264	1.539183	8.041954	-0.002332	0.007865	-0.017276	-0.658936	0.026611	-0.34082
388.0	5.781372	1.560438	8.025776	-0.00663	0.010679	-0.017041	-0.654785	0.031006	-0.334229
389.0	5.812141	1.518696	8.054212	-0.004055	0.006558	-0.018636	-0.656982	0.031006	-0.338623
390.0	5.806816	1.556827	8.073875	-0.004914	0.00793	-0.018107	-0.656982	0.033203	-0.338867
391.0	5.805954	1.557612	8.074343	-0.001474	0.006489	-0.017813	-0.656738	0.024414	-0.333984
392.0	5.803998	1.536605	8.085857	-0.006021	0.006986	-0.017631	-0.656982	0.031006	-0.336426
393.0	5.797945	1.578411	8.004931	-0.002949	0.007496	-0.019122	-0.65918	0.031006	-0.338623
394.0	5.809016	1.544035	8.045539	-0.005406	0.007349	-0.015797	-0.661133	0.028809	-0.331787
395.0	5.788301	1.551732	8.058348	-0.006265	0.00872	-0.015268	-0.658936	0.024414	-0.333984
396.0	5.807202	1.544988	8.046665	-0.004915	0.007924	-0.018117	-0.661133	0.026611	-0.333984
397.0	5.786442	1.552792	8.059479	-0.006881	0.008354	-0.017108	-0.654785	0.028809	-0.334229
398.0	5.785597	1.553247	8.059998	-0.007743	0.005673	-0.018999	-0.654785	0.033203	-0.338867
399.0	5.805806	1.568266	8.037127	-0.004547	0.005972	-0.016335	-0.656738	0.026611	-0.333984
400.0	5.823736	1.539736	8.03642	-0.007988	0.007408	-0.016634	-0.656738	0.028809	-0.341064
401.0	5.804111	1.569072	8.038193	-0.006267	0.008715	-0.015276	-0.65918	0.031006	-0.336426
402.0	5.802114	1.547763	8.049802	-0.005407	0.007342	-0.015808	-0.650391	0.029053	-0.336426
403.0	5.788249	1.561531	8.021236	-0.007128	0.006033	-0.017169	-0.658936	0.028809	-0.338623
404.0	5.820323	1.54139	8.038575	-0.006268	0.008712	-0.01528	-0.656738	0.026611	-0.34082
405.0	5.813668	1.557516	8.069438	-0.005776	0.009288	-0.0176	-0.658936	0.026611	-0.333984
406.0	5.785497	1.562947	8.022945	-0.006022	0.006973	-0.017653	-0.654785	0.028809	-0.338623
407.0	5.818672	1.564566	8.029244	-0.007375	0.007766	-0.014806	-0.658936	0.028809	-0.338623
408.0	5.816735	1.543226	8.04082	-0.006022	0.006971	-0.017656	-0.656982	0.031006	-0.341064
409.0	5.781883	1.54254	8.035545	-0.006022	0.00697	-0.017658	-0.656738	0.026611	-0.333984
410.0	5.801995	1.557538	8.012782	-0.00418	0.008067	-0.01214	-0.658936	0.028809	-0.338623
411.0	5.79432	1.551859	8.054626	-0.007497	0.007974	-0.01897	-0.656982	0.031006	-0.341064
412.0	5.780394	1.565493	8.026127	-0.008481	0.006818	-0.014335	-0.658936	0.028809	-0.336426
413.0	5.806821	1.56107	8.07368	-0.004055	0.00654	-0.018673	-0.656738	0.028809	-0.334229
414.0	5.791785	1.553148	8.0562	-0.009465	0.008398	-0.017967	-0.65918	0.031006	-0.341064
415.0	5.791901	1.575122	8.045814	-0.008238	0.009129	-0.014287	-0.658936	0.026611	-0.336426
416.0	5.7909	1.575373	8.046486	-0.007746	0.009705	-0.016608	-0.656982	0.031006	-0.331787
417.0	5.794528	1.53834	8.027943	-0.007747	0.009704	-0.01661	-0.654785	0.028809	-0.341064
418.0	5.803134	1.584449	8.065756	-0.00762	0.005442	-0.014874	-0.656982	0.031006	-0.334229
419.0	5.758839	1.537434	8.02328	-0.014014	0.008878	-0.0178	-0.652588	0.033203	-0.336426
420.0	5.801419	1.584629	8.066954	-0.005902	0.006751	-0.013514	-0.656738	0.026611	-0.34082
421.0	5.805416	1.547161	8.04824	-0.014628	0.005773	-0.011375	-0.65918	0.033203	-0.341064
422.0	5.784876	1.554152	8.060969	-0.007007	0.005806	-0.013038	-0.656982	0.033203	-0.334229
423.0	5.770116	1.545788	8.043376	-0.011306	0.004553	-0.015237	-0.654785	0.031006	-0.32959
424.0	5.79042	1.560514	8.020573	-0.00762	0.005438	-0.014882	-0.65918	0.033203	-0.338867
425.0	5.802702	1.547128	8.050203	-0.013282	0.009026	-0.011806	-0.65918	0.033203	-0.338867
426.0	5.788834	1.560304	8.021758	-0.010201	0.005495	-0.015719	-0.656982	0.031006	-0.338623
427.0	5.802201	1.568653	8.040358	-0.01242	0.007654	-0.01234	-0.656982	0.031006	-0.338623
428.0	5.814462	1.555045	8.070044	-0.01242	0.007654	-0.012341	-0.655029	0.0354	-0.334229
429.0	5.800551	1.568283	8.041621	-0.009959	0.007807	-0.015671	-0.661377	0.033203	-0.336426
430.0	5.784567	1.538008	8.035187	-0.013033	0.007285	-0.014187	-0.65918	0.031006	-0.336426
431.0	5.797816	1.546146	8.053912	-0.013284	0.009019	-0.011815	-0.658936	0.026611	-0.333984
432.0	5.791155	1.561367	8.084867	-0.012421	0.007649	-0.012347	-0.657227	0.0354	-0.341064
433.0	5.816015	1.538506	8.043023	-0.011928	0.008227	-0.01467	-0.656738	0.026611	-0.333984
434.0	5.79522	1.545503	8.055903	-0.011928	0.008226	-0.014671	-0.661133	0.028809	-0.338623
435.0	5.814299	1.538423	8.044279	-0.008484	0.006801	-0.014367	-0.658936	0.028809	-0.336426
436.0	5.794561	1.567569	8.046078	-0.006275	0.008691	-0.015322	-0.656982	0.031006	-0.334229
437.0	5.792683	1.546053	8.057622	-0.008484	0.006799	-0.01437	-0.661377	0.031006	-0.336426
438.0	5.79183	1.546319	8.058185	-0.006275	0.00869	-0.015324	-0.656738	0.026611	-0.338623
439.0	5.790884	1.546621	8.058806	-0.008856	0.008744	-0.016163	-0.656982	0.031006	-0.336426
440.0	5.810923	1.561678	8.036195	-0.00541	0.007321	-0.015857	-0.654785	0.028809	-0.338623
441.0	5.789102	1.547405	8.059936	-0.006276	0.008687	-0.015329	-0.656982	0.033203	-0.334229
442.0	5.794057	1.532236	8.030229	-0.007991	0.007373	-0.016699	-0.656982	0.031006	-0.336426
443.0	5.82225	1.571612	8.055963	-0.000129	0.009736	-0.018298	-0.656738	0.028809	-0.334229
444.0	5.825078	1.514089	8.048062	0.010329	0.007996	-0.021488	-0.658936	0.026611	-0.336426
445.0	5.82338	1.637437	8.124317	0.035626	0.013663	-0.016636	-0.65918	0.031006	-0.338623
446.0	5.833935	1.463282	8.099538	0.015252	0.00557	-0.019871	-0.654785	0.028809	-0.341064
447.0	5.859024	1.445741	8.056685	0.077338	0.004179	-0.025299	-0.654785	0.028809	-0.336426
448.0	5.790584	1.591787	8.109129	0.048816	0.006277	-0.027992	-0.656738	0.028809	-0.338623
449.0	5.765368	1.521334	8.064421	0.051632	0.008529	-0.027117	-0.654785	0.031006	-0.334229
450.0	5.798016	1.531924	7.969454	0.042905	0.007528	-0.024993	-0.658936	0.024414	-0.34082
451.0	6.012856	1.509706	8.044982	0.025905	0.014214	-0.0182	-0.658936	0.028809	-0.338623
452.0	5.726028	1.77641	8.209503	0.091907	0.016018	-0.023279	-0.658936	0.028809	-0.341064
453.0	6.034336	1.762053	8.143096	0.024976	0.030441	-0.018724	-0.658936	0.026611	-0.343262
454.0	5.898487	1.563325	7.947973	0.078341	0.050817	-0.014102	-0.658936	0.026611	-0.336426
455.0	5.875282	1.713193	8.226803	0.088719	0.035717	-0.009753	-0.654785	0.028809	-0.338623
456.0	5.829693	1.551996	8.109549	0.07085	0.046478	-0.010761	-0.658936	0.028809	-0.336426
457.0	5.876137	1.61369	8.112239	0.113667	0.035171	-0.011657	-0.654541	0.024658	-0.343262
458.0	5.776241	1.580686	8.075742	0.09094	0.033476	-0.013248	-0.656738	0.024658	-0.336426
459.0	5.705013	1.588653	7.963987	0.08243	0.041536	-0.016988	-0.656494	0.022461	-0.333984
460.0	5.718216	1.787832	8.124246	0.084247	0.017168	-0.011083	-0.658936	0.026611	-0.338623
461.0	5.690342	1.675284	8.00274	0.011167	0.030643	-0.003514	-0.654541	0.024658	-0.34082
462.0	5.717943	1.594317	7.954437	0.014351	0.030966	-0.000841	-0.652344	0.024658	-0.34082
463.0	5.604668	1.690867	7.863763	0.023215	0.027692	-0.001232	-0.654541	0.024658	-0.336426
464.0	5.634335	1.646087	7.994349	-0.022142	0.028248	0.002278	-0.658691	0.022461	-0.338623
465.0	5.688618	1.682312	7.967445	-0.01274	0.01474	0.003068	-0.652588	0.028809	-0.336426
466.0	5.784906	1.74127	8.095202	-0.024103	0.021931	0.009187	-0.654297	0.022461	-0.345459
467.0	5.802723	1.712001	7.995489	-0.048052	0.01683	0.012259	-0.652344	0.024658	-0.34082
468.0	6.087429	1.744937	8.253784	-0.021555	0.025927	0.012419	-0.650146	0.026855	-0.34082
469.0	5.804528	1.542971	8.006958	-0.054367	0.049554	0.015417	-0.647949	0.026855	-0.336426
470.0	5.643016	1.496918	8.02034	-0.016867	0.046651	0.013575	-0.654541	0.024658	-0.338623
471.0	5.717727	1.712391	8.024011	0.000287	0.035682	0.008581	-0.656738	0.028809	-0.341064
472.0	5.613242	1.70529	8.008137	-0.050466	0.034021	0.010278	-0.654541	0.024658	-0.336426
473.0	5.61044	1.536223	7.95782	-0.05335	0.02115	0.008717	-0.652344	0.026855	-0.343262
474.0	5.677044	1.534737	7.971828	-0.044619	0.015374	0.012477	-0.652344	0.026855	-0.343262
475.0	5.67519	1.652223	8.047995	-0.023915	0.002801	0.011996	-0.652588	0.029053	-0.338623
476.0	6.542244	1.810404	8.655433	0.013221	-0.004897	0.014322	-0.656738	0.028809	-0.338623
477.0	6.407815	1.714763	8.244778	-0.016124	0.062991	-0.000537	-0.652344	0.026855	-0.34082
478.0	5.989522	1.610048	8.220607	0.017487	0.101037	0.00233	-0.652344	0.026855	-0.34082
479.0	5.611158	1.80625	8.08847	0.021269	0.108449	0.000911	-0.652344	0.026855	-0.345459
480.0	5.735522	1.747971	8.152148	0.000581	0.091506	-0.000644	-0.650146	0.026855	-0.345459
481.0	5.798916	1.81681	8.136579	0.01604	0.097909	-0.001515	-0.650146	0.026855	-0.34082
482.0	6.148897	1.694395	8.419966	-0.004832	0.100045	-0.005976	-0.652588	0.033203	-0.345703
483.0	6.073161	1.574613	8.239317	-0.001553	0.14865	-0.029901	-0.647949	0.026855	-0.345459
484.0	6.253212	1.719945	8.592002	0.092504	0.142434	-0.046854	-0.648193	0.029053	-0.3479
485.0	6.629825	1.78162	8.739525	0.074923	0.228067	-0.094407	-0.649902	0.022461	-0.343018
486.0	6.446208	1.546387	8.633292	0.045247	0.308037	-0.111336	-0.645752	0.026855	-0.354736
487.0	6.616155	1.230373	8.79024	0.022894	0.35568	-0.089689	-0.641357	0.022461	-0.350098
488.0	5.980216	1.015979	8.162379	0.015277	0.480156	-0.094414	-0.643555	0.024658	-0.352295
489.0	4.884591	1.345387	7.676168	0.140549	0.428565	-0.093173	-0.63916	0.024658	-0.359131
490.0	4.921211	1.738445	7.949176	0.16492	0.358979	-0.121954	-0.636963	0.024658	-0.354492
491.0	5.093594	1.537135	7.987731	0.111815	0.295005	-0.144554	-0.636719	0.018066	-0.356689
492.0	5.109344	1.354554	7.777604	0.152402	0.288912	-0.162658	-0.634521	0.018311	-0.363525
493.0	4.904838	1.442355	7.789317	0.204109	0.263956	-0.167947	-0.634521	0.016113	-0.363525
494.0	4.288129	1.602871	7.573425	0.189594	0.203343	-0.170441	-0.634521	0.016113	-0.363525
495.0	4.440133	1.779989	7.513884	0.261378	0.024919	-0.19124	-0.63208	0.011719	-0.363525
496.0	5.073901	2.001333	8.092452	0.279718	-0.012294	-0.20824	-0.631836	0.005127	-0.361084
497.0	5.645064	1.609188	8.182978	0.177652	-0.026866	-0.217237	-0.631836	0.005127	-0.361084
498.0	5.36623	1.570594	7.923415	0.251331	0.029508	-0.213026	-0.634033	0.005127	-0.361084
499.0	4.51026	1.847059	7.683505	0.242123	2.3e-05	-0.199437	-0.629639	0.005127	-0.361084
500.0	4.131773	1.897835	7.381208	0.229208	-0.127726	-0.187122	-0.634033	0.007324	-0.361084
501.0	4.317939	1.923095	7.536476	0.237806	-0.24383	-0.184834	-0.633789	0.00293	-0.356445
502.0	4.921539	1.583918	7.813725	0.19314	-0.334747	-0.174944	-0.635742	-0.003662	-0.36084
503.0	5.720532	1.322906	8.336413	0.247869	-0.330512	-0.155781	-0.635742	-0.003662	-0.351807
504.0	5.537018	1.373206	8.191236	0.25428	-0.24746	-0.135877	-0.635742	-0.003662	-0.356201
505.0	4.980035	1.744219	7.65128	0.30052	-0.258598	-0.121569	-0.635742	-0.005859	-0.354004
506.0	4.847867	2.483187	7.291452	0.331589	-0.299839	-0.098627	-0.637451	-0.012451	-0.349365
507.0	6.142948	3.860633	8.108994	0.41021	-0.482095	-0.033769	-0.646484	-0.005859	-0.340332
508.0	7.725191	3.729547	9.768699	-0.133069	-0.186553	0.006844	-0.648438	-0.010254	-0.342529
509.0	4.725889	1.266097	7.2926	-0.593451	-0.113713	0.020638	-0.64209	-0.005859	-0.344971
510.0	5.973612	1.058716	7.835724	0.22234	-0.24135	0.00489	-0.648682	-0.008057	-0.340332
511.0	5.758282	2.833034	8.693017	0.201567	-0.135542	0.025091	-0.648438	-0.010254	-0.344727
512.0	5.685145	2.337786	8.154278	-0.193011	-0.15643	0.023001	-0.644531	-0.003662	-0.344971
513.0	5.852664	2.161754	8.056441	0.003401	-0.137473	0.032009	-0.650879	-0.008057	-0.340332
514.0	5.751021	2.482791	8.223255	-0.042342	-0.128831	0.032156	-0.653076	-0.006104	-0.337891
515.0	6.019472	2.131865	8.412174	-0.104993	-0.114276	0.009091	-0.657471	-0.003906	-0.333496
516.0	5.779147	2.006367	7.992423	-0.069812	-0.070168	0.020421	-0.655273	-0.003906	-0.340332
517.0	5.907294	2.133449	8.225898	-0.005363	-0.084206	0.010276	-0.657227	-0.010498	-0.337891
518.0	5.930632	2.396423	8.097104	-0.035591	-0.043182	0.010237	-0.657471	-0.008301	-0.337891
519.0	5.629818	2.365615	8.040464	-0.067161	-0.044312	0.017856	-0.657471	-0.008301	-0.337891
520.0	5.678462	2.135221	7.993732	-0.099231	-0.039467	0.025945	-0.655273	-0.006104	-0.331055
521.0	5.52799	2.187175	7.944303	-0.053397	-0.052283	0.023242	-0.659424	-0.010498	-0.333252
522.0	5.382957	2.029784	7.871055	-0.113063	-0.073003	0.035914	-0.666016	-0.010498	-0.328857
523.0	5.653557	2.016203	7.870324	-0.076713	-0.070983	0.051525	-0.65918	-0.014893	-0.324219
524.0	5.683845	1.790061	8.033838	-0.124445	-0.082969	0.043347	-0.661621	-0.008301	-0.324219
525.0	5.365026	1.676448	7.633684	-0.086258	-0.063305	0.033046	-0.665283	-0.023682	-0.319336
526.0	5.394691	1.750087	7.87153	0.00752	-0.151188	0.021577	-0.663574	-0.01709	-0.326416
527.0	5.771354	1.733164	7.994141	0.01118	-0.133894	-0.009652	-0.661133	-0.021484	-0.312744
528.0	5.144422	1.602796	7.677476	0.027655	-0.171216	-0.017807	-0.656494	-0.027832	-0.317139
529.0	5.560191	1.700242	7.843379	0.081582	-0.209636	-0.017601	-0.658691	-0.025635	-0.321777
530.0	5.263611	1.611511	7.754945	0.018057	-0.226371	-0.026413	-0.6521	-0.025635	-0.317139
531.0	5.995496	1.526267	8.144041	0.086008	-0.278707	-0.030177	-0.6521	-0.025635	-0.319336
532.0	6.508754	2.077014	8.05152	0.132259	-0.194222	-0.039878	-0.652588	-0.019043	-0.314941
533.0	5.579315	2.498302	7.911405	0.04034	-0.183936	-0.034376	-0.652588	-0.014648	-0.31958
534.0	6.312376	2.498805	8.01033	-0.051584	-0.171099	0.008034	-0.654785	-0.014893	-0.321777
535.0	6.147406	2.556163	7.869881	-0.135377	-0.118567	0.039594	-0.652832	-0.014648	-0.324219
536.0	6.06938	2.647051	7.810349	-0.208972	-0.081542	0.077943	-0.655273	-0.008301	-0.319824
537.0	6.07838	2.556505	7.949121	-0.313737	-0.053393	0.108397	-0.655029	-0.010498	-0.317383
538.0	5.998809	2.271736	7.955571	-0.382482	-0.018171	0.12863	-0.655273	-0.003906	-0.324463
539.0	5.976291	2.256983	8.005815	-0.367225	0.006795	0.13646	-0.653564	0.002686	-0.324463
540.0	5.898889	2.35148	8.007399	-0.418833	0.03906	0.155939	-0.662109	0.000488	-0.322266
541.0	5.948971	2.511871	7.940944	-0.471682	0.063743	0.173189	-0.660156	0.00708	-0.329102
542.0	5.954743	2.584057	8.191107	-0.520419	0.069996	0.193279	-0.658203	0.009277	-0.329102
543.0	6.05857	2.09434	8.177647	-0.638824	0.059049	0.195939	-0.658691	0.022217	-0.327148
544.0	5.896275	1.633526	8.051494	-0.599348	0.054873	0.195166	-0.654297	0.018066	-0.32251
545.0	5.853362	1.303637	8.329323	-0.509748	-0.016398	0.168803	-0.65625	0.015869	-0.324707
546.0	5.760431	1.130728	8.238258	-0.400614	-0.107017	0.14011	-0.660889	0.022217	-0.329346
547.0	5.784612	1.158041	8.361158	-0.277197	-0.181008	0.1122	-0.656494	0.022217	-0.324951
548.0	5.686624	1.028986	8.359532	-0.234982	-0.276528	0.086931	-0.663086	0.022217	-0.32251
549.0	5.793169	1.14723	8.348767	-0.106212	-0.361604	0.067931	-0.665527	0.026611	-0.322754
550.0	5.452662	1.54161	8.469635	-0.016876	-0.466861	0.068724	-0.665527	0.026611	-0.322754
551.0	4.971377	1.446578	9.477778	-0.149513	-0.683553	0.098258	-0.667725	0.031006	-0.309082
552.0	5.631848	1.146801	8.354509	0.058636	-0.927497	0.110417	-0.670166	0.033203	-0.306885
553.0	5.732512	1.185577	8.434478	0.075861	-1.091309	0.122215	-0.678711	0.030762	-0.302246
554.0	5.697517	0.790473	8.500735	0.062025	-1.264903	0.084298	-0.683105	0.028564	-0.288574
555.0	5.789149	0.969063	8.046638	0.241785	-1.414336	0.047136	-0.6875	0.032959	-0.281738
556.0	5.701985	1.503205	8.066197	0.290723	-1.596444	0.046696	-0.69165	0.028564	-0.272461
557.0	5.489605	1.963298	7.927582	0.285792	-1.764589	0.054245	-0.693848	0.026367	-0.256592
558.0	5.719736	1.947379	7.974021	0.159055	-2.011498	0.08184	-0.707275	0.032715	-0.247559
559.0	6.105443	1.831696	7.763809	0.050226	-2.23695	0.148255	-0.708984	0.026123	-0.238281
560.0	6.300571	1.929909	7.777328	0.017001	-2.445687	0.222823	-0.718018	0.030518	-0.220215
561.0	6.118926	2.111725	7.899547	-0.111295	-2.648869	0.33035	-0.722656	0.036865	-0.199707
562.0	6.27305	2.339969	7.502976	-0.200604	-2.939585	0.486452	-0.738037	0.041016	-0.179199
563.0	6.74794	2.390541	7.667902	-0.355355	-3.24064	0.6747	-0.738281	0.04541	-0.165771
564.0	6.777532	2.278212	7.487653	-0.46934	-3.368465	0.869618	-0.747314	0.051758	-0.13623
565.0	7.074283	2.435233	7.945448	-0.640943	-3.390355	1.120038	-0.751953	0.060547	-0.120361
566.0	6.873123	2.251512	7.421811	-0.718557	-3.321704	1.25314	-0.76123	0.071289	-0.0979
567.0	6.767	2.565763	6.983073	-0.578311	-3.711393	1.631546	-0.766357	0.086426	-0.068604
568.0	7.251364	3.042081	7.814101	-0.689935	-4.078872	2.031409	-0.766846	0.099365	-0.043701
569.0	7.320983	2.072031	7.301866	-0.784376	-4.733681	2.297919	-0.769775	0.116699	-0.00293
570.0	7.163598	1.20031	6.965447	-0.452359	-6.230248	2.200772	-0.779053	0.129639	0.0354
571.0	8.432821	1.179533	9.017496	-0.702638	-7.466294	2.258676	-0.777588	0.146973	0.092041
572.0	12.315353	-2.017484	7.882638	-0.763419	-7.850753	2.183717	-0.769531	0.157959	0.14209
573.0	14.620927	-0.457029	7.327662	-0.196487	-7.398452	1.866914	-0.763428	0.173096	0.189697
574.0	18.005377	-0.901576	5.838963	0.052297	-6.898982	1.792993	-0.755615	0.188232	0.230225
575.0	17.133529	-0.104322	5.743988	0.351879	-6.22017	1.677838	-0.740723	0.197021	0.261963
576.0	17.092127	2.236684	8.030288	0.214878	-5.341854	1.516344	-0.727783	0.201416	0.287109
577.0	16.22226	2.19969	4.559941	-1.408255	-6.272827	1.035447	-0.714844	0.205811	0.321045
578.0	18.445148	-1.864627	3.87312	1.084912	-7.036898	1.478936	-0.693604	0.218994	0.345947
579.0	18.609193	0.97318	14.980599	2.338835	-4.858929	1.508446	-0.682861	0.221191	0.345947
580.0	21.872888	0.325321	17.973736	2.326066	-3.024603	1.664492	-0.67041	0.236572	0.336426
581.0	21.595303	7.462332	22.818577	3.395964	-0.566066	1.801107	-0.66626	0.241211	0.292969
582.0	14.514404	13.037808	17.492146	1.947844	2.1728	1.865731	-0.659912	0.245605	0.240479
583.0	7.073138	11.69657	14.318693	0.985619	2.369998	1.604841	-0.64624	0.234863	0.186035
584.0	5.749503	9.491224	11.742233	0.346301	3.173393	1.272432	-0.624023	0.222168	0.131592
585.0	1.823715	7.275144	8.178777	0.144287	3.57539	0.861993	-0.599365	0.209473	0.063477
586.0	1.281388	6.016943	6.562134	0.522272	3.358803	0.355577	-0.561523	0.190186	0.015869
587.0	1.857605	6.642583	6.316498	0.889839	3.484005	-0.161287	-0.512207	0.159912	-0.040527
588.0	2.664177	7.129531	6.010068	0.793522	3.507392	-0.645184	-0.456787	0.138672	-0.092773
589.0	4.199403	7.145493	6.165395	0.655361	3.650695	-1.100378	-0.392578	0.117432	-0.131104
590.0	4.793384	7.042226	6.294504	0.340691	3.880546	-1.501974	-0.304199	0.093994	-0.1604
591.0	5.190367	5.820854	6.108897	-0.026238	4.06395	-1.820978	-0.199219	0.08374	-0.171631
592.0	5.6154	4.448271	5.806425	-0.202762	4.228877	-2.084676	-0.096924	0.088867	-0.151367
593.0	5.855289	2.995957	5.4777	-0.273702	4.353158	-2.302279	0.00708	0.104736	-0.117676
594.0	5.873173	1.544747	4.86783	-0.239927	4.413744	-2.429572	0.091064	0.133301	-0.038574
595.0	5.925872	0.498388	4.506468	-0.007362	4.336382	-2.426315	0.150146	0.174805	0.060791
596.0	6.485159	-0.423767	4.810946	0.23008	4.145746	-2.339305	0.165527	0.222656	0.178467
597.0	7.541909	-1.133295	5.445235	0.496363	4.005175	-2.211483	0.13501	0.270264	0.286865
598.0	8.831546	-1.283006	6.263251	0.813635	3.895014	-2.07013	0.067871	0.308838	0.372803
599.0	10.226505	-0.857712	7.338556	1.004861	3.883414	-1.938135	-0.018799	0.345215	0.433838
600.0	11.122384	-0.331337	7.963162	1.067572	3.940793	-1.857412	-0.114014	0.375244	0.460693
601.0	11.447562	0.232141	8.36317	1.064968	3.986552	-1.858411	-0.223389	0.387695	0.462891
602.0	11.746684	0.526485	8.762852	0.990503	3.99036	-1.933761	-0.314941	0.382568	0.442383
603.0	11.973199	0.694648	9.011242	0.909654	3.988222	-2.062213	-0.395264	0.375732	0.401611
604.0	12.125824	0.692932	9.030902	0.794016	3.947703	-2.200754	-0.453369	0.35791	0.352051
605.0	12.393267	0.739755	9.243778	0.658265	3.904099	-2.279397	-0.510986	0.329346	0.30249
606.0	12.090423	-0.375169	9.4347	0.387495	3.861563	-2.249426	-0.555664	0.302979	0.25293
607.0	12.351816	-1.222499	9.19343	0.580354	3.824469	-2.186518	-0.58252	0.270264	0.201172
608.0	12.260949	-0.508053	9.677085	0.685903	3.751126	-2.024991	-0.607422	0.244141	0.146973
609.0	12.923522	-0.188008	10.004968	0.650875	3.744284	-1.834119	-0.617432	0.220215	0.097412
610.0	13.262676	0.073445	10.176616	0.614799	3.764863	-1.658709	-0.622559	0.191895	0.050049
611.0	13.77861	0.22347	10.120542	0.634694	3.821785	-1.552001	-0.624268	0.176758	0.002441
612.0	14.012653	0.217807	9.878315	0.614651	3.877044	-1.537795	-0.623047	0.152832	-0.040283
613.0	14.080241	-0.031285	9.239935	0.739465	3.881827	-1.539357	-0.62207	0.131104	-0.081055
614.0	13.276422	0.485901	10.127171	0.555595	3.878701	-1.620711	-0.612549	0.109375	-0.119385
615.0	13.718149	-2.539525	8.125602	0.256913	3.835318	-1.680283	-0.60498	0.087646	-0.157471
616.0	13.286479	-3.076406	7.851162	0.638967	3.668498	-1.593265	-0.593262	0.070313	-0.187012
617.0	13.299522	-1.919423	7.561986	0.679116	3.547563	-1.429164	-0.58374	0.055176	-0.216309
618.0	13.043108	-0.547504	7.652008	0.342973	3.332027	-1.272439	-0.574463	0.042236	-0.240967
619.0	12.993794	-0.112148	7.178522	-0.041075	3.163853	-1.261072	-0.564941	0.024902	-0.272705
620.0	12.648622	-0.088253	6.23721	-0.45664	2.953774	-1.321712	-0.55127	0.007568	-0.283691
621.0	12.225582	-0.530993	4.811551	-0.664772	2.77388	-1.342466	-0.541992	-0.000977	-0.306396
622.0	12.286556	-0.385217	3.18697	-0.797184	2.508995	-1.264641	-0.52417	-0.009521	-0.32666
623.0	12.271884	0.040694	1.579835	-0.716327	2.313613	-1.09068	-0.515137	-0.018311	-0.340332
624.0	12.295681	-0.932881	0.839535	-0.764621	2.017468	-0.955817	-0.50415	-0.020264	-0.35376
625.0	12.370552	-3.20274	-1.071497	-0.577017	1.793773	-0.931484	-0.499512	-0.029053	-0.362793
626.0	11.841854	-3.809898	-3.048668	0.432673	1.444766	-0.934838	-0.492676	-0.0354	-0.371826
627.0	11.239677	-1.942588	-3.078654	1.292709	0.878707	-0.870876	-0.485352	-0.050537	-0.378418
628.0	11.519265	0.342194	-2.420127	1.135474	0.267478	-0.744168	-0.480713	-0.059326	-0.373535
629.0	11.444191	0.952425	-2.018888	0.34608	-0.209515	-0.525514	-0.482422	-0.065918	-0.378174
630.0	11.925729	-0.025015	-2.292809	-0.150195	-0.742671	-0.327472	-0.482422	-0.065918	-0.378174
631.0	12.806206	-0.585628	-1.603968	-0.042251	-1.155373	-0.169673	-0.48877	-0.070313	-0.37793
632.0	13.999027	-0.450383	-0.558196	0.168879	-1.456881	-0.07865	-0.499756	-0.07251	-0.368896
633.0	9.400548	2.97333	-1.194517	0.909137	-1.209133	0.186807	-0.503906	-0.076904	-0.361816
634.0	-9.900929	5.869328	-0.793933	-0.379007	-2.088762	0.488845	-0.510742	-0.068359	-0.348389
635.0	-1.489437	7.771657	6.305523	0.690968	-6.634583	0.667191	-0.543213	-0.070801	-0.307129
636.0	24.128962	6.500607	21.744166	-1.183419	-5.65563	0.369252	-0.55249	-0.060059	-0.293701
637.0	10.170019	-2.931205	9.49643	-2.8159	-1.708302	-0.133388	-0.568115	-0.055664	-0.291504
638.0	6.29645	-5.943083	6.713602	-0.357247	-4.206989	0.091253	-0.574463	-0.058105	-0.261963
639.0	17.423806	-0.680966	16.319336	1.503476	-4.28511	0.409722	-0.593994	-0.05835	-0.243652
640.0	17.70161	2.232267	16.978982	-0.430441	-2.921146	0.485995	-0.598389	-0.056152	-0.236816
641.0	12.83137	-1.698719	10.066603	-0.551413	-2.266512	0.583765	-0.607422	-0.051758	-0.220947
642.0	8.479267	-1.021111	9.967099	0.273889	-2.091497	0.659649	-0.614258	-0.047607	-0.211914
643.0	4.917076	1.615111	7.90119	0.263386	-1.894375	0.673965	-0.616211	-0.049805	-0.200439
644.0	4.363083	4.473524	5.953856	0.545334	-2.220057	0.681111	-0.627441	-0.043213	-0.182373
645.0	20.735682	14.059748	15.847647	1.809701	-2.903878	0.946538	-0.63208	-0.036865	-0.171143
646.0	10.016723	9.465442	11.401052	-3.578152	0.571806	0.816095	-0.632813	-0.021484	-0.178223
647.0	1.705866	-5.619681	3.83401	-4.155296	-0.730087	0.927343	-0.633301	-0.010742	-0.173828
648.0	9.030718	-3.473596	3.980116	1.409892	-0.925258	0.691201	-0.635254	-0.015137	-0.171387
649.0	7.373562	8.997236	13.008997	1.341919	-0.424411	0.590792	-0.635498	-0.010742	-0.171631
650.0	5.714276	4.578762	10.355742	-3.049983	-0.514585	0.825904	-0.640381	0.000244	-0.1604
651.0	7.32988	-2.981284	5.939923	-1.816938	-0.369451	0.67781	-0.63623	0.006836	-0.169678
652.0	8.328366	0.828787	8.677959	0.544598	-0.179937	0.37508	-0.640625	0.006836	-0.1604
653.0	5.482404	3.437544	10.858529	-0.660655	-0.162975	0.295514	-0.643066	0.013184	-0.165283
654.0	7.059467	-0.368743	7.526476	-1.156353	-0.119689	0.207144	-0.643311	0.019775	-0.158447
655.0	6.18796	0.119994	7.890219	0.113516	-0.130199	0.054741	-0.643311	0.021973	-0.163086
656.0	6.056622	1.470582	8.981107	-0.147005	-0.159703	-0.026048	-0.638916	0.019775	-0.160889
657.0	6.164297	0.806201	7.700444	-0.136594	-0.18347	-0.080357	-0.638672	0.015381	-0.163086
658.0	6.245356	1.729625	8.00738	0.165979	-0.177139	-0.105749	-0.638672	0.013184	-0.162842
659.0	6.197614	1.473909	7.941529	-0.051655	-0.178374	-0.127521	-0.638916	0.019775	-0.160889
660.0	6.201187	1.404622	7.618858	0.189653	-0.163374	-0.139692	-0.642822	0.008789	-0.153809
661.0	5.736072	1.986322	8.526957	0.204093	-0.165204	-0.14539	-0.640869	0.010986	-0.156006
662.0	5.854575	1.608568	8.207603	0.010108	-0.199331	-0.127497	-0.643066	0.015381	-0.153809
663.0	6.135195	1.851051	7.754189	0.19239	-0.203589	-0.116632	-0.642822	0.010986	-0.153809
664.0	6.149577	2.019204	8.38362	0.059106	-0.190717	-0.11204	-0.645264	0.015381	-0.153809
665.0	6.189602	1.526762	7.652779	0.051933	-0.207947	-0.096559	-0.64502	0.008789	-0.146973
666.0	6.245636	1.784366	8.174987	0.197451	-0.205702	-0.093778	-0.640625	0.008789	-0.14917
667.0	6.093199	1.682997	7.983401	0.096265	-0.209222	-0.095519	-0.640625	0.008789	-0.14917
668.0	6.158048	1.693197	8.000606	0.204297	-0.223495	-0.104322	-0.64502	0.010986	-0.146973
669.0	6.077101	1.81963	7.936745	0.175348	-0.233206	-0.103877	-0.651611	0.008789	-0.142334
670.0	6.136627	1.714762	7.752493	0.179664	-0.238321	-0.104815	-0.64502	0.010986	-0.144531
671.0	6.172819	1.678897	7.782833	0.200194	-0.232485	-0.106707	-0.654053	0.015381	-0.14917
672.0	6.272279	1.858073	7.618317	0.217897	-0.21783	-0.110915	-0.658203	0.013184	-0.142334
673.0	5.984324	2.090947	7.889793	0.181947	-0.171354	-0.103845	-0.658203	0.013184	-0.144775
674.0	6.194558	2.046439	7.520818	0.142488	-0.199208	-0.087482	-0.664795	0.010986	-0.133301
675.0	6.166813	2.22494	7.752213	0.124531	-0.177201	-0.06932	-0.679443	-0.002441	-0.123779
676.0	6.198221	2.224236	7.595691	0.050463	-0.143581	-0.042143	-0.674072	-0.021973	-0.114258
677.0	6.180631	2.015298	7.656321	0.0133	-0.137154	-0.028206	-0.663086	-0.028564	-0.109619
678.0	6.238401	1.973168	7.600424	0.003322	-0.122694	-0.017028	-0.647461	-0.032715	-0.118652
679.0	6.198573	2.017711	7.641165	-0.01269	-0.104814	-0.006753	-0.638916	-0.02832	-0.121094
680.0	6.283282	1.938818	7.684327	-0.030339	-0.10211	0.003119	-0.637207	-0.021729	-0.125732
681.0	6.018757	2.010453	7.785621	-0.052799	-0.07983	-0.003102	-0.637207	-0.017334	-0.123535
682.0	6.149264	1.84028	7.570437	-0.062926	-0.12566	0.018803	-0.639893	-0.008545	-0.123779
683.0	6.099936	1.965571	7.742973	-0.037494	-0.145671	0.030228	-0.639893	-0.008545	-0.130615
684.0	6.110327	1.922155	7.654766	-0.074332	-0.163651	0.039638	-0.646729	-0.002197	-0.130615
685.0	6.086392	1.870372	7.733792	-0.051	-0.194664	0.048784	-0.648682	-0.004395	-0.125977
686.0	6.028091	1.947908	7.804805	-0.034585	-0.227492	0.054637	-0.651367	0.004395	-0.117188
687.0	5.876735	1.936689	7.761505	-0.038813	-0.267279	0.068833	-0.644531	0.0	-0.128418
688.0	5.616789	1.908033	7.817533	0.039736	-0.350791	0.103323	-0.64917	0.002197	-0.117188
689.0	5.833039	2.506799	8.001709	0.103229	-0.426867	0.144048	-0.651367	0.004395	-0.11499
690.0	5.626809	3.134985	8.416666	-0.025799	-0.499172	0.173588	-0.653564	0.004395	-0.112549
691.0	6.21372	1.924281	7.794207	-0.375062	-0.618493	0.207171	-0.653564	0.006592	-0.110352
692.0	5.940002	1.6328	7.971326	-0.04246	-0.732598	0.214656	-0.658203	0.008789	-0.110352
693.0	6.15223	1.740183	8.289215	-0.103626	-0.875409	0.213789	-0.658203	0.012939	-0.099121
694.0	6.030994	1.332684	7.954876	-0.04301	-1.044097	0.207015	-0.654053	0.015137	-0.087646
695.0	6.080106	1.295911	8.081282	0.058114	-1.212057	0.180858	-0.658447	0.015137	-0.080811
696.0	6.114991	1.031512	8.103616	0.03573	-1.422125	0.139425	-0.662598	0.012939	-0.073975
697.0	6.130646	0.942528	8.017399	0.154185	-1.664932	0.074293	-0.656006	0.008545	-0.0625
698.0	6.035447	1.396274	8.185049	0.196644	-1.942847	0.010255	-0.658447	0.017334	-0.05127
699.0	5.113191	1.263489	8.325123	0.08973	-2.261392	-0.015686	-0.666992	0.014893	-0.032959
700.0	5.608504	1.025022	8.026209	0.10697	-2.70219	0.0831	-0.666992	0.012695	-0.010254
701.0	5.400495	1.493107	8.280602	0.246884	-3.063602	0.190198	-0.668945	0.010498	0.001221
702.0	5.982581	2.160656	8.246294	0.264099	-3.485674	0.285528	-0.665039	0.019287	0.030762
703.0	7.179717	3.084498	9.133927	-0.040538	-3.569368	0.555353	-0.667236	0.019043	0.053467
704.0	6.323372	2.890375	8.023723	-0.190234	-3.67457	0.772674	-0.665283	0.025635	0.073975
705.0	6.730933	3.157667	7.567682	0.048677	-4.396169	1.133086	-0.663574	0.031982	0.105713
706.0	6.704886	3.854544	7.975862	0.347528	-5.221109	1.519096	-0.661865	0.042969	0.141846
707.0	6.363196	3.145381	7.932616	0.428397	-6.148271	1.726982	-0.646973	0.051758	0.182861
708.0	5.647061	3.47597	8.754092	0.890763	-7.558578	1.699241	-0.636475	0.0625	0.232666
709.0	7.567187	3.995237	10.162396	0.267194	-8.788768	2.080402	-0.617432	0.075684	0.289307
710.0	13.060494	-1.979332	7.475494	-0.014404	-9.30254	1.96235	-0.591797	0.086426	0.336914
711.0	18.097755	-1.430425	5.461356	1.013657	-8.787391	1.288383	-0.565674	0.091064	0.375488
712.0	20.193584	-1.668166	4.465806	1.604558	-7.863794	0.851354	-0.533447	0.102051	0.423096
713.0	20.107683	1.505824	5.708595	2.104036	-6.877658	0.692906	-0.512207	0.113037	0.450195
714.0	21.337681	5.454462	10.049579	1.081507	-5.993508	0.540057	-0.481445	0.11084	0.482178
715.0	20.905823	3.127896	4.096439	0.84351	-7.418552	0.069132	-0.442627	0.119873	0.511719
716.0	24.108921	0.813944	13.571697	3.154007	-6.231092	1.70592	-0.421875	0.139404	0.524902
717.0	22.215102	1.586155	20.038199	2.437549	-2.000231	2.21788	-0.413818	0.15918	0.529053
718.0	21.186287	2.476333	19.98145	3.268964	-0.870809	2.840645	-0.408691	0.187744	0.519287
719.0	16.237361	11.288244	18.134307	2.849203	2.022792	3.018898	-0.416016	0.205078	0.500732
720.0	8.582636	10.039011	14.328816	1.228486	2.53792	2.825865	-0.423096	0.216064	0.47998
721.0	6.463967	8.315626	11.202621	1.134881	3.461395	2.578847	-0.436768	0.231201	0.463867
722.0	2.565931	8.163903	8.32534	0.659098	3.922608	2.255865	-0.452148	0.231201	0.443359
723.0	1.29564	6.791357	5.813013	0.426129	3.805539	1.923521	-0.45874	0.235596	0.425049
724.0	1.277515	7.040042	4.904268	0.724259	3.776423	1.477109	-0.469727	0.237793	0.399902
725.0	1.626836	8.293636	4.775812	0.589243	3.810667	0.98715	-0.476318	0.23999	0.372559
726.0	2.335639	8.765044	4.746419	0.186164	3.823187	0.466466	-0.487305	0.237793	0.356689
727.0	2.818335	8.429013	4.683357	-0.229008	3.884642	-0.059377	-0.493164	0.222412	0.32959
728.0	3.556249	7.550583	4.914332	-0.496596	3.910732	-0.580499	-0.496826	0.209473	0.313965
729.0	4.58937	6.46794	5.278272	-0.688708	4.028576	-1.072665	-0.504883	0.194092	0.286865
730.0	5.244328	5.518228	5.290208	-0.729521	4.189073	-1.495499	-0.508545	0.178955	0.27124
731.0	5.684211	4.969927	5.259364	-0.711028	4.337822	-1.82229	-0.510254	0.167969	0.257813
732.0	6.141013	4.453217	5.255604	-0.683458	4.403895	-2.064066	-0.511719	0.150635	0.242188
733.0	6.887982	3.754684	5.40683	-0.668347	4.466597	-2.273967	-0.515137	0.130859	0.226563
734.0	7.549078	2.974197	5.303405	-0.634918	4.50375	-2.417862	-0.523438	0.122314	0.217773
735.0	8.100497	2.167445	5.517535	-0.567802	4.497749	-2.490512	-0.529297	0.106934	0.204346
736.0	8.770179	0.984626	5.729583	-0.533432	4.45172	-2.475416	-0.538086	0.106934	0.192871
737.0	9.488489	-0.483022	5.837252	-0.331201	4.425796	-2.384937	-0.553467	0.108887	0.179199
738.0	9.96817	-0.916985	5.987788	0.144851	4.408431	-2.232076	-0.575684	0.119873	0.15625
739.0	10.035436	-0.708102	6.677268	0.439705	4.282249	-2.056241	-0.588867	0.119873	0.124268
740.0	11.920759	-0.218565	6.870287	0.76199	4.174513	-1.996499	-0.606201	0.115479	0.085693
741.0	11.57746	0.492995	8.050766	0.774694	4.167182	-1.997417	-0.623047	0.104492	0.051758
742.0	12.263224	0.025141	7.848781	0.851788	3.979962	-1.975612	-0.631348	0.091553	0.008789
743.0	13.492622	0.275007	9.68093	1.065712	3.95729	-2.021502	-0.634521	0.069824	-0.050049
744.0	14.045007	-0.656189	9.880292	1.045748	4.036324	-1.963965	-0.614014	0.046143	-0.113525
745.0	14.151712	0.420788	10.376616	1.463598	4.1983	-1.87847	-0.55542	0.007324	-0.16748
746.0	13.783958	1.297776	10.4919	1.262775	4.253795	-1.714881	-0.469727	-0.009521	-0.183105
747.0	13.404175	1.264783	9.859286	1.204555	4.27962	-1.573487	-0.368652	-0.02417	-0.171631
748.0	13.154473	1.061106	9.564879	1.10288	4.204526	-1.467888	-0.28418	-0.010742	-0.110352
749.0	13.011277	0.355408	8.955022	1.152868	4.119653	-1.404575	-0.241699	0.013428	-0.026611
750.0	13.002306	-0.277167	8.619032	1.270653	3.981096	-1.362236	-0.239014	0.048096	0.043213
751.0	12.967093	-0.213028	8.527835	1.536782	3.852801	-1.329048	-0.266113	0.073975	0.104248
752.0	13.585795	1.144475	8.677236	1.836263	3.658499	-1.316063	-0.306641	0.099854	0.135742
753.0	12.758611	3.540297	10.729795	1.497391	3.592368	-1.415868	-0.348389	0.108154	0.146973
754.0	13.908881	-0.92535	7.572537	0.59709	3.47041	-1.670376	-0.390137	0.114502	0.146973
755.0	13.453932	-1.64689	8.321454	1.403595	3.163273	-1.685508	-0.418457	0.112305	0.126709
756.0	15.59802	0.369551	9.289325	1.440441	3.052465	-1.645199	-0.449219	0.116455	0.115234
757.0	16.28912	2.294237	8.153854	0.871111	3.008396	-1.670071	-0.461914	0.112061	0.085693
758.0	16.384302	3.08054	5.80452	0.27183	3.085763	-1.706777	-0.475342	0.114258	0.05835
759.0	15.15353	2.401746	3.263176	-0.456916	3.052537	-1.57385	-0.492432	0.107666	0.028809
760.0	14.168326	-0.72166	0.209397	-1.024864	2.818895	-1.36475	-0.505371	0.107666	0.008301
761.0	14.117112	-5.298659	-3.222391	-0.912751	2.504405	-1.088709	-0.518311	0.103271	-0.02124
762.0	13.782906	-8.222932	-7.900828	0.357217	2.071319	-0.85611	-0.525146	0.109619	-0.030518
763.0	13.841892	-6.055588	-10.389378	2.535263	1.134729	-0.633045	-0.527588	0.111816	-0.041992
764.0	16.035865	-1.010115	-7.696122	3.836235	-0.033591	-0.548673	-0.542969	0.116211	-0.053467
765.0	18.554405	4.700583	-3.3903	2.466552	-0.194137	-0.271724	-0.54541	0.125	-0.05127
766.0	16.452821	4.694833	-3.096102	-0.8596	-0.014934	0.116078	-0.554932	0.140137	-0.056152
767.0	10.172016	3.663068	-5.062236	-1.499893	-0.211282	0.672031	-0.558105	0.164063	-0.054199
768.0	14.018304	6.963533	-17.149917	-3.555119	-2.971428	1.435037	-0.565918	0.192383	-0.022949
769.0	-11.275354	-5.918987	4.855544	-3.42108	-3.913946	1.616047	-0.575928	0.220459	0.021973
770.0	14.250456	4.224363	19.754496	2.541454	-6.409762	0.054532	-0.588135	0.246582	0.046631
771.0	10.807588	7.753088	15.935704	-4.67731	-3.30132	-0.016915	-0.593262	0.268311	0.087158
772.0	11.988298	-15.01794	3.898916	-4.380731	-4.873028	-0.264417	-0.602539	0.279053	0.130371
773.0	23.151878	-9.483192	16.648265	2.745332	-5.483782	-0.212689	-0.599121	0.298584	0.159668
774.0	23.621113	1.445187	24.609302	-1.331517	-3.00567	0.760485	-0.595459	0.316162	0.182129
775.0	11.533532	-8.864721	6.547528	-2.875376	-1.820959	1.229252	-0.598145	0.324707	0.209229
776.0	6.162829	-2.468943	6.299745	1.902866	-2.527369	0.89559	-0.587891	0.340088	0.222656
777.0	4.731104	7.708747	10.866316	0.844287	-2.095363	0.689976	-0.581543	0.348633	0.249756
778.0	3.249956	3.032634	5.099216	-1.425156	-2.392416	0.72799	-0.575439	0.357422	0.272461
779.0	21.625333	6.888041	13.817466	2.062686	-3.416726	0.823417	-0.571777	0.372803	0.288086
780.0	13.412403	11.791111	13.905566	-2.226972	0.502417	0.763825	-0.56543	0.375	0.297119
781.0	1.934074	-3.745254	5.408667	-4.537781	-0.807426	0.959383	-0.56543	0.376953	0.315186
782.0	9.127287	-4.808575	2.608426	0.618793	-0.847319	0.596366	-0.563721	0.387939	0.317383
783.0	7.884781	6.035059	12.418905	2.130616	-0.708798	0.399373	-0.55542	0.396729	0.321777
784.0	6.634453	5.639135	11.95814	-2.152738	-0.29301	0.5521	-0.55957	0.392334	0.328613
785.0	7.029232	-1.879111	5.777574	-1.950725	-0.234913	0.503983	-0.55542	0.394531	0.337646
786.0	7.773782	-0.82686	7.800383	0.543948	-0.318466	0.250727	-0.55127	0.401123	0.342041
787.0	6.278976	3.170539	10.232201	0.06125	-0.088956	0.141667	-0.546875	0.401123	0.342041
788.0	6.488123	1.326546	7.950877	-0.86014	-0.114316	0.138142	-0.544922	0.405518	0.348877
789.0	6.265406	0.995656	7.481282	-0.100674	-0.117244	0.086082	-0.546875	0.401123	0.353516
790.0	6.646067	2.362216	8.788314	-0.067064	-0.087338	0.079782	-0.544678	0.401123	0.358154
791.0	6.481854	2.082335	7.900426	-0.405338	-0.014022	0.080617	-0.546875	0.401123	0.353516
792.0	6.180406	1.479188	7.698393	-0.254966	-0.031282	0.075134	-0.547119	0.407715	0.355713
793.0	6.182636	1.668332	8.051849	-0.179438	-0.005321	0.051525	-0.544922	0.405518	0.355713
794.0	5.932639	1.427954	7.957623	-0.208964	-0.024392	0.024572	-0.542725	0.40332	0.355713
795.0	6.06816	1.598186	7.738363	-0.046437	-0.043525	-0.004448	-0.544922	0.40332	0.362549
796.0	6.07806	2.014483	8.077396	-0.025342	-0.053308	-0.025089	-0.540527	0.405518	0.360352
797.0	6.130494	1.830828	7.836368	-0.073221	-0.076174	-0.024887	-0.540527	0.405518	0.360352
798.0	6.132087	1.596371	7.852717	-0.029773	-0.084446	-0.025499	-0.547363	0.409668	0.362549
799.0	6.197406	1.40741	7.76832	0.013108	-0.100874	-0.042255	-0.542725	0.405518	0.364746
800.0	6.208217	1.368881	7.780987	0.054475	-0.106691	-0.068632	-0.542725	0.407715	0.364746
801.0	6.115883	1.490368	7.856966	0.126679	-0.130574	-0.094594	-0.536621	0.416504	0.357666
802.0	6.11929	1.769329	8.079006	0.133243	-0.130146	-0.107171	-0.54541	0.414063	0.360107
803.0	6.139734	1.654842	7.896228	0.073515	-0.147584	-0.093562	-0.547607	0.41626	0.360107
804.0	6.18733	1.59125	7.830546	0.072353	-0.142283	-0.090418	-0.547852	0.420654	0.359863
805.0	6.090455	1.688688	7.855751	0.067555	-0.152721	-0.075417	-0.554443	0.422852	0.362305
806.0	6.245447	1.9371	7.812999	0.060373	-0.145921	-0.050898	-0.567383	0.418457	0.369141
807.0	6.095468	1.660224	7.869488	-0.050025	-0.143875	-0.037998	-0.577637	0.403076	0.378662
808.0	6.22477	1.913154	7.741812	0.019829	-0.114975	-0.020384	-0.570313	0.387695	0.390381
809.0	6.138977	1.824859	7.982676	-0.088099	-0.082989	-0.012776	-0.558594	0.370361	0.390625
810.0	6.11309	1.647813	7.661593	-0.083022	-0.102983	0.012127	-0.543457	0.372559	0.381348
811.0	6.175461	2.061297	7.929248	-0.053109	-0.101549	0.037117	-0.537109	0.376953	0.376709
812.0	6.014801	1.988468	7.820468	-0.159844	-0.098429	0.050639	-0.535645	0.392334	0.381104
813.0	6.111757	1.7254	7.843664	-0.14222	-0.121373	0.063966	-0.53125	0.394531	0.371826
814.0	6.20043	1.774639	7.846103	-0.123754	-0.139219	0.079544	-0.535889	0.396729	0.374023
815.0	6.225273	1.625967	7.897679	-0.144271	-0.152534	0.059492	-0.53833	0.40332	0.376221
816.0	6.030663	1.374519	8.002581	-0.128293	-0.187356	0.061074	-0.533691	0.398926	0.383057
817.0	5.753576	0.71769	7.912879	-0.026609	-0.30216	0.050192	-0.53418	0.407715	0.378418
818.0	5.62669	1.247575	8.080354	0.298875	-0.432342	0.040631	-0.536377	0.407715	0.385254
819.0	5.615566	2.210839	8.44331	0.259546	-0.539242	0.022265	-0.527588	0.409912	0.385254
820.0	5.939978	1.442521	8.286695	-0.078039	-0.715562	0.023018	-0.525391	0.409912	0.387451
821.0	5.793766	1.405729	7.822389	0.255869	-0.822523	0.018554	-0.53418	0.411865	0.389648
822.0	6.016402	2.119756	8.162156	0.192055	-0.948883	0.03138	-0.527832	0.412109	0.396484
823.0	5.939577	1.933738	8.060283	0.085653	-1.082108	0.059152	-0.519043	0.409912	0.403564
824.0	6.018594	1.817147	7.962481	0.12614	-1.2246	0.08874	-0.520996	0.409912	0.407959
825.0	6.166942	1.798758	8.065729	0.087315	-1.389858	0.098349	-0.516846	0.412109	0.407959
826.0	6.017476	1.583616	8.050933	0.01926	-1.572012	0.094335	-0.512695	0.414307	0.414795
827.0	6.245193	1.317728	7.935484	0.009486	-1.817236	0.080002	-0.508057	0.412109	0.423828
828.0	6.05812	0.980956	8.078502	-0.007177	-2.048384	0.009744	-0.503662	0.409912	0.435303
829.0	5.119799	0.747494	8.018036	0.088296	-2.402111	-0.075895	-0.495117	0.412109	0.444336
830.0	5.953369	0.789312	7.962912	0.255933	-2.796711	0.042223	-0.492676	0.409912	0.455811
831.0	5.705523	1.369453	8.103605	0.271288	-3.101273	0.172747	-0.473145	0.412109	0.469482
832.0	6.319541	1.604829	7.665778	0.172282	-3.494776	0.238263	-0.46875	0.409912	0.485352
833.0	7.604689	2.153047	8.120118	0.001937	-3.563768	0.418805	-0.455566	0.405762	0.499268
834.0	7.029599	1.820746	7.726667	-0.306907	-3.446717	0.60054	-0.444824	0.410156	0.510498
835.0	6.872157	1.634878	6.654449	-0.023145	-3.971798	0.801863	-0.427246	0.407959	0.531006
836.0	7.490116	2.618659	6.353539	0.370441	-4.629056	0.976689	-0.405762	0.414551	0.544434
837.0	6.955542	2.276121	6.36554	0.787981	-5.575351	0.89286	-0.386719	0.427734	0.564697
838.0	6.78909	3.18249	7.538308	1.075441	-6.538623	0.850386	-0.35376	0.425781	0.578369
839.0	6.813409	4.501756	8.473114	0.856401	-7.483734	1.199177	-0.317383	0.441162	0.603271
840.0	9.365141	4.159024	10.167739	0.105679	-8.838071	1.494318	-0.275879	0.439209	0.632813
841.0	9.809083	2.754338	8.633592	-0.201572	-9.022001	1.82345	-0.232422	0.443848	0.653076
842.0	16.943135	-2.085834	5.082979	0.154725	-8.667598	1.418442	-0.201904	0.439697	0.666748
843.0	20.077657	-2.441316	3.327328	1.323304	-8.36815	0.777868	-0.167236	0.446289	0.675781
844.0	20.542884	0.531514	4.837554	2.16134	-7.49836	0.472333	-0.156738	0.455078	0.677979
845.0	24.240322	5.369281	9.303519	2.001165	-6.190477	0.553616	-0.154053	0.446533	0.671143
846.0	23.788929	6.240074	5.447459	0.114063	-7.654564	0.158852	-0.14502	0.435547	0.671387
847.0	27.882725	4.315501	10.434414	2.877637	-7.768803	1.866172	-0.138428	0.435547	0.657715
848.0	23.517466	8.523977	20.523872	1.647629	-2.579231	2.360657	-0.172852	0.426758	0.639648
849.0	22.694772	-0.847718	20.67539	1.576627	-1.775515	2.441512	-0.20752	0.422119	0.605713
850.0	23.179059	9.997392	21.005652	3.01251	1.400018	2.538475	-0.252686	0.406738	0.55127
851.0	10.422489	9.952026	16.483234	1.116346	2.739142	2.389628	-0.284668	0.38916	0.49707
852.0	6.077221	6.683908	10.903369	1.289303	3.487871	2.25612	-0.299072	0.371826	0.426758
853.0	3.357584	7.184853	8.560856	1.317975	3.727436	2.085261	-0.296387	0.358887	0.367676
854.0	2.674035	6.330196	6.626012	1.010826	3.824702	1.84113	-0.267578	0.346191	0.322266
855.0	2.121273	6.240329	4.987877	1.157529	3.967703	1.489085	-0.227783	0.337891	0.297363
856.0	2.493494	7.728815	4.843747	1.230142	3.962135	1.090887	-0.184082	0.33374	0.28833
857.0	3.122841	9.084626	5.133707	0.781441	4.11952	0.660782	-0.144531	0.327393	0.304443
858.0	4.208558	9.456264	5.145356	0.203915	4.25229	0.167486	-0.123047	0.333984	0.331543
859.0	4.47803	9.165669	5.152638	-0.412137	4.500752	-0.30399	-0.123047	0.335938	0.388428
860.0	4.641529	7.903832	4.919505	-0.918699	4.645091	-0.735961	-0.143066	0.342285	0.438477
861.0	4.933658	6.112562	4.690509	-1.171225	4.764612	-1.135009	-0.199707	0.343994	0.481934
862.0	5.257782	4.378727	4.283121	-1.179383	4.866437	-1.484392	-0.262451	0.334717	0.520752
863.0	5.508754	3.183472	3.939101	-0.894944	4.94547	-1.763104	-0.342529	0.316895	0.530518
864.0	6.213916	2.933988	4.078716	-0.487679	4.927858	-1.974064	-0.422119	0.294434	0.52417
865.0	7.169329	2.97613	4.55648	-0.364604	4.95308	-2.106079	-0.49707	0.26123	0.504395
866.0	8.322284	2.529435	4.788997	-0.315076	4.950421	-2.188912	-0.56958	0.228271	0.47998
867.0	9.214545	1.696541	5.156151	-0.301203	4.986855	-2.223931	-0.631104	0.188477	0.444336
868.0	10.111552	0.390428	5.130951	-0.214249	4.973216	-2.233931	-0.686523	0.157715	0.408691
869.0	10.242972	-0.60983	5.119083	0.124733	4.955534	-2.189583	-0.733154	0.12915	0.354492
870.0	10.696132	-0.514597	5.716948	0.584317	4.812343	-2.103677	-0.764404	0.096436	0.295898
871.0	12.223088	0.815526	6.340783	0.852223	4.777283	-2.034853	-0.793701	0.065918	0.241943
872.0	11.883084	1.195443	6.5894	0.68927	4.74356	-2.057735	-0.805176	0.033203	0.176514
873.0	11.949373	0.471787	6.658926	0.767898	4.504547	-2.130329	-0.807861	-0.006104	0.129395
874.0	11.752169	0.766398	7.485131	0.851136	4.207339	-2.218909	-0.804443	-0.03418	0.084473
875.0	11.966648	-0.011674	8.165495	0.864263	3.907957	-2.227067	-0.794434	-0.0625	0.04834
876.0	14.298325	0.211243	9.557021	1.31048	3.673369	-2.220002	-0.77832	-0.079834	0.016846
877.0	16.038097	1.666338	11.69205	1.27527	3.723453	-2.181072	-0.758301	-0.092529	-0.012451
878.0	17.051077	1.568665	11.667896	1.032586	3.94758	-2.106921	-0.743164	-0.090332	-0.040039
879.0	17.152843	1.59053	11.264352	0.928404	4.15186	-2.017947	-0.723389	-0.092285	-0.071777
880.0	16.808791	0.890037	10.249651	0.733611	4.284978	-1.92277	-0.714844	-0.087646	-0.096924
881.0	16.685686	0.614255	8.995821	0.842147	4.323214	-1.770957	-0.699463	-0.087646	-0.131348
882.0	15.465508	1.465616	9.990266	0.697018	4.311397	-1.601864	-0.688965	-0.083008	-0.158691
883.0	15.850144	-0.816495	8.714569	0.487892	4.343162	-1.432644	-0.666992	-0.082764	-0.181396
884.0	15.37099	-1.015667	8.571491	0.883414	4.221141	-1.245767	-0.656494	-0.076172	-0.213623
885.0	14.177752	-0.576021	8.69085	0.966079	4.071853	-1.054435	-0.638916	-0.078125	-0.236328
886.0	14.183546	-0.589863	7.77252	1.294457	3.81606	-0.942055	-0.628174	-0.075928	-0.259277
887.0	14.727302	0.749301	7.881771	1.520528	3.562354	-0.934876	-0.621582	-0.077881	-0.281982
888.0	14.654479	0.408394	6.083074	1.471618	3.466254	-1.03994	-0.605957	-0.082275	-0.300049
889.0	14.981106	-0.263435	4.310384	1.647452	3.254996	-1.021851	-0.592529	-0.093018	-0.320313
890.0	15.451181	-1.614776	2.571078	1.702215	3.118196	-0.924539	-0.577393	-0.090576	-0.334229
891.0	15.724637	-3.590614	-0.361061	1.835854	3.027252	-0.795528	-0.570313	-0.101563	-0.349854
892.0	15.671133	-4.220685	-3.672165	2.419392	2.754536	-0.678876	-0.556885	-0.110107	-0.358887
893.0	15.031126	-2.506634	-6.162591	2.922892	2.366297	-0.484025	-0.547607	-0.12085	-0.372314
894.0	13.904514	-0.280879	-7.734871	2.571961	1.822795	-0.164064	-0.543213	-0.123047	-0.372314
895.0	13.818963	0.71825	-8.339283	1.765036	0.966984	0.215366	-0.542969	-0.125244	-0.369873
896.0	14.541941	0.370947	-7.791755	0.944521	0.252915	0.510698	-0.541016	-0.12085	-0.372314
897.0	14.657242	0.284102	-6.515724	0.404811	-0.312734	0.641402	-0.55249	-0.112305	-0.374756
898.0	15.599591	0.487619	-4.877632	0.102484	-0.839168	0.599939	-0.554688	-0.10791	-0.36792
899.0	15.781695	1.60693	-2.681225	-0.234345	-1.10077	0.503038	-0.565918	-0.103516	-0.358887
900.0	14.985478	2.199229	-0.846958	-0.946718	-1.333696	0.357913	-0.568604	-0.092773	-0.354736
901.0	12.788991	1.260874	0.370448	-1.493347	-1.58436	0.06628	-0.575195	-0.090576	-0.352295
902.0	-16.910777	12.353551	19.875975	0.795357	-1.089895	0.452608	-0.588623	-0.079834	-0.33667
903.0	-10.258777	33.942707	25.079883	-1.819145	-3.589571	0.683235	-0.600342	-0.0625	-0.323242
904.0	-3.35952	5.291176	9.451648	-11.595128	-3.049693	0.216983	-0.616211	-0.003662	-0.306152
905.0	16.851904	-39.321349	-20.665543	-10.260561	-4.056967	0.067294	-0.63208	0.009277	-0.285889
906.0	-2.372615	-17.271963	7.32797	9.200542	-6.651413	-0.270535	-0.658936	-0.023682	-0.226074
907.0	41.63496	15.41244	40.863771	1.087357	-5.33015	-0.342746	-0.664307	0.000244	-0.208252
908.0	16.413215	-13.306527	13.655488	-7.626729	-2.381042	1.812003	-0.674072	0.02417	-0.195068
909.0	14.395229	-19.029904	0.576533	0.7982	-2.90521	0.940866	-0.678223	0.021729	-0.176758
910.0	12.920046	4.642405	16.652194	5.299555	-2.921481	0.383727	-0.68042	0.019531	-0.15625
911.0	5.276753	11.317192	13.200261	-1.799394	-1.550589	0.935433	-0.687012	0.023926	-0.144775
912.0	3.780776	0.680251	1.028834	-1.754855	-2.078625	0.752039	-0.694092	0.034668	-0.124512
913.0	19.524005	10.921781	11.867489	3.36297	-2.980454	0.623556	-0.69873	0.04126	-0.111084
914.0	8.791398	11.822937	15.672146	-3.309918	-0.184642	0.80663	-0.694824	0.047607	-0.104248
915.0	6.080411	-5.767002	5.059962	-4.648124	-0.714245	1.016907	-0.695313	0.062988	-0.102295
916.0	7.208982	-4.769762	2.249102	0.886738	-0.979775	0.437202	-0.695313	0.058594	-0.09082
917.0	8.861411	5.115912	12.469064	2.702528	-0.879126	0.21015	-0.697266	0.054199	-0.093018
918.0	6.725834	6.785464	12.142838	-1.64162	-0.313041	0.401287	-0.695557	0.067383	-0.091064
919.0	6.809329	-0.621648	6.058663	-1.92111	-0.253572	0.390391	-0.697998	0.06958	-0.088867
920.0	6.379479	-0.620848	6.968411	0.430226	-0.430775	0.190265	-0.697998	0.071533	-0.082031
921.0	7.399247	2.57525	10.657343	0.511978	-0.321834	0.06352	-0.697998	0.071533	-0.07959
922.0	6.53139	1.76761	8.72523	-0.516036	-0.185574	-0.026506	-0.693604	0.071777	-0.077393
923.0	6.477807	0.111669	7.597429	0.060236	-0.223328	-0.148337	-0.704346	0.067139	-0.077393
924.0	6.241324	1.459927	8.223755	0.561389	-0.236422	-0.225709	-0.702148	0.069336	-0.07959
925.0	6.123634	2.355227	8.295976	0.358233	-0.219964	-0.256261	-0.695557	0.067383	-0.074951
926.0	6.041928	2.246866	7.492786	0.296551	-0.204099	-0.259211	-0.695313	0.060791	-0.07251
927.0	5.973978	2.282243	7.633582	0.363567	-0.225938	-0.232198	-0.699707	0.060791	-0.07251
928.0	6.349482	2.456547	7.736138	0.342621	-0.214734	-0.230402	-0.706299	0.060547	-0.070313
929.0	5.999552	2.567708	7.76547	0.277718	-0.185974	-0.23289	-0.699463	0.056396	-0.079346
930.0	6.246898	2.516146	7.693709	0.276103	-0.192574	-0.230694	-0.697266	0.056396	-0.074707
931.0	5.785069	3.088395	7.372056	0.300344	-0.179038	-0.233403	-0.703857	0.054199	-0.077148
932.0	5.957198	3.052427	7.651344	0.204069	-0.190304	-0.189034	-0.699463	0.056396	-0.07251
933.0	5.822021	3.092444	7.249773	0.101982	-0.145576	-0.137085	-0.694824	0.052002	-0.065674
934.0	5.840196	3.067588	7.22029	0.067781	-0.164148	-0.068034	-0.699219	0.052002	-0.061035
935.0	6.014538	2.911716	7.53739	0.004932	-0.156773	-0.029762	-0.697266	0.058594	-0.065674
936.0	5.850884	2.804368	7.281345	-0.073184	-0.141335	0.015289	-0.703857	0.058594	-0.07251
937.0	5.995087	2.79789	7.346662	-0.067607	-0.164799	0.06161	-0.701904	0.060547	-0.068115
938.0	5.924982	2.846299	7.467791	-0.140113	-0.134709	0.09705	-0.706787	0.071533	-0.065918
939.0	6.013896	2.710728	7.343971	-0.23572	-0.138743	0.146905	-0.713135	0.071533	-0.072754
940.0	6.38349	2.676499	7.351843	-0.232676	-0.126199	0.193099	-0.726318	0.071533	-0.065918
941.0	5.907584	2.514098	7.740305	-0.373803	-0.086267	0.212904	-0.732666	0.064697	-0.052246
942.0	6.262536	2.356471	7.349311	-0.321541	-0.094322	0.223022	-0.734131	0.049561	-0.038086
943.0	6.126775	2.426516	7.637022	-0.357761	-0.102148	0.226515	-0.718018	0.03418	-0.033447
944.0	6.176269	2.375114	7.513947	-0.404793	-0.096177	0.250183	-0.698486	0.034424	-0.037842
945.0	6.314082	2.39006	7.555226	-0.413013	-0.075807	0.266025	-0.694336	0.038818	-0.040283
946.0	6.074419	2.231243	7.615952	-0.453244	-0.116952	0.262619	-0.688232	0.047607	-0.049561
947.0	6.370779	2.17321	7.645747	-0.404452	-0.138564	0.244183	-0.695313	0.060547	-0.047607
948.0	6.272577	2.099409	7.613916	-0.39646	-0.16016	0.225992	-0.693359	0.067139	-0.052246
949.0	6.177911	2.096714	7.606255	-0.372543	-0.183259	0.221532	-0.699951	0.064941	-0.04541
950.0	6.281022	2.195444	7.590832	-0.364358	-0.212555	0.223138	-0.698242	0.078125	-0.041016
951.0	6.401157	2.140014	7.651487	-0.406569	-0.203639	0.227901	-0.698242	0.078125	-0.045654
952.0	6.454546	2.009747	7.6354	-0.418343	-0.205855	0.219423	-0.700684	0.08252	-0.043457
953.0	6.253405	2.115629	7.650941	-0.391012	-0.193045	0.233513	-0.693848	0.075928	-0.041016
954.0	6.293471	2.134423	7.833044	-0.4032	-0.213989	0.257808	-0.700928	0.088867	-0.036621
955.0	5.868056	1.61634	8.070149	-0.382697	-0.26099	0.284405	-0.705566	0.093262	-0.034424
956.0	5.725495	1.122684	8.037042	-0.088621	-0.422041	0.270598	-0.700928	0.091064	-0.032227
957.0	5.981322	1.613147	8.106432	0.196403	-0.586136	0.239819	-0.698975	0.093262	-0.025391
958.0	5.356187	2.684801	9.374783	0.132374	-0.784563	0.220813	-0.707764	0.097656	-0.023193
959.0	6.499258	0.931951	7.741409	-0.366096	-0.977244	0.194523	-0.701416	0.102051	-0.016357
960.0	6.012271	0.460996	7.751615	0.187399	-1.201616	0.120863	-0.699219	0.097656	-0.002686
961.0	6.147112	1.192345	8.438511	0.307928	-1.410622	0.064217	-0.703613	0.099854	0.00415
962.0	6.104533	1.090896	7.955364	0.20976	-1.613045	0.021248	-0.703613	0.101807	0.017822
963.0	6.272873	1.376949	7.879113	0.352235	-1.859606	0.002338	-0.706055	0.104004	0.024414
964.0	6.289867	1.687775	8.272302	0.273056	-2.118308	-0.034044	-0.705811	0.101807	0.045166
965.0	6.094749	1.442537	8.260398	0.073737	-2.431064	-0.058503	-0.705811	0.099609	0.061035
966.0	5.878841	0.779566	8.089672	0.007888	-2.775098	-0.083781	-0.705566	0.097412	0.086182
967.0	5.714258	0.738072	7.837427	0.096705	-3.098347	-0.029363	-0.705811	0.101563	0.102051
968.0	5.828335	1.127805	7.683842	0.301761	-3.409883	0.018187	-0.699219	0.101563	0.124756
969.0	7.315565	2.212378	8.30807	0.263067	-3.632466	0.163002	-0.699463	0.105957	0.147461
970.0	6.812632	2.225861	7.869578	-0.035298	-3.675645	0.396469	-0.693115	0.110352	0.183838
971.0	6.248745	1.983679	6.678685	0.454562	-4.371288	0.556036	-0.686768	0.114502	0.211182
972.0	7.210005	2.843547	7.299564	1.012901	-5.253752	0.575989	-0.669434	0.116699	0.252197
973.0	6.413122	3.969672	8.171125	1.307441	-6.257733	0.624817	-0.65918	0.129883	0.295166
974.0	7.108095	4.859351	8.603912	1.049872	-7.223141	1.144048	-0.633301	0.140869	0.342773
975.0	7.790308	4.677372	9.287672	0.532984	-8.215601	1.513489	-0.607422	0.147461	0.399658
976.0	12.167511	0.889829	7.819781	0.238056	-8.797736	1.490441	-0.573486	0.165039	0.440186
977.0	16.822599	-1.07136	5.338486	0.803295	-8.429466	0.98613	-0.541016	0.173828	0.492432
978.0	17.468426	-0.719853	4.324172	1.481343	-8.038642	0.492956	-0.502441	0.187012	0.528564
979.0	18.644472	2.121704	6.467691	1.973736	-7.383601	0.307173	-0.46582	0.200195	0.564697
980.0	21.90816	6.702942	9.158347	1.340562	-6.558809	0.42458	-0.433594	0.209229	0.584961
981.0	20.391692	5.672595	4.801131	-0.124732	-6.868027	-0.078397	-0.39209	0.209229	0.619141
982.0	24.256128	3.500621	7.552567	2.206544	-6.871625	1.615654	-0.360596	0.237793	0.636719
983.0	25.08897	5.939297	21.76107	2.240065	-3.337519	2.08841	-0.345947	0.250977	0.645752
984.0	24.558186	1.434553	22.977976	1.674459	-0.722122	2.453925	-0.343018	0.281494	0.640625
985.0	16.221777	7.503304	19.11725	2.348433	1.898884	2.603508	-0.359131	0.299072	0.624268
986.0	7.486805	8.539424	16.669739	1.2885	2.48843	2.592119	-0.368652	0.318604	0.619385
987.0	5.143854	6.592034	12.600031	1.171994	3.308458	2.559889	-0.389404	0.340332	0.600586
988.0	2.161035	6.565066	9.797138	1.223206	3.630295	2.356859	-0.39917	0.364258	0.584229
989.0	2.043862	6.117962	7.924383	1.285181	3.718961	2.014835	-0.421387	0.377197	0.570313
990.0	1.8498	7.014503	6.80047	1.534582	3.97327	1.526243	-0.439697	0.396973	0.547119
991.0	1.857047	8.593338	6.220797	1.434184	4.143401	1.035274	-0.457764	0.409912	0.528809
992.0	2.040112	9.804672	5.956275	0.995718	4.246337	0.578609	-0.484619	0.422852	0.498779
993.0	2.36103	9.782332	5.553844	0.292963	4.287601	0.117723	-0.508789	0.429443	0.485107
994.0	2.927254	9.068951	5.119734	-0.186621	4.297622	-0.343201	-0.52417	0.429199	0.462402
995.0	4.015384	8.42984	5.596143	-0.530722	4.294784	-0.810168	-0.554688	0.429199	0.444092
996.0	5.361658	7.339745	5.753789	-0.82565	4.381803	-1.262034	-0.584961	0.424561	0.423828
997.0	6.387059	6.502381	5.844981	-0.916592	4.520892	-1.678922	-0.617188	0.413574	0.403564
998.0	6.954756	5.842306	5.971695	-1.036314	4.680853	-1.978819	-0.64502	0.402588	0.378662
999.0	7.342105	4.964716	5.819855	-1.086082	4.767498	-2.177335	-0.683838	0.38916	0.358398
1000.0	8.201368	4.154005	5.982915	-1.039453	4.799546	-2.314829	-0.717773	0.367188	0.331543
1001.0	9.383276	3.168868	6.138451	-0.987077	4.835989	-2.412006	-0.756592	0.358398	0.297607
1002.0	9.85348	2.074799	6.418551	-0.839076	4.902392	-2.430077	-0.793213	0.347412	0.256836
1003.0	10.538704	1.203237	6.819858	-0.585788	4.88968	-2.357696	-0.824951	0.327637	0.202637
1004.0	10.88623	0.700801	6.699624	-0.324217	4.931618	-2.232994	-0.848145	0.310303	0.143799
1005.0	10.875356	0.273948	6.316285	-0.029966	4.863936	-2.125071	-0.862549	0.28833	0.075684
1006.0	11.46935	0.353465	6.13928	0.322297	4.622469	-2.134941	-0.87207	0.260254	0.021729
1007.0	11.56688	0.596904	6.274427	0.612746	4.171021	-2.132506	-0.875	0.227539	-0.025635
1008.0	13.541213	1.875725	9.139722	0.970565	4.009571	-2.159931	-0.86499	0.199219	-0.068359
1009.0	15.149812	0.910004	9.767009	0.690436	3.936156	-2.087581	-0.865723	0.164551	-0.115479
1010.0	15.935392	1.552465	10.521851	1.182599	4.090476	-1.990639	-0.85376	0.138428	-0.153809
1011.0	15.678489	2.360931	10.984708	0.961508	4.208395	-1.734547	-0.848145	0.110352	-0.191895
1012.0	15.55049	1.926075	10.100548	0.956366	4.291784	-1.484581	-0.827393	0.088623	-0.232666
1013.0	15.499323	1.849501	9.597442	0.950597	4.344886	-1.260652	-0.813232	0.062744	-0.266357
1014.0	15.426659	1.167761	8.144186	1.008323	4.376999	-1.109817	-0.801758	0.049805	-0.300293
1015.0	14.668371	0.73636	6.604963	1.192055	4.290643	-0.986743	-0.787842	0.034668	-0.333984
1016.0	14.383266	0.818201	5.77975	1.60013	4.05198	-0.91546	-0.767578	0.019531	-0.356689
1017.0	14.603335	3.24139	6.231186	2.216199	3.838557	-0.908925	-0.751221	-0.004395	-0.385742
1018.0	14.741917	1.640569	7.269219	1.189592	3.561668	-1.116634	-0.733154	-0.021484	-0.410645
1019.0	15.012632	-2.446658	4.109443	1.450854	3.462508	-1.314771	-0.721191	-0.043213	-0.432861
1020.0	15.520972	-3.623708	5.061497	2.289793	3.054213	-1.277992	-0.702881	-0.064941	-0.448486
1021.0	16.677686	-3.012412	5.089084	2.422776	2.945929	-1.121091	-0.688721	-0.088867	-0.468506
1022.0	17.473926	-0.890639	4.538098	2.28819	2.82669	-0.914726	-0.674805	-0.108398	-0.477295
1023.0	18.049702	1.511421	3.351123	1.497222	2.826227	-0.71639	-0.656738	-0.121338	-0.497559
1024.0	17.524282	2.545808	0.496189	0.381107	2.802961	-0.509055	-0.641113	-0.127686	-0.513428
1025.0	16.547764	1.963763	-2.070641	-0.483479	2.606937	-0.372185	-0.625977	-0.125244	-0.531738
1026.0	15.293869	-0.25947	-4.775103	-1.100178	2.264002	-0.378722	-0.608643	-0.123047	-0.54541
1027.0	14.204083	-2.403202	-7.852515	-0.845131	1.703577	-0.500449	-0.601807	-0.127441	-0.552246
1028.0	13.96701	-2.779137	-9.355844	0.27746	0.771721	-0.65121	-0.597168	-0.135986	-0.552002
1029.0	14.888029	-0.899661	-7.170695	1.109374	-0.125982	-0.763734	-0.60083	-0.151367	-0.549561
1030.0	13.843866	2.187576	-4.746296	0.653496	-0.513768	-0.770448	-0.600342	-0.162354	-0.540039
1031.0	14.461564	11.440328	-8.375951	-0.16177	-1.770904	-0.369884	-0.609375	-0.153564	-0.526611
1032.0	16.844447	5.170565	-12.208375	-6.822339	-3.791242	0.596233	-0.637451	-0.110107	-0.518311
1033.0	1.221718	-17.084028	2.201062	-4.898155	-2.945441	0.679615	-0.655518	-0.099365	-0.495605
1034.0	2.076069	-1.667358	21.875416	3.780149	-5.589319	-0.742772	-0.680664	-0.123779	-0.45874
1035.0	18.130074	2.465432	19.266626	-4.037555	-4.05875	-0.504564	-0.692139	-0.106445	-0.434082
1036.0	13.659709	-16.28292	5.661681	-3.736055	-4.124306	-0.088617	-0.7146	-0.095703	-0.40918
1037.0	26.415137	-12.677854	15.928147	2.972964	-4.850777	0.055299	-0.733398	-0.111084	-0.385986
1038.0	18.554874	2.740748	21.812461	-0.308319	-2.074191	0.963358	-0.740723	-0.09375	-0.375
1039.0	6.565342	-2.22116	5.333512	-2.122439	-1.578781	1.327925	-0.754639	-0.078613	-0.354736
1040.0	2.390228	3.110573	3.665204	1.357321	-2.376003	0.79164	-0.760986	-0.080811	-0.338623
1041.0	5.88968	10.360316	9.607697	0.515421	-2.475398	0.738063	-0.769775	-0.07666	-0.313721
1042.0	22.570793	9.116268	15.419432	-0.953019	-2.433295	1.227369	-0.783936	-0.054932	-0.311768
1043.0	7.117884	2.237533	10.098037	-3.765462	0.262037	1.223766	-0.782471	-0.039551	-0.312012
1044.0	5.492983	-5.390111	3.954527	-2.404885	-0.927739	0.974822	-0.780762	-0.026611	-0.305664
1045.0	8.436415	0.323099	7.579061	1.377513	-0.850104	0.660541	-0.793945	-0.026611	-0.303223
1046.0	7.78263	6.757266	12.553036	-0.380207	-0.412345	0.618241	-0.790039	-0.017822	-0.294434
1047.0	6.330986	0.79787	8.276757	-2.563166	-0.27315	0.691198	-0.78833	-0.006836	-0.299072
1048.0	7.018506	-2.363434	6.747661	-0.756338	-0.323371	0.498466	-0.790527	-0.004883	-0.294678
1049.0	8.01095	1.625845	9.695363	0.427107	-0.107837	0.29248	-0.790527	-0.002686	-0.294678
1050.0	6.183742	2.535234	9.557503	-0.760447	-0.099586	0.254519	-0.79541	0.003906	-0.29248
1051.0	6.359331	0.197505	7.23749	-0.683489	-0.01667	0.176212	-0.793213	0.008301	-0.29248
1052.0	6.469804	0.511613	8.041171	-0.038015	-0.114344	0.06735	-0.79541	0.008301	-0.297119
1053.0	6.26198	1.341685	8.246803	-0.110859	-0.094005	0.002432	-0.797607	0.008301	-0.29248
1054.0	6.234082	1.465208	7.88414	-0.075992	-0.084172	-0.029678	-0.793457	0.010498	-0.299316
1055.0	6.093877	1.46114	8.074651	-0.08526	-0.072523	-0.035558	-0.797607	0.006104	-0.297119
1056.0	5.874379	1.275209	7.994194	-0.097176	-0.085602	-0.03943	-0.79126	0.012695	-0.290283
1057.0	5.956466	1.239237	8.082449	-0.012734	-0.101489	-0.055411	-0.790771	0.001709	-0.29248
1058.0	6.060145	1.233724	8.046886	-0.00544	-0.10793	-0.057252	-0.79541	0.003906	-0.297119
1059.0	5.970772	1.380827	8.068771	0.039418	-0.109616	-0.072904	-0.793213	0.008301	-0.29248
1060.0	6.092406	1.877028	7.935635	0.100156	-0.108795	-0.069688	-0.797363	0.003906	-0.29248
1061.0	6.150031	2.354816	7.9496	0.032163	-0.068977	-0.051354	-0.79541	0.003906	-0.287842
1062.0	6.122062	2.456251	7.758704	-0.057677	-0.0335	-0.004584	-0.793213	0.008301	-0.290283
1063.0	6.175504	2.252796	7.916349	-0.152699	-0.015489	0.030303	-0.79126	0.008301	-0.297119
1064.0	6.134416	1.740448	7.77723	-0.212055	0.011123	0.032371	-0.793701	0.014893	-0.294922
1065.0	6.209917	1.489291	7.843785	-0.141971	-0.008378	0.0385	-0.793701	0.01709	-0.294922
1066.0	6.332642	1.456574	7.963325	-0.113259	0.003708	0.025037	-0.795898	0.019287	-0.299561
1067.0	6.114908	1.33175	7.97828	-0.126231	0.022891	0.021532	-0.796387	0.027832	-0.295166
1068.0	6.101549	1.168306	8.062679	-0.133028	0.018673	0.022294	-0.807373	0.027832	-0.297363
1069.0	6.228862	1.186622	7.93191	-0.095118	0.021818	0.006024	-0.820557	0.030029	-0.286133
1070.0	5.948527	1.077307	7.982193	-0.114851	0.002394	-0.012304	-0.830566	0.012451	-0.276611
1071.0	6.180643	1.293268	7.90938	-0.033821	-0.019706	-0.01141	-0.831543	-0.013916	-0.271484
1072.0	6.047744	1.462505	8.013373	-0.060812	-0.0131	-0.022159	-0.811279	-0.026855	-0.269043
1073.0	5.921865	1.417313	8.056148	-0.064412	-0.02039	-0.029804	-0.793945	-0.028809	-0.278076
1074.0	5.956413	1.360656	7.931161	-0.074285	-0.055016	-0.016294	-0.785645	-0.015625	-0.285156
1075.0	5.958126	1.39267	8.008747	-0.02706	-0.071011	-0.01394	-0.785889	-0.01123	-0.2854
1076.0	5.95564	1.435469	7.925428	-0.048345	-0.090961	-0.013832	-0.78833	-0.004883	-0.283203
1077.0	6.102831	1.36304	7.985154	-0.036186	-0.110205	-0.02123	-0.790771	0.001709	-0.285645
1078.0	6.00292	1.472025	8.000733	-0.02195	-0.121284	-0.022422	-0.793213	0.003906	-0.287842
1079.0	5.914661	1.513383	8.104417	-0.033145	-0.139281	-0.011624	-0.793457	0.010498	-0.283447
1080.0	5.966007	1.445852	7.940661	-0.03642	-0.17194	-0.003621	-0.800049	0.010498	-0.283447
1081.0	5.989298	1.309099	7.988144	-0.027474	-0.206741	0.007015	-0.802002	0.008301	-0.278809
1082.0	5.878219	1.199413	7.988789	0.011343	-0.237139	0.005318	-0.802002	0.008057	-0.274414
1083.0	5.661401	1.453048	8.211748	0.108104	-0.320775	0.010641	-0.804199	0.010254	-0.276611
1084.0	4.964696	1.638952	8.457098	0.138162	-0.454674	0.024598	-0.804443	0.012451	-0.262939
1085.0	5.803256	1.684957	8.520105	0.042328	-0.62879	0.032935	-0.804199	0.008057	-0.262939
1086.0	5.471833	1.41779	8.408327	0.112743	-0.770641	0.045856	-0.808594	0.010254	-0.256104
1087.0	5.633153	1.503321	8.517313	0.176849	-0.966067	0.053113	-0.806396	0.008057	-0.249268
1088.0	5.79478	1.290258	8.544956	0.120487	-1.144271	0.063236	-0.812988	0.008057	-0.237793
1089.0	5.51103	1.060967	8.362356	0.202899	-1.375353	0.04657	-0.81543	0.016602	-0.22876
1090.0	5.657413	1.159948	8.454038	0.289681	-1.641473	0.032172	-0.817627	0.014404	-0.215088
1091.0	5.675828	1.310913	8.425342	0.275554	-1.899491	0.010491	-0.825928	0.007813	-0.192139
1092.0	5.714754	1.237579	8.365178	0.220242	-2.172185	-0.021477	-0.833008	0.016357	-0.180908
1093.0	5.754511	1.222119	8.244413	0.227603	-2.485597	-0.07986	-0.839111	0.009766	-0.162598
1094.0	5.30678	1.000191	8.207558	0.231422	-2.892438	-0.12688	-0.841553	0.011963	-0.130859
1095.0	5.863162	1.178171	7.858366	0.308642	-3.215187	0.011163	-0.843262	0.003174	-0.098633
1096.0	5.879153	1.69179	8.012304	0.284001	-3.56326	0.220977	-0.845703	0.007324	-0.07373
1097.0	6.336017	1.831476	7.794496	0.133979	-3.927433	0.331666	-0.858887	0.013672	-0.037354
1098.0	7.327221	2.816828	7.881762	0.102242	-4.06201	0.525629	-0.863281	0.015869	-0.01001
1099.0	7.457596	3.761551	7.575449	-0.290504	-3.964349	0.958373	-0.859619	0.026611	0.028564
1100.0	6.607455	2.791059	6.94748	-0.432503	-4.411703	1.376142	-0.862061	0.037354	0.073975
1101.0	7.480442	2.064826	6.463156	-0.116411	-5.211418	1.668359	-0.856201	0.04834	0.110107
1102.0	6.542726	1.898238	6.292482	0.734525	-6.169088	1.48376	-0.845947	0.063477	0.169189
1103.0	6.478302	3.576994	8.415341	0.928069	-7.551956	1.469161	-0.828857	0.072266	0.239502
1104.0	8.632542	3.738138	9.73956	0.170032	-8.798037	1.881462	-0.810059	0.093994	0.314209
1105.0	11.503588	0.089721	7.481671	0.068068	-9.033597	1.941844	-0.786133	0.096191	0.380371
1106.0	15.327959	-1.718652	5.497823	0.550464	-8.825256	1.615263	-0.752441	0.122314	0.445801
1107.0	20.846615	-1.957124	3.769944	1.363211	-8.298756	1.159841	-0.709229	0.128906	0.504883
1108.0	20.192024	1.578171	4.720039	1.634821	-7.387407	1.159899	-0.675049	0.144287	0.547852
1109.0	21.573155	2.99565	7.455523	1.578819	-6.108481	1.405653	-0.640625	0.157715	0.583984
1110.0	21.455946	6.52862	8.753715	-0.218218	-6.008614	1.197191	-0.597412	0.164307	0.631836
1111.0	22.872509	2.460336	5.922999	0.917158	-8.038512	1.69531	-0.550537	0.188477	0.660889
1112.0	23.50194	4.027406	17.628821	2.028446	-4.510359	2.422398	-0.524902	0.203857	0.674072
1113.0	19.424384	-1.198174	20.465743	1.330937	-2.237962	2.568349	-0.506592	0.230225	0.689697
1114.0	23.837214	3.775409	19.26867	3.273571	-0.27486	2.266701	-0.503418	0.260742	0.673096
1115.0	14.092855	11.786201	18.180227	2.337432	2.04787	2.007138	-0.510742	0.27832	0.656738
1116.0	8.970348	9.590199	13.501252	1.329094	2.784437	1.75473	-0.524658	0.293457	0.635986
1117.0	5.188843	8.467077	10.179278	1.075388	3.618537	1.43387	-0.535889	0.302246	0.615234
1118.0	4.438815	7.778267	7.993387	0.679971	3.792283	1.079247	-0.559814	0.302246	0.604004
1119.0	3.557139	6.869238	6.266769	0.479896	4.184052	0.665807	-0.583984	0.306396	0.574219
1120.0	2.821871	6.574463	4.639076	0.456558	4.349505	0.251521	-0.599365	0.308594	0.549072
1121.0	2.680554	7.219275	4.239471	0.463597	4.368305	-0.124339	-0.62085	0.302002	0.521973
1122.0	3.170668	7.574446	4.314435	0.065613	4.388226	-0.482279	-0.642334	0.293213	0.494873
1123.0	3.905232	6.886869	3.974309	-0.341954	4.430325	-0.839388	-0.661377	0.277832	0.472412
1124.0	4.482398	6.445689	4.109823	-0.576004	4.500898	-1.164462	-0.677979	0.262451	0.440674
1125.0	4.952483	5.579184	4.156887	-0.880115	4.575323	-1.455643	-0.701172	0.242676	0.418457
1126.0	5.421045	4.533848	4.022028	-0.963862	4.644188	-1.693573	-0.721924	0.216553	0.386963
1127.0	6.240827	3.656864	4.352126	-0.847028	4.686035	-1.919507	-0.736084	0.19458	0.362305
1128.0	7.006214	3.242422	4.536221	-0.699521	4.819091	-2.147822	-0.748535	0.179443	0.333008
1129.0	7.544452	2.854745	4.616663	-0.588109	4.893233	-2.317771	-0.764404	0.144531	0.301758
1130.0	8.322996	2.237718	4.691637	-0.522894	4.929522	-2.423218	-0.776611	0.124756	0.268066
1131.0	8.858992	1.359656	4.5463	-0.44833	4.962594	-2.45984	-0.792969	0.10083	0.243408
1132.0	9.093447	0.484841	4.631552	-0.273747	4.905163	-2.37997	-0.807617	0.083252	0.21875
1133.0	9.410691	-0.154512	4.821813	-0.027598	4.780569	-2.259913	-0.818115	0.07666	0.180176
1134.0	10.086308	-0.457702	5.24848	0.283238	4.617784	-2.149285	-0.830811	0.068115	0.141602
1135.0	11.114513	0.166173	5.829023	0.682898	4.488444	-2.123424	-0.838867	0.054932	0.089355
1136.0	11.886651	1.516489	6.649658	0.817285	4.408587	-2.178161	-0.840332	0.0354	0.044189
1137.0	11.699552	1.48859	7.383539	0.610898	4.187298	-2.260644	-0.839355	0.015869	0.010498
1138.0	13.480463	2.050026	7.699437	0.854981	3.92062	-2.33119	-0.833984	-0.005859	-0.023193
1139.0	13.926626	3.0689	10.016757	0.557553	3.909831	-2.354791	-0.835449	-0.025391	-0.054688
1140.0	15.436576	1.343516	9.888332	0.327327	3.793429	-2.240436	-0.825684	-0.047119	-0.09082
1141.0	16.312942	2.392814	11.359098	0.619867	4.02318	-2.165613	-0.824707	-0.068848	-0.120117
1142.0	16.658091	1.781212	11.146422	0.276717	4.172284	-1.989434	-0.817383	-0.088379	-0.151611
1143.0	16.386483	0.819568	10.450783	0.35806	4.339465	-1.80169	-0.805908	-0.099121	-0.190186
1144.0	16.285184	-0.036401	9.397073	0.327382	4.414938	-1.607677	-0.796387	-0.116211	-0.223877
1145.0	14.814843	-0.2563	7.867868	0.568739	4.446358	-1.383513	-0.787109	-0.131348	-0.269287
1146.0	13.235374	1.954112	9.125981	0.948007	4.252426	-1.165665	-0.769287	-0.137695	-0.298828
1147.0	14.649075	-0.827941	8.059951	0.296814	4.04625	-1.179683	-0.753418	-0.155029	-0.330322
1148.0	13.99274	-0.183925	8.26101	1.267092	3.958961	-1.172188	-0.739746	-0.167969	-0.364258
1149.0	14.718374	1.776147	10.2984	1.040959	3.821285	-1.120497	-0.712891	-0.183105	-0.386963
1150.0	14.36312	1.696664	9.030084	0.930324	3.80423	-1.083521	-0.699463	-0.189453	-0.411865
1151.0	14.730898	3.298125	9.297011	0.903207	3.694504	-1.129481	-0.674805	-0.20459	-0.42749
1152.0	14.374144	3.188803	7.792475	0.445945	3.678937	-1.197606	-0.650391	-0.215088	-0.457031
1153.0	13.955509	1.656282	5.80847	0.279189	3.55254	-1.212741	-0.630127	-0.228027	-0.484131
1154.0	13.476771	0.158763	4.14133	0.252991	3.43708	-1.145748	-0.605957	-0.22998	-0.5
1155.0	13.180842	-2.617982	1.642498	0.144319	3.231838	-0.961106	-0.585938	-0.240723	-0.522705
1156.0	13.972582	-5.42796	-2.039499	0.640034	2.899787	-0.737673	-0.572266	-0.251709	-0.531494
1157.0	13.350653	-6.189586	-5.302977	1.777435	2.489447	-0.554552	-0.554443	-0.264648	-0.547363
1158.0	13.189582	-4.570731	-7.80662	2.635426	1.721987	-0.479444	-0.544678	-0.286377	-0.5354
1159.0	13.572358	-1.278039	-8.660381	3.088538	0.931238	-0.376746	-0.539307	-0.310303	-0.532715
1160.0	14.332665	1.587634	-7.589349	2.310244	0.174972	-0.198016	-0.539063	-0.314697	-0.523438
1161.0	14.698384	2.146082	-6.269844	0.751309	-0.263425	0.115036	-0.54541	-0.316895	-0.523438
1162.0	14.971781	0.593115	-5.558393	-0.35673	-0.733351	0.374697	-0.549805	-0.316895	-0.516602
1163.0	15.864492	-0.679896	-4.373637	-0.50049	-1.151997	0.485388	-0.556641	-0.310547	-0.516846
1164.0	16.451063	0.137304	-2.06176	-0.292614	-1.355021	0.467964	-0.561279	-0.306152	-0.51001
1165.0	1.005643	11.138968	2.292915	1.447222	-0.811732	0.648983	-0.576172	-0.310547	-0.498535
1166.0	-14.03646	20.204567	12.781091	-2.665551	-3.504962	1.557398	-0.605957	-0.282471	-0.483154
1167.0	6.770533	6.169237	17.43162	-6.382845	-5.539461	0.689181	-0.624756	-0.247803	-0.474609
1168.0	11.906431	-8.782359	-1.197739	-6.275069	-2.880982	-0.676545	-0.643555	-0.22168	-0.470459
1169.0	-0.793164	-14.069277	1.567428	-0.773992	-5.039651	-0.844664	-0.666748	-0.237305	-0.433838
1170.0	21.574027	-9.241222	19.951577	2.044961	-6.789025	-0.749283	-0.686279	-0.241699	-0.385742
1171.0	23.900578	-6.836763	23.058805	-1.843009	-4.017427	0.592423	-0.70874	-0.224609	-0.37915
1172.0	17.3247	-13.345785	7.923881	-1.973181	-3.119884	1.18365	-0.720215	-0.213623	-0.345215
1173.0	12.265106	-3.186658	7.96731	2.766471	-3.447338	0.902773	-0.737061	-0.227051	-0.312988
1174.0	9.443309	12.216694	13.332705	1.934241	-2.559968	0.532326	-0.750244	-0.2229	-0.294922
1175.0	9.301697	7.510823	9.502292	-1.609764	-2.931529	0.759445	-0.766113	-0.209961	-0.274658
1176.0	23.928005	7.306397	12.832382	0.228339	-1.849519	0.867649	-0.761963	-0.203369	-0.2771
1177.0	1.75843	5.032116	8.878851	-3.079702	-0.249521	0.984611	-0.771729	-0.183594	-0.272949
1178.0	9.38554	-2.893156	5.993405	-1.878171	-1.298036	0.898529	-0.778564	-0.172852	-0.268555
1179.0	8.835525	0.529699	8.661502	0.520256	-0.647741	0.580962	-0.778564	-0.175049	-0.261719
1180.0	8.04211	3.765804	10.827737	-0.39492	-0.459237	0.492216	-0.783203	-0.16626	-0.259521
1181.0	7.162513	1.570127	8.326376	-1.26286	-0.257247	0.481773	-0.790039	-0.162109	-0.252686
1182.0	6.542878	0.502087	7.539034	-0.527166	-0.262761	0.371184	-0.788086	-0.157715	-0.259766
1183.0	7.830204	1.545068	9.245537	-0.13353	-0.227576	0.27966	-0.783691	-0.155518	-0.26416
1184.0	5.962391	1.896809	8.551721	-0.523257	-0.054754	0.195688	-0.783936	-0.15332	-0.261963
1185.0	6.743174	0.903222	7.824658	-0.425317	-0.136178	0.189926	-0.781738	-0.151123	-0.261963
1186.0	6.5186	1.614604	7.994639	-0.107932	-0.102178	0.119336	-0.78833	-0.151123	-0.257568
1187.0	6.183926	1.592256	8.278993	-0.238245	-0.083974	0.07671	-0.786377	-0.146729	-0.259766
1188.0	6.009951	1.181034	7.80389	-0.19271	-0.089124	0.04272	-0.788574	-0.148926	-0.255371
1189.0	6.046607	1.662421	7.748242	-0.011281	-0.118265	0.010199	-0.790771	-0.146729	-0.257568
1190.0	6.319485	1.962935	8.175294	-0.03786	-0.116719	-0.00258	-0.784424	-0.142334	-0.255371
1191.0	6.18109	1.507544	7.6717	-0.162831	-0.127136	-0.014582	-0.790527	-0.151123	-0.257568
1192.0	6.13336	1.465575	7.721821	0.002367	-0.111231	-0.03057	-0.788574	-0.146729	-0.250732
1193.0	6.273372	1.752274	7.831649	0.03721	-0.12506	-0.05761	-0.786133	-0.151123	-0.25293
1194.0	6.154649	1.980048	7.760015	0.00348	-0.104013	-0.054642	-0.791016	-0.142334	-0.250732
1195.0	6.209486	2.075723	7.578521	-0.005	-0.087124	-0.055761	-0.790527	-0.148926	-0.250732
1196.0	6.304525	2.168532	7.754454	-0.001991	-0.06859	-0.044807	-0.788574	-0.146729	-0.248535
1197.0	6.316341	2.158616	7.91109	-0.032744	-0.033608	-0.030938	-0.79541	-0.142334	-0.255371
1198.0	6.162738	1.84184	7.666124	-0.089466	-0.005827	-0.027667	-0.786621	-0.140137	-0.257813
1199.0	6.127104	1.65616	7.689624	-0.033129	-0.008739	-0.027554	-0.790771	-0.146729	-0.262207
1200.0	6.146739	1.708428	7.808679	-0.031304	0.008888	-0.02066	-0.79126	-0.135742	-0.26001
1201.0	6.230085	1.730622	7.710327	-0.035652	0.033223	-0.034951	-0.79126	-0.135742	-0.264648
1202.0	6.101377	1.697965	7.747985	-0.066207	0.037198	-0.005381	-0.791504	-0.127197	-0.262451
1203.0	6.133939	1.875495	7.729048	-0.058337	0.043642	0.018168	-0.798096	-0.127197	-0.26709
1204.0	6.31566	2.002267	7.733968	-0.092962	0.078893	0.002702	-0.811035	-0.131592	-0.260254
1205.0	5.857039	1.710478	7.991548	-0.196777	0.075006	0.0366	-0.823975	-0.133789	-0.250977
1206.0	6.173193	1.704121	7.530056	-0.121708	0.065108	0.045864	-0.821045	-0.153564	-0.241455
1207.0	6.086956	1.830215	8.089418	-0.1415	0.056691	0.076511	-0.813477	-0.173096	-0.236572
1208.0	6.128462	1.499586	7.844795	-0.233235	0.045817	0.051955	-0.795898	-0.179688	-0.23877
1209.0	5.895474	1.37495	7.863845	-0.151546	0.016741	0.067911	-0.7854	-0.170654	-0.250244
1210.0	6.057535	1.527394	7.961162	-0.124158	-0.019185	0.086289	-0.78125	-0.161865	-0.257324
1211.0	5.995669	1.695423	7.912292	-0.140776	-0.054732	0.08707	-0.781738	-0.151123	-0.255127
1212.0	6.069299	1.780061	8.006353	-0.157092	-0.058614	0.069864	-0.784424	-0.142334	-0.262207
1213.0	5.943826	1.734996	7.789059	-0.189478	-0.077716	0.100058	-0.784424	-0.142334	-0.255371
1214.0	6.113692	1.837334	7.841775	-0.175568	-0.102753	0.127606	-0.782471	-0.137939	-0.253174
1215.0	6.06732	2.02642	7.993205	-0.228789	-0.081901	0.142091	-0.789063	-0.137939	-0.255371
1216.0	6.088122	1.809714	7.85573	-0.304272	-0.082846	0.173915	-0.795898	-0.129395	-0.253418
1217.0	6.141724	1.649592	7.856165	-0.284148	-0.088249	0.175588	-0.791504	-0.129395	-0.253418
1218.0	6.190376	1.323106	7.969185	-0.287246	-0.121023	0.167568	-0.793701	-0.127197	-0.258057
1219.0	6.049847	0.789252	7.80022	-0.211627	-0.182094	0.130335	-0.793945	-0.125	-0.251221
1220.0	5.923394	1.013841	8.116936	-0.011246	-0.275369	0.116011	-0.791748	-0.122803	-0.249023
1221.0	5.581584	1.249561	8.294847	0.065331	-0.386881	0.112475	-0.796143	-0.122803	-0.244385
1222.0	4.793021	1.195828	9.077765	0.134576	-0.579746	0.10513	-0.79834	-0.120605	-0.235352
1223.0	5.883006	1.022377	8.579832	0.059114	-0.876762	0.078629	-0.804932	-0.122803	-0.230713
1224.0	5.719352	0.672474	8.160871	0.195512	-1.048292	0.051611	-0.802734	-0.120605	-0.226074
1225.0	5.950792	0.891278	8.21965	0.313037	-1.249044	0.016606	-0.804688	-0.125244	-0.212402
1226.0	5.78752	0.939249	8.427106	0.338541	-1.449918	0.00194	-0.809082	-0.125244	-0.19873
1227.0	5.905407	1.171911	8.107325	0.406427	-1.670774	-0.013629	-0.815674	-0.125244	-0.187256
1228.0	6.086617	1.463731	8.168702	0.367697	-1.877068	-0.028268	-0.819824	-0.127441	-0.164551
1229.0	5.77326	1.522298	8.180981	0.275544	-2.134756	-0.040282	-0.820068	-0.125488	-0.153076
1230.0	6.098828	1.241887	8.155544	0.194354	-2.430235	-0.092289	-0.828613	-0.127686	-0.12793
1231.0	5.432246	0.940465	8.191311	0.176143	-2.759585	-0.163822	-0.837402	-0.127686	-0.109863
1232.0	5.825187	0.620901	7.553427	0.204873	-3.153002	0.027077	-0.8396	-0.12793	-0.077881
1233.0	5.854685	1.059466	8.018446	0.383625	-3.458973	0.159404	-0.8396	-0.123535	-0.04834
1234.0	6.222102	2.009062	7.958824	0.340035	-3.827928	0.232484	-0.843994	-0.125977	-0.016357
1235.0	7.581349	3.425968	8.580907	0.107106	-3.953884	0.552655	-0.848633	-0.121582	0.022217
1236.0	6.969122	2.611482	7.751592	-0.467243	-4.016271	0.898062	-0.842529	-0.11084	0.049561
1237.0	6.907789	1.660371	6.656679	-0.092719	-4.608052	1.211218	-0.847412	-0.0979	0.092529
1238.0	7.045248	1.451415	7.456485	0.56807	-5.504469	1.219013	-0.843262	-0.091309	0.144775
1239.0	6.473136	2.2106	7.035887	1.115115	-6.571466	0.973027	-0.835205	-0.078369	0.203857
1240.0	6.348059	4.425833	9.725744	1.153935	-7.820234	1.095185	-0.820313	-0.067627	0.27417
1241.0	9.311855	2.573214	9.568895	0.265469	-8.968935	1.539258	-0.794678	-0.054443	0.340088
1242.0	13.292799	-1.285007	6.882686	0.443577	-9.078621	1.316383	-0.770996	-0.047852	0.419678
1243.0	19.483193	-1.735144	5.149023	0.99877	-8.615137	0.811253	-0.732422	-0.034668	0.476318
1244.0	19.585508	-0.956351	4.507193	1.553153	-7.788648	0.400057	-0.700195	-0.021484	0.523926
1245.0	21.180958	2.737906	7.126479	1.849773	-6.761821	0.334834	-0.665527	-0.019287	0.573975
1246.0	20.162539	5.881381	9.144831	0.304331	-6.108137	0.372668	-0.635498	-0.008301	0.614746
1247.0	21.130909	3.042262	3.805712	0.44066	-7.349358	0.1944	-0.5896	-0.005859	0.65332
1248.0	23.823556	-1.004385	16.433412	2.794632	-6.027425	1.73768	-0.560791	0.029053	0.68457
1249.0	24.318081	-1.797708	21.190935	2.596407	-2.03788	1.924388	-0.548828	0.057617	0.693115
1250.0	22.623094	2.13098	21.324907	4.021266	-0.230125	2.580005	-0.554932	0.09668	0.685547
1251.0	13.542673	10.439327	17.936949	3.012955	2.437209	2.811926	-0.57373	0.125	0.666748
1252.0	7.868618	8.659575	13.971656	1.851919	2.686707	2.794636	-0.592529	0.15332	0.650146
1253.0	5.274634	7.876206	10.944527	1.706836	3.627476	2.596964	-0.613037	0.175049	0.633789
1254.0	2.680099	7.488051	7.847563	1.294369	3.830332	2.296009	-0.631592	0.197021	0.605957
1255.0	2.614194	6.636025	6.157223	1.307718	3.80125	1.862724	-0.645264	0.214355	0.580566
1256.0	2.543251	7.546442	5.663625	1.429189	3.981118	1.295348	-0.667969	0.231689	0.557617
1257.0	2.819392	8.486844	5.090591	1.135972	4.083617	0.714061	-0.689941	0.233887	0.525635
1258.0	3.190015	9.056636	4.895784	0.767422	4.175551	0.148408	-0.705078	0.233887	0.500488
1259.0	3.767043	9.292996	4.97501	0.208695	4.256817	-0.374283	-0.729248	0.23584	0.473145
1260.0	4.332841	8.534759	4.80887	-0.414763	4.355137	-0.853365	-0.746094	0.222656	0.44165
1261.0	4.681379	7.159034	4.864835	-0.847643	4.413609	-1.251527	-0.773682	0.205078	0.423828
1262.0	5.341303	5.395151	5.001493	-1.11383	4.494279	-1.590743	-0.792725	0.194336	0.383057
1263.0	6.041495	3.948067	4.964473	-1.010798	4.59206	-1.88296	-0.806885	0.165771	0.354004
1264.0	6.597534	3.388209	5.080441	-0.796158	4.695235	-2.099625	-0.825928	0.152832	0.320068
1265.0	7.172771	3.079914	5.422023	-0.653128	4.757683	-2.236429	-0.84668	0.133057	0.292969
1266.0	8.1109	2.612162	5.7456	-0.587662	4.81865	-2.320749	-0.861084	0.108887	0.261719
1267.0	8.756947	1.878695	5.85288	-0.516921	4.885547	-2.379507	-0.875488	0.091553	0.225586
1268.0	9.198953	0.991707	5.953686	-0.378468	4.904893	-2.369972	-0.896484	0.076172	0.193848
1269.0	9.333864	0.022747	6.053853	-0.192223	4.860429	-2.308502	-0.90918	0.063232	0.15332
1270.0	9.751004	-0.736557	6.004848	0.149755	4.711898	-2.285664	-0.924072	0.054443	0.110107
1271.0	10.908232	-0.275595	6.110142	0.700328	4.56309	-2.318941	-0.929688	0.034912	0.064941
1272.0	11.34239	0.865387	8.16359	0.849407	4.409079	-2.392214	-0.931152	0.017578	0.012939
1273.0	13.647413	1.406575	8.389002	0.906251	4.25561	-2.466592	-0.93457	0.0	-0.016357
1274.0	13.105624	2.339885	10.346338	0.754801	4.339738	-2.433631	-0.933594	-0.021484	-0.057129
1275.0	14.189298	1.432142	10.319041	0.582061	4.31517	-2.325934	-0.930664	-0.043213	-0.097656
1276.0	14.674224	1.869448	11.061286	0.766375	4.312002	-2.220972	-0.932373	-0.054199	-0.133789
1277.0	15.700465	1.821105	11.092697	0.691413	4.378453	-2.107635	-0.924805	-0.07373	-0.169922
1278.0	16.146289	1.96616	10.689728	0.78324	4.443474	-1.995082	-0.919922	-0.08667	-0.203857
1279.0	16.378428	1.807398	10.302944	0.678157	4.479941	-1.852355	-0.913086	-0.093018	-0.244873
1280.0	16.269776	0.91208	9.363756	0.667586	4.507594	-1.683982	-0.906006	-0.10376	-0.278809
1281.0	15.448549	1.319478	9.390909	0.941179	4.467086	-1.465095	-0.89917	-0.110107	-0.32666
1282.0	15.673363	2.019771	10.082823	1.038563	4.363423	-1.261143	-0.890137	-0.116699	-0.35376
1283.0	15.256823	1.064491	10.737332	0.685855	4.34608	-1.200416	-0.881592	-0.116455	-0.394775
1284.0	15.471697	-1.972067	8.187815	0.950626	4.349005	-1.263411	-0.868164	-0.122803	-0.43335
1285.0	15.646642	-1.422839	8.460276	1.678268	4.125875	-1.103125	-0.858887	-0.133545	-0.471924
1286.0	15.740369	0.894134	9.193986	1.597094	3.989029	-0.910391	-0.849854	-0.14209	-0.503662
1287.0	16.829552	1.678506	7.114748	1.115489	3.993675	-0.839487	-0.845215	-0.146484	-0.546875
1288.0	15.845274	2.641547	4.769109	0.653505	3.943844	-0.727426	-0.827637	-0.150635	-0.585693
1289.0	13.43965	1.044226	1.65323	-0.233536	3.785148	-0.594525	-0.819092	-0.148193	-0.624512
1290.0	11.639879	-2.825106	-3.3198	-0.813567	3.242176	-0.500788	-0.812744	-0.141602	-0.667969
1291.0	12.926597	-6.51337	-8.463924	0.29984	2.247838	-0.460306	-0.812256	-0.152344	-0.692871
1292.0	15.486086	-4.877912	-9.921473	2.982196	1.168662	-0.595709	-0.806641	-0.182861	-0.708008
1293.0	17.318934	0.887125	-5.154851	3.771368	0.519119	-0.612808	-0.814209	-0.211182	-0.721191
1294.0	16.796719	4.862413	-4.042481	1.06205	0.581726	-0.42701	-0.813965	-0.215576	-0.737061
1295.0	13.376999	1.912814	-6.377435	-1.449018	0.171436	-0.267705	-0.827393	-0.208984	-0.753174
1296.0	13.241337	-1.919553	-6.899653	-1.330117	-0.770902	-0.323061	-0.849365	-0.204834	-0.764648
1297.0	14.560549	-1.873854	-3.321293	-0.414697	-1.363995	-0.45055	-0.871582	-0.196289	-0.760254
1298.0	14.649287	-0.476717	0.663492	-0.939751	-1.523816	-0.378828	-0.893555	-0.191895	-0.753418
1299.0	13.052165	-1.921639	1.207673	-1.411449	-1.520393	-0.26768	-0.915771	-0.181152	-0.755859
1300.0	-3.927553	4.451241	6.396444	0.030663	-2.201863	-0.038827	-0.955322	-0.172852	-0.742432
1301.0	-6.99744	6.305731	12.98606	-1.864412	-4.332538	0.550563	-1.001709	-0.160156	-0.712891
1302.0	11.981912	-1.47127	15.036275	-3.050439	-3.721998	-0.056246	-1.041992	-0.138428	-0.695068
1303.0	3.976999	-8.458513	3.383133	-3.293303	-3.376862	-0.433414	-1.086182	-0.123535	-0.66333
1304.0	7.09176	-10.512658	6.519237	1.107917	-5.481923	-0.515834	-1.140137	-0.139404	-0.601563
1305.0	24.280005	-1.890443	21.32495	2.462214	-5.269917	-0.025984	-1.183105	-0.150635	-0.557861
1306.0	20.622663	0.882444	17.060285	-0.987822	-3.250721	0.615324	-1.212402	-0.131348	-0.528564
1307.0	11.487318	-2.199425	7.013557	-0.355458	-2.970478	0.617507	-1.241211	-0.122803	-0.487793
1308.0	11.461454	2.178218	11.714248	1.441226	-2.99619	0.346296	-1.256348	-0.125244	-0.451172
1309.0	7.772102	3.097054	10.505499	-0.285213	-2.314512	0.361654	-1.273926	-0.118896	-0.428467
1310.0	9.645151	3.922477	6.263415	0.815855	-2.765833	0.36654	-1.297852	-0.119141	-0.378418
1311.0	22.132868	16.455579	15.078328	1.868253	-1.783711	0.390474	-1.304688	-0.114746	-0.376221
1312.0	3.104475	5.249149	11.454847	-4.705449	-0.335144	0.847213	-1.310547	-0.082031	-0.381348
1313.0	7.643433	-7.096231	2.838617	-2.609772	-0.686242	0.539001	-1.323975	-0.073486	-0.372314
1314.0	7.476463	-0.588608	5.040251	2.397977	-1.21974	0.258942	-1.325928	-0.077881	-0.351807
1315.0	8.2089	8.038147	14.267658	1.339919	-0.686359	0.220163	-1.334961	-0.07373	-0.342773
1316.0	6.829349	3.130011	9.595445	-2.617309	-0.240558	0.412294	-1.337646	-0.05835	-0.347656
1317.0	6.280573	-1.112172	4.8453	-0.968842	-0.275697	0.267045	-1.331299	-0.056152	-0.34082
1318.0	6.542747	1.64978	7.834549	1.024934	-0.527663	0.147321	-1.340088	-0.056152	-0.331543
1319.0	6.546967	4.501124	10.209593	-0.011481	-0.311887	0.16092	-1.340332	-0.052002	-0.329346
1320.0	6.2335	2.208311	7.529035	-0.91899	-0.172789	0.216828	-1.342773	-0.043213	-0.322754
1321.0	6.152089	1.439848	7.023796	-0.19908	-0.243063	0.199182	-1.344971	-0.043213	-0.327393
1322.0	6.04085	2.575436	8.267462	-0.055801	-0.235018	0.175237	-1.347168	-0.04541	-0.315918
1323.0	5.834492	2.193721	7.968738	-0.431092	-0.207361	0.190848	-1.347412	-0.036621	-0.316162
1324.0	6.194009	1.629684	7.612701	-0.276199	-0.227367	0.165073	-1.345459	-0.034424	-0.318359
1325.0	6.2051	2.184935	7.778743	-0.111986	-0.216306	0.142388	-1.347412	-0.036621	-0.311523
1326.0	6.460495	2.449324	7.934662	-0.219342	-0.168091	0.136353	-1.3479	-0.025879	-0.313965
1327.0	6.071533	1.942783	7.661897	-0.366198	-0.121246	0.137139	-1.356689	-0.023682	-0.302734
