Acquisition frequency: 100 Hz
PacketCounter	Acc_X	Acc_Y	Acc_Z	Gyr_X	Gyr_Y	Gyr_Z	Mag_X	Mag_Y	Mag_Z
0.0	6.344939	0.027826	7.563615	-0.004347	0.010684	0.000792	-0.589355	-0.156494	-0.289063
1.0	6.305323	-0.007737	7.579399	-0.004581	0.011547	-0.004667	-0.5896	-0.154297	-0.289063
2.0	6.35825	0.001285	7.581704	-0.005895	0.011648	-0.005474	-0.591797	-0.150146	-0.289063
3.0	6.331718	0.018913	7.597578	-0.002623	0.01345	-0.004956	-0.596191	-0.152344	-0.289063
4.0	6.323935	-0.001853	7.571717	-0.003421	0.013231	-0.003674	-0.584961	-0.158691	-0.286865
5.0	6.322926	-0.001928	7.57256	-0.006049	0.013434	-0.005287	-0.591797	-0.154297	-0.289063
6.0	6.321777	-0.001932	7.573519	-0.001617	0.016919	-0.003775	-0.589844	-0.147949	-0.286865
7.0	6.331316	-0.004549	7.596327	-0.001771	0.018704	-0.003587	-0.591797	-0.152344	-0.289063
8.0	6.340604	0.004205	7.565685	-0.001463	0.015137	-0.003962	-0.5896	-0.150146	-0.29126
9.0	6.356757	0.033911	7.561666	-0.00118	0.01568	-0.007332	-0.587402	-0.1521	-0.29126
10.0	6.344856	0.025648	7.594482	-0.000175	0.019148	-0.006151	-0.591797	-0.154297	-0.291016
11.0	6.330167	-0.027036	7.595707	-0.001128	0.020714	-0.004682	-0.5896	-0.154297	-0.29541
12.0	6.320302	0.020231	7.607074	-0.001129	0.020715	-0.004682	-0.591797	-0.154297	-0.291016
13.0	6.355176	0.000306	7.615064	-4.5e-05	0.021479	-0.009334	-0.5896	-0.150146	-0.284668
14.0	6.320922	0.008874	7.551372	2.9e-05	0.022402	-0.003688	-0.5896	-0.154541	-0.284668
15.0	6.330074	0.006438	7.574496	-0.000486	0.022725	-0.005777	-0.593994	-0.150146	-0.293213
16.0	6.306801	0.000874	7.585995	-0.001154	0.024834	-0.007679	-0.5896	-0.154541	-0.286865
17.0	6.311755	0.022082	7.614162	0.000981	0.020842	-0.005156	-0.591797	-0.150146	-0.29126
18.0	6.314248	-0.00101	7.610521	0.000313	0.022951	-0.007058	-0.591553	-0.156494	-0.293213
19.0	6.319053	0.031574	7.585241	-0.000333	0.020947	-0.005964	-0.587646	-0.147949	-0.29126
20.0	6.306901	0.023148	7.61818	-0.001778	0.01872	-0.00359	-0.593994	-0.152344	-0.289063
21.0	6.326819	0.029149	7.609502	-0.002088	0.022293	-0.003216	-0.59375	-0.154541	-0.284668
22.0	6.28646	-0.006323	7.625716	-0.006516	0.018805	-0.004735	-0.585205	-0.154297	-0.293213
23.0	6.306419	0.011034	7.563486	0.00049	0.017058	-0.004248	-0.591797	-0.154297	-0.293213
24.0	6.290214	0.026056	7.601317	-0.004404	0.018928	-0.005208	-0.591553	-0.156738	-0.284668
25.0	6.307884	-0.023774	7.614234	-0.004048	0.020392	-0.002931	-0.592041	-0.147949	-0.29126
26.0	6.334382	0.014306	7.578869	-0.003092	0.018829	-0.004398	-0.593994	-0.150146	-0.286865
27.0	6.285862	0.026003	7.604917	-0.002936	0.017044	-0.004586	-0.591553	-0.156494	-0.29541
28.0	6.299539	-0.000102	7.622701	-0.002136	0.017266	-0.005866	-0.589355	-0.160889	-0.288818
29.0	6.276666	-0.005947	7.633779	-0.004405	0.018934	-0.005208	-0.583008	-0.154541	-0.282471
30.0	6.292806	0.023464	7.629826	-0.005895	0.011668	-0.005486	-0.593994	-0.154541	-0.289063
31.0	6.281063	0.026115	7.608881	-0.003427	0.013253	-0.00368	-0.591797	-0.1521	-0.293213
32.0	6.290915	0.023283	7.631386	-0.005384	0.011347	-0.003397	-0.5896	-0.150146	-0.289063
33.0	6.283453	0.002164	7.605345	-0.008809	0.011328	-0.003737	-0.587158	-0.156494	-0.29541
34.0	6.293456	-0.001026	7.627724	-0.008143	0.009219	-0.001834	-0.591797	-0.152344	-0.29126
35.0	6.320775	0.036616	7.591756	-0.008143	0.009219	-0.001834	-0.591797	-0.154297	-0.293213
36.0	6.302824	0.006699	7.597185	-0.008497	0.007756	-0.004111	-0.591797	-0.150146	-0.29126
37.0	6.298043	0.029856	7.602701	-0.007185	0.007655	-0.003301	-0.5896	-0.1521	-0.293213
38.0	6.308209	0.0264	7.624947	-0.012661	0.008434	0.002475	-0.5896	-0.1521	-0.29541
39.0	6.27542	0.02217	7.613548	-0.010235	0.004981	0.00163	-0.591797	-0.150146	-0.289063
40.0	6.311553	0.001197	7.620621	-0.008986	0.003963	-0.003207	-0.587402	-0.150146	-0.29126
41.0	6.300358	0.003164	7.599233	-0.014327	0.007075	-0.000613	-0.587402	-0.150146	-0.29126
42.0	6.295618	0.025844	7.604724	-0.008789	0.007214	-0.000741	-0.589355	-0.156494	-0.291016
43.0	6.303529	-0.021822	7.595042	-0.009944	0.005529	-0.00174	-0.59375	-0.156494	-0.291016
44.0	6.309603	-0.001514	7.622235	-0.005874	0.007557	-0.00249	-0.5896	-0.150146	-0.289063
45.0	6.330464	0.004149	7.612869	-0.00603	0.009344	-0.002302	-0.5896	-0.154297	-0.29541
46.0	6.282561	0.026997	7.584886	-0.005582	0.008105	-0.005859	-0.5896	-0.152344	-0.29126
47.0	6.286217	-0.008356	7.633687	-0.00828	0.00689	0.001348	-0.5896	-0.154297	-0.289063
48.0	6.307153	0.008686	7.570872	-0.002448	0.007576	-0.002148	-0.591797	-0.154297	-0.289063
49.0	6.295834	-0.000317	7.602982	-0.009299	0.007541	-0.002832	-0.587402	-0.150146	-0.293213
50.0	6.306011	-0.003402	7.625207	-0.005072	0.007782	-0.003769	-0.591553	-0.156494	-0.293213
51.0	6.283822	0.001978	7.582278	-0.005738	0.009894	-0.005671	-0.587402	-0.154297	-0.291016
52.0	6.326032	0.002414	7.616553	-0.003272	0.011477	-0.00386	-0.591553	-0.156494	-0.29541
53.0	6.292899	-0.000913	7.605412	-0.005386	0.011357	-0.003392	-0.5896	-0.152344	-0.286865
54.0	6.317881	-0.018573	7.591091	-0.005582	0.008108	-0.005859	-0.5896	-0.1521	-0.293213
55.0	6.291384	-0.000882	7.606665	-0.002177	0.01225	-0.008508	-0.5896	-0.150146	-0.29126
56.0	6.290686	-0.000665	7.607242	-0.002801	0.006116	-0.004426	-0.59375	-0.156494	-0.289063
57.0	6.290149	-0.000636	7.607687	-0.00427	0.008007	-0.005049	-0.591797	-0.1521	-0.293213
58.0	6.274649	0.025533	7.591437	-0.006227	0.006099	-0.00477	-0.591797	-0.150146	-0.286865
59.0	6.289079	-0.000792	7.608571	-0.002959	0.007905	-0.004237	-0.593994	-0.150146	-0.293213
60.0	6.30992	0.005079	7.599259	-0.007853	0.009778	-0.005204	-0.5896	-0.154297	-0.29541
61.0	6.28767	-0.001128	7.609735	-0.005231	0.009573	-0.003581	-0.591797	-0.1521	-0.293213
62.0	6.308576	0.004853	7.600375	-0.00331	0.006444	-0.006516	-0.589355	-0.156494	-0.286865
63.0	6.28652	-0.001132	7.610686	-0.005073	0.007786	-0.00377	-0.587646	-0.147705	-0.297607
64.0	6.303135	0.028252	7.606444	-0.00574	0.0099	-0.005671	-0.591797	-0.150146	-0.293213
65.0	6.295991	0.007681	7.580158	-0.001705	0.006893	-0.009073	-0.593994	-0.150146	-0.289063
66.0	6.288868	-0.024261	7.607179	-0.002157	0.008131	-0.005515	-0.589355	-0.156494	-0.291016
67.0	6.290558	0.03173	7.586215	-0.002666	0.008458	-0.007606	-0.5896	-0.1521	-0.297607
68.0	6.304891	0.005702	7.603432	-0.002157	0.008132	-0.005515	-0.593994	-0.152344	-0.29126
69.0	6.271998	0.002825	7.592061	-0.00106	0.008906	-0.010163	-0.5896	-0.154297	-0.297607
70.0	6.314472	0.003696	7.626139	-2.2e-05	0.004127	-0.002991	-0.5896	-0.150146	-0.29126
71.0	6.303276	0.006608	7.60477	-0.003469	0.008235	-0.006328	-0.589844	-0.147949	-0.29126
72.0	6.29191	0.009636	7.583543	-0.001863	0.008684	-0.008884	-0.5896	-0.1521	-0.29541
73.0	6.280396	0.001237	7.615739	-0.001513	0.010146	-0.006605	-0.5896	-0.1521	-0.293213
74.0	6.301216	0.007463	7.606476	-0.003469	0.008236	-0.006328	-0.587402	-0.154297	-0.289063
75.0	6.31777	0.025693	7.655588	-0.001355	0.008358	-0.006794	-0.587402	-0.1521	-0.29541
76.0	6.332249	0.011268	7.6194	-0.002508	0.006673	-0.007795	-0.591797	-0.154297	-0.291016
77.0	6.267157	0.004924	7.596056	-0.001809	0.009596	-0.003236	-0.587402	-0.154297	-0.291016
78.0	6.298702	0.008335	7.608558	-0.003977	0.008565	-0.008419	-0.589355	-0.156494	-0.29541
79.0	6.298045	0.008658	7.609101	-0.001863	0.008687	-0.008884	-0.587158	-0.158691	-0.29541
80.0	6.308173	0.006292	7.631349	-0.001197	0.006572	-0.006983	-0.591797	-0.150146	-0.29126
81.0	6.281938	0.035461	7.593338	-0.004274	0.008014	-0.00505	-0.585205	-0.156494	-0.291016
82.0	6.296365	0.009217	7.61049	-0.004114	0.006226	-0.005239	-0.593994	-0.154297	-0.293213
83.0	6.317266	0.01528	7.601182	-0.00494	0.01013	-0.006952	-0.587402	-0.154297	-0.29541
84.0	6.316635	0.015392	7.601707	-0.003311	0.006451	-0.006517	-0.5896	-0.1521	-0.293213
85.0	6.294572	0.009395	7.611973	-0.003767	0.007687	-0.002959	-0.5896	-0.154297	-0.293213
86.0	6.326259	0.012702	7.624372	-0.003311	0.006452	-0.006517	-0.585205	-0.156494	-0.293213
87.0	6.282792	0.012179	7.591095	-0.005078	0.007791	-0.003772	-0.591797	-0.1521	-0.293213
88.0	6.303691	0.018345	7.5818	-0.001863	0.008692	-0.008884	-0.587402	-0.154297	-0.293213
89.0	6.270693	0.003684	7.62373	-0.006896	0.008222	-0.006676	-0.591797	-0.150146	-0.293213
90.0	6.291604	0.009686	7.614427	-0.002964	0.007914	-0.004237	-0.591797	-0.154297	-0.29541
91.0	6.301826	0.006975	7.63659	-0.003955	0.004439	-0.005429	-0.587402	-0.154297	-0.291016
92.0	6.308049	0.03923	7.610353	-0.004759	0.004214	-0.004151	-0.587402	-0.154297	-0.297607
93.0	6.290401	0.009629	7.61542	-0.005426	0.006331	-0.006052	-0.593994	-0.152344	-0.286865
94.0	6.311594	0.015617	7.605892	-0.004599	0.002426	-0.004341	-0.591797	-0.1521	-0.29541
95.0	6.289881	0.021071	7.562617	-0.005426	0.006332	-0.006052	-0.591553	-0.158691	-0.291016
96.0	6.272201	-0.019969	7.620939	-0.005453	0.001294	-0.008712	-0.591797	-0.152344	-0.29126
97.0	6.289363	0.009704	7.616278	-0.002325	0.00076	-0.004995	-0.5896	-0.1521	-0.293213
98.0	6.312924	0.060142	7.638469	-0.004142	0.001192	-0.007899	-0.593994	-0.152344	-0.29126
99.0	6.310744	0.015979	7.606596	-0.004439	0.000637	-0.00453	-0.59375	-0.158691	-0.291016
100.0	6.306466	0.039406	7.611664	-0.00559	-0.001048	-0.005533	-0.59375	-0.158691	-0.293213
101.0	6.315072	-0.007735	7.601488	-0.006554	0.000515	-0.004066	-0.589355	-0.158691	-0.289063
102.0	6.306371	0.039087	7.611744	-0.0046	0.002427	-0.00434	-0.589355	-0.156494	-0.291016
103.0	6.29986	0.01829	7.584984	-0.004439	0.000638	-0.00453	-0.591797	-0.1521	-0.299805
104.0	6.314635	-0.007939	7.60185	-0.005774	0.004874	-0.008332	-0.593994	-0.150146	-0.29126
105.0	6.303589	-0.005021	7.580371	-0.001842	0.004566	-0.005892	-0.585205	-0.156494	-0.291016
106.0	6.316091	0.048189	7.581097	-0.004624	0.006561	-0.007329	-0.591553	-0.156494	-0.291016
107.0	6.293905	0.030751	7.64466	-0.00251	0.006685	-0.007793	-0.5896	-0.154297	-0.29541
108.0	6.293571	0.042514	7.591715	-0.002807	0.006129	-0.004425	-0.5896	-0.1521	-0.29541
109.0	6.308152	0.016418	7.608745	-0.001842	0.004567	-0.005892	-0.591797	-0.154297	-0.29541
110.0	6.314042	0.037234	7.636012	-0.005589	0.008124	-0.005862	-0.591797	-0.1521	-0.297607
111.0	6.307215	0.016286	7.609522	-0.006369	0.003763	-0.001596	-0.5896	-0.154297	-0.29541
112.0	6.306712	0.015913	7.60994	-0.007359	0.009461	-0.003117	-0.585205	-0.154297	-0.291016
113.0	6.30187	0.039236	7.61547	-0.003957	0.004444	-0.005428	-0.589355	-0.158691	-0.293213
114.0	6.327312	0.021784	7.600927	-0.004922	0.006007	-0.003961	-0.593994	-0.154297	-0.29126
115.0	6.309414	-0.007699	7.606184	-0.001682	0.011952	-0.006409	-0.589355	-0.156494	-0.291016
116.0	6.31513	0.02477	7.580398	-0.00313	0.009709	-0.004044	-0.589355	-0.156494	-0.293213
117.0	6.307776	-0.007476	7.607543	-0.002487	0.011726	-0.005131	-0.587646	-0.147949	-0.29541
118.0	6.291942	0.019032	7.591551	-0.002028	0.010495	-0.00869	-0.591797	-0.152344	-0.29126
119.0	6.297599	0.039924	7.618999	-0.002463	0.007591	-0.002144	-0.591797	-0.150146	-0.29126
120.0	6.301254	0.016375	7.614459	-0.005751	0.009917	-0.005672	-0.591553	-0.156494	-0.29541
121.0	6.285582	0.042575	7.59833	-0.004279	0.008025	-0.005049	-0.598145	-0.156494	-0.293213
122.0	6.299949	0.016394	7.615538	-0.003475	0.008253	-0.006326	-0.59375	-0.154541	-0.286865
123.0	6.303661	-0.007	7.610953	-0.002969	0.007922	-0.004235	-0.587646	-0.147949	-0.293213
124.0	6.298801	0.016439	7.616488	-0.004922	0.006009	-0.003962	-0.589355	-0.158691	-0.289063
125.0	6.319787	0.022509	7.607182	-0.004786	0.008357	-0.00714	-0.589355	-0.158691	-0.293213
126.0	6.319121	0.022324	7.607736	-0.006856	0.009133	-0.001028	-0.591309	-0.163086	-0.286865
127.0	6.286342	0.018991	7.596189	0.001423	0.006383	-0.00535	-0.585205	-0.154297	-0.29541
128.0	6.292037	0.039887	7.623593	-0.005752	0.00992	-0.005673	-0.59375	-0.156494	-0.29541
129.0	6.317361	0.022484	7.609197	-0.003956	0.004448	-0.00543	-0.596191	-0.152344	-0.29126
130.0	6.291087	0.039823	7.624377	-0.004923	0.00601	-0.003963	-0.587402	-0.154541	-0.284668
131.0	6.312164	0.045796	7.615009	-0.004923	0.006011	-0.003963	-0.591797	-0.154297	-0.293213
132.0	6.309807	0.001496	7.583337	-0.004761	0.004221	-0.004153	-0.591553	-0.156494	-0.291016
133.0	6.294122	0.016005	7.620356	-0.003775	0.007697	-0.002958	-0.591553	-0.158691	-0.291016
134.0	6.289255	0.039368	7.625891	-0.004923	0.006011	-0.003963	-0.595703	-0.160889	-0.289063
135.0	6.303967	0.024626	7.589685	-0.005086	0.007801	-0.003772	-0.587158	-0.156494	-0.291016
136.0	6.309779	0.045302	7.616988	-0.005771	0.004885	-0.008336	-0.587402	-0.1521	-0.29126
137.0	6.318063	-0.001762	7.607119	-0.007039	0.005887	-0.003501	-0.591797	-0.154297	-0.293213
138.0	6.291709	0.01543	7.622349	-0.005429	0.006344	-0.006054	-0.5896	-0.154297	-0.297607
139.0	6.308417	0.045006	7.618118	-0.004119	0.006241	-0.005239	-0.59375	-0.158691	-0.289063
140.0	6.284472	-0.005241	7.596228	-0.002808	0.006138	-0.004424	-0.5896	-0.154297	-0.289063
141.0	6.311836	0.021568	7.613783	-0.003614	0.005909	-0.003148	-0.587402	-0.150146	-0.289063
142.0	6.306955	0.044785	7.61933	-0.009822	0.007886	-0.00494	-0.587402	-0.150146	-0.289063
143.0	6.325959	0.00658	7.57809	-0.003476	0.008261	-0.006324	-0.595947	-0.154297	-0.29126
144.0	6.299603	0.023811	7.59331	-0.006372	0.003766	-0.001602	-0.587402	-0.154297	-0.291016
145.0	6.331382	0.027019	7.605714	-0.004624	0.006575	-0.00733	-0.591797	-0.1521	-0.293213
146.0	6.298654	0.023726	7.594098	-0.004282	0.008033	-0.005048	-0.5896	-0.154297	-0.291016
147.0	6.308692	0.020826	7.616391	-0.004583	0.007472	-0.001681	-0.596191	-0.149902	-0.297607
148.0	6.271636	0.040835	7.609855	-0.004119	0.006244	-0.005239	-0.5896	-0.152344	-0.289063
149.0	6.297059	0.023458	7.595421	-0.006739	0.006452	-0.00687	-0.591797	-0.152344	-0.286865
150.0	6.307145	0.020471	7.617673	-0.007203	0.00768	-0.003311	-0.591797	-0.150146	-0.293213
151.0	6.3003	-0.000463	7.591238	-0.005088	0.007806	-0.003772	-0.5896	-0.150146	-0.29126
152.0	6.291023	0.046383	7.601923	-0.005429	0.006349	-0.006054	-0.595947	-0.158691	-0.291016
153.0	6.294863	0.022754	7.597243	-0.005894	0.007577	-0.002496	-0.591797	-0.152344	-0.29126
154.0	6.309337	-0.003702	7.614358	-0.004925	0.006016	-0.003963	-0.5896	-0.152344	-0.29126
155.0	6.293815	0.022504	7.598112	-0.002973	0.007932	-0.004232	-0.5896	-0.152344	-0.286865
156.0	6.303827	0.019763	7.620421	-0.002973	0.007933	-0.004232	-0.587402	-0.154297	-0.291016
157.0	6.314132	0.02884	7.589427	-0.002671	0.008496	-0.007599	-0.587158	-0.156494	-0.291016
158.0	6.302582	0.019888	7.62145	-0.007204	0.007682	-0.003312	-0.591553	-0.158691	-0.293213
159.0	6.329769	0.046465	7.639176	-0.005089	0.007808	-0.003772	-0.5896	-0.150146	-0.286865
160.0	6.280168	0.02525	7.578816	-0.000857	0.00806	-0.004692	-0.587158	-0.158691	-0.29541
161.0	6.311577	0.028577	7.591553	-0.008036	0.011598	-0.00502	-0.591797	-0.154297	-0.289063
162.0	6.29989	0.019522	7.623676	-0.002973	0.007935	-0.004232	-0.591553	-0.158691	-0.289063
163.0	6.320838	0.025612	7.614483	-0.005089	0.007809	-0.003772	-0.593994	-0.1521	-0.293213
164.0	6.309632	0.02832	7.59317	-0.004283	0.00804	-0.005048	-0.593994	-0.154297	-0.29541
165.0	6.308957	0.028206	7.593732	-0.006563	0.009705	-0.004396	-0.591797	-0.154541	-0.286865
166.0	6.292998	0.0427	7.630873	-0.003313	0.00648	-0.006515	-0.591553	-0.156494	-0.291016
167.0	6.307797	0.02818	7.594695	-0.00509	0.007811	-0.003772	-0.596191	-0.152344	-0.289063
168.0	6.302728	0.051527	7.600388	-0.005757	0.009936	-0.005672	-0.591797	-0.1521	-0.293213
169.0	6.321379	0.001644	7.61255	-0.004751	0.009268	-0.001489	-0.593994	-0.150146	-0.293213
170.0	6.284189	0.02153	7.606079	-0.00509	0.007812	-0.003772	-0.585205	-0.1521	-0.29541
171.0	6.315669	0.024734	7.618774	-0.005254	0.009603	-0.00358	-0.5896	-0.1521	-0.293213
172.0	6.310592	0.048197	7.624471	-0.002168	0.008169	-0.005507	-0.593994	-0.154297	-0.29126
173.0	6.303718	0.027604	7.598084	-0.004448	0.009834	-0.004856	-0.591553	-0.156494	-0.291016
174.0	6.30738	0.004043	7.593562	-0.005255	0.009604	-0.003581	-0.5896	-0.152344	-0.289063
175.0	6.312743	0.024665	7.621199	-0.003807	0.011857	-0.005939	-0.5896	-0.1521	-0.293213
176.0	6.275306	0.044645	7.614913	-0.008039	0.011605	-0.005022	-0.587402	-0.154297	-0.291016
177.0	6.311037	0.024444	7.622612	-0.00183	0.009627	-0.003222	-0.591797	-0.152344	-0.289063
178.0	6.310645	0.036129	7.569967	-0.00542	0.011397	-0.003389	-0.5896	-0.154297	-0.291016
179.0	6.298784	0.027042	7.602176	-0.004614	0.011629	-0.004664	-0.587402	-0.150146	-0.293213
180.0	6.297976	0.026926	7.602846	-0.005256	0.009607	-0.003581	-0.587402	-0.1521	-0.293213
181.0	6.307757	0.023897	7.625328	-0.004919	0.011063	-0.001297	-0.5896	-0.154541	-0.286865
182.0	6.285837	0.029256	7.58232	-0.005256	0.009608	-0.003581	-0.587402	-0.1521	-0.29541
183.0	6.301798	0.046941	7.631748	-0.008376	0.010153	-0.007307	-0.593994	-0.1521	-0.293213
184.0	6.299173	0.002725	7.600372	-0.003471	0.013319	-0.003653	-0.587402	-0.154297	-0.291016
185.0	6.26176	0.022697	7.594041	-0.005256	0.009609	-0.003581	-0.595947	-0.154297	-0.293213
186.0	6.325256	0.02942	7.619058	-0.003642	0.010072	-0.00613	-0.591797	-0.152344	-0.289063
187.0	6.292379	0.025985	7.607482	-0.006566	0.009715	-0.004399	-0.5896	-0.154297	-0.291016
188.0	6.302201	0.02289	7.629924	-0.007373	0.009484	-0.003124	-0.591553	-0.156494	-0.293213
189.0	6.318678	0.052242	7.625994	-0.0064	0.007924	-0.004591	-0.591553	-0.158691	-0.293213
190.0	6.290244	0.025306	7.60925	-0.003306	0.01153	-0.003845	-0.591553	-0.156494	-0.289063
191.0	6.310957	0.031244	7.600336	-0.007038	0.010941	-0.00084	-0.591797	-0.154297	-0.289063
192.0	6.29969	0.033686	7.579097	-0.007709	0.00803	-0.005409	-0.585205	-0.156494	-0.291016
193.0	6.298464	0.021642	7.633014	-0.006732	0.01151	-0.004206	-0.5896	-0.154297	-0.289063
194.0	6.291539	0.000858	7.606694	-0.00445	0.009845	-0.004855	-0.585205	-0.154297	-0.299805
195.0	6.307856	0.030428	7.602913	-0.005925	0.011743	-0.00548	-0.591797	-0.1521	-0.293213
196.0	6.279297	0.00342	7.58626	-0.006733	0.011512	-0.004206	-0.5896	-0.154297	-0.291016
197.0	6.280165	0.047225	7.61907	-0.006066	0.009383	-0.002307	-0.591797	-0.1521	-0.293213
198.0	6.283805	0.023614	7.614574	-0.003307	0.011534	-0.003844	-0.5896	-0.154297	-0.291016
199.0	6.309098	0.006141	7.600411	-0.006708	0.007359	-0.001226	-0.587402	-0.1521	-0.297607
200.0	6.288403	0.043411	7.64281	-0.011941	0.012821	-0.001828	-0.59375	-0.156494	-0.291016
201.0	6.307543	0.005034	7.601704	-0.0064	0.007929	-0.004592	-0.589355	-0.156494	-0.291016
202.0	6.291375	0.019254	7.638864	-0.006567	0.009723	-0.004399	-0.591553	-0.156494	-0.291016
203.0	6.280114	0.021869	7.617623	-0.005258	0.009618	-0.003581	-0.595947	-0.154541	-0.286865
204.0	6.300959	0.027897	7.60864	-0.005259	0.009618	-0.003581	-0.593994	-0.150146	-0.293213
205.0	6.30015	0.027662	7.609311	-0.008042	0.011622	-0.005025	-0.593994	-0.150146	-0.29541
206.0	6.29934	0.027427	7.609982	-0.005259	0.009619	-0.003581	-0.591553	-0.156494	-0.291016
207.0	6.302989	0.003797	7.60548	-0.005426	0.011412	-0.003387	-0.591797	-0.1521	-0.29541
208.0	6.287259	0.029685	7.589429	-0.006376	0.008816	0.001058	-0.589355	-0.156494	-0.297607
209.0	6.27986	-0.003211	7.616338	-0.008043	0.011625	-0.005025	-0.585205	-0.156494	-0.293213
210.0	6.317692	0.032379	7.603088	-0.006734	0.01152	-0.004206	-0.589355	-0.158691	-0.29541
211.0	6.278178	-0.003792	7.617723	-0.007376	0.009495	-0.003126	-0.587402	-0.154297	-0.291016
212.0	6.284086	0.028347	7.592061	-0.006068	0.009389	-0.002307	-0.5896	-0.149902	-0.29541
213.0	6.308693	-0.001206	7.631311	-0.009828	0.012955	-0.002285	-0.587402	-0.1521	-0.29541
214.0	6.30351	0.021867	7.637084	-0.004925	0.006037	-0.003968	-0.587646	-0.147949	-0.29126
215.0	6.275157	-0.005231	7.620212	-0.007711	0.013083	-0.002739	-0.591797	-0.154297	-0.297607
216.0	6.313085	0.030172	7.606923	-0.009327	0.007577	-0.002867	-0.593994	-0.154297	-0.29541
217.0	6.280371	0.026315	7.595142	-0.00557	0.009052	-0.000215	-0.591797	-0.154297	-0.293213
218.0	6.301261	0.032055	7.586171	-0.009494	0.009371	-0.002673	-0.592041	-0.147949	-0.293457
219.0	6.257373	0.019081	7.605859	-0.008186	0.009266	-0.001853	-0.591553	-0.156494	-0.289063
220.0	6.299294	0.019113	7.640569	-0.009327	0.007579	-0.002867	-0.591797	-0.154297	-0.297607
221.0	6.249513	-0.014467	7.633089	-0.009327	0.007579	-0.002867	-0.5896	-0.152344	-0.289063
222.0	6.277256	0.023601	7.597726	-0.010779	0.005319	-0.000516	-0.591797	-0.152344	-0.286865
223.0	6.265773	0.014039	7.629442	-0.007374	0.00446	-0.005802	-0.591797	-0.1521	-0.293213
224.0	6.314666	0.046606	7.637669	-0.010612	0.003526	-0.00071	-0.5896	-0.152344	-0.29126
225.0	6.286837	0.019271	7.620339	-0.006708	0.002327	-0.003904	-0.59375	-0.156494	-0.289063
226.0	6.308201	0.025084	7.610991	-0.008494	0.003654	-0.001164	-0.5896	-0.152344	-0.289063
227.0	6.301969	0.003987	7.584117	-0.008825	0.002201	-0.003451	-0.591797	-0.154297	-0.293213
228.0	6.269026	-0.011679	7.625249	-0.005568	0.004015	-0.002889	-0.591797	-0.1521	-0.29541
229.0	6.302967	0.047317	7.616825	-0.007685	0.003888	-0.002436	-0.5896	-0.150146	-0.29126
230.0	6.296575	0.026413	7.590082	-0.007542	0.006257	-0.005606	-0.591797	-0.150146	-0.286865
231.0	6.316927	0.020414	7.634314	-0.007379	0.009504	-0.003124	-0.585205	-0.1521	-0.297607
232.0	6.310322	-0.00036	7.607747	-0.005424	0.006384	-0.006059	-0.585449	-0.149902	-0.29541
233.0	6.294254	0.013799	7.644733	-0.007044	0.005917	-0.003514	-0.591797	-0.150146	-0.293213
234.0	6.304857	0.02257	7.61377	-0.007212	0.007711	-0.003319	-0.5896	-0.150146	-0.29126
235.0	6.293799	0.025088	7.592389	-0.007212	0.007711	-0.003319	-0.5896	-0.154297	-0.289063
236.0	6.293213	0.024749	7.592876	-0.007212	0.007712	-0.003319	-0.59375	-0.156494	-0.293213
237.0	6.303106	0.021503	7.615222	-0.006714	0.00737	-0.001227	-0.587402	-0.152344	-0.289063
238.0	6.302595	0.021224	7.615646	-0.004926	0.006045	-0.003967	-0.593994	-0.1521	-0.29541
239.0	6.296113	0.000191	7.58898	-0.01095	0.007117	-0.000322	-0.593994	-0.154541	-0.289063
240.0	6.305944	-0.003261	7.611375	-0.00738	0.009507	-0.003124	-0.591797	-0.152344	-0.29126
241.0	6.274709	0.037055	7.631864	-0.006402	0.007948	-0.004591	-0.591797	-0.1521	-0.293213
242.0	6.310664	0.016676	7.639501	-0.008022	0.007479	-0.002047	-0.585205	-0.154297	-0.29541
243.0	6.299567	0.019048	7.618157	-0.008191	0.009274	-0.001851	-0.591553	-0.158691	-0.29541
244.0	6.292945	-0.001858	7.591607	-0.006402	0.00795	-0.004591	-0.591797	-0.154297	-0.29541
245.0	6.298253	0.018461	7.619245	-0.004765	0.009294	-0.001483	-0.587402	-0.150146	-0.29126
246.0	6.297596	0.018108	7.619788	-0.009828	0.007931	-0.00496	-0.5896	-0.150146	-0.29126
247.0	6.292428	0.041318	7.625569	-0.003145	0.009765	-0.004026	-0.585205	-0.154297	-0.289063
248.0	6.300681	-0.005701	7.615731	-0.007381	0.009511	-0.003124	-0.589355	-0.160889	-0.293213
249.0	6.290969	0.0408	7.626775	-0.006074	0.009403	-0.002303	-0.593994	-0.1521	-0.293213
250.0	6.299291	-0.00623	7.616881	-0.005592	0.008187	-0.005863	-0.596191	-0.152344	-0.286865
251.0	6.272586	0.010749	7.632091	-0.005906	0.00761	-0.002499	-0.589844	-0.147949	-0.29541
252.0	6.315229	0.022944	7.613588	-0.005409	0.007267	-0.000406	-0.593994	-0.150146	-0.289063
253.0	6.282609	0.019167	7.601668	-0.008521	0.007826	-0.004141	-0.589355	-0.156494	-0.291016
254.0	6.302901	0.013091	7.645914	-0.004598	0.007503	-0.001678	-0.591797	-0.154297	-0.291016
255.0	6.291759	0.015606	7.624614	-0.007054	0.010965	-0.000835	-0.593994	-0.154297	-0.293213
256.0	6.291756	0.027419	7.571986	-0.006089	0.008534	-0.007956	-0.591797	-0.154297	-0.293213
257.0	6.312003	0.021503	7.616267	-0.007214	0.00772	-0.00332	-0.587402	-0.150146	-0.293213
258.0	6.28981	0.014793	7.626224	-0.009332	0.007593	-0.00287	-0.591553	-0.156494	-0.289063
259.0	6.300411	0.023544	7.595348	-0.005906	0.007612	-0.002499	-0.587402	-0.154297	-0.289063
260.0	6.278223	0.016856	7.605297	-0.009332	0.007594	-0.00287	-0.591553	-0.158691	-0.293213
261.0	6.299191	0.022617	7.596363	-0.008194	0.009281	-0.001852	-0.591553	-0.156494	-0.29541
262.0	6.291931	-0.010284	7.622957	-0.004926	0.006054	-0.003967	-0.593994	-0.1521	-0.29541
263.0	6.308438	0.019167	7.619227	-0.007383	0.009517	-0.003124	-0.593994	-0.154297	-0.29541
264.0	6.264698	0.006177	7.638572	-0.008994	0.004006	-0.003264	-0.589355	-0.158691	-0.293213
265.0	6.275515	0.01498	7.607535	-0.005738	0.005819	-0.002696	-0.596191	-0.1521	-0.29541
266.0	6.263942	0.00552	7.639193	-0.006876	0.004133	-0.003714	-0.591797	-0.150146	-0.293213
267.0	6.302354	0.041073	7.625775	-0.008498	0.003662	-0.001172	-0.594238	-0.147949	-0.29541
268.0	6.311103	-0.006348	7.615515	-0.009805	0.003771	-0.001993	-0.5896	-0.1521	-0.293213
269.0	6.30039	-0.003998	7.59387	-0.008994	0.004007	-0.003264	-0.5896	-0.149902	-0.297607
270.0	6.300081	-0.004381	7.594127	-0.006876	0.004135	-0.003714	-0.589355	-0.156494	-0.29541
271.0	6.320546	-0.010629	7.638208	-0.008668	0.005458	-0.000974	-0.591553	-0.156494	-0.293213
272.0	6.283701	0.008957	7.631267	-0.006706	0.00234	-0.003911	-0.589355	-0.158691	-0.29541
273.0	6.320709	0.000801	7.585498	-0.007542	0.006276	-0.005609	-0.5896	-0.152344	-0.29126
274.0	6.298694	-0.005654	7.595276	-0.004757	0.004263	-0.004163	-0.593994	-0.154297	-0.29126
275.0	6.315399	0.023846	7.591414	-0.007046	0.005931	-0.003516	-0.585205	-0.1521	-0.291016
276.0	6.282127	0.008024	7.632564	-0.007046	0.005932	-0.003516	-0.59375	-0.156494	-0.291016
277.0	6.314442	0.023161	7.592212	-0.00672	0.007381	-0.001226	-0.591797	-0.154297	-0.293213
278.0	6.292233	0.016614	7.602143	-0.005593	0.008201	-0.005861	-0.595947	-0.158691	-0.29541
279.0	6.302228	0.013732	7.624376	-0.002469	0.002597	-0.00481	-0.5896	-0.1521	-0.29541
280.0	6.31304	0.022931	7.593378	-0.005098	0.007855	-0.003768	-0.5896	-0.152344	-0.29126
281.0	6.273741	-0.013356	7.607473	-0.008524	0.007838	-0.004141	-0.587158	-0.158691	-0.293213
282.0	6.322326	0.019424	7.616202	-0.005739	0.005824	-0.002695	-0.591553	-0.158691	-0.29541
283.0	6.289786	0.01582	7.604169	-0.005098	0.007856	-0.003768	-0.583252	-0.150146	-0.29126
284.0	6.299583	0.012731	7.626563	-0.006405	0.007966	-0.00459	-0.587402	-0.156494	-0.299805
285.0	6.298993	0.012389	7.627051	-0.008029	0.007492	-0.002049	-0.591797	-0.1521	-0.293213
286.0	6.276993	0.005796	7.636789	-0.004587	0.002471	-0.004361	-0.587402	-0.154297	-0.29541
287.0	6.298502	0.011858	7.627457	-0.008655	0.00042	-0.003663	-0.591797	-0.1521	-0.293213
288.0	6.305017	0.044041	7.601556	-0.008996	0.004012	-0.003267	-0.596191	-0.150146	-0.29126
289.0	6.287649	0.013703	7.60594	-0.010619	0.003538	-0.000726	-0.5896	-0.154297	-0.289063
290.0	6.302368	-0.013205	7.622736	-0.007518	0.002107	-0.002643	-0.5896	-0.152344	-0.29126
291.0	6.302131	-0.013553	7.622932	-0.006877	0.00414	-0.003715	-0.5896	-0.1521	-0.293213
292.0	6.297205	0.009543	7.628531	-0.007047	0.005936	-0.003516	-0.589355	-0.156494	-0.291016
293.0	6.319218	0.027658	7.566275	-0.007859	0.005699	-0.002246	-0.5896	-0.154297	-0.297607
294.0	6.322477	-0.00821	7.614571	-0.004928	0.006064	-0.003964	-0.59375	-0.156494	-0.293213
295.0	6.295909	0.008702	7.629602	-0.007372	0.004489	-0.005808	-0.594238	-0.145752	-0.289063
296.0	6.306662	0.017738	7.59869	-0.007714	0.008081	-0.005411	-0.587646	-0.147949	-0.293213
297.0	6.288988	-0.01228	7.603308	-0.007219	0.007733	-0.003318	-0.5896	-0.150146	-0.29126
298.0	6.315852	0.014269	7.621583	-0.0051	0.007861	-0.003766	-0.596191	-0.150146	-0.289063
299.0	6.315321	0.014131	7.622023	-0.004929	0.006066	-0.003964	-0.592041	-0.147949	-0.297607
300.0	6.276887	-0.009881	7.582827	-0.005271	0.009658	-0.003567	-0.593994	-0.154297	-0.297607
301.0	6.303618	0.016691	7.601218	-0.004776	0.00931	-0.001474	-0.591797	-0.152344	-0.29126
302.0	6.307516	-0.007055	7.596469	-0.009833	0.007956	-0.004964	-0.59375	-0.156494	-0.289063
303.0	6.324065	0.02235	7.592801	-0.004434	0.005719	-0.001872	-0.5896	-0.149902	-0.29541
304.0	6.301906	0.015969	7.602639	-0.003475	0.00834	-0.006306	-0.587158	-0.156494	-0.29541
305.0	6.301235	0.015782	7.603196	-0.008203	0.009294	-0.00185	-0.587402	-0.1521	-0.293213
306.0	6.305078	-0.008046	7.598491	-0.007391	0.009533	-0.00312	-0.5896	-0.1521	-0.29541
307.0	6.310226	0.012146	7.626245	-0.0051	0.007865	-0.003766	-0.5896	-0.152344	-0.289063
308.0	6.314184	-0.01142	7.621445	-0.006407	0.007976	-0.004589	-0.587158	-0.156494	-0.291016
309.0	6.303141	-0.00857	7.600098	-0.003153	0.009789	-0.004013	-0.591797	-0.154297	-0.29541
310.0	6.286501	0.005292	7.637359	-0.010177	0.011552	-0.004567	-0.5896	-0.1521	-0.293213
311.0	6.318655	0.020614	7.597308	-0.005101	0.007866	-0.003766	-0.5896	-0.154297	-0.29541
312.0	6.311374	-0.012362	7.62377	-0.006726	0.007389	-0.001226	-0.591797	-0.1521	-0.297607
313.0	6.295933	0.013693	7.60759	-0.004929	0.006071	-0.003965	-0.591797	-0.152344	-0.29126
314.0	6.289616	-0.007004	7.580811	-0.008527	0.00785	-0.004143	-0.591797	-0.154297	-0.289063
315.0	6.29481	0.013072	7.608521	-0.007221	0.00774	-0.003319	-0.591553	-0.158691	-0.293213
316.0	6.282865	0.003483	7.640351	-0.00658	0.009776	-0.004389	-0.587646	-0.149902	-0.297607
317.0	6.303828	0.009555	7.631538	-0.007221	0.007741	-0.003319	-0.5896	-0.1521	-0.293213
318.0	6.319076	-0.004719	7.595455	-0.005595	0.008219	-0.005858	-0.5896	-0.154297	-0.297607
319.0	6.29231	0.012264	7.61059	-0.005423	0.006423	-0.006058	-0.591797	-0.150146	-0.293213
320.0	6.297608	0.032521	7.638208	-0.007049	0.005945	-0.003519	-0.591553	-0.158691	-0.293213
321.0	6.291317	0.011881	7.611411	-0.003795	0.007759	-0.002941	-0.5896	-0.1521	-0.297607
322.0	6.295376	-0.011712	7.606527	-0.007049	0.005945	-0.003519	-0.583008	-0.154297	-0.297607
323.0	6.300677	0.00847	7.634141	-0.006236	0.006185	-0.004789	-0.5896	-0.1521	-0.297607
324.0	6.289871	0.011183	7.612608	-0.00705	0.005946	-0.003519	-0.591797	-0.152344	-0.29126
325.0	6.289281	0.010842	7.613095	-0.007394	0.00954	-0.00312	-0.593994	-0.152344	-0.29126
326.0	6.2934	-0.012808	7.60816	-0.007198	0.002704	-0.006013	-0.591797	-0.152344	-0.29126
327.0	6.288348	0.010305	7.613867	-0.007395	0.009541	-0.003119	-0.591797	-0.152344	-0.289063
328.0	6.304923	0.039886	7.610238	-0.005078	0.002833	-0.006458	-0.587646	-0.147949	-0.29126
329.0	6.292077	-0.013575	7.609253	-0.010156	0.007376	-0.001605	-0.589844	-0.147949	-0.29126
330.0	6.313207	-0.007691	7.600331	-0.00705	0.005948	-0.00352	-0.587402	-0.154297	-0.293213
331.0	6.323149	-0.010887	7.622576	-0.006064	0.004391	-0.004989	-0.592041	-0.147949	-0.297607
332.0	6.290785	-0.014531	7.610319	-0.00705	0.005949	-0.00352	-0.587402	-0.150146	-0.293213
333.0	6.329013	0.021295	7.597354	-0.00705	0.005949	-0.00352	-0.585205	-0.1521	-0.293213
334.0	6.275004	0.011339	7.594436	-0.005251	0.004632	-0.006258	-0.595947	-0.154297	-0.293213
335.0	6.316899	0.011624	7.629279	-0.007051	0.005949	-0.00352	-0.587402	-0.154297	-0.289063
336.0	6.284523	0.008142	7.617027	-0.003131	0.004761	-0.006702	-0.5896	-0.150146	-0.293213
337.0	6.299876	-0.005919	7.580902	-0.00789	0.009896	-0.005212	-0.592041	-0.147949	-0.293457
338.0	6.304981	0.014334	7.608675	-0.005424	0.006431	-0.006057	-0.598145	-0.156494	-0.293213
339.0	6.282861	0.00784	7.618398	-0.006238	0.006191	-0.004789	-0.5896	-0.154541	-0.286865
340.0	6.304032	0.014083	7.609462	-0.004931	0.006079	-0.003964	-0.591797	-0.150146	-0.29126
341.0	6.340147	-0.006066	7.617101	-0.005745	0.005839	-0.002696	-0.587646	-0.149902	-0.29541
342.0	6.282392	0.019628	7.566441	-0.00821	0.008453	-0.007506	-0.591797	-0.1521	-0.29541
343.0	6.307004	-0.009704	7.605478	-0.003477	0.008358	-0.0063	-0.589355	-0.158691	-0.293213
344.0	6.296087	-0.006879	7.584048	-0.006733	0.007396	-0.001226	-0.5896	-0.150146	-0.286865
345.0	6.295499	-0.0071	7.584536	-0.004291	0.008119	-0.005032	-0.5896	-0.150146	-0.289063
346.0	6.315577	-0.013075	7.628848	-0.005424	0.006434	-0.006058	-0.584961	-0.158447	-0.299805
347.0	6.32174	0.019563	7.603412	-0.006412	0.007991	-0.004588	-0.5896	-0.1521	-0.29541
348.0	6.288227	0.003587	7.644403	-0.006238	0.006194	-0.004789	-0.591553	-0.160889	-0.288818
349.0	6.299085	0.012799	7.613559	-0.006238	0.006194	-0.004789	-0.587402	-0.152344	-0.289063
350.0	6.310033	0.022005	7.582646	-0.004266	0.003931	-0.002072	-0.591553	-0.158691	-0.286865
351.0	6.313197	-0.01405	7.630816	-0.006734	0.007397	-0.001226	-0.5896	-0.152344	-0.289063
352.0	6.287316	0.014883	7.592841	-0.0074	0.009549	-0.003118	-0.5896	-0.152344	-0.29126
353.0	6.327918	-0.02867	7.595261	-0.004932	0.006083	-0.003964	-0.587158	-0.156494	-0.291016
354.0	6.29088	-0.008878	7.588367	-0.006238	0.006196	-0.004789	-0.5896	-0.1521	-0.293213
355.0	6.322225	-0.005624	7.601503	-0.00528	0.009679	-0.003561	-0.593994	-0.152344	-0.29126
356.0	6.289612	-0.009217	7.589417	-0.005106	0.007882	-0.003763	-0.591553	-0.156494	-0.29541
357.0	6.299437	-0.0124	7.611743	-0.008676	0.004624	-0.006642	-0.5896	-0.152344	-0.29126
358.0	6.294344	0.01072	7.617482	-0.004615	0.007528	-0.001669	-0.591797	-0.152344	-0.29126
359.0	6.305236	0.01991	7.586642	-0.00737	0.004512	-0.005816	-0.5896	-0.1521	-0.293213
360.0	6.320714	0.037073	7.63627	-0.007719	0.008108	-0.005413	-0.592041	-0.145752	-0.29126
361.0	6.287163	-0.010505	7.591444	-0.007551	0.007158	4.1e-05	-0.591797	-0.154297	-0.293213
362.0	6.313971	0.015843	7.609874	-0.007053	0.005957	-0.003522	-0.587402	-0.152344	-0.289063
363.0	6.313507	0.0156	7.610258	-0.006239	0.006199	-0.00479	-0.593994	-0.1521	-0.29541
364.0	6.301764	0.005875	7.641792	-0.007694	0.003918	-0.002456	-0.585449	-0.150146	-0.29126
365.0	6.307112	-0.005461	7.583573	-0.005256	0.00549	-0.000603	-0.593994	-0.1521	-0.29541
366.0	6.317071	-0.008581	7.605783	-0.005566	0.003201	-0.008555	-0.5896	-0.149902	-0.29541
367.0	6.32237	0.011682	7.633379	-0.007054	0.005958	-0.003522	-0.591553	-0.156494	-0.29541
368.0	6.316344	-0.009075	7.606387	-0.009	0.004031	-0.003282	-0.5896	-0.152344	-0.29126
369.0	6.301021	0.017173	7.590149	-0.000692	0.006346	-0.004848	-0.593994	-0.154297	-0.29126
370.0	6.283602	-0.012474	7.594389	-0.003944	0.004532	-0.005434	-0.5896	-0.152344	-0.29126
371.0	6.321839	0.023765	7.581571	-0.005425	0.006443	-0.006057	-0.587402	-0.150146	-0.293213
372.0	6.314711	-0.009096	7.607742	-0.004759	0.00429	-0.004166	-0.591553	-0.156494	-0.289063
373.0	6.288014	0.007683	7.622713	-0.00624	0.006202	-0.004789	-0.5896	-0.152344	-0.29126
374.0	6.324181	-0.012324	7.630354	-0.00525	0.004646	-0.006259	-0.5896	-0.154297	-0.29541
375.0	6.29843	0.016854	7.5923	-0.007405	0.009556	-0.003117	-0.591553	-0.156494	-0.293213
376.0	6.318541	0.010577	7.63655	-0.004093	0.002137	-0.002275	-0.593994	-0.1521	-0.29541
377.0	6.329542	0.019798	7.605661	-0.005924	0.007645	-0.002494	-0.593994	-0.1521	-0.293213
378.0	6.32339	-0.000805	7.578782	-0.007546	0.006316	-0.005616	-0.589844	-0.147949	-0.29126
379.0	6.311473	-0.010446	7.610427	-0.005109	0.007889	-0.003761	-0.589844	-0.145752	-0.289063
380.0	6.290397	-0.004567	7.566983	-0.004934	0.006091	-0.003964	-0.594238	-0.147949	-0.293457
381.0	6.317065	0.021961	7.585555	-0.008712	0.009671	-0.003943	-0.591797	-0.1521	-0.293213
382.0	6.305219	0.012254	7.617133	-0.004583	0.002495	-0.004369	-0.591797	-0.150146	-0.289063
383.0	6.304833	0.011952	7.617453	-0.009352	0.007631	-0.002878	-0.5896	-0.152344	-0.289063
384.0	6.304242	0.011611	7.617943	-0.00511	0.00789	-0.003761	-0.587646	-0.149902	-0.29541
385.0	6.303723	0.011306	7.618373	-0.007871	0.00572	-0.002255	-0.591797	-0.152344	-0.29126
386.0	6.319328	-0.002979	7.582168	-0.008361	0.006077	-0.004349	-0.593994	-0.150146	-0.293213
387.0	6.307535	-0.012614	7.613688	-0.003944	0.004538	-0.005434	-0.585205	-0.154297	-0.29541
388.0	6.296869	-0.009757	7.592077	-0.008362	0.006077	-0.004349	-0.591797	-0.154297	-0.291016
389.0	6.328324	-0.006554	7.605169	-0.004935	0.006094	-0.003963	-0.587402	-0.154297	-0.29541
390.0	6.296	-0.010065	7.592797	-0.005249	0.004652	-0.00626	-0.589355	-0.160889	-0.293213
391.0	6.301184	0.010103	7.620474	-0.007056	0.005964	-0.003523	-0.594238	-0.147949	-0.293457
392.0	6.322376	0.016446	7.611627	-0.002814	0.006224	-0.004404	-0.591797	-0.154297	-0.293213
393.0	6.311713	0.019426	7.590016	-0.006065	0.00441	-0.004993	-0.591797	-0.154297	-0.29541
394.0	6.337578	0.002404	7.575778	-0.005111	0.007893	-0.00376	-0.59375	-0.156494	-0.293213
395.0	6.293657	-0.01062	7.594738	-0.004296	0.008137	-0.005027	-0.591797	-0.150146	-0.29126
396.0	6.310022	0.019095	7.591423	-0.006417	0.008008	-0.004587	-0.5896	-0.150146	-0.289063
397.0	6.319801	0.0159	7.613766	-0.006065	0.004411	-0.004993	-0.5896	-0.1521	-0.293213
398.0	6.323809	-0.007632	7.608923	-0.005641	0.013291	-0.003149	-0.5896	-0.154297	-0.289063
399.0	6.306889	0.006158	7.646181	-0.00348	0.008383	-0.006293	-0.5896	-0.150146	-0.29126
400.0	6.312202	-0.004699	7.588102	-0.004446	0.005738	-0.00187	-0.592041	-0.147949	-0.293457
401.0	6.317161	0.015467	7.615958	-0.005778	0.010053	-0.00565	-0.589355	-0.156494	-0.297607
402.0	6.300675	-0.001962	7.567215	-0.006418	0.00801	-0.004587	-0.591797	-0.154297	-0.29541
403.0	6.315793	0.015113	7.617093	-0.006595	0.00981	-0.004383	-0.5896	-0.150146	-0.293213
404.0	6.304883	0.017977	7.595694	-0.003807	0.007783	-0.002933	-0.5896	-0.1521	-0.29541
405.0	6.297495	-0.015092	7.62199	-0.006105	0.009452	-0.00229	-0.587402	-0.1521	-0.29126
406.0	6.318483	-0.008793	7.613345	-0.005602	0.008256	-0.005854	-0.591553	-0.156494	-0.289063
407.0	6.307736	-0.006042	7.591813	-0.006079	0.005251	0.000663	-0.59375	-0.156494	-0.29541
408.0	6.302323	0.016978	7.597821	-0.006133	0.013655	-0.005242	-0.589355	-0.158691	-0.286865
409.0	6.338094	-0.003046	7.605852	-0.005113	0.007899	-0.00376	-0.592041	-0.147949	-0.289063
410.0	6.315828	-0.00969	7.615546	-0.005113	0.007899	-0.00376	-0.587158	-0.156494	-0.293213
411.0	6.336875	-0.003323	7.606868	-0.006907	0.008373	-0.006681	-0.591797	-0.150146	-0.29126
412.0	6.272398	-0.010313	7.581903	-0.004474	0.009944	-0.004822	-0.593994	-0.150146	-0.293213
413.0	6.320565	0.022843	7.591475	-0.007724	0.008129	-0.005415	-0.5896	-0.150146	-0.29126
414.0	6.292768	-0.004059	7.573792	-0.002992	0.008031	-0.004199	-0.591797	-0.154297	-0.291016
415.0	6.297677	0.016182	7.601673	-0.005114	0.007901	-0.00376	-0.591553	-0.156494	-0.29541
416.0	6.311993	-0.010391	7.618724	-0.007724	0.00813	-0.005416	-0.591797	-0.154297	-0.291016
417.0	6.30661	0.012636	7.624702	-0.007413	0.009571	-0.003118	-0.593994	-0.154297	-0.293213
418.0	6.300381	-0.008002	7.597917	-0.006108	0.009456	-0.00229	-0.591797	-0.150146	-0.29126
419.0	6.321459	-0.001717	7.589233	-0.004936	0.006103	-0.003964	-0.591797	-0.1521	-0.293213
420.0	6.294549	0.014994	7.604266	-0.003809	0.007788	-0.002932	-0.5896	-0.154297	-0.29541
421.0	6.304024	0.011795	7.626841	-0.005469	0.011502	-0.003351	-0.5896	-0.149902	-0.29541
422.0	6.297926	-0.008787	7.599951	-0.009491	0.004403	-0.005387	-0.591797	-0.150146	-0.293213
423.0	6.29744	-0.008912	7.600353	-0.003481	0.008395	-0.006292	-0.5896	-0.150146	-0.289063
424.0	6.296968	-0.009085	7.600744	-0.009003	0.004043	-0.003294	-0.596191	-0.147949	-0.29126
425.0	6.274979	-0.015889	7.610168	-0.004759	0.004305	-0.004169	-0.591797	-0.152344	-0.289063
426.0	6.31327	0.020352	7.59755	-0.006064	0.00442	-0.004997	-0.593994	-0.1521	-0.29541
427.0	6.296007	-0.00976	7.601539	-0.006393	0.003814	-0.001638	-0.587402	-0.152344	-0.286865
428.0	6.295617	-0.009967	7.601862	-0.005425	0.006466	-0.006058	-0.589355	-0.156494	-0.291016
429.0	6.322365	0.016696	7.62044	-0.005576	0.00406	-0.002903	-0.59375	-0.158691	-0.29541
430.0	6.30504	-0.013528	7.624475	-0.009181	0.005844	-0.00309	-0.591797	-0.152344	-0.289063
431.0	6.299908	0.009639	7.630245	-0.003125	0.004798	-0.0067	-0.5896	-0.150146	-0.29126
432.0	6.315774	-0.004256	7.593964	-0.009003	0.004045	-0.003295	-0.5896	-0.1521	-0.29541
433.0	6.315462	-0.004637	7.594223	-0.006881	0.004176	-0.003732	-0.589844	-0.147949	-0.293213
434.0	6.293403	-0.011466	7.603692	-0.00706	0.005976	-0.003527	-0.593994	-0.150146	-0.29541
435.0	6.304428	-0.002193	7.572949	-0.00706	0.005976	-0.003527	-0.5896	-0.1521	-0.293213
436.0	6.309495	0.017845	7.600691	-0.006064	0.004423	-0.004997	-0.587402	-0.154297	-0.293213
437.0	6.302274	-0.015245	7.626758	-0.006421	0.008023	-0.004587	-0.585205	-0.1521	-0.291016
438.0	6.318792	0.014619	7.623407	-0.002946	0.003001	-0.006905	-0.5896	-0.154541	-0.286865
439.0	6.312942	-0.005756	7.596318	-0.006751	0.007416	-0.001228	-0.589844	-0.147949	-0.293213
440.0	6.303001	0.040764	7.607595	-0.003125	0.004802	-0.0067	-0.589844	-0.145752	-0.286865
441.0	6.29039	-0.012508	7.606184	-0.008365	0.006093	-0.004356	-0.589844	-0.147949	-0.293213
442.0	6.296673	0.020173	7.580905	-0.004938	0.006109	-0.003964	-0.591797	-0.152344	-0.284668
443.0	6.306312	0.017019	7.603334	-0.005605	0.008272	-0.005852	-0.591797	-0.150146	-0.286865
444.0	6.284089	0.010383	7.61292	-0.004939	0.00611	-0.003964	-0.593994	-0.150146	-0.289063
445.0	6.341894	-0.002966	7.611577	-0.004121	0.006357	-0.005229	-0.591797	-0.1521	-0.297607
446.0	6.299318	-0.003543	7.5772	-0.00724	0.007779	-0.003322	-0.5896	-0.150146	-0.286865
447.0	6.294048	0.019449	7.583086	-0.007061	0.005979	-0.003528	-0.5896	-0.150146	-0.29126
448.0	6.318691	-0.010129	7.621973	-0.002817	0.006242	-0.0044	-0.591797	-0.150146	-0.293213
449.0	6.33983	-0.003741	7.613297	-0.008545	0.007896	-0.004151	-0.593994	-0.1521	-0.293213
450.0	6.292447	0.018893	7.584416	-0.005118	0.007912	-0.003758	-0.5896	-0.154297	-0.289063
451.0	6.313588	0.025286	7.575743	-0.006244	0.006228	-0.004793	-0.593994	-0.1521	-0.29541
452.0	6.317821	0.001644	7.570721	-0.008059	0.007534	-0.002057	-0.591797	-0.152344	-0.29126
453.0	6.315898	-0.011255	7.624286	-0.001691	0.007929	-0.003364	-0.587158	-0.156494	-0.291016
454.0	6.290195	0.01803	7.586286	-0.00985	0.008014	-0.004981	-0.591797	-0.149902	-0.29541
455.0	6.304508	-0.008699	7.603316	-0.007728	0.008146	-0.005416	-0.591797	-0.1521	-0.293213
456.0	6.331066	0.017867	7.622091	-0.004453	0.00575	-0.00187	-0.593994	-0.150146	-0.289063
457.0	6.308236	-0.03248	7.598708	-0.004632	0.007551	-0.001664	-0.592041	-0.147949	-0.293457
458.0	6.298184	0.013913	7.610075	-0.007549	0.006346	-0.005623	-0.5896	-0.154297	-0.293213
459.0	6.329489	0.017119	7.623402	-0.007242	0.007784	-0.003322	-0.5896	-0.152344	-0.289063
460.0	6.286887	0.016464	7.589031	-0.005119	0.007916	-0.003757	-0.587402	-0.1521	-0.293213
461.0	6.312735	-0.000432	7.574962	-0.005119	0.007916	-0.003757	-0.585205	-0.1521	-0.293213
462.0	6.300606	-0.010374	7.606548	-0.009851	0.008017	-0.004982	-0.596191	-0.150146	-0.293213
463.0	6.27977	-0.004537	7.563008	-0.004453	0.005752	-0.00187	-0.5896	-0.150146	-0.293213
464.0	6.338151	0.025518	7.594705	-0.007729	0.00815	-0.005417	-0.589355	-0.156494	-0.289063
465.0	6.299012	-0.01124	7.607866	-0.008367	0.006101	-0.004359	-0.591797	-0.150146	-0.293213
466.0	6.32155	0.007731	7.54615	-0.007243	0.007786	-0.003322	-0.593994	-0.154297	-0.29126
467.0	6.293123	0.011397	7.614265	-0.005938	0.00767	-0.002493	-0.596191	-0.150146	-0.29541
468.0	6.307467	-0.015389	7.631255	-0.008061	0.007539	-0.002058	-0.595947	-0.156494	-0.29541
469.0	6.308279	-0.00302	7.578673	-0.005939	0.007671	-0.002493	-0.591797	-0.154297	-0.291016
470.0	6.313189	0.016859	7.606524	-0.009491	0.004419	-0.005396	-0.593994	-0.154541	-0.289063
471.0	6.30126	0.006883	7.637915	-0.004454	0.005754	-0.001869	-0.592041	-0.147949	-0.29126
472.0	6.312272	0.016324	7.607286	-0.007729	0.008154	-0.005417	-0.591797	-0.154297	-0.291016
473.0	6.301012	-0.024376	7.552783	-0.007063	0.005988	-0.003529	-0.593994	-0.149902	-0.297607
474.0	6.294372	-0.014161	7.6117	-0.007063	0.005988	-0.003529	-0.596191	-0.1521	-0.293213
475.0	6.327221	0.001809	7.571884	-0.006883	0.004187	-0.003736	-0.5896	-0.150146	-0.29126
476.0	6.293599	-0.014765	7.612339	-0.007063	0.005989	-0.003529	-0.593994	-0.152344	-0.29126
477.0	6.314777	-0.008552	7.603692	-0.006759	0.007424	-0.001228	-0.593994	-0.152344	-0.29126
478.0	6.282511	-0.012404	7.591131	-0.006883	0.004188	-0.003737	-0.591797	-0.154297	-0.29541
479.0	6.299144	0.017358	7.58778	-0.005065	0.002885	-0.006472	-0.591797	-0.154297	-0.289063
480.0	6.313775	-0.008941	7.604523	-0.003122	0.004818	-0.006698	-0.591553	-0.158691	-0.286865
481.0	6.303724	0.037511	7.615901	-0.008064	0.007542	-0.002058	-0.593994	-0.152344	-0.29126
482.0	6.291097	-0.015992	7.614404	-0.004941	0.006122	-0.003963	-0.591797	-0.152344	-0.29126
483.0	6.307518	0.01385	7.611234	-0.004122	0.006371	-0.005227	-0.594238	-0.147949	-0.29541
484.0	6.321966	-0.012608	7.628127	-0.004941	0.006122	-0.003963	-0.591553	-0.158691	-0.291016
485.0	6.316685	0.010706	7.634027	-0.003303	0.006621	-0.00649	-0.591797	-0.150146	-0.293213
486.0	6.300659	-0.006331	7.585007	-0.005608	0.008291	-0.00585	-0.591797	-0.150146	-0.293213
487.0	6.300063	-0.006577	7.585501	-0.006761	0.007426	-0.001228	-0.591797	-0.154297	-0.299805
488.0	6.321299	-5e-05	7.57683	-0.000514	0.004586	-0.005037	-0.587402	-0.1521	-0.293213
489.0	6.277374	-0.013213	7.595378	-0.005304	0.009727	-0.003548	-0.591797	-0.150146	-0.289063
490.0	6.325386	0.020167	7.605355	-0.003485	0.008425	-0.006283	-0.587402	-0.154297	-0.291016
491.0	6.302553	-0.029865	7.581923	-0.004304	0.008176	-0.005019	-0.596191	-0.150146	-0.289063
492.0	6.302517	0.013549	7.615376	-0.004942	0.006124	-0.003963	-0.593994	-0.154297	-0.293213
493.0	6.312093	0.010277	7.637824	-0.006427	0.008044	-0.004587	-0.596191	-0.1521	-0.293213
494.0	6.291803	0.059466	7.627293	-0.007916	0.006561	0.003392	-0.591797	-0.1521	-0.29541
495.0	6.340109	0.091549	7.637061	-0.017867	0.003731	0.007441	-0.587402	-0.150146	-0.29126
496.0	6.341402	0.101853	7.584202	-0.026061	0.001235	0.020074	-0.591797	-0.1521	-0.293213
497.0	6.293762	-0.027521	7.642528	-0.032157	0.0065	0.020732	-0.5896	-0.150146	-0.293213
498.0	6.343598	0.015048	7.599248	-0.029188	0.002664	0.021977	-0.591797	-0.152344	-0.29126
499.0	6.338014	-0.008957	7.571946	-0.036226	0.004447	0.021388	-0.591797	-0.152344	-0.289063
500.0	6.329181	0.119645	7.649472	-0.047699	0.004368	0.030472	-0.591797	-0.1521	-0.293213
501.0	6.348948	0.062967	7.66037	-0.071352	-0.006108	0.044456	-0.594238	-0.147949	-0.29126
502.0	6.329242	0.060646	7.616033	-0.082464	-0.006357	0.044521	-0.591797	-0.149902	-0.29541
503.0	6.334385	0.0277	7.610184	-0.086965	-0.003156	0.056917	-0.591797	-0.150146	-0.293213
504.0	6.344044	-0.029242	7.598836	-0.091887	-0.0012	0.055898	-0.591797	-0.149902	-0.29541
505.0	6.365732	-0.033495	7.589813	-0.095538	0.001448	0.061372	-0.5896	-0.149902	-0.29541
506.0	6.378501	0.050973	7.62556	-0.108512	0.003358	0.069837	-0.594238	-0.145752	-0.289063
507.0	6.449517	0.119107	7.659959	-0.14621	0.004875	0.087881	-0.592041	-0.147949	-0.29126
508.0	6.422034	0.073757	7.641775	-0.183926	0.006465	0.105924	-0.592041	-0.143555	-0.29126
509.0	6.439876	0.095278	7.586583	-0.197336	0.017147	0.117567	-0.587646	-0.143555	-0.29126
510.0	6.35907	-0.014663	7.66502	-0.212387	0.023141	0.134657	-0.596436	-0.143555	-0.293457
511.0	6.277317	-0.197754	7.623224	-0.201542	0.030367	0.137566	-0.596436	-0.145752	-0.29126
512.0	6.258764	-0.237091	7.575241	-0.188527	0.04112	0.131483	-0.592285	-0.137207	-0.295654
513.0	6.224856	-0.384298	7.543018	-0.171954	0.028252	0.123327	-0.592285	-0.137207	-0.297607
514.0	6.229966	-0.32723	7.553731	-0.140083	0.043495	0.113861	-0.590332	-0.13501	-0.299805
515.0	6.298569	-0.262907	7.591186	-0.134349	0.036843	0.110833	-0.590088	-0.137207	-0.295654
516.0	6.32219	-0.325677	7.491753	-0.142402	0.044637	0.108848	-0.592285	-0.13916	-0.295654
517.0	6.324321	-0.252372	7.643095	-0.13408	0.046955	0.107367	-0.588135	-0.136963	-0.297607
518.0	6.441797	-0.157171	7.69212	-0.15876	0.05013	0.11945	-0.594727	-0.132813	-0.297852
519.0	6.353936	-0.175049	7.625041	-0.176996	0.057121	0.121696	-0.594727	-0.13501	-0.297852
520.0	6.409724	-0.248803	7.673078	-0.17785	0.057562	0.13973	-0.594727	-0.132813	-0.29126
521.0	6.204851	-0.3613	7.587335	-0.169008	0.068021	0.134602	-0.590576	-0.130615	-0.299805
522.0	6.262591	-0.500129	7.594701	-0.17081	0.063716	0.12888	-0.590576	-0.130615	-0.302002
523.0	6.278963	-0.513813	7.589253	-0.15129	0.065294	0.121725	-0.590576	-0.126221	-0.304199
524.0	6.215406	-0.517613	7.594266	-0.142842	0.066042	0.108929	-0.595215	-0.12207	-0.297852
525.0	6.21836	-0.580523	7.584939	-0.126982	0.065447	0.093374	-0.592773	-0.124268	-0.300049
526.0	6.220931	-0.561728	7.563981	-0.119754	0.061	0.088043	-0.59082	-0.121826	-0.306396
527.0	6.181742	-0.593001	7.606175	-0.118883	0.060564	0.081114	-0.597412	-0.119873	-0.304443
528.0	6.150933	-0.589426	7.623885	-0.106366	0.049651	0.070624	-0.586426	-0.119873	-0.297852
529.0	6.145388	-0.642566	7.59151	-0.083586	0.04879	0.055919	-0.588623	-0.12207	-0.300049
530.0	6.12381	-0.680755	7.595881	-0.065427	0.042079	0.042572	-0.593018	-0.119873	-0.300049
531.0	6.143895	-0.639062	7.624348	-0.049716	0.038895	0.030137	-0.595215	-0.121826	-0.308594
532.0	6.15187	-0.674992	7.560889	-0.034519	0.031836	0.018465	-0.592773	-0.126221	-0.302002
533.0	6.07956	-0.673522	7.594366	-0.017022	0.02303	0.006129	-0.588867	-0.117676	-0.302246
534.0	6.078236	-0.754399	7.606531	0.000161	0.017842	-0.005712	-0.586426	-0.121826	-0.304199
535.0	6.052725	-0.762309	7.534772	0.026772	-0.001886	-0.028958	-0.586426	-0.119873	-0.297852
536.0	6.059424	-0.81861	7.574046	0.049238	-0.01351	-0.045957	-0.592773	-0.126221	-0.302002
537.0	6.142153	-0.696995	7.587284	0.075282	-0.021989	-0.059956	-0.593018	-0.124023	-0.304199
538.0	6.110104	-0.623831	7.613983	0.083546	-0.033102	-0.069609	-0.593018	-0.117676	-0.297852
539.0	6.217849	-0.530808	7.663365	0.087055	-0.038925	-0.077689	-0.594971	-0.124023	-0.302246
540.0	6.239169	-0.489695	7.659117	0.085757	-0.043735	-0.081346	-0.588379	-0.126221	-0.304199
541.0	6.22468	-0.427402	7.647585	0.084136	-0.044924	-0.084513	-0.595215	-0.119873	-0.302246
542.0	6.277423	-0.505783	7.632957	0.096889	-0.048644	-0.08417	-0.592773	-0.128418	-0.295654
543.0	6.224952	-0.436339	7.666515	0.094126	-0.051475	-0.088412	-0.595215	-0.12207	-0.300049
544.0	6.2578	-0.425866	7.59623	0.093376	-0.052705	-0.081724	-0.588379	-0.126221	-0.304199
545.0	6.228553	-0.430451	7.632203	0.094704	-0.062847	-0.08651	-0.597168	-0.126465	-0.297852
546.0	6.254621	-0.453292	7.585365	0.104182	-0.068251	-0.086825	-0.588379	-0.130615	-0.302002
547.0	6.255837	-0.416768	7.587832	0.10416	-0.068175	-0.086826	-0.592773	-0.128418	-0.300049
548.0	6.123437	-0.5036	7.573393	0.099618	-0.070451	-0.093979	-0.594727	-0.130615	-0.295654
549.0	6.159921	-0.500681	7.634772	0.131657	-0.093311	-0.108664	-0.594727	-0.130615	-0.300049
550.0	6.139341	-0.55179	7.575695	0.13494	-0.101474	-0.113615	-0.594727	-0.130615	-0.295654
551.0	6.258033	-0.430993	7.646898	0.142348	-0.121907	-0.121888	-0.594727	-0.130615	-0.295654
552.0	6.270599	-0.422311	7.772616	0.12045	-0.1406	-0.130629	-0.592529	-0.13501	-0.293457
553.0	6.34712	-0.263215	7.759343	0.101123	-0.14532	-0.134994	-0.594727	-0.13501	-0.29126
554.0	6.357789	-0.16918	7.73718	0.043165	-0.166823	-0.130925	-0.592285	-0.139404	-0.293457
555.0	6.224383	-0.349106	7.761012	0.04286	-0.178092	-0.138814	-0.594482	-0.139404	-0.29126
556.0	6.300665	-0.073105	7.957272	0.02327	-0.218936	-0.128018	-0.601074	-0.139404	-0.284668
557.0	6.108535	0.082444	8.203011	0.011678	-0.256615	-0.104024	-0.601074	-0.139404	-0.286865
558.0	6.273299	0.45297	8.26366	-0.056515	-0.334298	-0.085764	-0.598633	-0.143799	-0.286865
559.0	5.725824	0.48266	8.659224	-0.128878	-0.394569	-0.0613	-0.60083	-0.141602	-0.280273
560.0	3.969762	-0.590624	10.111938	-0.313241	-0.590815	-0.146114	-0.603027	-0.141602	-0.282471
561.0	5.093379	-1.950743	9.214458	-0.243827	-1.011876	-0.117067	-0.607422	-0.141846	-0.273926
562.0	5.582889	-0.517453	9.246792	-0.143704	-1.107851	-0.220643	-0.614014	-0.139648	-0.269531
563.0	5.557377	-0.807556	9.337726	-0.38662	-1.391076	-0.29489	-0.611572	-0.14209	-0.252197
564.0	5.842775	-0.717411	9.333225	-0.394543	-1.567011	-0.37824	-0.616211	-0.140137	-0.243652
565.0	6.131416	-0.167583	9.381089	-0.730218	-1.707596	-0.46124	-0.620361	-0.142334	-0.237061
566.0	6.095983	-1.759046	9.167008	-1.130661	-1.732233	-0.695101	-0.620361	-0.144531	-0.234863
567.0	6.573993	-2.677376	9.107724	-0.937013	-1.70193	-0.999619	-0.626709	-0.146729	-0.228271
568.0	5.408686	-4.561727	8.464228	-1.093408	-1.724215	-1.120565	-0.630859	-0.15332	-0.219727
569.0	4.865281	-3.852041	9.822812	-0.550832	-1.444757	-1.178604	-0.634766	-0.159912	-0.20874
570.0	3.918789	-5.18696	9.920779	-0.731244	-1.402938	-0.983883	-0.634521	-0.166504	-0.204346
571.0	3.408033	-7.04818	9.903592	-0.207362	-1.086009	-1.037716	-0.636475	-0.170898	-0.197998
572.0	2.847249	-6.907564	10.23446	0.012984	-0.93111	-0.724948	-0.638672	-0.175293	-0.195801
573.0	4.959919	-5.262057	11.10779	0.214242	-0.661495	-0.345073	-0.643066	-0.173096	-0.193604
574.0	5.064725	-4.226533	11.484889	0.080715	-0.181721	0.066696	-0.643066	-0.170898	-0.195801
575.0	4.03068	-4.047632	11.272264	-0.156939	0.251539	0.45169	-0.647705	-0.166504	-0.200195
576.0	2.481058	-4.487381	10.538263	-0.254289	0.568554	0.670441	-0.650146	-0.157959	-0.206787
577.0	1.633044	-4.378956	9.864573	-0.216959	0.712025	0.782461	-0.654785	-0.15332	-0.221924
578.0	1.759028	-3.735452	9.699525	-0.167978	0.779985	0.882871	-0.652832	-0.148926	-0.234863
579.0	2.631283	-3.020361	9.76428	-0.081724	0.875091	0.962352	-0.660156	-0.127197	-0.252441
580.0	2.690575	-3.082683	9.714068	-0.257122	0.90183	1.196225	-0.6604	-0.122803	-0.263184
581.0	3.281011	-2.824571	9.653846	-0.03784	1.11304	1.128374	-0.66748	-0.105469	-0.278564
582.0	3.417616	-2.215437	9.644256	-0.062276	1.154133	1.199379	-0.655029	-0.096436	-0.300293
583.0	3.402874	-2.330812	9.375966	0.034117	1.193304	1.220461	-0.655518	-0.081055	-0.322021
584.0	3.266454	-2.227676	9.128191	0.149644	1.169922	1.206703	-0.649414	-0.072021	-0.34375
585.0	3.247659	-1.712286	9.131183	0.311203	1.10551	1.141363	-0.639404	-0.050293	-0.358887
586.0	3.441016	-1.130681	9.209561	0.405618	1.001341	1.052002	-0.631348	-0.032715	-0.382813
587.0	3.813124	-0.649971	9.427454	0.449743	0.905992	0.936873	-0.621094	-0.021729	-0.400146
588.0	4.337597	-0.211756	9.672837	0.441549	0.814564	0.811036	-0.604492	-0.002197	-0.419922
589.0	4.861272	0.145982	9.906554	0.376301	0.742705	0.688738	-0.583252	0.013428	-0.439453
590.0	5.432938	0.460371	10.027888	0.254987	0.691906	0.573858	-0.557861	0.032959	-0.450195
591.0	5.842591	0.499044	10.170926	0.090643	0.642098	0.484577	-0.525879	0.04834	-0.461182
592.0	6.862475	0.527578	10.518979	-0.10064	0.582512	0.428703	-0.500244	0.059082	-0.465332
593.0	8.492881	0.562304	10.612391	-0.314936	0.63124	0.415847	-0.466309	0.083008	-0.471924
594.0	9.871864	0.426411	10.734672	-0.547945	0.799803	0.451167	-0.427979	0.102539	-0.465576
595.0	11.337438	-0.138808	10.931644	-0.758703	1.058998	0.505921	-0.400146	0.115479	-0.458984
596.0	12.395753	-0.757597	10.657417	-0.869613	1.435017	0.568774	-0.363525	0.130371	-0.448242
597.0	12.489952	-1.259178	10.212536	-0.838794	1.878265	0.616595	-0.327148	0.145508	-0.4375
598.0	11.349005	-1.593442	9.489279	-0.777612	2.243724	0.618225	-0.297119	0.158447	-0.422119
599.0	9.843509	-1.583187	8.722043	-0.630273	2.483383	0.569497	-0.27124	0.166748	-0.400635
600.0	8.642286	-1.247837	8.091894	-0.512008	2.579881	0.496843	-0.240967	0.168701	-0.376709
601.0	7.861917	-1.020606	7.567148	-0.491237	2.533639	0.424957	-0.219482	0.177002	-0.357178
602.0	7.806333	-0.943482	7.145684	-0.479137	2.425635	0.345175	-0.206299	0.176758	-0.320313
603.0	8.260594	-0.996033	6.781624	-0.500739	2.323679	0.280846	-0.195313	0.178467	-0.298584
604.0	8.914766	-0.947082	6.532737	-0.439368	2.273395	0.248358	-0.186523	0.178223	-0.270508
605.0	9.236059	-0.70304	6.277611	-0.528631	2.256813	0.295884	-0.182129	0.175781	-0.248779
606.0	9.1089	-0.64755	5.834469	-0.584681	2.267685	0.355314	-0.184326	0.181885	-0.227051
607.0	8.347591	-0.723267	5.301365	-0.648754	2.267653	0.423653	-0.184082	0.170898	-0.203125
608.0	7.555546	-0.98435	4.723358	-0.657442	2.163442	0.457763	-0.196777	0.168457	-0.185791
609.0	6.950172	-0.929106	4.352469	-0.601572	2.020198	0.430549	-0.199219	0.17041	-0.177246
610.0	6.774507	-1.136536	3.956928	-0.562089	1.792619	0.380061	-0.20752	0.163818	-0.159912
611.0	7.315242	-0.908649	3.66925	-0.482085	1.610316	0.308543	-0.211426	0.154785	-0.146729
612.0	7.738036	-0.609156	3.4282	-0.470209	1.484245	0.284068	-0.220215	0.156982	-0.138184
613.0	7.798165	-0.658606	2.892378	-0.469125	1.352034	0.27517	-0.22876	0.152344	-0.127197
614.0	7.067168	-0.312957	2.198535	-0.413984	1.246514	0.243463	-0.235352	0.150146	-0.125244
615.0	6.06002	0.016889	1.659565	-0.545794	0.937717	0.224182	-0.241699	0.145752	-0.116455
616.0	5.735442	0.102381	1.096048	-0.824203	0.4933	0.288662	-0.248291	0.149902	-0.10791
617.0	6.02153	-1.283604	0.578559	-1.032581	0.013277	0.206954	-0.254639	0.145508	-0.092529
618.0	7.170799	-1.690536	0.733381	-0.660594	-0.345163	0.013883	-0.263428	0.147217	-0.077393
619.0	8.526509	-2.159597	1.030741	-0.728707	-0.662195	-0.035163	-0.265381	0.14502	-0.064453
620.0	9.609918	-2.982601	1.19518	-0.269477	-0.706537	-0.183548	-0.273926	0.140625	-0.057861
621.0	9.108185	-3.050188	1.532984	0.241924	-0.741339	-0.402474	-0.271729	0.142578	-0.042725
622.0	8.928727	-2.394729	2.344567	0.664742	-0.769027	-0.655172	-0.273926	0.140137	-0.027588
623.0	-6.401405	-12.794771	8.282824	0.555558	-0.652096	-0.836125	-0.271484	0.135742	-0.014648
624.0	-2.224167	-3.811585	14.350352	3.951709	-1.359891	-1.408625	-0.277588	0.126709	0.002686
625.0	-1.882182	-4.455376	13.508225	1.475855	-1.433784	-0.830168	-0.279541	0.124268	0.022217
626.0	1.675456	-4.901499	5.508422	3.339497	-1.387651	-0.338169	-0.277344	0.124268	0.031006
627.0	2.881569	9.297934	7.70029	3.304839	-2.060182	0.618465	-0.277588	0.128174	0.056885
628.0	6.011035	3.527077	9.692764	0.373125	-3.239992	0.686613	-0.283691	0.121338	0.078613
629.0	10.53667	4.610339	11.388349	1.593218	-2.795987	0.602084	-0.292725	0.131836	0.104492
630.0	11.092583	9.912841	11.446431	1.083383	-2.603216	0.225071	-0.279541	0.129395	0.117676
631.0	9.958776	8.427325	11.035845	0.144238	-2.478241	-0.020472	-0.286133	0.126953	0.139404
632.0	9.668103	4.560271	10.788153	-0.244276	-2.292872	-0.326519	-0.288086	0.126709	0.154541
633.0	8.440613	0.784176	9.425721	-0.51517	-2.03635	-0.295788	-0.286133	0.128906	0.158691
634.0	8.632196	-3.901707	9.720478	-0.679338	-2.190793	-0.19446	-0.290283	0.124268	0.17627
635.0	19.234823	-10.99305	8.454491	-0.385977	-1.630078	-0.696362	-0.283691	0.126465	0.187012
636.0	8.27018	-3.302355	7.141878	1.570064	-0.518599	-0.111247	-0.281982	0.13501	0.182617
637.0	4.027316	1.074483	8.668664	0.404344	-0.736286	-0.327686	-0.285889	0.126221	0.193604
638.0	8.20182	-0.520099	8.65208	0.212216	-0.836819	-0.248196	-0.283691	0.124023	0.195557
639.0	8.931726	-2.286846	7.948318	0.181358	-0.552405	-0.162814	-0.281494	0.126221	0.204346
640.0	6.858729	-1.294716	8.199828	0.272735	-0.313997	-0.115139	-0.281494	0.126221	0.204346
641.0	6.141981	0.101801	8.363682	0.20664	-0.316952	-0.100214	-0.277344	0.130371	0.20874
642.0	6.798994	-0.830957	8.260034	0.064042	-0.317276	-0.110731	-0.279541	0.130371	0.204346
643.0	6.049729	-1.964493	7.563794	0.117387	-0.256097	-0.104602	-0.279297	0.128174	0.206543
644.0	5.818821	-1.212038	7.837112	0.287559	-0.303037	-0.16362	-0.283691	0.126221	0.204346
645.0	6.283833	-1.086135	7.865104	0.261383	-0.291761	-0.193111	-0.281494	0.125977	0.210938
646.0	5.8953	-1.550509	7.536174	0.258176	-0.272453	-0.201083	-0.279297	0.128174	0.215088
647.0	5.905262	-1.885214	7.383951	0.343844	-0.296923	-0.255097	-0.2771	0.125977	0.210938
648.0	5.952586	-1.385892	7.664922	0.41012	-0.286561	-0.287839	-0.279297	0.124023	0.213135
649.0	6.229123	-1.170793	7.727265	0.415488	-0.266656	-0.30853	-0.281494	0.125977	0.210938
650.0	6.003151	-0.982523	7.929816	0.431176	-0.229213	-0.324449	-0.2771	0.128174	0.212891
651.0	6.081199	-0.74283	7.831584	0.423615	-0.22318	-0.319123	-0.272705	0.123779	0.22168
652.0	6.28228	-0.605878	7.792442	0.413337	-0.206084	-0.323013	-0.274902	0.125977	0.217285
653.0	6.557961	-0.255368	8.03677	0.394065	-0.173676	-0.307827	-0.281738	0.130127	0.22168
654.0	6.360327	0.030738	7.977257	0.310214	-0.114667	-0.268472	-0.2771	0.123779	0.223877
655.0	6.479713	-0.122483	8.073049	0.212964	-0.101491	-0.235343	-0.274902	0.123779	0.223877
656.0	6.360002	-0.442594	7.779902	0.175213	-0.056203	-0.211836	-0.2771	0.125977	0.228271
657.0	6.129881	-0.408092	7.796788	0.132132	-0.064074	-0.173526	-0.277344	0.130127	0.22168
658.0	6.280237	-0.674656	7.702076	0.107337	-0.068121	-0.148204	-0.272705	0.123779	0.228271
659.0	6.309723	-0.532439	7.633094	0.130486	-0.032648	-0.159668	-0.2771	0.123535	0.232422
660.0	6.01349	-0.538022	7.456749	0.132835	-0.029052	-0.168613	-0.274658	0.121582	0.226074
661.0	6.067794	-1.171355	7.360327	0.165735	-0.039976	-0.222818	-0.274902	0.12793	0.230469
662.0	6.462179	-0.93647	7.397162	0.24763	-0.013267	-0.238898	-0.283447	0.123779	0.226074
663.0	5.831912	-0.761535	7.450966	0.283871	-0.006763	-0.242979	-0.268311	0.123779	0.230469
664.0	6.335057	-0.578619	7.80409	0.346037	-0.08023	-0.247484	-0.274902	0.123535	0.232422
665.0	6.447939	0.382875	7.867789	0.348039	-0.011271	-0.23391	-0.2771	0.123535	0.232422
666.0	6.274752	0.229533	7.904717	0.289412	-0.083286	-0.202467	-0.276855	0.119385	0.232666
667.0	6.32455	0.131865	7.857964	0.299448	-0.027011	-0.234197	-0.2771	0.123535	0.234619
668.0	6.079963	0.306334	7.79715	0.059506	-0.101382	-0.120755	-0.274902	0.125732	0.234619
669.0	6.930567	-0.46893	7.569602	0.143399	0.073953	-0.163766	-0.279297	0.12793	0.234619
670.0	5.282124	0.186657	8.377295	0.129014	-0.369249	-0.083445	-0.277344	0.130127	0.234619
671.0	7.011884	0.539674	7.358433	-0.232271	-0.299615	0.050129	-0.268555	0.12793	0.236816
672.0	6.592935	-1.696854	6.736569	0.254423	0.141062	-0.203999	-0.272705	0.125732	0.236816
673.0	6.184454	0.276768	8.01674	0.24611	0.066657	-0.179849	-0.274902	0.12793	0.232422
674.0	6.200904	0.112849	8.035252	0.334977	0.266471	-0.243383	-0.274902	0.125732	0.234619
675.0	6.358432	-0.111	7.743557	0.171976	0.009157	-0.148474	-0.279053	0.123535	0.236816
676.0	6.01983	-0.324982	7.612255	0.156775	-0.009324	-0.106169	-0.2771	0.125732	0.232422
677.0	6.078022	0.077921	7.752911	0.147448	0.012913	-0.084474	-0.279297	0.125732	0.236816
678.0	6.139615	-0.113128	7.695584	0.0861	-0.037821	-0.074937	-0.274902	0.12793	0.234619
679.0	6.040262	-0.216399	7.559659	0.119475	-0.028883	-0.069587	-0.2771	0.125732	0.234619
680.0	6.017215	-0.141775	7.604784	0.126009	-0.030318	-0.071021	-0.277344	0.130127	0.239014
681.0	5.99081	-0.043493	7.654179	0.13131	-0.05633	-0.05892	-0.277344	0.13208	0.241211
682.0	5.955496	-0.18833	7.645314	0.137206	-0.064891	-0.061994	-0.270508	0.12793	0.232422
683.0	5.813852	-0.429256	7.642555	0.146805	-0.057498	-0.082134	-0.272705	0.125732	0.239014
684.0	5.77244	-0.191208	7.744195	0.136515	-0.066687	-0.083151	-0.274902	0.125732	0.239014
685.0	5.916624	0.078233	7.848569	0.110485	-0.132781	-0.067195	-0.270752	0.132324	0.234619
686.0	6.162102	0.073692	7.869638	0.04821	-0.185465	-0.036074	-0.272949	0.129883	0.243408
687.0	6.234592	0.366667	8.194229	-0.039859	-0.245158	0.023026	-0.2771	0.129883	0.241211
688.0	6.269723	0.118659	8.112095	-0.144549	-0.319353	0.068713	-0.270752	0.129883	0.247803
689.0	6.497412	-0.712254	7.699175	-0.157299	-0.346751	0.013174	-0.274902	0.125488	0.249756
690.0	6.170797	0.236251	8.186546	-0.226172	-0.390581	-0.004547	-0.2771	0.127686	0.245605
691.0	6.455697	0.108178	8.03108	-0.361087	-0.504637	0.029492	-0.274902	0.125488	0.25415
692.0	6.42726	-0.400411	7.715241	-0.30867	-0.469395	0.007124	-0.276855	0.123535	0.247803
693.0	6.180396	-0.075675	8.140818	-0.336344	-0.549758	-0.033947	-0.270264	0.123291	0.262939
694.0	5.516102	-0.069698	9.022405	-0.394135	-0.618325	-0.088757	-0.276855	0.121094	0.258545
695.0	5.053239	-0.282539	8.96097	-0.142396	-0.918452	-0.062635	-0.268066	0.118896	0.265137
696.0	6.364775	0.121463	8.201308	-0.291812	-1.101351	-0.082085	-0.270264	0.118896	0.260742
697.0	6.066632	0.65818	8.587149	-0.22428	-1.255352	-0.027077	-0.27002	0.112305	0.275879
698.0	6.111412	0.4827	8.266111	-0.264385	-1.429839	0.045766	-0.27002	0.112305	0.273682
699.0	6.143574	0.474393	8.340973	-0.237205	-1.572305	0.114508	-0.271973	0.110107	0.271729
700.0	5.775891	-0.028663	8.359239	-0.294753	-1.762129	0.146804	-0.27417	0.110107	0.282471
701.0	5.912942	-0.143607	8.158527	-0.286799	-2.089195	0.166313	-0.263184	0.10791	0.284668
702.0	5.974497	-0.222505	8.207926	-0.380106	-2.301244	0.130132	-0.265381	0.105713	0.297607
703.0	5.676269	-0.366828	8.010984	-0.364944	-2.589727	0.117192	-0.260742	0.099121	0.306396
704.0	6.050441	-0.808018	8.170705	-0.297956	-2.920867	0.076961	-0.253906	0.09668	0.315186
705.0	5.77116	-1.104163	7.976379	-0.358213	-3.195254	-0.029175	-0.253906	0.094482	0.328125
706.0	5.81386	-1.19069	8.036243	-0.496915	-3.60116	-0.113579	-0.251465	0.085693	0.336914
707.0	5.716044	-2.290351	7.341664	-0.372625	-4.007273	-0.269421	-0.240479	0.085449	0.354248
708.0	6.052998	-1.909458	7.362717	-0.047354	-4.393142	-0.383838	-0.237793	0.07666	0.367188
709.0	6.258662	-1.913903	8.069719	0.074891	-4.765952	-0.474332	-0.226807	0.074463	0.378174
710.0	5.648034	-2.876922	7.455587	0.040201	-5.336428	-0.69074	-0.21582	0.070068	0.399902
711.0	7.563788	-2.082439	7.387536	0.035121	-6.138116	-0.983694	-0.197998	0.061279	0.419434
712.0	9.683453	-2.043612	6.509881	-0.073446	-6.42639	-1.260035	-0.180176	0.054443	0.436768
713.0	13.406262	-0.391582	6.900938	-0.11483	-6.828278	-1.539173	-0.160156	0.043457	0.458496
714.0	12.815504	-1.214226	5.93793	0.004426	-6.254429	-2.153549	-0.142334	0.034912	0.473877
715.0	14.366577	0.629329	5.527481	-0.306178	-7.085212	-1.969623	-0.115967	0.02832	0.491211
716.0	13.406097	-5.088798	2.975767	-0.611984	-7.25282	-1.918599	-0.095703	0.010986	0.504395
717.0	20.91193	-5.757921	6.379333	1.00175	-7.347158	-2.293227	-0.075928	0.004395	0.515137
718.0	20.710417	0.744076	6.681427	0.172166	-7.084585	-2.531815	-0.049561	-0.002197	0.52832
719.0	19.108669	-2.564616	7.261019	1.732384	-5.87734	-2.831318	-0.03833	-0.004395	0.537109
720.0	18.036764	0.451143	9.686617	0.845411	-5.586446	-2.485297	-0.025146	-0.010986	0.550049
721.0	14.466988	-1.863154	9.860188	0.783963	-4.666593	-2.21261	-0.020264	-0.021729	0.554443
722.0	7.691574	-0.953955	5.796973	0.876982	-3.701423	-2.510927	-0.024414	-0.02832	0.563232
723.0	3.578878	2.703585	9.373644	0.386315	-3.089747	-2.164548	-0.023926	-0.039307	0.578369
724.0	29.11658	1.362747	15.544922	-2.546849	-3.775748	0.03612	-0.022705	-0.071533	0.578613
725.0	25.651532	-15.60058	9.617657	-1.603404	1.679783	-0.544362	-0.061523	-0.080322	0.584961
726.0	3.999678	-6.634224	10.559003	0.461945	2.378243	-0.621471	-0.0979	-0.095703	0.591553
727.0	8.575819	-8.853895	8.537539	-0.378131	2.446372	-0.559747	-0.136719	-0.108887	0.59375
728.0	3.400229	-1.946607	8.018691	0.735324	3.249385	-0.258717	-0.175781	-0.11084	0.582764
729.0	5.185511	-2.751828	6.982207	-0.163161	3.200471	0.052917	-0.214844	-0.115479	0.582764
730.0	5.107027	-1.791822	6.57814	-0.333775	3.488649	0.632407	-0.264404	-0.124023	0.567627
731.0	5.71012	-3.686744	5.691924	-0.60027	3.691307	1.194827	-0.299316	-0.126221	0.558838
732.0	5.851063	-4.976439	5.468759	-0.423408	4.000387	1.574504	-0.344971	-0.128174	0.532715
733.0	6.330195	-5.386027	5.257819	0.022797	4.303052	1.844482	-0.384521	-0.121338	0.504395
734.0	6.551063	-5.109319	4.907265	0.528699	4.578204	2.027684	-0.419678	-0.112549	0.469727
735.0	6.662149	-3.666923	4.871738	1.062019	4.852295	2.136125	-0.453125	-0.097168	0.432617
736.0	6.24858	-2.219258	4.625359	1.285628	4.994879	2.275992	-0.484131	-0.085938	0.38916
737.0	6.025849	-0.900214	4.453371	1.370627	5.071604	2.3365	-0.506104	-0.081055	0.356689
738.0	5.868305	-0.096927	4.161007	1.495056	5.060755	2.281873	-0.52832	-0.072021	0.308838
739.0	5.875263	1.926189	4.601972	1.320915	4.979085	2.290178	-0.537354	-0.067139	0.269775
740.0	6.318442	2.504614	4.8849	0.823889	4.778587	2.257158	-0.550293	-0.068848	0.235107
741.0	6.987631	3.099116	5.346993	0.418917	4.638591	2.147879	-0.565674	-0.068359	0.196045
742.0	7.890889	2.422894	5.685358	-0.177694	4.474711	1.96934	-0.572021	-0.07251	0.170166
743.0	10.154253	2.074307	6.482215	-0.077529	4.408104	1.627087	-0.580811	-0.074219	0.144043
744.0	11.240012	-0.305232	5.814652	-0.168169	4.429681	1.216439	-0.591309	-0.084473	0.109375
745.0	11.674224	0.37518	6.954087	0.06299	4.445381	0.911197	-0.599854	-0.094971	0.081299
746.0	13.302906	0.498261	6.974528	-0.209135	4.600789	0.780075	-0.608398	-0.09668	0.040039
747.0	13.000273	2.058292	7.595966	-0.177463	4.774019	0.722817	-0.611084	-0.087402	0.000977
748.0	12.746367	2.711473	8.367779	-0.789488	4.579523	0.845465	-0.619873	-0.089111	-0.029297
749.0	12.755657	0.501348	7.546887	-1.11835	4.506769	0.815444	-0.615479	-0.088623	-0.068359
750.0	12.660343	-0.882192	7.919549	-1.150332	4.43025	0.674597	-0.61377	-0.081787	-0.107422
751.0	13.634335	-1.748949	8.327677	-1.014714	4.346976	0.592562	-0.60498	-0.083252	-0.14624
752.0	14.807501	-1.070897	8.596031	-0.950327	4.260448	0.628717	-0.596924	-0.069824	-0.181152
753.0	15.823396	0.008796	8.873973	-0.997774	4.306525	0.7178	-0.582031	-0.062988	-0.213623
754.0	16.058794	0.807003	9.009602	-1.135663	4.372848	0.800353	-0.560547	-0.058105	-0.252441
755.0	16.189453	1.171868	8.921355	-1.324938	4.432639	0.835069	-0.534668	-0.053223	-0.282959
756.0	16.130864	1.196258	8.66951	-1.462433	4.469175	0.792445	-0.512939	-0.050537	-0.311035
757.0	16.103345	0.922642	8.545993	-1.541615	4.482703	0.691789	-0.485107	-0.041504	-0.339111
758.0	16.479031	0.824504	8.558712	-1.48175	4.494335	0.516383	-0.45459	-0.047607	-0.36084
759.0	17.125225	0.618247	8.337919	-1.463531	4.494566	0.373391	-0.42627	-0.047119	-0.380371
760.0	17.448651	0.812222	7.547823	-1.454857	4.482856	0.278181	-0.402344	-0.044678	-0.393311
761.0	17.576678	1.152196	6.424651	-1.512856	4.460405	0.246405	-0.371582	-0.055176	-0.408203
762.0	17.366594	1.139938	4.56614	-1.536238	4.40322	0.173287	-0.347656	-0.054932	-0.414795
763.0	16.337901	1.246476	2.222704	-1.658355	4.294743	0.079358	-0.330322	-0.05249	-0.42334
764.0	14.302165	-0.683644	-0.906267	-1.722905	4.085784	-0.160452	-0.314941	-0.054688	-0.432129
765.0	12.943442	-1.757594	-3.868407	-1.344734	3.657735	-0.682164	-0.292969	-0.065186	-0.440674
766.0	12.86547	2.820294	-4.551399	-0.872927	3.092511	-1.074312	-0.281982	-0.067139	-0.444824
767.0	12.52037	6.090596	-5.405029	-1.473017	2.347662	-1.040648	-0.272949	-0.071533	-0.444824
768.0	11.318376	3.903238	-7.137955	-2.135348	1.466773	-0.801705	-0.270996	-0.071289	-0.447021
769.0	10.496479	0.122123	-7.845407	-2.195365	0.510502	-0.581096	-0.273438	-0.060791	-0.440674
770.0	10.995071	-2.57127	-7.017626	-1.482745	-0.34119	-0.522072	-0.268799	-0.069336	-0.444824
771.0	12.377329	-2.755677	-4.996498	-0.352187	-0.937518	-0.610346	-0.275146	-0.07373	-0.442627
772.0	14.138578	-1.292484	-2.44575	0.487633	-1.232967	-0.617824	-0.279053	-0.084473	-0.438232
773.0	10.662898	-2.802336	3.704609	0.492539	-1.248762	-0.462579	-0.289551	-0.093262	-0.429688
774.0	4.40243	-23.142275	-7.859364	2.145777	-2.481353	-0.77221	-0.297363	-0.119141	-0.416504
775.0	-9.12556	-1.519018	10.112831	8.249554	-1.708377	-1.862129	-0.306641	-0.15625	-0.396729
776.0	4.597906	9.028775	18.736223	3.292313	-4.616808	0.182535	-0.325928	-0.167236	-0.379395
777.0	10.261672	-1.360068	9.410555	2.546011	-2.983684	0.92367	-0.342773	-0.18042	-0.362061
778.0	8.082416	13.39764	9.367856	3.723126	-3.381096	2.506936	-0.357666	-0.184814	-0.351318
779.0	10.23024	2.463815	7.743923	0.34167	-4.489788	2.027635	-0.379639	-0.181152	-0.325195
780.0	14.75698	7.138541	11.958551	2.654353	-4.024177	1.337317	-0.400879	-0.192139	-0.301514
781.0	16.520014	10.851568	12.80623	1.064948	-3.647433	0.782234	-0.409668	-0.187988	-0.292725
782.0	13.322882	8.931288	10.925497	0.804866	-2.892857	0.193124	-0.420166	-0.199219	-0.275391
783.0	11.207713	7.745011	10.212101	-0.04273	-2.599673	-0.201271	-0.424561	-0.199219	-0.264648
784.0	11.525988	1.589173	12.138564	-0.654829	-2.55063	-0.452414	-0.430908	-0.199463	-0.258057
785.0	22.36217	-10.950474	8.02867	-0.706299	-1.460439	-1.016176	-0.428467	-0.208008	-0.258057
786.0	5.995468	-5.789203	6.182729	1.452693	-0.594495	-0.246631	-0.432373	-0.216797	-0.251465
787.0	5.357227	3.51848	9.574429	0.678475	-0.86457	-0.301351	-0.434814	-0.2146	-0.24292
788.0	9.463246	2.94282	9.567008	0.104493	-0.94512	-0.299594	-0.43457	-0.216797	-0.245117
789.0	9.775126	-2.491872	8.064502	-0.137258	-0.547049	-0.177769	-0.439209	-0.212646	-0.238525
790.0	7.186986	-1.634379	8.419834	0.248399	-0.257	-0.094048	-0.432373	-0.221191	-0.238525
791.0	7.096894	0.907884	9.074951	0.062336	-0.268995	-0.021007	-0.438965	-0.218994	-0.234131
792.0	7.734988	0.337453	8.728528	-0.146259	-0.13261	0.123349	-0.436768	-0.216797	-0.236328
793.0	6.886635	-0.068889	8.515085	-0.221103	-0.04187	0.228976	-0.441162	-0.217041	-0.236328
794.0	6.442554	0.123181	8.464478	-0.220251	-0.003217	0.28347	-0.438965	-0.214844	-0.238525
795.0	6.390928	-0.125408	8.433225	-0.425053	-0.019313	0.395801	-0.441162	-0.218994	-0.238525
796.0	6.722881	-0.847539	8.063641	-0.473644	0.029728	0.456586	-0.439209	-0.210449	-0.236328
797.0	6.363847	-1.283019	7.825406	-0.491932	0.081885	0.467597	-0.446045	-0.204102	-0.234375
798.0	6.03516	-1.388105	7.874133	-0.473233	0.105307	0.477573	-0.44165	-0.206055	-0.24292
799.0	5.794644	-1.561349	7.924133	-0.473011	0.099152	0.478749	-0.4375	-0.19751	-0.24292
800.0	5.765144	-1.856796	7.674061	-0.45308	0.097933	0.45312	-0.441895	-0.19751	-0.238525
801.0	5.726917	-1.698829	7.876415	-0.409517	0.098648	0.437271	-0.43335	-0.193115	-0.24292
802.0	5.897101	-1.595494	7.884253	-0.429135	0.086901	0.423087	-0.442139	-0.190918	-0.249512
803.0	5.529577	-1.651113	7.737729	-0.421816	0.095422	0.410951	-0.439941	-0.188965	-0.240967
804.0	5.638974	-1.694606	7.723387	-0.385423	0.092009	0.39685	-0.437988	-0.186768	-0.247314
805.0	5.567723	-1.850796	7.735434	-0.270779	0.088821	0.359459	-0.442383	-0.186768	-0.245117
806.0	5.196698	-1.927381	7.549946	-0.376903	0.050057	0.371027	-0.440186	-0.18457	-0.247314
807.0	5.343526	-2.687656	7.396002	-0.298277	0.035097	0.318717	-0.44043	-0.178223	-0.243164
808.0	5.307811	-2.457062	7.512842	-0.266824	0.030601	0.264378	-0.44043	-0.180176	-0.249512
809.0	5.366239	-2.61358	7.417355	-0.29712	0.023434	0.239103	-0.438232	-0.180176	-0.249512
810.0	5.247217	-2.798806	7.397977	-0.246129	0.01904	0.181765	-0.442627	-0.177979	-0.253906
811.0	5.120881	-3.146148	7.27039	-0.192927	-0.007729	0.118175	-0.442627	-0.177979	-0.249512
812.0	5.22895	-3.233313	7.257569	-0.111931	-0.015055	0.045764	-0.444824	-0.175781	-0.249512
813.0	5.330076	-2.987878	7.440872	0.026226	-0.033503	-0.053949	-0.444824	-0.177979	-0.247314
814.0	5.28314	-2.515348	7.642119	-0.023298	-0.090983	-0.02379	-0.44043	-0.177979	-0.249512
815.0	5.489346	-2.851501	7.45444	0.092575	-0.097072	-0.177896	-0.442871	-0.175781	-0.251709
816.0	5.205302	-2.665373	7.393715	0.140767	-0.090349	-0.221948	-0.446777	-0.18457	-0.249512
817.0	5.014275	-2.719312	7.517236	0.148125	-0.211659	-0.242132	-0.440186	-0.182373	-0.243164
818.0	5.270716	-2.799771	7.123862	0.388947	-0.199652	-0.382288	-0.44458	-0.18457	-0.247314
819.0	5.654655	-2.877086	7.227616	0.311474	-0.181337	-0.465634	-0.444336	-0.188965	-0.245117
820.0	5.698186	-1.494265	7.865224	0.809075	0.10566	-0.571425	-0.439697	-0.19751	-0.245117
821.0	5.121817	-2.35841	7.59957	0.380779	-0.198577	-0.541577	-0.444092	-0.195313	-0.247314
822.0	4.877919	-2.536811	7.35484	0.56866	-0.18424	-0.597617	-0.4375	-0.19751	-0.245117
823.0	5.064317	-2.454654	7.359013	0.574643	-0.259438	-0.676538	-0.443848	-0.199707	-0.22998
824.0	4.800262	-2.466891	7.093128	0.606217	-0.339398	-0.735856	-0.441406	-0.208496	-0.232178
825.0	4.48258	-2.605756	6.814909	0.735614	-0.428236	-0.821608	-0.445557	-0.212646	-0.227783
826.0	4.558536	-2.768971	6.65717	0.907941	-0.562506	-0.930067	-0.443115	-0.223633	-0.227783
827.0	4.536796	-2.880674	6.41861	1.052884	-0.760625	-1.008219	-0.440674	-0.228027	-0.218994
828.0	5.436527	-2.5777	6.505283	1.325377	-0.966718	-1.081403	-0.44458	-0.23877	-0.2146
829.0	7.369789	-0.370225	7.408356	1.609592	-1.037875	-1.050136	-0.44458	-0.240967	-0.208008
830.0	8.874689	3.006296	9.622739	1.487996	-0.906035	-0.897184	-0.446289	-0.249756	-0.199463
831.0	8.824241	2.92609	9.539188	0.941422	-0.586865	-0.712467	-0.446045	-0.25415	-0.190674
832.0	7.565741	1.871716	9.325928	0.58962	-0.38986	-0.471635	-0.443848	-0.25415	-0.190674
833.0	7.048846	1.096414	8.823317	0.327589	-0.430109	-0.291397	-0.44165	-0.258545	-0.190674
834.0	6.797521	0.994383	8.681289	0.074205	-0.416409	-0.2113	-0.44165	-0.258545	-0.179932
835.0	6.60362	0.278277	8.504285	-0.141727	-0.431769	-0.176675	-0.443604	-0.260742	-0.181885
836.0	6.23824	0.24881	8.466891	-0.247187	-0.490805	-0.162382	-0.447998	-0.260742	-0.181885
837.0	5.012661	-0.531271	8.985485	-0.314094	-0.643212	-0.098473	-0.445801	-0.262939	-0.181885
838.0	5.892734	0.686603	9.173942	-0.081925	-1.023682	0.011578	-0.447754	-0.26709	-0.179688
839.0	6.003949	-0.348724	7.966518	-0.209073	-1.12449	0.024863	-0.450195	-0.260986	-0.171143
840.0	6.14361	0.9651	8.573418	-0.228036	-1.345353	0.077633	-0.450195	-0.256836	-0.156006
841.0	6.03182	0.521557	8.201382	-0.299147	-1.56152	0.158344	-0.456543	-0.26123	-0.153809
842.0	5.956092	0.425242	8.150387	-0.29934	-1.772836	0.22	-0.460938	-0.26123	-0.147217
843.0	6.264795	0.117216	8.268636	-0.317918	-1.96979	0.245647	-0.461182	-0.25708	-0.129883
844.0	6.050555	0.009418	8.240713	-0.388991	-2.167405	0.270913	-0.469727	-0.259521	-0.123535
845.0	5.983172	-0.569477	8.093101	-0.488876	-2.401188	0.27493	-0.467529	-0.259766	-0.108398
846.0	5.691395	-0.676058	7.688339	-0.576974	-2.65465	0.288958	-0.474365	-0.253418	-0.095459
847.0	5.697392	-0.873194	7.605265	-0.523569	-3.02069	0.279053	-0.476318	-0.255859	-0.082275
848.0	5.794984	-1.084663	7.764203	-0.482367	-3.399375	0.256898	-0.476074	-0.258057	-0.064941
849.0	5.589447	-1.745573	7.813022	-0.52909	-3.871776	0.237003	-0.480713	-0.25415	-0.039063
850.0	5.763625	-2.085427	8.012801	-0.495653	-4.334309	0.145834	-0.482422	-0.260986	-0.023926
851.0	5.885062	-3.02694	7.665333	-0.418702	-4.814198	-0.016791	-0.484619	-0.26123	0.006592
852.0	6.118531	-3.047502	8.68761	-0.207074	-5.2956	-0.202209	-0.482178	-0.265869	0.030273
853.0	6.528792	-3.69472	8.362192	-0.191355	-5.98722	-0.416786	-0.475342	-0.270752	0.071533
854.0	9.153075	-3.532163	8.187774	-0.124861	-6.60419	-0.690661	-0.468506	-0.277588	0.106445
855.0	15.032229	-3.656021	8.399088	0.41487	-6.448525	-1.743885	-0.459473	-0.284424	0.136719
856.0	11.870453	0.276386	7.570122	0.700862	-6.711137	-1.302666	-0.44165	-0.293457	0.175781
857.0	15.80946	1.747592	8.24507	-0.88994	-7.401109	-1.061861	-0.421875	-0.296143	0.212646
858.0	8.770916	-5.085545	-0.395793	-1.400881	-8.061092	-1.274714	-0.399658	-0.307373	0.247559
859.0	29.362953	0.961663	10.886917	-0.263737	-7.910277	-1.041583	-0.373047	-0.313965	0.280029
860.0	19.897909	-1.383556	6.002943	-2.675524	-7.444627	-1.123144	-0.342285	-0.320801	0.303955
861.0	19.79555	-4.663657	7.652866	-0.409022	-5.901505	-1.518238	-0.32251	-0.325439	0.334473
862.0	13.434168	-2.366912	9.425989	-1.015814	-5.393545	-1.74893	-0.291748	-0.329834	0.356201
863.0	11.732865	-5.999735	8.453017	-0.835255	-4.958796	-2.057699	-0.265869	-0.327637	0.362793
864.0	5.565471	-5.007717	6.928156	0.076797	-3.517501	-2.711456	-0.252441	-0.334473	0.382324
865.0	7.46678	1.391052	7.977551	0.293327	-2.997914	-1.943477	-0.224121	-0.332275	0.401855
866.0	31.628685	-3.53175	16.270393	-3.22725	-3.270634	-0.470529	-0.219727	-0.33667	0.404053
867.0	17.348888	-12.675668	9.709705	0.540877	2.714176	-0.894794	-0.226807	-0.321777	0.408203
868.0	5.760208	-2.857854	10.720268	0.038346	2.305486	-0.68524	-0.235596	-0.31958	0.4104
869.0	6.562453	-7.468467	7.082515	-0.283179	3.095427	-0.509577	-0.242676	-0.30249	0.408203
870.0	1.347155	-2.260404	7.151356	0.278914	3.709109	-0.318037	-0.258545	-0.287354	0.410156
871.0	2.3468	-3.165235	5.829335	-0.001103	3.554119	-0.255478	-0.267822	-0.272461	0.407959
872.0	2.371139	-2.629482	5.203258	-0.162152	3.690171	0.022588	-0.275146	-0.25293	0.405762
873.0	3.579508	-3.638355	4.739226	-0.233831	3.802697	0.352483	-0.29126	-0.231689	0.409912
874.0	4.424043	-4.448326	4.251073	-0.084605	3.990636	0.66279	-0.298584	-0.210205	0.411865
875.0	5.039139	-5.269003	4.104981	0.16212	4.189372	0.954583	-0.310547	-0.180176	0.418213
876.0	5.838468	-5.703989	3.976617	0.66993	4.420461	1.183089	-0.32251	-0.152344	0.424561
877.0	6.469003	-5.128937	3.973237	1.194528	4.674572	1.386817	-0.341309	-0.114014	0.446045
878.0	6.911952	-4.329106	4.002094	1.612811	4.902104	1.573384	-0.355957	-0.071289	0.460938
879.0	7.011466	-3.02452	3.978319	1.845633	5.10968	1.77253	-0.392822	-0.022217	0.478027
880.0	7.073839	-2.366207	3.808054	1.984434	5.247292	1.937356	-0.422852	0.0271	0.486328
881.0	6.659014	-0.73007	3.859794	1.986759	5.300652	2.137971	-0.457764	0.082764	0.490234
882.0	6.378703	-0.138653	3.938449	1.608128	5.117132	2.294617	-0.503174	0.134277	0.485596
883.0	6.088333	0.175071	4.141782	1.34979	4.940352	2.332846	-0.544434	0.185791	0.485352
884.0	6.548845	0.283479	4.681673	0.987537	4.636693	2.261923	-0.587891	0.241699	0.471924
885.0	7.780611	-0.97712	5.07847	0.715173	4.308597	2.052129	-0.62915	0.289063	0.462891
886.0	9.984876	-1.4818	5.810488	0.56984	4.06192	1.825084	-0.670166	0.33667	0.43457
887.0	11.857693	-2.600479	6.065111	0.709388	4.03209	1.516788	-0.710693	0.373291	0.4104
888.0	13.266233	-0.880142	7.473336	0.270359	3.874137	1.536678	-0.751465	0.410156	0.377686
889.0	14.624247	-3.662697	7.396411	0.497945	3.992532	1.162532	-0.800781	0.442871	0.338379
890.0	14.064049	-1.926482	8.28877	0.187638	4.088494	1.06276	-0.842773	0.458496	0.28833
891.0	15.147035	-2.964561	8.927323	0.15134	4.125696	0.929683	-0.889404	0.476318	0.225342
892.0	15.686972	-2.914758	9.144166	0.049111	4.23403	0.755713	-0.924561	0.479492	0.138672
893.0	16.24132	-2.442621	9.171	-0.109947	4.369392	0.608435	-0.952393	0.467773	0.049805
894.0	15.847353	-1.864341	8.859631	-0.31888	4.52548	0.45431	-0.958496	0.449707	-0.052002
895.0	15.036132	-1.172277	8.536037	-0.583643	4.588314	0.258796	-0.949219	0.42749	-0.147217
896.0	14.518396	-0.53032	8.187169	-0.938521	4.551057	0.074918	-0.918213	0.411377	-0.233887
897.0	14.172396	0.228236	8.228484	-1.277161	4.484015	-0.076705	-0.869873	0.391357	-0.318115
898.0	14.489687	0.230137	8.101563	-1.650263	4.374717	-0.186313	-0.817139	0.379395	-0.380859
899.0	14.734592	0.307496	8.32669	-1.916266	4.308134	-0.259564	-0.745361	0.375977	-0.419678
900.0	15.265041	-0.415701	8.456043	-2.087314	4.293689	-0.322602	-0.675537	0.37207	-0.434814
901.0	15.494564	-1.269493	8.078257	-2.022141	4.352513	-0.427377	-0.611816	0.359619	-0.438965
902.0	15.321558	-0.939456	7.395106	-1.962797	4.386785	-0.502201	-0.559082	0.34668	-0.425781
903.0	14.730248	-0.261754	6.690622	-1.926632	4.414171	-0.554871	-0.523926	0.338135	-0.414795
904.0	14.216784	0.719798	5.885186	-1.979311	4.322956	-0.554807	-0.499023	0.314209	-0.397461
905.0	13.953375	1.872921	4.934252	-2.256721	4.096536	-0.468759	-0.479004	0.303467	-0.386475
906.0	13.564421	1.552549	3.253262	-2.541749	3.884167	-0.36101	-0.469482	0.279785	-0.377686
907.0	12.760548	0.448012	0.650594	-2.692273	3.639453	-0.35291	-0.458008	0.264648	-0.373291
908.0	11.819644	0.218484	-1.834474	-2.587118	3.345005	-0.484017	-0.450684	0.245361	-0.375244
909.0	11.045921	1.567901	-3.810581	-2.408462	2.930065	-0.675454	-0.443604	0.234619	-0.377441
910.0	10.143699	3.068334	-5.050983	-2.330652	2.359249	-0.84309	-0.447754	0.228027	-0.373047
911.0	10.083518	2.607278	-6.018835	-2.559493	1.347244	-0.965479	-0.445068	0.212891	-0.37085
912.0	10.53437	-1.055343	-6.953179	-2.868304	0.548753	-0.907576	-0.450928	0.199951	-0.364258
913.0	11.035358	-4.183689	-6.668947	-1.482189	-0.196618	-1.176209	-0.454834	0.188965	-0.355469
914.0	12.802272	-2.815178	-4.50618	-0.069164	-0.636864	-1.30779	-0.463135	0.175781	-0.338135
915.0	13.714165	-2.025825	-2.413244	0.746938	-0.930431	-1.238551	-0.477539	0.156494	-0.331543
916.0	14.19263	-1.003034	-0.609672	1.240245	-1.095254	-0.969945	-0.483154	0.134766	-0.316162
917.0	13.288535	-0.333338	0.464012	1.478458	-1.208072	-0.586784	-0.493652	0.123779	-0.30542
918.0	-8.555322	-15.308823	10.118087	0.743989	-1.218461	-0.332814	-0.510254	0.101807	-0.287842
919.0	-2.865389	-17.505044	12.999855	6.6078	-3.424557	-1.231724	-0.523926	0.062988	-0.274658
920.0	-3.08282	-5.545991	17.356653	5.431733	-1.471293	0.291382	-0.542236	0.030273	-0.246582
921.0	3.734119	-0.460055	6.936817	6.074175	-2.509623	0.899813	-0.554443	0.008545	-0.23999
922.0	6.50389	21.747495	4.906559	7.0596	-2.431488	2.273294	-0.573486	-0.000488	-0.218262
923.0	7.632172	13.25434	12.695724	-0.723102	-4.55614	2.167154	-0.582275	0.003418	-0.185791
924.0	15.964114	3.666924	10.723452	2.351175	-3.976145	1.805323	-0.599365	-0.003418	-0.164063
925.0	12.249791	19.887135	13.181095	2.829252	-2.833216	0.976853	-0.60791	-0.008057	-0.137939
926.0	11.744011	12.625624	10.004574	-0.006056	-3.469667	0.402956	-0.612061	-0.012451	-0.127197
927.0	11.778804	13.320104	12.30018	0.158592	-2.829115	-0.383159	-0.614014	-0.014893	-0.109863
928.0	10.694052	4.96534	10.535253	-1.117211	-2.387569	-0.71436	-0.622559	-0.019531	-0.094727
929.0	7.027348	-3.818163	8.163218	-1.073288	-2.224258	-0.654737	-0.622559	-0.021729	-0.08374
930.0	19.187996	-15.069132	11.888531	-1.560933	-2.825048	-0.995644	-0.622314	-0.02832	-0.072998
931.0	10.823093	-12.265406	2.484296	2.105861	-0.344253	-0.362096	-0.624023	-0.037109	-0.064209
932.0	7.392661	7.256039	10.782909	1.582534	-0.760546	-0.269435	-0.630615	-0.039307	-0.064209
933.0	5.523064	0.9164	8.700484	0.051068	-0.951144	-0.581995	-0.625732	-0.048096	-0.049072
934.0	8.425133	-2.399087	8.051588	0.120699	-0.720661	-0.322046	-0.62793	-0.045898	-0.049072
935.0	7.873658	-1.508712	8.198053	0.320116	-0.585475	-0.150133	-0.630127	-0.046143	-0.044678
936.0	6.208053	1.933473	8.963071	0.398	-0.435642	-0.134752	-0.632324	-0.050293	-0.044678
937.0	7.469857	0.782818	9.027742	0.028742	-0.478978	-0.060205	-0.634277	-0.050537	-0.040283
938.0	8.004699	-0.562633	8.403327	-0.095742	-0.356215	0.077275	-0.634277	-0.052734	-0.035889
939.0	6.478928	-0.299812	8.222408	-0.049947	-0.243383	0.108106	-0.632324	-0.050293	-0.040283
940.0	6.426266	-0.891209	8.149212	-0.154104	-0.233275	0.137275	-0.629883	-0.05249	-0.035889
941.0	6.649174	-1.818675	7.631972	-0.053442	-0.136175	0.117515	-0.630127	-0.04834	-0.035889
942.0	5.571184	-1.807106	7.644797	-0.084348	-0.152527	0.077459	-0.630127	-0.050537	-0.038086
943.0	5.848553	-2.016975	7.62295	-0.026575	-0.187322	0.052498	-0.634521	-0.046143	-0.038086
944.0	5.910119	-1.508314	7.71771	0.064024	-0.16926	0.006635	-0.632324	-0.04834	-0.031738
945.0	5.999877	-1.226667	7.933371	0.082175	-0.175312	-0.019252	-0.630371	-0.043945	-0.038086
946.0	6.102815	-1.270394	7.772753	0.098581	-0.145122	-0.034778	-0.630127	-0.04834	-0.033691
947.0	5.977926	-1.292737	7.647796	0.058621	-0.149799	-0.050747	-0.636475	-0.052734	-0.029541
948.0	5.829465	-1.225593	7.659852	0.116879	-0.131472	-0.064939	-0.634277	-0.050537	-0.031738
949.0	6.052673	-1.153628	7.695163	0.134613	-0.137387	-0.079748	-0.634277	-0.050537	-0.027344
950.0	6.064438	-0.877561	7.749485	0.094866	-0.141754	-0.074628	-0.636475	-0.050537	-0.031738
951.0	6.199446	-0.761835	7.853409	0.021568	-0.158031	-0.044195	-0.627686	-0.054932	-0.020752
952.0	6.281889	-0.79041	7.810798	0.072761	-0.083927	-0.039459	-0.627686	-0.054688	-0.033691
953.0	6.200831	-1.205944	7.55402	0.035835	-0.08438	-0.048615	-0.634521	-0.04834	-0.033936
954.0	6.043464	-1.275736	7.487094	0.003378	-0.087037	-0.045535	-0.625488	-0.052734	-0.025146
955.0	5.820561	-1.366912	7.681002	0.081433	-0.060343	-0.082346	-0.63208	-0.054932	-0.025146
956.0	6.087424	-1.430785	7.48169	0.11162	-0.066142	-0.101581	-0.627686	-0.054932	-0.025146
957.0	5.641613	-1.612468	7.579561	0.041011	-0.094716	-0.136966	-0.629639	-0.057129	-0.025146
958.0	5.910836	-1.17112	7.654958	-0.041713	-0.037119	-0.119924	-0.638428	-0.059326	-0.027344
959.0	6.198188	-0.85315	7.559456	0.182786	-0.117995	-0.182394	-0.629639	-0.059326	-0.025146
960.0	6.257137	-1.110278	7.068375	-0.018048	-0.262181	-0.210877	-0.629639	-0.059326	-0.025146
961.0	5.31015	-2.40921	7.592313	0.250008	-0.020956	-0.238293	-0.634033	-0.061523	-0.020752
962.0	6.082361	-0.876797	7.493926	0.380795	-0.150118	-0.293595	-0.635742	-0.067871	-0.016357
963.0	6.190642	-1.006887	7.521247	0.336423	-0.083057	-0.309971	-0.638184	-0.063721	-0.018555
964.0	6.380896	-0.458207	7.845413	0.588026	-0.151613	-0.352132	-0.631348	-0.067871	-0.01416
965.0	5.80727	-0.751556	7.625062	0.089973	-0.191312	-0.26551	-0.633545	-0.070068	-0.009766
966.0	6.022644	-0.253885	8.058097	0.30092	-0.207474	-0.200668	-0.633545	-0.068115	-0.009766
967.0	6.324468	-0.727285	7.590017	-0.102644	-0.383594	-0.132791	-0.635498	-0.07251	-0.001221
968.0	6.191613	-1.051337	7.459949	0.324492	-0.224156	-0.234303	-0.637695	-0.07666	-0.005615
969.0	6.081545	-0.59031	7.610407	0.219211	-0.282215	-0.246478	-0.637695	-0.074707	-0.001221
970.0	6.269666	-0.849538	7.524379	0.248305	-0.266887	-0.261463	-0.637207	-0.085449	0.000977
971.0	7.058374	0.809092	8.1666	0.279215	-0.308481	-0.185439	-0.63501	-0.085449	0.005371
972.0	6.255311	-0.751233	7.49853	0.002219	-0.232874	-0.188716	-0.641602	-0.087646	0.003174
973.0	6.234319	-0.703133	7.667229	0.2354	-0.283369	-0.178132	-0.639404	-0.087646	0.005371
974.0	6.368194	-0.116015	7.893617	0.141066	-0.307972	-0.160142	-0.63501	-0.087646	0.009766
975.0	6.424315	-0.48641	7.735048	0.19323	-0.36998	-0.156863	-0.637207	-0.087646	0.011963
976.0	6.35884	-0.096123	8.142276	0.126168	-0.371129	-0.125993	-0.637207	-0.089844	0.01416
977.0	6.457726	-0.152862	7.913446	0.052604	-0.405236	-0.096999	-0.632813	-0.089844	0.01416
978.0	6.321522	0.023734	8.154034	-0.030259	-0.432835	-0.073064	-0.634766	-0.094238	0.016357
979.0	5.819003	0.170049	8.394493	-0.166756	-0.499167	-0.06631	-0.634766	-0.094238	0.020508
980.0	5.187229	-0.561464	9.006305	-0.377613	-0.676265	-0.091907	-0.632324	-0.098633	0.024902
981.0	5.095136	0.107192	8.973195	0.001441	-1.091902	0.018968	-0.632813	-0.090088	0.029297
982.0	6.210593	-0.201453	8.095503	-0.335953	-1.245065	0.025366	-0.634521	-0.09668	0.035889
983.0	6.20707	0.699253	8.519009	-0.169521	-1.44081	0.093546	-0.636719	-0.094727	0.046631
984.0	6.312596	0.307285	8.144068	-0.325189	-1.604749	0.179858	-0.632568	-0.090332	0.052979
985.0	6.382324	0.386891	8.409633	-0.461819	-1.757504	0.280399	-0.630127	-0.099121	0.063965
986.0	6.080486	-0.1634	8.448002	-0.546012	-1.866887	0.353413	-0.629883	-0.101318	0.068359
987.0	5.741869	-0.305429	8.346042	-0.514331	-2.188647	0.408501	-0.62793	-0.094971	0.079102
988.0	5.53682	-0.790664	7.948381	-0.602555	-2.467384	0.457533	-0.625977	-0.093018	0.092041
989.0	5.811718	-0.984701	7.717406	-0.459044	-2.83308	0.461253	-0.617188	-0.095459	0.107422
990.0	5.597031	-1.030544	7.541231	-0.067139	-3.223805	0.510217	-0.619141	-0.095703	0.124756
991.0	5.908742	-0.635831	7.975545	-0.127409	-3.582711	0.430754	-0.612549	-0.095947	0.144287
992.0	5.810158	-0.412541	7.724392	-0.491097	-3.970751	0.638222	-0.605957	-0.098145	0.157227
993.0	5.922496	-1.467012	7.78876	-0.296561	-4.492782	0.601708	-0.597412	-0.092041	0.183105
994.0	6.109728	-2.044436	7.873318	-0.239413	-5.002769	0.644715	-0.588379	-0.098877	0.211426
995.0	5.922437	-2.758823	8.11744	-0.131507	-5.589449	0.611745	-0.577393	-0.101318	0.237549
996.0	6.481532	-4.331259	7.907232	0.014757	-6.306477	0.423393	-0.55957	-0.110352	0.272217
997.0	11.501269	-7.972688	7.677551	1.290339	-6.062354	-1.07971	-0.537354	-0.119141	0.296143
998.0	8.110057	-2.699181	6.911495	2.607521	-5.928864	-0.152328	-0.524414	-0.115234	0.328613
999.0	10.581585	-1.821729	8.994209	0.845461	-7.390511	-0.488292	-0.497803	-0.124268	0.367676
1000.0	15.093521	0.586382	7.339435	0.565938	-8.424557	-0.57592	-0.462402	-0.139893	0.40918
1001.0	9.970826	-3.004269	0.705156	-1.396049	-9.181428	-0.595981	-0.422607	-0.150879	0.443848
1002.0	25.111802	-0.096462	8.64245	0.27095	-9.166606	-0.870688	-0.383057	-0.161865	0.472168
1003.0	25.892968	1.551753	6.195985	-1.739577	-7.827584	-0.135437	-0.347168	-0.187744	0.487549
1004.0	18.944129	-3.286302	7.1678	-2.696571	-7.790422	-0.614478	-0.309326	-0.209229	0.505127
1005.0	17.992985	-6.312832	8.151674	-3.267026	-7.349062	-0.975868	-0.275391	-0.237305	0.513916
1006.0	15.024279	-7.076237	9.685894	-0.317544	-5.152637	-1.596019	-0.244629	-0.248291	0.533447
1007.0	11.657319	-4.538574	7.787349	-0.659431	-4.573774	-2.202096	-0.215576	-0.267334	0.5271
1008.0	2.0592	-3.724381	7.711092	0.197595	-2.82188	-2.544371	-0.197754	-0.278076	0.535889
1009.0	18.668626	3.249895	11.883634	-0.939322	-3.218899	-0.958582	-0.181396	-0.301758	0.533936
1010.0	34.323619	-11.939176	13.396835	-3.489495	-0.60927	-0.612539	-0.185303	-0.314453	0.523193
1011.0	7.851433	-8.0076	10.868598	1.988682	4.261074	-1.032624	-0.204834	-0.316895	0.527588
1012.0	6.250353	-2.583057	9.881174	-0.975658	2.915115	-1.018145	-0.210693	-0.336182	0.518799
1013.0	7.120969	-6.923284	6.549318	-0.089469	3.933436	-1.011777	-0.22583	-0.338135	0.512451
1014.0	3.4047	-0.954023	6.569382	0.280827	4.488054	-0.879853	-0.251465	-0.353271	0.503662
1015.0	4.869599	-2.595672	5.536667	-0.820912	4.223221	-0.581631	-0.264404	-0.355469	0.499268
1016.0	4.470086	-3.255932	4.682832	-0.615733	4.610306	-0.222646	-0.292236	-0.365967	0.486328
1017.0	4.247001	-4.664401	4.004428	-0.770785	4.606905	0.077842	-0.316406	-0.361816	0.484131
1018.0	5.038466	-6.38593	3.656914	-0.31382	4.685851	0.310591	-0.349121	-0.361816	0.475342
1019.0	5.471557	-6.369534	3.596104	0.32764	4.84518	0.530473	-0.384277	-0.351074	0.462402
1020.0	6.606995	-5.921185	3.57501	0.905796	4.993747	0.768295	-0.41748	-0.342529	0.453613
1021.0	6.55954	-4.666984	3.78015	1.322392	5.190274	1.077036	-0.452881	-0.327393	0.438232
1022.0	7.201238	-3.591231	3.978586	1.437581	5.241865	1.40402	-0.495117	-0.303711	0.425049
1023.0	7.320833	-2.741098	3.954797	1.600111	5.394517	1.686005	-0.533203	-0.275391	0.403076
1024.0	7.305132	-2.13182	3.756599	1.646352	5.424176	1.926032	-0.564941	-0.247314	0.374756
1025.0	7.240902	-1.088577	3.929162	1.59895	5.405703	2.155155	-0.596436	-0.221191	0.346436
1026.0	7.165982	-0.187345	4.15229	1.325284	5.225737	2.358336	-0.625977	-0.190674	0.313721
1027.0	7.606312	-0.109545	4.169109	1.068845	5.030386	2.422727	-0.644775	-0.157959	0.278809
1028.0	7.793323	-0.336655	4.58933	1.083951	4.870399	2.225119	-0.667725	-0.131836	0.248291
1029.0	8.270741	-0.806136	4.937429	1.035188	4.656857	2.001788	-0.673096	-0.10791	0.213379
1030.0	10.568648	-0.430121	6.435148	0.998076	4.392644	1.632153	-0.67627	-0.07959	0.187256
1031.0	11.530487	-0.429932	6.764878	0.233321	4.156989	1.505231	-0.687988	-0.059814	0.154785
1032.0	12.020693	-1.251496	6.78358	0.432125	4.115531	1.251192	-0.695313	-0.042236	0.128662
1033.0	11.690261	-0.358353	7.728762	0.428961	4.247572	1.048099	-0.69165	-0.026855	0.102539
1034.0	12.850046	0.837186	9.099559	-0.350589	3.945904	0.99159	-0.696289	-0.02002	0.076416
1035.0	13.642027	-1.687897	8.923915	-0.262408	4.056933	0.828335	-0.698975	-0.004639	0.056885
1036.0	13.694987	-1.734513	9.077597	-0.240255	4.128848	0.644226	-0.699707	0.008545	0.032959
1037.0	14.277816	-1.742324	9.32866	-0.13741	4.17781	0.510934	-0.710693	0.010986	0.006836
1038.0	14.648742	-0.647777	9.53759	-0.109564	4.221829	0.396676	-0.70874	0.015625	-0.014648
1039.0	15.046062	0.325644	9.767191	-0.353828	4.202813	0.330764	-0.713379	0.022461	-0.040771
1040.0	16.107589	0.335977	10.014078	-0.653812	4.221624	0.260534	-0.722412	0.031494	-0.071289
1041.0	17.407919	0.061106	9.98259	-0.932946	4.312997	0.206773	-0.729248	0.036133	-0.101563
1042.0	18.422249	-0.321205	9.762372	-1.010949	4.575192	0.106233	-0.734131	0.045166	-0.134277
1043.0	18.313407	-0.607	9.313428	-1.169417	4.808528	0.001167	-0.734131	0.045654	-0.166748
1044.0	17.996746	-0.899616	8.704987	-1.252991	4.976767	-0.130521	-0.725586	0.04834	-0.212158
1045.0	17.406979	-0.963422	7.737061	-1.351592	5.05714	-0.274437	-0.726074	0.05957	-0.249023
1046.0	17.165174	-0.48105	6.519641	-1.47894	5.027075	-0.43474	-0.719727	0.0625	-0.290283
1047.0	16.95979	0.055336	4.906481	-1.762718	4.935591	-0.564833	-0.709229	0.067139	-0.324951
1048.0	16.420954	0.670708	2.603258	-2.104043	4.844977	-0.647264	-0.700928	0.074219	-0.366211
1049.0	15.643781	1.580453	0.206271	-2.442606	4.694808	-0.733204	-0.688232	0.085449	-0.394287
1050.0	14.909031	3.147915	-2.122591	-2.89046	4.446852	-0.779005	-0.673828	0.101074	-0.424805
1051.0	13.470748	3.51303	-4.443105	-3.387161	4.00659	-0.873232	-0.663574	0.118408	-0.444336
1052.0	12.245765	2.425728	-6.645308	-3.850004	3.253736	-1.036014	-0.65332	0.134033	-0.474854
1053.0	11.390182	-0.135844	-8.57903	-3.58337	2.351321	-1.414246	-0.653809	0.146973	-0.472656
1054.0	10.946772	-2.872073	-9.454028	-3.018909	1.368314	-1.825936	-0.655762	0.142822	-0.485596
1055.0	12.323727	-4.285765	-9.073131	-1.453942	0.549201	-2.324804	-0.6604	0.144775	-0.485596
1056.0	14.222896	-2.292596	-6.81477	-0.009284	-0.018436	-2.616418	-0.66626	0.127686	-0.483398
1057.0	16.165705	-0.158912	-4.610852	0.799009	-0.360738	-2.57804	-0.674072	0.108154	-0.483398
1058.0	15.813234	1.539622	-2.680686	1.072869	-0.421057	-2.20232	-0.675537	0.091064	-0.481201
1059.0	8.872905	-1.519533	4.619354	0.484353	-0.629327	-1.751139	-0.683838	0.077881	-0.472412
1060.0	-7.142203	-24.656496	0.166038	2.777595	-2.218779	-2.151153	-0.697754	0.043213	-0.452637
1061.0	-5.820572	-3.005442	16.447216	6.987227	-1.549444	-1.901234	-0.702881	0.008545	-0.446045
1062.0	-2.59754	-2.91571	15.388674	3.634087	-3.51958	-0.318282	-0.726318	-0.002686	-0.417725
1063.0	11.904065	8.961852	4.938998	6.465631	-2.21206	1.285104	-0.732422	-0.013672	-0.400391
1064.0	3.66083	18.732588	9.945487	1.955193	-4.07293	2.052672	-0.754639	0.00293	-0.359375
1065.0	16.286869	0.508411	10.873145	-0.85002	-5.854979	1.554804	-0.776611	0.010986	-0.326904
1066.0	19.411777	10.893465	14.143249	3.262773	-3.640051	0.792069	-0.785156	0.00415	-0.296631
1067.0	15.270761	11.958462	12.247326	0.436497	-3.504919	0.17562	-0.800537	0.01001	-0.259766
1068.0	12.42802	7.410607	11.000777	0.402971	-2.957004	-0.202428	-0.804688	0.007568	-0.246826
1069.0	9.443688	4.274596	10.057169	-0.183178	-2.518132	-0.422451	-0.813477	0.009521	-0.227295
1070.0	15.237587	-6.428472	13.192284	-1.064488	-3.005695	-0.949545	-0.821533	-0.003662	-0.203369
1071.0	16.668771	-13.141086	3.764728	0.793035	-0.889954	-0.801757	-0.821533	-0.006104	-0.192627
1072.0	9.080641	1.01772	8.871361	1.938526	-0.81513	-0.368615	-0.827637	-0.014648	-0.188232
1073.0	4.80968	4.606261	9.399748	0.795411	-0.805766	-0.54365	-0.827637	-0.014893	-0.175293
1074.0	8.593046	0.021091	8.932424	0.099763	-0.858103	-0.391544	-0.831543	-0.025635	-0.170898
1075.0	7.710557	-2.748152	7.895909	0.135812	-0.686932	-0.234079	-0.820557	-0.025879	-0.164307
1076.0	5.42311	-0.906128	8.173988	0.617478	-0.489403	-0.302868	-0.833496	-0.028076	-0.162109
1077.0	6.464416	0.745393	8.885648	0.376344	-0.602088	-0.28812	-0.833496	-0.030273	-0.155518
1078.0	7.761093	0.51416	9.146849	0.193427	-0.525624	-0.160657	-0.831299	-0.028076	-0.14917
1079.0	7.551389	-0.152065	8.441333	0.11661	-0.346712	-0.046849	-0.833496	-0.028076	-0.151367
1080.0	6.289112	0.795518	8.865956	0.063757	-0.284518	0.040709	-0.835693	-0.030273	-0.146973
1081.0	7.115817	-0.799852	8.139688	-0.121166	-0.258588	0.108556	-0.835693	-0.032471	-0.14917
1082.0	6.854328	-0.981641	7.834594	-0.119248	-0.18107	0.151061	-0.833496	-0.032471	-0.146973
1083.0	6.294762	-0.77262	7.951848	-0.121963	-0.131398	0.180527	-0.835693	-0.026123	-0.140381
1084.0	6.312777	-0.990336	8.076093	-0.14548	-0.11213	0.184703	-0.838135	-0.023926	-0.142578
1085.0	6.196662	-1.079555	8.042003	-0.201413	-0.098717	0.204312	-0.836182	-0.019775	-0.142578
1086.0	6.376905	-0.930535	7.804294	-0.200834	-0.072549	0.217868	-0.838379	-0.017578	-0.13623
1087.0	6.076574	-0.88493	7.90133	-0.219359	-0.03863	0.234502	-0.833984	-0.015381	-0.13623
1088.0	5.976202	-1.402195	7.588088	-0.229237	-0.060576	0.215111	-0.838379	-0.013428	-0.13623
1089.0	5.792236	-1.203744	7.764075	-0.139303	-0.028569	0.200976	-0.838623	-0.01123	-0.138428
1090.0	5.943792	-1.288673	7.688659	-0.225735	-0.068938	0.212104	-0.838623	-0.01123	-0.138428
1091.0	5.945716	-1.317053	7.682359	-0.186764	-0.052589	0.20938	-0.83667	-0.006836	-0.140625
1092.0	5.880345	-1.358582	7.616148	-0.179195	-0.04779	0.204417	-0.834473	-0.006836	-0.14502
1093.0	5.977748	-1.448365	7.530772	-0.194538	-0.057774	0.193124	-0.836914	-0.000488	-0.138428
1094.0	6.148957	-1.096837	7.786655	-0.169256	-0.03631	0.204513	-0.843018	-0.006836	-0.134033
1095.0	6.256297	-1.382491	7.588785	-0.223685	-0.015123	0.209732	-0.834717	0.001709	-0.134033
1096.0	6.056469	-1.629954	7.53907	-0.21344	0.006214	0.189155	-0.834717	-0.000488	-0.131836
1097.0	6.164246	-1.402685	7.679306	-0.156783	0.056207	0.183432	-0.834717	0.003906	-0.13208
1098.0	5.800367	-1.683367	7.678183	-0.248904	0.023507	0.165161	-0.836914	0.003906	-0.13208
1099.0	5.535867	-2.110922	7.540823	-0.179954	0.044196	0.12197	-0.835205	0.012451	-0.13623
1100.0	5.557446	-2.019501	7.535876	-0.130132	0.021405	0.080518	-0.837158	0.010254	-0.13623
1101.0	5.705738	-1.636488	7.65512	-0.069236	0.054119	0.062803	-0.845947	0.010254	-0.140625
1102.0	5.757452	-1.830142	7.606267	-0.093677	-0.01569	0.037749	-0.841553	0.012451	-0.140625
1103.0	5.960085	-1.419109	7.821392	-0.037507	-0.026479	0.036065	-0.839355	0.012451	-0.134277
1104.0	5.887918	-1.903058	7.455983	-0.026962	-0.013877	-0.01685	-0.841309	0.006104	-0.14502
1105.0	6.014485	-0.826777	8.036876	0.255701	0.153108	-0.045682	-0.834961	0.008301	-0.138428
1106.0	5.555443	-1.627902	7.714634	-0.214102	-0.085077	0.002272	-0.8396	0.014404	-0.127686
1107.0	5.510734	-1.423312	7.792675	-0.221869	-0.114438	0.070905	-0.837158	0.010254	-0.13623
1108.0	5.690982	-2.704074	7.194438	-0.315304	-0.176553	0.014505	-0.837158	0.006104	-0.13623
1109.0	5.255873	-2.089952	7.484261	0.095138	-0.082137	-0.082886	-0.837402	0.012451	-0.13208
1110.0	5.388223	-2.413949	7.357976	0.004598	-0.190437	-0.139434	-0.841553	0.008057	-0.127686
1111.0	5.25914	-2.433257	7.176298	0.158262	-0.182356	-0.229392	-0.84375	0.008057	-0.125488
1112.0	4.930554	-2.703792	7.072086	0.197495	-0.246062	-0.323854	-0.836914	0.001465	-0.123291
1113.0	4.748328	-3.220079	6.787523	0.386601	-0.328945	-0.455884	-0.841064	-0.000488	-0.125488
1114.0	4.703998	-3.041199	6.853569	0.583065	-0.426153	-0.60293	-0.843018	-0.00708	-0.121094
1115.0	5.27277	-2.752798	6.902093	0.754971	-0.533478	-0.720137	-0.838379	-0.015625	-0.116699
1116.0	5.761404	-1.905445	7.094375	0.914625	-0.601761	-0.799766	-0.837891	-0.024414	-0.110107
1117.0	6.240972	-0.951292	7.316142	0.96558	-0.687481	-0.809996	-0.842041	-0.031006	-0.099365
1118.0	6.54142	-0.27681	7.942099	0.945493	-0.744388	-0.797673	-0.841553	-0.044189	-0.090576
1119.0	7.358034	1.062211	8.544132	0.908211	-0.71553	-0.698845	-0.841553	-0.046387	-0.086182
1120.0	7.234004	0.96792	8.647574	0.626407	-0.71579	-0.606184	-0.845703	-0.050537	-0.083984
1121.0	7.7302	1.711864	8.979499	0.459924	-0.58137	-0.454715	-0.843262	-0.054932	-0.07959
1122.0	6.783704	1.018959	8.610874	0.1257	-0.590135	-0.276398	-0.84082	-0.059326	-0.073242
1123.0	5.706116	0.703309	9.663735	0.004954	-0.671311	-0.105282	-0.845459	-0.055176	-0.064453
1124.0	5.751842	0.880205	9.175522	0.024125	-1.030192	0.071889	-0.845459	-0.053223	-0.060059
1125.0	6.419208	0.296811	8.30515	-0.185255	-1.138068	0.165227	-0.845459	-0.05127	-0.044922
1126.0	5.780051	0.87912	9.14256	-0.171382	-1.381946	0.281086	-0.849854	-0.049072	-0.036377
1127.0	5.838492	-0.019003	8.512306	-0.441236	-1.617524	0.360663	-0.8479	-0.042725	-0.025635
1128.0	5.967497	-0.221757	8.526686	-0.454863	-1.824563	0.410638	-0.852539	-0.038818	-0.001709
1129.0	6.060072	-0.34336	8.062899	-0.556718	-2.013829	0.446177	-0.852295	-0.039063	0.017822
1130.0	5.986915	-0.793375	7.80012	-0.608569	-2.233551	0.503042	-0.85498	-0.026367	0.028564
1131.0	5.621052	-0.556045	7.925725	-0.593152	-2.500651	0.518674	-0.852783	-0.026611	0.05249
1132.0	6.067352	-1.02056	7.742022	-0.717018	-2.809882	0.52876	-0.853027	-0.018555	0.078369
1133.0	5.659476	-0.914265	7.680102	-0.646679	-3.078089	0.548022	-0.851318	-0.008057	0.104248
1134.0	5.683713	-0.571421	7.848402	-0.658709	-3.519799	0.598238	-0.853516	-0.006348	0.138916
1135.0	4.883509	-1.724075	7.841133	-0.649424	-4.06323	0.642686	-0.844727	-0.002441	0.167236
1136.0	4.943972	-2.839348	7.66269	-0.348083	-4.729837	0.617724	-0.840576	0.005615	0.208252
1137.0	5.641471	-2.627896	8.130456	-0.184841	-5.292967	0.60956	-0.825684	0.015869	0.258057
1138.0	5.973103	-3.825833	8.090098	-0.005539	-5.962692	0.512498	-0.80835	0.017334	0.308105
1139.0	7.269663	-4.63459	8.590885	0.050188	-6.519766	0.254771	-0.791016	0.027344	0.35791
1140.0	13.147188	-8.345078	8.132228	1.280825	-5.918403	-1.241987	-0.773438	0.024658	0.401123
1141.0	9.44257	-1.869925	6.972891	2.192322	-6.243568	-0.385501	-0.749756	0.032715	0.451172
1142.0	13.891818	-1.062235	8.643723	0.546699	-7.343669	-0.693214	-0.712646	0.032227	0.498779
1143.0	12.853756	0.37796	8.171219	-0.914818	-8.203025	-0.625659	-0.675049	0.020752	0.557373
1144.0	14.357922	-3.741561	0.956504	-0.633067	-9.021302	-0.674454	-0.625	0.024658	0.615967
1145.0	32.048376	3.834604	10.647277	-0.963132	-8.11042	-0.34197	-0.587402	0.013428	0.655273
1146.0	17.281672	-1.897258	6.541123	-4.060016	-8.007037	-0.498139	-0.533936	-0.01709	0.69873
1147.0	19.745581	-7.35524	8.10054	-3.408121	-7.314302	-0.882662	-0.498291	-0.036621	0.7229
1148.0	13.958232	-5.898145	9.737681	-0.828291	-5.06833	-1.570022	-0.465332	-0.04541	0.73584
1149.0	11.952887	-5.146511	9.421564	-1.60978	-5.268545	-2.15631	-0.44043	-0.066895	0.753418
1150.0	5.157182	-8.831415	6.010613	-0.11228	-3.331318	-2.962369	-0.429199	-0.075684	0.76001
1151.0	5.667407	0.589661	6.921027	1.064769	-2.666739	-2.100898	-0.405029	-0.082031	0.768799
1152.0	35.453788	-3.166274	19.189753	-3.992607	-3.941953	-0.42505	-0.40625	-0.109863	0.762451
1153.0	18.247895	-16.210708	8.3094	1.62171	3.874143	-1.174781	-0.448242	-0.092529	0.727539
1154.0	3.791862	0.19987	11.122406	1.483098	3.161812	-0.977719	-0.474121	-0.09668	0.714355
1155.0	5.307654	-7.507504	8.355097	-0.816542	2.936242	-0.838646	-0.500244	-0.102783	0.675537
1156.0	2.901283	-4.104186	6.757211	1.586077	4.341022	-0.863167	-0.537598	-0.0979	0.63623
1157.0	1.2388	-1.529285	6.365257	0.434587	3.985836	-0.79751	-0.567383	-0.112793	0.608154
1158.0	3.358562	-3.98924	5.160656	-0.049678	3.833681	-0.544096	-0.586914	-0.118652	0.566895
1159.0	3.901393	-3.461167	4.816443	0.336029	4.258601	-0.233938	-0.606201	-0.126953	0.536621
1160.0	4.828292	-4.216702	4.601002	0.250621	4.355252	0.080129	-0.629883	-0.135254	0.497559
1161.0	5.514304	-4.692568	4.464215	0.292304	4.555725	0.43295	-0.649658	-0.136963	0.458496
1162.0	6.468171	-5.508899	4.270008	0.434891	4.717729	0.751794	-0.666992	-0.140869	0.421631
1163.0	7.091769	-6.360646	3.881493	0.882337	5.033237	1.005963	-0.682129	-0.140381	0.384766
1164.0	6.908419	-6.343188	3.606742	1.391444	5.306719	1.191439	-0.699951	-0.131348	0.352295
1165.0	6.78001	-5.944694	3.44192	1.820981	5.44013	1.30328	-0.718018	-0.122314	0.311035
1166.0	6.689786	-5.259625	3.151557	2.175404	5.497702	1.38507	-0.737793	-0.115234	0.269775
1167.0	6.66209	-4.185013	3.414308	2.426075	5.493732	1.470025	-0.749268	-0.106201	0.237305
1168.0	6.9523	-2.974706	3.761186	2.284463	5.332104	1.622862	-0.76709	-0.097168	0.193848
1169.0	7.593598	-2.599861	3.990777	2.027423	5.16928	1.796648	-0.776367	-0.085938	0.158936
1170.0	8.021132	-2.628254	4.370729	2.032015	5.003264	1.851346	-0.788086	-0.063965	0.119873
1171.0	8.857604	-1.877524	6.796029	1.74857	4.831081	1.936656	-0.793213	-0.046143	0.083008
1172.0	8.811912	-4.594952	4.084172	1.014606	4.624415	2.426706	-0.798096	-0.032715	0.039551
1173.0	12.138616	-2.252412	6.397589	1.352878	4.312396	1.894656	-0.796631	-0.01709	0.000488
1174.0	13.050495	-3.927715	7.380464	0.166769	3.85771	2.007367	-0.794922	-0.010254	-0.038574
1175.0	13.406258	-5.186274	7.106334	0.602619	4.078478	1.928842	-0.792969	-0.001221	-0.064697
1176.0	13.975537	-4.381133	8.249386	0.486301	4.09209	1.816522	-0.784912	0.01001	-0.10376
1177.0	14.673959	-4.913297	9.103843	0.456941	4.159586	1.641298	-0.774414	0.019287	-0.140625
1178.0	15.654489	-4.511777	9.451968	0.338169	4.267639	1.469395	-0.77002	0.015381	-0.179688
1179.0	15.841258	-3.898712	9.528954	0.209725	4.38658	1.300352	-0.757324	0.024658	-0.21875
1180.0	16.107633	-3.082192	9.625717	0.082851	4.583042	1.096592	-0.73999	0.023193	-0.255371
1181.0	15.609762	-2.058832	9.669811	-0.153739	4.740702	0.864333	-0.718262	0.023682	-0.283691
1182.0	15.609855	-0.899342	9.641817	-0.507009	4.836151	0.658227	-0.703125	0.021973	-0.324707
1183.0	15.945837	0.08505	9.553591	-0.934908	4.890003	0.471789	-0.690186	0.022461	-0.35498
1184.0	16.57234	0.47057	9.218459	-1.337678	4.974755	0.295267	-0.659912	0.025146	-0.381104
1185.0	16.991259	-0.488494	8.540291	-1.745633	5.02774	0.098414	-0.642578	0.025635	-0.415771
1186.0	16.670688	-1.17298	8.809375	-1.798311	5.143641	-0.147011	-0.623291	0.032471	-0.435059
1187.0	17.673529	-2.738652	4.753876	-1.338489	4.833174	-0.656264	-0.597168	0.032959	-0.456787
1188.0	16.361521	1.567879	4.594208	-1.469812	5.096839	-0.736245	-0.575439	0.033447	-0.484863
1189.0	18.89943	-0.738653	4.84774	-1.996266	5.042469	-0.872407	-0.547119	0.033691	-0.508789
1190.0	15.59505	1.722887	2.362902	-1.923262	5.04469	-1.04574	-0.525635	0.040527	-0.52832
1191.0	14.100862	0.933103	-1.500222	-2.54985	4.630648	-1.300127	-0.513184	0.049561	-0.556396
1192.0	13.458949	2.377298	-3.177013	-2.376203	4.375561	-1.523561	-0.480713	0.054199	-0.575928
1193.0	12.643188	3.622767	-4.777009	-2.610012	3.751354	-1.729411	-0.467773	0.058838	-0.58667
1194.0	12.020466	3.820932	-6.691445	-3.64566	2.514764	-1.804979	-0.459961	0.078125	-0.586914
1195.0	11.908501	-0.783064	-8.829859	-4.321444	1.34154	-1.803285	-0.45166	0.089111	-0.595459
1196.0	12.684191	-4.614175	-9.315908	-2.520816	0.698629	-2.062826	-0.451416	0.084717	-0.597656
1197.0	13.762688	-3.129166	-7.315471	-0.539566	0.201283	-2.29791	-0.457764	0.078369	-0.591064
1198.0	15.088978	-1.72929	-5.529052	0.414003	-0.423608	-2.347833	-0.463623	0.063232	-0.602051
1199.0	15.613613	-0.061386	-3.339077	1.276015	-0.654611	-2.201001	-0.464844	0.039551	-0.588867
1200.0	3.722403	-8.365968	4.130341	0.430264	-0.985986	-1.813848	-0.477539	0.028564	-0.584473
1201.0	-2.53625	-17.43511	1.779209	6.153844	-3.099111	-2.881576	-0.488037	-0.03833	-0.573242
1202.0	-1.374599	5.853356	16.794193	7.467818	-0.93347	-0.685217	-0.499756	-0.068604	-0.562256
1203.0	-4.177092	1.670575	16.427784	1.562829	-3.796194	0.406531	-0.525635	-0.075439	-0.531982
1204.0	7.525083	6.124317	1.680481	5.30537	-3.218063	1.426587	-0.544189	-0.10376	-0.520996
1205.0	5.825218	19.332492	10.953555	2.622827	-4.123376	2.905225	-0.568604	-0.087158	-0.48877
1206.0	12.934896	4.13082	11.181033	-1.509303	-6.209844	1.606836	-0.599365	-0.079102	-0.454102
1207.0	19.499213	8.535119	12.876769	2.083574	-4.111689	1.279322	-0.609863	-0.088135	-0.425781
1208.0	15.991337	13.768817	13.458415	0.625223	-3.554251	0.295376	-0.629395	-0.086182	-0.404297
1209.0	14.663132	6.046351	11.666703	-0.793083	-3.293487	-0.202787	-0.638184	-0.082275	-0.384766
1210.0	11.714827	0.957991	11.446377	-0.619533	-2.503503	-0.382477	-0.644531	-0.088867	-0.371826
1211.0	21.065899	-11.365758	12.415336	-2.055597	-2.959814	-1.404582	-0.646729	-0.089111	-0.358643
1212.0	10.617054	-16.938616	0.77697	1.908821	-0.13101	-0.497734	-0.652588	-0.102295	-0.350098
1213.0	6.222919	4.255865	10.432164	3.244035	-0.550339	0.049939	-0.658936	-0.108643	-0.352051
1214.0	5.080079	5.589874	10.06588	-0.074442	-1.105807	-0.358817	-0.656738	-0.108887	-0.341309
1215.0	10.853509	-3.055388	7.77264	-0.932598	-1.070208	-0.312836	-0.66333	-0.106689	-0.334961
1216.0	7.599612	-4.564182	7.185431	0.611244	-0.284506	-0.233849	-0.660645	-0.119629	-0.330566
1217.0	5.378716	0.927783	8.942283	0.523648	-0.35972	-0.187432	-0.665039	-0.119629	-0.328369
1218.0	7.500928	-0.077442	8.737342	0.004092	-0.474343	-0.188413	-0.658447	-0.119629	-0.326172
1219.0	7.448351	-1.065018	8.193296	0.079485	-0.25312	-0.071881	-0.669189	-0.121826	-0.330566
1220.0	6.158421	-0.596294	8.434838	0.035855	-0.222032	-0.010362	-0.662598	-0.121826	-0.323975
1221.0	6.366005	-1.007015	8.219108	-0.031915	-0.222909	0.02375	-0.664795	-0.124268	-0.31958
1222.0	6.241446	-1.622103	7.816423	-0.061122	-0.180747	0.059454	-0.665039	-0.119873	-0.315186
1223.0	6.054896	-1.560122	7.862817	-0.032042	-0.189081	0.073775	-0.667236	-0.119873	-0.321777
1224.0	6.222857	-1.383881	7.95816	-0.027062	-0.16297	0.08779	-0.671631	-0.115723	-0.31543
1225.0	6.236511	-1.376277	8.058667	-0.067414	-0.134185	0.116764	-0.669434	-0.11792	-0.313232
1226.0	6.00985	-1.509853	7.881054	-0.117192	-0.129211	0.132738	-0.665039	-0.115723	-0.315186
1227.0	5.993302	-1.924355	7.65991	-0.123139	-0.130608	0.122386	-0.669434	-0.113525	-0.31543
1228.0	5.790887	-1.815848	7.702849	-0.096414	-0.115344	0.100638	-0.671631	-0.113525	-0.317383
1229.0	5.887362	-1.899571	7.697194	-0.082173	-0.116875	0.070615	-0.66748	-0.109375	-0.308838
1230.0	5.914151	-1.592002	7.747491	-0.047006	-0.103103	0.052865	-0.673828	-0.115723	-0.313232
1231.0	6.170289	-1.380846	7.826299	-0.081319	-0.110584	0.05705	-0.669678	-0.111328	-0.308838
1232.0	6.21853	-1.402501	7.695166	-0.116083	-0.070619	0.074937	-0.669678	-0.111328	-0.311035
1233.0	5.871994	-1.621128	7.615017	-0.158724	-0.06954	0.078379	-0.669678	-0.109131	-0.311035
1234.0	5.87206	-1.832866	7.578679	-0.137206	-0.079532	0.071333	-0.671875	-0.107178	-0.311035
1235.0	5.994822	-1.630978	7.648944	-0.075263	-0.061028	0.056727	-0.66748	-0.107178	-0.304443
1236.0	6.076104	-1.527667	7.704822	-0.093556	-0.054019	0.069468	-0.669678	-0.111328	-0.311035
1237.0	5.962751	-1.557914	7.734854	-0.117428	-0.038085	0.077799	-0.674316	-0.10498	-0.311035
1238.0	5.929168	-1.609751	7.677677	-0.148074	-0.052667	0.089214	-0.676514	-0.102783	-0.308838
1239.0	6.045863	-1.741969	7.651743	-0.153277	-0.045901	0.086625	-0.67627	-0.10498	-0.306641
1240.0	5.857073	-1.933601	7.524587	-0.120996	-0.025308	0.073662	-0.672119	-0.10498	-0.308838
1241.0	5.53214	-1.796148	7.7052	-0.193589	-0.081658	0.05091	-0.671875	-0.109375	-0.306641
1242.0	5.520445	-1.69509	7.765497	-0.417678	-0.240912	0.094547	-0.674316	-0.10083	-0.304443
1243.0	5.98508	-2.240298	7.427316	-0.749945	-0.349994	0.200593	-0.672119	-0.10083	-0.30249
1244.0	6.161099	-2.9794	6.984485	-0.111524	-0.13659	-0.019753	-0.672363	-0.094238	-0.30249
1245.0	5.646961	-2.244316	7.318233	0.014418	-0.100722	-0.072902	-0.672363	-0.094238	-0.300293
1246.0	5.779185	-2.907031	7.217602	0.318257	-0.008834	-0.180025	-0.674316	-0.10083	-0.300293
1247.0	5.482987	-2.352782	7.174182	0.385001	-0.017123	-0.207646	-0.674072	-0.107178	-0.302246
1248.0	5.438817	-1.855782	7.666643	0.446308	-0.027763	-0.228132	-0.678467	-0.107178	-0.304443
1249.0	5.523223	-1.786611	7.649451	0.126492	-0.28732	-0.255572	-0.672119	-0.10498	-0.300293
1250.0	5.850379	-2.112575	7.419158	0.110104	-0.328407	-0.280341	-0.676025	-0.111572	-0.304443
1251.0	5.824842	-2.214597	7.41195	0.261693	-0.266381	-0.33357	-0.676025	-0.115967	-0.293701
1252.0	5.619921	-2.162073	7.329648	0.333866	-0.267414	-0.397932	-0.675781	-0.118164	-0.291504
1253.0	5.612367	-2.128157	7.276293	0.332342	-0.316933	-0.441804	-0.679932	-0.124756	-0.284912
1254.0	5.684117	-2.19567	6.999667	0.365088	-0.357487	-0.49567	-0.679688	-0.128906	-0.284912
1255.0	5.421514	-2.33828	7.072744	0.471864	-0.408076	-0.572736	-0.675049	-0.135498	-0.276123
1256.0	5.773911	-2.378837	6.82901	0.556815	-0.467227	-0.649647	-0.679443	-0.139893	-0.280518
1257.0	5.972064	-2.065337	6.763272	0.676342	-0.520023	-0.703188	-0.681152	-0.14624	-0.273926
1258.0	5.910637	-1.642172	6.902893	0.848184	-0.551705	-0.777009	-0.680908	-0.157227	-0.267334
1259.0	6.55714	-1.145469	7.407557	0.879224	-0.681587	-0.790574	-0.68042	-0.163818	-0.263184
1260.0	7.339139	0.332711	8.143982	0.903083	-0.556068	-0.709858	-0.682373	-0.172363	-0.260742
1261.0	7.375531	0.130156	8.331068	0.676034	-0.548172	-0.631053	-0.682129	-0.178955	-0.252197
1262.0	7.167573	0.92012	8.657728	0.655901	-0.367912	-0.551691	-0.679688	-0.183105	-0.254395
1263.0	7.097783	1.096422	8.960883	0.194335	-0.497455	-0.42145	-0.679688	-0.18335	-0.241211
1264.0	6.742363	0.515061	8.542586	-0.176331	-0.521277	-0.284847	-0.688477	-0.18335	-0.241211
1265.0	4.94984	-0.212092	9.32833	-0.028308	-0.676492	-0.107482	-0.681885	-0.185547	-0.241211
1266.0	6.704364	0.411716	8.523276	0.09858	-0.985149	0.006009	-0.69043	-0.187988	-0.228271
1267.0	6.000173	1.339167	8.914978	-0.164587	-1.166199	0.057711	-0.69043	-0.185791	-0.223877
1268.0	6.353588	-0.415672	7.775931	-0.361684	-1.369417	0.206063	-0.697021	-0.183838	-0.213135
1269.0	5.754397	1.220716	9.083586	-0.423986	-1.677878	0.271709	-0.697266	-0.179688	-0.195801
1270.0	6.066645	0.249486	8.754959	-0.405033	-1.824346	0.406916	-0.701904	-0.171387	-0.185059
1271.0	6.11359	-0.916895	7.901776	-0.564061	-2.066268	0.371042	-0.701904	-0.169434	-0.169922
1272.0	5.742615	0.00637	7.983462	-1.139866	-2.277099	0.519923	-0.70874	-0.163086	-0.154785
1273.0	5.292813	-2.379415	7.275226	-0.437207	-2.619026	0.438352	-0.710938	-0.15918	-0.133057
1274.0	6.134821	-0.049338	8.465225	-0.783668	-2.934888	0.480845	-0.722168	-0.150879	-0.115723
1275.0	5.729449	-1.398804	7.410904	-0.630696	-3.224653	0.524575	-0.726563	-0.14917	-0.089844
1276.0	5.546167	-0.666877	8.225298	-0.634405	-3.712443	0.64209	-0.72876	-0.147217	-0.063721
1277.0	4.971582	-1.627064	7.584655	-0.814535	-4.3034	0.681557	-0.72876	-0.13916	-0.024902
1278.0	5.046757	-2.922089	7.501014	-0.490923	-5.045583	0.626666	-0.730957	-0.139648	0.007568
1279.0	6.124077	-3.034986	8.424193	0.003153	-5.533962	0.546227	-0.727051	-0.127197	0.051025
1280.0	5.926444	-3.784232	8.420987	-0.483746	-6.188187	0.387703	-0.722412	-0.132324	0.10083
1281.0	10.530926	-7.139467	7.363927	-0.125836	-6.845541	-0.129713	-0.713379	-0.13501	0.152832
1282.0	11.200801	-6.803607	8.390802	2.463889	-5.31266	-1.146363	-0.702393	-0.133545	0.194092
1283.0	11.999626	-0.695014	7.184917	1.732981	-6.678687	-0.475476	-0.685059	-0.134033	0.241699
1284.0	14.257877	0.698568	8.668892	0.277566	-7.632883	-0.531291	-0.665039	-0.136719	0.291748
1285.0	11.638298	-2.22693	3.117994	-1.483768	-8.451395	-0.560988	-0.638672	-0.144043	0.356689
1286.0	23.096053	-0.365639	7.207539	0.162642	-8.599804	-0.639617	-0.603516	-0.148926	0.402344
1287.0	25.490476	5.62336	8.37229	-2.903594	-7.737023	0.26526	-0.567871	-0.166504	0.447998
1288.0	16.63093	-3.910446	6.239878	-4.652021	-8.132309	-0.220653	-0.532227	-0.184082	0.48291
1289.0	18.683636	-8.702873	7.11215	-2.831279	-6.157945	-0.823149	-0.51001	-0.199463	0.506836
1290.0	12.16055	-4.91436	10.555097	-0.980006	-4.984667	-1.245094	-0.472412	-0.210205	0.526367
1291.0	11.11412	-7.358317	7.197889	-1.715085	-4.552711	-2.122659	-0.450195	-0.223145	0.537354
1292.0	-0.028468	-6.427094	6.279334	0.74016	-2.410289	-2.553907	-0.430176	-0.232178	0.559082
1293.0	18.225251	-0.873762	12.055266	-0.431917	-3.574215	-0.926009	-0.407959	-0.240723	0.567871
1294.0	34.198065	-12.72014	12.711378	-2.967039	-1.108262	-0.803719	-0.42041	-0.255615	0.559326
1295.0	4.863165	-10.006143	10.861686	3.924731	4.511122	-0.74957	-0.442871	-0.238281	0.546143
1296.0	3.533507	0.60114	11.42469	0.839878	2.788061	-0.757872	-0.449219	-0.244629	0.5354
1297.0	2.923337	-7.089566	6.143087	-0.382156	2.824485	-0.840196	-0.4646	-0.246826	0.524414
1298.0	2.236206	-3.058102	6.705613	1.847949	3.944176	-0.76593	-0.484131	-0.246826	0.513672
1299.0	1.953005	-0.691191	6.412931	0.550739	3.584606	-0.679674	-0.503662	-0.248779	0.500488
1300.0	4.567279	-3.172761	5.469386	-0.241751	3.487669	-0.402119	-0.518799	-0.250732	0.480957
1301.0	5.4129	-4.084647	5.04191	0.259231	4.076133	-0.107984	-0.536133	-0.25708	0.463623
1302.0	5.969731	-4.71869	4.803901	0.136399	4.280276	0.140459	-0.568604	-0.258789	0.437744
1303.0	6.750628	-6.027891	4.328728	0.45833	4.64036	0.3629	-0.586182	-0.256592	0.411621
1304.0	7.009905	-5.957741	4.160051	0.929532	4.988502	0.561079	-0.61499	-0.243408	0.39209
1305.0	7.782746	-5.769571	3.971863	1.165355	5.264033	0.735389	-0.641357	-0.243164	0.359375
1306.0	8.341597	-5.062949	3.831903	1.582437	5.590877	0.903159	-0.67041	-0.223389	0.32251
1307.0	8.551582	-4.1465	3.69864	1.613906	5.805008	1.103877	-0.695068	-0.210205	0.294189
1308.0	8.024394	-3.546936	3.437336	1.66904	5.97819	1.296581	-0.719482	-0.196777	0.248535
1309.0	7.215187	-2.99114	3.393373	1.599167	5.971474	1.416482	-0.743896	-0.185547	0.207275
1310.0	6.461259	-2.49766	3.410392	1.463106	5.799823	1.474094	-0.757568	-0.17627	0.163818
1311.0	5.97739	-2.173778	3.646034	1.2872	5.475556	1.43275	-0.771484	-0.154297	0.118164
1312.0	6.523099	-1.388691	4.017591	0.948539	4.976637	1.375383	-0.780518	-0.147217	0.079102
1313.0	8.566795	-1.773638	3.455914	0.816801	4.61072	1.389881	-0.796387	-0.135986	0.029297
1314.0	12.596582	-7.067778	4.118054	3.454245	5.771923	2.039202	-0.796631	-0.128906	-0.011963
1315.0	8.561552	6.274998	9.119774	1.799235	4.49904	1.404326	-0.797119	-0.117676	-0.044678
1316.0	13.144947	-3.808818	9.256698	-3.706697	1.936609	1.045212	-0.801758	-0.113037	-0.068359
