Acquisition frequency: 100 Hz
PacketCounter	Acc_X	Acc_Y	Acc_Z	Gyr_X	Gyr_Y	Gyr_Z	Mag_X	Mag_Y	Mag_Z
0.0	3.665389	-2.105274	8.8456	-0.007062	0.00924	-0.006152	-0.484131	-0.021729	-0.519287
1.0	3.700748	-2.127366	8.842066	-0.005125	0.009344	-0.007033	-0.484131	-0.019775	-0.510498
2.0	3.682426	-2.105537	8.862064	-0.00706	0.009239	-0.006153	-0.481689	-0.026123	-0.514893
3.0	3.649064	-2.132874	8.863105	-0.008995	0.009134	-0.005274	-0.479736	-0.021729	-0.514893
4.0	3.681086	-2.106412	8.862413	-0.00424	0.008189	-0.006265	-0.477539	-0.023926	-0.512695
5.0	3.682244	-2.130946	8.861144	-0.006094	0.006917	-0.006625	-0.481934	-0.021973	-0.508301
6.0	3.679906	-2.107029	8.862756	-0.009622	0.011536	-0.009703	-0.479492	-0.026123	-0.514893
7.0	3.664866	-2.133991	8.879872	-0.006255	0.009248	-0.004146	-0.475342	-0.023926	-0.514893
8.0	3.678464	-2.107853	8.863159	-0.006173	0.008082	-0.005386	-0.479736	-0.021729	-0.519287
9.0	3.661897	-2.110407	8.881665	-0.006173	0.008082	-0.005387	-0.475342	-0.021729	-0.512695
10.0	3.660654	-2.133167	8.845966	-0.006891	0.006905	-0.008636	-0.475342	-0.026123	-0.510498
11.0	3.676802	-2.108948	8.863588	-0.007307	0.007987	-0.002499	-0.477539	-0.023926	-0.508301
12.0	3.680225	-2.135334	8.896774	-0.002126	0.010708	-0.009564	-0.481934	-0.021729	-0.514893
13.0	3.695584	-2.133188	8.878677	-0.006088	0.006915	-0.006628	-0.481689	-0.026123	-0.51709
14.0	3.660641	-2.136187	8.881086	-0.008987	0.009129	-0.00528	-0.475586	-0.019775	-0.508301
15.0	3.658261	-2.112377	8.882695	-0.007849	0.009223	-0.008168	-0.479736	-0.019531	-0.519287
16.0	3.675343	-2.13484	8.863072	-0.006967	0.008069	-0.007399	-0.477539	-0.023926	-0.512695
17.0	3.673077	-2.110774	8.864698	-0.005031	0.008175	-0.008278	-0.481934	-0.023926	-0.519287
18.0	3.656481	-2.113269	8.883216	-0.007048	0.009233	-0.00616	-0.477539	-0.021729	-0.512695
19.0	3.673524	-2.135829	8.863587	-0.008102	0.007972	-0.004512	-0.477539	-0.023926	-0.51709
20.0	3.671222	-2.111968	8.865181	-0.006964	0.008068	-0.007401	-0.479736	-0.021729	-0.51709
21.0	3.674615	-2.138396	8.898358	-0.004137	0.011765	-0.007447	-0.479492	-0.026123	-0.514893
22.0	3.669605	-2.112485	8.865728	-0.008007	0.011551	-0.005692	-0.481934	-0.023926	-0.514893
23.0	3.668948	-2.112678	8.865954	-0.003006	0.007116	-0.010398	-0.479492	-0.02832	-0.51709
24.0	3.650031	-2.113054	8.850094	-0.005107	0.009338	-0.007041	-0.479736	-0.023926	-0.510498
25.0	3.667723	-2.112912	8.866404	-0.005106	0.009338	-0.007041	-0.481934	-0.023926	-0.512695
26.0	3.683206	-2.110786	8.848273	-0.00406	0.005854	-0.008751	-0.477539	-0.021729	-0.512695
27.0	3.652474	-2.139698	8.883603	-0.005902	0.009326	-0.009052	-0.470947	-0.021729	-0.514893
28.0	3.666221	-2.113363	8.866919	-0.005197	0.005757	-0.005864	-0.481934	-0.019775	-0.512695
29.0	3.68407	-2.113345	8.883138	-0.007837	0.009218	-0.008176	-0.479492	-0.026123	-0.510498
30.0	3.681011	-2.11183	8.848937	-0.006242	0.009239	-0.004154	-0.479492	-0.026123	-0.512695
31.0	3.666138	-2.138659	8.865963	-0.005815	0.00816	-0.010294	-0.482178	-0.017578	-0.512695
32.0	3.664467	-2.092205	8.903474	-0.006158	0.008074	-0.005395	-0.477295	-0.02832	-0.512695
33.0	3.68146	-2.114476	8.883951	-0.004127	0.011761	-0.007451	-0.477295	-0.026123	-0.514893
34.0	3.646379	-2.117296	8.886409	-0.006952	0.008062	-0.007408	-0.475342	-0.026123	-0.51709
35.0	3.677672	-2.113193	8.85	-0.008794	0.011533	-0.00771	-0.477539	-0.023926	-0.514893
36.0	3.679376	-2.115591	8.884549	-0.006332	0.005658	-0.002979	-0.477295	-0.030518	-0.510498
37.0	3.678902	-2.115865	8.88468	-0.003339	0.007028	-0.005503	-0.481934	-0.023926	-0.512695
38.0	3.675952	-2.114284	8.850454	-0.008969	0.009117	-0.005292	-0.484131	-0.023926	-0.512695
39.0	3.643274	-2.119221	8.887223	-0.005891	0.009323	-0.009057	-0.481934	-0.023926	-0.52124
40.0	3.692977	-2.114629	8.866941	-0.007031	0.009225	-0.00617	-0.484131	-0.023926	-0.510498
41.0	3.657975	-2.117617	8.869309	-0.006152	0.008071	-0.005399	-0.479492	-0.02832	-0.512695
42.0	3.67744	-2.141852	8.884124	-0.005093	0.009333	-0.007046	-0.479736	-0.021973	-0.510498
43.0	3.693333	-2.117706	8.901886	-0.010901	0.009005	-0.004419	-0.479492	-0.026123	-0.510498
44.0	3.672594	-2.094318	8.887397	-0.006944	0.008059	-0.007412	-0.477539	-0.021973	-0.510498
45.0	3.657054	-2.143486	8.868548	-0.004118	0.011759	-0.007454	-0.473145	-0.023926	-0.514893
46.0	3.6705	-2.117141	8.852034	-0.006232	0.009234	-0.00416	-0.479736	-0.021729	-0.512695
47.0	3.672069	-2.119512	8.886637	-0.007903	0.010375	-0.006944	-0.477539	-0.026123	-0.51709
48.0	3.671298	-2.119857	8.886873	-0.005966	0.010484	-0.00782	-0.479736	-0.023926	-0.512695
49.0	3.66887	-2.095745	8.888598	-0.005003	0.008167	-0.00829	-0.479492	-0.026123	-0.514893
50.0	3.669397	-2.142695	8.851426	-0.006315	0.010396	-0.002921	-0.481934	-0.019775	-0.510498
51.0	3.683369	-2.094195	8.870778	-0.0079	0.010373	-0.006947	-0.479492	-0.02832	-0.51709
52.0	3.65198	-2.145787	8.870083	-0.005181	0.005752	-0.005872	-0.481934	-0.021729	-0.514893
53.0	3.700068	-2.116553	8.851379	-0.001212	0.009551	-0.0088	-0.479736	-0.019775	-0.514893
54.0	3.648511	-2.143932	8.836145	-0.007812	0.009208	-0.008189	-0.484131	-0.019531	-0.51709
55.0	3.666583	-2.121694	8.888382	-0.007982	0.011535	-0.005708	-0.475342	-0.023926	-0.514893
56.0	3.681885	-2.119807	8.870317	-0.006933	0.008055	-0.007418	-0.477295	-0.026123	-0.514893
57.0	3.662902	-2.120442	8.854391	-0.005958	0.010481	-0.007824	-0.475342	-0.023926	-0.514893
58.0	3.664523	-2.122805	8.888966	-0.008867	0.007944	-0.006545	-0.481934	-0.019775	-0.508301
59.0	3.663904	-2.123074	8.889157	-0.003143	0.009439	-0.007927	-0.479736	-0.023926	-0.51709
60.0	3.661114	-2.121317	8.854921	-0.007903	0.005627	-0.007015	-0.481934	-0.019775	-0.512695
61.0	3.694847	-2.119121	8.852945	-0.007977	0.011532	-0.00571	-0.479736	-0.019531	-0.51709
62.0	3.662104	-2.124057	8.889664	-0.004905	0.007001	-0.009536	-0.481934	-0.021973	-0.512695
63.0	3.679735	-2.124007	8.906015	-0.007184	0.011542	-0.003698	-0.479492	-0.02832	-0.514893
64.0	3.658339	-2.122718	8.855731	-0.005075	0.009327	-0.007054	-0.479736	-0.019775	-0.514893
65.0	3.674193	-2.098363	8.873598	-0.007801	0.009204	-0.008195	-0.481934	-0.019775	-0.510498
66.0	3.639125	-2.10146	8.875897	-0.007886	0.010367	-0.006954	-0.484131	-0.023926	-0.514893
67.0	3.674663	-2.123449	8.87244	-0.006047	0.0069	-0.00665	-0.475342	-0.021729	-0.514893
68.0	3.672258	-2.099516	8.874126	-0.008674	0.010355	-0.008969	-0.482178	-0.017578	-0.506104
69.0	3.673361	-2.124131	8.872816	-0.005071	0.009326	-0.007056	-0.481934	-0.021973	-0.510498
70.0	3.686954	-2.097576	8.85635	-0.003923	0.009426	-0.009944	-0.479492	-0.026123	-0.51709
71.0	3.676003	-2.150754	8.90619	-0.007968	0.011527	-0.005716	-0.479492	-0.02832	-0.514893
72.0	3.667028	-2.098733	8.840678	-0.009028	0.010263	-0.00407	-0.479736	-0.021729	-0.51709
73.0	3.654337	-2.127776	8.89197	-0.004981	0.008162	-0.008299	-0.479736	-0.023926	-0.523438
74.0	3.685846	-2.123239	8.85571	-0.005067	0.009324	-0.007058	-0.484131	-0.021973	-0.510498
75.0	3.685541	-2.10116	8.891889	-0.005941	0.010475	-0.007831	-0.479492	-0.026123	-0.514893
76.0	3.668275	-2.12615	8.874437	-0.007089	0.010373	-0.004945	-0.481934	-0.023926	-0.51709
77.0	3.647415	-2.10252	8.860041	-0.005064	0.009323	-0.007059	-0.477783	-0.015381	-0.514893
78.0	3.666825	-2.126763	8.874889	-0.006212	0.009221	-0.004172	-0.481934	-0.019775	-0.514893
79.0	3.663816	-2.125093	8.840736	-0.006812	0.011625	-0.008607	-0.477783	-0.017334	-0.519287
80.0	3.68128	-2.125009	8.857185	-0.005149	0.010485	-0.005819	-0.475586	-0.017578	-0.514893
81.0	3.680436	-2.125173	8.857496	-0.004086	0.011748	-0.007464	-0.484131	-0.021973	-0.512695
82.0	3.645547	-2.105805	8.895814	-0.005235	0.011646	-0.004578	-0.479736	-0.019775	-0.510498
83.0	3.644283	-2.128274	8.860192	-0.004871	0.011737	-0.009481	-0.481934	-0.023926	-0.514893
84.0	3.675982	-2.101521	8.859975	-0.007082	0.01037	-0.004949	-0.479736	-0.021729	-0.512695
85.0	3.675339	-2.101889	8.860155	-0.006032	0.006894	-0.006659	-0.477539	-0.019775	-0.510498
86.0	3.660305	-2.128903	8.877067	-0.00698	0.013946	-0.006127	-0.479736	-0.019775	-0.514893
87.0	3.657677	-2.104951	8.878859	-0.00603	0.006894	-0.00666	-0.479492	-0.02832	-0.512695
88.0	3.658986	-2.129463	8.877476	-0.004181	0.008169	-0.006289	-0.479736	-0.021729	-0.514893
89.0	3.672592	-2.103052	8.861018	-0.00699	0.009206	-0.006193	-0.473145	-0.023926	-0.514893
90.0	3.673797	-2.127613	8.859666	-0.004179	0.008169	-0.00629	-0.481934	-0.02417	-0.506104
91.0	3.653088	-2.103911	8.845218	-0.006115	0.008054	-0.00542	-0.481934	-0.023926	-0.51709
92.0	3.690792	-2.127791	8.876259	-0.005925	0.010469	-0.007839	-0.481934	-0.019775	-0.514893
93.0	3.669982	-2.103958	8.861884	-0.003899	0.009422	-0.009952	-0.477539	-0.023926	-0.514893
94.0	3.671174	-2.12854	8.860531	-0.008924	0.009089	-0.005325	-0.484131	-0.021973	-0.512695
95.0	3.670823	-2.10678	8.896646	-0.00777	0.009192	-0.008212	-0.479736	-0.021729	-0.519287
96.0	3.651899	-2.107424	8.880651	-0.005048	0.009318	-0.007066	-0.481934	-0.02417	-0.508301
97.0	3.669241	-2.129479	8.861106	-0.004959	0.008156	-0.008309	-0.484131	-0.021973	-0.512695
98.0	3.650688	-2.107851	8.881048	-0.007768	0.009191	-0.008214	-0.481934	-0.021729	-0.514893
99.0	3.686373	-2.129721	8.877632	-0.006805	0.006879	-0.008682	-0.477539	-0.023926	-0.512695
100.0	3.647618	-2.106298	8.846907	-0.003994	0.005844	-0.008777	-0.477539	-0.021729	-0.51709
101.0	3.667625	-2.108157	8.897639	-0.00602	0.006889	-0.006666	-0.475342	-0.023926	-0.510498
102.0	3.685012	-2.13048	8.878015	-0.008918	0.009085	-0.005329	-0.483887	-0.02417	-0.506104
103.0	3.666417	-2.108969	8.897944	-0.004954	0.008154	-0.008311	-0.477539	-0.023926	-0.512695
104.0	3.681697	-2.129019	8.843959	-0.00689	0.008039	-0.007442	-0.479492	-0.026123	-0.514893
105.0	3.683602	-2.109063	8.914489	-0.00408	0.007004	-0.007536	-0.477539	-0.026123	-0.519043
106.0	3.662594	-2.107621	8.86407	-0.00785	0.010349	-0.006975	-0.477783	-0.019775	-0.514893
107.0	3.663855	-2.132175	8.862686	-0.004079	0.007004	-0.007537	-0.477539	-0.021729	-0.51709
108.0	3.679775	-2.107792	8.880601	-0.006298	0.005633	-0.003007	-0.475342	-0.026123	-0.514893
109.0	3.644791	-2.111046	8.882711	-0.009502	0.011486	-0.009769	-0.477539	-0.021729	-0.514893
110.0	3.694647	-2.106109	8.86276	-0.004858	0.006992	-0.009555	-0.477539	-0.021729	-0.512695
111.0	3.659777	-2.109213	8.864855	-0.00804	0.007931	-0.004558	-0.479492	-0.026123	-0.510498
112.0	3.677199	-2.131508	8.845231	-0.006884	0.008036	-0.007445	-0.484131	-0.023926	-0.514893
113.0	3.658614	-2.110097	8.865124	-0.008038	0.00793	-0.004559	-0.479736	-0.023926	-0.51709
114.0	3.694509	-2.109821	8.897711	-0.006882	0.008036	-0.007446	-0.479492	-0.026123	-0.512695
115.0	3.659369	-2.135165	8.863819	-0.006881	0.008035	-0.007446	-0.486084	-0.023926	-0.512695
116.0	3.673045	-2.108768	8.847386	-0.00688	0.008035	-0.007447	-0.488281	-0.026123	-0.514893
117.0	3.674645	-2.111168	8.881923	-0.006008	0.006885	-0.006671	-0.475098	-0.02832	-0.514893
118.0	3.673933	-2.111663	8.8821	-0.009088	0.011399	-0.002851	-0.484131	-0.023926	-0.512695
119.0	3.671204	-2.110036	8.847849	-0.006696	0.005713	-0.009933	-0.477539	-0.021729	-0.52124
120.0	3.656754	-2.114869	8.90052	-0.006877	0.008034	-0.007448	-0.481934	-0.023926	-0.512695
121.0	3.674227	-2.137038	8.880909	-0.006876	0.008033	-0.007449	-0.479736	-0.023926	-0.510498
122.0	3.688092	-2.088441	8.900493	-0.006876	0.008033	-0.007449	-0.481934	-0.021973	-0.508301
123.0	3.68925	-2.135249	8.863046	-0.006875	0.008033	-0.007449	-0.479736	-0.019531	-0.51709
124.0	3.668827	-2.089631	8.884489	-0.009007	0.005499	-0.004163	-0.479736	-0.021729	-0.512695
125.0	3.686329	-2.111867	8.864853	-0.005027	0.00931	-0.007074	-0.477539	-0.019775	-0.512695
126.0	3.651288	-2.115085	8.866956	-0.0089	0.009074	-0.00534	-0.481934	-0.023926	-0.514893
127.0	3.652581	-2.139735	8.865517	-0.004934	0.00815	-0.008318	-0.479492	-0.030518	-0.512695
128.0	3.668402	-2.115297	8.883521	-0.006779	0.006871	-0.008694	-0.484131	-0.021729	-0.519287
129.0	3.665767	-2.113518	8.849271	-0.006961	0.009191	-0.006209	-0.477539	-0.023926	-0.512695
130.0	3.665128	-2.113882	8.849449	-0.006091	0.008042	-0.005433	-0.484131	-0.021729	-0.519287
131.0	3.66673	-2.11639	8.883951	-0.007844	0.005603	-0.007053	-0.473145	-0.026123	-0.514893
132.0	3.684351	-2.138375	8.86433	-0.002994	0.008267	-0.009186	-0.477539	-0.021729	-0.512695
133.0	3.679915	-2.089961	8.867767	-0.007737	0.009178	-0.00823	-0.477539	-0.019775	-0.512695
134.0	3.681311	-2.114475	8.866317	-0.004837	0.006988	-0.009563	-0.483887	-0.02832	-0.514893
135.0	3.680777	-2.114788	8.866464	-0.007247	0.007932	-0.002549	-0.479736	-0.023926	-0.512695
136.0	3.643693	-2.115982	8.834111	-0.006957	0.009189	-0.006211	-0.483887	-0.026123	-0.512695
137.0	3.679488	-2.11572	8.866776	-0.008801	0.00791	-0.006589	-0.481934	-0.021973	-0.512695
138.0	3.678866	-2.116183	8.866924	-0.006955	0.009188	-0.006212	-0.479736	-0.019775	-0.510498
139.0	3.662069	-2.119148	8.885216	-0.008022	0.00792	-0.00457	-0.479736	-0.019775	-0.514893
140.0	3.677634	-2.117291	8.867171	-0.010735	0.007789	-0.005724	-0.477539	-0.023926	-0.510498
141.0	3.677011	-2.117754	8.867318	-0.005016	0.009307	-0.007079	-0.477539	-0.021729	-0.512695
142.0	3.67431	-2.115892	8.833124	-0.007728	0.009176	-0.008234	-0.482178	-0.017578	-0.508301
143.0	3.659467	-2.121061	8.885832	-0.00898	0.010226	-0.004105	-0.479492	-0.026123	-0.508301
144.0	3.676819	-2.143248	8.86628	-0.005013	0.009306	-0.00708	-0.479736	-0.023926	-0.51709
145.0	3.657998	-2.121689	8.886287	-0.005881	0.010454	-0.007857	-0.477295	-0.026123	-0.510498
146.0	3.67348	-2.119461	8.868374	-0.00608	0.008037	-0.005438	-0.479736	-0.021729	-0.514893
147.0	3.65668	-2.122241	8.886698	-0.00501	0.009305	-0.007081	-0.477539	-0.021729	-0.512695
148.0	3.670324	-2.117973	8.834282	-0.010542	0.005467	-0.008217	-0.475586	-0.019531	-0.514893
149.0	3.688089	-2.096101	8.886662	-0.008883	0.009064	-0.005352	-0.475586	-0.019775	-0.512695
150.0	3.652953	-2.121597	8.852636	-0.00617	0.009195	-0.004196	-0.481934	-0.021973	-0.512695
151.0	3.666491	-2.095075	8.836374	-0.005782	0.009294	-0.009103	-0.477539	-0.023926	-0.508301
152.0	3.669875	-2.121676	8.869337	-0.004913	0.008145	-0.008326	-0.481934	-0.021973	-0.512695
153.0	3.65103	-2.122424	8.853232	-0.009748	0.01021	-0.006131	-0.481934	-0.021973	-0.512695
154.0	3.66855	-2.122548	8.869676	-0.006848	0.008024	-0.007462	-0.481934	-0.023926	-0.512695
155.0	3.669916	-2.147185	8.868187	-0.007715	0.009171	-0.00824	-0.477539	-0.021973	-0.510498
156.0	3.685512	-2.123005	8.886275	-0.00801	0.007913	-0.004578	-0.479736	-0.021973	-0.510498
157.0	3.664795	-2.121602	8.835707	-0.005978	0.006875	-0.006686	-0.475586	-0.019531	-0.514893
158.0	3.682378	-2.121576	8.852166	-0.006165	0.009192	-0.004199	-0.479736	-0.021973	-0.510498
159.0	3.663585	-2.122297	8.836041	-0.007618	0.008012	-0.009486	-0.481934	-0.021729	-0.51709
160.0	3.683156	-2.124578	8.886876	-0.008874	0.009059	-0.005357	-0.484131	-0.019775	-0.512695
161.0	3.66231	-2.123139	8.836368	-0.005	0.009302	-0.007085	-0.479492	-0.026123	-0.512695
162.0	3.66154	-2.101388	8.872672	-0.007897	0.011486	-0.005755	-0.481934	-0.021729	-0.514893
163.0	3.697088	-2.101101	8.9055	-0.006935	0.00918	-0.006222	-0.479492	-0.026123	-0.519043
164.0	3.664069	-2.128561	8.905832	-0.00413	0.008154	-0.006308	-0.477539	-0.021729	-0.512695
165.0	3.679513	-2.126314	8.88797	-0.007894	0.011484	-0.005757	-0.484131	-0.021729	-0.519287
166.0	3.676855	-2.124502	8.85376	-0.005971	0.006873	-0.00669	-0.481934	-0.019775	-0.510498
167.0	3.657996	-2.103277	8.873686	-0.009829	0.011361	-0.004895	-0.479736	-0.023926	-0.514893
168.0	3.673332	-2.101277	8.855817	-0.007025	0.010336	-0.00498	-0.481934	-0.021973	-0.510498
169.0	3.676603	-2.128043	8.88876	-0.004898	0.008142	-0.008332	-0.477539	-0.026123	-0.519043
170.0	3.653816	-2.102207	8.83993	-0.007024	0.010335	-0.004981	-0.481934	-0.019775	-0.514893
171.0	3.659097	-2.153231	8.871192	-0.003259	0.007005	-0.005532	-0.481689	-0.026123	-0.512695
172.0	3.654624	-2.126953	8.838632	-0.006833	0.008019	-0.00747	-0.477539	-0.019775	-0.510498
173.0	3.688219	-2.10236	8.873147	-0.007887	0.011481	-0.005761	-0.477295	-0.026123	-0.512695
174.0	3.671274	-2.127333	8.855396	-0.004989	0.009299	-0.007089	-0.481689	-0.02832	-0.51709
175.0	3.670572	-2.12772	8.855594	-0.008091	0.009063	-0.003343	-0.477783	-0.019531	-0.519287
176.0	3.669812	-2.106157	8.89185	-0.006924	0.009175	-0.006228	-0.479736	-0.019775	-0.514893
177.0	3.669186	-2.128594	8.855958	-0.006923	0.009175	-0.006228	-0.479736	-0.023926	-0.510498
178.0	3.684652	-2.104342	8.874159	-0.006922	0.009175	-0.006229	-0.479736	-0.023926	-0.512695
179.0	3.669807	-2.131465	8.890748	-0.004119	0.008151	-0.006312	-0.481934	-0.021973	-0.512695
180.0	3.667277	-2.129574	8.856513	-0.007993	0.007904	-0.004589	-0.481689	-0.026123	-0.514893
181.0	3.666479	-2.107942	8.892802	-0.006713	0.011591	-0.008649	-0.477539	-0.023926	-0.510498
182.0	3.663809	-2.106038	8.85863	-0.007688	0.009163	-0.008254	-0.484131	-0.021729	-0.514893
183.0	3.683077	-2.108449	8.909567	-0.009047	0.011363	-0.002881	-0.484131	-0.021973	-0.512695
184.0	3.68235	-2.131025	8.873684	-0.006917	0.009173	-0.006231	-0.481934	-0.021729	-0.51709
185.0	3.677742	-2.104895	8.841168	-0.006916	0.009172	-0.006232	-0.477539	-0.021729	-0.514893
186.0	3.644558	-2.110417	8.877519	-0.005074	0.010453	-0.005848	-0.484131	-0.021729	-0.514893
187.0	3.680185	-2.132028	8.874341	-0.006915	0.009172	-0.006233	-0.481689	-0.026123	-0.510498
188.0	3.675517	-2.10592	8.841849	-0.00701	0.010328	-0.004988	-0.479736	-0.021729	-0.51709
189.0	3.676587	-2.10873	8.876463	-0.010578	0.011339	-0.006932	-0.479736	-0.021729	-0.51709
190.0	3.659686	-2.1339	8.858612	-0.006144	0.009181	-0.00421	-0.477295	-0.026123	-0.514893
191.0	3.675215	-2.131669	8.840759	-0.006911	0.009171	-0.006234	-0.475342	-0.023926	-0.514893
192.0	3.674346	-2.109965	8.877097	-0.005069	0.010452	-0.00585	-0.481689	-0.030518	-0.514893
193.0	3.68984	-2.10755	8.859308	-0.004972	0.009295	-0.007095	-0.481689	-0.026123	-0.508301
194.0	3.691081	-2.132152	8.857849	-0.007868	0.011472	-0.005771	-0.475342	-0.021729	-0.519287
195.0	3.655936	-2.135675	8.859733	-0.008845	0.009044	-0.005377	-0.479736	-0.019775	-0.514893
196.0	3.673417	-2.135673	8.876269	-0.004106	0.008148	-0.006317	-0.47998	-0.017578	-0.51709
197.0	3.672786	-2.135829	8.876493	-0.004969	0.009294	-0.007097	-0.475342	-0.023926	-0.514893
198.0	3.652143	-2.134201	8.825932	-0.007671	0.009158	-0.008262	-0.477783	-0.019775	-0.514893
199.0	3.669355	-2.112149	8.878642	-0.004298	0.01046	-0.003828	-0.477539	-0.021729	-0.514893
200.0	3.668525	-2.112489	8.878904	-0.007	0.010324	-0.004994	-0.482178	-0.017578	-0.510498
201.0	3.686062	-2.134529	8.859367	-0.006903	0.009167	-0.006239	-0.477539	-0.023926	-0.51709
202.0	3.683344	-2.110642	8.861275	-0.006902	0.009167	-0.00624	-0.481934	-0.023926	-0.514893
203.0	3.666564	-2.113593	8.879451	-0.005079	0.005719	-0.005925	-0.479736	-0.021729	-0.514893
204.0	3.682151	-2.111429	8.861583	-0.011425	0.012477	-0.007722	-0.477539	-0.021729	-0.51709
205.0	3.663232	-2.112448	8.84539	-0.008836	0.00904	-0.005382	-0.479736	-0.023926	-0.514893
206.0	3.664376	-2.115223	8.879966	-0.006133	0.009176	-0.004216	-0.479736	-0.019775	-0.508301
207.0	3.681863	-2.115116	8.896538	-0.005627	0.008125	-0.01037	-0.481934	-0.019775	-0.512695
208.0	3.681205	-2.115395	8.896744	-0.006994	0.010321	-0.004997	-0.482178	-0.017578	-0.51709
209.0	3.694875	-2.110853	8.844536	-0.006896	0.009165	-0.006242	-0.481934	-0.021729	-0.514893
210.0	3.661721	-2.116528	8.880751	-0.006033	0.008019	-0.005462	-0.479736	-0.023926	-0.514893
211.0	3.677235	-2.114277	8.862945	-0.007854	0.011465	-0.005778	-0.479736	-0.021729	-0.514893
212.0	3.692757	-2.11192	8.845166	-0.004094	0.008145	-0.006321	-0.477539	-0.023926	-0.514893
213.0	3.679767	-2.141405	8.896041	-0.007656	0.009153	-0.00827	-0.479736	-0.023926	-0.510498
214.0	3.675227	-2.115113	8.863579	-0.004955	0.00929	-0.007102	-0.482178	-0.017578	-0.514893
215.0	3.676658	-2.139532	8.862067	-0.004092	0.008144	-0.006322	-0.479736	-0.023926	-0.512695
216.0	3.657691	-2.118297	8.88199	-0.008828	0.009035	-0.005388	-0.482178	-0.017578	-0.514893
217.0	3.673229	-2.116233	8.86414	-0.009688	0.01018	-0.006169	-0.475586	-0.019531	-0.51709
218.0	3.67639	-2.143114	8.897025	-0.003014	0.009416	-0.007961	-0.481934	-0.023926	-0.514893
219.0	3.671898	-2.116789	8.864558	-0.008727	0.007878	-0.006635	-0.481689	-0.02832	-0.512695
220.0	3.669518	-2.114801	8.830315	-0.004089	0.008143	-0.006323	-0.481934	-0.021729	-0.514893
221.0	3.670629	-2.117419	8.864934	-0.00937	0.01144	-0.009836	-0.481934	-0.021729	-0.514893
222.0	3.653587	-2.120535	8.883145	-0.006123	0.00917	-0.004222	-0.477295	-0.026123	-0.512695
223.0	3.671409	-2.142416	8.863546	-0.005826	0.005704	-0.007959	-0.479736	-0.021973	-0.510498
224.0	3.670842	-2.142645	8.863726	-0.005046	0.010443	-0.00586	-0.479736	-0.021729	-0.51709
225.0	3.666005	-2.094501	8.867416	-0.008722	0.007876	-0.006638	-0.479492	-0.026123	-0.519043
226.0	3.687641	-2.143112	8.880463	-0.007644	0.009149	-0.008277	-0.477539	-0.021729	-0.51709
227.0	3.666727	-2.119542	8.866041	-0.005904	0.011586	-0.006642	-0.484131	-0.023926	-0.51709
228.0	3.665983	-2.11995	8.866251	-0.007958	0.007885	-0.004613	-0.479736	-0.023926	-0.514893
229.0	3.647169	-2.120825	8.850022	-0.007839	0.011457	-0.005787	-0.479736	-0.023926	-0.514893
230.0	3.648293	-2.123441	8.884626	-0.004743	0.006977	-0.009599	-0.483887	-0.030518	-0.514893
231.0	3.682141	-2.120571	8.883222	-0.006019	0.008012	-0.00547	-0.477539	-0.019775	-0.510498
232.0	3.681759	-2.142872	8.847259	-0.006977	0.010311	-0.005007	-0.481934	-0.023926	-0.514893
233.0	3.679031	-2.118966	8.8492	-0.005917	0.006857	-0.006717	-0.481934	-0.019775	-0.512695
234.0	3.663997	-2.124329	8.901717	-0.006776	0.008001	-0.007499	-0.479492	-0.026123	-0.512695
235.0	3.677911	-2.119617	8.849509	-0.006875	0.009156	-0.006253	-0.481934	-0.021729	-0.514893
236.0	3.658884	-2.09833	8.869452	-0.004078	0.00814	-0.006328	-0.477539	-0.023926	-0.51709
237.0	3.676566	-2.12007	8.84996	-0.006655	0.011573	-0.008673	-0.473389	-0.019775	-0.512695
238.0	3.679686	-2.147006	8.882822	-0.007632	0.009144	-0.008283	-0.477783	-0.017334	-0.519287
239.0	3.676799	-2.123077	8.884836	-0.005135	0.011592	-0.004619	-0.481934	-0.019775	-0.514893
240.0	3.67806	-2.147591	8.883354	-0.005792	0.010428	-0.007893	-0.477539	-0.021729	-0.51709
241.0	3.691499	-2.120827	8.86742	-0.005791	0.010427	-0.007893	-0.475586	-0.019531	-0.514893
242.0	3.654687	-2.121863	8.834771	-0.006869	0.009153	-0.006257	-0.479736	-0.019775	-0.514893
243.0	3.690151	-2.121278	8.867874	-0.002135	0.008269	-0.007185	-0.477539	-0.019775	-0.512695
244.0	3.671439	-2.12172	8.851693	-0.005789	0.010426	-0.007895	-0.479736	-0.021729	-0.512695
245.0	3.705072	-2.119015	8.85038	-0.008805	0.009021	-0.005404	-0.479736	-0.023926	-0.519287
246.0	3.653858	-2.125187	8.870002	-0.004727	0.006974	-0.009605	-0.475342	-0.021729	-0.512695
247.0	3.669603	-2.122671	8.852226	-0.006108	0.009161	-0.004231	-0.479492	-0.026123	-0.519043
248.0	3.686967	-2.122578	8.868887	-0.005684	0.009271	-0.009142	-0.475342	-0.026123	-0.512695
249.0	3.682473	-2.096116	8.836497	-0.004927	0.009281	-0.007114	-0.484131	-0.023926	-0.514893
250.0	3.687319	-2.125326	8.903768	-0.005784	0.010424	-0.007897	-0.484131	-0.021729	-0.51709
251.0	3.683171	-2.120866	8.83519	-0.006862	0.009149	-0.006261	-0.473389	-0.017578	-0.51709
252.0	3.651506	-2.128957	8.905743	-0.003088	0.010565	-0.006723	-0.479736	-0.019775	-0.508301
253.0	3.665065	-2.102101	8.889807	-0.005902	0.006851	-0.006726	-0.477539	-0.019775	-0.512695
254.0	3.664896	-2.124303	8.853784	-0.006104	0.009159	-0.004233	-0.484131	-0.023926	-0.512695
255.0	3.684384	-2.148462	8.868668	-0.005678	0.009269	-0.009146	-0.479736	-0.021729	-0.512695
256.0	3.681639	-2.124456	8.870651	-0.006001	0.008004	-0.005481	-0.477539	-0.021729	-0.512695
257.0	3.665116	-2.149437	8.852575	-0.006858	0.009147	-0.006264	-0.481934	-0.021729	-0.519287
258.0	3.696147	-2.100487	8.889321	-0.005021	0.010432	-0.005871	-0.481934	-0.021973	-0.510498
259.0	3.679485	-2.125339	8.871333	-0.005776	0.010422	-0.007901	-0.477295	-0.026123	-0.510498
260.0	3.644357	-2.128607	8.87309	-0.003082	0.010563	-0.006725	-0.479736	-0.019775	-0.512695
261.0	3.678036	-2.125621	8.871866	-0.004386	0.00687	-0.00267	-0.483887	-0.026123	-0.514893
262.0	3.693624	-2.123339	8.854128	-0.008996	0.01132	-0.002921	-0.479736	-0.021729	-0.512695
263.0	3.676375	-2.126596	8.872321	-0.005874	0.011574	-0.006656	-0.477783	-0.019775	-0.514893
264.0	3.675529	-2.12695	8.872587	-0.006954	0.010298	-0.005021	-0.479736	-0.021973	-0.510498
265.0	3.672636	-2.103103	8.874598	-0.006851	0.009145	-0.006268	-0.477539	-0.019775	-0.510498
266.0	3.657726	-2.130437	8.890945	-0.005769	0.01042	-0.007904	-0.479492	-0.026123	-0.52124
267.0	3.657053	-2.130613	8.89118	-0.004055	0.008133	-0.006337	-0.479736	-0.019775	-0.514893
268.0	3.654694	-2.128482	8.856997	-0.006951	0.010297	-0.005023	-0.479736	-0.023926	-0.519287
269.0	3.671955	-2.128615	8.873667	-0.008786	0.009011	-0.005418	-0.479736	-0.023926	-0.512695
270.0	3.672931	-2.13141	8.908259	-0.004909	0.009276	-0.007122	-0.479736	-0.02417	-0.508301
271.0	3.686847	-2.12641	8.856215	-0.003505	0.010448	-0.001815	-0.479736	-0.023926	-0.510498
272.0	3.669668	-2.129638	8.874367	-0.009639	0.010153	-0.006203	-0.481934	-0.021729	-0.519287
273.0	3.666721	-2.105816	8.876401	-0.005009	0.010428	-0.005876	-0.481934	-0.021729	-0.51709
274.0	3.647984	-2.106492	8.860141	-0.006843	0.009142	-0.006272	-0.479736	-0.019775	-0.514893
275.0	3.683296	-2.106124	8.893321	-0.006843	0.009142	-0.006272	-0.477783	-0.019531	-0.519287
276.0	3.664558	-2.106902	8.877037	-0.006945	0.010294	-0.005026	-0.475342	-0.021729	-0.512695
277.0	3.650176	-2.156377	8.857059	-0.011469	0.008865	-0.006602	-0.479736	-0.023926	-0.519287
278.0	3.681592	-2.129575	8.857641	-0.007798	0.011436	-0.005811	-0.479736	-0.023926	-0.512695
279.0	3.662402	-2.108507	8.877545	-0.006632	0.006836	-0.008768	-0.486328	-0.021729	-0.519287
280.0	3.696306	-2.105695	8.876246	-0.007818	0.006712	-0.005886	-0.479736	-0.023926	-0.510498
281.0	3.679921	-2.130741	8.858055	-0.006838	0.00914	-0.006275	-0.477539	-0.023926	-0.51709
282.0	3.678685	-2.109313	8.894473	-0.006837	0.00914	-0.006275	-0.481689	-0.026123	-0.514893
283.0	3.680035	-2.134013	8.892882	-0.008648	0.012576	-0.006597	-0.479736	-0.021729	-0.51709
284.0	3.659551	-2.132413	8.842223	-0.006938	0.010291	-0.005029	-0.481934	-0.021973	-0.512695
285.0	3.676323	-2.110598	8.895145	-0.005876	0.006844	-0.006739	-0.47998	-0.017578	-0.51709
286.0	3.658264	-2.133236	8.842557	-0.010479	0.011289	-0.006996	-0.477783	-0.019531	-0.51709
287.0	3.673314	-2.109137	8.861088	-0.007582	0.009128	-0.008309	-0.477539	-0.021729	-0.514893
288.0	3.674318	-2.112043	8.895631	-0.008665	0.007851	-0.006675	-0.484131	-0.023926	-0.51709
289.0	3.654764	-2.132261	8.808584	-0.007915	0.007861	-0.004644	-0.475586	-0.019531	-0.519287
290.0	3.655123	-2.1135	8.879357	-0.008768	0.009002	-0.005429	-0.481689	-0.026123	-0.514893
291.0	3.672973	-2.135407	8.859815	-0.007682	0.010279	-0.007063	-0.475342	-0.026123	-0.51709
292.0	3.686506	-2.10869	8.843962	-0.006724	0.007985	-0.007526	-0.479736	-0.019775	-0.514893
293.0	3.68917	-2.113932	8.912905	-0.00587	0.006843	-0.006742	-0.475342	-0.021729	-0.514893
294.0	3.671268	-2.136393	8.860283	-0.007576	0.009126	-0.008312	-0.479492	-0.026123	-0.508301
295.0	3.684881	-2.109724	8.844392	-0.007057	0.006716	-0.003861	-0.477539	-0.021729	-0.514893
296.0	3.667855	-2.113127	8.862399	-0.009616	0.010142	-0.006217	-0.479736	-0.019775	-0.514893
297.0	3.670932	-2.140351	8.89512	-0.007573	0.009125	-0.008313	-0.479492	-0.02832	-0.514893
298.0	3.682932	-2.111113	8.844873	-0.005971	0.007993	-0.005496	-0.484131	-0.019775	-0.510498
299.0	3.651767	-2.141399	8.87892	-0.00597	0.007993	-0.005496	-0.479736	-0.023926	-0.514893
300.0	3.699833	-2.11144	8.861682	-0.007697	0.005554	-0.007143	-0.484131	-0.023926	-0.514893
301.0	3.664996	-2.115064	8.863119	-0.007569	0.009124	-0.008315	-0.481689	-0.026123	-0.510498
302.0	3.684597	-2.139158	8.877981	-0.003178	0.006986	-0.00556	-0.479736	-0.021729	-0.512695
303.0	3.667545	-2.142381	8.896029	-0.008863	0.010148	-0.004187	-0.479492	-0.02832	-0.512695
304.0	3.699636	-2.137123	8.860484	-0.005967	0.007991	-0.005498	-0.481934	-0.023926	-0.51709
305.0	3.680449	-2.116176	8.880341	-0.008651	0.007845	-0.006683	-0.479736	-0.021729	-0.512695
306.0	3.663394	-2.11942	8.898381	-0.005732	0.01041	-0.007917	-0.479736	-0.021729	-0.512695
307.0	3.681339	-2.141059	8.878874	-0.005965	0.00799	-0.005499	-0.477539	-0.021729	-0.512695
308.0	3.697068	-2.138453	8.861235	-0.00573	0.01041	-0.007918	-0.484131	-0.021729	-0.519287
309.0	3.676292	-2.114826	8.846748	-0.005858	0.006839	-0.006747	-0.473145	-0.021729	-0.514893
310.0	3.695831	-2.139058	8.861605	-0.009264	0.011404	-0.009891	-0.483887	-0.026123	-0.510498
311.0	3.676436	-2.118122	8.88154	-0.006068	0.00914	-0.004253	-0.475342	-0.021729	-0.514893
312.0	3.692209	-2.115584	8.863873	-0.006707	0.00798	-0.007535	-0.479736	-0.021729	-0.523438
313.0	3.675832	-2.140364	8.845682	-0.003042	0.010555	-0.006733	-0.477783	-0.019531	-0.51709
314.0	3.660237	-2.145969	8.898173	-0.007557	0.00912	-0.008322	-0.479492	-0.026123	-0.514893
315.0	3.67604	-2.143321	8.880524	-0.004021	0.008125	-0.006349	-0.475342	-0.021729	-0.519287
316.0	3.673132	-2.119253	8.882637	-0.005723	0.010407	-0.007921	-0.477539	-0.023926	-0.514893
317.0	3.688828	-2.116751	8.865002	-0.008747	0.008991	-0.005442	-0.481934	-0.019775	-0.512695
318.0	3.672597	-2.141476	8.846756	-0.000782	0.00724	-0.011325	-0.481934	-0.023926	-0.512695
319.0	3.653439	-2.120232	8.866656	-0.007895	0.007849	-0.004657	-0.481934	-0.021729	-0.514893
320.0	3.68711	-2.117325	8.86558	-0.00572	0.010406	-0.007923	-0.479736	-0.019775	-0.514893
321.0	3.6864	-2.117415	8.865853	-0.00293	0.009403	-0.007983	-0.477783	-0.019531	-0.51709
322.0	3.702024	-2.11473	8.848303	-0.007019	0.011427	-0.003795	-0.484131	-0.021973	-0.512695
323.0	3.67054	-2.145145	8.882358	-0.004229	0.010424	-0.003855	-0.479736	-0.021729	-0.51709
324.0	3.668247	-2.142833	8.848233	-0.005716	0.010405	-0.007925	-0.477539	-0.021729	-0.514893
325.0	3.683203	-2.118413	8.866944	-0.004865	0.009264	-0.007139	-0.475586	-0.019775	-0.512695
326.0	3.684764	-2.142923	8.865279	-0.006059	0.009134	-0.004259	-0.481934	-0.019531	-0.51709
327.0	3.663855	-2.119361	8.850821	-0.005713	0.010404	-0.007926	-0.479736	-0.019531	-0.519287
328.0	3.682538	-2.121823	8.90203	-0.0068	0.009124	-0.006294	-0.484131	-0.021729	-0.514893
329.0	3.678903	-2.117	8.833443	-0.004861	0.009263	-0.00714	-0.479736	-0.023926	-0.519287
330.0	3.683385	-2.146629	8.900586	-0.006906	0.010274	-0.005047	-0.479736	-0.019775	-0.514893
331.0	3.695409	-2.117187	8.85048	-0.004752	0.008112	-0.008389	-0.475586	-0.017578	-0.514893
332.0	3.660392	-2.120762	8.851918	-0.006904	0.010273	-0.005048	-0.479492	-0.02832	-0.51709
333.0	3.661034	-2.123864	8.886529	-0.010433	0.011264	-0.007026	-0.477295	-0.030273	-0.51709
334.0	3.678182	-2.123703	8.903382	-0.000981	0.00954	-0.008832	-0.484131	-0.021729	-0.51709
335.0	3.678195	-2.145502	8.867383	-0.00701	0.011421	-0.003801	-0.486328	-0.021973	-0.510498
336.0	3.675122	-2.121593	8.869536	-0.004855	0.009261	-0.007143	-0.481934	-0.019775	-0.514893
337.0	3.674385	-2.12189	8.86977	-0.0069	0.010271	-0.005051	-0.479736	-0.021729	-0.51709
338.0	3.673688	-2.122266	8.869969	-0.005943	0.007981	-0.005512	-0.481934	-0.023926	-0.51709
339.0	3.657397	-2.147146	8.851678	-0.005702	0.0104	-0.007931	-0.477539	-0.023926	-0.514893
340.0	3.672256	-2.122953	8.870398	-0.009577	0.01012	-0.006244	-0.477539	-0.023926	-0.51709
341.0	3.670697	-2.101686	8.906908	-0.004851	0.00926	-0.007145	-0.479736	-0.021729	-0.51709
342.0	3.673172	-2.147844	8.868898	-0.007529	0.00911	-0.008337	-0.477295	-0.02832	-0.514893
343.0	3.670106	-2.124033	8.871029	-0.007004	0.011418	-0.003805	-0.479736	-0.021729	-0.512695
344.0	3.669367	-2.124432	8.871239	-0.006678	0.00797	-0.00755	-0.482178	-0.013184	-0.514893
345.0	3.686707	-2.124369	8.888002	-0.006677	0.007969	-0.007551	-0.479736	-0.021729	-0.51709
346.0	3.68463	-2.122051	8.853809	-0.005695	0.010398	-0.007934	-0.479736	-0.019775	-0.514893
347.0	3.665162	-2.101074	8.873736	-0.006784	0.009118	-0.006303	-0.47998	-0.017578	-0.512695
348.0	3.683204	-2.122631	8.854263	-0.005693	0.010398	-0.007935	-0.479492	-0.02832	-0.51709
349.0	3.7019	-2.124875	8.905523	-0.001949	0.00711	-0.008451	-0.479736	-0.019775	-0.514893
350.0	3.647719	-2.126129	8.855862	-0.007521	0.009107	-0.008341	-0.481934	-0.019775	-0.514893
351.0	3.667224	-2.150348	8.870752	-0.006043	0.009126	-0.004268	-0.481689	-0.026123	-0.51709
352.0	3.664226	-2.126494	8.87287	-0.006781	0.009116	-0.006306	-0.477783	-0.017578	-0.51709
353.0	3.680085	-2.12386	8.855265	-0.006671	0.007967	-0.007555	-0.477539	-0.021729	-0.51709
354.0	3.663047	-2.127156	8.873198	-0.005932	0.007976	-0.005518	-0.479736	-0.019775	-0.514893
355.0	3.695423	-2.121513	8.837812	-0.006669	0.007966	-0.007555	-0.477539	-0.021729	-0.514893
356.0	3.64543	-2.131083	8.891214	-0.011745	0.007551	-0.002991	-0.479736	-0.023926	-0.519287
357.0	3.661265	-2.12865	8.873575	-0.004838	0.009256	-0.00715	-0.479736	-0.021729	-0.514893
358.0	3.71141	-2.122663	8.854863	-0.008714	0.008973	-0.005465	-0.479736	-0.019531	-0.519287
359.0	3.674098	-2.102269	8.85809	-0.007512	0.009105	-0.008345	-0.47998	-0.017578	-0.514893
360.0	3.673445	-2.102633	8.858274	-0.006774	0.009114	-0.006308	-0.477539	-0.023926	-0.514893
361.0	3.677407	-2.151454	8.854596	-0.006773	0.009113	-0.006309	-0.47998	-0.017578	-0.51709
362.0	3.69	-2.102966	8.875286	-0.005926	0.007974	-0.005521	-0.477783	-0.019531	-0.52124
363.0	3.638541	-2.109691	8.894344	-0.006772	0.009113	-0.00631	-0.482178	-0.017578	-0.51709
364.0	3.691102	-2.127771	8.873717	-0.005459	0.008097	-0.010438	-0.479736	-0.021729	-0.51709
365.0	3.689226	-2.125437	8.839458	-0.007016	0.006692	-0.003891	-0.481934	-0.023926	-0.510498
366.0	3.671171	-2.10727	8.893707	-0.006034	0.009121	-0.004273	-0.486328	-0.021729	-0.51709
367.0	3.672377	-2.150756	8.821248	-0.006413	0.010384	-0.009979	-0.481689	-0.026123	-0.51709
368.0	3.686188	-2.104663	8.876468	-0.003002	0.010544	-0.006745	-0.479736	-0.023926	-0.519287
369.0	3.684072	-2.10223	8.842336	-0.006032	0.00912	-0.004274	-0.481934	-0.021973	-0.512695
370.0	3.670575	-2.132472	8.892737	-0.006767	0.00911	-0.006313	-0.479736	-0.021729	-0.512695
371.0	3.670925	-2.154307	8.856592	-0.003982	0.008114	-0.006365	-0.481934	-0.021729	-0.51709
372.0	3.651319	-2.133419	8.876528	-0.008567	0.012535	-0.006643	-0.484131	-0.021729	-0.51709
373.0	3.684925	-2.130312	8.875675	-0.003135	0.006975	-0.005576	-0.481934	-0.021729	-0.51709
374.0	3.68428	-2.13037	8.875928	-0.005312	0.011664	-0.011613	-0.486084	-0.023926	-0.512695
375.0	3.663444	-2.106893	8.861403	-0.008949	0.006545	-0.003055	-0.481934	-0.019775	-0.514893
376.0	3.679392	-2.104367	8.843775	-0.005917	0.00797	-0.005526	-0.481934	-0.021729	-0.514893
377.0	3.680098	-2.107357	8.878355	-0.006761	0.009108	-0.006316	-0.481934	-0.021729	-0.51709
378.0	3.665331	-2.134951	8.894305	-0.006649	0.00796	-0.007565	-0.481934	-0.019775	-0.514893
379.0	3.697688	-2.129247	8.859022	-0.007604	0.010246	-0.007106	-0.473145	-0.023926	-0.514893
380.0	3.680507	-2.132751	8.876922	-0.007852	0.007825	-0.004687	-0.479736	-0.023926	-0.514893
381.0	3.679875	-2.133095	8.877101	-0.004819	0.009251	-0.007157	-0.477539	-0.019775	-0.512695
382.0	3.662569	-2.136356	8.895106	-0.005042	0.011545	-0.004659	-0.479736	-0.021729	-0.51709
383.0	3.676987	-2.13077	8.843273	-0.003612	0.009386	-0.010037	-0.479736	-0.019531	-0.51709
384.0	3.657433	-2.109674	8.863224	-0.005661	0.010388	-0.007948	-0.481934	-0.023926	-0.51709
385.0	3.693423	-2.13065	8.860464	-0.004816	0.00925	-0.007159	-0.477539	-0.021729	-0.51709
386.0	3.690393	-2.106593	8.862669	-0.004815	0.009249	-0.007159	-0.477539	-0.021973	-0.510498
387.0	3.675572	-2.134026	8.87866	-0.004815	0.009249	-0.00716	-0.47998	-0.017578	-0.51709
388.0	3.673662	-2.131596	8.844455	-0.00664	0.007957	-0.00757	-0.484375	-0.017578	-0.519287
389.0	3.689815	-2.109693	8.897747	-0.000936	0.009538	-0.008838	-0.481934	-0.023926	-0.519287
390.0	3.672423	-2.131686	8.844948	-0.007483	0.009094	-0.008362	-0.486328	-0.023926	-0.51709
391.0	3.670674	-2.110505	8.881508	-0.006019	0.009112	-0.004282	-0.477783	-0.017578	-0.514893
392.0	3.671063	-2.13232	8.84536	-0.004811	0.009248	-0.007162	-0.475342	-0.023926	-0.514893
393.0	3.685832	-2.107978	8.864237	-0.006749	0.009102	-0.006323	-0.473145	-0.023926	-0.51709
394.0	3.668419	-2.130175	8.811396	-0.004078	0.009256	-0.005122	-0.481934	-0.023926	-0.519287
395.0	3.66668	-2.10878	8.848003	-0.003965	0.008109	-0.006372	-0.473389	-0.019531	-0.51709
396.0	3.669778	-2.135892	8.880608	-0.006634	0.007955	-0.007574	-0.484131	-0.019775	-0.514893
397.0	3.648981	-2.112301	8.866082	-0.004807	0.009247	-0.007163	-0.479736	-0.023926	-0.514893
398.0	3.665985	-2.112335	8.88301	-0.00891	0.011249	-0.002988	-0.479736	-0.023926	-0.512695
399.0	3.665204	-2.112754	8.883232	-0.005535	0.009237	-0.009204	-0.479736	-0.023926	-0.514893
400.0	3.683544	-2.134022	8.863765	-0.004691	0.008099	-0.008414	-0.477783	-0.017334	-0.519287
401.0	3.646102	-2.113665	8.866941	-0.009637	0.011238	-0.00503	-0.477539	-0.023926	-0.514893
402.0	3.664319	-2.135086	8.847489	-0.002751	0.008245	-0.009252	-0.479736	-0.021729	-0.52124
403.0	3.67908	-2.110637	8.866409	-0.007584	0.010236	-0.007119	-0.481934	-0.019531	-0.519287
404.0	3.678405	-2.111104	8.866578	-0.007836	0.007815	-0.0047	-0.475342	-0.023926	-0.514893
405.0	3.678947	-2.113988	8.901227	-0.002607	0.011812	-0.010423	-0.484131	-0.023926	-0.514893
406.0	3.661657	-2.13595	8.848382	-0.005783	0.006814	-0.006788	-0.477539	-0.021729	-0.51709
407.0	3.678821	-2.1359	8.865273	-0.006852	0.010244	-0.00508	-0.481689	-0.026123	-0.514893
408.0	3.693432	-2.111609	8.884226	-0.00564	0.010381	-0.007958	-0.481934	-0.021729	-0.51709
409.0	3.69152	-2.109165	8.850045	-0.005894	0.00796	-0.005539	-0.481934	-0.023926	-0.51709
410.0	3.674343	-2.112504	8.867929	-0.004796	0.009243	-0.007168	-0.481934	-0.021729	-0.51709
411.0	3.676185	-2.137031	8.866094	-0.007718	0.006666	-0.005953	-0.477783	-0.017578	-0.51709
412.0	3.673088	-2.112997	8.868331	-0.003442	0.012948	-0.011216	-0.486328	-0.019775	-0.512695
413.0	3.635545	-2.092516	8.871552	-0.008672	0.008948	-0.005496	-0.481934	-0.021729	-0.519287
414.0	3.674011	-2.137911	8.866783	-0.006005	0.009104	-0.004291	-0.484131	-0.023926	-0.51709
415.0	3.67101	-2.113917	8.868972	-0.003837	0.006959	-0.007628	-0.479736	-0.019531	-0.51709
416.0	3.672822	-2.138363	8.867167	-0.007572	0.010231	-0.007125	-0.481934	-0.021973	-0.512695
417.0	3.687574	-2.113993	8.886092	-0.003835	0.006959	-0.007629	-0.475342	-0.021729	-0.51709
418.0	3.652673	-2.117717	8.887211	-0.006729	0.009094	-0.006334	-0.481934	-0.021973	-0.510498
419.0	3.688859	-2.138932	8.884387	-0.009651	0.006516	-0.005121	-0.484131	-0.021973	-0.512695
420.0	3.665626	-2.091343	8.871813	-0.00563	0.010378	-0.007963	-0.481934	-0.019775	-0.514893
421.0	3.686451	-2.137171	8.850254	-0.012314	0.006358	-0.006329	-0.481934	-0.021729	-0.51709
422.0	3.667099	-2.116603	8.86995	-0.004089	0.004537	-0.00521	-0.475586	-0.017334	-0.519287
423.0	3.700993	-2.113438	8.869126	-0.010116	0.008927	-0.009585	-0.479736	-0.023926	-0.512695
424.0	3.668565	-2.141676	8.86813	-0.007708	0.006662	-0.005959	-0.481934	-0.021729	-0.519287
425.0	3.682089	-2.114769	8.852636	-0.007565	0.010228	-0.007129	-0.479736	-0.021729	-0.514893
426.0	3.682675	-2.117949	8.887182	-0.007707	0.006661	-0.00596	-0.477539	-0.023926	-0.512695
427.0	3.664342	-2.118757	8.870575	-0.006723	0.009091	-0.006337	-0.47998	-0.015381	-0.512695
428.0	3.662437	-2.116494	8.836358	-0.009501	0.010079	-0.006295	-0.481689	-0.026123	-0.51709
429.0	3.698451	-2.118943	8.904421	-0.007446	0.009082	-0.008381	-0.481934	-0.023926	-0.512695
430.0	3.662412	-2.119929	8.871092	-0.00455	0.006949	-0.009674	-0.484131	-0.021729	-0.51709
431.0	3.680931	-2.14127	8.851561	-0.007819	0.007805	-0.004712	-0.473145	-0.023926	-0.51709
432.0	3.695546	-2.117139	8.870514	-0.006835	0.010235	-0.005088	-0.481934	-0.019775	-0.512695
433.0	3.677014	-2.117945	8.853986	-0.007558	0.010226	-0.007132	-0.481689	-0.026123	-0.51709
434.0	3.676306	-2.118126	8.854236	-0.002839	0.009388	-0.008009	-0.477539	-0.023926	-0.51709
435.0	3.675643	-2.118185	8.854498	-0.004777	0.009238	-0.007175	-0.484131	-0.021729	-0.519287
436.0	3.69258	-2.117922	8.871563	-0.004633	0.012804	-0.008344	-0.481934	-0.023926	-0.512695
437.0	3.659971	-2.145973	8.870641	-0.006975	0.006666	-0.003922	-0.481689	-0.026123	-0.514893
438.0	3.67103	-2.094823	8.857223	-0.005991	0.009097	-0.004299	-0.486328	-0.019775	-0.514893
439.0	3.676503	-2.146136	8.887771	-0.003442	0.008234	-0.011305	-0.477539	-0.021729	-0.51709
440.0	3.670936	-2.097781	8.892092	-0.00489	0.010381	-0.005926	-0.481689	-0.026123	-0.51709
441.0	3.705762	-2.115764	8.85511	-0.002228	0.01054	-0.004716	-0.477539	-0.021729	-0.519287
442.0	3.670681	-2.119423	8.85626	-0.004772	0.009236	-0.007178	-0.481934	-0.021729	-0.51709
443.0	3.68518	-2.095032	8.875337	-0.005726	0.011516	-0.00672	-0.479736	-0.019531	-0.519287
444.0	3.653997	-2.144375	8.837953	-0.002254	0.005829	-0.004799	-0.481934	-0.023926	-0.512695
445.0	3.651935	-2.123241	8.874618	-0.009341	0.013637	-0.007474	-0.479736	-0.023926	-0.514893
446.0	3.682914	-2.095723	8.876114	-0.002108	0.009394	-0.005968	-0.479492	-0.026123	-0.514893
447.0	3.66703	-2.12046	8.857524	-0.00659	0.00794	-0.007598	-0.479736	-0.019531	-0.519287
448.0	3.6829	-2.117564	8.840142	-0.005001	0.011523	-0.004678	-0.479736	-0.021729	-0.514893
449.0	3.666627	-2.123853	8.892407	-0.006705	0.009084	-0.006348	-0.479736	-0.023926	-0.514893
450.0	3.664899	-2.121296	8.858206	-0.004648	0.00809	-0.008432	-0.486572	-0.017578	-0.51709
451.0	3.682064	-2.121006	8.875196	-0.003927	0.008099	-0.006388	-0.479736	-0.021729	-0.514893
452.0	3.663669	-2.121766	8.858602	-0.00948	0.010067	-0.00631	-0.481934	-0.021729	-0.519287
453.0	3.666576	-2.149242	8.89112	-0.007423	0.009074	-0.008394	-0.484131	-0.019531	-0.519287
454.0	3.696637	-2.11901	8.858148	-0.005981	0.009091	-0.004305	-0.481934	-0.019775	-0.514893
455.0	3.679334	-2.122574	8.875953	-0.006701	0.009082	-0.00635	-0.481934	-0.023926	-0.514893
456.0	3.662052	-2.126036	8.89377	-0.00476	0.009233	-0.007183	-0.481934	-0.019531	-0.51709
457.0	3.694567	-2.119912	8.858795	-0.007536	0.010216	-0.007145	-0.479492	-0.026123	-0.51709
458.0	3.696288	-2.14442	8.85699	-0.004877	0.010376	-0.005932	-0.481934	-0.019775	-0.510498
459.0	3.638465	-2.100242	8.845379	-0.004876	0.010376	-0.005933	-0.479736	-0.019775	-0.514893
460.0	3.694726	-2.144839	8.85754	-0.005594	0.010367	-0.007978	-0.482178	-0.017578	-0.514893
461.0	3.690006	-2.099381	8.896355	-0.003772	0.011662	-0.007559	-0.481689	-0.026123	-0.514893
462.0	3.689569	-2.117859	8.82585	-0.000876	0.009535	-0.008848	-0.477783	-0.019775	-0.514893
463.0	3.656741	-2.12726	8.895663	-0.008634	0.008927	-0.005523	-0.477539	-0.021729	-0.52124
464.0	3.69044	-2.123878	8.895084	-0.001978	0.008248	-0.007223	-0.484131	-0.023926	-0.514893
465.0	3.686273	-2.096976	8.862965	-0.005856	0.007944	-0.005561	-0.481934	-0.019775	-0.514893
466.0	3.670557	-2.121862	8.844244	-0.005737	0.0068	-0.006812	-0.479736	-0.023926	-0.51709
467.0	3.671002	-2.125019	8.878817	-0.00681	0.010221	-0.005105	-0.477783	-0.019531	-0.519287
468.0	3.670227	-2.12533	8.879064	-0.005587	0.010365	-0.007982	-0.479736	-0.021729	-0.51709
469.0	3.66594	-2.098489	8.846984	-0.00475	0.00923	-0.007188	-0.481689	-0.026123	-0.512695
470.0	3.667766	-2.122949	8.845141	-0.005972	0.009085	-0.004311	-0.481934	-0.021729	-0.514893
471.0	3.684749	-2.122926	8.862162	-0.008241	0.010202	-0.009199	-0.477295	-0.026123	-0.506104
472.0	3.683998	-2.123228	8.862402	-0.004867	0.010372	-0.005937	-0.483887	-0.026123	-0.519287
473.0	3.665642	-2.123889	8.845796	-0.006567	0.007932	-0.00761	-0.477539	-0.023926	-0.52124
474.0	3.663629	-2.10273	8.882436	-0.004627	0.008085	-0.008441	-0.481934	-0.023926	-0.51709
475.0	3.664462	-2.12424	8.8462	-0.005581	0.010362	-0.007985	-0.475342	-0.023926	-0.51709
476.0	3.662314	-2.103041	8.882905	-0.003909	0.008093	-0.006395	-0.481934	-0.021729	-0.51709
477.0	3.696033	-2.09962	8.882363	-0.007399	0.009065	-0.008407	-0.479492	-0.026123	-0.51709
478.0	3.677679	-2.100384	8.865728	-0.005967	0.009083	-0.004314	-0.479736	-0.023926	-0.51709
479.0	3.679545	-2.124734	8.863891	-0.003518	0.009372	-0.010068	-0.481934	-0.021729	-0.51709
480.0	3.676431	-2.100662	8.86618	-0.006561	0.00793	-0.007613	-0.479736	-0.021729	-0.514893
481.0	3.660687	-2.125491	8.847463	-0.004741	0.009226	-0.007192	-0.477539	-0.023926	-0.514893
482.0	3.677634	-2.125268	8.864556	-0.00486	0.010369	-0.005941	-0.475342	-0.021729	-0.514893
483.0	3.676886	-2.125468	8.864818	-0.006289	0.010351	-0.010035	-0.479736	-0.019775	-0.512695
484.0	3.692895	-2.122357	8.847496	-0.003904	0.008092	-0.006398	-0.484131	-0.021729	-0.51709
485.0	3.673074	-2.10156	8.867358	-0.004738	0.009225	-0.007193	-0.481689	-0.026123	-0.519287
486.0	3.67228	-2.101772	8.867637	-0.004977	0.01151	-0.004691	-0.479736	-0.019531	-0.519287
487.0	3.653837	-2.102591	8.851016	-0.00933	0.008907	-0.007584	-0.479736	-0.021729	-0.51709
488.0	3.649154	-2.057698	8.889677	-0.010434	0.007619	-0.00596	-0.477783	-0.019531	-0.51709
489.0	3.643817	-2.180115	8.86231	-0.017951	0.004715	-0.005149	-0.481689	-0.026123	-0.51709
490.0	3.689739	-2.126418	8.847837	-0.024271	-0.00275	-0.0073	-0.481934	-0.02417	-0.508301
491.0	3.660355	-2.162786	8.914402	-0.04585	-0.000633	-0.0133	-0.479736	-0.023926	-0.512695
492.0	3.806187	-2.060266	8.969746	-0.107577	0.003055	-0.006762	-0.479736	-0.021729	-0.514893
493.0	3.79488	-1.895992	9.433341	-0.223167	0.026255	0.004449	-0.475342	-0.021729	-0.512695
494.0	3.94383	-2.309936	8.956976	-0.411256	0.075928	0.008464	-0.47998	-0.015381	-0.51709
495.0	3.923324	-2.257189	8.750768	-0.453218	0.077073	0.01226	-0.477783	-0.017578	-0.51709
496.0	4.005663	-1.982746	8.89376	-0.453141	0.088834	0.03952	-0.480225	-0.008789	-0.521484
497.0	4.087062	-2.399226	9.004756	-0.488349	0.163902	0.060164	-0.482422	-0.008789	-0.519287
498.0	3.869001	-2.52853	8.89174	-0.477766	0.183835	0.069125	-0.482422	-0.006592	-0.519287
499.0	4.025253	-2.406039	9.093327	-0.47021	0.20226	0.080551	-0.473877	-0.002441	-0.51709
500.0	4.021671	-2.47431	9.070469	-0.510872	0.256996	0.087877	-0.476318	0.001953	-0.523682
501.0	3.852766	-2.495151	9.109344	-0.520241	0.289077	0.101165	-0.471924	-0.000244	-0.519287
502.0	3.522385	-2.488666	8.997228	-0.517431	0.300302	0.100313	-0.474365	0.008545	-0.525879
503.0	3.483057	-2.597807	8.900073	-0.444311	0.283567	0.08887	-0.472412	0.010498	-0.521484
504.0	3.520868	-2.59884	8.834119	-0.420486	0.293358	0.082835	-0.470215	0.010742	-0.528076
505.0	3.325772	-2.692823	8.756952	-0.386578	0.292526	0.072184	-0.470459	0.01709	-0.525879
506.0	3.348152	-2.689068	8.709766	-0.312894	0.273842	0.063065	-0.466309	0.021484	-0.530273
507.0	3.239476	-2.747111	8.688721	-0.2875	0.2703	0.051229	-0.463867	0.019287	-0.525879
508.0	3.196589	-2.73523	8.608027	-0.215401	0.243602	0.041359	-0.459473	0.01709	-0.528076
509.0	3.045945	-2.661043	8.570983	-0.173395	0.220336	0.033482	-0.459961	0.025879	-0.528076
510.0	2.869239	-2.785215	8.380191	-0.126781	0.194192	0.022451	-0.459961	0.025879	-0.528076
511.0	2.839065	-2.780503	8.296914	-0.026494	0.125915	0.008435	-0.459473	0.01709	-0.523682
512.0	2.689634	-2.724677	8.167223	0.028289	0.080762	-0.003369	-0.466309	0.021484	-0.532471
513.0	2.599646	-2.902561	8.175836	0.099207	0.016195	-0.020397	-0.45752	0.019531	-0.534424
514.0	2.752703	-2.869712	8.306519	0.176319	-0.051463	-0.036557	-0.459717	0.019287	-0.525879
515.0	3.046607	-2.832512	8.543394	0.229738	-0.081783	-0.045766	-0.45752	0.019287	-0.532471
516.0	3.167166	-2.74362	8.680805	0.26371	-0.091341	-0.058862	-0.463867	0.017334	-0.534424
517.0	3.104006	-2.665851	8.622602	0.304049	-0.098602	-0.062747	-0.459473	0.014893	-0.528076
518.0	2.847349	-2.666962	8.307748	0.358472	-0.110072	-0.078424	-0.461182	0.006348	-0.525879
519.0	2.82246	-2.587099	8.35557	0.540295	-0.184861	-0.103391	-0.461426	0.006592	-0.534424
520.0	2.833832	-2.296392	8.448965	0.693646	-0.213176	-0.133427	-0.467773	0.00415	-0.525879
521.0	3.181035	-2.130389	9.341777	0.80941	-0.245331	-0.157806	-0.467529	-0.000244	-0.523682
522.0	3.740876	-2.057473	9.644555	0.679224	-0.213582	-0.153706	-0.467529	-0.004395	-0.532227
523.0	3.845905	-2.250842	9.359584	0.502033	-0.206839	-0.123915	-0.467041	-0.010986	-0.523438
524.0	3.658539	-2.350409	9.329292	0.337851	-0.225505	-0.094167	-0.473633	-0.010742	-0.527832
525.0	3.607979	-2.415052	8.98846	0.274312	-0.260268	-0.08412	-0.473633	-0.012939	-0.525635
526.0	3.783542	-2.32928	9.041306	0.232196	-0.273429	-0.074031	-0.473633	-0.010986	-0.523682
527.0	3.808586	-2.304672	9.001673	0.177255	-0.254517	-0.069343	-0.471191	-0.017334	-0.51709
528.0	3.79184	-2.242948	9.001291	0.150564	-0.221717	-0.062003	-0.477783	-0.019531	-0.523438
529.0	3.809646	-2.20759	9.033214	0.118998	-0.18903	-0.061987	-0.477783	-0.017578	-0.514893
530.0	3.934306	-2.22869	8.989006	0.103447	-0.158692	-0.058208	-0.477783	-0.017334	-0.521484
531.0	3.704839	-2.218935	8.955814	0.058329	-0.125653	-0.062987	-0.477783	-0.019531	-0.52124
532.0	3.671854	-2.26267	8.931302	0.084771	-0.141187	-0.068709	-0.477539	-0.021729	-0.519287
533.0	3.732106	-2.200084	8.949141	0.079133	-0.133322	-0.07437	-0.479736	-0.021729	-0.512695
534.0	3.664245	-2.244307	8.890918	0.063461	-0.134415	-0.081842	-0.486328	-0.021729	-0.514893
535.0	3.637743	-2.173421	8.96333	0.060645	-0.142769	-0.089072	-0.479492	-0.026123	-0.51709
536.0	3.626345	-2.238482	8.918542	0.048827	-0.15767	-0.098478	-0.481689	-0.026123	-0.519287
537.0	3.48855	-2.22956	8.970179	0.036047	-0.185451	-0.11598	-0.481445	-0.032715	-0.512695
538.0	3.395359	-2.283098	8.944626	0.033347	-0.233558	-0.140594	-0.490479	-0.02832	-0.514893
539.0	3.366232	-2.233782	8.959381	0.043789	-0.299424	-0.173608	-0.488281	-0.023926	-0.512695
540.0	3.392076	-2.163758	8.850401	0.099861	-0.406874	-0.196609	-0.494385	-0.037109	-0.510498
541.0	3.273197	-2.241116	9.338916	0.044732	-0.492514	-0.236933	-0.490479	-0.02417	-0.503906
542.0	3.144706	-2.592341	9.038773	0.133494	-0.70741	-0.289606	-0.500977	-0.037109	-0.497559
543.0	3.42443	-2.546054	9.267105	0.068564	-0.873121	-0.350559	-0.503174	-0.032959	-0.495361
544.0	3.296887	-3.087063	9.117219	0.108717	-1.072736	-0.415201	-0.503174	-0.035156	-0.490967
545.0	3.551953	-3.114965	9.380159	0.24346	-1.287169	-0.490244	-0.511475	-0.046143	-0.482178
546.0	3.820834	-3.239838	9.506133	0.329352	-1.407415	-0.578074	-0.524414	-0.04834	-0.47583
547.0	4.086464	-3.527369	9.668541	0.455598	-1.474944	-0.697141	-0.521973	-0.054932	-0.471436
548.0	4.296301	-3.629461	9.555337	0.627656	-1.508365	-0.834586	-0.537109	-0.057129	-0.462646
549.0	4.657251	-3.39686	9.86264	0.814757	-1.53246	-0.964546	-0.538818	-0.065918	-0.456299
550.0	5.06234	-3.909885	10.592713	0.808022	-1.373156	-1.072285	-0.542725	-0.078857	-0.445313
551.0	3.257238	-5.465149	12.351342	0.722102	-0.986385	-1.091189	-0.546875	-0.085449	-0.443115
552.0	-0.336225	-7.240851	11.931672	0.583773	-0.693257	-0.908632	-0.546875	-0.085449	-0.445313
553.0	1.807208	-6.212112	15.103564	1.144882	-0.790061	-0.489099	-0.548584	-0.093994	-0.445313
554.0	0.909825	-5.389531	14.691661	-0.052669	0.33773	-0.085969	-0.551025	-0.087402	-0.449707
555.0	-4.12903	-7.412141	8.861085	-0.145576	0.671455	0.034147	-0.544678	-0.087402	-0.464844
556.0	-3.497204	-3.604849	9.299999	0.945953	-0.027724	0.025542	-0.542236	-0.091553	-0.464844
557.0	-1.942761	-1.447871	11.361989	0.016405	0.483926	-0.026261	-0.544434	-0.089355	-0.475586
558.0	-3.13878	-3.950229	10.599843	-0.413853	0.879247	-0.071251	-0.542725	-0.080566	-0.490723
559.0	-2.882246	-3.086835	10.518084	-0.083398	0.853822	-0.101746	-0.529785	-0.078125	-0.503906
560.0	-3.10119	-2.627136	9.634537	-0.394814	1.095108	-0.11749	-0.527832	-0.071289	-0.52124
561.0	-3.145145	-3.1064	9.085355	-0.387903	1.077319	-0.095746	-0.515137	-0.0625	-0.538574
562.0	-2.710157	-2.993691	9.129259	-0.450802	1.073224	-0.041115	-0.510986	-0.057861	-0.553711
563.0	-2.661564	-3.256723	8.557071	-0.549849	1.055651	0.033322	-0.48999	-0.042725	-0.566895
564.0	-2.586406	-3.51836	8.088387	-0.516414	0.917257	0.109814	-0.479248	-0.038086	-0.584229
565.0	-2.254236	-3.479491	8.168336	-0.463815	0.700475	0.190595	-0.462891	-0.011963	-0.597168
566.0	-1.107138	-3.49336	9.255932	-0.544696	0.523759	0.303099	-0.448242	0.001221	-0.612549
567.0	-0.123988	-3.981968	10.152987	-0.78432	0.496701	0.45298	-0.418701	0.0271	-0.619141
568.0	0.570548	-4.907169	10.628042	-0.931278	0.489628	0.638606	-0.400146	0.053223	-0.623535
569.0	1.395222	-5.479436	11.052515	-0.938138	0.464247	0.846146	-0.374756	0.068359	-0.625732
570.0	2.471341	-5.637354	11.820272	-0.913565	0.465251	1.068575	-0.343018	0.094238	-0.616943
571.0	3.467983	-5.565084	12.522641	-0.915346	0.576092	1.295148	-0.315674	0.12207	-0.604248
572.0	4.108911	-5.475915	12.905481	-0.89289	0.736654	1.480929	-0.290283	0.141357	-0.586914
573.0	4.610104	-5.211327	12.956935	-0.754514	0.881401	1.624028	-0.264893	0.158203	-0.560791
574.0	5.065816	-4.598025	12.924424	-0.627267	1.050789	1.716096	-0.243652	0.173096	-0.537109
575.0	5.29762	-3.90312	12.420513	-0.534833	1.209275	1.760601	-0.218018	0.187744	-0.509033
576.0	5.374195	-2.942225	11.508833	-0.447877	1.29693	1.761198	-0.207764	0.211182	-0.480957
577.0	5.472481	-1.740618	10.525542	-0.42598	1.330869	1.725248	-0.188721	0.22168	-0.454834
578.0	5.544072	0.058783	9.532229	-0.381891	1.264083	1.645284	-0.177734	0.223389	-0.420166
579.0	5.938432	1.82688	9.77872	-0.515458	1.171259	1.463654	-0.18042	0.235596	-0.383301
580.0	6.39596	1.169339	9.461881	-0.743861	1.219067	1.186724	-0.17627	0.243896	-0.353027
581.0	6.879136	0.912887	9.664082	-0.545238	1.103706	0.89981	-0.178467	0.25	-0.329346
582.0	7.696323	0.813899	9.954856	-0.535211	1.133917	0.657497	-0.189697	0.255859	-0.29248
583.0	8.25511	0.452761	9.889062	-0.551915	1.215922	0.494272	-0.200439	0.257813	-0.270752
584.0	8.747184	0.025772	9.526529	-0.567345	1.3356	0.367476	-0.211426	0.259521	-0.249268
585.0	9.002551	-0.468621	8.632823	-0.515812	1.458573	0.254598	-0.230957	0.255127	-0.244873
586.0	8.993907	-0.728098	7.25823	-0.38585	1.523656	0.139354	-0.243896	0.254883	-0.225342
587.0	9.055193	-0.800328	5.707026	-0.280266	1.508779	0.017594	-0.259277	0.256836	-0.216797
588.0	9.383082	-0.566973	4.260257	-0.263478	1.423122	-0.092764	-0.274414	0.256836	-0.216797
589.0	9.752058	-0.299531	2.853114	-0.399345	1.291659	-0.178549	-0.287354	0.256592	-0.212402
590.0	10.08281	-0.529238	1.648163	-0.590328	1.088096	-0.251077	-0.298096	0.25	-0.208008
591.0	10.644067	-1.025594	1.014532	-0.629197	0.809221	-0.279951	-0.311279	0.251953	-0.20166
592.0	11.112282	-1.333327	0.817801	-0.576537	0.512439	-0.269862	-0.320068	0.25415	-0.195068
593.0	11.619726	-1.692319	0.856073	-0.440104	0.21522	-0.228791	-0.324463	0.260498	-0.197266
594.0	11.898578	-1.877404	1.052155	-0.290123	-0.049001	-0.176376	-0.331055	0.260254	-0.175781
595.0	12.441317	-2.104101	1.661439	-0.175914	-0.302295	-0.102296	-0.337646	0.26001	-0.169189
596.0	11.386604	-4.090668	3.332818	-0.329028	-0.34447	-0.023153	-0.333252	0.262207	-0.154053
597.0	-0.781686	-11.933058	-0.142333	-0.234034	-0.12832	-0.017233	-0.335205	0.259766	-0.147461
598.0	-10.044227	-0.032154	17.97454	3.279558	-2.27551	0.059759	-0.348633	0.266113	-0.130371
599.0	-7.903969	5.201301	11.128743	-0.19117	-1.578189	-0.542197	-0.350586	0.261475	-0.11084
600.0	3.36234	6.72369	-3.503505	1.565421	-4.139184	-0.780152	-0.36792	0.260986	-0.089111
601.0	16.412773	6.2622	27.723782	0.929749	-3.094226	-0.651372	-0.37207	0.258545	-0.06958
602.0	10.797638	0.718582	15.823585	-1.506311	-0.403754	-0.790756	-0.37207	0.260742	-0.062988
603.0	4.172937	-6.239887	9.538894	-0.499427	-0.831319	-0.641726	-0.376465	0.262695	-0.050049
604.0	4.89933	-8.082848	10.856198	0.152984	-1.217368	-0.335663	-0.385254	0.260254	-0.041504
605.0	6.570514	-4.187164	11.707188	0.647476	-1.268639	-0.20071	-0.380859	0.264648	-0.034912
606.0	7.697379	-3.058623	13.619627	0.612047	-0.568179	-0.209628	-0.385254	0.260254	-0.032715
607.0	3.279024	-5.157417	8.10549	0.104434	-0.079233	-0.1891	-0.385254	0.260254	-0.030518
608.0	2.429163	-5.36732	8.48878	0.925756	-0.536276	-0.175686	-0.385254	0.264404	-0.021973
609.0	3.329526	-3.020644	8.880696	0.846293	-0.435097	-0.251379	-0.382813	0.258057	-0.021973
610.0	3.304593	-3.847372	8.6621	0.792098	-0.358644	-0.283135	-0.387207	0.258057	-0.02417
611.0	4.158799	-2.801378	9.551625	1.007771	-0.428492	-0.286902	-0.387207	0.257813	-0.019775
612.0	4.238043	-2.482037	9.575355	0.770921	-0.25465	-0.27367	-0.389404	0.255615	-0.017578
613.0	3.903394	-2.2991	9.400626	0.749118	-0.272402	-0.232125	-0.391602	0.257813	-0.021973
614.0	3.989358	-1.787943	9.685513	0.638142	-0.275015	-0.18955	-0.395752	0.255615	-0.019775
615.0	4.057724	-1.553452	9.688073	0.466351	-0.238189	-0.125857	-0.389404	0.257813	-0.015381
616.0	3.888244	-1.723682	9.487275	0.311005	-0.199335	-0.073286	-0.38916	0.251465	-0.015381
617.0	3.620779	-2.315812	9.12134	0.205991	-0.169346	-0.040495	-0.391602	0.257568	-0.004639
618.0	3.652245	-2.247007	9.14222	0.230385	-0.19571	-0.024763	-0.389404	0.26001	-0.010986
619.0	3.641504	-2.341718	9.024143	0.14184	-0.147214	-0.016609	-0.386963	0.253418	-0.015381
620.0	3.653222	-2.562685	8.91093	0.141797	-0.140108	-0.021008	-0.395996	0.257813	-0.009033
621.0	3.677274	-2.477808	8.934575	0.125589	-0.104496	-0.028136	-0.395752	0.255615	-0.009033
622.0	3.600123	-2.469776	8.917068	0.116407	-0.081275	-0.037497	-0.395996	0.26001	-0.013184
623.0	3.54943	-2.366498	8.9444	0.109518	-0.060397	-0.043228	-0.389404	0.255615	-0.010986
624.0	3.499525	-2.287537	8.969445	0.109333	-0.060192	-0.050176	-0.391602	0.257813	-0.010986
625.0	3.466643	-2.206214	8.977031	0.097076	-0.059863	-0.046219	-0.38916	0.251221	-0.010986
626.0	3.486922	-2.145481	8.964335	0.078877	-0.064617	-0.039948	-0.391357	0.255615	-0.009033
627.0	3.547394	-2.159827	8.978111	0.070048	-0.072271	-0.036521	-0.391357	0.255615	-0.009033
628.0	3.593874	-2.220173	8.935144	0.05491	-0.079387	-0.024563	-0.393799	0.257813	-0.009033
629.0	3.672236	-2.234475	8.930501	0.041723	-0.083706	-0.022695	-0.393555	0.255615	-0.009033
630.0	3.699849	-2.276063	8.906533	0.03405	-0.070354	-0.014334	-0.389404	0.255615	-0.008789
631.0	3.761215	-2.318841	8.917069	0.038137	-0.059584	-0.01452	-0.393311	0.249023	-0.004639
632.0	3.70864	-2.241428	8.87174	0.026532	-0.042699	-0.012592	-0.393555	0.255615	-0.004639
633.0	3.662584	-2.268163	8.886217	0.026452	-0.034626	-0.008772	-0.38916	0.253418	-0.006836
634.0	3.648073	-2.265214	8.868606	0.023052	-0.027755	-0.009458	-0.397949	0.255371	-0.002441
635.0	3.61462	-2.241276	8.870675	0.019571	-0.02936	-0.00218	-0.391602	0.257813	-0.010986
636.0	3.632096	-2.213197	8.854984	0.002178	-0.01981	-0.000396	-0.400146	0.257568	-0.006836
637.0	3.655176	-2.265553	8.901021	-0.004857	-0.019234	0.006109	-0.391357	0.255615	-0.009033
638.0	3.586613	-2.26491	8.832113	-0.011518	-0.017346	0.008982	-0.391602	0.257568	-0.002441
639.0	3.606333	-2.269476	8.882594	-0.00462	-0.02262	0.002377	-0.395752	0.255615	-0.006836
640.0	3.591602	-2.290882	8.82801	-0.011063	-0.017162	0.004104	-0.393799	0.259766	-0.006836
641.0	3.595437	-2.319239	8.859196	-0.007796	-0.019129	-0.002033	-0.398193	0.257813	-0.010986
642.0	3.598321	-2.340734	8.821646	-0.005794	-0.020126	-0.004086	-0.393555	0.253418	-0.004639
643.0	3.598548	-2.316748	8.823122	-0.004606	-0.019968	-0.006929	-0.393799	0.262207	-0.015381
644.0	3.58456	-2.340673	8.803022	-0.005049	-0.0175	-0.011354	-0.393555	0.255615	-0.006836
645.0	3.55267	-2.345845	8.837122	0.00317	-0.017916	-0.020709	-0.397949	0.255615	-0.006836
646.0	3.575266	-2.390382	8.814461	0.003486	-0.02243	-0.025687	-0.397949	0.257568	-0.004639
647.0	3.623184	-2.289125	8.839825	0.022799	-0.022241	-0.035023	-0.395752	0.255615	-0.006836
648.0	3.524617	-2.321551	8.872742	0.000528	-0.012724	-0.040544	-0.395996	0.259766	-0.006836
649.0	3.517763	-2.43657	8.809396	0.021377	-0.026496	-0.050994	-0.393555	0.255615	-0.004639
650.0	3.582781	-2.309332	8.853992	0.030467	-0.035029	-0.062164	-0.395996	0.257813	-0.009033
651.0	3.621772	-2.302009	8.852961	0.025545	-0.033945	-0.068263	-0.393799	0.257568	-0.002441
652.0	3.592658	-2.302812	8.88717	0.025661	-0.032441	-0.078831	-0.400391	0.259766	-0.002441
653.0	3.648348	-2.288991	8.834194	0.025824	-0.040546	-0.082682	-0.391357	0.253418	-0.008789
654.0	3.618187	-2.2657	8.870375	0.01342	-0.036444	-0.086686	-0.400146	0.257568	-0.000244
655.0	3.621234	-2.233958	8.837105	0.013965	-0.045884	-0.084866	-0.397949	0.257568	-0.002441
656.0	3.693403	-2.178728	8.873628	0.019758	-0.051327	-0.088673	-0.397949	0.257568	-0.004639
657.0	3.703604	-2.222365	8.867553	0.015224	-0.051599	-0.089106	-0.395752	0.253418	-0.006836
658.0	3.692781	-2.217579	8.848947	0.012509	-0.056438	-0.090451	-0.400146	0.257568	-0.000244
659.0	3.682856	-2.216141	8.864645	0.010095	-0.053007	-0.092847	-0.402344	0.255371	-0.000244
660.0	3.676085	-2.260071	8.841373	0.01014	-0.058864	-0.094221	-0.4021	0.251221	-0.000244
661.0	3.648559	-2.254881	8.805623	0.018079	-0.066435	-0.101363	-0.395996	0.257568	-0.002441
662.0	3.657169	-2.231639	8.874345	0.017141	-0.080561	-0.103735	-0.395508	0.251221	0.001953
663.0	3.586169	-2.28303	8.885774	0.024954	-0.103392	-0.112452	-0.4021	0.246826	-0.000244
664.0	3.532525	-2.30642	8.881332	0.028619	-0.131046	-0.126589	-0.400391	0.263916	-0.000244
665.0	3.529321	-2.27431	8.86221	0.039023	-0.17114	-0.14515	-0.399902	0.250977	0.006348
666.0	3.423406	-2.182838	8.919747	0.057823	-0.224857	-0.165357	-0.4021	0.253174	0.006348
667.0	3.372405	-2.042078	9.030431	0.053488	-0.293377	-0.174825	-0.410645	0.248779	0.006348
668.0	3.400234	-1.95817	9.026801	0.063436	-0.386066	-0.178152	-0.404053	0.246582	0.010498
669.0	3.541484	-1.867268	9.050393	0.062849	-0.49643	-0.172636	-0.404297	0.248779	0.006348
670.0	3.554158	-1.984892	9.039885	0.017614	-0.589784	-0.174213	-0.406494	0.25293	0.014893
671.0	3.543152	-2.10807	9.02667	0.000852	-0.715216	-0.206827	-0.410645	0.244385	0.019287
672.0	3.530456	-2.19694	9.134519	-0.048279	-0.837422	-0.245068	-0.412598	0.242188	0.019287
673.0	3.327374	-2.394223	9.103942	-0.090107	-0.986768	-0.305057	-0.4104	0.242188	0.019287
674.0	3.504291	-2.341461	9.132971	-0.097165	-1.195052	-0.390902	-0.416992	0.244141	0.030029
675.0	3.448174	-2.446516	9.230947	-0.195404	-1.396069	-0.490654	-0.416748	0.237793	0.032227
676.0	3.218216	-2.692155	9.227257	-0.262711	-1.684661	-0.608625	-0.42334	0.239746	0.043213
677.0	3.241063	-2.790571	9.416256	-0.284626	-2.04434	-0.761954	-0.420898	0.233154	0.047607
678.0	3.404931	-2.804633	9.588157	-0.360421	-2.379237	-0.938923	-0.429688	0.23291	0.05835
679.0	3.487585	-3.053882	9.727176	-0.386765	-2.687036	-1.161342	-0.43335	0.217773	0.075684
680.0	3.357298	-3.366522	10.173719	-0.249329	-2.930878	-1.478657	-0.437744	0.217285	0.095215
681.0	3.153708	-3.725616	10.178891	-0.110529	-3.1803	-1.757184	-0.443604	0.204346	0.104004
682.0	2.303013	-4.587395	9.662432	0.559748	-3.74041	-1.927804	-0.441162	0.197754	0.116943
683.0	2.806496	-3.164782	9.221156	1.391989	-4.689696	-2.04488	-0.453613	0.182373	0.140869
684.0	3.881578	0.114203	9.47877	1.450436	-5.625761	-2.122425	-0.45752	0.171143	0.169189
685.0	6.796238	-2.57374	11.221398	0.558863	-6.158012	-2.260301	-0.457031	0.159912	0.195313
686.0	11.074903	-5.781837	12.677106	1.143057	-6.501046	-2.507723	-0.454346	0.150879	0.227783
687.0	16.321867	-7.551077	15.233362	0.918347	-6.211391	-2.714918	-0.449219	0.131348	0.249512
688.0	14.848327	-7.423648	16.214703	1.570796	-5.745907	-2.988585	-0.44873	0.122559	0.27124
689.0	13.602511	-7.939014	19.732798	1.547402	-5.023878	-2.578888	-0.452148	0.096436	0.290771
690.0	13.493955	-6.041396	14.001213	1.605525	-4.833067	-2.16771	-0.447266	0.085449	0.306152
691.0	8.224247	-0.972595	8.735166	1.515089	-4.730791	-1.804397	-0.442383	0.068115	0.319336
692.0	4.189513	-8.800711	18.94045	0.316583	-3.536206	-1.06664	-0.446289	0.057129	0.330078
693.0	8.906698	-16.410463	21.024062	1.544204	-2.163525	-0.78839	-0.45874	0.041992	0.332275
694.0	0.065519	-5.842404	22.527267	1.273758	-0.61091	0.230755	-0.464844	0.033447	0.330078
695.0	-1.718415	-9.125773	12.180622	-0.081733	0.449756	0.657879	-0.479736	0.024902	0.319336
696.0	-4.748771	-7.061112	8.724492	0.879671	0.13802	0.750813	-0.496826	0.018311	0.32373
697.0	-3.439441	-2.060077	9.329756	1.072063	0.199309	0.689084	-0.509766	0.013916	0.319336
698.0	-3.037104	-1.201432	9.368449	0.28134	0.675846	0.59006	-0.526855	0.003174	0.319336
699.0	-2.522279	-2.198648	9.847048	0.006341	1.024256	0.496689	-0.546143	-0.007568	0.306396
700.0	-2.027887	-3.435825	10.279805	-0.085485	1.438534	0.434714	-0.571777	-0.018311	0.297852
701.0	-1.597818	-4.091939	10.497484	0.076872	1.801782	0.450296	-0.604004	-0.029053	0.286865
702.0	-0.595892	-4.081491	11.051641	0.109269	2.214902	0.554002	-0.641113	-0.031006	0.265137
703.0	0.138483	-4.485408	10.961905	0.052292	2.662376	0.724522	-0.679932	-0.037354	0.243408
704.0	0.750642	-4.728206	10.661005	0.021227	3.061525	0.918295	-0.719482	-0.032715	0.20874
705.0	1.245356	-4.615449	10.190051	0.038254	3.392294	1.10091	-0.77002	-0.023682	0.163086
706.0	1.575846	-4.25468	9.702734	0.018219	3.64743	1.255098	-0.810059	-0.005615	0.102295
707.0	1.989449	-3.845894	9.219941	-0.042921	3.823888	1.3771	-0.8479	0.012451	0.015381
708.0	2.419034	-3.807291	9.154135	-0.158011	3.964668	1.459368	-0.854004	0.054443	-0.067139
709.0	2.982823	-3.800608	9.44096	-0.205772	4.04616	1.511191	-0.844238	0.079346	-0.15625
710.0	3.560014	-3.720973	9.935367	-0.296979	4.157653	1.531915	-0.802246	0.113037	-0.236572
711.0	4.215004	-3.77454	10.321263	-0.369774	4.246705	1.534575	-0.741943	0.126953	-0.305908
712.0	4.967384	-3.743526	10.709477	-0.485588	4.352447	1.51328	-0.666016	0.129883	-0.342529
713.0	5.406526	-4.01714	10.847129	-0.599345	4.461353	1.483917	-0.575928	0.109131	-0.368408
714.0	5.82597	-3.859685	11.562508	-0.671188	4.4934	1.440781	-0.509277	0.077148	-0.365967
715.0	6.244413	-4.397732	11.847529	-0.926404	4.563812	1.42315	-0.461914	0.031982	-0.348145
716.0	6.319069	-5.139847	12.160147	-1.06398	4.53812	1.423887	-0.458496	0.001709	-0.332764
717.0	6.659431	-5.137504	12.189576	-1.160905	4.449991	1.44225	-0.452881	-0.028564	-0.332764
718.0	6.911146	-4.793415	12.433024	-1.334557	4.30328	1.452074	-0.46582	-0.034912	-0.334961
719.0	8.195561	-4.337578	13.681697	-1.504717	4.073563	1.427766	-0.476318	-0.043213	-0.356445
720.0	9.80467	-3.764059	15.012307	-1.746876	3.975545	1.357728	-0.483398	-0.030029	-0.378174
721.0	11.017182	-3.162045	15.595599	-1.971249	3.912109	1.251443	-0.483887	-0.019043	-0.413086
722.0	12.286779	-2.417524	16.160962	-2.11498	3.819258	1.101564	-0.486816	-0.001465	-0.437012
723.0	13.883342	-1.018446	16.183762	-2.206421	3.760785	0.92908	-0.474854	0.020752	-0.473877
724.0	15.336174	3.124253	16.317236	-2.025559	3.606815	0.738464	-0.458496	0.046875	-0.502197
725.0	18.7662	5.270297	17.823585	-2.430007	3.763645	0.315798	-0.428955	0.071045	-0.530518
726.0	20.696692	3.845485	16.948138	-2.678547	4.19378	-0.147755	-0.40625	0.099609	-0.567383
727.0	20.94059	2.776461	12.761323	-2.007642	4.16506	-0.481935	-0.363525	0.117432	-0.593262
728.0	24.780291	3.822596	12.663003	-1.401853	3.962334	-0.408903	-0.32251	0.128418	-0.606445
729.0	22.40788	1.092386	5.196397	-2.399472	4.337369	-0.134679	-0.279785	0.148193	-0.61499
730.0	21.953194	-0.082944	-3.592757	-1.09533	3.321518	0.166364	-0.240479	0.148193	-0.610596
731.0	24.646828	5.495315	-5.369918	0.058186	1.72945	0.522873	-0.220703	0.144043	-0.610596
732.0	29.107807	7.791116	-10.649781	-0.52965	0.60178	0.765875	-0.201416	0.148193	-0.599854
733.0	30.052655	6.675067	-16.215208	-0.457714	0.302512	0.960586	-0.186035	0.148193	-0.595459
734.0	24.673807	7.208489	-12.759684	0.60868	-0.054625	1.08519	-0.186035	0.145996	-0.58667
735.0	19.152313	3.228712	-8.418147	0.662422	-1.293958	0.499373	-0.185791	0.139404	-0.58667
736.0	0.282549	12.493379	-10.578348	3.828808	-3.583164	0.206313	-0.200439	0.124268	-0.57373
737.0	-4.541365	10.741971	46.057788	1.116079	-3.26148	-0.489171	-0.206787	0.121826	-0.564941
738.0	-0.057722	9.100926	0.003261	-0.214415	-3.582316	-1.848686	-0.226074	0.115234	-0.547607
739.0	16.342567	12.964985	16.751521	2.96347	-5.737827	-1.583526	-0.240967	0.108643	-0.541016
740.0	17.481517	2.11887	27.66288	-2.668355	-1.459068	-1.364905	-0.243896	0.125732	-0.539063
741.0	8.066521	-13.782461	11.409557	-1.231579	-1.364338	-1.265556	-0.250488	0.125488	-0.530273
742.0	7.464091	-11.257879	13.250933	1.225139	-2.547935	-0.638313	-0.265381	0.121094	-0.519531
743.0	7.730657	-6.663605	13.893629	1.094081	-1.926908	-0.358796	-0.267334	0.112305	-0.515137
744.0	6.434227	-2.849138	12.050455	1.78516	-1.628074	-0.35421	-0.269287	0.105957	-0.512939
745.0	4.643376	-6.804997	9.486199	0.811204	-0.909222	-0.350504	-0.270996	0.095215	-0.512939
746.0	3.149461	-3.958288	9.26675	2.120975	-1.458425	-0.405256	-0.2771	0.084229	-0.499756
747.0	7.936548	0.243958	13.407493	1.921528	-1.236475	-0.435636	-0.276855	0.080078	-0.508545
748.0	6.989672	0.045483	11.790809	0.657813	-0.235678	-0.352163	-0.281006	0.073486	-0.510742
749.0	4.236384	-1.748113	10.209764	0.406361	-0.163097	-0.234931	-0.272217	0.069336	-0.508545
750.0	4.137847	-1.459438	9.832886	0.531882	-0.332951	-0.15725	-0.278809	0.073486	-0.499756
751.0	4.408756	-1.147708	9.64019	0.262435	-0.19395	-0.102897	-0.276367	0.064941	-0.506348
752.0	3.816993	-1.790666	9.350108	0.11642	-0.115577	-0.051	-0.282959	0.069092	-0.499756
753.0	3.635225	-2.068893	9.152506	0.135401	-0.113371	-0.016555	-0.280762	0.064941	-0.506348
754.0	3.638749	-2.211642	9.185426	0.071469	-0.063782	0.000418	-0.280762	0.069092	-0.506348
755.0	3.467308	-2.33322	9.079527	0.060419	-0.037844	0.00235	-0.276367	0.067139	-0.506348
756.0	3.556933	-2.313207	9.031306	0.07887	-0.021307	-0.000883	-0.278564	0.066895	-0.499756
757.0	3.485765	-2.457639	8.996187	0.056355	0.001707	-0.003815	-0.282715	0.064941	-0.501953
758.0	3.45479	-2.474477	8.959684	0.080713	-0.007975	-0.011592	-0.278564	0.066895	-0.497559
759.0	3.423305	-2.494484	8.957673	0.067795	0.00318	-0.022319	-0.273926	0.062744	-0.501953
760.0	3.298325	-2.616165	8.907597	0.076733	0.003406	-0.043361	-0.284912	0.062744	-0.501953
761.0	3.289324	-2.48178	8.888971	0.103603	-0.011692	-0.058159	-0.27832	0.0625	-0.495361
762.0	3.294383	-2.494819	8.888377	0.099371	-0.015099	-0.069412	-0.280518	0.064697	-0.495361
763.0	3.3619	-2.432228	8.931772	0.110585	-0.03506	-0.076947	-0.280273	0.05835	-0.499756
764.0	3.49512	-2.310485	8.947644	0.109033	-0.037717	-0.071765	-0.278564	0.066895	-0.499756
765.0	3.43151	-2.306117	8.946479	0.078862	-0.04122	-0.065633	-0.280518	0.060547	-0.499756
766.0	3.410479	-2.36882	8.903692	0.077261	-0.050533	-0.069973	-0.278564	0.064941	-0.501953
767.0	3.452782	-2.383937	8.936546	0.081196	-0.050234	-0.071546	-0.280518	0.0625	-0.493164
768.0	3.462418	-2.390583	8.865698	0.089385	-0.047178	-0.07707	-0.282471	0.053955	-0.497559
769.0	3.477831	-2.307397	8.891551	0.092409	-0.03862	-0.083844	-0.276123	0.05835	-0.501953
770.0	3.494863	-2.247827	8.91515	0.098117	-0.030138	-0.082378	-0.287109	0.0625	-0.495361
771.0	3.525367	-2.164524	8.958981	0.085954	-0.01953	-0.077162	-0.276123	0.05835	-0.499756
772.0	3.488739	-2.114044	8.998327	0.060152	-0.015835	-0.067835	-0.280273	0.056152	-0.495361
773.0	3.497636	-2.147693	8.925403	0.060003	-0.019603	-0.059729	-0.286865	0.054199	-0.50415
774.0	3.419314	-2.200051	8.936015	0.038822	-0.016716	-0.051115	-0.284668	0.05835	-0.497559
775.0	3.432361	-2.29101	8.92656	0.046151	-0.024102	-0.060117	-0.284668	0.053955	-0.495361
776.0	3.348326	-2.436988	8.875469	0.037632	-0.01856	-0.071687	-0.284912	0.0625	-0.493164
777.0	3.588406	-2.179513	8.852208	0.098488	-0.046872	-0.071378	-0.282471	0.056152	-0.493164
778.0	3.498972	-2.151568	9.044097	0.011729	-0.00892	-0.067973	-0.280273	0.056152	-0.493164
779.0	3.246132	-2.302057	8.851477	0.064399	-0.051677	-0.071757	-0.284424	0.049805	-0.499756
780.0	3.490657	-2.110931	8.993477	0.040385	-0.05925	-0.072769	-0.284668	0.056152	-0.490967
781.0	3.403701	-2.181232	8.914011	0.04122	-0.071997	-0.074622	-0.278076	0.053955	-0.499756
782.0	3.409712	-2.1543	8.948787	0.039768	-0.093139	-0.074605	-0.282227	0.051758	-0.493164
783.0	3.374064	-2.203643	8.95764	0.038406	-0.109435	-0.081494	-0.284424	0.051758	-0.493164
784.0	3.395974	-2.123735	8.979084	0.058444	-0.134599	-0.091463	-0.284424	0.049805	-0.497559
785.0	3.405825	-2.067136	8.979932	0.054901	-0.159327	-0.096509	-0.282471	0.053955	-0.493164
786.0	3.422931	-2.062084	9.009653	0.054746	-0.179068	-0.105139	-0.286621	0.049561	-0.493164
787.0	3.465188	-2.097786	8.982671	0.062129	-0.206406	-0.11587	-0.288574	0.047363	-0.493164
788.0	3.498888	-2.035915	8.964084	0.07045	-0.229259	-0.117527	-0.286621	0.053955	-0.493164
789.0	3.450264	-1.845451	9.060716	0.088243	-0.269077	-0.115304	-0.284668	0.056152	-0.48877
790.0	3.211964	-2.087663	9.047065	0.044504	-0.305257	-0.121528	-0.288818	0.049561	-0.490967
791.0	3.349966	-2.064244	9.037375	0.123714	-0.41548	-0.120685	-0.292969	0.04541	-0.493164
792.0	3.50241	-1.944632	9.084705	0.088405	-0.480726	-0.125074	-0.295166	0.047363	-0.486816
793.0	3.385286	-2.12899	9.104878	0.063405	-0.576771	-0.144947	-0.294922	0.042969	-0.486572
794.0	3.397196	-2.128981	9.136435	0.052099	-0.710607	-0.181984	-0.299316	0.040771	-0.482422
795.0	3.297846	-2.098088	9.187419	0.007751	-0.848794	-0.225027	-0.299316	0.042969	-0.480225
796.0	3.506193	-1.886905	9.23834	-0.033223	-1.039349	-0.28006	-0.307861	0.040771	-0.482422
797.0	3.327185	-2.052828	9.265952	-0.199851	-1.226236	-0.340183	-0.310059	0.038574	-0.473633
798.0	3.097925	-2.273831	9.375986	-0.303339	-1.51975	-0.43639	-0.31665	0.042725	-0.465088
799.0	2.879803	-2.433733	9.472806	-0.421487	-1.877543	-0.554036	-0.321045	0.04248	-0.460693
800.0	2.672765	-2.873077	9.699034	-0.529946	-2.311454	-0.707706	-0.338379	0.040283	-0.449951
801.0	2.894513	-3.444479	9.544094	-0.503101	-2.775484	-0.926785	-0.342529	0.037842	-0.441162
802.0	3.155179	-3.770719	10.11915	-0.281	-3.131258	-1.283254	-0.357666	0.033447	-0.423828
803.0	3.024694	-3.893398	10.765708	0.038792	-3.282877	-1.752664	-0.365723	0.018066	-0.413086
804.0	2.033713	-4.036587	10.801468	0.214271	-3.684344	-2.055142	-0.374023	0.009277	-0.397705
805.0	1.002805	-4.869291	9.91871	1.100983	-4.492077	-2.123622	-0.38623	-0.010498	-0.375977
806.0	1.829491	-2.374136	10.239163	2.057184	-6.006592	-2.279925	-0.407471	-0.021729	-0.3479
807.0	3.539621	0.160826	10.985832	1.664475	-7.089021	-2.474089	-0.417236	-0.052246	-0.315186
808.0	12.775415	-7.154969	13.219924	0.860694	-7.444721	-3.209466	-0.42749	-0.067871	-0.282715
809.0	14.982853	-8.243577	19.457284	1.445687	-7.154918	-3.351427	-0.437012	-0.100586	-0.245605
810.0	20.448699	-8.980156	18.316712	2.025004	-6.919334	-3.573548	-0.438232	-0.122559	-0.206543
811.0	15.149839	-9.444847	24.477589	2.250496	-5.86163	-3.047647	-0.43042	-0.155273	-0.176025
812.0	14.956401	-8.37868	17.435468	2.237296	-5.647827	-2.476989	-0.42749	-0.173096	-0.134766
813.0	8.02778	-2.408949	10.285318	1.843175	-5.300251	-1.729464	-0.419922	-0.192871	-0.11084
814.0	3.96094	-10.512261	25.750798	0.969334	-3.756564	-1.12334	-0.399902	-0.206055	-0.084717
815.0	10.603536	-11.400868	24.500451	2.286494	-1.481629	-0.900942	-0.388184	-0.227539	-0.069336
816.0	-1.436505	-12.468406	19.669406	-0.901888	0.184892	0.30494	-0.376953	-0.236084	-0.067139
817.0	-5.988769	-12.641115	9.5457	0.819436	0.08644	0.746926	-0.359131	-0.242676	-0.05835
818.0	-4.1908	-6.324285	8.980514	1.690925	-0.165106	0.954654	-0.349854	-0.255859	-0.041016
819.0	-4.528286	-2.41655	8.554957	0.971524	0.280728	0.985886	-0.330078	-0.260254	-0.032227
820.0	-4.03395	-2.149774	8.713998	0.363116	0.631114	0.938744	-0.316895	-0.266846	-0.012695
821.0	-3.386529	-3.038133	9.159164	0.024284	1.056741	0.859521	-0.296631	-0.281982	-0.008301
822.0	-2.839051	-3.719622	9.422539	0.022033	1.46945	0.805567	-0.289551	-0.292969	0.011475
823.0	-2.158313	-3.474398	9.610947	0.055764	1.904929	0.806758	-0.271484	-0.312256	0.024414
824.0	-1.582128	-3.342916	9.57031	-0.03054	2.338051	0.873214	-0.270752	-0.327637	0.046143
825.0	-0.696253	-3.729112	9.72899	-0.138976	2.739766	0.987866	-0.272217	-0.347412	0.068115
826.0	0.270877	-4.193845	9.785628	-0.175453	3.128774	1.134248	-0.284912	-0.356445	0.096191
827.0	1.101401	-4.539855	9.673687	-0.138352	3.476876	1.298589	-0.31958	-0.356934	0.11792
828.0	1.686543	-4.360599	9.217391	-0.088102	3.781289	1.469559	-0.363281	-0.352783	0.128662
829.0	2.167167	-4.228633	8.763808	-0.090406	4.006118	1.611065	-0.401123	-0.329346	0.124023
830.0	2.737744	-4.169716	8.772982	-0.12402	4.160817	1.739064	-0.445801	-0.301514	0.121582
831.0	3.344458	-4.33842	9.04586	-0.163415	4.267659	1.849282	-0.464355	-0.273193	0.102051
832.0	4.262269	-4.286981	9.944518	-0.140799	4.366268	1.939128	-0.487061	-0.247314	0.091064
833.0	5.518695	-4.216192	10.947497	-0.218315	4.521035	1.984883	-0.505615	-0.217285	0.088623
834.0	6.827335	-5.00722	11.224328	-0.325508	4.750341	2.016438	-0.539551	-0.185303	0.088379
835.0	7.192977	-4.422755	11.862307	-0.159667	4.864389	2.038003	-0.584961	-0.140137	0.088135
836.0	8.020487	-4.169129	12.551471	-0.50977	5.056744	1.9927	-0.645752	-0.088867	0.085449
837.0	7.546342	-4.907939	12.090637	-0.596491	5.102062	1.965584	-0.715576	-0.024414	0.080811
838.0	9.018218	-3.117777	14.075015	-0.663465	4.979866	1.829096	-0.810059	0.052979	0.049805
839.0	9.085268	-4.03876	13.197527	-1.334836	5.165015	1.611669	-0.894287	0.141602	0.010254
840.0	9.622655	-3.559696	13.149329	-1.348631	4.801088	1.35852	-0.972412	0.243164	-0.057617
841.0	11.98371	-2.837463	14.560112	-1.790102	4.541074	1.057495	-1.004883	0.351807	-0.134033
842.0	15.348931	-3.519608	17.431135	-2.289989	4.430028	0.749119	-1.021484	0.43457	-0.212402
843.0	18.151232	-4.242817	17.876542	-2.783918	4.612153	0.522577	-1.003906	0.48291	-0.297119
844.0	19.061131	-5.047656	15.465697	-3.158759	4.750028	0.446478	-0.974609	0.511963	-0.368896
845.0	19.639929	-4.412437	13.264041	-3.086537	4.555134	0.473166	-0.937988	0.515381	-0.44043
846.0	20.909781	-1.237086	12.02365	-2.955806	4.265647	0.528905	-0.901367	0.522705	-0.488037
847.0	21.287762	7.4161	11.067129	-2.698572	3.767977	0.638263	-0.858154	0.530029	-0.540039
848.0	25.403025	9.777883	11.791279	-3.697738	3.887858	0.321196	-0.817139	0.537109	-0.581055
849.0	24.20215	5.013984	8.24455	-3.841895	4.372523	-0.023925	-0.776123	0.542236	-0.624512
850.0	23.018197	1.288417	3.99716	-1.856859	3.515066	-0.126754	-0.72583	0.531982	-0.656738
851.0	24.381326	3.963733	-0.184359	-0.27677	2.479653	0.075333	-0.694824	0.521729	-0.687012
852.0	26.105531	7.595886	-6.385861	-0.092855	1.356914	0.308275	-0.668701	0.517822	-0.697754
853.0	27.896249	9.028313	-12.76819	-0.476168	0.439253	0.389532	-0.655762	0.52002	-0.697754
854.0	26.639873	7.288993	-15.328368	-0.914375	0.381952	0.421928	-0.654053	0.537109	-0.691406
855.0	22.456537	4.753333	-7.662595	-0.492632	-0.044194	0.55409	-0.654785	0.554199	-0.682861
856.0	21.002784	2.367695	0.158857	0.071984	-1.534514	0.732041	-0.674805	0.568848	-0.658936
857.0	14.067601	-8.264296	2.680689	-0.993793	-0.921203	0.917083	-0.688965	0.596436	-0.641846
858.0	-17.936123	-6.306962	20.427725	2.141513	-0.87643	0.977423	-0.710938	0.598389	-0.631104
859.0	-19.905836	0.064	28.776053	2.582928	-3.563284	-0.118788	-0.738525	0.583008	-0.607178
860.0	-5.167836	20.446811	-17.300638	6.189485	-6.145746	-1.007438	-0.798096	0.552246	-0.583252
861.0	26.285466	19.891717	28.330213	1.33232	-7.439382	-0.522187	-0.829346	0.568848	-0.553223
862.0	15.187472	7.175431	24.080412	-2.702621	0.317915	-1.129471	-0.849609	0.588135	-0.540283
863.0	5.626609	-2.109494	12.850607	0.426211	-2.300745	-1.347029	-0.875488	0.583496	-0.533691
864.0	8.733207	-7.295523	12.735033	-0.121276	-1.937593	-0.924446	-0.895508	0.593994	-0.522949
865.0	6.330772	-11.478649	12.415505	0.150429	-1.547046	-0.55155	-0.908447	0.593994	-0.516602
866.0	8.91993	-6.248649	13.986804	2.418807	-1.92625	-0.462657	-0.927734	0.583008	-0.516602
867.0	5.680025	-2.163181	10.346584	1.142474	-0.998213	-0.370469	-0.929688	0.580811	-0.507813
868.0	3.909332	-4.787336	9.864422	1.309715	-0.692637	-0.399564	-0.94043	0.57666	-0.518555
869.0	6.135729	-3.41096	10.746342	1.860098	-0.970208	-0.390152	-0.946289	0.55957	-0.525146
870.0	5.164647	-2.101968	10.417076	1.209146	-0.323172	-0.375996	-0.955322	0.563721	-0.522949
871.0	3.954731	-2.154444	10.363215	1.127289	-0.421113	-0.330416	-0.952637	0.552979	-0.527344
872.0	4.781122	-1.651914	10.621039	1.01339	-0.390989	-0.260763	-0.967773	0.548584	-0.520752
873.0	4.282079	-1.546537	10.047624	0.599618	-0.201579	-0.201286	-0.965332	0.544189	-0.520752
874.0	3.850847	-2.130596	9.573504	0.454447	-0.186701	-0.141798	-0.969482	0.535645	-0.524902
875.0	3.811319	-2.223377	9.486768	0.423644	-0.254259	-0.084343	-0.973877	0.540039	-0.529297
876.0	3.732615	-2.125732	9.351487	0.286222	-0.199666	-0.053494	-0.974121	0.542236	-0.525146
877.0	3.527484	-2.543216	9.052665	0.168385	-0.152024	-0.049364	-0.976074	0.537842	-0.522949
878.0	3.492892	-2.524161	9.032972	0.208775	-0.195503	-0.03743	-0.980469	0.537842	-0.525146
879.0	3.641638	-2.340187	9.120962	0.154781	-0.162891	-0.032793	-0.980225	0.535645	-0.522949
880.0	3.420614	-2.522278	9.024628	0.071831	-0.115752	-0.035575	-0.980469	0.540039	-0.522949
881.0	3.335914	-2.703416	8.931619	0.087872	-0.12135	-0.053977	-0.982422	0.533447	-0.522949
882.0	3.334317	-2.76163	8.870418	0.08064	-0.122951	-0.076775	-0.980225	0.535645	-0.520752
883.0	3.33128	-2.717878	8.785012	0.103042	-0.13633	-0.099302	-0.982422	0.533447	-0.522949
884.0	3.403765	-2.372556	8.922086	0.136228	-0.15951	-0.10334	-0.982422	0.535645	-0.520752
885.0	3.518042	-2.188375	8.972291	0.110505	-0.164472	-0.094254	-0.984375	0.53125	-0.522949
886.0	3.557365	-2.347202	8.969189	0.092094	-0.156255	-0.086387	-0.986572	0.53125	-0.522949
887.0	3.684432	-2.512511	8.81016	0.103683	-0.156197	-0.079462	-0.984375	0.529297	-0.524902
888.0	3.580551	-2.555467	8.818543	0.087116	-0.141297	-0.089564	-0.982178	0.529053	-0.518555
889.0	3.610423	-2.467946	8.805936	0.117837	-0.150427	-0.09674	-0.986572	0.529297	-0.522949
890.0	3.723086	-2.311563	8.886917	0.108237	-0.128638	-0.097749	-0.98877	0.53125	-0.520752
891.0	3.73564	-2.292604	8.816123	0.093856	-0.106342	-0.086251	-0.99292	0.522705	-0.518555
892.0	3.693604	-2.264192	8.868202	0.084263	-0.090578	-0.081669	-0.99292	0.524902	-0.518555
893.0	3.686555	-2.277507	8.847403	0.076268	-0.078261	-0.076715	-0.992676	0.518311	-0.51416
894.0	3.661868	-2.317952	8.842029	0.074611	-0.059611	-0.077657	-0.990479	0.520508	-0.518555
895.0	3.583494	-2.341537	8.890912	0.06558	-0.051917	-0.074791	-0.994873	0.516113	-0.516357
896.0	3.764215	-2.357566	8.714244	0.090236	-0.063745	-0.077286	-0.994873	0.518311	-0.516357
897.0	3.840866	-1.951146	8.974843	0.080705	-0.056681	-0.057859	-0.996826	0.516113	-0.516357
898.0	3.499114	-2.341043	8.853947	0.016612	-0.01117	-0.061139	-1.005859	0.518311	-0.520752
899.0	3.701741	-2.109683	8.907395	0.0901	-0.07046	-0.055242	-0.99707	0.518311	-0.518555
900.0	3.676678	-2.18052	8.934434	0.012937	-0.038504	-0.054735	-0.999268	0.518311	-0.516357
901.0	3.569239	-2.350261	8.901076	0.034289	-0.064431	-0.058698	-1.001465	0.518311	-0.518555
902.0	3.591623	-2.294608	8.886391	0.021142	-0.069282	-0.069772	-1.005859	0.520508	-0.518555
903.0	3.533676	-2.341464	8.880093	0.027818	-0.089661	-0.082637	-1.003418	0.51416	-0.522705
904.0	3.574091	-2.216133	8.921925	0.020967	-0.11775	-0.092453	-0.999023	0.513916	-0.516357
905.0	3.537919	-2.243021	8.967254	-0.000494	-0.144109	-0.103109	-1.001465	0.518311	-0.520752
906.0	3.572092	-2.237245	8.943986	-0.009405	-0.184007	-0.114793	-1.01001	0.516113	-0.51416
907.0	3.463435	-2.068706	8.935589	-0.018807	-0.218098	-0.12724	-1.003418	0.511719	-0.516357
908.0	3.493927	-2.1876	8.915893	-0.024764	-0.267643	-0.131105	-1.013916	0.507324	-0.507568
909.0	3.455927	-2.213082	8.903718	-0.023186	-0.334709	-0.130537	-1.005127	0.503174	-0.507568
910.0	3.35979	-2.317569	8.918874	-0.011943	-0.402247	-0.142328	-1.01416	0.509521	-0.503174
911.0	3.437054	-2.285591	8.904997	0.025971	-0.508482	-0.162178	-1.018066	0.500732	-0.500977
912.0	3.536855	-2.158901	8.947103	-0.003616	-0.59598	-0.177107	-1.020264	0.500732	-0.499023
913.0	3.569519	-2.252475	8.916279	-0.022655	-0.692496	-0.201575	-1.026611	0.498535	-0.494629
914.0	3.574365	-2.212833	8.998961	-0.053278	-0.802805	-0.234386	-1.026611	0.500488	-0.479492
915.0	3.589752	-2.127108	9.081299	-0.100123	-0.942863	-0.272789	-1.032959	0.493896	-0.479492
916.0	3.450948	-2.328909	9.160165	-0.219478	-1.133778	-0.319349	-1.039551	0.493652	-0.457764
917.0	3.379069	-2.343545	9.264305	-0.312723	-1.404595	-0.415933	-1.045654	0.48291	-0.453369
918.0	3.147015	-2.354466	9.553541	-0.522661	-1.693046	-0.531823	-1.052246	0.486816	-0.436035
919.0	3.149284	-2.648859	9.439042	-0.707576	-2.084568	-0.689529	-1.060547	0.47583	-0.412109
920.0	3.097551	-3.356839	9.750769	-0.810607	-2.469534	-0.927402	-1.072998	0.4646	-0.384033
921.0	3.931142	-4.144882	10.133543	-0.551925	-2.720758	-1.332017	-1.083252	0.447021	-0.360107
922.0	2.155705	-4.105803	10.394781	-0.191023	-2.896934	-1.744465	-1.088623	0.420898	-0.333984
923.0	1.208315	-4.205854	10.285723	0.231562	-3.568102	-2.103069	-1.10498	0.392334	-0.305664
924.0	0.984773	-3.852657	10.748221	0.522497	-4.455258	-2.294086	-1.121094	0.361572	-0.26001
925.0	2.317565	-4.240936	10.006666	0.943354	-5.721072	-2.394805	-1.130615	0.328613	-0.209961
926.0	4.475223	-1.049246	10.246241	1.649647	-7.220002	-2.506043	-1.141846	0.286621	-0.140381
927.0	10.174091	-3.236369	13.886703	0.50212	-7.607335	-3.1386	-1.150879	0.245117	-0.083984
928.0	12.71096	-8.101839	17.82999	1.027526	-7.549912	-3.006775	-1.151123	0.196533	-0.005615
929.0	19.294786	-7.613214	16.389518	1.489103	-7.57726	-3.242873	-1.129639	0.153076	0.048828
930.0	16.855247	-5.743993	24.159395	1.879003	-6.319532	-2.86945	-1.104004	0.111572	0.09668
931.0	12.362143	-8.653661	17.968581	1.893713	-5.710425	-2.036806	-1.065674	0.078857	0.131592
932.0	11.499531	-2.461909	10.167486	2.032667	-5.695092	-1.682313	-1.02124	0.054932	0.168701
933.0	4.654903	-5.246957	23.202341	0.427896	-3.448624	-0.96735	-0.989746	0.033447	0.181885
934.0	7.144108	-10.892445	23.756145	1.891831	-3.216277	-1.573406	-0.947754	0.016357	0.182129
935.0	-0.026976	-3.711983	26.650588	0.313608	-0.246058	-0.968903	-0.919189	0.006104	0.15625
936.0	-3.170551	-12.136335	12.616056	-1.070697	0.492284	-0.504729	-0.892822	0.002197	0.132324
937.0	-6.657686	-10.094427	10.696187	0.527248	0.102728	-0.054657	-0.855957	0.004639	0.11499
938.0	-5.428237	-6.753363	9.897103	0.450423	0.496931	0.200334	-0.825928	0.013428	0.11084
939.0	-5.317221	-5.931093	9.412281	0.363617	0.690893	0.461415	-0.795898	0.024414	0.097656
940.0	-3.834211	-4.696107	10.505152	0.090969	1.078011	0.689423	-0.766113	0.039795	0.08252
941.0	-3.226735	-5.277785	10.576302	-0.20549	1.592487	0.867685	-0.742432	0.046631	0.071777
942.0	-2.206919	-4.799275	11.114953	-0.126913	1.997186	1.051104	-0.710205	0.057617	0.065186
943.0	-1.349572	-4.354448	11.351616	-0.2113	2.517021	1.18884	-0.688721	0.062256	0.050049
944.0	-0.219744	-3.85309	11.918367	-0.200239	2.977432	1.313057	-0.664551	0.058105	0.039307
945.0	0.945307	-3.439316	11.844708	-0.25993	3.494098	1.422905	-0.646729	0.047607	0.019775
946.0	1.59422	-3.210375	11.329421	-0.340026	3.976703	1.502177	-0.611328	0.031006	-0.001709
947.0	2.102255	-2.841939	10.6291	-0.322329	4.338516	1.543506	-0.58667	0.011963	-0.029785
948.0	2.602945	-2.461593	10.102202	-0.356899	4.620228	1.549833	-0.553223	-0.01123	-0.05127
949.0	2.961115	-2.255258	9.831765	-0.40307	4.805845	1.530288	-0.532471	-0.043213	-0.070557
950.0	3.608208	-2.226628	10.119542	-0.453362	4.923187	1.482379	-0.507324	-0.072998	-0.081055
951.0	4.538723	-2.27644	10.937229	-0.518921	5.047619	1.417803	-0.477539	-0.111572	-0.093994
952.0	5.633514	-2.806435	11.550353	-0.615842	5.204417	1.352746	-0.459229	-0.13501	-0.102539
953.0	6.134164	-3.089543	11.827162	-0.6335	5.355591	1.311347	-0.449219	-0.166992	-0.106689
954.0	6.795763	-2.630532	12.731693	-0.649953	5.424377	1.264434	-0.444336	-0.182129	-0.11084
955.0	7.260506	-2.570728	12.951077	-1.026768	5.522177	1.219394	-0.443604	-0.201416	-0.11499
956.0	7.51091	-3.317419	13.75016	-1.281334	5.51898	1.165521	-0.454346	-0.207764	-0.11499
957.0	8.089896	-3.612048	14.08088	-1.402546	5.448628	1.100028	-0.470947	-0.227051	-0.130127
958.0	8.151935	-2.581415	13.548017	-1.612906	5.240271	0.994347	-0.499268	-0.229248	-0.141113
959.0	9.533921	-1.785569	14.855585	-1.903229	4.839417	0.847157	-0.540527	-0.231201	-0.169189
960.0	13.087686	-1.980775	18.114903	-2.289678	4.591882	0.619176	-0.569092	-0.230469	-0.225586
961.0	15.52403	-2.98054	18.412741	-2.650104	4.722983	0.436829	-0.591309	-0.221191	-0.282227
962.0	16.736946	-3.846043	16.560547	-2.711091	4.61967	0.412625	-0.59668	-0.200928	-0.351563
963.0	18.826825	-3.126252	15.303909	-2.508735	4.33433	0.550351	-0.589111	-0.172119	-0.408203
964.0	20.867078	0.849897	15.195462	-2.1973	4.069798	0.732244	-0.576904	-0.149902	-0.462402
965.0	24.121818	3.335107	15.341533	-2.247093	4.016323	0.68057	-0.559082	-0.110596	-0.499268
966.0	26.017121	3.103195	12.289531	-2.086665	4.182204	0.553512	-0.529297	-0.090576	-0.53418
967.0	26.181651	2.696282	7.076881	-1.360309	3.884882	0.541557	-0.506348	-0.070801	-0.564453
968.0	26.12391	3.0446	1.036256	-0.644418	3.157548	0.646617	-0.496094	-0.053467	-0.573242
969.0	27.422196	5.856093	-5.515157	0.05579	2.033967	0.801593	-0.481201	-0.042236	-0.590576
970.0	31.235213	11.43744	-10.318954	0.653346	0.61921	0.853915	-0.477295	-0.035889	-0.588379
971.0	34.645646	12.796842	-15.703522	-0.069241	0.135558	0.617638	-0.475098	-0.031494	-0.590576
972.0	30.474583	10.276564	-18.770899	-0.113887	0.771689	0.36902	-0.473389	-0.022949	-0.594971
973.0	23.710472	9.88684	-6.458542	1.093569	0.12269	0.135981	-0.477539	-0.029297	-0.592773
974.0	17.290099	7.027366	-1.138624	0.999077	-1.040904	-0.330201	-0.474854	-0.040039	-0.590576
975.0	-14.75738	11.236664	21.33492	0.94379	-0.669917	-0.779871	-0.481201	-0.044678	-0.582031
976.0	-19.848709	1.773982	16.428327	-0.981083	-1.673541	-2.35777	-0.496338	-0.049072	-0.568848
977.0	1.404571	4.33733	-15.343669	1.706575	-6.82326	-2.498462	-0.538818	-0.073486	-0.531982
978.0	29.409344	-0.881017	34.610335	1.46951	-5.350296	-1.339901	-0.55835	-0.07373	-0.510498
979.0	12.105679	-4.052933	18.72931	-2.897734	-1.514057	-1.265665	-0.567139	-0.071777	-0.499512
980.0	8.385138	-7.999943	14.058345	1.060059	-2.990524	-1.160162	-0.579834	-0.076416	-0.47998
981.0	9.939846	-8.704135	13.54042	0.292963	-2.159844	-0.668727	-0.58374	-0.0896	-0.464844
982.0	6.777335	-8.595625	14.565207	1.303581	-2.319476	-0.481726	-0.594482	-0.093994	-0.451904
983.0	7.145647	-3.140614	11.570287	2.072331	-2.019973	-0.371895	-0.602783	-0.103027	-0.436523
984.0	6.745126	-2.567443	12.612903	1.613016	-1.61596	-0.295138	-0.611084	-0.11377	-0.427979
985.0	7.311319	-0.717072	12.388415	1.694684	-1.354039	-0.297645	-0.61499	-0.120361	-0.421387
986.0	7.603207	-0.905202	12.459499	0.93595	-0.621029	-0.269524	-0.617188	-0.118408	-0.414795
987.0	4.660591	-1.069267	10.590484	0.487937	-0.250465	-0.206444	-0.614502	-0.133545	-0.4104
988.0	4.748482	-1.942479	10.030248	0.432247	-0.269519	-0.144383	-0.621338	-0.126953	-0.410645
989.0	4.200039	-1.850877	9.557292	0.246325	-0.186957	-0.096103	-0.618896	-0.131348	-0.408447
990.0	4.014864	-2.376745	9.144145	0.128122	-0.168717	-0.07307	-0.616943	-0.126953	-0.408447
991.0	3.90782	-1.948864	9.253425	0.16307	-0.187869	-0.02691	-0.614746	-0.131348	-0.414795
992.0	3.902596	-1.860674	9.365982	0.013394	-0.108661	-0.01097	-0.621094	-0.133545	-0.404053
993.0	3.610572	-2.574175	8.943835	-0.033214	-0.076939	-0.003182	-0.616699	-0.131348	-0.4104
994.0	3.688897	-2.371314	9.009173	0.063939	-0.124456	-0.00104	-0.618896	-0.135742	-0.401855
995.0	3.689645	-2.416932	8.980721	-0.019767	-0.081312	-0.002742	-0.62085	-0.135742	-0.404053
996.0	3.645279	-2.613205	8.893036	0.012078	-0.083516	-0.004767	-0.621094	-0.129395	-0.404053
997.0	3.674972	-2.534298	8.903144	0.025563	-0.080395	-0.015728	-0.621094	-0.131348	-0.404053
998.0	3.549943	-2.666835	8.82396	0.021144	-0.061567	-0.031855	-0.618896	-0.131348	-0.404053
999.0	3.510122	-2.691229	8.79942	0.054697	-0.066107	-0.056834	-0.618896	-0.133545	-0.40625
1000.0	3.493144	-2.635188	8.788212	0.086213	-0.06656	-0.073866	-0.618652	-0.135742	-0.397461
1001.0	3.698451	-2.537702	8.771679	0.120231	-0.074274	-0.078206	-0.616699	-0.131592	-0.399658
1002.0	3.702556	-2.315112	8.873769	0.11369	-0.063514	-0.075213	-0.618896	-0.135742	-0.399658
1003.0	3.681198	-2.321651	8.800679	0.110171	-0.058602	-0.063148	-0.623047	-0.140137	-0.395264
1004.0	3.717025	-2.28547	8.840278	0.111599	-0.061154	-0.054488	-0.618896	-0.135742	-0.399658
1005.0	3.646446	-2.333136	8.812711	0.101354	-0.047304	-0.051093	-0.618408	-0.142334	-0.399658
1006.0	3.634095	-2.423119	8.79805	0.102771	-0.047064	-0.053985	-0.618652	-0.135986	-0.393066
1007.0	3.623961	-2.311572	8.778364	0.107465	-0.047708	-0.054703	-0.622803	-0.142334	-0.395264
1008.0	3.628034	-2.310684	8.84726	0.093473	-0.048049	-0.057369	-0.616455	-0.137939	-0.395264
1009.0	3.630064	-2.272006	8.816812	0.082173	-0.044593	-0.059787	-0.618408	-0.144531	-0.393066
1010.0	3.648205	-2.238934	8.837972	0.07219	-0.052962	-0.05381	-0.616455	-0.140137	-0.393066
1011.0	3.614698	-2.223131	8.907621	0.05372	-0.05516	-0.051251	-0.618652	-0.137939	-0.397461
1012.0	3.587525	-2.313601	8.839804	0.042374	-0.062407	-0.048181	-0.616211	-0.146729	-0.393066
1013.0	3.611475	-2.403083	8.825047	0.047812	-0.076776	-0.054349	-0.624756	-0.146729	-0.393066
1014.0	3.660186	-2.207503	8.781158	0.078177	-0.089599	-0.057518	-0.618408	-0.142334	-0.390869
1015.0	3.679014	-2.287295	8.872033	0.014308	-0.06178	-0.059206	-0.627197	-0.140137	-0.393066
1016.0	3.615727	-2.264595	8.836452	0.063264	-0.097091	-0.060044	-0.618408	-0.146729	-0.384521
1017.0	3.765861	-2.162501	8.866922	0.043256	-0.097102	-0.059086	-0.629395	-0.144531	-0.395264
1018.0	3.703455	-2.240754	8.833988	0.028052	-0.094164	-0.059937	-0.624756	-0.146729	-0.386719
1019.0	3.713354	-2.239907	8.86528	0.046323	-0.107083	-0.066513	-0.626953	-0.148682	-0.397461
1020.0	3.73367	-2.180751	8.852022	0.037396	-0.120998	-0.066914	-0.625	-0.144531	-0.386719
1021.0	3.711688	-2.185508	8.881323	0.03867	-0.124344	-0.068716	-0.620605	-0.146729	-0.384521
1022.0	3.767582	-2.120753	8.868276	0.035992	-0.141099	-0.068195	-0.624756	-0.151123	-0.386475
1023.0	3.752091	-2.145406	8.859129	0.019518	-0.146439	-0.072277	-0.620361	-0.151123	-0.384521
1024.0	3.71187	-2.128567	8.872656	0.018431	-0.160748	-0.069971	-0.62915	-0.148926	-0.380127
1025.0	3.71586	-2.148517	8.845917	0.022828	-0.180105	-0.073559	-0.631348	-0.148926	-0.382324
1026.0	3.564577	-2.0926	8.967936	0.012372	-0.213043	-0.0739	-0.62915	-0.148926	-0.37793
1027.0	3.566942	-2.156233	8.880547	0.024838	-0.276011	-0.079837	-0.628906	-0.15332	-0.371338
1028.0	3.604239	-2.103927	8.893899	-0.00138	-0.334227	-0.086262	-0.631348	-0.14917	-0.373535
1029.0	3.61394	-2.063191	8.938101	0.003802	-0.410189	-0.087356	-0.631104	-0.153564	-0.367188
1030.0	3.677674	-2.083013	8.935651	-0.002974	-0.493607	-0.089674	-0.631104	-0.151367	-0.371338
1031.0	3.740593	-2.147209	8.870997	-0.025838	-0.591503	-0.11286	-0.633057	-0.155762	-0.360596
1032.0	3.830972	-2.120548	8.883419	-0.050729	-0.699338	-0.14029	-0.635254	-0.155762	-0.358398
1033.0	3.68211	-2.160411	9.011072	-0.125046	-0.824927	-0.185202	-0.637695	-0.153809	-0.354004
1034.0	3.507347	-2.261027	9.111227	-0.208278	-0.993216	-0.250224	-0.644043	-0.153809	-0.347656
1035.0	3.335867	-2.474249	9.052541	-0.302305	-1.21934	-0.335293	-0.64624	-0.153809	-0.341064
1036.0	3.273281	-2.507208	9.323352	-0.426278	-1.510157	-0.448034	-0.652588	-0.15625	-0.328125
1037.0	2.999235	-2.653109	9.432418	-0.618442	-1.851358	-0.57822	-0.656982	-0.158447	-0.32373
1038.0	2.963305	-3.088429	9.437962	-0.742292	-2.277388	-0.762686	-0.661133	-0.160889	-0.302002
1039.0	3.192161	-3.385835	9.706124	-0.748176	-2.700366	-0.996532	-0.669434	-0.167725	-0.282471
1040.0	4.007516	-3.936249	10.340127	-0.438859	-2.926081	-1.354189	-0.671387	-0.174316	-0.265137
1041.0	1.844217	-3.55552	10.447295	-0.128308	-3.072283	-1.725389	-0.673096	-0.1875	-0.243408
1042.0	2.510511	-4.218771	10.09245	0.121141	-3.772349	-1.988314	-0.68335	-0.203125	-0.206543
1043.0	0.991063	-3.687924	10.334447	0.585323	-4.583352	-2.056019	-0.687012	-0.214355	-0.174072
1044.0	2.176504	-1.612603	10.209476	1.504914	-6.084033	-2.103235	-0.690918	-0.228027	-0.119629
1045.0	6.012676	-4.643547	10.957041	0.971424	-7.153468	-2.439445	-0.689941	-0.248291	-0.067627
1046.0	10.940191	-6.111434	13.53361	1.525895	-7.885496	-3.075662	-0.68457	-0.268311	-0.01123
1047.0	14.729451	-9.19287	19.005138	1.276431	-7.151835	-3.166516	-0.668457	-0.290527	0.047607
1048.0	19.254146	-6.840874	16.624869	2.615256	-7.22046	-3.606582	-0.650391	-0.302002	0.106201
1049.0	14.543887	-9.216662	24.271545	2.761613	-5.699731	-3.070964	-0.636475	-0.322021	0.158203
1050.0	13.034738	-9.292444	15.088047	3.401277	-5.622939	-2.545048	-0.616699	-0.322754	0.208252
1051.0	9.462274	-2.526056	8.869095	2.871956	-5.345072	-2.090774	-0.603516	-0.322998	0.238525
1052.0	3.145895	-4.493988	26.466535	1.400969	-3.561184	-0.993113	-0.590332	-0.325439	0.266846
1053.0	13.370416	-8.642938	28.485746	1.960585	-1.908867	-1.248622	-0.588379	-0.321289	0.275391
1054.0	-2.951235	-10.733528	24.582792	-2.318031	1.422873	-0.106657	-0.596924	-0.325439	0.258057
1055.0	-5.398117	-15.768283	7.477083	0.084771	0.807659	0.305504	-0.606201	-0.310303	0.255859
1056.0	-6.485468	-7.952913	8.908141	1.62956	0.22028	0.673408	-0.604492	-0.297607	0.26001
1057.0	-5.290041	-4.074289	8.035047	1.034375	0.63342	0.797545	-0.622314	-0.288818	0.255615
1058.0	-4.419187	-3.658655	8.851656	0.592009	0.787788	0.901663	-0.62085	-0.271729	0.26001
1059.0	-2.866998	-3.85111	10.657033	0.150625	1.247534	0.987617	-0.627686	-0.265137	0.244629
1060.0	-2.27863	-5.226021	10.936636	-0.013524	1.780805	1.055674	-0.636719	-0.254395	0.238037
1061.0	-1.572338	-4.926924	11.478275	0.185591	2.228535	1.136283	-0.643555	-0.247559	0.218506
1062.0	-0.847834	-4.114699	11.726543	0.179661	2.744541	1.235727	-0.650391	-0.23877	0.205566
1063.0	-0.096419	-3.324392	11.619265	0.079699	3.233969	1.353856	-0.661621	-0.236572	0.186035
1064.0	0.643095	-3.203318	11.135336	-0.099879	3.711236	1.446853	-0.663818	-0.231934	0.159912
1065.0	1.048043	-3.118211	10.379789	-0.161068	4.089312	1.511093	-0.677246	-0.229492	0.140381
1066.0	1.514605	-2.726767	9.778987	-0.159213	4.341886	1.538332	-0.696533	-0.235596	0.118652
1067.0	2.065488	-2.353449	9.551402	-0.216705	4.54038	1.528629	-0.711914	-0.233398	0.096924
1068.0	2.665107	-2.356122	9.684331	-0.305593	4.703257	1.498515	-0.735596	-0.237549	0.094727
1069.0	3.253307	-2.424875	10.328702	-0.371397	4.824266	1.4555	-0.770752	-0.235352	0.072998
1070.0	4.295837	-2.664167	11.354646	-0.459605	4.937987	1.408988	-0.814453	-0.226807	0.060059
1071.0	5.445153	-3.307709	12.095081	-0.580444	5.123261	1.385897	-0.869629	-0.209229	0.022949
1072.0	6.02587	-3.329542	12.747629	-0.540483	5.241398	1.396534	-0.93457	-0.166016	-0.011963
1073.0	6.915866	-2.679699	13.888583	-0.796684	5.399523	1.372	-0.999756	-0.118164	-0.073242
1074.0	7.108334	-3.705711	13.924982	-1.139086	5.558824	1.348235	-1.063477	-0.048584	-0.14502
1075.0	7.797056	-3.568829	14.696289	-1.215867	5.49685	1.302723	-1.108398	0.038574	-0.23877
1076.0	7.990119	-3.045274	14.569397	-1.46263	5.449763	1.209742	-1.136475	0.138916	-0.343506
1077.0	8.382057	-2.203875	14.330319	-1.746361	5.161371	1.066961	-1.13623	0.239502	-0.460938
1078.0	11.376402	-2.227876	17.108463	-2.085687	4.763086	0.862893	-1.099365	0.348633	-0.561035
1079.0	15.248337	-3.485826	19.247666	-2.582742	4.784558	0.696131	-1.022949	0.449219	-0.667725
1080.0	17.076701	-5.298436	18.268835	-2.8842	4.875167	0.695519	-0.90625	0.519775	-0.754639
1081.0	19.251181	-5.847218	17.215866	-2.713988	4.696289	0.916871	-0.744385	0.557373	-0.793457
1082.0	20.548647	-3.117192	15.303199	-2.378741	4.523552	1.27788	-0.59375	0.543213	-0.80835
1083.0	21.760551	3.58919	14.803891	-1.933324	4.036438	1.444674	-0.474365	0.498291	-0.797119
1084.0	26.315921	4.370413	13.329139	-2.407819	4.204052	1.225422	-0.387695	0.450928	-0.772705
1085.0	26.878557	2.142111	9.080114	-2.040313	4.224757	0.965196	-0.331299	0.401611	-0.75293
1086.0	26.650466	2.537785	3.905295	-0.806298	3.398032	0.84781	-0.30127	0.358398	-0.735352
1087.0	27.487607	4.934447	-2.742097	-0.006021	2.220939	0.842385	-0.278076	0.321777	-0.728516
1088.0	31.038086	9.948606	-10.145104	0.481432	0.772782	0.802127	-0.272217	0.285156	-0.715332
1089.0	35.148724	12.691506	-16.320744	-0.131389	-0.052998	0.584446	-0.271729	0.271729	-0.691406
1090.0	33.411791	9.607131	-22.451641	-1.000301	0.437589	0.44037	-0.269043	0.260986	-0.689209
1091.0	25.910613	6.470533	-13.367769	0.044479	0.490612	0.36808	-0.26416	0.246094	-0.687012
1092.0	15.263428	1.470487	-9.177853	0.496855	-0.875792	-0.116102	-0.267822	0.228516	-0.678223
1093.0	-6.566956	10.26233	19.10621	3.166798	-2.462536	-0.106132	-0.279785	0.200684	-0.676025
1094.0	-15.271087	6.516845	28.278953	-1.78388	-1.990373	-1.41045	-0.292725	0.202393	-0.650146
1095.0	2.623761	6.370993	-13.018836	2.11253	-6.294513	-2.195194	-0.336426	0.152344	-0.625977
1096.0	26.824568	9.833468	32.906615	2.582936	-5.886924	-1.545366	-0.34668	0.136963	-0.61084
1097.0	12.601031	-3.58309	19.495612	-4.542311	-0.368699	-1.391237	-0.351318	0.141113	-0.599854
1098.0	5.138795	-13.863185	9.837103	0.342797	-2.681764	-1.157932	-0.365967	0.130127	-0.586914
1099.0	10.42946	-7.320675	15.348505	1.384833	-3.063426	-0.684727	-0.371826	0.110596	-0.57373
1100.0	8.451008	-7.803212	14.745843	0.485223	-1.873914	-0.460122	-0.375732	0.101807	-0.567383
1101.0	6.911065	-6.650829	12.086847	2.010301	-1.917288	-0.417313	-0.385986	0.08667	-0.562988
1102.0	6.754131	-2.971394	12.229338	2.069655	-1.665227	-0.314247	-0.389648	0.067383	-0.558594
1103.0	6.73214	0.680306	12.956657	1.911861	-1.264562	-0.321222	-0.395752	0.054199	-0.552002
1104.0	7.227385	-1.937958	11.618798	0.739837	-0.539493	-0.325068	-0.399658	0.043457	-0.549805
1105.0	4.416943	-2.070475	10.301951	0.788051	-0.334358	-0.251375	-0.404053	0.043457	-0.553955
1106.0	4.943709	-0.498095	10.663591	0.770183	-0.47266	-0.167392	-0.401611	0.039063	-0.54541
1107.0	4.933055	-1.340498	9.919439	0.103026	-0.068469	-0.111589	-0.406006	0.037109	-0.549805
1108.0	3.350922	-2.81241	8.980766	0.045543	-0.047086	-0.066872	-0.403809	0.036865	-0.54541
1109.0	3.935727	-2.193937	9.169776	0.294534	-0.227502	-0.033558	-0.403564	0.032715	-0.549561
1110.0	3.915437	-1.732331	9.336254	0.067828	-0.086186	-0.001665	-0.40332	0.02832	-0.54541
1111.0	3.584029	-2.24779	9.136649	-0.011697	-0.047419	0.024451	-0.403564	0.030518	-0.538818
1112.0	3.581774	-2.529582	9.005677	0.02671	-0.064853	0.029958	-0.403564	0.034912	-0.54541
1113.0	3.658119	-2.542752	9.005532	0.034733	-0.053291	0.021595	-0.405762	0.032715	-0.543213
1114.0	3.650852	-2.55818	8.949132	0.051652	-0.046673	0.013104	-0.405762	0.032715	-0.54541
1115.0	3.569302	-2.562654	8.926405	0.049123	-0.026827	0.004473	-0.401367	0.032715	-0.54541
1116.0	3.507865	-2.585305	8.885206	0.066336	-0.015254	-0.010893	-0.410156	0.034912	-0.547607
1117.0	3.464036	-2.601276	8.828801	0.082546	-0.011863	-0.027388	-0.407715	0.02832	-0.54541
1118.0	3.382782	-2.629383	8.839216	0.103963	-0.002067	-0.046771	-0.401123	0.02832	-0.54541
1119.0	3.392537	-2.540606	8.835883	0.129923	-0.010518	-0.064009	-0.403564	0.030518	-0.54541
1120.0	3.460985	-2.40215	8.912022	0.147551	-0.003976	-0.070495	-0.401123	0.02417	-0.549561
1121.0	3.442484	-2.362476	8.90076	0.144943	0.016907	-0.07797	-0.403076	0.021973	-0.543213
1122.0	3.425157	-2.471103	8.887079	0.148001	0.032388	-0.082037	-0.403076	0.019775	-0.549561
1123.0	3.438663	-2.392884	8.813731	0.157826	0.024908	-0.075645	-0.398926	0.02417	-0.543213
1124.0	3.478838	-2.333183	8.913127	0.155298	0.018651	-0.071442	-0.398682	0.019775	-0.538818
1125.0	3.406061	-2.394922	8.851218	0.123068	0.026208	-0.078592	-0.400635	0.015381	-0.542969
1126.0	3.442754	-2.279811	8.887447	0.145751	0.007134	-0.069374	-0.405029	0.017578	-0.541016
1127.0	3.637354	-2.289548	8.914127	0.127591	0.012062	-0.062277	-0.405029	0.015381	-0.538818
1128.0	3.439697	-2.228557	8.897165	0.11151	0.02457	-0.067325	-0.405029	0.015381	-0.545166
1129.0	3.507866	-2.206562	8.904701	0.118956	0.008741	-0.059094	-0.405029	0.013184	-0.541016
1130.0	3.427929	-2.137208	8.945792	0.094469	0.004859	-0.048708	-0.405029	0.013184	-0.542969
1131.0	3.400394	-2.184409	8.974039	0.092304	-0.006011	-0.042427	-0.400635	0.01123	-0.542969
1132.0	3.455824	-2.285881	8.929306	0.080899	-0.012809	-0.046404	-0.407227	0.015381	-0.538818
1133.0	3.538915	-2.209125	8.890665	0.1126	-0.022542	-0.046063	-0.400635	0.013428	-0.549561
1134.0	3.473206	-2.241256	8.953666	0.073764	0.001826	-0.056015	-0.398193	0.009033	-0.540771
1135.0	3.397668	-2.289304	8.927417	0.105998	-0.011221	-0.059452	-0.402588	0.006836	-0.542969
1136.0	3.488788	-2.166767	8.94667	0.11315	-0.032544	-0.061648	-0.402832	0.010986	-0.538818
1137.0	3.491051	-2.159341	8.982222	0.095179	-0.021395	-0.067227	-0.400391	0.009033	-0.540771
1138.0	3.455062	-2.101077	8.952439	0.1012	-0.033628	-0.066394	-0.398193	0.009033	-0.538818
1139.0	3.549596	-2.007286	9.001789	0.090562	-0.041573	-0.0695	-0.404541	0.004639	-0.540771
1140.0	3.537537	-1.965764	8.91804	0.077037	-0.038411	-0.064233	-0.406738	0.004639	-0.540771
1141.0	3.542479	-1.956903	8.918028	0.071874	-0.044818	-0.06126	-0.402588	0.006836	-0.536621
1142.0	3.572709	-1.991947	8.896479	0.071374	-0.042805	-0.051734	-0.402344	0.000488	-0.542969
1143.0	3.45586	-2.10063	8.877688	0.055741	-0.036119	-0.05601	-0.402344	0.002441	-0.540771
1144.0	3.368511	-2.183916	8.897955	0.077359	-0.051308	-0.061222	-0.397949	0.000488	-0.540771
1145.0	3.284445	-2.168978	8.946703	0.09027	-0.074241	-0.070238	-0.406738	0.000244	-0.538574
1146.0	3.265022	-2.218826	9.007207	0.10087	-0.108946	-0.083283	-0.404297	-0.001709	-0.540771
1147.0	3.241318	-2.187564	9.00578	0.108541	-0.160107	-0.102539	-0.399902	-0.001953	-0.532227
1148.0	3.227678	-2.082439	9.028524	0.116713	-0.214848	-0.118572	-0.4021	-0.001953	-0.527832
1149.0	3.273338	-2.090128	9.038495	0.13931	-0.290498	-0.127867	-0.40625	-0.010498	-0.536377
1150.0	3.338184	-1.75904	9.187197	0.192215	-0.392637	-0.125125	-0.412842	-0.010498	-0.53418
1151.0	3.229275	-1.702686	9.279712	0.076578	-0.463551	-0.149909	-0.412842	-0.008545	-0.525635
1152.0	3.28317	-1.907741	9.205818	0.077136	-0.599974	-0.1774	-0.414795	-0.012939	-0.523438
1153.0	3.281888	-1.949754	9.351686	0.025568	-0.73861	-0.211035	-0.418945	-0.019287	-0.525635
1154.0	3.158782	-2.156655	9.16132	0.003037	-0.9379	-0.262181	-0.427734	-0.017334	-0.514893
1155.0	3.14121	-2.075549	9.413268	-0.051477	-1.171668	-0.35031	-0.429688	-0.023926	-0.503906
1156.0	2.864694	-2.344535	9.382088	-0.190669	-1.471378	-0.464698	-0.433838	-0.023926	-0.503906
1157.0	2.693153	-2.477188	9.482059	-0.255997	-1.919601	-0.61845	-0.446533	-0.032715	-0.493164
1158.0	2.596971	-2.471145	9.834388	-0.361177	-2.453809	-0.77618	-0.457764	-0.028809	-0.478027
1159.0	2.665525	-2.760748	10.173434	-0.479107	-2.985498	-0.939958	-0.468018	-0.041748	-0.462646
1160.0	3.029816	-3.29359	10.338271	-0.474097	-3.483823	-1.150366	-0.485352	-0.040039	-0.436768
1161.0	3.366058	-3.927527	11.043379	-0.088865	-3.826795	-1.553741	-0.506592	-0.053467	-0.417236
1162.0	1.645115	-4.059253	11.548997	0.508029	-3.935427	-1.867306	-0.514404	-0.077393	-0.388916
1163.0	0.877254	-4.540346	10.218664	1.382384	-4.798517	-1.954655	-0.532959	-0.099365	-0.356445
1164.0	1.995834	-0.632725	10.228819	2.453857	-6.138588	-1.904304	-0.558105	-0.125977	-0.310791
1165.0	4.624433	-4.105427	10.623975	1.431111	-6.975227	-2.2049	-0.569824	-0.152588	-0.260742
1166.0	13.56909	-8.065369	14.219784	1.963172	-7.25677	-2.917344	-0.579834	-0.177002	-0.206543
1167.0	18.636208	-9.204102	18.021878	1.737201	-5.954692	-3.488913	-0.587158	-0.205566	-0.160889
1168.0	14.464054	-9.169355	20.651323	2.41834	-5.362969	-3.58414	-0.596924	-0.232178	-0.106445
1169.0	12.547928	-9.583948	21.027146	2.79088	-5.316438	-2.991865	-0.600342	-0.256592	-0.056641
1170.0	10.915518	-3.882864	11.638307	2.672617	-5.729959	-2.417066	-0.61084	-0.263916	0.001953
1171.0	6.440216	-3.666027	17.148197	2.007977	-3.997128	-1.264693	-0.62085	-0.283691	0.036621
1172.0	8.196149	-12.890941	26.911039	1.642284	-2.77693	-0.78372	-0.623047	-0.281982	0.062744
1173.0	-1.474071	-10.397523	21.033263	0.162628	-0.526699	0.216681	-0.646973	-0.280029	0.073486
1174.0	-3.254889	-14.874179	11.572959	0.472459	-0.546226	0.783568	-0.653809	-0.271729	0.095215
1175.0	-4.527952	-8.070531	11.882223	1.601634	-0.799639	1.108236	-0.671631	-0.263428	0.112305
1176.0	-3.840721	-2.937855	11.627144	1.144474	-0.232107	1.178815	-0.684814	-0.25708	0.114502
1177.0	-4.069653	-2.885851	10.990147	0.393934	0.261471	1.131758	-0.698486	-0.241943	0.110107
1178.0	-3.884474	-2.992276	11.100612	0.166439	0.680053	1.014553	-0.712158	-0.229004	0.101318
1179.0	-3.393446	-3.205349	11.027204	0.050054	1.149883	0.893875	-0.712158	-0.224609	0.090576
1180.0	-2.809474	-3.079587	11.167705	0.016232	1.603112	0.839227	-0.72998	-0.218018	0.081787
1181.0	-2.099225	-3.07006	11.257364	-0.124327	2.103122	0.843235	-0.730225	-0.211182	0.055664
1182.0	-1.322713	-3.314005	11.107814	-0.244476	2.580421	0.913417	-0.730713	-0.197998	0.033936
1183.0	-0.582634	-3.554466	10.997447	-0.330333	3.029728	1.01596	-0.733398	-0.193115	-0.009521
1184.0	0.12999	-3.736193	10.526389	-0.322382	3.400853	1.142927	-0.729248	-0.184082	-0.041992
1185.0	1.010573	-3.398365	10.354698	-0.40745	3.717818	1.269343	-0.725342	-0.175049	-0.081055
1186.0	1.659797	-3.271001	10.142003	-0.486225	3.999488	1.386792	-0.708252	-0.167969	-0.115723
1187.0	2.421984	-3.297904	10.041088	-0.546433	4.221069	1.484781	-0.697998	-0.158691	-0.156982
1188.0	3.242349	-3.534783	10.459685	-0.590417	4.423135	1.562016	-0.67627	-0.156006	-0.197998
1189.0	4.047272	-3.553084	10.988075	-0.570036	4.598351	1.615467	-0.652588	-0.151123	-0.232666
1190.0	5.019971	-3.174746	11.772877	-0.594831	4.769948	1.655265	-0.626709	-0.148438	-0.256592
1191.0	6.038827	-3.535929	12.036067	-0.707836	4.970237	1.662976	-0.585205	-0.156494	-0.289063
1192.0	6.41147	-3.200922	12.306262	-0.687282	5.099738	1.64799	-0.561279	-0.156006	-0.317139
1193.0	7.35632	-2.972949	13.084359	-0.892843	5.213862	1.583118	-0.534668	-0.166504	-0.330078
1194.0	7.448656	-3.414378	13.050035	-1.093961	5.275835	1.53777	-0.499756	-0.172852	-0.336426
1195.0	8.064455	-2.983036	13.565926	-1.301788	5.187103	1.435338	-0.490479	-0.185547	-0.338379
1196.0	8.105878	-2.863453	12.712998	-1.650556	5.037445	1.296602	-0.494629	-0.189941	-0.338379
1197.0	9.365286	-2.354152	13.016451	-1.783506	4.607718	1.097604	-0.518555	-0.194092	-0.349365
1198.0	12.712406	-2.163529	16.421459	-2.092395	4.324193	0.858002	-0.550049	-0.163818	-0.371094
1199.0	15.297318	-2.967978	17.929182	-2.555542	4.422139	0.645231	-0.569336	-0.122559	-0.414795
1200.0	16.347863	-3.88058	16.30883	-2.751988	4.416872	0.570749	-0.582031	-0.07251	-0.449707
1201.0	17.375791	-3.774267	14.237583	-2.684502	4.241727	0.641285	-0.577637	-0.020264	-0.491211
1202.0	18.40259	-2.39844	12.318448	-2.588616	3.99025	0.721877	-0.555908	0.029785	-0.539063
1203.0	19.190582	2.841277	10.463361	-2.241605	3.530591	0.756268	-0.526855	0.066895	-0.567383
1204.0	22.732046	8.191032	12.282771	-2.660468	3.179681	0.558143	-0.493652	0.108398	-0.5979
1205.0	25.206257	6.615401	10.411663	-3.574656	3.744487	0.22162	-0.455322	0.130371	-0.617432
1206.0	24.292595	3.685406	7.840855	-2.749391	3.516919	0.013127	-0.416992	0.149902	-0.630371
1207.0	24.608507	2.681159	3.444319	-1.545992	2.912773	0.000929	-0.38208	0.150146	-0.641357
1208.0	24.974873	4.159836	-2.262166	-0.464591	2.061914	0.191185	-0.362549	0.148193	-0.649902
1209.0	26.619557	7.723054	-7.059274	0.010396	0.810312	0.391791	-0.35376	0.144043	-0.647705
1210.0	27.941982	8.215359	-13.538652	-0.612215	0.126295	0.420542	-0.351563	0.144043	-0.654053
1211.0	26.052234	5.988405	-15.991433	-0.565828	0.234749	0.483314	-0.340332	0.137695	-0.647705
1212.0	21.92326	4.775725	-6.901309	0.005874	-0.226856	0.572669	-0.344727	0.135254	-0.638916
1213.0	20.149865	2.805141	-0.086418	0.408872	-1.628323	0.67557	-0.355469	0.133057	-0.634521
1214.0	9.373772	-8.730297	1.341185	-0.348021	-0.082412	0.848067	-0.342041	0.126465	-0.630127
1215.0	-29.841077	1.360909	36.006491	2.106596	-1.180216	0.497071	-0.358887	0.109131	-0.623779
1216.0	-13.522841	4.504267	4.820747	2.818795	-4.403088	-1.30304	-0.396484	0.072266	-0.599609
1217.0	4.140085	25.382701	-12.706258	6.80833	-8.908617	-1.148975	-0.436279	0.032715	-0.560547
1218.0	36.513542	14.044246	42.664109	-2.367484	-3.009756	-1.193367	-0.43457	0.047852	-0.55835
1219.0	3.774602	-2.199962	13.52841	-3.602693	-0.231554	-1.532012	-0.443604	0.052002	-0.549805
1220.0	7.767023	-7.463148	14.307358	2.01099	-3.570983	-1.128	-0.458008	0.034424	-0.528076
1221.0	14.727454	-19.287041	18.368573	-0.967629	-1.295183	-0.472295	-0.458008	0.034424	-0.523682
1222.0	5.792065	-8.95793	9.438089	3.804851	-2.115152	-0.366256	-0.472412	0.010498	-0.514893
1223.0	8.126985	6.834799	14.941569	3.367692	-2.481461	-0.27735	-0.482422	-0.01123	-0.499756
1224.0	6.282448	-2.170676	10.412429	-0.626903	0.60248	-0.372785	-0.480469	-0.004639	-0.510498
1225.0	2.178979	-7.37268	9.472472	1.380018	-0.674922	-0.326783	-0.477783	-0.013428	-0.495361
1226.0	7.105721	-0.302174	11.889899	2.481021	-1.34495	-0.270026	-0.486084	-0.028564	-0.490967
1227.0	6.255197	-0.118268	10.642867	-0.012362	0.159095	-0.257243	-0.483887	-0.026367	-0.497559
1228.0	2.731447	-3.400846	9.205522	0.232817	-0.053061	-0.184059	-0.485596	-0.035156	-0.486572
1229.0	4.427771	-1.401342	9.644652	0.749162	-0.470413	-0.112666	-0.485596	-0.037109	-0.490967
1230.0	4.245987	-1.517681	9.553044	-0.018659	-0.022376	-0.088971	-0.483398	-0.039307	-0.48877
1231.0	3.368511	-2.836337	8.863522	0.108592	-0.101301	-0.041575	-0.487793	-0.039307	-0.493164
1232.0	3.858445	-1.850058	9.337397	0.220205	-0.165479	-0.011861	-0.485596	-0.041504	-0.490967
1233.0	3.649943	-2.341857	9.046329	-0.027739	-0.005994	-0.012893	-0.483643	-0.035156	-0.48877
1234.0	3.3859	-2.736333	8.872693	0.094259	-0.069389	-0.006805	-0.483643	-0.032959	-0.486572
1235.0	3.647885	-2.34793	8.989932	0.103046	-0.073476	-0.005721	-0.483398	-0.041504	-0.486572
1236.0	3.526198	-2.445328	8.934244	0.028728	-0.033661	-0.004445	-0.483398	-0.041504	-0.48877
1237.0	3.474674	-2.592185	8.91073	0.048425	-0.044904	-0.006704	-0.480957	-0.047852	-0.495117
1238.0	3.483078	-2.606656	8.873148	0.05252	-0.046103	-0.024548	-0.483398	-0.039307	-0.486572
1239.0	3.398771	-2.586459	8.888026	0.052063	-0.039672	-0.039139	-0.487549	-0.041504	-0.48877
1240.0	3.375894	-2.626157	8.845571	0.0667	-0.05052	-0.057992	-0.485352	-0.043701	-0.482178
1241.0	3.434792	-2.61072	8.831599	0.081255	-0.060606	-0.06867	-0.485352	-0.041504	-0.484375
1242.0	3.581806	-2.4162	8.844949	0.09174	-0.076322	-0.064135	-0.487549	-0.041504	-0.490967
1243.0	3.536133	-2.250498	8.931916	0.061659	-0.071973	-0.054718	-0.487793	-0.037354	-0.486572
1244.0	3.474116	-2.389897	8.856024	0.035075	-0.07052	-0.052557	-0.491943	-0.039551	-0.480225
1245.0	3.475271	-2.480981	8.823835	0.030909	-0.088423	-0.04827	-0.485352	-0.043701	-0.48877
1246.0	3.440532	-2.55085	8.792613	0.037179	-0.085165	-0.059826	-0.487549	-0.045898	-0.47998
1247.0	3.547634	-2.458045	8.771206	0.06432	-0.097879	-0.069697	-0.487305	-0.048096	-0.486572
1248.0	3.617604	-2.37582	8.816372	0.06076	-0.086448	-0.072474	-0.489746	-0.043701	-0.482178
1249.0	3.571638	-2.351086	8.832265	0.052889	-0.070961	-0.06877	-0.487305	-0.050293	-0.482178
1250.0	3.586311	-2.24794	8.860989	0.060013	-0.070841	-0.059922	-0.491699	-0.048096	-0.482178
1251.0	3.562487	-2.297207	8.886313	0.040107	-0.058541	-0.056331	-0.487305	-0.05249	-0.47998
1252.0	3.542222	-2.367063	8.87443	0.042737	-0.065276	-0.057637	-0.487549	-0.045898	-0.47998
1253.0	3.684437	-2.599145	8.708838	0.044822	-0.06593	-0.066606	-0.49585	-0.054688	-0.477783
1254.0	3.708314	-2.148111	8.938216	0.085254	-0.082118	-0.052813	-0.491699	-0.048096	-0.47998
1255.0	3.496111	-2.382209	8.899139	0.000642	-0.024112	-0.062794	-0.496094	-0.050293	-0.477783
1256.0	3.606095	-2.362482	8.869033	0.07546	-0.073361	-0.057945	-0.493896	-0.050293	-0.47998
1257.0	3.646624	-2.183702	8.908008	0.04001	-0.055322	-0.052687	-0.491699	-0.050293	-0.47998
1258.0	3.601998	-2.354382	8.882955	0.023586	-0.065726	-0.055987	-0.487061	-0.056885	-0.477783
1259.0	3.615139	-2.225952	8.878989	0.024829	-0.084472	-0.050248	-0.491455	-0.054688	-0.475586
1260.0	3.611016	-2.275175	8.886748	-0.003146	-0.083035	-0.052031	-0.491455	-0.05249	-0.484375
1261.0	3.606361	-2.296675	8.862686	0.008538	-0.101775	-0.056191	-0.487305	-0.050293	-0.475586
1262.0	3.661117	-2.215073	8.852796	-0.008128	-0.103134	-0.05436	-0.493652	-0.05249	-0.473633
1263.0	3.571625	-2.248472	8.841303	-0.013837	-0.116321	-0.056129	-0.491455	-0.054688	-0.473633
1264.0	3.555409	-2.332178	8.894792	-0.018271	-0.135349	-0.055139	-0.49585	-0.05249	-0.47583
1265.0	3.533229	-2.310698	8.890707	-0.00925	-0.164687	-0.062193	-0.493652	-0.054688	-0.473633
1266.0	3.466126	-2.175981	8.933246	-0.008799	-0.204328	-0.061621	-0.49585	-0.054688	-0.471436
1267.0	3.37182	-2.242856	8.966052	-0.038999	-0.253199	-0.065562	-0.491455	-0.05249	-0.471436
1268.0	3.339212	-2.318998	8.910017	-0.041227	-0.324979	-0.086197	-0.500244	-0.050537	-0.467041
1269.0	3.417983	-2.239461	8.890105	-0.030403	-0.411795	-0.088212	-0.500244	-0.052734	-0.469238
1270.0	3.43375	-2.184394	9.002222	-0.049478	-0.487941	-0.099999	-0.502441	-0.052734	-0.467041
1271.0	3.451345	-2.357346	8.943201	-0.057776	-0.585444	-0.118204	-0.509033	-0.052734	-0.462646
1272.0	3.493683	-2.198706	9.009157	-0.074731	-0.702106	-0.152442	-0.510986	-0.052734	-0.458496
1273.0	3.638115	-2.213619	8.942645	-0.120663	-0.847348	-0.190058	-0.508789	-0.057129	-0.454102
1274.0	3.528848	-2.314691	9.070126	-0.231542	-1.018199	-0.242757	-0.521973	-0.055176	-0.449707
1275.0	3.311454	-2.492709	9.220676	-0.325907	-1.239264	-0.30809	-0.519531	-0.05957	-0.440918
1276.0	3.119851	-2.502973	9.338052	-0.428585	-1.514514	-0.391389	-0.52832	-0.057617	-0.430176
1277.0	3.34122	-2.498696	9.395495	-0.588762	-1.859157	-0.495824	-0.530518	-0.053223	-0.427979
1278.0	3.212225	-2.846601	9.536605	-0.866294	-2.138077	-0.648193	-0.539063	-0.060059	-0.404297
1279.0	3.507752	-3.28751	9.667189	-0.90262	-2.468554	-0.862746	-0.551758	-0.064453	-0.397705
1280.0	4.640739	-3.88246	10.348545	-0.614826	-2.569941	-1.194965	-0.556152	-0.066895	-0.380371
1281.0	2.149291	-3.629164	9.907254	-0.465178	-2.725837	-1.551522	-0.564209	-0.080078	-0.367432
1282.0	1.56688	-4.098676	9.79193	0.012057	-3.402879	-1.950181	-0.576904	-0.091309	-0.343506
1283.0	1.390917	-3.668354	10.196273	0.224621	-4.160726	-2.172052	-0.586914	-0.108887	-0.321777
1284.0	2.046944	-4.294274	9.536144	0.373449	-5.196803	-2.347881	-0.594971	-0.128662	-0.280518
1285.0	3.905061	-2.561035	10.558636	1.024335	-6.7047	-2.612845	-0.604736	-0.153076	-0.237061
1286.0	7.253932	-4.728932	11.75996	0.774004	-7.705311	-3.18654	-0.616699	-0.175293	-0.189209
1287.0	11.422351	-6.03095	15.553239	1.254205	-8.096293	-3.223532	-0.624268	-0.203857	-0.136963
1288.0	17.251478	-9.448893	16.090936	1.326581	-7.68702	-3.099407	-0.623535	-0.221924	-0.072021
1289.0	19.25275	-5.436244	22.188396	2.127126	-6.863985	-3.358305	-0.620117	-0.248291	-0.037109
1290.0	14.554598	-10.085649	21.120237	1.992814	-5.832533	-2.541408	-0.61084	-0.26416	0.014893
1291.0	13.076177	-9.202921	13.851202	2.81789	-5.678204	-2.062173	-0.601074	-0.283936	0.05835
1292.0	9.36284	-2.914256	10.73237	1.839404	-5.098551	-1.978748	-0.60083	-0.292969	0.093262
1293.0	1.31278	-7.552276	28.828654	0.39099	-3.446721	-1.262079	-0.595459	-0.314941	0.121582
1294.0	13.48374	-8.467194	28.190553	2.67317	-1.216511	-1.657956	-0.597656	-0.317139	0.130127
1295.0	-5.452952	-8.003293	23.928384	-2.734397	1.944487	-0.56023	-0.601563	-0.327637	0.112793
1296.0	-8.072575	-15.064573	5.548518	-0.185375	1.364872	-0.202409	-0.610107	-0.332031	0.11499
1297.0	-8.264061	-8.794523	7.915836	0.844896	0.575308	0.125202	-0.614258	-0.338623	0.11499
1298.0	-6.524087	-6.844185	7.891542	0.587303	0.88911	0.32437	-0.627197	-0.338623	0.11499
1299.0	-4.357854	-5.46223	9.849798	0.490453	0.911093	0.610232	-0.640381	-0.336426	0.11499
1300.0	-2.526267	-5.005886	11.674124	-0.166951	1.582595	0.89273	-0.653564	-0.332275	0.106201
1301.0	-2.263993	-6.245936	11.322504	-0.36377	2.156796	1.137968	-0.675781	-0.321289	0.088867
1302.0	-1.28379	-5.47479	11.595574	-0.187128	2.601346	1.342435	-0.691406	-0.314453	0.062744
1303.0	-0.671774	-4.572727	11.320457	-0.100521	3.099207	1.487448	-0.709229	-0.305664	0.034424
