Acquisition frequency: 100 Hz
PacketCounter	Acc_X	Acc_Y	Acc_Z	Gyr_X	Gyr_Y	Gyr_Z	Mag_X	Mag_Y	Mag_Z
0.0	8.593288	0.800502	5.078785	0.025818	-0.01384	0.002333	-0.356445	0.101807	-0.786621
1.0	8.566403	0.784249	5.065694	0.020288	-0.004242	0.002617	-0.355957	0.094971	-0.781738
2.0	8.592062	0.717418	5.0549	0.026457	-0.001237	0.000792	-0.358398	0.099609	-0.786621
3.0	8.565691	0.821074	5.067298	0.026182	-0.000348	-0.001156	-0.35376	0.095215	-0.78418
4.0	8.518256	0.820205	5.078694	0.018057	0.001463	0.000713	-0.36084	0.099365	-0.78418
5.0	8.52242	0.802816	5.094823	0.008456	0.013661	-0.004463	-0.354004	0.097412	-0.788818
6.0	8.558264	0.784281	5.139098	0.003783	0.010144	-0.004255	-0.356445	0.101807	-0.784424
7.0	8.502011	0.784767	5.118111	0.000238	0.012946	-0.004917	-0.354004	0.101807	-0.781982
8.0	8.521454	0.770162	5.095398	0.003538	0.009053	-0.007102	-0.358643	0.104004	-0.789063
9.0	8.524723	0.787128	5.113799	0.000514	0.003589	-0.007986	-0.358398	0.097168	-0.78418
10.0	8.505374	0.768538	5.135395	-0.000952	0.002121	-0.007268	-0.354004	0.101807	-0.79126
11.0	8.513537	0.739678	5.060388	-0.000614	-0.002729	-0.007116	-0.351563	0.097412	-0.788818
12.0	8.526474	0.72005	5.109107	0.001313	-0.005564	-0.00626	-0.351807	0.104004	-0.784424
13.0	8.523131	0.704434	5.090636	0.004982	-0.00782	-0.004174	-0.351807	0.099609	-0.78418
14.0	8.519015	0.72333	5.074185	0.006786	-0.011201	-0.004741	-0.356201	0.097412	-0.788818
15.0	8.555143	0.711724	5.010233	0.00734	-0.012978	-0.000845	-0.356201	0.099609	-0.786621
16.0	8.548674	0.707238	5.08154	0.014556	-0.018034	0.001902	-0.356445	0.104004	-0.781982
17.0	8.568604	0.727087	5.058728	0.015837	-0.01315	0.001556	-0.355957	0.095215	-0.786377
18.0	8.584717	0.73062	5.018307	0.017827	-0.011478	0.005631	-0.362793	0.097168	-0.78418
19.0	8.585336	0.730982	5.017196	0.016208	-0.011512	0.005825	-0.354004	0.101807	-0.784424
20.0	8.583965	0.800194	5.02086	0.015716	-0.005228	0.005146	-0.36084	0.099609	-0.786621
21.0	8.613442	0.748836	5.027918	0.017582	-0.004101	0.007797	-0.354004	0.097412	-0.788818
22.0	8.567856	0.832328	5.0618	0.014607	0.006794	0.002364	-0.354004	0.099609	-0.779541
23.0	8.584054	0.801302	5.02053	0.015224	0.001056	0.004467	-0.349365	0.099609	-0.786621
24.0	8.587482	0.817797	5.038748	0.006202	0.009494	0.002284	-0.36084	0.099609	-0.788818
25.0	8.564207	0.782655	5.04307	0.007421	0.009868	-0.001282	-0.349365	0.099609	-0.79126
26.0	8.582906	0.802245	5.022342	0.00611	0.006966	-3.6e-05	-0.358643	0.101807	-0.781982
27.0	8.536121	0.766114	5.03211	0.002778	0.00437	-0.001967	-0.356201	0.099609	-0.78418
28.0	8.559591	0.767625	5.026656	0.007514	0.003924	-0.003972	-0.36084	0.099365	-0.781982
29.0	8.532132	0.750897	5.014666	0.001373	-0.001061	-0.00304	-0.355957	0.095215	-0.788818
30.0	8.582567	0.804085	5.022627	0.01217	-0.010898	-0.000522	-0.358643	0.101807	-0.79126
31.0	8.560253	0.769139	5.025297	0.005383	-0.008165	-0.000797	-0.358643	0.101807	-0.786621
32.0	8.607302	0.806001	5.014936	0.009116	-0.014382	-0.000504	-0.360596	0.097168	-0.788818
33.0	8.585158	0.771047	5.017324	0.007188	-0.011547	-0.001362	-0.356445	0.101807	-0.786621
34.0	8.603851	0.825035	4.997229	0.003764	-0.008198	-0.000603	-0.354004	0.097412	-0.786377
35.0	8.580566	0.824334	5.002252	0.00364	-0.008746	-0.002026	-0.356201	0.099609	-0.786621
36.0	8.600063	0.843891	4.980116	0.003486	-0.007312	-0.002552	-0.356201	0.099609	-0.781982
37.0	8.581309	0.824915	5.000881	-0.004736	-0.008028	-0.003	-0.356201	0.099609	-0.78418
38.0	8.609024	0.842527	5.012275	0.001342	-0.007554	-0.007151	-0.358398	0.097412	-0.786377
39.0	8.581938	0.825663	4.999679	-0.006788	-0.005741	-0.00528	-0.351563	0.097412	-0.788818
40.0	8.573785	0.827845	4.965981	-0.009273	-0.001133	-0.010036	-0.358643	0.101807	-0.786621
41.0	8.591258	0.789837	5.030614	-0.014101	-0.003216	-0.010347	-0.360596	0.097168	-0.786377
42.0	8.58671	0.80833	5.014859	-0.012758	-0.002295	-0.012491	-0.358398	0.099609	-0.79126
43.0	8.587626	0.774446	5.012576	-0.011416	-0.001374	-0.014635	-0.351807	0.099609	-0.772705
44.0	8.602956	0.77804	4.973391	-0.009704	0.001189	-0.01251	-0.362793	0.097168	-0.781738
45.0	8.614648	0.792981	5.025009	-0.010014	0.004057	-0.013562	-0.356201	0.097412	-0.78418
46.0	8.63426	0.77848	5.001985	-0.010478	0.00836	-0.015139	-0.36084	0.099609	-0.786621
47.0	8.590805	0.758742	5.030249	-0.015432	0.014199	-0.011864	-0.354248	0.104004	-0.786621
48.0	8.609933	0.74388	5.008129	-0.014276	0.018537	-0.013635	-0.351807	0.099609	-0.788818
49.0	8.585044	0.743365	5.015876	-0.013152	0.024855	-0.01451	-0.356445	0.101807	-0.786621
50.0	8.579038	0.762159	5.002578	-0.011563	0.026871	-0.013807	-0.358643	0.101807	-0.786621
51.0	8.597579	0.747502	4.981493	-0.013368	0.03025	-0.013241	-0.351807	0.099609	-0.786621
52.0	8.599527	0.764155	5.002184	-0.009916	0.033394	-0.009885	-0.358643	0.101807	-0.784424
53.0	8.575103	0.729105	5.008529	-0.008261	0.031448	-0.010977	-0.349365	0.099609	-0.78418
54.0	8.573482	0.729711	5.011215	-0.004865	0.030084	-0.010839	-0.354004	0.097412	-0.788818
55.0	8.544871	0.712935	5.001232	-0.000146	0.019774	-0.004176	-0.354004	0.099609	-0.78418
56.0	8.571059	0.730752	5.015206	-0.000851	0.022983	-0.008599	-0.354004	0.099609	-0.78418
57.0	8.57452	0.71322	5.032641	0.004714	0.01988	-0.004755	-0.35376	0.095215	-0.786377
58.0	8.541719	0.714758	5.006354	0.006797	0.015613	-0.003371	-0.358643	0.106201	-0.782227
59.0	8.568279	0.732748	5.019663	0.010345	0.012816	-0.002705	-0.354004	0.099609	-0.786621
60.0	8.544017	0.73243	5.026211	0.012428	0.00855	-0.001321	-0.360596	0.097168	-0.78418
61.0	8.542597	0.767522	5.029079	0.014443	0.008245	0.001859	-0.35376	0.094971	-0.7771
62.0	8.54684	0.749851	5.045191	0.016492	0.005959	0.004141	-0.354004	0.099609	-0.78418
63.0	8.542989	0.734177	5.027702	0.019733	0.00603	0.003756	-0.358398	0.097412	-0.791016
64.0	8.550905	0.732847	5.06151	0.018267	0.00456	0.004475	-0.358398	0.097168	-0.78418
65.0	8.526079	0.766944	5.069539	0.023316	0.001251	0.003527	-0.356201	0.097412	-0.78418
66.0	8.574456	0.73538	5.055859	0.021817	0.001763	0.005142	-0.36084	0.104004	-0.784424
67.0	8.549696	0.769534	5.063758	0.025058	0.001833	0.004758	-0.351807	0.101807	-0.789063
68.0	8.573301	0.771296	5.058126	0.023526	0.004327	0.007269	-0.349365	0.099609	-0.786621
69.0	8.569537	0.755724	5.040486	0.023133	0.004665	0.003896	-0.355957	0.092773	-0.786377
70.0	8.557311	0.769877	5.097813	0.028357	0.006413	0.007587	-0.356445	0.101807	-0.786621
71.0	8.54436	0.790636	5.048954	0.021635	0.005177	0.00551	-0.354004	0.097412	-0.786377
72.0	8.552233	0.789442	5.082801	0.024844	0.007228	0.006021	-0.354004	0.099609	-0.786621
73.0	8.544798	0.757445	5.047516	0.020137	0.00569	0.007125	-0.351807	0.099609	-0.78418
74.0	8.528963	0.755097	5.08707	0.019744	0.006026	0.003752	-0.356201	0.099609	-0.781982
75.0	8.547838	0.774901	5.066077	0.019865	0.006574	0.005174	-0.354004	0.099609	-0.78418
76.0	8.547498	0.775426	5.06657	0.019833	0.008556	0.006068	-0.356445	0.101807	-0.781982
77.0	8.531596	0.77311	5.106217	0.023382	0.005758	0.006741	-0.351807	0.099609	-0.786621
78.0	8.535945	0.75547	5.122168	0.020295	0.004256	0.007653	-0.358398	0.099609	-0.781982
79.0	8.523962	0.741226	5.071281	0.015094	0.009001	0.008064	-0.349365	0.095215	-0.791016
80.0	8.549064	0.827534	5.088051	0.022432	0.004504	0.012256	-0.356201	0.097412	-0.78418
81.0	8.503407	0.756853	5.095431	0.020298	0.004254	0.007653	-0.36499	0.092773	-0.779297
82.0	8.56995	0.778201	5.062745	0.015741	0.001286	0.009286	-0.356201	0.099609	-0.779541
83.0	8.52606	0.792535	5.09198	0.015588	0.002719	0.008756	-0.358398	0.097412	-0.786377
84.0	8.521606	0.810834	5.076104	0.013943	-0.003813	0.004848	-0.354248	0.104004	-0.786621
85.0	8.5466	0.777549	5.067759	0.009265	-0.007329	0.00506	-0.356445	0.101807	-0.784424
86.0	8.526701	0.792768	5.090872	0.007395	1.8e-05	0.0074	-0.365234	0.097168	-0.781738
87.0	8.531523	0.774733	5.106093	0.012419	-0.009795	0.002363	-0.354004	0.097412	-0.786377
88.0	8.566772	0.796978	5.044626	0.010766	-0.007846	0.003447	-0.36084	0.099365	-0.78418
89.0	8.563639	0.780924	5.026013	0.012541	-0.009246	0.003784	-0.355957	0.095215	-0.786377
90.0	8.586956	0.816663	5.021403	0.010952	-0.011262	0.003084	-0.356201	0.097412	-0.78418
91.0	8.576505	0.796061	5.075283	0.010952	-0.011262	0.003084	-0.354004	0.099609	-0.788818
92.0	8.573415	0.780044	5.056591	0.012389	-0.007813	0.003254	-0.356445	0.101807	-0.784424
93.0	8.573875	0.780324	5.055768	0.010921	-0.009279	0.003976	-0.356201	0.099609	-0.78418
94.0	8.546099	0.797697	5.044897	0.007283	-0.009014	0.000988	-0.354004	0.099609	-0.79126
95.0	8.547392	0.76369	5.04218	0.008324	-0.005233	-0.002216	-0.356201	0.099609	-0.79126
96.0	8.546591	0.79856	5.043928	0.008504	-0.000165	0.00241	-0.356445	0.101807	-0.793701
97.0	8.566708	0.783506	5.020378	0.006486	0.000133	-0.00077	-0.356201	0.099609	-0.78418
98.0	8.57488	0.782168	5.053777	0.008261	-0.001267	-0.000433	-0.358398	0.097168	-0.78418
99.0	8.574982	0.782505	5.053552	0.005171	-0.002766	0.000482	-0.354004	0.097412	-0.78418
100.0	8.571535	0.766541	5.035453	0.00655	-0.003834	-0.002553	-0.358643	0.101807	-0.789063
101.0	8.568107	0.750592	5.01732	0.001685	-0.003934	-0.001975	-0.356201	0.099609	-0.786621
102.0	8.571945	0.767489	5.034611	0.008082	-0.006336	-0.005058	-0.358643	0.101807	-0.786621
103.0	8.553074	0.749002	5.055477	0.006978	-0.006149	-7.1e-05	-0.349365	0.099609	-0.78418
104.0	8.597194	0.734917	5.025712	0.0071	-0.005598	0.00135	-0.36084	0.104004	-0.79126
105.0	8.573767	0.734322	5.030889	0.011965	-0.005498	0.000771	-0.360596	0.097168	-0.788818
106.0	8.573019	0.769186	5.032524	0.010281	-0.001564	0.002746	-0.36084	0.099365	-0.78418
107.0	8.569385	0.753108	5.01476	0.009942	0.003285	0.002575	-0.354004	0.099609	-0.786621
108.0	8.572926	0.769708	5.032601	0.010249	0.000419	0.003637	-0.358643	0.101807	-0.786621
109.0	8.592127	0.788956	5.011042	0.012146	-0.000429	0.005395	-0.354004	0.097412	-0.786377
110.0	8.572069	0.804624	5.034403	0.01175	-9.9e-05	0.002022	-0.358398	0.094971	-0.783936
111.0	8.536731	0.789279	4.988575	0.007222	-0.005047	0.002773	-0.358643	0.101807	-0.784424
112.0	8.549672	0.769709	5.037396	0.010313	-0.003549	0.001856	-0.356445	0.101807	-0.784424
113.0	8.522539	0.752679	5.024996	0.008691	-0.003582	0.002049	-0.35376	0.095215	-0.788818
114.0	8.554675	0.752351	5.05227	0.008479	-0.006669	-0.001683	-0.356445	0.104004	-0.784424
115.0	8.550449	0.771008	5.035878	0.00848	-0.006669	-0.001683	-0.358398	0.097168	-0.781738
116.0	8.579033	0.754517	5.045264	0.010102	-0.006636	-0.001876	-0.356445	0.101807	-0.784424
117.0	8.566677	0.775014	4.995271	0.010134	-0.008621	-0.002766	-0.358398	0.099609	-0.793457
118.0	8.602432	0.791373	5.040237	0.00802	-0.002372	-0.003277	-0.358643	0.101807	-0.79126
119.0	8.579902	0.756554	5.043481	0.008634	-0.008102	-0.001152	-0.356201	0.097412	-0.791016
120.0	8.571032	0.793162	5.011474	0.004898	-0.001886	-0.00147	-0.358643	0.101807	-0.784424
121.0	8.57567	0.775506	5.027033	0.00652	-0.001853	-0.001663	-0.356201	0.099609	-0.793457
122.0	8.572065	0.759592	5.009198	0.002847	0.000393	-0.00376	-0.358398	0.097168	-0.78418
123.0	8.571972	0.759969	5.0093	0.001193	0.002345	-0.002677	-0.354004	0.099609	-0.78418
124.0	8.551781	0.775648	5.032904	0.001347	0.000913	-0.002146	-0.358643	0.104004	-0.784424
125.0	8.556171	0.75794	5.0489	0.000764	0.004657	-0.005161	-0.356201	0.097412	-0.78418
126.0	8.559551	0.774784	5.066966	0.000917	0.003225	-0.004629	-0.36084	0.101563	-0.781982
127.0	8.58054	0.725385	5.041539	0.004776	-0.002438	-0.00289	-0.356445	0.101807	-0.784424
128.0	8.571334	0.762065	5.010073	0.002386	0.00469	-0.005354	-0.360596	0.097168	-0.779541
129.0	8.556527	0.725318	5.047657	0.001315	0.002897	-0.001256	-0.358398	0.097412	-0.788818
130.0	8.575484	0.74461	5.026449	0.002783	0.004362	-0.001981	-0.365234	0.099365	-0.786621
131.0	8.602496	0.762323	5.038927	0.002476	0.007227	-0.003044	-0.356201	0.097412	-0.791016
132.0	8.570312	0.763483	5.011605	0.004284	0.003843	-0.003595	-0.358643	0.101807	-0.781982
133.0	8.593772	0.764705	5.006269	0.003149	0.00602	0.002281	-0.358398	0.099609	-0.78418
134.0	8.569772	0.763938	5.01246	0.002508	0.005242	-0.003934	-0.358643	0.101807	-0.786621
135.0	8.562246	0.731605	4.977463	0.005996	0.006413	-0.001478	-0.356445	0.101807	-0.786621
136.0	8.546388	0.729293	5.017172	-0.000736	0.005176	-0.003548	-0.358643	0.101807	-0.784424
137.0	8.565323	0.74861	4.99601	0.002937	0.00293	-0.00145	-0.360596	0.097168	-0.786377
138.0	8.549572	0.746291	5.035528	0.004406	0.004395	-0.002174	-0.363037	0.101563	-0.779541
139.0	8.569474	0.731261	5.012373	0.006304	0.003549	-0.000415	-0.356201	0.099609	-0.78418
140.0	8.608593	0.735169	4.967638	0.006579	0.002669	0.001538	-0.363281	0.104004	-0.786621
141.0	8.56916	0.731801	5.012831	0.008048	0.004134	0.000813	-0.362793	0.097168	-0.78418
142.0	8.591778	0.767572	5.009252	0.004714	0.001531	-0.001111	-0.363037	0.099365	-0.788818
143.0	8.56802	0.76711	5.014969	0.009613	-0.000355	-0.002578	-0.356201	0.099609	-0.78418
144.0	8.591661	0.768579	5.009298	0.009945	0.003288	0.002572	-0.356445	0.104004	-0.781982
145.0	8.583422	0.770466	4.975901	0.004989	0.000652	0.000842	-0.354004	0.099609	-0.788818
146.0	8.595063	0.785414	5.027294	0.006426	0.004101	0.001005	-0.358643	0.101807	-0.784424
147.0	8.571195	0.784762	5.033225	0.008081	0.002149	-7.6e-05	-0.358398	0.094971	-0.783936
148.0	8.595715	0.751711	5.025757	0.007927	0.003581	-0.000608	-0.358643	0.104004	-0.789063
149.0	8.583824	0.737339	4.974718	0.006458	0.002117	0.000117	-0.358398	0.099609	-0.786621
150.0	8.56807	0.734958	5.014233	0.00465	0.0055	0.000665	-0.358398	0.097168	-0.78418
151.0	8.618913	0.753765	5.020765	0.011205	0.001662	-0.001882	-0.362793	0.097168	-0.781738
152.0	8.566743	0.770464	5.016637	0.009518	0.005599	8.7e-05	-0.356201	0.099609	-0.78418
153.0	8.594717	0.75385	5.027144	0.011263	0.006185	0.001315	-0.356201	0.099609	-0.788818
154.0	8.589831	0.77237	5.011853	0.01111	0.007617	0.000782	-0.36084	0.099365	-0.779541
155.0	8.562232	0.755444	5.000279	0.009673	0.004167	0.000619	-0.36084	0.099609	-0.788818
156.0	8.585746	0.756797	4.994856	0.00805	0.004134	0.000812	-0.365479	0.10376	-0.784424
157.0	8.589126	0.773691	5.012856	0.005911	0.003872	-0.003789	-0.360596	0.097168	-0.788818
158.0	8.570807	0.720735	5.032566	0.011756	-9.5e-05	0.002026	-0.363037	0.101563	-0.781982
159.0	8.588748	0.774581	5.013367	0.004038	0.011226	-0.001468	-0.36084	0.101807	-0.786621
160.0	8.565559	0.739499	5.017853	0.007897	0.005566	0.000279	-0.356445	0.106201	-0.786865
161.0	8.612725	0.74192	5.006832	0.009399	0.005045	-0.001334	-0.356201	0.097412	-0.78418
162.0	8.592331	0.757959	5.030605	0.0094	0.005045	-0.001334	-0.363037	0.101807	-0.789063
163.0	8.587443	0.776514	5.015303	0.007592	0.008428	-0.000788	-0.358154	0.093018	-0.793213
164.0	8.584271	0.726228	4.99656	0.010379	0.012788	-0.002772	-0.356201	0.101807	-0.772705
165.0	8.563561	0.742164	5.020869	0.009578	0.010123	0.00328	-0.354004	0.099609	-0.78418
166.0	8.566698	0.758678	5.039311	0.006485	0.008626	0.004198	-0.36084	0.104004	-0.784424
167.0	8.567267	0.724299	5.038079	0.006243	0.007518	0.001358	-0.36084	0.101807	-0.78418
168.0	8.55785	0.760568	5.006998	0.011507	0.007293	0.004156	-0.362793	0.097168	-0.78418
169.0	8.566625	0.724723	5.03911	0.009917	0.005275	0.003461	-0.363281	0.108398	-0.784424
170.0	8.581078	0.761865	5.002102	0.01019	0.004398	0.005415	-0.36084	0.101563	-0.781982
171.0	8.5809	0.76191	5.002402	0.010191	0.004397	0.005415	-0.354004	0.099609	-0.793457
172.0	8.580704	0.76184	5.002748	0.010432	0.005506	0.008255	-0.365479	0.10376	-0.786621
173.0	8.588702	0.760266	5.036449	0.010255	0.000426	0.003643	-0.36084	0.101807	-0.793701
174.0	8.580701	0.761972	5.002733	0.014201	-0.002694	0.007702	-0.363281	0.104004	-0.784424
175.0	8.585453	0.744136	5.01815	0.010472	-0.004977	0.002406	-0.358398	0.097412	-0.786377
176.0	8.604948	0.763445	4.996065	0.013992	-0.005789	0.003976	-0.362793	0.094971	-0.779297
177.0	8.605157	0.763761	4.995656	0.010288	-0.00156	0.002757	-0.363037	0.101563	-0.78418
178.0	8.57326	0.764613	4.967904	0.00992	0.005274	0.003458	-0.358887	0.108398	-0.782227
179.0	8.620516	0.766742	4.956815	0.009952	0.003288	0.002573	-0.358643	0.106201	-0.786865
180.0	8.571974	0.799577	4.970258	0.004687	0.003513	-0.000225	-0.358398	0.097412	-0.788818
181.0	8.595604	0.800795	4.964685	0.004871	9.6e-05	-0.000576	-0.365234	0.097168	-0.786377
182.0	8.575372	0.816528	4.988171	0.003063	0.003481	-3.3e-05	-0.36084	0.104004	-0.786621
183.0	8.572673	0.76581	4.968732	0.005024	-0.001335	-4.1e-05	-0.356201	0.099609	-0.788818
184.0	8.576126	0.78251	4.986592	0.002759	0.006343	-0.001103	-0.358643	0.101807	-0.779541
185.0	8.557579	0.72936	5.006748	0.00279	0.004357	-0.001988	-0.356445	0.101807	-0.781982
186.0	8.603894	0.76601	4.997487	0.002943	0.002926	-0.001453	-0.363037	0.101807	-0.79126
187.0	8.572826	0.732495	4.968093	0.00267	0.003801	-0.003408	-0.354004	0.097412	-0.788818
188.0	8.55607	0.764863	5.009386	0.004567	0.002958	-0.001645	-0.358643	0.101807	-0.784424
189.0	8.576119	0.749922	4.986112	0.005981	-0.000107	-0.005561	-0.356445	0.101807	-0.781982
190.0	8.598949	0.786083	4.982045	0.004541	-0.003556	-0.005719	-0.36084	0.104004	-0.779785
191.0	8.603537	0.768692	4.997689	0.006375	-0.000427	-0.002187	-0.365234	0.099365	-0.78418
192.0	8.604527	0.734664	4.995736	0.004903	-0.00189	-0.00146	-0.36084	0.099609	-0.786621
193.0	8.580923	0.734115	5.001156	0.00668	-0.003289	-0.001117	-0.356201	0.097412	-0.791016
194.0	8.601216	0.719019	4.977491	0.008424	-0.002702	0.000111	-0.36084	0.101807	-0.78418
195.0	8.609404	0.717858	5.010812	0.008393	-0.000715	0.000995	-0.354004	0.097412	-0.779541
196.0	8.604868	0.736143	4.99493	0.010105	0.001859	0.003107	-0.36084	0.101563	-0.781982
197.0	8.544654	0.754297	4.957085	0.009165	0.003928	-0.004176	-0.36084	0.104004	-0.784424
198.0	8.560772	0.751837	5.024185	0.013659	-0.000939	0.003794	-0.363281	0.106201	-0.784424
199.0	8.580084	0.771366	5.002351	0.013177	-0.003162	-0.001883	-0.365234	0.101563	-0.781982
200.0	8.624129	0.757474	4.972913	0.011826	-0.004069	0.000263	-0.36084	0.104004	-0.784424
201.0	8.605001	0.739097	4.994265	0.013234	0.001367	0.001303	-0.361084	0.106201	-0.779785
202.0	8.603934	0.774113	4.996169	0.00956	0.003608	-0.000803	-0.36084	0.104004	-0.784424
203.0	8.608257	0.756715	5.012299	0.01293	0.004228	0.000232	-0.358398	0.097412	-0.786377
204.0	8.576232	0.757751	4.984735	0.008057	0.004132	0.000808	-0.363037	0.099365	-0.78418
205.0	8.588615	0.738734	5.034476	0.009409	0.005038	-0.001339	-0.356445	0.101807	-0.784424
206.0	8.59953	0.759687	4.979633	0.011459	0.002765	0.00096	-0.363037	0.097168	-0.786377
207.0	8.583666	0.757716	5.019176	0.006008	0.006405	-0.001492	-0.363037	0.099365	-0.78418
208.0	8.579798	0.741684	5.00197	0.007785	0.005006	-0.001148	-0.363281	0.104004	-0.784424
209.0	8.603189	0.74315	4.996785	0.00748	0.007867	-0.00222	-0.36084	0.101807	-0.786621
210.0	8.587147	0.741353	5.036595	0.00736	0.00731	-0.003639	-0.365479	0.104004	-0.79126
211.0	8.602388	0.744347	4.997985	0.005856	0.007835	-0.002029	-0.363037	0.099365	-0.788818
212.0	8.602022	0.744698	4.998563	0.00276	0.006341	-0.001109	-0.363037	0.099365	-0.786621
213.0	8.601625	0.745174	4.999174	0.007208	0.008741	-0.004176	-0.36084	0.099365	-0.781982
214.0	8.602198	0.711297	4.997996	0.00252	0.005228	-0.003948	-0.36084	0.101807	-0.78418
215.0	8.569182	0.746732	4.97226	0.004417	0.004386	-0.002184	-0.356445	0.104004	-0.779785
216.0	8.605241	0.728576	5.016412	0.006282	0.005532	0.000463	-0.36084	0.099365	-0.78418
217.0	8.596933	0.730347	4.983238	0.008059	0.004133	0.000808	-0.363037	0.097168	-0.791016
218.0	8.593184	0.714234	4.965874	0.007939	0.003576	-0.000611	-0.363281	0.106201	-0.782227
219.0	8.601021	0.713279	4.999741	0.011156	0.005627	-0.000111	-0.365479	0.106201	-0.784424
220.0	8.57253	0.730743	4.98987	0.009804	0.004722	0.002036	-0.36084	0.104004	-0.786621
221.0	8.598679	0.782957	5.003832	0.009956	0.003292	0.002573	-0.360596	0.097168	-0.786377
222.0	8.59939	0.748937	5.002456	0.00926	0.006467	-0.001876	-0.36084	0.101807	-0.793701
223.0	8.58656	0.76893	4.953365	0.009564	0.003607	-0.000802	-0.36084	0.104004	-0.784424
224.0	8.587792	0.729641	5.058165	0.00457	0.002955	-0.001647	-0.36084	0.101807	-0.786621
225.0	8.598709	0.750382	5.003411	0.006011	0.006404	-0.001494	-0.354004	0.101807	-0.781982
226.0	8.598436	0.75081	5.003816	0.002674	0.003796	-0.003412	-0.365234	0.101563	-0.78418
227.0	8.59822	0.751237	5.004123	0.002674	0.003796	-0.003412	-0.36084	0.101807	-0.79126
228.0	8.597967	0.751684	5.004491	0.002522	0.005226	-0.00395	-0.363037	0.099365	-0.781982
229.0	8.594043	0.735662	4.987438	0.003962	0.008675	-0.003796	-0.351807	0.101807	-0.786621
230.0	8.589255	0.754188	4.971922	0.002587	0.001251	-0.005713	-0.36084	0.104004	-0.781982
231.0	8.593516	0.736787	4.988181	0.004114	0.007245	-0.003259	-0.354004	0.101807	-0.786621
232.0	8.597594	0.719486	5.004743	0.008837	0.00877	-0.004369	-0.36084	0.104004	-0.784424
233.0	8.612834	0.722492	4.966226	0.007604	0.008424	-0.000803	-0.363037	0.101563	-0.781982
234.0	8.612446	0.722968	4.96683	0.009381	0.007026	-0.000456	-0.363281	0.104004	-0.784424
235.0	8.576115	0.736719	5.029972	0.010822	0.010474	-0.000303	-0.354004	0.099609	-0.786621
236.0	8.568511	0.70413	4.99558	0.009316	0.011	0.001306	-0.363037	0.101563	-0.78418
237.0	8.595209	0.72203	5.008472	0.009046	0.011872	-0.00065	-0.358398	0.097412	-0.786377
238.0	8.570066	0.7561	5.016474	0.011159	0.005627	-0.000109	-0.365723	0.108398	-0.789307
239.0	8.570752	0.722099	5.015201	0.007909	0.005564	0.000272	-0.365234	0.101563	-0.781982
240.0	8.585282	0.759389	4.97799	0.014833	0.003389	0.002005	-0.356201	0.099609	-0.781982
241.0	8.573874	0.7396	5.033369	0.011431	0.004755	0.001848	-0.358643	0.101807	-0.784424
242.0	8.593905	0.724407	5.010365	0.009839	0.002736	0.001158	-0.358643	0.104004	-0.784424
243.0	8.589282	0.742783	4.99458	0.011464	0.002767	0.000967	-0.356445	0.101807	-0.784424
244.0	8.593672	0.725263	5.010641	0.011735	0.001896	0.002924	-0.36084	0.101563	-0.781982
245.0	8.569885	0.724937	5.016273	0.014629	0.000284	-0.001712	-0.356445	0.101807	-0.786621
246.0	8.597088	0.743219	5.028231	0.011227	0.00165	-0.00187	-0.36084	0.104004	-0.781982
247.0	8.620848	0.744927	5.02244	0.013189	-0.003165	-0.001863	-0.363037	0.101807	-0.79126
248.0	8.601637	0.726748	5.043874	0.014988	0.00196	0.002543	-0.365479	0.10376	-0.786621
249.0	8.588895	0.746653	4.994668	0.014381	0.007677	0.000388	-0.356445	0.104004	-0.786621
250.0	8.593933	0.694915	5.009616	0.012605	0.009075	3.9e-05	-0.365234	0.099365	-0.78418
251.0	8.611753	0.748856	4.990361	0.01435	0.009665	0.001267	-0.358643	0.101807	-0.789063
252.0	8.606763	0.767504	4.975151	0.015706	0.010566	-0.00088	-0.365234	0.099365	-0.772705
253.0	8.586993	0.749335	4.997537	0.007458	0.00985	-0.001349	-0.356201	0.097412	-0.786377
254.0	8.583004	0.733435	4.980659	0.014114	0.008546	-0.001569	-0.356445	0.101807	-0.784424
255.0	8.565863	0.76638	5.022089	0.010862	0.008483	-0.001189	-0.354004	0.101807	-0.781982
256.0	8.542777	0.731624	5.026538	0.011198	0.003637	-0.000989	-0.365479	0.106201	-0.789063
257.0	8.565322	0.767694	5.022811	0.011047	0.005066	-0.001529	-0.358398	0.099609	-0.78418
258.0	8.561467	0.751846	5.005704	0.010744	0.007924	-0.002608	-0.358643	0.101807	-0.781982
259.0	8.592858	0.752217	5.03412	0.012674	0.005097	-0.001718	-0.356201	0.097412	-0.786377
260.0	8.585502	0.719946	4.999409	0.012253	0.007395	-0.004216	-0.363281	0.104004	-0.784424
261.0	8.612494	0.738291	5.011693	0.012977	0.002239	-0.000639	-0.358643	0.101807	-0.789063
262.0	8.585182	0.721585	4.999721	0.012891	-0.00031	-0.002935	-0.354004	0.099609	-0.779541
263.0	8.56029	0.756092	5.007076	0.015776	0.006588	-0.002638	-0.356201	0.099609	-0.78418
264.0	8.596205	0.738838	5.051373	0.012438	0.003976	-0.004555	-0.36084	0.104004	-0.79126
265.0	8.564132	0.740087	5.023881	0.014236	0.009106	-0.000154	-0.363037	0.101563	-0.786621
266.0	8.583925	0.725159	5.001363	0.012492	0.008514	-0.001382	-0.358643	0.104004	-0.789063
267.0	8.558796	0.759475	5.009119	0.016015	0.007708	0.000197	-0.363037	0.101807	-0.789063
268.0	8.56192	0.776866	5.027199	0.014271	0.007116	-0.001031	-0.356445	0.101807	-0.786621
269.0	8.589953	0.760611	5.037814	0.016772	0.000565	0.002901	-0.365234	0.099365	-0.78418
270.0	8.58185	0.762683	5.004347	0.014187	0.004566	-0.003326	-0.365234	0.099365	-0.78418
271.0	8.585152	0.780128	5.022107	0.014725	0.00283	0.000591	-0.36084	0.101563	-0.779541
272.0	8.584919	0.780942	5.022379	0.01241	0.005963	-0.003678	-0.356445	0.101807	-0.786621
273.0	8.593488	0.746153	5.054919	0.014004	0.007983	-0.002991	-0.356445	0.101807	-0.784424
274.0	8.561307	0.747364	5.027617	0.012344	0.009941	-0.001926	-0.358398	0.099365	-0.777344
275.0	8.584425	0.749129	5.022965	0.011892	0.014226	-0.00355	-0.36084	0.099365	-0.78418
276.0	8.580271	0.733425	5.006425	0.013821	0.0114	-0.002657	-0.36084	0.101807	-0.786621
277.0	8.559538	0.749788	5.030268	0.007767	0.006991	-0.000276	-0.358398	0.097412	-0.791016
278.0	8.582885	0.751437	5.025252	0.017378	0.008606	-0.001951	-0.354004	0.099609	-0.777344
279.0	8.538505	0.767026	5.054469	0.011172	0.005625	-0.000112	-0.354004	0.099609	-0.781982
280.0	8.601555	0.771667	5.004455	0.014578	0.004259	5.2e-05	-0.36084	0.104004	-0.786621
281.0	8.582132	0.753631	5.02621	0.016507	0.001434	0.000947	-0.358398	0.097412	-0.793457
282.0	8.554837	0.736831	5.014263	0.016508	0.001434	0.000947	-0.36084	0.101563	-0.777344
283.0	8.578486	0.738416	5.00875	0.013103	0.0028	0.000782	-0.358398	0.099609	-0.78418
284.0	8.581784	0.755652	5.0265	0.014697	0.00482	0.001468	-0.358643	0.104004	-0.786621
285.0	8.585993	0.738606	5.042868	0.015939	0.005155	-0.002097	-0.356445	0.101807	-0.786621
286.0	8.573364	0.758464	4.993497	0.018222	0.004017	0.00305	-0.362793	0.097168	-0.78418
287.0	8.592425	0.777823	4.972155	0.011176	0.005624	-0.000115	-0.363037	0.099365	-0.781982
288.0	8.604441	0.759433	5.022353	0.015992	0.009697	0.001068	-0.36084	0.101807	-0.78418
289.0	8.615336	0.780032	4.967825	0.01262	0.009072	2.8e-05	-0.358398	0.097168	-0.78418
290.0	8.590114	0.814249	4.975589	0.01247	0.0105	-0.000515	-0.358643	0.101807	-0.779541
291.0	8.595024	0.762602	4.991023	0.012471	0.0105	-0.000515	-0.356445	0.101807	-0.784424
292.0	8.602343	0.762087	5.025544	0.010542	0.013324	-0.001413	-0.365479	0.10376	-0.781982
293.0	8.597221	0.780622	5.010508	0.010426	0.012761	-0.00283	-0.356445	0.104004	-0.789063
294.0	8.569307	0.763742	4.999653	0.00702	0.014127	-0.002998	-0.36084	0.099609	-0.788818
295.0	8.548284	0.780101	5.023878	0.007021	0.014127	-0.002998	-0.36084	0.101807	-0.78418
296.0	8.543188	0.798599	5.008795	0.008833	0.010739	-0.003515	-0.360596	0.094971	-0.774658
297.0	8.567451	0.765787	5.00252	0.009017	0.007321	-0.003845	-0.354004	0.099609	-0.781982
298.0	8.570556	0.783271	5.020496	0.00905	0.005331	-0.004718	-0.365479	0.10376	-0.784424
299.0	8.590547	0.768316	4.99785	0.009167	0.005894	-0.003301	-0.36084	0.101807	-0.78418
300.0	8.57429	0.76699	5.037559	0.007239	0.008718	-0.004201	-0.358398	0.095215	-0.788818
301.0	8.590879	0.735198	4.997371	0.006246	0.000987	-0.002711	-0.354004	0.099609	-0.78418
302.0	8.573759	0.768271	5.038268	0.005495	0.008123	-0.005431	-0.361084	0.106201	-0.784424
303.0	8.568892	0.786797	5.022784	0.00739	0.00729	-0.003658	-0.36084	0.104004	-0.786621
304.0	8.593273	0.753825	5.016385	0.009401	0.007021	-0.000468	-0.36084	0.099365	-0.781982
305.0	8.541976	0.73595	5.010463	0.009169	0.005894	-0.003301	-0.354004	0.099609	-0.78418
306.0	8.589115	0.73852	4.999912	0.012508	0.00851	-0.001387	-0.365234	0.099365	-0.78418
307.0	8.592196	0.755856	5.017924	0.01118	0.005625	-0.000111	-0.365234	0.097168	-0.788818
308.0	8.568217	0.755516	5.023754	0.014854	0.003396	0.002019	-0.360596	0.097168	-0.781738
309.0	8.556772	0.74054	4.972799	0.018378	0.002594	0.003606	-0.355957	0.095215	-0.788818
310.0	8.560074	0.757755	4.990442	0.014971	0.00396	0.003435	-0.356445	0.101807	-0.789063
311.0	8.545181	0.721846	5.028134	0.018596	-0.002815	0.002407	-0.360596	0.094971	-0.781738
312.0	8.567053	0.792307	5.025055	0.017051	-0.00029	0.004882	-0.356201	0.099609	-0.786621
313.0	8.56717	0.792899	5.024762	0.016853	-0.003411	0.001178	-0.363037	0.101563	-0.786621
314.0	8.567254	0.793667	5.024497	0.020043	0.000633	0.002546	-0.358643	0.101807	-0.789063
315.0	8.591059	0.795403	5.018746	0.018333	-0.001954	0.000446	-0.360596	0.092773	-0.783936
316.0	8.591114	0.796247	5.018518	0.0183	3.7e-05	0.001316	-0.365234	0.101563	-0.781982
317.0	8.587677	0.780139	5.00095	0.01353	0.000511	0.003294	-0.363037	0.097168	-0.791016
318.0	8.567432	0.796558	5.023736	0.013215	-0.003176	-0.001824	-0.363037	0.099365	-0.779541
319.0	8.595727	0.780414	5.034045	0.011553	-0.001214	-0.000766	-0.358398	0.099609	-0.786621
320.0	8.568656	0.763411	5.021812	0.011853	-0.004067	0.000325	-0.363037	0.101807	-0.789063
321.0	8.616388	0.765875	5.010254	0.013366	-0.004603	-0.001278	-0.365234	0.099365	-0.78418
322.0	8.589359	0.749003	4.997934	0.013333	-0.002611	-0.000408	-0.356445	0.104004	-0.786621
323.0	8.59274	0.766573	5.015365	0.014212	0.004551	-0.003326	-0.358398	0.097168	-0.781738
324.0	8.587875	0.785143	4.999826	0.010703	0.011893	-0.000888	-0.358643	0.106201	-0.786865
325.0	8.618966	0.785506	5.028741	0.012865	0.010202	0.002848	-0.356445	0.101807	-0.781982
326.0	8.610462	0.787027	4.996147	0.010521	0.015311	-0.000566	-0.363037	0.099365	-0.786621
327.0	8.589511	0.803407	5.020122	0.005734	0.009244	-0.002612	-0.358398	0.094971	-0.786377
328.0	8.566239	0.768521	5.025155	0.009225	0.010436	-0.000155	-0.356201	0.099609	-0.779541
329.0	8.565762	0.768987	5.025897	0.00763	0.008414	-0.000837	-0.360596	0.094971	-0.788818
330.0	8.541587	0.768666	5.032041	0.007398	0.007282	-0.003668	-0.363037	0.099365	-0.78418
331.0	8.561566	0.75344	5.00958	0.005919	0.005825	-0.002935	-0.358398	0.099609	-0.788818
332.0	8.564763	0.770792	5.027323	0.007732	0.002437	-0.003444	-0.360596	0.097168	-0.7771
333.0	8.561175	0.754777	5.010046	0.011107	0.003064	-0.002402	-0.358398	0.094971	-0.786377
334.0	8.540658	0.77128	5.033217	0.009594	0.0036	-0.0008	-0.363037	0.101563	-0.786621
335.0	8.564253	0.772839	5.027878	0.009362	0.002467	-0.003631	-0.363037	0.101563	-0.786621
336.0	8.583498	0.792055	5.006248	0.008264	0.000717	0.000481	-0.367676	0.101563	-0.78418
337.0	8.540371	0.773006	5.03344	0.009778	0.000181	-0.001121	-0.356201	0.097412	-0.781738
338.0	8.55973	0.79216	5.011622	0.008298	-0.001275	-0.000387	-0.358398	0.097168	-0.78418
339.0	8.579128	0.811241	4.989745	0.008298	-0.001275	-0.000387	-0.358643	0.101807	-0.786621
340.0	8.560809	0.758481	5.010112	0.006635	0.000687	0.000668	-0.358398	0.099609	-0.781982
341.0	8.607268	0.795047	5.00038	0.006485	0.002113	0.00012	-0.358398	0.099609	-0.78418
342.0	8.564117	0.775938	5.027632	0.006403	-0.000446	-0.002163	-0.365234	0.097168	-0.78418
343.0	8.564102	0.776428	5.027581	0.009894	0.000747	0.000294	-0.363037	0.101563	-0.781982
344.0	8.586866	0.812364	5.023204	0.004542	-0.00161	-0.004807	-0.360596	0.097168	-0.786377
345.0	8.587867	0.778477	5.021875	0.004508	0.000383	-0.003939	-0.358398	0.097412	-0.791016
346.0	8.58781	0.778935	5.021902	0.002994	0.000919	-0.002337	-0.363037	0.101563	-0.781982
347.0	8.563949	0.778569	5.02751	0.005988	0.001839	-0.004673	-0.356201	0.099609	-0.79126
348.0	8.606869	0.798848	5.00046	0.009214	0.003892	-0.004179	-0.36499	0.094971	-0.783936
349.0	8.580622	0.747348	4.987358	0.006554	-0.001872	-0.001615	-0.358398	0.097412	-0.788818
350.0	8.582954	0.799037	5.006072	0.00444	0.004368	-0.002204	-0.36499	0.094971	-0.774658
351.0	8.607704	0.766074	4.999264	0.009732	-0.004371	-0.004271	-0.358398	0.094971	-0.779297
352.0	8.588485	0.748096	5.020689	0.010045	-0.000677	0.000842	-0.358643	0.104004	-0.786621
353.0	8.572695	0.746745	5.059537	0.01186	-0.004065	0.000335	-0.358398	0.097412	-0.786377
354.0	8.568546	0.765048	5.042775	0.01379	-0.006887	0.001244	-0.36084	0.099365	-0.779541
355.0	8.562014	0.732008	5.007351	0.012126	-0.004924	0.002298	-0.363281	0.104004	-0.789063
356.0	8.565678	0.749223	5.024281	0.017248	-0.003699	0.004567	-0.362793	0.097168	-0.78418
357.0	8.558141	0.75082	4.990028	0.018832	-0.008223	0.001231	-0.363037	0.101563	-0.78418
358.0	8.565329	0.785145	5.024135	0.017018	-0.004834	0.001736	-0.356445	0.101807	-0.784424
359.0	8.561306	0.803385	5.007142	0.014359	-0.010596	0.004305	-0.358643	0.101807	-0.786621
360.0	8.582171	0.78796	4.98322	0.015723	-0.009709	0.002154	-0.363281	0.104004	-0.786621
361.0	8.587138	0.770776	4.998439	0.01599	-0.010566	0.004117	-0.358398	0.099609	-0.788818
362.0	8.591075	0.788167	5.014872	0.015458	-0.008852	0.00019	-0.358398	0.097168	-0.779541
363.0	8.611792	0.772819	4.99118	0.01228	-0.00635	0.002846	-0.360596	0.097168	-0.78418
364.0	8.592743	0.754757	5.012399	0.013494	-0.004038	0.000145	-0.36084	0.101563	-0.781982
365.0	8.607877	0.791379	4.973916	0.010883	-0.005243	0.005863	-0.358398	0.099609	-0.786621
366.0	8.588862	0.773097	4.995117	0.010268	-0.006092	-0.000345	-0.363037	0.101563	-0.781982
367.0	8.584685	0.791199	4.978374	0.013995	-0.003758	0.004938	-0.363037	0.101563	-0.78418
368.0	8.589381	0.773857	4.994107	0.010385	-0.005524	0.00107	-0.367188	0.092773	-0.783936
369.0	8.588728	0.808875	4.994575	0.017325	-0.007687	0.002831	-0.365234	0.097168	-0.786377
370.0	8.617338	0.792582	5.004463	0.014064	-0.007746	0.003207	-0.36084	0.099365	-0.779541
371.0	8.586045	0.793172	4.975715	0.01353	-0.006034	-0.000721	-0.365234	0.101563	-0.78418
372.0	8.590843	0.776021	4.991255	0.012434	-0.007776	0.003395	-0.367676	0.101563	-0.777344
373.0	8.610475	0.795023	4.968836	0.010119	-0.004668	-0.000894	-0.360596	0.097168	-0.779541
374.0	8.567764	0.776247	4.995482	0.010337	-0.010082	-0.002074	-0.36084	0.101563	-0.781982
375.0	8.571782	0.793621	5.011783	0.007377	-0.012991	-0.000597	-0.363037	0.097168	-0.786377
376.0	8.592622	0.778305	4.987838	0.010071	-0.009227	-0.004038	-0.363037	0.101807	-0.789063
377.0	8.612428	0.797607	4.965036	0.008742	-0.012106	-0.00275	-0.363037	0.101807	-0.789063
378.0	8.616421	0.814964	4.981373	0.005446	-0.01017	-0.001509	-0.365234	0.099365	-0.78418
379.0	8.614463	0.764155	4.961964	0.006961	-0.010711	-0.003111	-0.36084	0.099609	-0.786621
380.0	8.594595	0.780658	4.984068	0.005145	-0.007321	-0.002609	-0.360596	0.097168	-0.78418
381.0	8.610929	0.782829	4.943953	0.005632	-0.01359	-0.001823	-0.363281	0.10376	-0.781982
382.0	8.595649	0.781614	4.982101	0.005179	-0.009315	-0.003473	-0.367676	0.10376	-0.786621
383.0	8.59262	0.765441	4.963903	0.008441	-0.009257	-0.003851	-0.363037	0.099365	-0.78418
384.0	8.624722	0.766213	4.991068	0.01019	-0.008657	-0.002626	-0.362793	0.094971	-0.781738
385.0	8.597874	0.749162	4.97858	0.008525	-0.006692	-0.001573	-0.365234	0.101563	-0.781982
386.0	8.601699	0.766534	4.99522	0.008677	-0.008117	-0.001023	-0.370117	0.108154	-0.789063
387.0	8.594126	0.768009	4.960897	0.010039	-0.007233	-0.003177	-0.367432	0.097168	-0.781738
388.0	8.622746	0.752038	4.970743	0.015353	-0.009424	-0.00123	-0.363037	0.101563	-0.78418
389.0	8.622212	0.787159	4.970908	0.014227	-0.009168	0.003751	-0.365234	0.099365	-0.786621
390.0	8.623681	0.753184	4.968946	0.013841	-0.008884	0.000373	-0.365234	0.101563	-0.779541
391.0	8.59579	0.770435	4.957637	0.014009	-0.003753	0.004927	-0.362793	0.097168	-0.781738
392.0	8.619713	0.771782	4.951656	0.013353	-0.002615	-0.000416	-0.365234	0.097168	-0.779541
393.0	8.597079	0.736957	4.955923	0.011957	-0.001504	0.002601	-0.363037	0.099365	-0.78418
394.0	8.619964	0.772721	4.951072	0.011991	-0.003499	0.001738	-0.367676	0.101563	-0.78418
395.0	8.597495	0.737981	4.955049	0.015322	-0.007432	-0.000367	-0.363037	0.101563	-0.781982
396.0	8.592451	0.790967	4.938938	0.018889	-0.010223	0.000356	-0.365234	0.101563	-0.78418
397.0	8.64166	0.758707	4.925343	0.015142	-0.017715	0.00706	-0.365234	0.097168	-0.78418
398.0	8.650458	0.75834	4.957411	0.017715	-0.014526	0.002198	-0.365234	0.101563	-0.779541
399.0	8.64662	0.776488	4.939925	0.014385	-0.010593	0.004303	-0.36084	0.101563	-0.781982
400.0	8.643592	0.760138	4.921731	0.013693	-0.007463	-0.000179	-0.365234	0.099365	-0.78418
401.0	8.648307	0.743083	4.937524	0.013593	-0.001475	0.002406	-0.362793	0.092773	-0.783936
402.0	8.623653	0.777087	4.94396	0.01208	-0.000933	0.00401	-0.365234	0.101563	-0.781982
403.0	8.619255	0.794974	4.927479	0.01033	-0.001533	0.002787	-0.362793	0.094971	-0.786377
404.0	8.599232	0.811325	4.949949	0.01055	-0.006949	0.001616	-0.367676	0.101563	-0.781982
405.0	8.600535	0.777327	4.948324	0.006627	-0.005873	-0.003346	-0.365234	0.099365	-0.779541
406.0	8.572619	0.794455	4.937056	0.005655	-0.007035	0.002188	-0.362793	0.097168	-0.78418
407.0	8.601185	0.777898	4.947104	0.007017	-0.006154	3.2e-05	-0.36499	0.094971	-0.779297
408.0	8.621781	0.762151	4.923526	0.003787	-0.008208	-0.000447	-0.365234	0.101563	-0.781982
409.0	8.61766	0.780122	4.90653	0.005148	-0.007327	-0.002603	-0.367432	0.099365	-0.777344
410.0	8.627052	0.745264	4.938344	0.005571	-0.009603	-8.6e-05	-0.36084	0.101563	-0.781982
411.0	8.623084	0.763308	4.921065	0.007119	-0.012143	-0.002551	-0.367676	0.10376	-0.781982
412.0	8.623763	0.763809	4.919797	0.009327	-0.015815	0.000327	-0.367676	0.101563	-0.78418
413.0	8.628904	0.746764	4.934881	0.008598	-0.010691	-0.003295	-0.360596	0.097168	-0.779541
414.0	8.645124	0.749035	4.894692	0.010349	-0.01009	-0.002073	-0.369629	0.097168	-0.779541
415.0	8.648993	0.766562	4.911236	0.008379	-0.005274	-0.002126	-0.369873	0.099365	-0.788818
416.0	8.664994	0.768546	4.871455	0.012424	-0.005776	0.004248	-0.369873	0.099365	-0.779541
417.0	8.629346	0.783311	4.933031	0.00877	-0.005554	0.001252	-0.365234	0.099365	-0.786621
418.0	8.621535	0.784486	4.899022	0.011728	-0.002648	-0.000235	-0.369873	0.101563	-0.786621
419.0	8.626248	0.767292	4.914897	0.007139	-0.005582	0.001444	-0.358398	0.099365	-0.779541
420.0	8.622016	0.785112	4.898075	0.00889	-0.004981	0.002665	-0.369629	0.097168	-0.78418
421.0	8.634912	0.767145	4.947259	0.008838	-0.009547	-0.000468	-0.365234	0.097168	-0.786377
422.0	8.649987	0.803627	4.908292	0.005116	-0.005332	-0.001742	-0.367676	0.101563	-0.786621
423.0	8.651181	0.76954	4.906914	0.006714	-0.003307	-0.001074	-0.369873	0.099365	-0.78418
424.0	8.678501	0.787782	4.91832	0.009792	0.000171	-0.001151	-0.36084	0.104004	-0.779785
425.0	8.631973	0.752156	4.92869	0.008007	0.001566	-0.001512	-0.365479	0.10376	-0.779785
426.0	8.6737	0.806537	4.902335	0.007396	0.007262	-0.003723	-0.37207	0.101563	-0.779541
427.0	8.638326	0.787065	4.964226	0.004217	0.009775	-0.001068	-0.36499	0.094971	-0.781738
428.0	8.626298	0.771197	4.914197	0.00585	0.009803	-0.001259	-0.36084	0.099365	-0.78418
429.0	8.649557	0.772142	4.909368	0.003095	0.010042	0.003914	-0.36499	0.092773	-0.783936
430.0	8.601551	0.770521	4.921593	0.007568	0.012402	0.000821	-0.37207	0.101563	-0.779541
431.0	8.625819	0.737227	4.915764	0.006037	0.006382	-0.001566	-0.365234	0.097168	-0.781738
432.0	8.624421	0.772092	4.91735	0.011257	0.010184	0.002957	-0.367676	0.101563	-0.78418
433.0	8.628451	0.75486	4.934441	0.011138	0.009611	0.001545	-0.36499	0.094971	-0.781738
434.0	8.611367	0.788258	4.975142	0.013229	0.005368	0.003014	-0.362793	0.097168	-0.781738
435.0	8.599592	0.772485	4.924706	0.012958	0.006218	0.001048	-0.365234	0.101563	-0.779541
436.0	8.63454	0.790229	4.970304	0.014472	0.005672	-0.000556	-0.365234	0.099365	-0.781982
437.0	8.618363	0.791943	4.9034	0.008637	0.002436	0.004694	-0.363037	0.101563	-0.779541
438.0	8.630702	0.773874	4.953553	0.009846	0.004737	0.001983	-0.365234	0.097168	-0.779541
439.0	8.621543	0.80943	4.921119	0.011513	0.002768	0.000934	-0.365479	0.10376	-0.784424
440.0	8.618914	0.7585	4.9031	0.009762	0.002166	-0.000288	-0.369873	0.099365	-0.779541
441.0	8.673206	0.79445	4.926582	0.007944	0.005559	0.000207	-0.367432	0.099365	-0.788818
442.0	8.642158	0.760158	4.898214	0.007791	0.006982	-0.000347	-0.367432	0.099365	-0.774902
443.0	8.649724	0.760017	4.932462	0.00912	0.009857	-0.001646	-0.367432	0.094971	-0.781738
444.0	8.657201	0.759865	4.96686	0.007606	0.010403	-4.3e-05	-0.367676	0.10376	-0.775146
445.0	8.62478	0.760155	4.940042	0.013885	0.017931	0.001213	-0.367676	0.101563	-0.779541
446.0	8.623967	0.760541	4.941403	0.004004	0.015191	8.7e-05	-0.369873	0.101563	-0.779541
447.0	8.594969	0.777548	4.931974	0.010773	0.016451	0.002149	-0.367432	0.097168	-0.779541
448.0	8.614447	0.761743	4.910443	0.007389	0.015821	0.001118	-0.37207	0.101563	-0.78418
449.0	8.620652	0.795946	4.946192	0.007272	0.015246	-0.000294	-0.36084	0.099365	-0.78418
450.0	8.600656	0.777974	4.969347	0.009057	0.013851	7e-05	-0.365479	0.10376	-0.779785
451.0	8.620277	0.762231	4.947577	0.007576	0.0124	0.000815	-0.363037	0.099365	-0.781982
452.0	8.607296	0.78069	4.898567	0.007728	0.010976	0.00137	-0.367432	0.099365	-0.78418
453.0	8.587503	0.762686	4.921367	0.007493	0.009827	-0.001455	-0.367676	0.101563	-0.781982
454.0	8.615408	0.746346	4.932616	0.00825	0.002712	0.00132	-0.369629	0.094971	-0.7771
455.0	8.610755	0.764088	4.916549	0.010085	0.005886	0.004811	-0.363037	0.099365	-0.781982
456.0	8.634215	0.765214	4.911416	0.007678	0.006406	-0.001757	-0.367432	0.099365	-0.779541
457.0	8.618123	0.764261	4.951015	0.011483	0.004765	0.001798	-0.365234	0.099365	-0.78418
458.0	8.660904	0.78393	4.923836	0.012965	0.006216	0.001053	-0.363037	0.099365	-0.772705
459.0	8.621032	0.78225	4.969052	0.012966	0.006215	0.001053	-0.358398	0.099609	-0.78418
460.0	8.636557	0.784209	4.930298	0.012966	0.006215	0.001053	-0.362793	0.097168	-0.78418
461.0	8.612492	0.783729	4.93638	0.009935	0.00731	0.004255	-0.365234	0.101563	-0.78418
462.0	8.587405	0.817677	4.943361	0.009549	0.007582	0.000876	-0.367432	0.099365	-0.78418
463.0	8.607249	0.801966	4.92126	0.009247	0.010428	-0.000235	-0.36084	0.099365	-0.78418
464.0	8.638471	0.802686	4.949985	0.004146	0.007197	-0.003347	-0.367676	0.101563	-0.78418
465.0	8.587116	0.784638	4.944515	0.005779	0.007224	-0.003536	-0.367432	0.099365	-0.781982
466.0	8.614982	0.768541	4.955817	0.005813	0.005226	-0.004392	-0.365234	0.097168	-0.781738
467.0	8.619132	0.751565	4.972644	0.004297	0.005774	-0.002791	-0.367432	0.099365	-0.786621
468.0	8.615355	0.735091	4.955913	0.007682	0.006404	-0.001758	-0.363037	0.101563	-0.777344
469.0	8.610587	0.753119	4.939999	0.004297	0.005774	-0.002791	-0.365479	0.10376	-0.781982
470.0	8.610316	0.753648	4.940392	0.007716	0.004406	-0.002613	-0.365234	0.101563	-0.781982
471.0	8.589824	0.770398	4.963412	0.006116	0.00238	-0.00328	-0.37207	0.099365	-0.788818
472.0	8.637187	0.772762	4.95241	0.011017	0.002463	-0.003847	-0.369873	0.099365	-0.78418
473.0	8.637066	0.773513	4.952505	0.009652	0.001589	-0.00169	-0.363037	0.099365	-0.779541
474.0	8.613163	0.773225	4.95825	0.009735	0.004163	0.000577	-0.362793	0.097168	-0.779541
475.0	8.609558	0.75667	4.94125	0.008135	0.002137	-9e-05	-0.363037	0.101563	-0.781982
476.0	8.625217	0.758413	4.902363	0.009702	0.006161	0.001432	-0.369873	0.101563	-0.779541
477.0	8.664426	0.758506	4.964549	0.011302	0.008187	0.002098	-0.363037	0.097168	-0.788818
478.0	8.64109	0.723573	4.970272	0.007281	0.015244	-0.000308	-0.367676	0.101563	-0.781982
479.0	8.651785	0.742897	4.9159	0.012451	0.01448	0.001094	-0.367432	0.097168	-0.786377
480.0	8.634237	0.776448	4.956976	0.011085	0.013606	0.003251	-0.369873	0.099365	-0.78418
481.0	8.606366	0.759104	4.946435	0.012336	0.013903	-0.000317	-0.367432	0.099365	-0.78418
482.0	8.586324	0.741398	4.969558	0.008801	0.014694	-0.001909	-0.367432	0.099365	-0.777344
483.0	8.57571	0.811471	4.938701	0.008918	0.01527	-0.000498	-0.37207	0.099365	-0.781982
484.0	8.608608	0.743169	4.966421	0.007435	0.01382	0.000247	-0.369873	0.099365	-0.781982
485.0	8.579721	0.760459	4.956654	0.00857	0.013541	-0.004732	-0.363037	0.099365	-0.788818
486.0	8.630105	0.779913	4.963623	0.014191	0.008511	-0.001655	-0.365234	0.097168	-0.779541
487.0	8.583192	0.744529	4.974497	0.009322	0.00643	-0.001946	-0.365234	0.097168	-0.78418
488.0	8.626054	0.764358	4.9473	0.00939	0.002432	-0.003653	-0.367432	0.097168	-0.779541
489.0	8.662197	0.750285	4.885496	0.011175	0.001038	-0.003284	-0.365234	0.101563	-0.786621
490.0	8.661208	0.785743	4.886067	0.012878	-0.002933	-0.005178	-0.365234	0.097168	-0.779541
491.0	8.68505	0.787566	4.880228	0.007708	-0.00217	-0.006584	-0.365234	0.101563	-0.78418
492.0	8.70445	0.806786	4.857986	0.004323	-0.002802	-0.007619	-0.363037	0.101563	-0.779541
493.0	8.688413	0.806753	4.897154	0.006342	0.004053	-0.015575	-0.36084	0.099365	-0.781982
494.0	8.74572	0.861131	4.93816	-0.00468	0.008688	-0.022882	-0.367676	0.101563	-0.772705
495.0	8.724589	0.879168	4.961924	-0.00528	0.014375	-0.025113	-0.369385	0.092773	-0.786377
496.0	8.730411	0.917625	4.891668	-0.006598	0.025171	-0.030987	-0.369629	0.097168	-0.781738
497.0	8.681085	0.918354	4.905458	-0.007417	0.036277	-0.03207	-0.367432	0.097168	-0.781738
498.0	8.69223	0.988973	4.977899	-0.001582	0.048073	-0.03249	-0.365234	0.099365	-0.78418
499.0	8.637126	1.007469	4.977367	-0.002621	0.064596	-0.032425	-0.360596	0.097168	-0.786377
500.0	8.643322	0.940388	5.015518	-0.002528	0.073742	-0.026191	-0.367432	0.099365	-0.781982
501.0	8.574501	0.974039	5.073	-0.003265	0.080846	-0.028983	-0.363037	0.099365	-0.78418
502.0	8.596595	1.031101	4.986285	-0.000203	0.08632	-0.028206	-0.36084	0.099365	-0.781982
503.0	8.517312	1.01372	4.992857	0.003531	0.088683	-0.022932	-0.363037	0.099365	-0.779541
504.0	8.43394	1.01282	4.982526	-0.018152	0.076889	-0.015898	-0.363037	0.101563	-0.779541
505.0	8.440958	1.187159	4.953061	-0.013419	0.058161	-0.013801	-0.36084	0.099365	-0.779541
506.0	8.457715	1.084979	4.91655	-0.025491	0.049966	-0.007581	-0.365234	0.097168	-0.791016
507.0	8.447667	1.20484	4.90657	-0.051563	0.038911	-0.01035	-0.358643	0.101807	-0.786621
508.0	8.503362	1.135445	4.931443	-0.056009	0.027984	-0.012107	-0.356201	0.097412	-0.791016
509.0	8.507221	1.239148	4.863882	-0.0694	0.019439	-0.018869	-0.360596	0.097168	-0.781738
510.0	8.562386	1.24134	4.782821	-0.071054	0.014835	-0.021813	-0.356445	0.101807	-0.781982
511.0	8.614958	1.152251	4.894834	-0.0801	0.00097	-0.021927	-0.358643	0.101807	-0.789063
512.0	8.625124	1.241021	4.73606	-0.101192	0.003673	-0.032427	-0.354004	0.099609	-0.78418
513.0	8.655241	1.153307	4.746571	-0.103952	-0.00266	-0.031261	-0.358643	0.101807	-0.789063
514.0	8.673294	1.204034	4.726721	-0.110529	-0.005365	-0.032815	-0.358643	0.101807	-0.786621
515.0	8.625517	1.199725	4.738308	-0.112392	-0.004555	-0.034606	-0.36084	0.104004	-0.784424
516.0	8.672168	1.113294	4.709195	-0.120526	-0.00473	-0.033707	-0.36084	0.104004	-0.779785
517.0	8.639417	1.144294	4.682973	-0.124595	-0.002838	-0.024131	-0.365479	0.10376	-0.784424
518.0	8.593086	1.103821	4.693407	-0.127081	-0.010033	-0.021019	-0.356689	0.108398	-0.782227
519.0	8.619692	1.031838	4.686073	-0.118337	-0.01357	-0.018861	-0.363281	0.108398	-0.779785
520.0	8.591983	1.044297	4.675169	-0.112323	-0.014334	-0.009266	-0.365723	0.110596	-0.782227
521.0	8.614718	0.989663	4.650505	-0.099325	-0.025778	-0.002765	-0.358887	0.108398	-0.784668
522.0	8.728263	0.870503	4.566834	-0.113443	-0.043529	0.008994	-0.361328	0.112793	-0.784668
523.0	8.64712	1.086147	4.57176	-0.106745	-0.044819	0.008812	-0.359131	0.112793	-0.784668
524.0	8.646987	1.025265	4.655445	-0.096753	-0.06829	0.010427	-0.361328	0.11499	-0.780029
525.0	8.731142	1.111455	4.581525	-0.094829	-0.078307	0.022416	-0.36792	0.108398	-0.786865
526.0	8.703686	1.105434	4.547081	-0.091224	-0.08763	0.019101	-0.356934	0.11499	-0.784912
527.0	8.828086	1.070303	4.511697	-0.092257	-0.09139	0.022328	-0.368164	0.11499	-0.784668
528.0	8.867677	1.085093	4.444219	-0.097188	-0.087528	0.024622	-0.36792	0.110596	-0.782227
529.0	8.846783	1.11201	4.444671	-0.10434	-0.084524	0.020891	-0.363525	0.11499	-0.780029
530.0	8.917541	1.12653	4.405923	-0.109449	-0.083775	0.01948	-0.365967	0.119385	-0.780273
531.0	8.933668	1.100796	4.449551	-0.113273	-0.078146	0.017682	-0.365967	0.11499	-0.782471
532.0	8.941561	1.076365	4.460355	-0.122964	-0.066601	0.010912	-0.370605	0.119385	-0.780273
533.0	8.901367	1.050058	4.483285	-0.127779	-0.054944	0.003591	-0.368408	0.119385	-0.782715
534.0	8.862908	1.074944	4.526517	-0.133648	-0.047048	-0.0005	-0.364014	0.125977	-0.77832
535.0	8.782198	1.045475	4.595981	-0.136953	-0.035902	-0.00941	-0.364014	0.123779	-0.778076
536.0	8.692061	1.052139	4.634345	-0.144213	-0.033439	-0.014535	-0.368408	0.119385	-0.773438
537.0	8.599686	1.007974	4.653246	-0.149611	-0.036339	-0.021082	-0.366211	0.125977	-0.773682
538.0	8.502966	0.976195	4.762321	-0.151757	-0.03916	-0.028007	-0.368652	0.125977	-0.775879
539.0	8.420233	0.896374	4.81186	-0.149463	-0.051364	-0.030162	-0.368652	0.125977	-0.773682
540.0	8.343555	0.890338	4.791482	-0.149358	-0.066367	-0.039247	-0.373291	0.130371	-0.771484
541.0	8.309628	0.813749	4.827352	-0.147436	-0.07824	-0.044797	-0.361816	0.123779	-0.775879
542.0	8.264985	0.716188	4.9175	-0.144064	-0.075643	-0.04287	-0.37085	0.128174	-0.769043
543.0	8.258166	0.664357	4.858608	-0.14547	-0.078286	-0.058166	-0.366455	0.130371	-0.776123
544.0	8.278247	0.630947	4.812042	-0.137754	-0.069286	-0.057492	-0.37085	0.128174	-0.769043
545.0	8.27574	0.555713	4.876174	-0.127	-0.046918	-0.06549	-0.371094	0.130371	-0.769043
546.0	8.346185	0.508445	4.836524	-0.122311	-0.02703	-0.070237	-0.368896	0.132568	-0.776123
547.0	8.395296	0.476772	4.822141	-0.119342	-0.003221	-0.072979	-0.368652	0.125977	-0.77124
548.0	8.436944	0.413024	4.773008	-0.114586	0.002839	-0.070854	-0.373291	0.132568	-0.771484
549.0	8.564682	0.291375	4.859585	-0.111156	0.001486	-0.07072	-0.373291	0.130371	-0.766846
550.0	8.746931	0.204554	4.970185	-0.113331	-0.0047	-0.064886	-0.366455	0.132568	-0.769287
551.0	9.07303	0.303046	4.984362	-0.109028	-0.045963	-0.053163	-0.37085	0.125977	-0.773682
552.0	9.31721	0.398779	4.747297	-0.079793	-0.102163	-0.033622	-0.371338	0.136963	-0.773926
553.0	9.405078	0.396885	4.555763	-0.06752	-0.140702	-0.00741	-0.371094	0.134766	-0.771484
554.0	9.322246	0.343424	4.47184	-0.069797	-0.155378	0.006515	-0.373535	0.134766	-0.764648
555.0	9.261841	0.325039	4.384143	-0.065674	-0.157982	0.011949	-0.373535	0.136963	-0.764648
556.0	9.222182	0.198479	4.355498	-0.081989	-0.155066	0.014284	-0.375732	0.134766	-0.764648
557.0	9.207792	0.122466	4.342538	-0.103313	-0.139897	0.024112	-0.373535	0.134766	-0.76001
558.0	9.293772	0.176573	4.260018	-0.090935	-0.143707	0.029061	-0.375732	0.13916	-0.764893
559.0	9.353543	0.1797	4.162869	-0.066141	-0.130381	0.02461	-0.375732	0.136963	-0.76001
560.0	9.358672	-0.149276	4.07538	-0.066012	-0.105971	0.041788	-0.380615	0.143555	-0.762695
561.0	9.490355	-0.006246	4.008212	-0.006635	-0.088413	0.04168	-0.371338	0.136963	-0.762451
562.0	9.615015	-0.226721	3.938156	0.011091	-0.021225	0.068924	-0.375732	0.13916	-0.762451
563.0	9.795437	-0.37209	4.026348	0.059126	0.05816	0.096394	-0.37793	0.136963	-0.762451
564.0	9.795176	-0.458559	4.137696	0.047966	0.158853	0.135817	-0.373535	0.13916	-0.760254
565.0	9.702105	-0.549367	4.209742	0.011825	0.257549	0.183689	-0.368896	0.136963	-0.764648
566.0	9.539682	-0.368803	4.289799	0.012392	0.328687	0.203139	-0.366699	0.136963	-0.76709
567.0	9.248895	-0.346416	4.341118	0.027564	0.38323	0.223811	-0.364746	0.145752	-0.762695
568.0	8.858607	-0.352503	4.504295	0.021747	0.400422	0.222925	-0.364746	0.145752	-0.758057
569.0	8.62386	-0.278691	4.596666	0.003822	0.36749	0.230445	-0.364746	0.143555	-0.764893
570.0	8.51349	-0.174505	4.568082	-0.0002	0.311437	0.217184	-0.355957	0.145752	-0.769775
571.0	8.465977	-0.044909	4.468426	0.001109	0.245831	0.203637	-0.355469	0.13916	-0.771729
572.0	8.520951	0.063253	4.463483	0.001006	0.191216	0.184544	-0.353271	0.13916	-0.776367
573.0	8.532328	0.180166	4.358331	0.028633	0.128361	0.160718	-0.351318	0.145752	-0.776611
574.0	8.501835	0.08257	4.349465	0.012339	0.091832	0.139902	-0.355957	0.150146	-0.769775
575.0	8.545715	0.185012	4.246984	0.01168	0.052508	0.126694	-0.355713	0.143555	-0.771973
576.0	8.659029	0.233385	4.210425	0.045974	0.011124	0.102453	-0.35376	0.152344	-0.767578
577.0	8.719409	0.215383	4.14329	0.020601	0.001418	0.089026	-0.349365	0.150146	-0.772217
578.0	8.684297	0.229021	4.099256	0.014976	-0.006357	0.077753	-0.35376	0.147949	-0.774414
579.0	8.75807	0.379522	4.110834	0.020984	-0.022745	0.063554	-0.35376	0.147949	-0.767334
580.0	8.827132	0.362124	4.074724	0.03209	-0.022688	0.044365	-0.351318	0.147949	-0.771973
581.0	8.984847	0.248045	3.976687	0.020151	-0.004319	0.033886	-0.358154	0.147949	-0.767334
582.0	9.112509	0.255347	3.878169	-0.005728	0.015492	0.016138	-0.349121	0.147949	-0.769775
583.0	9.331047	0.250387	3.742464	-0.005142	0.040342	0.003585	-0.351074	0.141357	-0.77417
584.0	9.313438	0.143309	3.780064	-0.030682	0.101271	-0.004892	-0.351318	0.145752	-0.769775
585.0	9.284777	0.14196	3.797211	-0.045795	0.153176	-0.01275	-0.346924	0.150146	-0.772217
586.0	9.342465	0.111783	3.762127	-0.045715	0.207963	-0.015059	-0.351318	0.147949	-0.765137
587.0	9.219471	0.132174	3.722223	-0.042498	0.268162	-0.016414	-0.349121	0.147949	-0.772217
588.0	9.193437	0.025679	3.779705	-0.041723	0.313219	-0.018462	-0.349365	0.152344	-0.774658
589.0	9.083635	-0.054229	3.931222	-0.025734	0.359179	-0.015801	-0.337646	0.141357	-0.769531
590.0	8.922823	-0.108191	3.973481	-0.017706	0.384757	-0.0228	-0.340088	0.145752	-0.769775
591.0	8.942087	-0.349484	4.017661	-0.014194	0.384737	-0.023165	-0.340088	0.143555	-0.771973
592.0	8.701129	-0.369036	4.042868	-0.036561	0.394691	-0.014999	-0.337891	0.145996	-0.776611
593.0	8.53672	-0.474406	4.062404	-0.020534	0.384429	-0.009433	-0.335693	0.148193	-0.776855
594.0	8.428442	-0.426366	4.132481	0.024669	0.340198	-0.006948	-0.32666	0.148193	-0.781494
595.0	8.533783	-0.63575	4.227102	0.052213	0.303209	0.004297	-0.328857	0.145996	-0.779053
596.0	8.592808	-0.562707	4.243274	0.072044	0.249992	0.01246	-0.330811	0.141602	-0.776611
597.0	8.759148	-0.53089	4.145572	0.107544	0.213161	0.023088	-0.324219	0.141602	-0.778809
598.0	8.897093	-0.497465	4.016268	0.138161	0.184672	0.039259	-0.328613	0.143799	-0.769531
599.0	8.944679	-0.555042	3.913358	0.180048	0.17265	0.063135	-0.322021	0.145996	-0.774414
600.0	8.938275	-0.588314	3.926913	0.194698	0.163127	0.075277	-0.322021	0.143799	-0.78125
601.0	8.904236	-0.569932	3.930757	0.227972	0.154218	0.095507	-0.317383	0.139404	-0.781006
602.0	8.901281	-0.522473	4.264953	0.223506	0.170075	0.107894	-0.314941	0.13501	-0.776367
603.0	8.996922	-0.411532	4.462059	0.244989	0.133568	0.108434	-0.314697	0.130615	-0.77832
604.0	9.098456	-0.346367	4.828974	0.208712	0.132587	0.123142	-0.317383	0.139404	-0.778809
605.0	9.238456	-0.186722	5.600332	0.160688	0.183504	0.142043	-0.310303	0.13501	-0.783203
606.0	9.63009	0.236047	5.994284	0.06677	0.13635	0.170617	-0.3125	0.132813	-0.778564
607.0	10.136853	0.831102	5.704464	0.055501	-0.030803	0.210439	-0.314697	0.130615	-0.780762
608.0	10.423535	0.871044	5.599535	0.036124	-0.137214	0.221296	-0.310303	0.13501	-0.781006
609.0	10.2358	0.668815	5.411234	-0.002953	-0.215399	0.205005	-0.3125	0.132813	-0.780762
610.0	9.993019	0.472991	5.151827	0.015167	-0.380218	0.166228	-0.319336	0.132813	-0.771484
611.0	9.75671	0.196927	4.59046	0.063107	-0.570458	0.118146	-0.316895	0.132813	-0.771484
612.0	9.566413	-0.407752	4.111504	0.072407	-0.705972	0.080302	-0.319092	0.130615	-0.771484
613.0	9.540881	-0.649281	4.003552	0.084808	-0.750213	0.023768	-0.325928	0.130371	-0.769043
614.0	9.803391	-0.791308	3.719154	0.095604	-0.75468	0.003004	-0.339355	0.130371	-0.764404
615.0	10.005079	-0.63511	3.40666	0.174274	-0.756849	-0.010608	-0.332764	0.134766	-0.762207
616.0	10.277921	0.004344	3.478671	0.224425	-0.617591	-0.016596	-0.341553	0.125977	-0.755127
617.0	10.732642	0.539196	3.959781	0.22463	-0.386709	-0.031386	-0.336914	0.125977	-0.752686
618.0	10.895029	0.800056	4.509328	0.216488	-0.165982	-0.046514	-0.343506	0.121582	-0.759521
619.0	10.699691	0.98974	4.853447	0.197393	0.030277	-0.06438	-0.338867	0.119385	-0.75708
620.0	10.025759	1.070267	5.015038	0.141408	0.20803	-0.095987	-0.336914	0.123779	-0.761963
621.0	9.11855	1.216246	5.647426	0.041995	0.303589	-0.138977	-0.33667	0.119385	-0.754883
622.0	8.307208	1.346635	6.167034	-0.043662	0.246629	-0.181925	-0.334717	0.123779	-0.759521
623.0	7.606742	1.474734	6.246378	-0.09976	0.105326	-0.216668	-0.327637	0.119385	-0.76416
624.0	7.086558	1.693568	6.192805	-0.069457	-0.034322	-0.228097	-0.330078	0.121582	-0.759521
625.0	7.021592	1.433629	6.083048	-0.040221	-0.166493	-0.21601	-0.33667	0.117188	-0.761719
626.0	6.906807	1.009929	5.792049	0.022198	-0.300668	-0.204948	-0.329834	0.11499	-0.754639
627.0	7.032115	0.530925	5.633246	0.038844	-0.428316	-0.175266	-0.341064	0.112793	-0.759277
628.0	7.260793	0.312082	5.471964	0.09395	-0.548854	-0.140911	-0.345459	0.112793	-0.75
629.0	7.761065	0.232682	5.386972	0.173821	-0.619613	-0.100703	-0.349854	0.110596	-0.754395
630.0	8.351487	0.050546	5.339299	0.213459	-0.620475	-0.078518	-0.343018	0.108398	-0.747314
631.0	8.624154	-0.03786	5.030471	0.241021	-0.5736	-0.080341	-0.351807	0.101563	-0.744873
632.0	9.063261	-0.011839	5.023582	0.294104	-0.490037	-0.098037	-0.347412	0.106201	-0.751953
633.0	9.2781	0.228384	4.868529	0.329184	-0.410866	-0.128618	-0.351807	0.099365	-0.742432
634.0	9.369193	0.558624	4.662023	0.342341	-0.315935	-0.166299	-0.358643	0.105957	-0.738037
635.0	9.3694	0.714125	4.519022	0.316737	-0.140384	-0.178537	-0.351563	0.094971	-0.73999
636.0	9.114755	0.850099	4.224879	0.309471	0.057438	-0.175717	-0.35376	0.094971	-0.730713
637.0	8.877258	0.87272	4.224077	0.296599	0.231223	-0.149596	-0.351318	0.090576	-0.746826
638.0	8.471827	0.815989	4.384072	0.287937	0.373637	-0.119907	-0.34668	0.088379	-0.741943
639.0	8.167416	0.912929	4.683665	0.319488	0.399001	-0.082617	-0.348633	0.07959	-0.746338
640.0	8.178539	1.157853	4.760162	0.300343	0.393889	-0.055101	-0.348633	0.081787	-0.741699
641.0	8.080203	1.328771	4.79045	0.263005	0.376403	-0.046993	-0.3396	0.081787	-0.750977
642.0	7.975987	1.498092	4.889175	0.284264	0.320152	-0.041292	-0.344482	0.086182	-0.746582
643.0	7.819434	1.476075	5.049395	0.302163	0.289733	-0.020817	-0.341797	0.077393	-0.746338
644.0	7.60393	1.349639	4.829766	0.335924	0.228383	-0.009144	-0.3396	0.07959	-0.746338
645.0	7.66847	1.265248	4.823685	0.346807	0.16368	-0.010036	-0.334961	0.077393	-0.746338
646.0	7.633674	1.144617	4.802883	0.35784	0.118093	-0.028825	-0.336914	0.070801	-0.75293
647.0	7.625116	1.17953	4.57613	0.357012	0.070537	-0.05041	-0.334473	0.064209	-0.748047
648.0	7.726461	1.168977	4.587018	0.354009	0.008993	-0.069097	-0.33667	0.064209	-0.74585
649.0	7.906066	1.1428	4.488505	0.355406	-0.026939	-0.079036	-0.332031	0.062012	-0.745605
650.0	8.05507	1.36004	4.495187	0.33623	-0.038534	-0.095411	-0.334473	0.066406	-0.74585
651.0	8.260118	1.453143	4.295568	0.310452	-0.052444	-0.096682	-0.332275	0.064209	-0.743408
652.0	8.482944	1.599362	4.177597	0.307574	-0.049306	-0.092736	-0.338867	0.059814	-0.740967
653.0	8.760919	1.740451	3.869502	0.288843	-0.029212	-0.086028	-0.333984	0.048828	-0.745117
654.0	8.941533	1.883438	3.799353	0.284998	0.033904	-0.071227	-0.334229	0.05542	-0.745361
655.0	8.936735	2.047939	3.599229	0.259567	0.112245	-0.060795	-0.331787	0.053223	-0.743164
656.0	8.853241	2.111222	3.604891	0.252992	0.183183	-0.05097	-0.333984	0.048828	-0.74292
657.0	8.858859	1.978897	3.444849	0.245248	0.236446	-0.031662	-0.331543	0.048828	-0.745117
658.0	8.745457	1.92755	3.331012	0.23044	0.300535	-0.009741	-0.324707	0.044434	-0.742676
659.0	8.459988	1.977095	3.359853	0.225497	0.328575	0.020294	-0.320068	0.044434	-0.745117
660.0	8.123176	1.830867	3.355233	0.210631	0.27875	0.03891	-0.317871	0.042236	-0.747314
661.0	7.697422	1.785742	3.393332	0.189911	0.187614	0.059795	-0.322266	0.042236	-0.744873
662.0	7.41545	1.781436	3.495873	0.141011	0.06459	0.084461	-0.324951	0.048828	-0.747559
663.0	7.26335	1.813345	3.596083	0.077519	-0.054035	0.102017	-0.322266	0.042236	-0.740234
664.0	7.271207	1.918167	3.721939	0.019617	-0.156052	0.118357	-0.317871	0.044434	-0.745117
665.0	7.257105	2.059119	3.951415	-0.053869	-0.253233	0.132518	-0.324707	0.042236	-0.744873
666.0	7.612403	2.239192	4.127591	-0.104159	-0.344751	0.14512	-0.32251	0.048828	-0.738281
667.0	8.122175	2.234855	4.061172	-0.139635	-0.396443	0.143395	-0.322266	0.042236	-0.740234
668.0	8.750434	2.208269	4.176844	-0.115318	-0.371131	0.114253	-0.327148	0.051025	-0.733643
669.0	8.988628	1.917407	4.005085	-0.102241	-0.338702	0.079816	-0.329346	0.048828	-0.738281
670.0	9.3758	1.82879	3.538008	-0.033538	-0.300222	0.036382	-0.331543	0.048828	-0.731201
671.0	9.714043	1.444307	2.973321	-0.055111	-0.276863	0.020055	-0.327148	0.051025	-0.724365
672.0	9.995039	1.814956	2.649999	-0.070881	-0.22629	-0.003942	-0.33374	0.046631	-0.731201
673.0	10.425271	2.162776	2.84746	-0.13123	-0.174761	-0.019712	-0.331787	0.051025	-0.731445
674.0	10.813158	2.658568	3.304595	-0.178494	-0.086142	-0.033191	-0.331787	0.053223	-0.724365
675.0	11.341622	2.654119	3.707177	-0.192073	-0.027048	-0.061055	-0.331787	0.053223	-0.731445
676.0	12.27655	2.495058	3.713434	-0.140699	-0.07295	-0.134289	-0.329346	0.051025	-0.736084
677.0	13.407294	2.034281	3.465287	-0.103234	-0.091096	-0.211382	-0.327148	0.048828	-0.731201
678.0	13.28057	2.042166	3.893389	0.014947	0.158715	-0.256247	-0.32959	0.053223	-0.726807
679.0	12.113241	1.57333	5.231877	0.129412	0.404651	-0.263647	-0.318359	0.053223	-0.738525
680.0	11.050939	0.489944	5.418206	0.171948	0.282748	-0.229989	-0.324707	0.046631	-0.72876
681.0	10.337224	0.731933	4.934601	0.20935	0.034911	-0.149935	-0.317871	0.046631	-0.710205
682.0	9.524701	1.279953	5.061294	0.264172	-0.064204	-0.021422	-0.320313	0.046631	-0.73584
683.0	8.8362	1.771026	5.538982	0.280564	-0.246568	0.103223	-0.32251	0.044434	-0.72876
684.0	8.495305	1.95479	5.256293	0.263605	-0.575183	0.184436	-0.331299	0.044434	-0.726563
685.0	8.345234	2.242049	5.280203	0.222805	-0.692193	0.219578	-0.329346	0.048828	-0.719727
686.0	8.045793	1.798478	5.73112	0.090668	-0.598689	0.215485	-0.33374	0.044434	-0.719482
687.0	7.873748	1.196236	5.81315	-0.061117	-0.539383	0.160555	-0.336182	0.048828	-0.721924
688.0	8.022697	0.435604	5.699449	-0.20659	-0.457456	0.064806	-0.34082	0.051025	-0.722168
689.0	8.300682	0.167802	5.669198	-0.324237	-0.270492	-0.030497	-0.336182	0.051025	-0.715088
690.0	8.242354	0.24443	5.41835	-0.364988	-0.06605	-0.106134	-0.336426	0.057617	-0.717773
691.0	8.225579	0.441414	5.377428	-0.348831	0.075266	-0.165927	-0.331787	0.05542	-0.717529
692.0	8.047203	0.189689	5.752227	-0.235683	0.141855	-0.193366	-0.336426	0.057617	-0.715332
693.0	8.303602	0.144526	5.979223	-0.117436	0.099485	-0.201868	-0.327148	0.053223	-0.717529
694.0	8.735314	0.081729	5.816858	0.010112	0.06574	-0.184968	-0.332031	0.062012	-0.720215
695.0	9.301005	0.355258	5.618725	0.097468	0.061358	-0.110126	-0.322754	0.05542	-0.719971
696.0	9.81075	1.195024	5.45866	0.141769	0.023053	-0.009734	-0.330078	0.064209	-0.720215
697.0	10.049413	1.973268	5.119916	0.171696	0.008507	0.097211	-0.327637	0.059814	-0.722412
698.0	9.411239	1.985693	4.917637	0.180546	0.095198	0.18903	-0.332031	0.057617	-0.719971
699.0	8.67153	1.309363	5.036801	0.100103	0.157817	0.252355	-0.322998	0.057617	-0.719971
700.0	8.455148	0.714932	5.156401	-0.024883	0.172219	0.282088	-0.329834	0.059814	-0.717773
701.0	8.151306	0.300025	5.274174	-0.162843	0.264927	0.303961	-0.321045	0.066406	-0.722656
702.0	7.899098	-0.06348	5.431613	-0.215125	0.336552	0.283883	-0.323486	0.072998	-0.720459
703.0	8.140599	-0.404573	5.36816	-0.221388	0.30412	0.253493	-0.31665	0.068604	-0.720459
704.0	8.542199	-0.907381	5.038	-0.258624	0.319007	0.227992	-0.31665	0.068604	-0.722656
705.0	8.60855	-0.975694	4.901877	-0.187284	0.348288	0.204669	-0.312256	0.072998	-0.727539
706.0	8.548814	-1.076803	4.765454	-0.165798	0.357894	0.189423	-0.312256	0.073242	-0.72998
707.0	8.633252	-0.948409	4.601869	-0.124401	0.317773	0.176718	-0.310303	0.077637	-0.727783
708.0	8.364102	-0.305358	4.435194	-0.096326	0.321895	0.186634	-0.310303	0.082031	-0.732422
709.0	8.38918	0.262391	4.432239	-0.069427	0.318464	0.18325	-0.30127	0.079834	-0.732422
710.0	8.104059	0.703009	4.385666	-0.099591	0.368237	0.217055	-0.303955	0.088623	-0.735107
711.0	7.818804	1.077149	4.451293	-0.089495	0.442348	0.217271	-0.303467	0.077637	-0.727783
712.0	7.541716	1.212299	4.559486	-0.057151	0.470885	0.229671	-0.297119	0.086426	-0.735107
713.0	7.416866	1.002041	4.571718	-0.055445	0.476539	0.211933	-0.290283	0.088623	-0.730469
714.0	7.393452	0.759258	4.597345	-0.077705	0.488073	0.190947	-0.292725	0.09082	-0.735107
715.0	7.488196	0.378993	4.601147	-0.074382	0.481041	0.166834	-0.283447	0.086426	-0.739746
716.0	7.718397	0.184419	4.413292	-0.097362	0.472705	0.146056	-0.283691	0.09082	-0.739746
717.0	8.03453	-0.236998	4.163151	-0.124506	0.488181	0.142152	-0.283936	0.095459	-0.744629
718.0	8.164119	-0.431171	3.966254	-0.114455	0.514385	0.113196	-0.281738	0.099854	-0.744873
719.0	8.139658	-0.688322	3.87312	-0.089437	0.519378	0.091889	-0.272461	0.093262	-0.73999
720.0	8.113201	-0.59679	3.736174	-0.012926	0.45973	0.063331	-0.277344	0.099854	-0.737793
721.0	8.194894	-0.590797	3.489333	0.028869	0.388404	0.053173	-0.261475	0.095459	-0.742432
722.0	7.956432	-0.285788	3.200778	0.107314	0.292787	0.018481	-0.265625	0.091064	-0.739746
723.0	7.641599	0.050213	3.284747	0.177009	0.198416	-0.000795	-0.263428	0.093262	-0.742188
724.0	7.190463	0.28919	3.420572	0.219447	0.095967	-0.029023	-0.261475	0.099854	-0.742432
725.0	6.764966	0.362975	3.687369	0.264321	-0.021804	-0.054095	-0.26123	0.093262	-0.744629
726.0	6.650318	0.367079	3.858956	0.297764	-0.157054	-0.08382	-0.265869	0.093262	-0.753906
727.0	7.079835	0.024882	4.008805	0.288522	-0.273375	-0.101078	-0.263428	0.091064	-0.742188
728.0	7.656449	-0.266414	4.106067	0.218507	-0.367111	-0.119139	-0.272461	0.088867	-0.744385
729.0	8.259122	-0.367405	4.166173	0.223561	-0.421796	-0.125878	-0.270264	0.093262	-0.742188
730.0	8.925796	-0.188577	4.26568	0.22326	-0.454201	-0.111714	-0.279053	0.088623	-0.737549
731.0	9.847158	0.105689	4.251536	0.223634	-0.426974	-0.068512	-0.272217	0.08667	-0.739746
732.0	10.262945	0.343604	4.21346	0.195982	-0.321239	-0.023605	-0.278809	0.082031	-0.739502
733.0	10.930442	0.457399	4.225399	0.186158	-0.212684	0.018255	-0.274414	0.086426	-0.737305
734.0	11.261963	0.392091	3.846174	0.135473	-0.091806	0.026892	-0.279297	0.093262	-0.742188
735.0	11.403831	0.337142	3.057908	0.112812	0.020249	0.028154	-0.279053	0.086426	-0.732666
736.0	11.323195	-0.03273	2.572016	0.160079	0.132551	0.023783	-0.2771	0.093262	-0.735352
737.0	11.149794	-0.661111	3.42242	0.163966	0.324291	0.016916	-0.267822	0.08667	-0.739746
738.0	11.13995	-0.439512	5.001759	0.034037	0.415752	0.041122	-0.272461	0.091064	-0.737549
739.0	11.914658	0.88196	5.714633	-0.026932	0.271605	0.133211	-0.265625	0.088867	-0.739746
740.0	13.044991	2.128541	5.73097	-0.053946	0.027152	0.283426	-0.272705	0.097656	-0.742432
741.0	12.886304	3.103141	6.470549	-0.19871	-0.010564	0.38309	-0.263672	0.099854	-0.728516
742.0	12.234019	4.387785	7.808939	-0.289752	0.050274	0.443793	-0.270752	0.106445	-0.73584
743.0	11.450598	3.7031	7.597603	-0.398689	-0.063944	0.469811	-0.268555	0.106445	-0.738037
744.0	9.623081	1.217243	6.219627	-0.506574	-0.124991	0.353346	-0.270996	0.113037	-0.738281
745.0	7.671212	-0.375241	6.465277	-0.584757	-0.142297	0.146331	-0.266846	0.119629	-0.736328
746.0	6.526457	-1.151616	6.336868	-0.567739	-0.404143	-0.05786	-0.275879	0.119629	-0.738525
747.0	6.448296	-1.283896	6.005831	-0.429223	-0.602366	-0.185763	-0.269287	0.124023	-0.727051
748.0	6.167046	-0.831533	6.056923	-0.186464	-0.557018	-0.220991	-0.280762	0.130615	-0.734375
749.0	6.405524	-0.286343	6.236469	0.072222	-0.44091	-0.175191	-0.276123	0.124023	-0.727051
750.0	6.681503	0.125363	6.164987	0.321709	-0.418014	-0.05907	-0.282959	0.126221	-0.729492
751.0	7.467309	0.485034	6.134871	0.522389	-0.48492	0.033782	-0.289307	0.119629	-0.727051
752.0	8.584728	0.873977	6.082055	0.594639	-0.605571	0.13261	-0.287109	0.121826	-0.722412
753.0	9.684122	1.132595	5.588333	0.521379	-0.672865	0.200622	-0.291504	0.119629	-0.722412
754.0	10.554825	0.995779	5.045953	0.36725	-0.521857	0.195228	-0.293701	0.112793	-0.729004
755.0	10.653116	0.453318	4.991918	0.171995	-0.179202	0.139474	-0.296143	0.119385	-0.724609
756.0	9.921942	-0.180577	5.264735	-0.052587	0.099248	0.050271	-0.291748	0.121826	-0.722412
757.0	8.854862	-0.49334	5.620803	-0.218084	0.208826	-0.045886	-0.293701	0.117188	-0.724609
758.0	7.925159	-0.500025	5.895175	-0.20574	0.215621	-0.134381	-0.291992	0.128418	-0.722656
759.0	7.321334	-0.334327	5.812259	-0.12431	0.110459	-0.158812	-0.293945	0.121826	-0.722412
760.0	7.415964	0.306163	5.308804	-0.044484	0.048107	-0.169884	-0.294189	0.126221	-0.722656
761.0	7.59636	1.108008	4.830774	0.078363	0.062478	-0.162753	-0.287109	0.121826	-0.724609
762.0	7.541455	1.539938	4.795703	0.17844	0.116383	-0.151645	-0.293945	0.124023	-0.734131
763.0	7.369602	1.781251	5.044274	0.221449	0.13755	-0.137653	-0.284912	0.119629	-0.724609
764.0	7.228404	1.986399	5.213389	0.269812	0.099619	-0.140203	-0.285156	0.128418	-0.734375
765.0	7.272594	1.883663	5.118428	0.232978	0.024392	-0.15123	-0.284912	0.119629	-0.729248
766.0	7.398003	1.608103	5.045393	0.231185	-0.042531	-0.161648	-0.287109	0.121826	-0.719971
767.0	7.443767	1.27987	4.938155	0.205579	-0.102198	-0.172381	-0.284668	0.117432	-0.724609
768.0	7.350042	0.947791	4.756373	0.198309	-0.128221	-0.173359	-0.291504	0.119385	-0.717773
769.0	7.297886	0.577219	4.531365	0.191051	-0.162376	-0.1774	-0.291504	0.119629	-0.719971
770.0	7.574451	0.658254	4.377979	0.164162	-0.207299	-0.180939	-0.293945	0.121826	-0.724609
771.0	7.827005	0.766936	4.11916	0.151785	-0.204099	-0.172477	-0.289307	0.117432	-0.719971
772.0	7.915603	0.89562	3.915981	0.119405	-0.181363	-0.18219	-0.29834	0.119385	-0.724609
773.0	8.035262	1.073403	3.952604	0.089299	-0.147363	-0.182097	-0.293701	0.11499	-0.722168
774.0	8.302987	1.388931	3.98122	0.078667	-0.111854	-0.173273	-0.298096	0.11499	-0.722168
775.0	8.372762	1.570536	3.838698	0.06214	-0.044375	-0.17149	-0.295898	0.11499	-0.715088
776.0	8.729384	1.670705	3.761279	0.053241	0.038325	-0.155639	-0.293945	0.119385	-0.722412
777.0	8.726738	1.696479	3.677459	0.03519	0.134158	-0.139609	-0.287109	0.121826	-0.722412
778.0	8.735009	1.610946	3.766843	0.048725	0.235967	-0.125121	-0.289307	0.119629	-0.722412
779.0	8.757835	1.671	3.724232	0.063077	0.30113	-0.105889	-0.284912	0.121826	-0.724609
780.0	8.562943	1.59459	3.515535	0.103013	0.339149	-0.082387	-0.287109	0.119629	-0.724609
781.0	8.251182	1.455307	3.445168	0.124037	0.329679	-0.053528	-0.280273	0.115234	-0.722168
782.0	7.671923	1.34636	3.393982	0.108238	0.260932	-0.032123	-0.278076	0.119629	-0.724609
783.0	7.027221	1.268236	3.576937	0.076217	0.130143	-0.000694	-0.280273	0.117432	-0.726807
784.0	6.657631	1.481811	3.717815	0.007579	-0.047817	0.031202	-0.284912	0.119629	-0.724609
785.0	6.668141	1.686528	3.72845	-0.086192	-0.207585	0.057618	-0.282715	0.124023	-0.724854
786.0	6.907662	2.044099	3.722737	-0.195878	-0.295113	0.062914	-0.287354	0.126221	-0.722656
787.0	7.306469	2.225129	3.956968	-0.284907	-0.334281	0.075869	-0.280762	0.128418	-0.724854
788.0	7.865731	2.652658	4.310488	-0.356462	-0.412964	0.074439	-0.291992	0.130615	-0.722656
789.0	8.582604	2.898229	4.562232	-0.345305	-0.447006	0.07663	-0.290039	0.13501	-0.720459
790.0	9.190223	2.81229	4.463535	-0.245275	-0.424562	0.044144	-0.294434	0.13501	-0.7229
791.0	9.45725	1.848474	4.337599	-0.102091	-0.355146	0.001916	-0.287842	0.137207	-0.718262
792.0	9.841264	0.814558	3.397231	-0.031266	-0.359394	-0.042192	-0.297119	0.143799	-0.71167
793.0	10.529437	0.484977	2.474294	0.032811	-0.350204	-0.093279	-0.292236	0.137207	-0.713623
794.0	11.051414	0.48282	2.089317	-0.000286	-0.332191	-0.10893	-0.303955	0.143799	-0.716309
795.0	11.481424	1.512368	2.509108	-0.024564	-0.256518	-0.121195	-0.296875	0.139404	-0.713867
796.0	11.465072	1.954623	3.364473	-0.025953	-0.079652	-0.117727	-0.299561	0.148193	-0.714111
797.0	11.513751	1.684767	3.831011	6.2e-05	0.029982	-0.139973	-0.296875	0.137207	-0.716064
798.0	11.581861	1.750664	3.720195	0.020956	-0.016565	-0.182563	-0.294922	0.148193	-0.714111
799.0	11.686517	2.149432	3.556474	0.052663	-0.04997	-0.227399	-0.297119	0.143799	-0.713867
800.0	10.72439	2.062123	4.321277	0.02598	0.063256	-0.249514	-0.294678	0.141602	-0.720703
801.0	10.165435	1.065979	5.432364	-0.017481	-0.002022	-0.253347	-0.288086	0.145996	-0.714111
802.0	10.153962	0.378807	6.56613	0.059313	-0.151896	-0.244804	-0.297119	0.141602	-0.711426
803.0	9.957736	0.152407	6.977354	0.176159	-0.24151	-0.224664	-0.294678	0.141602	-0.706787
804.0	9.698272	-0.099306	6.358885	0.244194	-0.431997	-0.181344	-0.306396	0.148193	-0.714111
805.0	9.360992	-0.31057	5.691371	0.258414	-0.642888	-0.114817	-0.298828	0.132568	-0.708984
806.0	8.630567	0.27975	6.550857	0.242174	-0.522541	-0.04057	-0.312744	0.143555	-0.707031
807.0	7.944739	0.710838	6.865809	0.197857	-0.425901	-0.032911	-0.310303	0.136963	-0.704346
808.0	7.568059	0.677342	6.574785	0.143502	-0.442463	-0.08221	-0.310547	0.143555	-0.707031
809.0	7.744748	0.870806	6.282932	0.024348	-0.439356	-0.17022	-0.3125	0.134766	-0.711182
810.0	8.359124	1.100323	6.015793	-0.10393	-0.449965	-0.245363	-0.324219	0.147949	-0.709473
811.0	9.191042	1.206474	5.797106	-0.199279	-0.389438	-0.300026	-0.324219	0.143555	-0.709229
812.0	10.184324	1.183398	5.540193	-0.213284	-0.250633	-0.286856	-0.324219	0.147949	-0.707031
813.0	11.350233	1.481384	5.2471	-0.149957	-0.102905	-0.212634	-0.319336	0.13916	-0.702148
814.0	12.10722	1.996447	4.629511	-0.023586	0.165301	-0.087112	-0.322021	0.150146	-0.702637
815.0	11.275201	1.715582	4.657568	0.124454	0.571149	0.057411	-0.312744	0.143555	-0.702393
816.0	9.774837	0.759917	5.341055	0.226215	0.77366	0.167275	-0.315186	0.145752	-0.71167
817.0	8.469788	0.103385	5.640529	0.275934	0.759487	0.236038	-0.305908	0.141602	-0.713867
818.0	7.805588	-0.347042	5.698925	0.267772	0.629174	0.301833	-0.301514	0.141602	-0.716064
819.0	7.307503	-0.508128	5.617384	0.21046	0.510239	0.355682	-0.303955	0.148193	-0.723389
820.0	7.099933	-0.337206	5.469574	0.146345	0.397986	0.380287	-0.297363	0.150391	-0.723389
821.0	7.373317	-0.386941	5.451519	0.054151	0.258578	0.375401	-0.294922	0.145996	-0.720947
822.0	7.669821	-0.615358	5.202256	-0.043355	0.150366	0.350026	-0.299561	0.150391	-0.71875
823.0	7.892609	-0.471	5.134571	-0.098436	0.100125	0.304147	-0.292969	0.150391	-0.721191
824.0	8.039303	-0.205368	4.859474	-0.134523	0.033161	0.26686	-0.297363	0.150391	-0.723389
825.0	8.134364	0.252157	4.564261	-0.090482	0.023099	0.209728	-0.295166	0.150391	-0.728027
826.0	8.028399	0.161892	4.368427	-0.146629	0.0643	0.19994	-0.293213	0.156982	-0.730713
827.0	7.986162	0.698676	4.416991	-0.066074	0.146884	0.166643	-0.29541	0.15918	-0.726074
828.0	7.983221	0.483965	4.356315	-0.126448	0.224467	0.203427	-0.29541	0.15918	-0.726074
829.0	7.994609	0.899887	4.161077	-0.062371	0.29027	0.176764	-0.286377	0.156982	-0.730713
830.0	7.905883	0.722456	3.897153	-0.102048	0.35795	0.19669	-0.284424	0.163574	-0.730957
831.0	7.85572	1.004911	3.7736	-0.097767	0.405657	0.167609	-0.286621	0.163574	-0.733154
832.0	7.463152	0.855322	3.912276	-0.07329	0.445483	0.15985	-0.282227	0.168213	-0.73584
833.0	7.407536	0.914232	3.986427	-0.063255	0.43946	0.112311	-0.275391	0.161621	-0.735596
834.0	7.719697	0.605957	3.94153	-0.082269	0.437456	0.0767	-0.275391	0.166016	-0.742676
835.0	7.978651	0.585552	3.770227	-0.105668	0.482321	0.022057	-0.270996	0.166016	-0.738037
836.0	8.145618	0.561244	3.751766	-0.093574	0.540404	-0.02931	-0.266602	0.168213	-0.738037
837.0	8.013983	0.351745	3.765227	-0.100909	0.583063	-0.06802	-0.26416	0.166016	-0.733398
838.0	8.104367	0.110446	3.766168	-0.104114	0.557233	-0.113341	-0.264404	0.168213	-0.745117
839.0	7.957087	0.095023	3.4479	-0.083114	0.4811	-0.142005	-0.253174	0.172607	-0.745117
840.0	7.865199	0.039727	3.237086	-0.014531	0.373293	-0.193396	-0.257813	0.172607	-0.747559
841.0	7.43974	0.204833	3.180046	0.050957	0.265551	-0.225795	-0.257324	0.166016	-0.747314
842.0	7.167104	0.128307	3.361905	0.084941	0.157294	-0.237729	-0.257568	0.168213	-0.740479
843.0	6.633963	0.156659	3.581823	0.133803	0.032296	-0.24351	-0.255127	0.161621	-0.74707
844.0	6.776452	-0.094065	3.90295	0.156359	-0.13177	-0.228845	-0.259521	0.163818	-0.747314
845.0	7.441514	-0.329595	4.055244	0.107007	-0.237087	-0.218248	-0.257324	0.163818	-0.749512
846.0	8.25393	-0.661807	4.281907	0.023068	-0.290738	-0.193801	-0.261963	0.163818	-0.744873
847.0	8.896256	-0.626953	4.637074	0.006954	-0.278659	-0.15048	-0.25708	0.155029	-0.744629
848.0	9.480293	-0.676868	4.832603	-0.017152	-0.229647	-0.084316	-0.266357	0.166016	-0.749512
849.0	9.577594	-0.366372	5.005234	-0.071746	-0.120668	-0.005076	-0.26416	0.163818	-0.744873
850.0	9.55198	-0.158697	4.86342	-0.132087	-0.073322	0.069109	-0.262207	0.17041	-0.752197
851.0	10.132433	0.107935	4.17739	-0.117651	-0.145478	0.105317	-0.26416	0.166016	-0.747314
852.0	11.051312	0.301116	3.307304	-0.014334	-0.219018	0.120794	-0.270996	0.168213	-0.749756
853.0	12.11305	-0.018753	2.733956	0.13203	-0.194287	0.113983	-0.261963	0.168213	-0.740479
854.0	12.562655	-0.800302	2.68953	0.229554	-0.055791	0.114725	-0.266602	0.168213	-0.742676
855.0	12.814219	-1.342289	3.727874	0.214806	0.214003	0.120259	-0.266357	0.163818	-0.744873
856.0	13.060416	-0.004054	4.710512	0.198	0.332988	0.172454	-0.264404	0.168213	-0.751953
857.0	13.891018	1.547866	4.565868	0.265748	0.133152	0.315338	-0.259521	0.161621	-0.74707
858.0	13.805804	2.327536	5.190292	0.108982	0.078596	0.429835	-0.264404	0.17041	-0.747559
859.0	11.6758	3.351744	6.746938	-0.249008	0.277629	0.45693	-0.257813	0.172607	-0.747559
860.0	10.286044	4.398955	7.650214	-0.230259	0.068356	0.481192	-0.260254	0.177002	-0.759277
861.0	9.437073	2.481579	6.528133	-0.22739	-0.265672	0.428759	-0.257813	0.174805	-0.745361
862.0	8.443129	0.90456	5.994623	-0.234457	-0.30172	0.257137	-0.264648	0.177002	-0.754639
863.0	7.353586	-0.16187	6.38609	-0.340938	-0.29627	0.07304	-0.260254	0.177002	-0.75
864.0	6.492297	-0.619553	6.475965	-0.420838	-0.435536	-0.087503	-0.271729	0.183594	-0.747803
865.0	5.871049	-0.188581	6.623722	-0.343535	-0.460579	-0.161086	-0.269287	0.181396	-0.750244
866.0	6.144519	0.689858	6.388521	-0.136669	-0.422801	-0.110012	-0.281006	0.192383	-0.748291
867.0	6.574838	1.09815	6.247546	0.095638	-0.343283	0.001491	-0.276123	0.179199	-0.745361
868.0	7.383552	1.038654	6.05386	0.23719	-0.340099	0.112248	-0.283203	0.187988	-0.752686
869.0	8.317437	1.134951	5.938229	0.272698	-0.368557	0.18108	-0.280518	0.177002	-0.745361
870.0	9.266299	1.174185	5.864505	0.257251	-0.430529	0.232627	-0.287354	0.181396	-0.750244
871.0	9.667037	1.190812	5.796405	0.108227	-0.44487	0.256616	-0.282715	0.177002	-0.745361
872.0	9.973588	1.221792	5.576822	-0.109837	-0.300873	0.218984	-0.289795	0.183594	-0.745605
873.0	10.507801	0.635764	5.59861	-0.281173	-0.055536	0.098102	-0.284912	0.174805	-0.74292
874.0	10.162495	-0.272683	5.737846	-0.417415	0.080884	-0.047387	-0.283447	0.19458	-0.743652
875.0	8.725248	-0.928534	5.650929	-0.529813	0.165556	-0.198001	-0.282715	0.179199	-0.745361
876.0	8.0204	-0.796415	5.476341	-0.47102	0.119221	-0.308148	-0.290039	0.192383	-0.748291
877.0	7.845858	-0.092806	4.855283	-0.395603	0.077415	-0.341725	-0.287842	0.19458	-0.736816
878.0	7.884703	0.896118	4.280286	-0.31792	0.099134	-0.334484	-0.285889	0.201172	-0.746338
879.0	7.865036	1.676069	4.410723	-0.181717	0.135792	-0.334399	-0.283203	0.190186	-0.752686
880.0	7.689777	2.148657	4.555716	-0.105326	0.108246	-0.313699	-0.290283	0.196777	-0.748291
881.0	7.506718	2.704738	4.571337	-0.038619	0.070031	-0.320589	-0.285645	0.196777	-0.748291
882.0	7.466855	2.630191	4.765261	-0.002388	0.057225	-0.319562	-0.287842	0.19458	-0.750732
883.0	7.667388	2.242919	4.800808	0.02486	0.014438	-0.309395	-0.287598	0.185791	-0.748047
884.0	7.853546	1.742126	4.558724	0.002707	0.015937	-0.272148	-0.290039	0.19458	-0.748291
885.0	7.682834	1.072994	4.182747	-0.030611	0.038107	-0.247568	-0.289795	0.187988	-0.750488
886.0	7.589405	0.671837	4.11821	-0.041965	0.070936	-0.243724	-0.287842	0.190186	-0.755127
887.0	7.347391	0.422398	4.069051	-0.058341	0.095014	-0.243862	-0.2854	0.190186	-0.74585
888.0	7.160062	0.277187	4.037576	-0.040921	0.067877	-0.239193	-0.290039	0.192383	-0.750488
889.0	7.406161	0.315735	4.032588	-0.030775	0.03893	-0.226155	-0.285156	0.183594	-0.745605
890.0	7.446909	0.310407	3.900668	-0.029485	0.022238	-0.210687	-0.290039	0.190186	-0.752686
891.0	7.779254	0.577326	3.953005	-0.035116	0.023683	-0.187203	-0.287598	0.185791	-0.761963
892.0	7.824518	0.833852	3.971036	-0.025449	0.064036	-0.169002	-0.292236	0.187988	-0.752686
893.0	8.028941	1.109837	3.934002	-0.026149	0.095015	-0.143844	-0.289795	0.187988	-0.755127
894.0	8.274865	1.402591	3.870166	-0.007005	0.106085	-0.117348	-0.2854	0.187988	-0.752686
895.0	8.479826	1.569285	3.734769	-0.001105	0.153145	-0.083177	-0.287354	0.181396	-0.754883
896.0	8.558645	1.698388	3.706265	0.044855	0.205228	-0.047356	-0.282959	0.185791	-0.754883
897.0	8.653493	1.669647	3.630587	0.064684	0.254248	-0.022322	-0.283203	0.187988	-0.755127
898.0	8.62073	1.544594	3.431562	0.088479	0.261536	-0.001346	-0.280762	0.185791	-0.761963
899.0	8.542299	1.413635	3.136571	0.123418	0.246382	0.016485	-0.278564	0.183594	-0.76416
900.0	8.282544	1.193934	3.008965	0.140343	0.207417	0.040018	-0.280762	0.183594	-0.759521
901.0	7.885454	1.076637	3.045984	0.106751	0.150038	0.067039	-0.278564	0.185791	-0.761963
902.0	7.629565	1.275696	3.172895	0.043219	0.060834	0.094464	-0.282959	0.181396	-0.766357
903.0	7.650218	1.345581	3.378352	-0.010684	-0.03612	0.114211	-0.280762	0.187988	-0.755127
904.0	7.684084	1.617296	3.531222	-0.096649	-0.121127	0.13888	-0.276367	0.187988	-0.766602
905.0	7.7808	1.905467	3.718231	-0.153316	-0.200068	0.142648	-0.280762	0.185791	-0.761963
906.0	8.110815	2.326303	4.144453	-0.173547	-0.247848	0.15898	-0.281006	0.192383	-0.762207
907.0	8.624842	2.609624	4.565266	-0.19079	-0.3088	0.163926	-0.278564	0.187988	-0.761963
908.0	9.153277	2.812671	4.696957	-0.152279	-0.325433	0.166752	-0.29248	0.19458	-0.762207
909.0	9.589258	2.368897	4.605099	-0.079044	-0.252422	0.15517	-0.28125	0.19458	-0.757568
910.0	9.649036	1.703435	4.115737	-0.003895	-0.179928	0.103348	-0.288086	0.196777	-0.764648
911.0	9.685176	0.887129	3.551634	0.04454	-0.126409	0.057775	-0.287842	0.190186	-0.759766
912.0	9.912785	0.520703	3.30183	0.042661	-0.101152	0.011901	-0.286133	0.203369	-0.760254
913.0	10.573526	0.647934	3.516246	0.047169	-0.094614	-0.031666	-0.288086	0.198975	-0.762451
914.0	11.038801	0.776951	4.369316	0.045143	-0.021697	-0.068024	-0.29248	0.196777	-0.764648
915.0	11.222707	0.555097	4.987793	0.118765	-0.019912	-0.124492	-0.287842	0.192383	-0.762207
916.0	11.566309	0.20128	4.689313	0.223313	-0.227115	-0.199541	-0.299072	0.192383	-0.759766
917.0	11.268229	0.784914	4.155462	0.298392	-0.419135	-0.265867	-0.291992	0.185791	-0.759521
918.0	10.745315	1.2107	4.100382	0.363756	-0.448933	-0.289446	-0.298828	0.185791	-0.759521
919.0	10.341724	1.508444	4.678517	0.338034	-0.503	-0.26263	-0.301025	0.181396	-0.759521
920.0	10.365123	1.429599	5.353644	0.427725	-0.645202	-0.239846	-0.307861	0.185791	-0.757324
921.0	10.324048	1.239602	5.789648	0.502369	-0.842582	-0.190621	-0.313965	0.170166	-0.749756
922.0	10.120544	1.470702	5.535417	0.423743	-0.947965	-0.109726	-0.316406	0.172363	-0.747559
923.0	9.752005	1.878364	5.447884	0.282528	-0.80142	-0.036566	-0.327393	0.170166	-0.756592
924.0	9.182047	1.71004	6.226295	0.223411	-0.513556	-0.00277	-0.327637	0.172363	-0.754395
925.0	8.798914	1.146639	6.644467	0.190604	-0.261579	-0.04627	-0.327637	0.172363	-0.752197
926.0	8.756894	0.909311	5.936273	0.04672	-0.148526	-0.122429	-0.327393	0.170166	-0.751953
927.0	8.907134	0.645643	5.561702	-0.08555	0.024528	-0.17668	-0.327148	0.161377	-0.749268
928.0	9.158238	0.58364	5.893935	-0.177427	0.126712	-0.214819	-0.329834	0.174561	-0.749756
929.0	9.383627	0.525367	6.00524	-0.113329	0.199626	-0.211468	-0.32959	0.167969	-0.749512
930.0	9.895921	0.563099	5.665966	0.021969	0.262308	-0.15426	-0.322998	0.167969	-0.754395
931.0	10.624977	1.135992	5.101423	0.130937	0.299848	-0.058001	-0.325195	0.170166	-0.754395
932.0	10.789409	1.535841	4.853798	0.244306	0.406308	0.062361	-0.322754	0.165771	-0.751953
933.0	9.918641	1.582992	5.216441	0.311617	0.516437	0.180676	-0.318359	0.167969	-0.765869
934.0	8.777257	1.272743	5.410101	0.310636	0.50836	0.286062	-0.320557	0.163574	-0.760986
935.0	8.046426	0.706541	5.40647	0.282563	0.436548	0.356583	-0.309326	0.163574	-0.768066
936.0	7.565476	0.26078	5.296013	0.181615	0.356636	0.413522	-0.313965	0.172363	-0.770752
937.0	7.296231	-0.041658	5.216093	0.041623	0.303822	0.424132	-0.307129	0.165771	-0.768066
938.0	7.287635	-0.122711	5.256785	-0.069114	0.251759	0.40165	-0.304932	0.170166	-0.770508
939.0	7.518937	-0.418227	5.138899	-0.124393	0.203562	0.353095	-0.302734	0.167969	-0.763672
940.0	7.645434	-0.458938	5.009022	-0.211885	0.195955	0.312121	-0.30957	0.170166	-0.770508
941.0	7.539902	-0.286952	4.763204	-0.236094	0.173719	0.256018	-0.300537	0.17041	-0.768311
942.0	7.71967	-0.280989	4.722192	-0.219252	0.14747	0.215013	-0.307617	0.179199	-0.773193
943.0	8.021774	0.190122	4.561967	-0.199931	0.120133	0.167432	-0.302979	0.177002	-0.768555
944.0	8.175692	0.563672	4.218541	-0.182193	0.157134	0.150008	-0.300781	0.179199	-0.770996
945.0	8.123834	0.929613	4.061198	-0.190432	0.238679	0.159737	-0.298584	0.181396	-0.778076
946.0	7.602715	1.2194	3.858428	-0.137197	0.326735	0.150268	-0.300781	0.179199	-0.775635
947.0	7.385742	1.130077	3.871401	-0.172528	0.353216	0.146152	-0.294189	0.183594	-0.77124
948.0	7.104335	0.970063	3.832473	-0.144473	0.350256	0.110214	-0.296631	0.187988	-0.775879
949.0	7.193052	0.809691	3.966583	-0.107256	0.342943	0.078531	-0.291992	0.183594	-0.782715
950.0	7.473864	0.623111	3.858229	-0.110608	0.303595	0.032533	-0.287842	0.190186	-0.7854
951.0	7.706167	0.675341	3.64256	-0.136399	0.316631	-0.010605	-0.289795	0.185791	-0.778076
952.0	8.091237	0.496577	3.548293	-0.136064	0.327099	-0.062446	-0.287598	0.187988	-0.782959
953.0	8.317417	0.35951	3.528274	-0.154976	0.354949	-0.114705	-0.287598	0.187988	-0.782959
954.0	8.554256	0.345502	3.44992	-0.143827	0.380714	-0.17117	-0.283447	0.19458	-0.783203
955.0	8.643864	0.088495	3.279382	-0.167809	0.408085	-0.212584	-0.278564	0.187988	-0.77832
956.0	8.301039	0.122785	3.067026	-0.130505	0.38838	-0.25334	-0.276367	0.190186	-0.780762
957.0	7.937716	0.118697	3.085532	-0.072262	0.32186	-0.277211	-0.280762	0.181396	-0.787354
958.0	7.494607	0.053889	3.292919	-0.003846	0.236437	-0.276881	-0.276611	0.190186	-0.792236
959.0	7.107243	-0.172038	3.735657	0.058313	0.146905	-0.27394	-0.27417	0.185791	-0.782715
960.0	7.020642	-0.432054	4.039401	0.100285	0.043331	-0.262599	-0.278809	0.190186	-0.790039
961.0	7.461805	-1.101512	4.176188	0.110709	-0.098728	-0.235939	-0.276123	0.181396	-0.787354
962.0	8.218215	-1.238758	4.389364	0.117438	-0.151843	-0.21641	-0.278564	0.185791	-0.787598
963.0	8.94048	-1.245793	4.794197	0.149782	-0.140028	-0.140996	-0.27832	0.179199	-0.784912
964.0	9.347672	-1.245613	5.248137	0.175008	-0.116636	-0.046482	-0.283203	0.185791	-0.789795
965.0	9.100744	-0.925689	5.385862	0.156324	-0.006012	0.045493	-0.280273	0.172607	-0.784668
966.0	9.428668	-0.530555	5.202641	0.071427	-0.020885	0.143263	-0.285156	0.181396	-0.784912
967.0	10.025571	0.35267	4.19937	0.061669	-0.128482	0.200896	-0.280273	0.174805	-0.787109
968.0	10.825987	0.677524	3.136304	0.12148	-0.257606	0.235721	-0.284912	0.174805	-0.789307
969.0	11.579977	0.617955	2.389854	0.256309	-0.368318	0.223952	-0.280518	0.179199	-0.791992
970.0	12.040492	-0.082745	2.326863	0.338277	-0.312991	0.195106	-0.289307	0.17041	-0.791504
971.0	12.39782	-0.559944	3.070665	0.368082	-0.086272	0.175142	-0.289063	0.166016	-0.784424
972.0	12.631351	0.279515	4.112357	0.292765	0.092165	0.201956	-0.289307	0.17041	-0.786865
973.0	13.254422	1.95867	3.988402	0.363605	-0.053769	0.295968	-0.284668	0.168213	-0.789063
974.0	12.86861	2.367369	4.418008	0.279203	-0.124507	0.423994	-0.293457	0.166016	-0.789063
975.0	10.925634	3.099348	5.79393	0.080381	0.068849	0.476236	-0.286865	0.166016	-0.796143
976.0	10.001827	3.037222	7.081948	-0.015208	0.080367	0.525879	-0.289307	0.17041	-0.796143
977.0	9.647763	2.833695	6.892052	-0.050871	-0.151534	0.462416	-0.284424	0.163818	-0.79126
978.0	9.199416	1.95042	6.764403	-0.136675	-0.193502	0.375186	-0.293945	0.177002	-0.798828
979.0	8.19716	0.83708	6.906411	-0.317837	-0.162493	0.237447	-0.289307	0.172607	-0.791504
980.0	7.174421	0.36284	6.68683	-0.431009	-0.253148	0.078045	-0.300781	0.177002	-0.787109
981.0	6.415666	0.674139	6.745371	-0.39957	-0.266324	0.009281	-0.298584	0.177002	-0.791748
982.0	6.362199	0.789541	6.74103	-0.270896	-0.208854	0.043287	-0.303223	0.181396	-0.791992
983.0	6.658294	0.704529	6.236879	-0.084248	-0.218486	0.14391	-0.296387	0.179199	-0.787109
984.0	7.369499	0.479242	6.310624	0.076092	-0.259773	0.251654	-0.301025	0.181396	-0.789551
985.0	8.286815	0.586099	6.234607	0.153652	-0.352725	0.312014	-0.305176	0.174805	-0.789307
986.0	8.80502	0.917701	6.110659	0.208549	-0.396389	0.353059	-0.307617	0.179199	-0.787109
987.0	9.709262	1.112991	6.207789	0.179765	-0.439902	0.334259	-0.307617	0.179199	-0.787109
988.0	10.969462	0.312291	5.777635	0.115016	-0.44528	0.212132	-0.316895	0.185791	-0.789795
989.0	11.348248	-0.629762	5.142172	-0.008372	-0.28421	0.033269	-0.314209	0.176758	-0.782471
990.0	10.100323	-0.73714	5.073842	-0.167984	-0.054945	-0.152521	-0.314453	0.179199	-0.787109
991.0	8.508429	-0.481689	5.593103	-0.276731	-0.007121	-0.314138	-0.314209	0.176758	-0.782471
992.0	8.031169	0.432649	5.18576	-0.362277	-0.050606	-0.399119	-0.318848	0.181152	-0.784912
993.0	7.942876	1.225855	4.576165	-0.386811	-0.037027	-0.418712	-0.321045	0.176758	-0.780029
994.0	7.935076	2.028826	4.39737	-0.310162	-0.00154	-0.418215	-0.318848	0.178955	-0.782471
995.0	7.830062	2.377206	4.395968	-0.259883	0.014909	-0.393733	-0.314209	0.176758	-0.782471
996.0	7.641499	2.608523	4.476426	-0.205776	0.006123	-0.373685	-0.328125	0.18335	-0.780273
997.0	7.764965	2.878954	4.685261	-0.174032	0.014796	-0.349875	-0.318604	0.174561	-0.784668
998.0	7.768709	2.7112	4.748743	-0.097569	0.014532	-0.321358	-0.323486	0.178955	-0.789551
999.0	7.970758	2.298076	4.696653	-0.054516	-0.000185	-0.283635	-0.325439	0.174561	-0.782471
1000.0	8.165608	1.638109	4.514843	0.010584	0.038104	-0.24693	-0.325439	0.176758	-0.789551
1001.0	8.310966	0.680286	4.238831	0.054867	0.094974	-0.218991	-0.322998	0.172363	-0.786865
1002.0	8.173803	0.153817	4.042356	0.074106	0.17677	-0.203801	-0.325195	0.170166	-0.791504
1003.0	7.978492	-0.355058	3.920415	0.050838	0.251506	-0.195145	-0.325195	0.170166	-0.784424
1004.0	7.668935	-0.410986	3.952413	0.074555	0.285688	-0.193148	-0.327637	0.172363	-0.789307
1005.0	7.538	-0.148391	4.099498	0.069304	0.270429	-0.177348	-0.322754	0.163574	-0.795898
1006.0	7.397188	0.153541	4.012256	0.061756	0.243941	-0.171421	-0.320801	0.170166	-0.789307
1007.0	7.478828	0.614203	3.911465	0.070965	0.233619	-0.1579	-0.315918	0.163574	-0.79126
1008.0	7.824411	1.052781	3.958174	0.066665	0.208573	-0.137852	-0.320313	0.161377	-0.79126
1009.0	8.018298	1.291693	3.892946	0.087512	0.20976	-0.119028	-0.315918	0.161377	-0.795898
1010.0	8.15244	1.468806	3.686959	0.093154	0.237883	-0.086815	-0.315918	0.15918	-0.800293
1011.0	8.216816	1.769849	3.618037	0.118073	0.280502	-0.054931	-0.311279	0.156982	-0.791016
1012.0	8.400208	1.613124	3.710093	0.138231	0.315007	-0.010447	-0.308838	0.154785	-0.797852
1013.0	8.344628	1.74658	3.560328	0.182671	0.355245	0.01354	-0.313477	0.154785	-0.804932
1014.0	8.443164	1.47211	3.507014	0.212517	0.346338	0.061275	-0.315918	0.15918	-0.804932
1015.0	8.296532	1.280793	3.255706	0.238711	0.311955	0.094008	-0.304199	0.152588	-0.797852
1016.0	7.935182	1.037781	3.141443	0.237882	0.252055	0.129538	-0.308838	0.152588	-0.80249
1017.0	7.465829	1.043615	3.205587	0.212747	0.166206	0.162716	-0.310791	0.148193	-0.809326
1018.0	7.325312	1.210492	3.26563	0.168095	0.045062	0.187171	-0.306396	0.148193	-0.804688
1019.0	7.375513	1.364039	3.364577	0.09018	-0.083703	0.198599	-0.308594	0.145996	-0.802246
1020.0	7.567332	1.572209	3.510033	0.007191	-0.172129	0.19907	-0.306396	0.150391	-0.80249
1021.0	7.780372	1.903147	3.72648	-0.075558	-0.229617	0.2007	-0.312988	0.145996	-0.804443
1022.0	8.147322	2.410144	4.266693	-0.128228	-0.248824	0.186678	-0.317627	0.148193	-0.811523
1023.0	8.71663	3.080794	4.6766	-0.115372	-0.282218	0.193589	-0.319824	0.143799	-0.804443
1024.0	9.171377	3.409069	4.902972	-0.041174	-0.255778	0.188127	-0.317627	0.150391	-0.811768
1025.0	9.230564	3.01223	4.861697	0.050928	-0.194559	0.149523	-0.319824	0.145996	-0.802246
1026.0	8.883248	2.061873	4.206878	0.126914	-0.213932	0.098614	-0.322266	0.152588	-0.804688
1027.0	9.203188	0.953999	3.114722	0.068287	-0.280523	0.01777	-0.326416	0.143799	-0.806885
1028.0	9.993069	0.610103	2.490593	-0.04051	-0.327196	-0.050724	-0.331055	0.148193	-0.802246
1029.0	10.531493	1.371778	2.845367	-0.094683	-0.332584	-0.097312	-0.331055	0.145996	-0.797607
1030.0	10.970567	1.825717	4.012422	-0.102036	-0.309818	-0.135444	-0.337891	0.145996	-0.806885
1031.0	11.352124	1.797937	4.351506	-0.048688	-0.313087	-0.171124	-0.333008	0.139404	-0.799561
1032.0	11.578383	1.596341	3.482025	-0.017459	-0.445586	-0.224916	-0.340088	0.145996	-0.797607
1033.0	11.696774	1.552598	3.063235	0.025381	-0.514766	-0.281969	-0.342041	0.141602	-0.792725
1034.0	11.081188	1.71891	3.597032	0.057449	-0.428062	-0.325566	-0.353027	0.132568	-0.799316
1035.0	10.76287	1.054742	4.280054	0.080694	-0.422348	-0.356697	-0.351074	0.136963	-0.797119
1036.0	10.928029	-0.096323	5.462353	0.220606	-0.453858	-0.35619	-0.353271	0.134766	-0.794922
1037.0	10.785619	-0.303284	6.232815	0.356364	-0.522566	-0.333286	-0.361816	0.123779	-0.789795
1038.0	10.451927	-0.277079	5.687549	0.436885	-0.60343	-0.254964	-0.364014	0.125977	-0.792236
1039.0	9.828892	-0.14448	5.031674	0.455835	-0.698766	-0.132392	-0.372559	0.11499	-0.787109
1040.0	8.923486	0.637379	6.13052	0.450685	-0.456893	-0.016282	-0.375244	0.121582	-0.791992
1041.0	8.062539	0.927613	7.139187	0.416589	-0.250959	0.015043	-0.372559	0.11499	-0.787109
1042.0	7.637695	0.679715	6.754148	0.306477	-0.231499	-0.030652	-0.377441	0.119385	-0.789551
1043.0	8.157395	0.879888	6.396597	0.150965	-0.193469	-0.105501	-0.376709	0.10376	-0.789063
1044.0	8.948716	0.903801	5.935454	0.005346	-0.165552	-0.163337	-0.378906	0.10376	-0.784424
1045.0	9.537762	1.169017	5.749539	-0.106312	-0.127659	-0.20536	-0.387939	0.10376	-0.789063
1046.0	10.328907	1.174026	5.638202	-0.096441	-0.08614	-0.209409	-0.37915	0.108154	-0.786865
1047.0	11.719519	1.777297	5.110665	-0.076944	-0.100241	-0.134014	-0.383301	0.101563	-0.788818
1048.0	12.240856	2.489618	4.382498	0.064473	0.132682	0.013051	-0.388184	0.108154	-0.796143
1049.0	11.1587	1.956639	4.478309	0.217661	0.441727	0.15312	-0.381104	0.099365	-0.79126
1050.0	9.775156	1.013507	5.031529	0.286497	0.565278	0.251616	-0.37915	0.105957	-0.791504
1051.0	8.656526	0.033728	5.228013	0.33001	0.53156	0.33618	-0.376465	0.099365	-0.79126
1052.0	8.229811	-0.427836	5.113187	0.327244	0.449102	0.408133	-0.376709	0.10376	-0.79126
1053.0	7.872895	-0.885742	4.879987	0.272107	0.393335	0.464788	-0.374023	0.094971	-0.800293
1054.0	7.600705	-0.727725	4.745103	0.158009	0.326367	0.477219	-0.376709	0.101563	-0.795898
1055.0	7.623466	-0.647715	4.816681	0.07718	0.265478	0.464901	-0.369873	0.099365	-0.800537
1056.0	7.798901	-0.553355	4.69485	-0.010101	0.226604	0.430998	-0.372314	0.104004	-0.805176
1057.0	8.064593	-0.275668	4.507991	-0.084385	0.206762	0.377583	-0.369873	0.101563	-0.79834
1058.0	8.138547	0.297182	4.327598	-0.097579	0.222406	0.31216	-0.370117	0.108398	-0.800781
1059.0	8.048814	0.27391	4.244173	-0.140971	0.288887	0.281401	-0.365479	0.106201	-0.807617
1060.0	7.950217	0.708649	4.192736	-0.104976	0.371249	0.225086	-0.365723	0.108398	-0.807861
1061.0	8.176976	0.667101	4.378042	-0.102027	0.455775	0.22362	-0.356689	0.108398	-0.80542
1062.0	7.636778	1.076682	4.030845	-0.064937	0.569587	0.205282	-0.354248	0.106201	-0.810059
1063.0	7.607359	0.893487	4.16717	-0.077684	0.627921	0.211605	-0.358887	0.110596	-0.817139
1064.0	7.134922	1.186672	3.994882	-0.069706	0.636222	0.189505	-0.352295	0.110596	-0.821777
1065.0	7.000525	1.134481	3.99924	-0.034505	0.597283	0.165853	-0.345459	0.112793	-0.814941
1066.0	6.833888	1.189417	4.157334	0.012829	0.54743	0.128931	-0.352539	0.117188	-0.822021
1067.0	7.142427	0.894052	4.142229	-0.016433	0.47842	0.10056	-0.345459	0.108398	-0.817139
1068.0	7.453639	0.846619	3.977764	-0.008584	0.425338	0.034603	-0.343262	0.110596	-0.824219
1069.0	7.973716	0.535858	3.773821	-0.033077	0.396213	-0.025143	-0.343018	0.108398	-0.821777
1070.0	8.458569	0.296503	3.735521	-0.099979	0.41784	-0.071598	-0.341064	0.112793	-0.826416
1071.0	8.259102	0.563085	3.575247	-0.084361	0.455967	-0.135524	-0.341064	0.11499	-0.828857
1072.0	8.522554	0.15019	3.592262	-0.099659	0.444022	-0.173998	-0.338867	0.115234	-0.835938
1073.0	8.315611	0.289656	3.285216	-0.084598	0.410434	-0.220936	-0.32959	0.106445	-0.828613
1074.0	8.216629	0.27465	3.142462	-0.055798	0.337418	-0.262645	-0.327637	0.115234	-0.835938
1075.0	7.741867	0.389468	3.199537	-0.025293	0.279048	-0.284228	-0.326904	0.097656	-0.839844
1076.0	7.348418	0.312635	3.427411	0.033556	0.20642	-0.29859	-0.332031	0.11084	-0.840332
1077.0	7.18197	0.212434	3.782552	0.045836	0.121687	-0.292227	-0.327148	0.102051	-0.830811
1078.0	7.212893	-0.223156	4.265736	0.031965	0.020769	-0.282344	-0.327148	0.106445	-0.837891
1079.0	7.549953	-0.666057	4.48911	-0.017157	-0.092751	-0.27485	-0.331543	0.102051	-0.840088
1080.0	8.239412	-0.811761	4.535996	-0.038833	-0.20907	-0.250142	-0.335938	0.097412	-0.842285
1081.0	9.078734	-0.952154	4.810101	-0.046013	-0.228167	-0.196399	-0.335693	0.093018	-0.837402
1082.0	9.232897	-0.698156	5.130881	-0.02819	-0.124971	-0.129842	-0.331543	0.099609	-0.837646
1083.0	9.435099	-0.620702	5.112401	-0.013445	-0.032421	-0.046089	-0.342529	0.093018	-0.837402
1084.0	9.807171	-0.163662	4.586323	-0.060673	0.014843	0.026264	-0.338135	0.097412	-0.844482
1085.0	10.246528	0.423045	3.645023	-0.021217	-0.033986	0.077417	-0.340088	0.09082	-0.8396
1086.0	10.790645	0.643461	2.852876	0.112163	-0.094655	0.080534	-0.342529	0.09082	-0.837402
1087.0	11.463904	-0.207905	3.001387	0.215817	-0.056743	0.097861	-0.337891	0.093018	-0.839844
1088.0	12.072646	-0.251475	4.176022	0.245794	0.095465	0.119614	-0.346924	0.09082	-0.84668
1089.0	12.587641	0.47209	5.253927	0.189076	0.189922	0.180814	-0.335449	0.088623	-0.841797
1090.0	13.102074	1.582317	5.277822	0.150518	0.026176	0.286139	-0.342285	0.088623	-0.846436
1091.0	13.118431	2.297019	5.865868	0.025389	-0.094677	0.392021	-0.342285	0.088623	-0.844238
1092.0	11.982224	2.768213	6.640119	-0.259345	-0.058343	0.468904	-0.344727	0.093018	-0.8396
1093.0	11.261463	3.376881	7.05672	-0.357254	-0.171799	0.541317	-0.347412	0.101807	-0.842285
1094.0	10.849181	2.643879	6.535951	-0.35905	-0.35544	0.522746	-0.351807	0.099609	-0.844482
1095.0	9.348611	0.84873	5.91924	-0.328126	-0.319488	0.373716	-0.35376	0.095215	-0.842041
1096.0	7.773078	-0.35318	5.764657	-0.37927	-0.29366	0.145666	-0.354492	0.112793	-0.844971
1097.0	6.863844	-1.185481	6.216246	-0.372384	-0.364239	-0.054173	-0.363037	0.101807	-0.835449
1098.0	6.111252	-1.029483	6.382189	-0.26563	-0.365726	-0.130133	-0.365723	0.110596	-0.842773
1099.0	6.332809	-0.172882	6.55261	-0.029015	-0.312719	-0.060647	-0.370361	0.110596	-0.838135
1100.0	6.542519	0.459159	6.390111	0.227349	-0.273784	0.071797	-0.372314	0.104004	-0.840088
1101.0	7.19292	0.869352	6.10308	0.406735	-0.312732	0.198319	-0.37207	0.101807	-0.842285
1102.0	8.272724	1.172626	5.925455	0.494481	-0.38446	0.293525	-0.376953	0.106201	-0.835449
1103.0	9.581224	1.362639	5.63223	0.472988	-0.455221	0.351172	-0.381104	0.099609	-0.833008
1104.0	10.315435	1.553871	5.557359	0.300722	-0.351775	0.348555	-0.381348	0.106201	-0.840088
1105.0	10.632075	1.324163	5.456095	0.060183	-0.142567	0.281726	-0.383301	0.099365	-0.830566
1106.0	10.363787	0.640804	5.722237	-0.132155	0.058389	0.143023	-0.381348	0.106201	-0.840088
1107.0	9.457653	-0.085421	5.824959	-0.328904	0.197601	-0.044016	-0.378906	0.101807	-0.835449
1108.0	8.305184	-0.419683	5.88419	-0.442717	0.244703	-0.219106	-0.385742	0.106201	-0.837891
1109.0	7.548523	-0.712562	5.889775	-0.404187	0.169005	-0.336408	-0.383545	0.104004	-0.837891
1110.0	7.280255	-0.219472	5.421429	-0.295893	0.005268	-0.367631	-0.383789	0.112793	-0.838135
1111.0	7.426239	0.796426	4.791701	-0.198508	-0.059195	-0.367203	-0.385986	0.106201	-0.842529
1112.0	7.73297	1.618577	4.476039	-0.048463	-0.045483	-0.370512	-0.385986	0.110596	-0.835693
1113.0	7.935952	1.987438	4.665225	0.00852	-0.007726	-0.36633	-0.385742	0.101807	-0.840088
1114.0	7.75843	2.345992	4.859134	0.020471	0.025379	-0.357726	-0.390137	0.101563	-0.842285
1115.0	7.690871	2.527155	4.808391	0.040872	0.008917	-0.350996	-0.385498	0.097168	-0.839844
1116.0	7.559476	2.376586	4.939342	0.05302	-0.029612	-0.336419	-0.392334	0.101563	-0.835449
1117.0	7.537171	1.943025	4.797567	0.081356	-0.067206	-0.314074	-0.389893	0.094971	-0.842041
1118.0	7.717992	1.231564	4.664676	0.062547	-0.089914	-0.284351	-0.392334	0.099365	-0.835205
1119.0	7.763587	0.581187	4.256779	0.048309	-0.106441	-0.256341	-0.39209	0.092773	-0.844238
1120.0	7.687184	0.263723	3.94082	0.006196	-0.077527	-0.244308	-0.396973	0.099365	-0.837646
1121.0	7.606554	0.192695	3.91009	-0.013274	-0.052018	-0.241935	-0.39209	0.090576	-0.837158
1122.0	7.612785	0.160264	3.927209	-0.001878	-0.05036	-0.232245	-0.396729	0.097168	-0.832764
1123.0	7.735661	0.186027	3.804629	-0.02115	-0.028072	-0.214856	-0.394287	0.090576	-0.837158
1124.0	7.814593	0.497496	3.811638	-0.018826	-0.015053	-0.190695	-0.401123	0.090576	-0.841797
1125.0	8.253946	0.912765	3.758263	-0.003702	0.005829	-0.15478	-0.396484	0.092773	-0.837402
1126.0	8.412233	1.121783	3.598711	0.013073	0.089954	-0.117942	-0.396729	0.097168	-0.844482
1127.0	8.490661	1.317937	3.750937	0.034432	0.172142	-0.085838	-0.391846	0.088379	-0.8396
1128.0	8.604602	1.49168	3.652971	0.047505	0.250237	-0.054245	-0.398682	0.090576	-0.8396
1129.0	8.579618	1.57869	3.619789	0.081014	0.336392	-0.018649	-0.391846	0.088379	-0.8396
1130.0	8.498686	1.601251	3.680906	0.116058	0.382159	0.010173	-0.391846	0.088379	-0.846436
1131.0	8.47903	1.58314	3.465265	0.161848	0.375133	0.033632	-0.389648	0.088379	-0.837158
1132.0	8.172908	1.41311	3.183774	0.162458	0.327669	0.059109	-0.394287	0.088379	-0.844238
1133.0	7.794214	1.363002	3.114685	0.157748	0.257888	0.07365	-0.382813	0.083984	-0.848633
1134.0	7.4344	1.283702	3.106936	0.138507	0.136701	0.088546	-0.391357	0.077393	-0.846191
1135.0	7.161554	1.321965	3.236986	0.078942	-0.007494	0.098387	-0.382568	0.081787	-0.853271
1136.0	7.272643	1.434641	3.372768	-0.012152	-0.168663	0.107855	-0.393799	0.081787	-0.841553
1137.0	7.471256	1.693392	3.412754	-0.102992	-0.30875	0.097257	-0.391357	0.077393	-0.848389
1138.0	7.79	2.046193	3.728699	-0.17512	-0.423106	0.096268	-0.394043	0.086182	-0.846436
1139.0	8.043483	2.639413	4.263651	-0.210622	-0.4658	0.103318	-0.400879	0.086182	-0.846436
1140.0	8.404444	3.124537	4.587623	-0.211673	-0.457497	0.121533	-0.398682	0.090576	-0.84668
1141.0	8.986377	3.228454	4.893126	-0.128029	-0.388154	0.123255	-0.407471	0.083984	-0.841553
1142.0	9.253513	2.611837	4.876773	-0.022466	-0.241334	0.10312	-0.405518	0.088379	-0.837158
1143.0	9.164423	1.644641	4.182283	0.030069	-0.131093	0.079292	-0.407715	0.088379	-0.83252
1144.0	9.622121	0.72225	3.497404	0.019239	-0.079997	0.026349	-0.405518	0.090576	-0.837158
1145.0	10.603332	0.446113	2.986089	-0.049922	-0.055522	-0.01544	-0.407715	0.086182	-0.834717
1146.0	11.554954	1.042546	3.141759	-0.076927	-0.004166	-0.047824	-0.405518	0.090576	-0.841797
1147.0	11.961268	1.629765	3.656481	-0.094951	0.0837	-0.060975	-0.409912	0.088379	-0.841797
1148.0	11.948114	1.665253	3.633216	-0.120798	0.103421	-0.070323	-0.412354	0.092773	-0.837402
1149.0	11.86214	1.600021	3.203095	-0.135183	-0.016606	-0.101044	-0.410156	0.092773	-0.8396
1150.0	11.647737	1.917597	2.722542	-0.158744	-0.176684	-0.169769	-0.410156	0.094971	-0.84668
1151.0	11.088042	2.572594	2.970863	-0.18318	-0.195282	-0.254713	-0.409912	0.086182	-0.837158
1152.0	10.177975	2.307191	4.153779	-0.213007	-0.152039	-0.315009	-0.414551	0.092773	-0.837402
1153.0	9.959646	1.010649	5.549873	-0.197545	-0.192358	-0.349202	-0.414551	0.090576	-0.837158
1154.0	10.108223	0.424166	6.538885	-0.031205	-0.327418	-0.373827	-0.418945	0.090576	-0.8396
1155.0	10.433658	-0.23259	6.765785	0.190641	-0.396112	-0.358119	-0.421143	0.083984	-0.836914
1156.0	10.332939	-0.654113	5.806562	0.278145	-0.543095	-0.284646	-0.427979	0.088379	-0.834961
1157.0	9.826779	-0.330247	5.660922	0.24361	-0.445512	-0.177952	-0.429688	0.077148	-0.832031
1158.0	8.652934	0.226265	6.769511	0.225604	-0.163161	-0.08941	-0.429932	0.079346	-0.832275
1159.0	7.990253	0.569976	7.200259	0.197147	-0.046236	-0.089166	-0.42749	0.077148	-0.827393
1160.0	7.503231	0.410526	6.5224	0.125627	0.048212	-0.130678	-0.432129	0.079346	-0.832275
1161.0	7.38532	0.463062	6.392262	0.012808	0.070499	-0.189281	-0.422852	0.072754	-0.824951
1162.0	7.77718	0.436977	6.543627	-0.096296	0.015584	-0.249763	-0.42749	0.074951	-0.827393
1163.0	8.566844	0.412551	6.278124	-0.120645	-0.058129	-0.258097	-0.427246	0.072754	-0.827393
1164.0	9.583906	0.507449	6.0082	-0.078932	-0.068169	-0.231614	-0.429688	0.077148	-0.822754
1165.0	10.751384	1.091018	5.416863	0.024712	-0.043169	-0.151245	-0.429688	0.074951	-0.82959
1166.0	11.756802	1.724555	4.725785	0.167103	0.088824	-0.008495	-0.434082	0.072754	-0.822754
1167.0	11.110372	1.651571	4.644094	0.319687	0.449903	0.149833	-0.424805	0.068359	-0.827148
1168.0	9.547388	1.165344	5.224236	0.39371	0.629531	0.282148	-0.42041	0.070557	-0.836426
1169.0	7.865508	0.657503	5.576348	0.403122	0.606141	0.387053	-0.420654	0.072754	-0.83667
1170.0	7.184426	0.26196	5.499936	0.36436	0.477694	0.445637	-0.411621	0.075195	-0.84375
1171.0	7.003718	0.148828	5.293366	0.293146	0.369464	0.464711	-0.411377	0.070801	-0.841064
1172.0	7.19767	0.065999	5.145348	0.174653	0.259361	0.449627	-0.411621	0.075195	-0.841309
1173.0	7.375415	-0.227195	5.216444	0.056423	0.194279	0.435222	-0.40918	0.070801	-0.845703
1174.0	7.727257	-0.30739	5.164138	0.001276	0.120876	0.391713	-0.409424	0.072998	-0.841309
1175.0	7.856455	-0.241015	4.896475	-0.01708	0.074335	0.342891	-0.411865	0.077393	-0.841309
1176.0	7.735523	-0.291983	4.522078	-0.034897	0.070029	0.318122	-0.411865	0.07959	-0.841553
1177.0	7.902462	-0.073944	4.497294	-0.006647	0.099555	0.266543	-0.407471	0.081787	-0.848633
1178.0	8.077338	0.149805	4.508821	0.015909	0.133619	0.267972	-0.407227	0.07959	-0.841553
1179.0	8.27103	0.375919	4.394478	-0.012296	0.188638	0.279179	-0.405273	0.083984	-0.843994
1180.0	8.14272	0.861507	3.960008	0.019829	0.252232	0.270494	-0.405273	0.081787	-0.85083
1181.0	7.991883	1.037614	3.888393	-0.010719	0.306518	0.287408	-0.405273	0.086182	-0.846436
1182.0	7.540546	1.354275	3.802495	0.06695	0.331881	0.259222	-0.403076	0.086182	-0.851074
1183.0	7.383928	0.83755	4.018383	0.05534	0.328581	0.25703	-0.400879	0.086182	-0.846436
1184.0	7.409515	0.79889	3.981881	0.052136	0.293227	0.201097	-0.398926	0.092773	-0.851318
1185.0	7.734634	0.588744	3.967011	0.026373	0.285002	0.150179	-0.394043	0.086182	-0.855713
1186.0	7.886519	0.662774	3.80347	-0.006376	0.300743	0.075028	-0.39209	0.092773	-0.855957
1187.0	7.982759	0.633207	3.755052	-0.001291	0.342606	-0.005008	-0.389893	0.092773	-0.851318
1188.0	8.217571	0.431409	3.700884	-0.068381	0.426038	-0.067846	-0.39209	0.092773	-0.855957
1189.0	8.443834	0.26402	3.61737	-0.085453	0.486246	-0.118448	-0.39209	0.090576	-0.860596
1190.0	8.220181	0.464616	3.468187	-0.059572	0.485248	-0.168329	-0.380859	0.093018	-0.869873
1191.0	8.108451	0.387144	3.286177	-0.056486	0.42625	-0.21025	-0.380615	0.088623	-0.860352
1192.0	8.059104	0.500344	3.243539	-0.034672	0.331547	-0.228608	-0.383057	0.093018	-0.865234
1193.0	7.593387	0.791945	3.183227	0.033123	0.227981	-0.247262	-0.378418	0.086426	-0.862549
1194.0	7.262883	0.772807	3.47291	0.089777	0.145983	-0.234203	-0.376221	0.09082	-0.862793
1195.0	7.126328	0.179252	3.920096	0.101186	0.051611	-0.219259	-0.378418	0.086426	-0.862549
1196.0	7.217981	-0.223779	4.193396	0.102517	-0.07939	-0.216377	-0.380371	0.079834	-0.864746
1197.0	7.914405	-0.965793	4.365436	0.066668	-0.1916	-0.206952	-0.382568	0.07959	-0.864746
1198.0	8.626094	-1.306646	4.537752	0.06451	-0.249634	-0.182428	-0.387451	0.088623	-0.862793
1199.0	9.147147	-1.232771	4.695695	0.093126	-0.278988	-0.128706	-0.380371	0.07959	-0.853027
1200.0	9.410051	-1.013467	4.798106	0.138395	-0.211658	-0.041345	-0.387207	0.083984	-0.860352
1201.0	9.322783	-0.283109	4.881689	0.202404	-0.115516	0.04049	-0.38916	0.077393	-0.860107
1202.0	9.957062	0.030251	4.500539	0.252521	-0.108936	0.117368	-0.389404	0.083984	-0.860352
1203.0	10.492344	0.314742	3.481098	0.25494	-0.157522	0.154169	-0.388916	0.070801	-0.852783
1204.0	11.040935	0.463386	2.53669	0.366838	-0.2039	0.144739	-0.393799	0.077393	-0.857666
1205.0	11.601798	0.09643	1.965036	0.463381	-0.205159	0.148952	-0.391113	0.068604	-0.85498
1206.0	11.696709	-0.692954	2.516102	0.507692	0.05816	0.153738	-0.393555	0.072998	-0.857422
1207.0	11.198057	-0.897557	4.479853	0.352766	0.352912	0.156574	-0.391113	0.070801	-0.862061
1208.0	11.375381	1.119151	5.0534	0.274373	0.152042	0.219503	-0.391113	0.068604	-0.85498
1209.0	12.536608	3.114375	4.3738	0.399684	-0.296107	0.339601	-0.395508	0.068604	-0.848145
1210.0	12.780394	3.722704	5.440522	0.287904	-0.221834	0.46179	-0.397949	0.070801	-0.857422
1211.0	11.969394	3.695642	7.476984	0.026883	0.040378	0.522053	-0.395752	0.070801	-0.850586
1212.0	11.216389	3.93145	7.647238	-0.084619	-0.079349	0.532365	-0.398193	0.077393	-0.855469
1213.0	10.138307	2.46968	6.331136	-0.148824	-0.243814	0.467249	-0.393555	0.072998	-0.852783
1214.0	8.723675	0.68069	6.729528	-0.331764	-0.12612	0.323314	-0.407471	0.083984	-0.853271
1215.0	7.193673	-0.390751	6.91344	-0.443165	-0.186082	0.127852	-0.39624	0.086182	-0.848633
1216.0	6.45857	-0.407035	7.001061	-0.438537	-0.284457	0.011523	-0.405762	0.097168	-0.849121
1217.0	6.238633	0.001604	6.80392	-0.330554	-0.231621	0.034427	-0.410156	0.092773	-0.853516
1218.0	6.402855	0.083523	6.532418	-0.121281	-0.171387	0.123606	-0.406006	0.101563	-0.849365
1219.0	7.021658	0.390266	6.579474	0.092163	-0.190436	0.218231	-0.407959	0.094971	-0.84668
1220.0	7.789579	0.82995	6.448245	0.235708	-0.22181	0.294619	-0.4104	0.101563	-0.842285
1221.0	8.765956	1.227861	6.338367	0.295364	-0.240774	0.340929	-0.4104	0.097168	-0.842041
1222.0	10.016731	1.421304	6.145755	0.232323	-0.260785	0.348373	-0.407959	0.094971	-0.844482
1223.0	10.722203	0.890827	5.667557	0.11124	-0.156443	0.283461	-0.419189	0.092773	-0.842041
1224.0	10.688853	-0.012326	5.565841	-0.048015	0.050476	0.125207	-0.415283	0.105957	-0.847168
1225.0	9.672875	-0.450949	5.814531	-0.214458	0.219579	-0.068207	-0.410156	0.094971	-0.837402
1226.0	8.402952	-0.602785	5.983449	-0.313775	0.247271	-0.241869	-0.408203	0.10376	-0.840088
1227.0	7.409694	-0.496542	6.049688	-0.294689	0.128553	-0.341849	-0.412598	0.099365	-0.839844
1228.0	7.170029	0.097791	5.361289	-0.258852	-0.033886	-0.371435	-0.410645	0.105957	-0.847168
1229.0	7.205535	1.062541	5.008161	-0.12187	-0.124271	-0.373537	-0.410645	0.10376	-0.840088
1230.0	7.519419	1.429131	4.622281	-0.076931	-0.12438	-0.372222	-0.412842	0.10376	-0.844727
1231.0	7.650233	2.045552	4.499122	-0.055573	-0.096872	-0.376263	-0.417236	0.101563	-0.840088
1232.0	7.674458	2.3695	4.667697	-0.057618	-0.04837	-0.35688	-0.419434	0.101563	-0.837646
1233.0	7.672683	2.727267	4.84	-0.049502	-0.037958	-0.332219	-0.415039	0.101563	-0.840088
1234.0	7.579386	2.571743	4.931437	-0.011834	-0.052918	-0.309083	-0.421631	0.101563	-0.840088
1235.0	7.764149	2.159861	4.950765	0.005012	-0.099668	-0.283355	-0.421631	0.097168	-0.839844
1236.0	7.849039	1.40037	4.675781	0.009457	-0.099543	-0.248126	-0.423828	0.097168	-0.842041
1237.0	8.049945	0.802778	4.320171	0.014555	-0.088193	-0.232071	-0.425781	0.092773	-0.837402
1238.0	7.846209	0.209447	4.274475	0.004677	-0.039318	-0.229012	-0.421631	0.101563	-0.835449
1239.0	7.577969	0.000574	4.111856	-0.01249	-0.019032	-0.238519	-0.423584	0.092773	-0.834961
1240.0	7.579157	-0.062678	4.01313	0.013479	-0.014701	-0.235206	-0.416992	0.092773	-0.842041
1241.0	7.666689	-0.004127	4.05837	0.020153	-0.015645	-0.223602	-0.423584	0.090576	-0.837158
1242.0	7.857286	0.326358	3.761505	0.012096	-0.006021	-0.21709	-0.421387	0.092773	-0.8396
1243.0	8.083435	0.633555	3.85302	0.000294	0.031034	-0.202991	-0.425781	0.092773	-0.832764
1244.0	8.354505	1.119483	3.700503	0.004838	0.061646	-0.182568	-0.426025	0.097168	-0.835205
1245.0	8.565019	1.444699	3.531398	-0.022473	0.118681	-0.161037	-0.421387	0.094971	-0.837402
1246.0	8.741215	1.652549	3.568011	-0.027405	0.18229	-0.135085	-0.424072	0.101563	-0.840088
1247.0	8.563136	1.80186	3.608017	-0.020162	0.2478	-0.106345	-0.421387	0.094971	-0.837402
1248.0	8.612031	1.819194	3.56295	-0.01866	0.28043	-0.08144	-0.419189	0.094971	-0.839844
1249.0	8.570796	1.707837	3.340865	0.002374	0.27439	-0.050142	-0.412354	0.094971	-0.839844
1250.0	8.360182	1.521657	3.252115	0.034182	0.25524	-0.018739	-0.419434	0.097168	-0.844482
1251.0	7.958401	1.406167	3.067466	0.025506	0.210228	0.022875	-0.416992	0.092773	-0.837402
1252.0	7.504116	1.259932	3.086935	0.009053	0.122855	0.055239	-0.412842	0.101563	-0.840088
1253.0	7.23347	1.355172	3.224533	-0.024361	-0.023824	0.065402	-0.4104	0.097168	-0.839844
1254.0	7.238445	1.414005	3.333947	-0.090327	-0.186788	0.083558	-0.419678	0.105957	-0.842529
1255.0	7.365725	1.741915	3.375548	-0.163635	-0.325568	0.089017	-0.421631	0.097168	-0.835205
1256.0	7.686366	2.020646	3.5862	-0.206238	-0.456946	0.078947	-0.428223	0.097168	-0.825928
1257.0	8.012243	2.580007	3.986494	-0.234764	-0.540727	0.088524	-0.42627	0.10376	-0.828369
1258.0	8.451738	2.909268	4.204795	-0.196476	-0.55993	0.094984	-0.43335	0.108154	-0.830811
1259.0	8.853637	2.778642	4.499446	-0.112786	-0.48054	0.092819	-0.43335	0.110352	-0.828613
1260.0	9.084817	2.246997	4.435135	0.015711	-0.368913	0.067904	-0.435791	0.114746	-0.831055
1261.0	9.113308	1.384969	3.692199	0.101001	-0.303429	0.036139	-0.435547	0.105957	-0.823975
1262.0	9.693611	0.562529	3.081132	0.120063	-0.246154	0.004483	-0.439941	0.10791	-0.821533
1263.0	10.563822	0.463074	2.99807	0.048081	-0.200789	-0.035605	-0.449219	0.110107	-0.821777
1264.0	11.391551	1.372873	3.691473	0.024359	-0.10748	-0.051979	-0.44458	0.110107	-0.819336
1265.0	11.866863	1.605459	3.95009	0.000811	-0.02806	-0.058263	-0.448975	0.105713	-0.805176
1266.0	12.096075	1.531567	3.668182	-0.0331	0.018652	-0.078176	-0.449219	0.114502	-0.821777
1267.0	12.254432	1.527472	3.197901	0.007118	-0.053959	-0.126802	-0.449219	0.112305	-0.81958
1268.0	11.799968	1.96037	3.05857	0.003845	-0.097142	-0.184088	-0.446777	0.110107	-0.821777
1269.0	10.954168	2.523104	3.470015	-0.034731	-0.060226	-0.244806	-0.448975	0.103516	-0.814453
1270.0	10.038658	1.921268	4.356756	-0.095159	-0.154759	-0.292273	-0.45166	0.116699	-0.812744
1271.0	10.230756	0.718131	5.39886	0.033896	-0.29754	-0.323528	-0.455811	0.10791	-0.810059
1272.0	10.164741	0.445969	6.320243	0.201731	-0.35892	-0.325675	-0.455811	0.10791	-0.812256
1273.0	9.840179	-0.110818	6.100235	0.330946	-0.497146	-0.270409	-0.460205	0.103516	-0.809814
1274.0	9.594483	-0.156776	5.372623	0.309216	-0.691075	-0.187096	-0.4646	0.105713	-0.807617
1275.0	8.975489	0.300111	6.160246	0.252776	-0.552363	-0.101784	-0.464355	0.094727	-0.797852
1276.0	8.298457	0.508231	6.851296	0.199794	-0.404093	-0.05751	-0.467041	0.105713	-0.800537
1277.0	8.022825	0.472333	6.478112	0.132853	-0.341242	-0.091154	-0.475342	0.092285	-0.800049
1278.0	8.05815	0.372979	5.813464	0.023762	-0.213382	-0.157671	-0.475586	0.09668	-0.795654
1279.0	8.132861	0.610154	5.769067	-0.118469	-0.10566	-0.211248	-0.470947	0.094482	-0.795654
1280.0	8.617736	0.732018	5.934495	-0.195241	-0.062038	-0.271702	-0.480225	0.101074	-0.795898
1281.0	9.282863	0.695198	5.854201	-0.203911	-0.027618	-0.280557	-0.482178	0.094482	-0.797852
1282.0	10.160043	0.874271	5.558928	-0.110025	-0.00063	-0.246907	-0.478027	0.098877	-0.795654
1283.0	11.231721	1.460855	4.922473	-0.00349	0.086021	-0.149755	-0.482422	0.09668	-0.793213
1284.0	11.708822	1.978561	4.465082	0.112865	0.330164	0.007996	-0.477783	0.09668	-0.800293
1285.0	10.776192	1.427461	4.667391	0.221844	0.595562	0.158002	-0.469238	0.103516	-0.802979
1286.0	9.197503	0.754534	5.324634	0.241938	0.703334	0.280626	-0.471436	0.103516	-0.802979
1287.0	8.140328	0.251885	5.599286	0.243891	0.588854	0.365771	-0.466553	0.094727	-0.804932
1288.0	7.503501	-0.113463	5.435281	0.19444	0.438106	0.425933	-0.467041	0.105713	-0.809814
1289.0	7.174902	-0.302574	5.351128	0.086529	0.32496	0.444243	-0.462158	0.101318	-0.788818
1290.0	7.25363	-0.331518	5.34619	0.029292	0.213511	0.434608	-0.460205	0.10791	-0.812256
1291.0	7.237578	-0.348476	5.34072	-0.071007	0.156824	0.411992	-0.460205	0.10791	-0.807617
1292.0	7.489075	-0.38554	5.283922	-0.12338	0.115974	0.370247	-0.458496	0.118896	-0.808105
1293.0	7.905183	-0.30977	4.862085	-0.130367	0.0619	0.317188	-0.462646	0.110107	-0.810059
1294.0	8.077264	-0.163518	4.458292	-0.134956	0.094435	0.279458	-0.458496	0.118896	-0.803467
1295.0	8.323985	0.031888	4.555447	-0.100904	0.176689	0.25519	-0.456055	0.112305	-0.810059
1296.0	8.211386	0.421254	4.419952	-0.116168	0.224326	0.245763	-0.45874	0.123291	-0.812988
1297.0	8.06999	0.746972	4.179362	-0.061645	0.290262	0.238984	-0.454346	0.125488	-0.80835
1298.0	7.929836	0.732014	3.985344	-0.076554	0.337777	0.243288	-0.452148	0.130127	-0.817871
1299.0	7.568453	1.134119	3.759833	0.002463	0.35053	0.206525	-0.454346	0.127686	-0.81543
1300.0	7.453638	0.92599	3.907079	0.011444	0.369725	0.185744	-0.456787	0.13208	-0.815674
1301.0	7.172232	1.000929	4.05786	0.033956	0.340066	0.147829	-0.451904	0.125488	-0.812988
1302.0	7.376848	0.743796	4.184347	0.038898	0.26749	0.107415	-0.442871	0.125732	-0.81543
1303.0	7.681967	0.673197	3.834405	0.004442	0.22951	0.049795	-0.449951	0.130127	-0.820068
1304.0	8.052288	0.369964	3.695894	-0.019674	0.250372	-0.003631	-0.449951	0.132324	-0.820313
1305.0	8.201426	0.487725	3.400025	-0.035111	0.281472	-0.068229	-0.438721	0.132324	-0.817871
1306.0	8.443685	0.274386	3.359866	-0.056199	0.327493	-0.105295	-0.438721	0.132324	-0.820313
1307.0	8.480915	0.373428	3.134856	-0.064351	0.330071	-0.148317	-0.438232	0.121338	-0.822021
1308.0	8.66726	0.419805	3.027019	-0.046135	0.31761	-0.175058	-0.438721	0.130127	-0.82251
1309.0	8.319786	0.383809	2.75782	-0.025072	0.283987	-0.213953	-0.436279	0.12793	-0.822266
1310.0	7.960753	0.69103	2.8536	0.015726	0.241804	-0.247374	-0.434082	0.125732	-0.826904
1311.0	7.5296	0.485416	3.144827	0.062263	0.177502	-0.267142	-0.433838	0.123535	-0.824463
1312.0	7.138941	0.254351	3.494909	0.128186	0.075212	-0.278872	-0.438477	0.123535	-0.824463
1313.0	7.160582	-0.088666	3.89192	0.120473	-0.051407	-0.303277	-0.438232	0.116943	-0.828857
1314.0	7.661964	-0.576756	3.917772	0.086072	-0.189044	-0.29552	-0.443115	0.125732	-0.822266
1315.0	8.406882	-0.730217	4.216816	0.043509	-0.234117	-0.282662	-0.438232	0.116943	-0.824219
1316.0	9.105582	-0.815268	4.639018	0.030041	-0.176069	-0.243116	-0.442871	0.123535	-0.824463
1317.0	9.49729	-0.826357	5.155728	0.019233	-0.076374	-0.17473	-0.447266	0.119141	-0.82666
1318.0	9.535939	-0.70329	5.20203	-0.038873	0.020006	-0.084342	-0.44751	0.125732	-0.820068
1319.0	9.338154	-0.054526	4.717529	-0.108097	0.050574	0.001923	-0.442627	0.119141	-0.824463
1320.0	9.889612	0.386219	3.637873	-0.082849	-0.04351	0.086402	-0.445068	0.123535	-0.817627
1321.0	10.628242	0.344358	2.73039	-0.015089	-0.156722	0.127871	-0.447266	0.121338	-0.822021
1322.0	11.23424	0.144657	2.377562	0.226779	-0.176658	0.127251	-0.44751	0.123535	-0.819824
1323.0	11.781572	-1.205995	3.241191	0.344887	-0.076806	0.152651	-0.449463	0.121094	-0.817383
1324.0	12.242431	-1.11144	4.363052	0.38893	0.103226	0.15659	-0.44751	0.123535	-0.822266
1325.0	13.157081	0.367493	4.473848	0.369707	0.058366	0.240779	-0.444824	0.112305	-0.817139
1326.0	14.262258	1.422666	4.026244	0.374767	-0.111598	0.388114	-0.451904	0.123291	-0.822266
1327.0	13.185532	2.432434	5.008459	0.209211	0.037702	0.505064	-0.453857	0.116699	-0.817383
1328.0	11.362367	3.43442	6.831355	0.035864	0.188983	0.563674	-0.44751	0.125732	-0.829346
1329.0	10.461149	3.587397	7.076994	-0.014571	-0.047726	0.553898	-0.449463	0.121094	-0.822021
1330.0	9.724616	2.432812	6.764971	-0.098225	-0.131945	0.452824	-0.447754	0.134521	-0.824951
1331.0	8.36982	1.295415	6.529287	-0.201749	-0.139202	0.293478	-0.456543	0.125488	-0.817627
1332.0	7.279619	0.300953	6.461336	-0.221091	-0.308685	0.112626	-0.452393	0.134521	-0.815674
1333.0	6.743444	-0.341918	6.644948	-0.261001	-0.412484	-0.007657	-0.45459	0.134521	-0.820313
1334.0	6.503223	-0.072846	6.480141	-0.167765	-0.408614	-0.019164	-0.461182	0.13208	-0.810791
1335.0	6.657084	0.296592	6.287195	0.026582	-0.332772	0.073635	-0.46582	0.134277	-0.813232
1336.0	7.096403	0.489363	6.087873	0.215116	-0.272853	0.21066	-0.46167	0.140869	-0.808838
