Acquisition frequency: 100 Hz
PacketCounter	Acc_X	Acc_Y	Acc_Z	Gyr_X	Gyr_Y	Gyr_Z	Mag_X	Mag_Y	Mag_Z
2.0	5.275134	2.108615	8.582381	-0.009938	0.011545	-0.011587	-0.656738	-0.020752	-0.50415
3.0	5.219385	2.111903	8.581592	-0.008416	0.01118	-0.017413	-0.658936	-0.022949	-0.508545
4.0	5.262396	2.105215	8.551115	-0.00863	0.010015	-0.015533	-0.661133	-0.023193	-0.506348
5.0	5.249802	2.108792	8.573176	-0.007377	0.011181	-0.015684	-0.656738	-0.025146	-0.508545
6.0	5.270119	2.109001	8.585367	-0.008632	0.010012	-0.015537	-0.658936	-0.022949	-0.50415
7.0	5.258681	2.105572	8.553312	-0.005845	0.012532	-0.011189	-0.658936	-0.022949	-0.506348
8.0	5.246032	2.109088	8.575411	-0.010716	0.010002	-0.019008	-0.656738	-0.025146	-0.506348
9.0	5.255167	2.112824	8.6088	-0.004905	0.005981	-0.015167	-0.654297	-0.027344	-0.508545
10.0	5.255279	2.106174	8.555255	-0.008424	0.011171	-0.017426	-0.654541	-0.025146	-0.506348
11.0	5.26254	2.0856	8.591946	-0.007442	0.013868	-0.011898	-0.66333	-0.020996	-0.506348
12.0	5.262687	2.109864	8.589713	-0.008426	0.011168	-0.017431	-0.661133	-0.022949	-0.508545
13.0	5.259807	2.085832	8.593564	-0.007936	0.012516	-0.014667	-0.658936	-0.025146	-0.508545
14.0	5.261252	2.103176	8.537149	-0.009681	0.009997	-0.017287	-0.656738	-0.020752	-0.506348
15.0	5.271702	2.131045	8.567617	-0.007879	0.009819	-0.018468	-0.658936	-0.022949	-0.508545
16.0	5.247217	2.107081	8.559979	-0.006475	0.014844	-0.016703	-0.656738	-0.025146	-0.508545
17.0	5.267333	2.107547	8.572254	-0.003504	0.011	-0.013412	-0.658936	-0.020996	-0.506348
18.0	5.266058	2.107848	8.572964	-0.008433	0.011159	-0.017443	-0.654297	-0.027344	-0.501709
19.0	5.231745	2.111385	8.58357	-0.007181	0.012327	-0.017593	-0.656738	-0.022949	-0.508545
20.0	5.251865	2.111908	8.595832	-0.004337	0.012155	-0.017037	-0.656738	-0.025146	-0.506348
21.0	5.263329	2.133115	8.572248	-0.008225	0.012318	-0.019334	-0.658936	-0.020996	-0.506348
22.0	5.238921	2.109179	8.564542	-0.005592	0.010983	-0.016894	-0.658936	-0.025146	-0.508545
23.0	5.259165	2.10949	8.57679	-0.009202	0.011332	-0.01454	-0.654541	-0.025146	-0.510742
24.0	5.270729	2.130435	8.553224	-0.006146	0.012325	-0.015866	-0.656738	-0.025146	-0.499512
25.0	5.268006	2.106501	8.556961	-0.0081	0.008641	-0.016606	-0.658936	-0.020752	-0.508545
26.0	5.255426	2.109841	8.578996	-0.009969	0.011508	-0.011631	-0.654541	-0.022949	-0.50415
27.0	5.26557	2.10645	8.558472	-0.008443	0.011146	-0.017463	-0.660889	-0.025146	-0.501709
28.0	5.264267	2.106646	8.559226	-0.007403	0.011151	-0.015727	-0.658691	-0.025146	-0.501709
29.0	5.26305	2.106781	8.559941	-0.007615	0.009987	-0.013844	-0.654541	-0.022949	-0.506348
30.0	5.250524	2.110155	8.581919	-0.008868	0.008816	-0.013699	-0.656738	-0.025146	-0.503906
31.0	5.262164	2.130851	8.558392	-0.010317	0.014008	-0.012493	-0.66333	-0.020996	-0.506348
32.0	5.259496	2.106587	8.562173	-0.008316	0.007471	-0.014734	-0.663086	-0.027344	-0.501709
33.0	5.245502	2.085875	8.587139	-0.006367	0.011153	-0.013996	-0.661133	-0.022949	-0.510986
34.0	5.258665	2.130976	8.560511	-0.010953	0.008797	-0.017184	-0.656738	-0.022949	-0.508545
35.0	5.255915	2.106877	8.5643	-0.006713	0.013656	-0.014853	-0.658691	-0.029541	-0.512939
36.0	5.254577	2.107127	8.56506	-0.006857	0.009799	-0.016771	-0.654541	-0.025146	-0.506348
37.0	5.264742	2.103989	8.544498	-0.007967	0.012483	-0.014712	-0.661133	-0.022949	-0.508545
38.0	5.253448	2.131589	8.563562	-0.008665	0.009969	-0.015599	-0.656738	-0.025146	-0.503906
39.0	5.260755	2.110916	8.600208	-0.007482	0.013831	-0.011944	-0.658936	-0.020752	-0.510986
40.0	5.248017	2.083383	8.571096	-0.009639	0.007267	-0.021145	-0.661133	-0.023193	-0.506348
41.0	5.249589	2.101019	8.514668	-0.006721	0.013649	-0.014864	-0.660889	-0.027344	-0.501709
42.0	5.268417	2.10806	8.581123	-0.008878	0.008801	-0.013721	-0.660889	-0.027344	-0.508545
43.0	5.254263	2.056507	8.554968	-0.003112	0.013304	-0.017219	-0.658691	-0.025146	-0.501709
44.0	5.25586	2.136695	8.60068	0.004313	0.007976	-0.012638	-0.656494	-0.027344	-0.501709
45.0	5.266388	2.134962	8.579572	0.015423	0.007136	-0.015037	-0.658936	-0.020996	-0.506348
46.0	5.240966	2.05717	8.523123	0.00598	0.011469	-0.01656	-0.658936	-0.022949	-0.506348
47.0	5.296946	2.134914	8.570563	0.004729	0.010296	-0.016417	-0.656738	-0.025146	-0.503906
48.0	5.262682	2.139691	8.580667	0.012435	0.010962	-0.01835	-0.656738	-0.022949	-0.50415
49.0	5.282663	2.110772	8.541599	0.010419	0.01749	-0.016118	-0.654541	-0.022949	-0.510986
50.0	5.249525	2.139579	8.548893	0.003685	0.010282	-0.018165	-0.656494	-0.027344	-0.503906
51.0	5.246672	2.14767	8.603556	0.004377	0.012794	-0.017282	-0.656738	-0.020752	-0.510986
52.0	5.246585	2.142034	8.550083	0.002222	0.015466	-0.016966	-0.654297	-0.027344	-0.49707
53.0	5.23074	2.097819	8.578133	-0.002083	0.013294	-0.015501	-0.658936	-0.020752	-0.510986
54.0	5.275005	2.147147	8.596058	-0.004931	0.013453	-0.01607	-0.658936	-0.022949	-0.510986
55.0	5.25202	2.1162	8.534273	-0.006603	0.017477	-0.012981	-0.658936	-0.020996	-0.50415
56.0	5.229031	2.146856	8.574685	-0.011942	0.007775	-0.012427	-0.656738	-0.025146	-0.510742
57.0	5.25942	2.119292	8.568828	-0.012433	0.01394	-0.016035	-0.658691	-0.025146	-0.501709
58.0	5.247996	2.146423	8.587978	-0.012502	0.009114	-0.011401	-0.658691	-0.027344	-0.501709
59.0	5.256956	2.11843	8.570553	-0.01341	0.012957	-0.011231	-0.656738	-0.025146	-0.503906
60.0	5.268572	2.138779	8.547207	-0.015142	0.010431	-0.013863	-0.654297	-0.027344	-0.506348
61.0	5.267477	2.138047	8.548065	-0.016118	0.009449	-0.009056	-0.658936	-0.022949	-0.508545
62.0	5.253509	2.116174	8.573224	-0.018758	0.010767	-0.011517	-0.654297	-0.027344	-0.503906
63.0	5.263952	2.111955	8.552851	-0.01612	0.009446	-0.00906	-0.658691	-0.025146	-0.506348
64.0	5.253032	2.138329	8.571877	-0.020557	0.003416	-0.009517	-0.654541	-0.025146	-0.503906
65.0	5.250973	2.113047	8.575548	-0.019935	0.006898	-0.015186	-0.654541	-0.022949	-0.501709
66.0	5.273062	2.136435	8.5849	-0.01827	0.004595	-0.00792	-0.658691	-0.027344	-0.499512
67.0	5.249507	2.110929	8.576967	-0.017374	0.008268	-0.008923	-0.660889	-0.027344	-0.508545
68.0	5.260244	2.106663	8.556437	-0.018065	0.005754	-0.009813	-0.658691	-0.025146	-0.506348
69.0	5.282409	2.130105	8.565743	-0.017507	0.004413	-0.010846	-0.661133	-0.023193	-0.50415
70.0	5.249068	2.101303	8.524784	-0.016467	0.004423	-0.009102	-0.658691	-0.025146	-0.503906
71.0	5.248261	2.1313	8.576549	-0.01695	0.003071	-0.011881	-0.658936	-0.023193	-0.499512
72.0	5.279238	2.103394	8.570436	-0.012724	0.007939	-0.009532	-0.656738	-0.025146	-0.499512
73.0	5.27831	2.102755	8.571164	-0.013285	0.009278	-0.008502	-0.654297	-0.027344	-0.503906
74.0	5.267607	2.098617	8.538924	-0.014663	0.004252	-0.010282	-0.658936	-0.020996	-0.501709
75.0	5.265308	2.104823	8.59361	-0.011882	0.00507	-0.016266	-0.656738	-0.025146	-0.506348
76.0	5.275956	2.101301	8.57297	-0.012521	0.009097	-0.011427	-0.656738	-0.025146	-0.503906
77.0	5.252186	2.076558	8.564945	-0.010154	0.007592	-0.013633	-0.658691	-0.027344	-0.510742
78.0	5.253875	2.124812	8.559728	-0.011196	0.007579	-0.015382	-0.658936	-0.020752	-0.508545
79.0	5.272922	2.100644	8.574997	-0.010029	0.011441	-0.011714	-0.658936	-0.020996	-0.50415
80.0	5.250473	2.100207	8.564022	-0.010844	0.005076	-0.014528	-0.656738	-0.020752	-0.506348
81.0	5.270896	2.10035	8.576315	-0.011346	0.011239	-0.018135	-0.656738	-0.025146	-0.508545
82.0	5.281172	2.097041	8.55587	-0.010033	0.011437	-0.011719	-0.658936	-0.020996	-0.501709
83.0	5.256875	2.103258	8.599154	-0.010994	0.008736	-0.017281	-0.658691	-0.027344	-0.506348
84.0	5.258701	2.120897	8.542782	-0.008707	0.00992	-0.015675	-0.654541	-0.022949	-0.499512
85.0	5.267398	2.124284	8.576426	-0.011558	0.010071	-0.016254	-0.660889	-0.027344	-0.508545
86.0	5.266155	2.124204	8.577209	-0.00927	0.011256	-0.014647	-0.656738	-0.025146	-0.508545
87.0	5.242259	2.09977	8.56916	-0.010437	0.007392	-0.018322	-0.658936	-0.025146	-0.508545
88.0	5.252681	2.09658	8.548614	-0.007753	0.012616	-0.01012	-0.656738	-0.020996	-0.501709
89.0	5.274103	2.120968	8.558199	-0.011356	0.011228	-0.018153	-0.658691	-0.025146	-0.503906
90.0	5.283213	2.093586	8.54057	-0.008919	0.008751	-0.013796	-0.6521	-0.027344	-0.503906
91.0	5.271798	2.120965	8.55962	-0.008714	0.009912	-0.015688	-0.652588	-0.018555	-0.506348
92.0	5.26931	2.096892	8.563218	-0.006427	0.011098	-0.014079	-0.654541	-0.025146	-0.499512
93.0	5.257828	2.124318	8.582288	-0.009963	0.008734	-0.015552	-0.654541	-0.025146	-0.508545
94.0	5.224081	2.096413	8.54132	-0.00928	0.011246	-0.014662	-0.661133	-0.020996	-0.506348
95.0	5.300032	2.118265	8.552948	-0.00824	0.011257	-0.012912	-0.654541	-0.020752	-0.508545
96.0	5.231369	2.099918	8.575776	-0.006226	0.012257	-0.015977	-0.656738	-0.025146	-0.503906
97.0	5.274782	2.09418	8.545634	-0.008157	0.008568	-0.016731	-0.656738	-0.022949	-0.506348
98.0	5.251521	2.124616	8.586075	-0.012494	0.013887	-0.01611	-0.658691	-0.025146	-0.501709
99.0	5.260556	2.097208	8.568521	-0.00664	0.009929	-0.012199	-0.656738	-0.022949	-0.508545
100.0	5.23791	2.096957	8.55758	-0.010328	0.011224	-0.016426	-0.656738	-0.025146	-0.503906
101.0	5.280836	2.121808	8.578783	-0.00816	0.008563	-0.016739	-0.654297	-0.027344	-0.506348
102.0	5.247149	2.094113	8.537723	-0.007479	0.011074	-0.015848	-0.656738	-0.022949	-0.50415
103.0	5.268653	2.118584	8.54727	-0.011782	0.008881	-0.014401	-0.662842	-0.031738	-0.506104
104.0	5.254562	2.09739	8.572154	-0.009087	0.012394	-0.016573	-0.656738	-0.020752	-0.510986
105.0	5.235063	2.114859	8.504114	-0.008573	0.006234	-0.012962	-0.656738	-0.022949	-0.508545
106.0	5.285335	2.094687	8.563974	-0.008886	0.013554	-0.018469	-0.656738	-0.022949	-0.501709
107.0	5.249638	2.073469	8.577199	-0.007485	0.011068	-0.015857	-0.663086	-0.027344	-0.506348
108.0	5.282623	2.095092	8.565548	-0.008528	0.011053	-0.017613	-0.654541	-0.022949	-0.50415
109.0	5.259873	2.0951	8.554593	-0.006718	0.010892	-0.018786	-0.656494	-0.027344	-0.506348
110.0	5.258566	2.095512	8.555296	-0.005679	0.010905	-0.017033	-0.652344	-0.022949	-0.506348
111.0	5.245669	2.098938	8.57722	-0.007966	0.009712	-0.018652	-0.656738	-0.022949	-0.508545
112.0	5.278415	2.120817	8.565674	-0.004119	0.017089	-0.017142	-0.656738	-0.022949	-0.50415
113.0	5.253069	2.072547	8.560468	-0.0036	0.010931	-0.013529	-0.658936	-0.022949	-0.508545
114.0	5.263746	2.124783	8.588544	-0.006408	0.015894	-0.018764	-0.656494	-0.027344	-0.503906
115.0	5.251288	2.097661	8.559238	-0.006158	0.009547	-0.019832	-0.656738	-0.022949	-0.501709
116.0	5.260974	2.12572	8.59001	-0.005685	0.010897	-0.017046	-0.660889	-0.029541	-0.506104
117.0	5.248684	2.098588	8.560608	-0.004442	0.012073	-0.017186	-0.654297	-0.027344	-0.503906
118.0	5.290335	2.099752	8.584642	-0.004757	0.007062	-0.01722	-0.654541	-0.025146	-0.503906
119.0	5.24763	2.123766	8.558909	-0.007407	0.008364	-0.019703	-0.658936	-0.020752	-0.510986
120.0	5.268535	2.093811	8.519966	-0.006258	0.012226	-0.016021	-0.654785	-0.018555	-0.50415
121.0	5.233358	2.127514	8.581555	-0.005691	0.01089	-0.017056	-0.660889	-0.027344	-0.503906
122.0	5.276911	2.122288	8.551437	-0.004557	0.008219	-0.019122	-0.654541	-0.025146	-0.501709
123.0	5.251019	2.104605	8.597446	-0.007668	0.014701	-0.018648	-0.656738	-0.022949	-0.50415
124.0	5.261293	2.10188	8.577006	-0.005897	0.009725	-0.015167	-0.654297	-0.027344	-0.499512
125.0	5.261245	2.126344	8.574862	-0.006466	0.011058	-0.014136	-0.663086	-0.025391	-0.506348
126.0	5.260024	2.126586	8.575551	-0.00694	0.009706	-0.016928	-0.660889	-0.025146	-0.503906
127.0	5.258804	2.126828	8.576239	-0.006468	0.011056	-0.01414	-0.658691	-0.025146	-0.503906
128.0	5.233915	2.078263	8.570808	-0.005901	0.009721	-0.015173	-0.656738	-0.022949	-0.506348
129.0	5.268043	2.124191	8.556431	-0.011405	0.011157	-0.01825	-0.658936	-0.022949	-0.508545
130.0	5.26573	2.100047	8.559947	-0.006105	0.008558	-0.013281	-0.656738	-0.020752	-0.50415
131.0	5.265716	2.124458	8.557797	-0.007514	0.011034	-0.015905	-0.658936	-0.022949	-0.50415
132.0	5.2431	2.124336	8.546737	-0.005905	0.009716	-0.01518	-0.658936	-0.022949	-0.508545
133.0	5.271902	2.104031	8.594929	-0.008759	0.009853	-0.015772	-0.658936	-0.022949	-0.50415
134.0	5.271861	2.128335	8.592818	-0.007719	0.009869	-0.014014	-0.656738	-0.022949	-0.501709
135.0	5.281254	2.101247	8.575109	-0.006477	0.011047	-0.014152	-0.661133	-0.020996	-0.50415
136.0	5.258522	2.100909	8.564166	-0.011983	0.012479	-0.017234	-0.654297	-0.027344	-0.503906
137.0	5.278589	2.101428	8.576705	-0.003626	0.010909	-0.013564	-0.661133	-0.023193	-0.50415
138.0	5.255918	2.101243	8.565682	-0.011416	0.011142	-0.018271	-0.656738	-0.022949	-0.50415
139.0	5.267439	2.122472	8.542485	-0.009335	0.011178	-0.014752	-0.658691	-0.029541	-0.506104
140.0	5.254396	2.125483	8.564498	-0.008094	0.012356	-0.01489	-0.656738	-0.025146	-0.501709
141.0	5.263702	2.098315	8.546883	-0.009337	0.011175	-0.014756	-0.654297	-0.027344	-0.503906
142.0	5.272076	2.101651	8.580656	-0.010379	0.011155	-0.016519	-0.660889	-0.027344	-0.508545
143.0	5.270673	2.101636	8.581521	-0.00971	0.013666	-0.015625	-0.665283	-0.025391	-0.510742
144.0	5.282131	2.123053	8.558338	-0.007998	0.009666	-0.018724	-0.652344	-0.025146	-0.506348
145.0	5.259285	2.122919	8.547397	-0.007231	0.016022	-0.0159	-0.656738	-0.020752	-0.50415
146.0	5.257913	2.12301	8.548218	-0.008972	0.008675	-0.013901	-0.654297	-0.027344	-0.510742
147.0	5.234266	2.09846	8.539921	-0.009613	0.010975	-0.019461	-0.661133	-0.020996	-0.508545
148.0	5.263897	2.102356	8.585503	-0.009146	0.012325	-0.016668	-0.650146	-0.022949	-0.501709
149.0	5.242194	2.126381	8.571749	-0.006293	0.012191	-0.016075	-0.654541	-0.020752	-0.508545
150.0	5.284621	2.096985	8.544691	-0.006294	0.01219	-0.016077	-0.656738	-0.022949	-0.508545
151.0	5.25118	2.123894	8.552136	-0.012472	0.0111	-0.020068	-0.658936	-0.022949	-0.50415
152.0	5.270242	2.10032	8.567406	-0.00307	0.009564	-0.014618	-0.656738	-0.022949	-0.506348
153.0	5.236829	2.127423	8.57477	-0.008953	0.013477	-0.018578	-0.656494	-0.027344	-0.506348
154.0	5.269505	2.149464	8.563462	-0.004018	0.013386	-0.014455	-0.656738	-0.025146	-0.506348
155.0	5.24473	2.10082	8.557923	-0.008781	0.009822	-0.015818	-0.658936	-0.025146	-0.508545
156.0	5.254193	2.128475	8.588864	-0.008782	0.009821	-0.01582	-0.656738	-0.025146	-0.510742
157.0	5.275422	2.098496	8.550003	-0.008117	0.012332	-0.014923	-0.656738	-0.020752	-0.506348
158.0	5.241998	2.125356	8.557404	-0.007544	0.010999	-0.015958	-0.654297	-0.029541	-0.506104
159.0	5.272911	2.098726	8.551495	-0.011066	0.008615	-0.017457	-0.658936	-0.022949	-0.50415
160.0	5.260801	2.126013	8.570732	-0.006682	0.014669	-0.016963	-0.654541	-0.025146	-0.508545
161.0	5.248888	2.098687	8.54122	-0.006131	0.008526	-0.013331	-0.654541	-0.025146	-0.506348
162.0	5.237102	2.12589	8.560269	-0.008987	0.008653	-0.013932	-0.652344	-0.025146	-0.508545
163.0	5.247623	2.122972	8.539869	-0.00974	0.013633	-0.015668	-0.656738	-0.020752	-0.508545
164.0	5.255796	2.126395	8.573707	-0.007551	0.010992	-0.015969	-0.656738	-0.020752	-0.508545
165.0	5.254636	2.126472	8.574399	-0.00899	0.00865	-0.013937	-0.658936	-0.022949	-0.506348
166.0	5.264272	2.09932	8.55667	-0.009367	0.011139	-0.014807	-0.656494	-0.027344	-0.506348
167.0	5.252288	2.126248	8.575893	-0.011381	0.010127	-0.011743	-0.654541	-0.022949	-0.508545
168.0	5.25114	2.126107	8.576631	-0.008794	0.009806	-0.015843	-0.654297	-0.027344	-0.506348
169.0	5.261837	2.123257	8.556128	-0.008993	0.008645	-0.013944	-0.660889	-0.025146	-0.508545
170.0	5.25983	2.09887	8.559512	-0.009768	0.008815	-0.011012	-0.656494	-0.029541	-0.506104
171.0	5.24783	2.125998	8.578684	-0.006319	0.012167	-0.016113	-0.658691	-0.025146	-0.503906
172.0	5.270242	2.120412	8.537044	-0.008996	0.008642	-0.013949	-0.658691	-0.025146	-0.499512
173.0	5.258264	2.147483	8.556214	-0.009375	0.01113	-0.014819	-0.656738	-0.022949	-0.501709
174.0	5.243281	2.101769	8.583578	-0.009574	0.00997	-0.01292	-0.658936	-0.020752	-0.508545
175.0	5.266853	2.120168	8.539196	-0.011277	0.007434	-0.01559	-0.660889	-0.025146	-0.506348
176.0	5.254766	2.147125	8.558452	-0.008252	0.014991	-0.011123	-0.654785	-0.016602	-0.506348
177.0	5.263364	2.095718	8.543508	-0.009	0.008637	-0.013958	-0.656738	-0.020752	-0.508545
178.0	5.272616	2.123244	8.574589	-0.007678	0.01366	-0.012158	-0.656494	-0.029541	-0.506104
179.0	5.249109	2.098555	8.566168	-0.009465	0.007282	-0.016763	-0.656738	-0.022949	-0.506348
180.0	5.270287	2.123296	8.576008	-0.009382	0.011122	-0.014832	-0.654541	-0.025146	-0.501709
181.0	5.24764	2.122745	8.564969	-0.009961	0.01245	-0.013801	-0.656494	-0.029541	-0.506104
182.0	5.258114	2.119901	8.544647	-0.008146	0.012303	-0.014967	-0.658936	-0.020996	-0.50415
183.0	5.26533	2.098989	8.581177	-0.009385	0.011118	-0.014838	-0.660889	-0.025146	-0.503906
184.0	5.263983	2.098917	8.582021	-0.012046	0.012398	-0.017349	-0.654541	-0.025146	-0.499512
185.0	5.242281	2.122496	8.568312	-0.010163	0.011285	-0.011907	-0.656738	-0.025146	-0.503906
186.0	5.273268	2.095791	8.562513	-0.009389	0.011114	-0.014844	-0.656738	-0.022949	-0.50415
187.0	5.27182	2.095835	8.563393	-0.009575	0.01476	-0.017618	-0.658936	-0.022949	-0.506348
188.0	5.237148	2.098136	8.573588	-0.00997	0.01244	-0.013816	-0.656738	-0.022949	-0.499512
189.0	5.269905	2.119949	8.562499	-0.009971	0.012438	-0.013818	-0.654541	-0.022949	-0.506348
190.0	5.26853	2.119826	8.563376	-0.011012	0.012413	-0.015592	-0.658691	-0.025146	-0.506348
191.0	5.234046	2.122099	8.573443	-0.009855	0.009756	-0.017659	-0.656738	-0.022949	-0.508545
192.0	5.256394	2.116618	8.531965	-0.007501	0.014802	-0.014085	-0.654541	-0.022949	-0.508545
193.0	5.27292	2.099081	8.601579	-0.00862	0.010936	-0.017794	-0.656738	-0.022949	-0.50415
194.0	5.275008	2.11725	8.545494	-0.010174	0.011272	-0.011925	-0.656494	-0.027344	-0.506348
195.0	5.248914	2.09848	8.591353	-0.009586	0.014748	-0.017637	-0.658691	-0.025146	-0.501709
196.0	5.249898	2.092474	8.53804	-0.01044	0.011076	-0.016638	-0.658691	-0.025146	-0.501709
197.0	5.268171	2.123322	8.602386	-0.01063	0.01472	-0.019416	-0.656738	-0.025146	-0.506348
198.0	5.246901	2.092729	8.53982	-0.006349	0.012139	-0.016162	-0.658936	-0.022949	-0.508545
199.0	5.24397	2.123156	8.59216	-0.011485	0.011045	-0.01842	-0.658936	-0.020996	-0.501709
200.0	5.242655	2.123076	8.592982	-0.007905	0.012472	-0.010292	-0.656738	-0.025146	-0.503906
201.0	5.273459	2.096628	8.587318	-0.007319	0.015948	-0.016007	-0.654541	-0.022949	-0.506348
202.0	5.242015	2.117198	8.540663	-0.011873	0.013526	-0.0193	-0.658691	-0.025146	-0.501709
203.0	5.291566	2.097364	8.60115	-0.009017	0.013408	-0.01869	-0.654541	-0.020752	-0.50415
204.0	5.226158	2.095883	8.566278	-0.009796	0.013574	-0.015755	-0.656738	-0.020752	-0.50415
205.0	5.280086	2.118501	8.567235	-0.009215	0.012246	-0.01679	-0.658936	-0.022949	-0.508545
206.0	5.236051	2.117481	8.544251	-0.009799	0.01357	-0.01576	-0.656738	-0.020752	-0.50415
207.0	5.243177	2.096466	8.580806	-0.009413	0.011084	-0.01489	-0.65918	-0.018799	-0.506348
208.0	5.252909	2.069627	8.563083	-0.006361	0.012127	-0.016182	-0.654297	-0.027344	-0.499512
209.0	5.253411	2.118384	8.558508	-0.00825	0.008429	-0.016959	-0.658936	-0.020996	-0.506348
210.0	5.252238	2.118465	8.559207	-0.009416	0.011079	-0.014896	-0.658936	-0.025146	-0.508545
211.0	5.248592	2.124341	8.614094	-0.009224	0.007435	-0.012119	-0.665283	-0.025391	-0.506348
212.0	5.259454	2.121538	8.593639	-0.008378	0.011104	-0.013122	-0.656738	-0.025146	-0.503906
213.0	5.237019	2.120959	8.582403	-0.010071	0.008565	-0.015805	-0.656738	-0.022949	-0.501709
214.0	5.269148	2.118823	8.573887	-0.006757	0.009803	-0.01238	-0.658936	-0.022949	-0.506348
215.0	5.267929	2.118903	8.574616	-0.007147	0.012286	-0.013255	-0.660889	-0.029541	-0.503906
216.0	5.245616	2.118314	8.563304	-0.010919	0.004891	-0.01481	-0.656494	-0.027344	-0.503906
217.0	5.25742	2.139682	8.540212	-0.010202	0.011238	-0.011969	-0.656738	-0.020752	-0.508545
218.0	5.243553	2.117966	8.564654	-0.006954	0.008641	-0.010479	-0.654541	-0.025146	-0.503906
219.0	5.230553	2.120449	8.586471	-0.012479	0.010022	-0.013623	-0.656738	-0.025146	-0.506348
220.0	5.262661	2.117965	8.578082	-0.010399	0.010076	-0.010067	-0.654541	-0.020752	-0.510986
221.0	5.282029	2.093902	8.593403	-0.0104	0.010075	-0.010069	-0.658691	-0.025146	-0.503906
222.0	5.251169	2.11401	8.546505	-0.011441	0.010046	-0.011849	-0.652588	-0.020752	-0.501709
223.0	5.24844	2.143806	8.598764	-0.012741	0.005023	-0.013662	-0.658936	-0.022949	-0.506348
224.0	5.258708	2.116503	8.580866	-0.008322	0.010127	-0.006514	-0.658691	-0.025146	-0.506348
225.0	5.256767	2.091826	8.584251	-0.013069	0.01134	-0.012601	-0.658936	-0.020996	-0.506348
226.0	5.268354	2.113073	8.56136	-0.00813	0.011284	-0.008423	-0.658691	-0.025146	-0.506348
227.0	5.267324	2.112765	8.562069	-0.012094	0.00753	-0.012763	-0.658936	-0.020752	-0.508545
228.0	5.254409	2.115106	8.583844	-0.009821	0.008744	-0.011111	-0.656738	-0.025146	-0.506348
229.0	5.244111	2.111634	8.551425	-0.010862	0.008715	-0.012893	-0.660889	-0.025146	-0.503906
230.0	5.264373	2.111948	8.564085	-0.009822	0.008742	-0.011114	-0.656738	-0.022949	-0.508545
231.0	5.250516	2.090072	8.588503	-0.009175	0.011252	-0.010209	-0.658936	-0.022949	-0.501709
232.0	5.262026	2.111508	8.565636	-0.010023	0.012382	-0.013898	-0.658936	-0.022949	-0.508545
233.0	5.24897	2.114054	8.58743	-0.008653	0.006092	-0.013184	-0.661133	-0.023193	-0.506348
234.0	5.247937	2.114015	8.588071	-0.009439	0.011056	-0.014935	-0.658936	-0.020996	-0.50415
235.0	5.258678	2.111252	8.567755	-0.01022	0.011219	-0.011996	-0.663086	-0.025391	-0.503906
236.0	5.266825	2.114312	8.601583	-0.009048	0.008572	-0.014064	-0.656738	-0.020752	-0.50415
237.0	5.257257	2.135398	8.566574	-0.007815	0.009758	-0.014191	-0.658936	-0.022949	-0.50415
238.0	5.243329	2.113825	8.590932	-0.008857	0.009729	-0.015975	-0.661133	-0.022949	-0.508545
239.0	5.266273	2.10867	8.54934	-0.007423	0.007274	-0.013319	-0.658691	-0.027344	-0.499512
240.0	5.265933	2.133014	8.54745	-0.007172	0.012266	-0.013288	-0.656738	-0.020752	-0.506348
241.0	5.273241	2.112074	8.583805	-0.006192	0.00846	-0.013448	-0.654541	-0.025146	-0.508545
242.0	5.250856	2.11156	8.572475	-0.009448	0.011047	-0.014949	-0.658936	-0.020996	-0.50415
243.0	5.249797	2.111468	8.573147	-0.008206	0.007434	-0.010384	-0.658691	-0.025146	-0.506348
244.0	5.248877	2.11126	8.573761	-0.009834	0.008726	-0.011136	-0.654541	-0.022949	-0.506348
245.0	5.259882	2.108411	8.553338	-0.010875	0.008696	-0.012921	-0.654541	-0.025146	-0.506348
246.0	5.24764	2.134907	8.57259	-0.011657	0.008858	-0.009981	-0.663086	-0.027344	-0.503906
247.0	5.257245	2.083307	8.557242	-0.013342	0.006318	-0.012675	-0.652588	-0.018555	-0.508789
248.0	5.266824	2.134725	8.586065	-0.008357	0.014903	-0.011232	-0.652588	-0.018555	-0.50415
249.0	5.255722	2.107186	8.556196	-0.006581	0.006137	-0.00964	-0.658936	-0.022949	-0.50415
250.0	5.266758	2.104356	8.535767	-0.013096	0.011306	-0.012647	-0.658936	-0.025146	-0.508545
251.0	5.241614	2.109144	8.578724	-0.00984	0.00872	-0.011145	-0.658936	-0.022949	-0.508545
252.0	5.2398	2.084673	8.581957	-0.010689	0.009849	-0.014841	-0.656738	-0.020752	-0.50415
253.0	5.239455	2.108747	8.58014	-0.010882	0.008688	-0.012934	-0.658936	-0.020996	-0.499512
254.0	5.283654	2.104038	8.550703	-0.010691	0.009846	-0.014845	-0.654541	-0.025146	-0.508545
255.0	5.249238	2.105854	8.560503	-0.010692	0.009845	-0.014846	-0.656738	-0.020752	-0.50415
256.0	5.25657	2.084604	8.596882	-0.009653	0.009874	-0.013063	-0.660889	-0.027344	-0.506348
257.0	5.268302	2.10634	8.573902	-0.004122	0.00851	-0.009896	-0.658936	-0.020996	-0.50415
258.0	5.288444	2.106809	8.586648	-0.013106	0.011294	-0.012662	-0.658691	-0.027344	-0.503906
259.0	5.265343	2.081679	8.577884	-0.010106	0.00852	-0.015887	-0.656494	-0.029541	-0.506104
260.0	5.231652	2.107844	8.585122	-0.008425	0.011059	-0.013192	-0.654541	-0.025146	-0.501709
261.0	5.263075	2.081617	8.57929	-0.009067	0.008548	-0.014104	-0.656738	-0.020752	-0.506348
262.0	5.241313	2.105139	8.565534	-0.011688	0.013637	-0.014703	-0.656982	-0.018799	-0.506348
263.0	5.261033	2.105691	8.578524	-0.006556	0.014755	-0.012409	-0.661133	-0.020996	-0.506348
264.0	5.250632	2.102623	8.546122	-0.008479	0.007224	-0.015143	-0.658691	-0.025146	-0.501709
265.0	5.2587	2.105793	8.579929	-0.00947	0.011022	-0.014988	-0.654541	-0.022949	-0.508545
266.0	5.236348	2.10524	8.568545	-0.006209	0.008443	-0.013481	-0.654541	-0.022949	-0.501709
267.0	5.257162	2.130167	8.57878	-0.011744	0.009799	-0.016658	-0.658936	-0.020996	-0.50415
268.0	5.267272	2.103249	8.560998	-0.009025	0.01237	-0.012172	-0.656738	-0.020752	-0.50415
269.0	5.244842	2.10248	8.549712	-0.009665	0.009858	-0.013085	-0.658691	-0.027344	-0.503906
270.0	5.273394	2.081835	8.598135	-0.009666	0.009857	-0.013087	-0.650146	-0.025146	-0.499512
271.0	5.26389	2.102944	8.563153	-0.009524	0.007186	-0.016944	-0.658936	-0.022949	-0.506348
272.0	5.253626	2.09978	8.530704	-0.00799	0.012396	-0.010389	-0.654541	-0.022949	-0.50415
273.0	5.261611	2.102828	8.564582	-0.009077	0.008535	-0.014125	-0.656738	-0.022949	-0.506348
274.0	5.251349	2.099453	8.532186	-0.013125	0.011269	-0.012695	-0.654541	-0.025146	-0.499512
275.0	5.260016	2.126724	8.563593	-0.007256	0.008404	-0.015283	-0.661377	-0.016602	-0.508789
276.0	5.246228	2.104998	8.587755	-0.00908	0.008531	-0.01413	-0.654541	-0.025146	-0.510742
277.0	5.268646	2.075785	8.548745	-0.00785	0.009721	-0.014253	-0.656738	-0.025146	-0.506348
278.0	5.244109	2.105086	8.589028	-0.008489	0.00721	-0.015167	-0.654541	-0.022949	-0.506348
279.0	5.267358	2.099998	8.547494	-0.012135	0.007465	-0.01286	-0.652588	-0.020752	-0.510986
280.0	5.255063	2.126484	8.566693	-0.007193	0.007433	-0.008643	-0.661133	-0.022949	-0.508545
281.0	5.232927	2.125624	8.555227	-0.011947	0.008622	-0.014775	-0.658936	-0.020752	-0.513184
282.0	5.261704	2.104742	8.603565	-0.010247	0.006367	-0.00737	-0.654541	-0.020752	-0.50415
283.0	5.272306	2.077629	8.585564	-0.009869	0.008685	-0.011195	-0.656738	-0.022949	-0.506348
284.0	5.272674	2.12588	8.581301	-0.011099	0.007492	-0.011076	-0.656738	-0.020752	-0.506348
285.0	5.249955	2.100571	8.572285	-0.0111	0.007491	-0.011077	-0.661133	-0.020996	-0.50415
286.0	5.249775	2.124427	8.570445	-0.01233	0.006299	-0.010959	-0.656738	-0.020752	-0.50415
287.0	5.290589	2.100937	8.597795	-0.013329	0.010093	-0.010805	-0.656738	-0.020752	-0.50415
288.0	5.258898	2.072415	8.555562	-0.011333	0.002502	-0.011117	-0.656738	-0.025146	-0.503906
289.0	5.258708	2.096384	8.553705	-0.010279	0.011157	-0.012081	-0.654785	-0.018555	-0.510986
290.0	5.266723	2.099115	8.587617	-0.010658	0.008837	-0.008258	-0.654541	-0.025146	-0.506348
291.0	5.277859	2.096323	8.567244	-0.010915	0.008646	-0.012998	-0.656738	-0.020752	-0.50415
292.0	5.255145	2.071118	8.558181	-0.010511	0.006168	-0.012121	-0.658936	-0.022949	-0.510986
293.0	5.263897	2.098287	8.589552	-0.009688	0.009836	-0.013121	-0.654541	-0.022949	-0.510986
294.0	5.265823	2.092649	8.536044	-0.009689	0.009835	-0.013122	-0.656982	-0.018799	-0.501953
295.0	5.265418	2.116903	8.534259	-0.0085	0.007199	-0.015192	-0.660889	-0.027344	-0.503906
296.0	5.272735	2.095777	8.570532	-0.007233	0.012217	-0.013363	-0.654541	-0.025146	-0.499512
297.0	5.250387	2.095234	8.559097	-0.006232	0.008423	-0.01352	-0.661133	-0.023193	-0.506348
298.0	5.261636	2.092788	8.538592	-0.009474	0.006194	-0.010337	-0.65918	-0.014404	-0.50415
299.0	5.26969	2.09572	8.572419	-0.009505	0.010989	-0.015043	-0.656982	-0.016602	-0.501953
300.0	5.247449	2.09506	8.560941	-0.006423	0.007261	-0.011611	-0.654297	-0.027344	-0.508545
301.0	5.24655	2.095124	8.561477	-0.008504	0.007194	-0.015201	-0.660889	-0.025146	-0.506348
302.0	5.266237	2.071476	8.576574	-0.008249	0.007383	-0.01046	-0.658936	-0.022949	-0.501709
303.0	5.265912	2.095665	8.574753	-0.008061	0.008542	-0.012375	-0.656738	-0.020752	-0.508545
304.0	5.289121	2.090709	8.533357	-0.012563	0.009913	-0.013781	-0.656738	-0.020752	-0.508545
305.0	5.263764	2.095276	8.576167	-0.009103	0.008507	-0.014173	-0.661133	-0.023193	-0.506348
306.0	5.274409	2.068574	8.558089	-0.008695	0.00603	-0.013295	-0.652588	-0.020752	-0.510986
307.0	5.261753	2.095093	8.577446	-0.009666	0.013646	-0.011192	-0.656738	-0.020752	-0.50415
308.0	5.25145	2.091847	8.54509	-0.010742	0.009785	-0.01494	-0.654541	-0.025146	-0.503906
309.0	5.249788	2.067474	8.548172	-0.009106	0.008503	-0.01418	-0.658936	-0.020996	-0.50415
310.0	5.282615	2.090015	8.537557	-0.009704	0.009817	-0.013148	-0.654541	-0.022949	-0.508545
311.0	5.245133	2.09705	8.601325	-0.008511	0.007185	-0.015218	-0.656738	-0.022949	-0.501709
312.0	5.247249	2.091609	8.547729	-0.009706	0.009815	-0.013151	-0.665283	-0.025391	-0.506348
313.0	5.275799	2.071088	8.5961	-0.006244	0.008411	-0.013541	-0.660889	-0.025146	-0.506348
314.0	5.266342	2.092402	8.56113	-0.009111	0.008497	-0.014188	-0.656738	-0.025146	-0.503906
315.0	5.26515	2.09243	8.561856	-0.008294	0.012165	-0.015188	-0.661133	-0.022949	-0.508545
316.0	5.263912	2.092406	8.562623	-0.00971	0.00981	-0.013158	-0.658936	-0.020996	-0.506348
317.0	5.263296	2.116614	8.560985	-0.008484	0.011003	-0.013276	-0.656738	-0.022949	-0.506348
318.0	5.26156	2.092242	8.564109	-0.010752	0.009773	-0.01496	-0.656738	-0.022949	-0.50415
319.0	5.281531	2.092874	8.57702	-0.008486	0.011001	-0.01328	-0.658936	-0.022949	-0.506348
320.0	5.258861	2.067778	8.567844	-0.010971	0.004787	-0.015	-0.654541	-0.022949	-0.508545
321.0	5.271072	2.113847	8.542766	-0.008645	0.013663	-0.009415	-0.65918	-0.018799	-0.497314
322.0	5.290354	2.090252	8.558129	-0.008743	0.010807	-0.018033	-0.656738	-0.022949	-0.50415
323.0	5.277034	2.092541	8.579869	-0.009904	0.008643	-0.011255	-0.658691	-0.027344	-0.508545
324.0	5.233697	2.091006	8.556181	-0.006852	0.009717	-0.012522	-0.652344	-0.025146	-0.508545
325.0	5.287015	2.090061	8.560239	-0.011358	0.011078	-0.013939	-0.65918	-0.018799	-0.508789
326.0	5.252477	2.091563	8.569848	-0.008934	0.009644	-0.016125	-0.656738	-0.020752	-0.50415
327.0	5.251355	2.09153	8.570544	-0.008681	0.009833	-0.011377	-0.661133	-0.020996	-0.508545
328.0	5.271493	2.092221	8.583353	-0.008522	0.007169	-0.015247	-0.652588	-0.016602	-0.501953
329.0	5.270513	2.09224	8.58395	-0.009123	0.008481	-0.014214	-0.656982	-0.018555	-0.508789
330.0	5.260313	2.089197	8.551515	-0.009952	0.013426	-0.01598	-0.658936	-0.020752	-0.508545
331.0	5.280069	2.089919	8.564559	-0.010579	0.010916	-0.016901	-0.661133	-0.020996	-0.501709
332.0	5.266612	2.092178	8.586359	-0.0085	0.010987	-0.013301	-0.658936	-0.022949	-0.50415
333.0	5.244235	2.091412	8.574931	-0.009541	0.010949	-0.015104	-0.658936	-0.020752	-0.508545
334.0	5.264071	2.092074	8.587942	-0.010143	0.012261	-0.014072	-0.656738	-0.020752	-0.506348
335.0	5.28671	2.063271	8.549024	-0.006676	0.010866	-0.014456	-0.654541	-0.020752	-0.508545
336.0	5.25315	2.113525	8.553878	-0.008943	0.009632	-0.016145	-0.656738	-0.025146	-0.501709
337.0	5.293717	2.090752	8.581351	-0.009546	0.010944	-0.015112	-0.656738	-0.020752	-0.506348
338.0	5.250316	2.089229	8.557649	-0.009131	0.008471	-0.014232	-0.658936	-0.022949	-0.506348
339.0	5.270193	2.089957	8.570631	-0.009964	0.013413	-0.015999	-0.656738	-0.020752	-0.508545
340.0	5.268358	2.065748	8.573768	-0.006682	0.010861	-0.014464	-0.658691	-0.025146	-0.501709
341.0	5.288763	2.090939	8.58436	-0.008948	0.009626	-0.016155	-0.656738	-0.022949	-0.508545
342.0	5.266536	2.090317	8.572791	-0.007307	0.00835	-0.015388	-0.656738	-0.025146	-0.510742
343.0	5.27764	2.088156	8.552455	-0.008512	0.010973	-0.013321	-0.658936	-0.020752	-0.508545
344.0	5.284877	2.066885	8.588724	-0.008951	0.009622	-0.016161	-0.654785	-0.018799	-0.501953
345.0	5.275256	2.088327	8.553884	-0.006687	0.010855	-0.014473	-0.654541	-0.020752	-0.506348
346.0	5.261775	2.09064	8.575635	-0.009556	0.010932	-0.01513	-0.654541	-0.020752	-0.50415
347.0	5.251777	2.087616	8.543099	-0.008098	0.008498	-0.012444	-0.656738	-0.020996	-0.501709
348.0	5.259648	2.090571	8.576957	-0.009139	0.008459	-0.01425	-0.656738	-0.020996	-0.501709
349.0	5.270818	2.088375	8.556607	-0.007916	0.009655	-0.014365	-0.656738	-0.022949	-0.510986
350.0	5.269646	2.088402	8.557322	-0.00852	0.010965	-0.013332	-0.654541	-0.022949	-0.510986
351.0	5.265121	2.093572	8.612266	-0.010182	0.008417	-0.016061	-0.658936	-0.020996	-0.506348
352.0	5.267412	2.088512	8.558671	-0.006091	0.009537	-0.015518	-0.654785	-0.018799	-0.501953
353.0	5.253985	2.090741	8.580385	-0.010351	0.011076	-0.01219	-0.656738	-0.022949	-0.50415
354.0	5.264594	2.064208	8.562435	-0.006696	0.010847	-0.014487	-0.656982	-0.016602	-0.508789
355.0	5.297364	2.087175	8.551999	-0.009765	0.005942	-0.015184	-0.654541	-0.020752	-0.50415
356.0	5.263089	2.088549	8.561321	-0.008106	0.008488	-0.012458	-0.656982	-0.018799	-0.501953
357.0	5.283489	2.113719	8.571952	-0.007739	0.010805	-0.016298	-0.654541	-0.022949	-0.497314
358.0	5.26035	2.064461	8.564982	-0.007924	0.009645	-0.01438	-0.656738	-0.020752	-0.508545
359.0	5.280796	2.089579	8.5756	-0.009149	0.008446	-0.014269	-0.661133	-0.020996	-0.499512
360.0	5.271408	2.111037	8.540637	-0.005676	0.007061	-0.014646	-0.656738	-0.020752	-0.50415
361.0	5.269618	2.062453	8.545794	-0.012019	0.008517	-0.014933	-0.658936	-0.020996	-0.499512
362.0	5.25673	2.088899	8.565142	-0.006283	0.00837	-0.013614	-0.658936	-0.022949	-0.508545
363.0	5.255611	2.088867	8.565836	-0.011403	0.011023	-0.014014	-0.654541	-0.022949	-0.501709
364.0	5.258006	2.083651	8.512272	-0.007508	0.00717	-0.013505	-0.652344	-0.022949	-0.501709
365.0	5.262347	2.091817	8.600365	-0.007931	0.009638	-0.014391	-0.656738	-0.025146	-0.501709
366.0	5.285785	2.087578	8.559062	-0.007932	0.009637	-0.014393	-0.654785	-0.018555	-0.50415
367.0	5.272402	2.089869	8.580693	-0.008367	0.008286	-0.017239	-0.656982	-0.018799	-0.506348
368.0	5.262132	2.062734	8.550338	-0.006894	0.009675	-0.012588	-0.654541	-0.020752	-0.506348
369.0	5.249551	2.113514	8.567438	-0.009158	0.008435	-0.014287	-0.656982	-0.018555	-0.508789
370.0	5.269124	2.089992	8.582677	-0.009582	0.010902	-0.015174	-0.656738	-0.025146	-0.501709
371.0	5.271499	2.084974	8.52911	-0.00629	0.008362	-0.013627	-0.656738	-0.022949	-0.508545
372.0	5.279229	2.088061	8.56299	-0.007938	0.00963	-0.014403	-0.656738	-0.020996	-0.501709
373.0	5.278051	2.088197	8.563683	-0.006716	0.010828	-0.014516	-0.656738	-0.020752	-0.508545
374.0	5.28554	2.09129	8.597706	-0.008364	0.012096	-0.015293	-0.654541	-0.025146	-0.503906
375.0	5.275535	2.08842	8.565179	-0.0069	0.009668	-0.012598	-0.656738	-0.025146	-0.506348
376.0	5.2538	2.111975	8.551248	-0.008556	0.007118	-0.015334	-0.656738	-0.022949	-0.501709
377.0	5.273444	2.088628	8.566416	-0.00672	0.010824	-0.014523	-0.660889	-0.025146	-0.503906
378.0	5.284491	2.086708	8.546171	-0.008802	0.010741	-0.018147	-0.654541	-0.022949	-0.506348
379.0	5.270949	2.088968	8.567868	-0.008985	0.009581	-0.016227	-0.65918	-0.018799	-0.506348
380.0	5.269457	2.064851	8.570771	-0.006116	0.009512	-0.015563	-0.652588	-0.018555	-0.506348
381.0	5.26858	2.089408	8.569218	-0.008805	0.010737	-0.018153	-0.661133	-0.020996	-0.510986
382.0	5.275986	2.092499	8.603278	-0.009415	0.012044	-0.017121	-0.654541	-0.022949	-0.506348
383.0	5.265981	2.089811	8.570717	-0.007591	0.008116	-0.020229	-0.661133	-0.020996	-0.50415
384.0	5.277098	2.088072	8.550405	-0.004467	0.012057	-0.012834	-0.654541	-0.020752	-0.50415
385.0	5.275994	2.112853	8.548937	-0.005578	0.01298	-0.021342	-0.654297	-0.027344	-0.503906
386.0	5.252663	2.063811	8.541989	-0.007587	0.015745	-0.016316	-0.656738	-0.022949	-0.50415
387.0	5.28169	2.116583	8.583888	-0.003253	0.009437	-0.014909	-0.661133	-0.020752	-0.513184
388.0	5.25862	2.06752	8.576781	-0.008021	0.014391	-0.019169	-0.661133	-0.020996	-0.506348
389.0	5.303176	2.088852	8.54579	-0.006554	0.011966	-0.01647	-0.665527	-0.018799	-0.50415
390.0	5.255988	2.092504	8.576192	-0.006374	0.013123	-0.018396	-0.658936	-0.020996	-0.501709
391.0	5.279297	2.088672	8.53505	-0.007777	0.010763	-0.016365	-0.661377	-0.016602	-0.50415
392.0	5.274339	2.093929	8.590039	-0.006557	0.011962	-0.016477	-0.654541	-0.022949	-0.508545
393.0	5.272897	2.094293	8.590836	-0.006378	0.013118	-0.018403	-0.656494	-0.027344	-0.503906
394.0	5.262827	2.091664	8.558319	-0.00674	0.010802	-0.014557	-0.660889	-0.025146	-0.501709
395.0	5.307186	2.088684	8.529551	-0.006991	0.014423	-0.017373	-0.658936	-0.025146	-0.508545
396.0	5.247515	2.094334	8.580933	-0.005342	0.013157	-0.016595	-0.661133	-0.023193	-0.50415
397.0	5.270746	2.09076	8.539822	-0.004553	0.013006	-0.019557	-0.658936	-0.020996	-0.50415
398.0	5.269454	2.115661	8.53843	-0.005165	0.014312	-0.018525	-0.656494	-0.027344	-0.508545
399.0	5.276439	2.094813	8.574677	-0.006383	0.009293	-0.020379	-0.654541	-0.022949	-0.510986
400.0	5.274922	2.095346	8.57548	-0.004561	0.016817	-0.017604	-0.658691	-0.025146	-0.501709
401.0	5.264599	2.092894	8.54309	-0.006389	0.013105	-0.018424	-0.661133	-0.020996	-0.506348
402.0	5.263023	2.093421	8.543932	-0.001873	0.015595	-0.015011	-0.6521	-0.027344	-0.508545
403.0	5.28244	2.094798	8.55717	-0.007003	0.014409	-0.017394	-0.658936	-0.020996	-0.506348
404.0	5.259876	2.094153	8.545691	-0.007184	0.01325	-0.01547	-0.658936	-0.020996	-0.506348
405.0	5.258368	2.094408	8.546557	-0.005966	0.01445	-0.015581	-0.654541	-0.022949	-0.515381
406.0	5.244501	2.096842	8.568296	-0.004743	0.011836	-0.017653	-0.654541	-0.022949	-0.50415
407.0	5.255487	2.095289	8.548112	-0.004317	0.013186	-0.014803	-0.658691	-0.025146	-0.506348
408.0	5.254175	2.095753	8.548805	-0.00535	0.009325	-0.018584	-0.654541	-0.020752	-0.508545
409.0	5.253048	2.096109	8.54941	-0.008401	0.008226	-0.017334	-0.65918	-0.016602	-0.506348
410.0	5.281433	2.100155	8.595816	-0.007192	0.013241	-0.015483	-0.654541	-0.020752	-0.508545
411.0	5.237806	2.074294	8.574017	-0.004927	0.010674	-0.015736	-0.661377	-0.018799	-0.506348
412.0	5.257859	2.099883	8.584844	-0.006146	0.00947	-0.015629	-0.661133	-0.020996	-0.501709
413.0	5.277426	2.076794	8.600103	-0.005543	0.011977	-0.014705	-0.658936	-0.022949	-0.513184
414.0	5.255484	2.124684	8.584119	-0.008415	0.012034	-0.015383	-0.656738	-0.022949	-0.501709
415.0	5.253946	2.100726	8.587033	-0.004139	0.01052	-0.018706	-0.656738	-0.020752	-0.50415
416.0	5.27766	2.121534	8.543701	-0.006586	0.011927	-0.01653	-0.654541	-0.020752	-0.510986
417.0	5.26342	2.075143	8.569804	-0.007201	0.013231	-0.015498	-0.663574	-0.018799	-0.50415
418.0	5.274761	2.122105	8.545349	-0.00641	0.01308	-0.018463	-0.650391	-0.020752	-0.506348
419.0	5.273215	2.098095	8.54829	-0.005728	0.010814	-0.012788	-0.658936	-0.020996	-0.501709
420.0	5.259366	2.075943	8.572099	-0.007807	0.010719	-0.016431	-0.658936	-0.022949	-0.50415
421.0	5.270665	2.098435	8.549779	-0.009463	0.011976	-0.01722	-0.656738	-0.020752	-0.506348
422.0	5.269289	2.098638	8.550577	-0.006593	0.011919	-0.016543	-0.656738	-0.025146	-0.501709
423.0	5.255669	2.125329	8.570051	-0.003722	0.011863	-0.015866	-0.65918	-0.018799	-0.50415
424.0	5.245538	2.098512	8.539657	-0.008674	0.011822	-0.020192	-0.654785	-0.018555	-0.506348
425.0	5.252744	2.101471	8.573798	-0.012517	0.010867	-0.01598	-0.654541	-0.020752	-0.508545
426.0	5.251531	2.125986	8.572425	-0.003549	0.013016	-0.017801	-0.656738	-0.020996	-0.501709
427.0	5.274941	2.12251	8.53142	-0.008254	0.013169	-0.017342	-0.656982	-0.018799	-0.506348
428.0	5.260853	2.100342	8.555353	-0.007217	0.013216	-0.015522	-0.654541	-0.022949	-0.501709
429.0	5.27208	2.12286	8.533101	-0.007395	0.012059	-0.013594	-0.656738	-0.025146	-0.503906
430.0	5.266655	2.103587	8.590277	-0.006602	0.011909	-0.016561	-0.654541	-0.022949	-0.499512
431.0	5.277527	2.07753	8.572373	-0.006798	0.014564	-0.01267	-0.66333	-0.020996	-0.50415
432.0	5.255325	2.101069	8.558571	-0.008242	0.00935	-0.019317	-0.658936	-0.020996	-0.50415
433.0	5.241628	2.103138	8.580189	-0.009654	0.010801	-0.015319	-0.656738	-0.022949	-0.50415
434.0	5.261491	2.104197	8.593292	-0.006342	0.008289	-0.013741	-0.656982	-0.018799	-0.501953
435.0	5.272815	2.126839	8.570968	-0.00601	0.014411	-0.015643	-0.661133	-0.023193	-0.50415
436.0	5.250153	2.077467	8.56364	-0.007824	0.010697	-0.016466	-0.656982	-0.018799	-0.50415
437.0	5.269968	2.103022	8.574666	-0.005571	0.011949	-0.01475	-0.654541	-0.022949	-0.506348
438.0	5.247934	2.126483	8.560764	-0.009217	0.008335	-0.014432	-0.654785	-0.018555	-0.506348
439.0	5.280116	2.101169	8.555196	-0.00924	0.012145	-0.012471	-0.654541	-0.022949	-0.50415
440.0	5.245431	2.102158	8.564371	-0.00617	0.009439	-0.015683	-0.656982	-0.018799	-0.50415
441.0	5.265225	2.103397	8.577487	-0.00679	0.010741	-0.01465	-0.654541	-0.025146	-0.508545
442.0	5.285076	2.104477	8.590611	-0.00922	0.008331	-0.01444	-0.652344	-0.025146	-0.503906
443.0	5.250358	2.105346	8.599818	-0.010108	0.013245	-0.016237	-0.656982	-0.018799	-0.506348
444.0	5.240579	2.102483	8.567261	-0.008008	0.009533	-0.01455	-0.654541	-0.020752	-0.506348
445.0	5.26026	2.103626	8.580477	-0.007238	0.013194	-0.015555	-0.65918	-0.018799	-0.513184
446.0	5.262944	2.098944	8.527053	-0.009668	0.010783	-0.015346	-0.658936	-0.022949	-0.501709
447.0	5.282662	2.100046	8.540266	-0.007835	0.010684	-0.016488	-0.658936	-0.020996	-0.50415
448.0	5.268982	2.102059	8.56184	-0.006972	0.009578	-0.01273	-0.654541	-0.025146	-0.506348
449.0	5.267781	2.102093	8.56257	-0.011749	0.010678	-0.019008	-0.658936	-0.022949	-0.506348
450.0	5.266315	2.102188	8.563448	-0.005612	0.015746	-0.012808	-0.656738	-0.022949	-0.50415
451.0	5.27749	2.100521	8.543347	-0.008433	0.008172	-0.017426	-0.658936	-0.025146	-0.508545
452.0	5.263809	2.102579	8.564893	-0.00784	0.010678	-0.016499	-0.652344	-0.025146	-0.508545
453.0	5.241545	2.101696	8.553181	-0.008462	0.011979	-0.015466	-0.663574	-0.018799	-0.506348
454.0	5.273835	2.101009	8.545483	-0.007396	0.008219	-0.015604	-0.656738	-0.025146	-0.506348
455.0	5.260118	2.103042	8.567047	-0.004134	0.013335	-0.010088	-0.658936	-0.022949	-0.508545
456.0	5.271481	2.101436	8.546831	-0.007815	0.006864	-0.018471	-0.654785	-0.018555	-0.506348
457.0	5.266321	2.081969	8.603753	-0.009233	0.008311	-0.01447	-0.661133	-0.022949	-0.508545
458.0	5.269286	2.101655	8.54813	-0.005177	0.013281	-0.011921	-0.660889	-0.025146	-0.503906
459.0	5.243015	2.105404	8.59059	-0.009234	0.008309	-0.014473	-0.656738	-0.022949	-0.506348
460.0	5.266974	2.101708	8.549542	-0.008644	0.010816	-0.013545	-0.65918	-0.018799	-0.506348
461.0	5.253207	2.103514	8.57117	-0.009684	0.010763	-0.015377	-0.656982	-0.018555	-0.508789
462.0	5.26441	2.077399	8.553193	-0.008472	0.011968	-0.015483	-0.654541	-0.020752	-0.508545
463.0	5.284109	2.102909	8.564352	-0.006812	0.010717	-0.014689	-0.658936	-0.022949	-0.506348
464.0	5.249452	2.103707	8.573423	-0.009861	0.009604	-0.013448	-0.663574	-0.018799	-0.50415
465.0	5.260835	2.101918	8.553269	-0.006814	0.010715	-0.014693	-0.656738	-0.025146	-0.501709
466.0	5.246987	2.128029	8.572858	-0.010934	0.013358	-0.013318	-0.654541	-0.022949	-0.50415
467.0	5.266745	2.104564	8.588213	-0.009414	0.007146	-0.012553	-0.661377	-0.018799	-0.506348
468.0	5.290807	2.10098	8.547136	-0.006817	0.010712	-0.014698	-0.658691	-0.027344	-0.513184
469.0	5.256006	2.077542	8.558325	-0.00848	0.011959	-0.015497	-0.663574	-0.016602	-0.501953
470.0	5.254712	2.101905	8.557036	-0.010732	0.010699	-0.017228	-0.654541	-0.020752	-0.508545
471.0	5.274403	2.103115	8.570282	-0.008274	0.009303	-0.019403	-0.656982	-0.018799	-0.50415
472.0	5.251982	2.102259	8.558624	-0.008346	0.016916	-0.015473	-0.658691	-0.025146	-0.503906
473.0	5.271517	2.103359	8.571997	-0.009246	0.008292	-0.014501	-0.656982	-0.016602	-0.508789
474.0	5.282864	2.126096	8.549778	-0.0044	0.01312	-0.014915	-0.656738	-0.022949	-0.50415
475.0	5.268965	2.10374	8.573473	-0.00866	0.010797	-0.013573	-0.658936	-0.022949	-0.50415
476.0	5.234181	2.104471	8.582568	-0.008488	0.01195	-0.015512	-0.658936	-0.020996	-0.506348
477.0	5.278837	2.102259	8.55422	-0.006481	0.01301	-0.018589	-0.654541	-0.022949	-0.50415
478.0	5.264955	2.079953	8.577881	-0.008039	0.009493	-0.014614	-0.652344	-0.022949	-0.506348
479.0	5.2554	2.05319	8.547225	-0.001946	0.011723	-0.017096	-0.658936	-0.020996	-0.506348
480.0	5.291879	2.182738	8.616534	0.00987	0.004156	-0.013436	-0.661133	-0.023193	-0.501709
481.0	5.308045	2.056672	8.551826	0.018212	0.007648	-0.014187	-0.654541	-0.022949	-0.506348
482.0	5.319576	2.05882	8.530701	0.05256	0.009096	-0.01932	-0.658936	-0.020996	-0.50415
483.0	5.33944	1.944897	8.552892	0.07298	0.008268	-0.027054	-0.658936	-0.020996	-0.506348
484.0	5.329291	2.074353	8.507463	0.130866	0.012068	-0.049908	-0.654297	-0.027344	-0.506348
485.0	5.305736	2.066819	8.494375	0.221393	0.024186	-0.061458	-0.656738	-0.020752	-0.506348
486.0	5.332763	1.82742	8.560768	0.241268	0.008419	-0.0937	-0.656738	-0.025146	-0.499512
487.0	5.408925	2.116858	8.49444	0.215853	0.001478	-0.118661	-0.660889	-0.029541	-0.508545
488.0	5.444764	1.933739	8.589544	0.268999	-0.001433	-0.147472	-0.65625	-0.031738	-0.503906
489.0	5.437151	1.983495	8.494087	0.321162	0.009164	-0.176436	-0.65625	-0.031738	-0.506104
490.0	5.414362	2.148316	8.551202	0.282985	0.013443	-0.200351	-0.658203	-0.036133	-0.503662
491.0	5.360908	2.261811	8.567033	0.3484	0.034465	-0.210712	-0.657959	-0.042725	-0.503662
492.0	5.10531	2.316078	8.495957	0.329142	0.054833	-0.201818	-0.660156	-0.044922	-0.508057
493.0	5.091615	2.634703	8.603138	0.287742	0.052976	-0.180627	-0.657959	-0.042725	-0.510498
494.0	5.190858	2.441324	8.545187	0.255736	0.060584	-0.165162	-0.65332	-0.049316	-0.503418
495.0	5.138885	2.514666	8.51188	0.219906	0.068218	-0.152068	-0.657959	-0.044922	-0.510498
496.0	5.087761	2.53572	8.485044	0.191268	0.068582	-0.134688	-0.653076	-0.053467	-0.510254
497.0	5.043569	2.654141	8.480267	0.156824	0.059161	-0.11839	-0.653564	-0.042725	-0.505859
498.0	5.028205	2.641845	8.44949	0.101415	0.059846	-0.089058	-0.657471	-0.055908	-0.505615
499.0	4.997501	2.795772	8.41964	0.058881	0.050163	-0.062845	-0.655273	-0.053467	-0.508057
500.0	4.911887	2.827594	8.454931	-0.001657	0.039766	-0.035549	-0.65332	-0.049316	-0.503418
501.0	4.926176	2.973283	8.452085	-0.059312	0.023623	-0.000665	-0.655518	-0.049316	-0.510254
502.0	5.009688	2.768553	8.442316	-0.117391	0.006019	0.031299	-0.655273	-0.055664	-0.505615
503.0	5.045844	2.682067	8.446901	-0.151731	-0.000248	0.056503	-0.657715	-0.049316	-0.510254
504.0	5.000354	2.7395	8.471152	-0.189206	-0.015673	0.074254	-0.655518	-0.049316	-0.510254
505.0	5.081692	2.624157	8.504304	-0.227619	-0.027127	0.096789	-0.655518	-0.049316	-0.510254
506.0	5.054804	2.525345	8.525653	-0.262475	-0.030126	0.11868	-0.655762	-0.042725	-0.508301
507.0	5.09625	2.602288	8.599137	-0.282582	-0.042617	0.134085	-0.655762	-0.042725	-0.515137
508.0	5.11696	2.544713	8.585968	-0.280122	-0.049847	0.143114	-0.656006	-0.040527	-0.508301
509.0	5.168572	2.442891	8.623181	-0.295969	-0.067815	0.153054	-0.653564	-0.042725	-0.510498
510.0	5.133245	2.364687	8.659956	-0.262657	-0.083822	0.151149	-0.653809	-0.040527	-0.510498
511.0	5.169493	2.404621	8.611949	-0.232199	-0.108542	0.146709	-0.662842	-0.033936	-0.508301
512.0	5.132187	2.433176	8.689704	-0.225568	-0.128117	0.159198	-0.658203	-0.036133	-0.506104
513.0	5.144834	2.387344	8.743745	-0.197823	-0.167209	0.163689	-0.663086	-0.027344	-0.503906
514.0	5.111235	2.264804	8.743593	-0.165931	-0.200198	0.168678	-0.658447	-0.031738	-0.499268
515.0	5.218348	2.272264	8.783109	-0.140607	-0.249452	0.169275	-0.665527	-0.023193	-0.501709
516.0	5.071858	2.288446	8.92015	-0.129345	-0.316722	0.178636	-0.663086	-0.025391	-0.494873
517.0	4.830339	2.191077	9.144884	-0.103748	-0.410364	0.194578	-0.669678	-0.027588	-0.49707
518.0	4.241066	2.257838	9.535756	-0.057759	-0.582546	0.229772	-0.665527	-0.023193	-0.490479
519.0	4.610958	2.509117	9.204935	-0.056729	-0.770722	0.26756	-0.676514	-0.018799	-0.483643
520.0	4.602696	2.385112	9.345846	-0.035021	-0.97712	0.305128	-0.676514	-0.018799	-0.483643
521.0	4.676182	2.523301	9.401135	-0.037395	-1.219081	0.335218	-0.685547	-0.012451	-0.469971
522.0	4.807482	2.415989	9.45567	-0.026153	-1.46045	0.364938	-0.692139	-0.012451	-0.463135
523.0	5.142884	2.744448	9.219334	-0.064167	-1.664456	0.423958	-0.700928	-0.010498	-0.447266
524.0	5.522504	2.601563	9.325176	-0.157231	-1.797626	0.50926	-0.703369	-0.006104	-0.438232
525.0	5.854192	2.889167	9.478037	-0.243116	-1.925597	0.609529	-0.712402	0.002686	-0.431641
526.0	6.035383	2.015146	9.084842	-0.345661	-2.006955	0.712861	-0.7146	0.002441	-0.41333
527.0	6.632113	2.98254	8.878534	-0.151728	-2.028875	0.785263	-0.721436	0.01123	-0.404297
528.0	7.387159	2.974714	8.614751	-0.324176	-2.059047	0.878023	-0.728027	0.013428	-0.390625
529.0	7.883626	2.703123	8.151932	-0.135748	-1.989856	0.94592	-0.737305	0.021973	-0.381836
530.0	8.345706	1.763477	8.177332	0.012652	-1.862328	0.970494	-0.737549	0.026367	-0.370361
531.0	8.806307	4.999451	11.802091	0.41916	-1.493298	1.003873	-0.748535	0.032715	-0.36377
532.0	5.070031	6.671195	12.261627	0.046929	-0.895801	1.048553	-0.742188	0.037109	-0.354736
533.0	3.151824	6.325411	11.585072	-0.115405	-0.392429	1.046835	-0.744873	0.043701	-0.364014
534.0	3.065839	4.472557	11.60596	-0.177458	0.074057	0.974294	-0.734131	0.050293	-0.375488
535.0	0.986755	7.003436	10.464828	0.459427	0.577593	0.743455	-0.738525	0.048096	-0.379883
536.0	-1.390515	8.121956	8.84643	0.175046	0.619254	0.602785	-0.734131	0.050293	-0.395996
537.0	-0.180202	7.468369	9.394729	0.169132	0.668549	0.374926	-0.725342	0.04834	-0.405029
538.0	0.058695	7.710209	9.701214	0.333272	0.880505	0.038358	-0.720703	0.043945	-0.418701
539.0	-0.188549	7.96173	9.469615	0.331245	1.043366	-0.284072	-0.720459	0.0354	-0.436768
540.0	0.542533	7.48524	9.810538	0.271165	1.175357	-0.580352	-0.710938	0.02002	-0.457031
541.0	1.189092	7.047561	10.155823	0.305141	1.37729	-0.870607	-0.69751	0.011475	-0.475098
542.0	1.543637	6.654468	10.29529	0.28743	1.57968	-1.125415	-0.685547	-0.010254	-0.501953
543.0	1.880146	5.958173	10.263444	0.251364	1.752176	-1.332898	-0.66748	-0.027344	-0.53125
544.0	2.328178	5.184824	10.157095	0.271431	1.901884	-1.4929	-0.640381	-0.049072	-0.55835
545.0	2.719791	4.636364	10.106189	0.290562	2.014727	-1.612383	-0.61792	-0.063965	-0.587646
546.0	2.867978	4.233895	9.755739	0.309073	2.073902	-1.67486	-0.575439	-0.087646	-0.609863
547.0	3.040763	3.396132	9.389743	0.302514	2.052287	-1.722792	-0.534912	-0.115723	-0.623047
548.0	3.242902	1.263662	8.980834	0.38259	1.934066	-1.718814	-0.492676	-0.130859	-0.641113
549.0	4.360759	2.172774	9.704973	0.545417	1.830576	-1.608912	-0.453125	-0.13916	-0.645508
550.0	4.909283	1.544434	9.838059	0.442135	1.743102	-1.477821	-0.404541	-0.154297	-0.649902
551.0	5.098502	0.770005	9.43061	0.406387	1.613908	-1.346114	-0.354248	-0.153809	-0.652344
552.0	5.196318	-0.979851	8.981524	0.445279	1.428522	-1.186769	-0.30835	-0.155762	-0.645508
553.0	5.578412	-0.83791	8.962443	0.659485	1.225328	-0.993799	-0.27124	-0.159912	-0.63623
554.0	6.249912	-0.477053	9.105713	0.696555	1.045541	-0.787089	-0.22998	-0.150879	-0.622803
555.0	6.806976	0.095394	9.204059	0.70096	0.897737	-0.621587	-0.195801	-0.137695	-0.609375
556.0	7.451838	0.553586	9.159339	0.730385	0.794525	-0.512221	-0.165283	-0.135254	-0.595947
557.0	8.296385	1.087287	9.333414	0.726633	0.724355	-0.456449	-0.131348	-0.117676	-0.58252
558.0	9.498147	1.51019	9.545317	0.69608	0.747752	-0.448708	-0.103271	-0.108887	-0.569092
559.0	10.165727	1.659697	9.39684	0.617969	0.84656	-0.456563	-0.077637	-0.095703	-0.55127
560.0	10.336644	1.384342	8.803846	0.552589	0.96407	-0.488001	-0.052246	-0.078125	-0.533203
561.0	10.413832	1.127791	8.273403	0.497389	1.041858	-0.530757	-0.029053	-0.060547	-0.513184
562.0	10.687071	0.959531	7.768554	0.433129	1.122946	-0.570692	-0.003906	-0.040771	-0.490723
563.0	10.402206	0.707838	7.02269	0.303069	1.187443	-0.595206	0.006104	-0.018799	-0.4729
564.0	9.736679	-0.066499	5.944799	0.140237	1.158981	-0.600401	0.018311	-0.001465	-0.452881
565.0	9.011887	-0.814292	4.757219	0.024643	1.026904	-0.572207	0.028809	0.011719	-0.427979
566.0	9.104373	-1.158321	4.224298	-0.081529	0.818	-0.506257	0.03418	0.033447	-0.414795
567.0	9.54898	-1.241021	3.96509	-0.18685	0.627431	-0.417857	0.040039	0.053223	-0.403809
568.0	9.85619	-1.216979	3.713441	-0.248247	0.469111	-0.327231	0.052734	0.062012	-0.381104
569.0	9.862532	-1.15664	3.332987	-0.266037	0.318244	-0.240302	0.056396	0.077148	-0.370117
570.0	9.745892	-0.878547	3.126243	-0.270517	0.145201	-0.15338	0.06665	0.090332	-0.363525
571.0	9.422138	-2.185395	1.669813	-0.37977	-0.295781	0.086145	0.070801	0.096924	-0.354492
572.0	5.99025	-1.759836	-4.659154	-0.192261	-1.122223	0.510013	0.074707	0.10791	-0.350342
573.0	3.918597	-2.156618	2.1264	-0.332749	-1.825894	0.730394	0.085205	0.116699	-0.348145
574.0	8.56269	4.380274	17.698198	-0.160934	-1.592667	0.766052	0.095703	0.123291	-0.345947
575.0	1.619611	4.103937	9.653779	0.156927	-1.223633	0.987218	0.108398	0.129883	-0.348389
576.0	0.229652	3.278456	4.79832	-0.538736	-1.944269	1.322371	0.116943	0.134277	-0.343994
577.0	9.04301	5.856364	10.652421	-0.073642	-2.220769	1.026915	0.123291	0.138672	-0.346436
578.0	11.93408	7.091644	11.826432	-0.419483	-1.788811	0.68506	0.135986	0.147461	-0.337402
579.0	12.759475	3.918999	12.71343	-0.58796	-1.57898	0.620878	0.142334	0.154053	-0.344482
580.0	12.454852	2.747517	14.43861	-1.05597	-0.595018	0.722103	0.140137	0.15625	-0.339844
581.0	6.011483	2.834032	9.102506	-0.474285	-0.396545	0.452379	0.14209	0.160645	-0.342285
582.0	5.140855	2.419938	9.199769	-0.768537	-0.497526	0.411251	0.148682	0.160645	-0.335449
583.0	4.93925	3.251217	8.93661	-0.575613	-0.408304	0.425499	0.145996	0.171631	-0.340088
584.0	5.495336	3.708622	8.713674	-0.716918	-0.390982	0.463926	0.143799	0.171631	-0.342529
585.0	6.279732	2.845409	8.79588	-0.803955	-0.303688	0.44483	0.150391	0.169434	-0.342529
586.0	6.023091	1.361573	8.768559	-0.704965	-0.220345	0.375905	0.152344	0.176025	-0.333496
587.0	6.549581	1.805842	9.07117	-0.483412	-0.069248	0.306119	0.147949	0.173828	-0.333496
588.0	5.360209	2.21563	8.753943	-0.409231	-0.008248	0.238015	0.154541	0.176025	-0.331055
589.0	5.488963	2.264737	8.687619	-0.360765	0.001069	0.204832	0.150146	0.173828	-0.335693
590.0	5.628709	1.905973	8.659951	-0.335167	0.000659	0.166359	0.149902	0.180176	-0.331299
591.0	5.442229	1.470766	8.606551	-0.22726	0.006293	0.115735	0.147705	0.180176	-0.328857
592.0	5.46861	1.576411	8.644865	-0.146667	-0.00034	0.05633	0.154053	0.182373	-0.32666
593.0	5.369984	1.705688	8.60307	-0.070402	-0.009401	0.018076	0.151855	0.18457	-0.333496
594.0	5.311687	1.895141	8.581121	-0.004157	-0.016954	-0.018213	0.156494	0.176025	-0.331055
595.0	5.318408	2.163236	8.535948	0.023115	-0.015465	-0.031431	0.154297	0.178223	-0.333496
596.0	5.266899	2.387327	8.543831	0.031829	-0.019268	-0.031251	0.154297	0.18042	-0.331299
597.0	5.281923	2.341261	8.525763	0.027906	-0.016437	-0.025036	0.158691	0.18042	-0.335938
598.0	5.301994	2.395651	8.532694	0.036179	-0.012863	-0.025795	0.154297	0.18042	-0.333496
599.0	5.325702	2.304294	8.552741	0.033994	-0.006296	-0.018755	0.15625	0.182617	-0.335938
600.0	5.26471	2.383559	8.594429	0.027398	-0.011092	-0.017182	0.156494	0.176025	-0.331055
601.0	5.26107	2.237706	8.57301	0.027349	-0.002335	-0.015226	0.162842	0.182617	-0.331299
602.0	5.283248	2.193644	8.589342	0.019717	-0.007215	-0.015509	0.156494	0.178223	-0.333496
603.0	5.261548	2.243094	8.571309	0.019813	-0.011032	-0.017479	0.160645	0.184814	-0.335938
604.0	5.296414	2.221703	8.564479	0.019415	-0.012421	-0.020383	0.158691	0.18042	-0.331299
605.0	5.283505	2.250034	8.58195	0.015748	-0.012262	-0.018092	0.154297	0.18042	-0.331299
606.0	5.30857	2.298003	8.53503	0.015844	-0.016081	-0.020062	0.160889	0.18042	-0.333496
607.0	5.275994	2.300272	8.541695	0.01817	-0.018594	-0.020281	0.158447	0.182617	-0.333496
608.0	5.289363	2.32537	8.517386	0.012126	-0.020872	-0.017767	0.160645	0.182617	-0.331299
609.0	5.310704	2.353048	8.526661	0.002863	-0.019598	-0.018871	0.156494	0.18042	-0.338135
610.0	5.305901	2.278309	8.498839	0.011283	-0.01194	-0.012801	0.15625	0.182617	-0.340332
611.0	5.292487	2.329797	8.514235	0.003804	-0.015695	-0.015046	0.15625	0.184814	-0.33374
612.0	5.289286	2.31074	8.569889	-0.00664	-0.012692	-0.007218	0.15625	0.182617	-0.333496
613.0	5.340979	2.364751	8.33812	-0.004264	-0.010254	-0.00744	0.158691	0.178223	-0.335693
614.0	5.256761	2.273418	8.723559	-0.026442	-0.004598	0.001482	0.162842	0.184814	-0.335938
615.0	5.225209	2.423662	8.520484	-0.01574	-0.004395	0.007342	0.160645	0.184814	-0.33374
616.0	5.206466	2.26529	8.433645	-0.040356	-0.009078	0.007666	0.162842	0.182617	-0.333496
617.0	5.305097	2.322695	8.547605	-0.05516	-0.009578	0.018824	0.15625	0.182617	-0.338135
618.0	5.283871	2.363839	8.531503	-0.052489	-0.001945	0.023463	0.158447	0.182617	-0.338135
619.0	5.289376	2.352924	8.478651	-0.062154	0.000869	0.028256	0.160645	0.182617	-0.338135
620.0	5.297738	2.348417	8.513975	-0.078462	0.007638	0.03659	0.1604	0.187012	-0.331299
621.0	5.30912	2.386546	8.491527	-0.084173	0.015476	0.043938	0.15625	0.184814	-0.33374
622.0	5.302266	2.32463	8.465284	-0.096885	0.017117	0.049939	0.15625	0.184814	-0.338135
623.0	5.255471	2.314671	8.497309	-0.099639	0.021127	0.056005	0.15625	0.182617	-0.32666
624.0	5.303733	2.204596	8.48041	-0.101699	0.028781	0.061032	0.160889	0.18042	-0.333496
625.0	5.290021	2.194816	8.504584	-0.08909	0.022133	0.054928	0.154297	0.18042	-0.331299
626.0	5.2662	2.279721	8.486957	-0.095179	0.019804	0.057352	0.154053	0.18457	-0.322266
627.0	5.296024	2.224321	8.540205	-0.092942	0.015206	0.065868	0.160889	0.18042	-0.331299
628.0	5.241625	2.235553	8.536075	-0.090859	0.00657	0.067535	0.162842	0.18042	-0.331299
629.0	5.263747	2.225483	8.551022	-0.094296	-0.001852	0.072607	0.160645	0.182617	-0.329102
630.0	5.212668	2.163349	8.551799	-0.092222	-0.010494	0.074261	0.160645	0.184814	-0.324463
631.0	5.310734	2.180514	8.581491	-0.089442	-0.01548	0.074897	0.158447	0.184814	-0.326904
632.0	5.301177	2.169826	8.603244	-0.090904	-0.019973	0.08565	0.165039	0.182617	-0.322266
633.0	5.310259	2.128959	8.55172	-0.09558	-0.023752	0.083986	0.164795	0.189209	-0.326904
634.0	5.300404	2.166196	8.569548	-0.098021	-0.026242	0.084086	0.164795	0.187012	-0.329102
635.0	5.342904	2.148909	8.508164	-0.102555	-0.023178	0.098041	0.158203	0.186768	-0.329102
636.0	5.354528	2.161481	8.540938	-0.107737	-0.021686	0.104222	0.162842	0.184814	-0.331299
637.0	5.271489	2.297319	8.622764	-0.114932	-0.021295	0.113462	0.162842	0.184814	-0.331299
638.0	5.275669	2.328584	8.620945	-0.138344	-0.027726	0.133655	0.1604	0.188965	-0.322266
639.0	5.26274	2.210159	8.61629	-0.146103	-0.045542	0.153322	0.162598	0.188965	-0.324707
640.0	5.178429	2.216144	8.6724	-0.146709	-0.073569	0.168311	0.156006	0.191162	-0.31543
641.0	5.066601	2.324733	8.816255	-0.14222	-0.116062	0.197144	0.156006	0.191162	-0.317871
642.0	4.862225	1.887364	8.929592	-0.231651	-0.198673	0.216179	0.156006	0.186768	-0.322266
643.0	4.872252	1.802211	9.141881	-0.098828	-0.318317	0.223985	0.156006	0.188965	-0.320068
644.0	4.874597	1.304884	8.932616	-0.124542	-0.422147	0.200814	0.156006	0.191162	-0.320068
645.0	4.779009	1.59427	9.177315	-0.109389	-0.564232	0.176538	0.14917	0.195557	-0.315674
646.0	4.645589	1.780032	9.27626	-0.086553	-0.73549	0.160139	0.153564	0.197754	-0.311035
647.0	4.686573	2.13648	9.334988	-0.095419	-0.950513	0.161377	0.148926	0.199951	-0.315674
648.0	4.586529	2.493474	9.430383	-0.11383	-1.209022	0.190417	0.142334	0.204102	-0.313477
649.0	4.59525	2.722986	9.483684	-0.132822	-1.500163	0.236249	0.142578	0.199707	-0.306641
650.0	4.459161	2.762794	9.719237	-0.163312	-1.803253	0.31535	0.137939	0.204102	-0.304443
651.0	4.456363	3.044565	10.033794	-0.195324	-2.149668	0.409101	0.135254	0.212891	-0.302246
652.0	4.715961	3.209409	10.307153	-0.34638	-2.507967	0.560407	0.128662	0.217041	-0.293213
653.0	4.659557	3.445371	10.446748	-0.477303	-2.859108	0.768025	0.121826	0.223633	-0.286377
654.0	4.887451	3.445895	10.423994	-0.696615	-3.253395	1.023927	0.112549	0.234375	-0.277588
655.0	4.662715	3.135053	10.400226	-0.862192	-3.598127	1.305542	0.108154	0.234375	-0.268555
656.0	4.91589	3.243849	10.123577	-0.964755	-3.975843	1.607957	0.098877	0.247314	-0.257324
657.0	4.608698	3.049319	9.832064	-1.081577	-4.377446	1.888336	0.091797	0.258301	-0.239258
658.0	5.74929	3.029864	9.78058	-1.285927	-4.723979	2.139725	0.089111	0.27124	-0.221191
659.0	6.993191	2.473531	9.300078	-1.366974	-5.121571	2.292523	0.082275	0.277832	-0.196289
660.0	9.835381	-0.114527	8.59967	-1.189474	-5.744489	2.185844	0.077393	0.290771	-0.1875
661.0	18.759755	-0.873518	9.691292	0.263728	-6.138002	1.894211	0.074951	0.292969	-0.166992
662.0	21.924373	5.786537	13.422232	0.567734	-5.790126	2.003723	0.066162	0.294922	-0.155518
663.0	19.098619	5.414789	13.596464	-0.104666	-5.332442	2.321297	0.04834	0.303467	-0.119385
664.0	16.548572	7.27097	15.561157	0.103223	-4.623457	2.260034	0.031006	0.303223	-0.098877
665.0	11.841386	14.032734	20.812184	0.119055	-3.037044	1.807275	0.012939	0.316162	-0.067139
666.0	6.146972	16.43934	19.506769	-0.989458	-1.493869	1.054705	-0.008789	0.313721	-0.023682
667.0	4.113735	11.613498	14.422871	-1.599658	-0.595235	0.307284	-0.035645	0.328857	0.019287
668.0	1.096898	9.138831	12.055143	-1.529845	-0.199556	-0.183873	-0.064209	0.337158	0.051025
669.0	-0.683093	6.957133	10.149067	-1.282972	-0.059508	-0.508721	-0.09082	0.345703	0.0896
670.0	-0.738413	5.180993	9.871949	-1.040375	0.08786	-0.711336	-0.121582	0.352051	0.121582
671.0	-0.794523	4.89196	9.900988	-0.621858	0.29386	-0.820225	-0.150146	0.356201	0.146484
672.0	-0.820982	4.645497	9.900843	-0.428602	0.544706	-0.860636	-0.180664	0.358154	0.166992
673.0	-0.749265	4.711269	9.936095	-0.31771	0.841988	-0.871522	-0.220215	0.362061	0.194336
674.0	-0.500492	4.277698	9.748305	-0.227802	1.164208	-0.910048	-0.253174	0.366211	0.208008
675.0	-0.155098	4.132333	9.657989	-0.115336	1.499775	-0.982193	-0.28833	0.374756	0.219238
676.0	0.389033	4.032013	9.74128	0.002463	1.862255	-1.085245	-0.331787	0.370117	0.223877
677.0	1.28837	4.12868	9.98094	0.062547	2.223315	-1.210769	-0.373047	0.367676	0.226318
678.0	2.171323	4.080927	10.204189	0.123084	2.624112	-1.338485	-0.416748	0.367432	0.215088
679.0	2.501129	3.818718	9.944703	0.148152	3.004927	-1.455111	-0.45752	0.351807	0.20166
680.0	2.411606	3.397522	9.386747	0.18895	3.277886	-1.548835	-0.494629	0.351563	0.178955
681.0	2.335082	2.83528	8.882416	0.237584	3.452717	-1.604935	-0.5354	0.338379	0.147461
682.0	2.676287	2.220713	8.910953	0.326698	3.541967	-1.636221	-0.572021	0.327393	0.115723
683.0	3.42867	2.028223	9.366167	0.494803	3.634263	-1.634888	-0.602051	0.318359	0.077148
684.0	4.273642	1.855583	9.829176	0.628845	3.763733	-1.619511	-0.618896	0.30542	0.027344
685.0	5.059001	2.000224	10.43192	0.744667	3.905742	-1.589537	-0.646484	0.287842	-0.015625
686.0	5.7329	2.175635	10.980698	0.856198	4.047172	-1.559941	-0.656494	0.263916	-0.069824
687.0	6.323573	2.326114	11.496987	0.934605	4.169057	-1.559623	-0.659912	0.246582	-0.11499
688.0	6.708685	2.448684	11.815536	1.013	4.253066	-1.574613	-0.651855	0.211914	-0.159912
689.0	6.9339	2.404659	12.145902	1.073297	4.284163	-1.560809	-0.64624	0.183594	-0.198242
690.0	7.096932	2.141137	12.474164	1.153779	4.241889	-1.541095	-0.640381	0.148682	-0.236328
691.0	7.724002	1.592456	12.868102	1.267456	4.12602	-1.503702	-0.632568	0.118408	-0.262939
692.0	8.334015	1.07744	13.114538	1.390684	3.994036	-1.411808	-0.628662	0.083496	-0.282715
693.0	8.105909	0.249749	12.619875	1.440118	3.757706	-1.241079	-0.623047	0.055176	-0.302734
694.0	8.262899	-1.181958	12.238751	1.554259	3.360223	-1.008798	-0.621826	0.026855	-0.320557
695.0	10.072208	-2.141884	12.955137	1.804772	2.864698	-0.754514	-0.618896	0.007324	-0.335938
696.0	14.716314	-1.862135	14.881893	2.204125	2.544594	-0.570116	-0.619873	-0.018799	-0.340088
697.0	19.540952	-0.872733	16.564206	2.576435	2.622395	-0.532386	-0.618652	-0.044922	-0.360107
698.0	23.168956	0.558267	16.607677	2.842902	3.017407	-0.657001	-0.604492	-0.068848	-0.386963
699.0	25.269495	1.993228	14.782775	2.676108	3.486472	-0.827638	-0.592773	-0.086182	-0.404785
700.0	26.634242	1.903319	11.493032	2.098892	3.891757	-0.88024	-0.574219	-0.110107	-0.425049
701.0	26.337964	-0.799977	6.401458	1.459858	4.149279	-0.868676	-0.564941	-0.125244	-0.44751
702.0	24.283316	-4.574681	0.230339	1.166522	4.057857	-0.829402	-0.536133	-0.135986	-0.465576
703.0	24.607809	-8.016222	-5.748572	1.104036	3.519199	-0.740171	-0.522705	-0.144531	-0.483643
704.0	27.081786	-9.912411	-10.556166	1.134427	2.888017	-0.60992	-0.502197	-0.159668	-0.499268
705.0	26.764929	-10.241159	-14.732635	1.054703	2.154352	-0.553315	-0.493408	-0.163818	-0.501465
706.0	23.552524	-8.498172	-15.499001	0.575225	1.036486	-0.516951	-0.484131	-0.174805	-0.505859
707.0	20.64415	-5.793994	-12.487468	-0.397428	-0.32373	-0.352859	-0.488281	-0.179199	-0.508057
708.0	17.276125	-3.070132	-7.490581	-0.924015	-2.298132	0.363198	-0.501709	-0.172607	-0.492188
709.0	-3.600226	-3.880444	-8.374364	-3.098896	-2.634671	1.296085	-0.517822	-0.153076	-0.485596
710.0	4.013842	-1.673345	24.74534	-1.953304	-4.68435	1.379651	-0.533691	-0.140137	-0.474609
711.0	3.377595	-4.495351	15.304833	-1.062962	-3.730257	2.147151	-0.560547	-0.123047	-0.458984
712.0	14.079286	-11.315739	8.198894	-1.230136	-4.348875	2.153875	-0.578369	-0.114502	-0.436279
713.0	23.510062	4.485849	20.92334	0.571985	-3.479122	1.528718	-0.589844	-0.105713	-0.425049
714.0	21.574578	6.515286	18.171214	-0.493419	-2.354446	1.111916	-0.598389	-0.105957	-0.411377
715.0	16.239938	9.261369	16.818658	-0.852507	-1.157629	0.966294	-0.601318	-0.092773	-0.406982
716.0	4.717987	3.225189	7.495248	-1.291487	-1.011582	0.716046	-0.601563	-0.086182	-0.404785
717.0	5.168239	4.776646	8.852119	-1.096145	-0.927468	0.845877	-0.608643	-0.075439	-0.409668
718.0	5.828661	6.832278	8.934342	-1.581728	-0.878751	0.93994	-0.606689	-0.06665	-0.39624
719.0	9.912435	-0.726317	9.585506	-1.771764	-0.72371	0.791843	-0.614014	-0.049316	-0.40332
720.0	7.767364	1.484035	9.312948	-0.698445	-0.111209	0.528811	-0.605469	-0.046875	-0.405518
721.0	5.433024	3.167356	8.834109	-0.863872	-0.131124	0.45756	-0.605469	-0.044922	-0.398926
722.0	6.571421	0.653819	9.199831	-0.803246	-0.058548	0.361201	-0.616699	-0.03833	-0.405762
723.0	5.753359	0.430404	8.916616	-0.370634	0.044454	0.210364	-0.610352	-0.033936	-0.401367
724.0	5.488335	1.858466	8.878412	-0.272767	0.059275	0.124744	-0.604004	-0.033936	-0.406006
725.0	5.35975	2.071779	8.864729	-0.226962	0.048102	0.087215	-0.608643	-0.027344	-0.403809
726.0	5.156256	1.837233	8.761944	-0.172707	0.035121	0.060843	-0.608154	-0.033936	-0.403564
727.0	5.126545	1.864741	8.713466	-0.114392	0.018508	0.035339	-0.612793	-0.029541	-0.410645
728.0	5.13985	2.152845	8.517361	-0.045529	0.014897	0.024207	-0.610352	-0.036133	-0.401367
729.0	5.195362	2.995294	8.405714	-0.044872	-0.002454	0.042084	-0.606445	-0.027344	-0.403809
730.0	5.205841	2.927637	8.537336	-0.10728	3.9e-05	0.05836	-0.605957	-0.033936	-0.406006
731.0	5.24716	2.897522	8.392343	-0.123213	0.002173	0.087843	-0.608643	-0.027344	-0.406006
732.0	5.239711	2.698341	8.526255	-0.161817	0.000656	0.109658	-0.606445	-0.027344	-0.408203
733.0	5.149524	2.528221	8.514037	-0.16081	-0.004827	0.123091	-0.606201	-0.029541	-0.408203
734.0	5.174141	2.591364	8.610532	-0.173766	-0.013721	0.135854	-0.606445	-0.025146	-0.403809
735.0	5.221196	2.416807	8.568515	-0.185261	-0.037755	0.142933	-0.613037	-0.022949	-0.406006
736.0	5.216826	2.153537	8.616525	-0.168469	-0.051973	0.140531	-0.604248	-0.025146	-0.403809
737.0	5.265708	1.932756	8.576064	-0.147086	-0.064847	0.119345	-0.606689	-0.020752	-0.403809
738.0	5.274464	1.77052	8.589853	-0.105158	-0.074548	0.09738	-0.608887	-0.018555	-0.401611
739.0	5.260925	2.121476	8.536663	-0.062031	-0.083889	0.082141	-0.613281	-0.020752	-0.40625
740.0	5.323465	2.307015	8.519747	-0.063433	-0.085378	0.077364	-0.608887	-0.020752	-0.396973
741.0	5.412453	2.414717	8.470069	-0.079193	-0.071035	0.08613	-0.604736	-0.016357	-0.404053
742.0	5.399986	2.181894	8.477513	-0.110964	-0.060193	0.090511	-0.615479	-0.018799	-0.401611
743.0	5.440139	2.021599	8.484196	-0.104834	-0.043568	0.082888	-0.606934	-0.011963	-0.40625
744.0	5.377271	1.937677	8.505926	-0.090644	-0.028635	0.069819	-0.604736	-0.01416	-0.397217
745.0	5.380773	2.024136	8.496745	-0.080314	-0.023308	0.059168	-0.611328	-0.014404	-0.397217
746.0	5.417674	2.062441	8.485052	-0.074964	-0.023871	0.050958	-0.620117	-0.014404	-0.401611
747.0	5.373562	2.177475	8.501767	-0.078658	-0.014079	0.048219	-0.611328	-0.014404	-0.399414
748.0	5.388793	2.165425	8.482598	-0.092171	-0.007181	0.056936	-0.615723	-0.012207	-0.399414
749.0	5.363852	2.133871	8.527679	-0.096902	0.001629	0.059105	-0.61792	-0.014404	-0.397217
750.0	5.357314	2.046369	8.50305	-0.09859	0.002828	0.058204	-0.615479	-0.020752	-0.399414
751.0	5.352555	2.04016	8.559121	-0.091608	0.000117	0.057594	-0.613281	-0.016602	-0.397217
752.0	5.354299	2.005347	8.56267	-0.086108	-0.017607	0.050507	-0.606934	-0.016357	-0.399414
753.0	5.357605	2.020475	8.560631	-0.067965	-0.034309	0.046238	-0.604736	-0.01416	-0.397217
754.0	5.294622	2.062882	8.570201	-0.057206	-0.041918	0.048275	-0.606934	-0.016357	-0.394775
755.0	5.346537	1.979913	8.547217	-0.051938	-0.061711	0.049878	-0.607178	-0.01001	-0.399414
756.0	5.301893	2.102415	8.615479	-0.041323	-0.082951	0.050074	-0.613525	-0.012207	-0.399414
757.0	5.282052	2.019455	8.571366	-0.037061	-0.094117	0.051661	-0.620605	-0.003418	-0.392822
758.0	5.320681	2.041668	8.610895	-0.037423	-0.12236	0.05465	-0.611572	-0.007813	-0.390381
759.0	5.339532	2.12834	8.541866	-0.029925	-0.144755	0.055954	-0.611816	-0.005615	-0.397217
760.0	5.327337	2.125682	8.575893	-0.04187	-0.148835	0.070282	-0.609131	-0.012207	-0.39502
761.0	5.287142	2.323808	8.688025	-0.063952	-0.173513	0.087388	-0.614014	-0.003418	-0.392822
762.0	4.826206	2.712828	9.005119	-0.060158	-0.226413	0.128189	-0.618164	-0.005615	-0.390381
763.0	5.123764	2.479291	8.808009	-0.181403	-0.305736	0.196418	-0.614014	-0.001221	-0.385986
764.0	5.037028	2.195494	8.915474	-0.161001	-0.375023	0.223325	-0.618408	-0.001221	-0.385986
765.0	4.902042	2.061622	9.055644	-0.172601	-0.4931	0.253029	-0.618408	-0.001221	-0.381348
766.0	4.869052	1.914965	9.044234	-0.137791	-0.649809	0.263808	-0.625244	0.00293	-0.376953
767.0	4.775365	1.684605	9.157067	-0.12106	-0.855702	0.265091	-0.625244	0.007324	-0.370117
768.0	4.687945	1.899599	9.268151	-0.06991	-1.100592	0.261433	-0.631592	0.00293	-0.361084
769.0	4.624318	2.024926	9.431322	-0.05575	-1.383879	0.269359	-0.629639	0.007324	-0.356445
770.0	4.611527	2.420488	9.59615	-0.060175	-1.701246	0.2882	-0.63623	0.009277	-0.338379
771.0	4.807399	2.841291	9.530931	-0.069387	-2.015558	0.359746	-0.647461	0.013672	-0.331543
772.0	4.821749	3.250201	9.998189	-0.170102	-2.307847	0.498969	-0.651855	0.013672	-0.317871
773.0	4.895228	3.308109	10.297778	-0.313612	-2.642557	0.663095	-0.658447	0.017822	-0.297363
774.0	4.930673	4.203815	10.654439	-0.475629	-3.015571	0.939182	-0.658691	0.022217	-0.281494
775.0	4.879431	4.005931	10.901191	-0.74788	-3.463524	1.305396	-0.663574	0.035156	-0.26123
776.0	4.706929	3.691912	10.903463	-0.885166	-3.889505	1.708769	-0.668457	0.043945	-0.231934
777.0	4.422546	3.122577	10.012413	-1.037701	-4.387541	2.132705	-0.682373	0.063232	-0.21167
778.0	5.226193	2.642691	9.356599	-1.008767	-4.934237	2.484329	-0.67627	0.074219	-0.173096
779.0	6.284879	3.573817	9.564423	-0.901487	-5.388096	2.789685	-0.683838	0.095947	-0.134766
780.0	8.083551	2.672154	10.613891	-0.967931	-6.107277	2.775921	-0.677734	0.106689	-0.091797
781.0	17.738987	-2.601636	10.036761	-0.125933	-6.858496	2.364771	-0.674072	0.119629	-0.044189
782.0	24.597395	2.673834	12.745895	1.837921	-6.454781	2.284483	-0.667969	0.130615	-0.014893
783.0	22.943466	7.79113	18.29445	0.35333	-5.959214	2.583119	-0.662109	0.150146	0.02124
784.0	19.669661	6.009948	16.385008	0.743242	-4.895796	2.497798	-0.656006	0.156738	0.043945
785.0	11.424913	14.393455	23.585963	0.411179	-2.99734	2.158257	-0.638916	0.16333	0.064209
786.0	3.518072	15.598661	19.86908	-0.94236	-1.608222	1.409769	-0.629883	0.158936	0.073486
787.0	3.246048	10.867304	14.781509	-1.339118	-0.665162	0.42798	-0.627197	0.150391	0.07373
788.0	0.804456	10.588382	12.390544	-1.147891	-0.282097	-0.320111	-0.61792	0.13501	0.080811
789.0	-1.719609	8.663627	9.499064	-1.154823	-0.248083	-0.722138	-0.617188	0.117676	0.083496
790.0	-0.910463	6.285842	9.669888	-1.320521	-0.22478	-0.952233	-0.609863	0.102295	0.08374
791.0	-0.519457	4.505783	9.906723	-0.903257	-0.003511	-1.08944	-0.598633	0.091553	0.081543
792.0	-0.337519	3.960577	10.320756	-0.685797	0.299446	-1.160178	-0.595703	0.076172	0.086426
793.0	-0.099514	3.991655	10.617622	-0.405371	0.69456	-1.187295	-0.593018	0.067627	0.08667
794.0	0.109792	3.946597	10.610635	-0.376965	1.119582	-1.162514	-0.583496	0.047852	0.08252
795.0	0.522709	3.577753	10.416863	-0.327607	1.57663	-1.14944	-0.580566	0.032715	0.080566
796.0	1.011468	3.048911	10.047238	-0.268177	2.044573	-1.15003	-0.573486	0.019531	0.078369
797.0	1.329029	2.866712	9.621452	-0.161227	2.484658	-1.172471	-0.572998	0.010986	0.06958
798.0	1.554362	2.766041	9.105028	-0.058157	2.854838	-1.205699	-0.565674	-0.006348	0.065186
799.0	1.889492	2.866757	8.673871	0.033737	3.145758	-1.254454	-0.563232	-0.017334	0.063232
800.0	2.400176	3.066818	8.558951	0.096721	3.37702	-1.322875	-0.560547	-0.02832	0.063477
801.0	2.799143	3.304649	8.591422	0.132356	3.567407	-1.408532	-0.56665	-0.037109	0.056885
802.0	3.256949	3.234115	8.723236	0.138301	3.721107	-1.503753	-0.570557	-0.045654	0.054688
803.0	3.850775	2.779784	8.897324	0.195044	3.84483	-1.582627	-0.574463	-0.056641	0.048096
804.0	4.472879	2.50466	9.136989	0.30267	3.973443	-1.644857	-0.580566	-0.06543	0.043701
805.0	5.147978	2.609402	9.645485	0.418021	4.082078	-1.665256	-0.600098	-0.067627	0.036865
806.0	5.970107	2.695449	10.089782	0.496342	4.174112	-1.669787	-0.609131	-0.063477	0.023193
807.0	6.645513	3.075517	10.569354	0.566377	4.27352	-1.691916	-0.62207	-0.065674	0.002686
808.0	7.251896	3.200897	11.078846	0.549907	4.319292	-1.715666	-0.63501	-0.065674	-0.029297
809.0	7.401915	2.531878	11.528492	0.613109	4.342296	-1.717322	-0.643799	-0.067871	-0.056396
810.0	7.586366	2.509817	12.095326	0.823859	4.340781	-1.688478	-0.637207	-0.067627	-0.099854
811.0	8.093241	2.511298	12.178165	0.938362	4.227724	-1.591132	-0.619873	-0.062988	-0.150146
812.0	9.670503	2.2202	12.898083	1.032838	4.098442	-1.44783	-0.579346	-0.045166	-0.18457
813.0	10.795945	1.901089	13.32976	1.227236	4.057289	-1.312538	-0.523926	-0.01416	-0.212646
814.0	10.608736	1.639456	12.812061	1.382502	3.921318	-1.158647	-0.473877	0.036377	-0.211426
815.0	11.585828	0.812344	12.728961	1.516636	3.632943	-0.970545	-0.4375	0.099854	-0.203613
816.0	14.371522	0.27085	13.441908	1.827803	3.366912	-0.837618	-0.420654	0.16333	-0.204834
817.0	19.050325	0.734108	14.787324	2.246941	3.331994	-0.768659	-0.423584	0.22876	-0.206055
818.0	23.819976	1.722318	15.873391	2.412796	3.61987	-0.755328	-0.434326	0.272217	-0.2229
819.0	26.323154	1.788606	14.840208	2.367881	4.123288	-0.734949	-0.439941	0.300781	-0.248535
820.0	25.688816	-0.787102	10.45708	2.082254	4.545471	-0.674307	-0.458252	0.320313	-0.287598
821.0	23.586103	-3.571581	5.140008	1.970441	4.533715	-0.581766	-0.467773	0.337891	-0.322266
822.0	21.60893	-5.556813	0.098973	1.845374	4.091054	-0.45316	-0.470215	0.340088	-0.356445
823.0	23.232645	-6.719285	-3.553531	1.493333	3.279211	-0.312486	-0.476563	0.340088	-0.392822
824.0	27.643095	-7.568444	-7.869366	1.066503	2.54606	-0.188852	-0.483643	0.348877	-0.422607
825.0	29.565405	-9.454311	-12.645242	0.414849	1.864323	-0.118263	-0.48584	0.351074	-0.440918
826.0	25.873855	-10.378885	-15.945354	0.155244	0.996356	-0.1363	-0.490967	0.366455	-0.46167
827.0	20.533319	-7.578701	-14.251656	-0.283859	-0.414238	-0.13402	-0.493652	0.377197	-0.466553
828.0	19.564322	-5.600172	-9.270669	-0.97825	-1.781703	-0.133994	-0.499268	0.405518	-0.460205
829.0	6.538599	0.075897	0.058079	-0.753529	-2.725188	-0.014269	-0.527344	0.446777	-0.454102
830.0	2.141373	1.053196	9.625066	-2.717797	-3.712468	0.244589	-0.532959	0.475098	-0.436523
831.0	-7.416089	4.585087	23.270167	-0.116685	-4.276837	0.161291	-0.554199	0.51001	-0.425781
832.0	3.058828	-4.366703	10.383541	-1.555057	-3.998846	1.211574	-0.564453	0.544678	-0.39917
833.0	15.278447	-13.132452	8.553823	-0.804012	-4.867008	1.400701	-0.566162	0.586182	-0.381592
834.0	22.053611	0.008196	20.833243	0.340502	-3.459351	1.350858	-0.55835	0.60791	-0.368408
835.0	15.364709	0.584491	14.712471	-0.065138	-2.371306	1.068083	-0.559814	0.640625	-0.357666
836.0	19.386113	11.228697	19.726239	0.010108	-2.429626	1.206998	-0.551758	0.653809	-0.348877
837.0	11.220371	7.587581	9.099593	-1.583	-0.565021	0.926825	-0.552246	0.666992	-0.340088
838.0	5.798046	3.599719	9.517641	-1.54374	-1.026809	0.836552	-0.548828	0.686523	-0.32666
839.0	6.652483	1.234911	9.964662	-1.459133	-0.694328	0.801372	-0.549072	0.690918	-0.312988
840.0	9.184117	3.222732	9.901789	-0.962889	-0.478374	0.688986	-0.542969	0.701904	-0.313232
841.0	6.543644	2.464387	8.609484	-1.034228	-0.098606	0.455407	-0.543457	0.710449	-0.304443
842.0	5.755483	1.8325	9.001431	-0.694731	-0.153601	0.381903	-0.539307	0.717041	-0.300049
843.0	6.207949	2.238822	8.886497	-0.624375	-0.05165	0.291605	-0.537109	0.717041	-0.300049
844.0	5.565083	1.513686	8.832899	-0.440509	0.007448	0.214761	-0.533203	0.723633	-0.300049
845.0	5.41522	2.438567	8.733136	-0.313781	0.01569	0.164623	-0.533203	0.723633	-0.293213
846.0	5.441078	1.808119	8.711432	-0.325059	0.005207	0.120706	-0.528809	0.72583	-0.295654
847.0	5.249077	2.04756	8.699949	-0.164918	-0.000309	0.072132	-0.5354	0.728027	-0.293457
848.0	5.179811	2.297593	8.681231	-0.149091	-0.018999	0.056763	-0.537842	0.732422	-0.286621
849.0	5.265893	2.221194	8.568816	-0.106667	-0.027283	0.042561	-0.5271	0.734619	-0.29126
850.0	5.268369	2.284616	8.5599	-0.066854	-0.034413	0.02569	-0.53125	0.730225	-0.286621
851.0	5.260598	2.623783	8.570313	-0.057352	-0.038533	0.023046	-0.531006	0.728027	-0.293457
852.0	5.291329	2.684939	8.520521	-0.065512	-0.0424	0.03554	-0.53125	0.730225	-0.288818
853.0	5.274069	2.819941	8.488566	-0.077018	-0.039748	0.052917	-0.535889	0.736816	-0.289063
854.0	5.279461	2.784067	8.492246	-0.117982	-0.038479	0.074817	-0.529297	0.736816	-0.284424
855.0	5.267033	2.549004	8.506941	-0.137679	-0.038506	0.086114	-0.531006	0.728027	-0.293457
856.0	5.261118	2.354428	8.461705	-0.141502	-0.039138	0.095055	-0.529297	0.736816	-0.284424
857.0	5.247454	2.201896	8.553793	-0.118642	-0.046555	0.085457	-0.525146	0.741211	-0.286865
858.0	5.205436	2.277213	8.481608	-0.111947	-0.049879	0.075191	-0.522949	0.743408	-0.291504
859.0	5.264773	2.373137	8.564036	-0.089665	-0.056478	0.078267	-0.527344	0.743408	-0.284424
860.0	5.258009	2.401511	8.490226	-0.095965	-0.059762	0.08269	-0.525146	0.739014	-0.282227
861.0	5.237253	2.504021	8.428496	-0.106063	-0.054142	0.09101	-0.527344	0.743164	-0.280029
862.0	5.305648	2.421766	8.477081	-0.117463	-0.059502	0.099756	-0.525391	0.745361	-0.280029
863.0	5.259188	2.367321	8.562744	-0.105699	-0.062134	0.103551	-0.529785	0.747559	-0.275391
864.0	5.254111	2.223703	8.508162	-0.111037	-0.069433	0.103107	-0.523193	0.747559	-0.277832
865.0	5.283311	2.234753	8.517234	-0.104818	-0.085307	0.108686	-0.525391	0.747559	-0.282471
866.0	5.333883	2.174981	8.547043	-0.098547	-0.090821	0.102368	-0.531982	0.747559	-0.275391
867.0	5.324221	2.184414	8.527696	-0.089116	-0.108577	0.098034	-0.531982	0.747559	-0.280029
868.0	5.336058	2.171993	8.523469	-0.078954	-0.118703	0.09922	-0.527588	0.745361	-0.273193
869.0	5.375696	2.131242	8.480594	-0.082904	-0.1324	0.094893	-0.531982	0.747559	-0.268555
870.0	5.389787	2.104969	8.564944	-0.069005	-0.141909	0.087029	-0.527588	0.745361	-0.270996
871.0	5.410328	2.064665	8.507119	-0.063165	-0.149667	0.084613	-0.520752	0.741211	-0.266357
872.0	5.404838	2.102434	8.481597	-0.05683	-0.158974	0.07639	-0.523438	0.749756	-0.273193
873.0	5.401313	2.174246	8.540482	-0.057998	-0.172744	0.072721	-0.527832	0.751953	-0.266357
874.0	5.437013	2.060168	8.467915	-0.063535	-0.185005	0.072251	-0.518799	0.745361	-0.26416
875.0	5.4288	2.080417	8.496588	-0.041965	-0.207924	0.072472	-0.52124	0.751953	-0.266602
876.0	5.312963	1.858881	8.537065	-0.021022	-0.234269	0.078484	-0.521484	0.75415	-0.261963
877.0	5.114592	2.3449	8.735749	0.034386	-0.285212	0.083583	-0.523682	0.758545	-0.261963
878.0	5.145265	1.790646	8.632716	-0.056831	-0.377414	0.086585	-0.523682	0.756348	-0.259766
879.0	5.311734	2.261323	8.729659	0.001414	-0.435314	0.085842	-0.521484	0.758545	-0.261963
880.0	5.464546	1.816078	8.47376	0.019721	-0.508778	0.074011	-0.523682	0.758545	-0.25293
881.0	5.239179	2.038106	8.682511	0.038618	-0.591287	0.061563	-0.523682	0.756348	-0.250732
882.0	5.303016	2.436182	8.694787	0.053055	-0.691615	0.070897	-0.521484	0.756348	-0.243896
883.0	5.286068	2.445936	8.746032	0.04304	-0.789269	0.104754	-0.528076	0.758545	-0.241455
884.0	5.218519	2.547676	8.745127	0.045656	-0.920808	0.132031	-0.523682	0.758545	-0.230225
885.0	5.211854	2.36866	8.880187	0.054042	-1.092165	0.164962	-0.530518	0.764893	-0.230225
886.0	5.062883	2.311803	8.986582	0.072807	-1.294943	0.189384	-0.528076	0.756348	-0.227783
887.0	4.924339	2.367679	9.205929	0.097547	-1.536717	0.219539	-0.534668	0.758301	-0.211914
888.0	4.633932	2.466729	9.564334	0.103254	-1.856343	0.272603	-0.530518	0.764893	-0.205078
889.0	4.580889	2.83333	9.67925	0.119249	-2.244521	0.331449	-0.539063	0.758301	-0.198242
890.0	4.781124	3.962098	9.62413	0.100749	-2.61291	0.493089	-0.534912	0.764893	-0.182373
891.0	4.658077	3.980819	10.286737	-0.060519	-3.077347	0.748017	-0.534668	0.760498	-0.157227
892.0	4.645074	4.085811	10.591625	-0.141469	-3.617266	1.012454	-0.532715	0.764648	-0.145996
893.0	4.387473	5.651314	11.111122	-0.272932	-4.191948	1.386033	-0.530762	0.77124	-0.118652
894.0	4.271433	5.510998	11.520178	-0.761396	-4.833449	1.862777	-0.524658	0.782227	-0.09375
895.0	4.706957	4.88546	11.320168	-0.963337	-5.358666	2.376523	-0.514404	0.795166	-0.057617
896.0	5.885751	3.488724	10.11336	-1.43467	-5.857743	2.794986	-0.495361	0.806152	-0.012207
897.0	8.846363	2.567091	11.683714	-1.023957	-6.589604	2.841786	-0.485107	0.821289	0.026123
898.0	16.358245	-0.636669	13.257774	-0.428995	-7.599693	2.512476	-0.467773	0.825684	0.055664
899.0	29.039802	6.286073	15.289358	0.968207	-7.259828	2.531593	-0.452393	0.821289	0.089844
900.0	27.409787	4.78634	16.253501	-0.187547	-6.67039	2.699338	-0.449707	0.810303	0.119629
901.0	23.769541	9.040474	23.435626	1.392032	-5.142735	2.413181	-0.452881	0.786377	0.124756
902.0	10.073178	15.785372	24.935894	0.635762	-2.662031	2.017274	-0.475586	0.757813	0.138916
903.0	2.516461	20.647879	21.960479	-1.321553	-1.191807	1.503053	-0.50293	0.733643	0.166992
904.0	2.041669	9.875026	15.864547	-2.876776	-0.359899	0.836131	-0.542969	0.702637	0.181152
905.0	-2.267452	6.124716	11.629098	-1.859308	0.134803	0.266117	-0.570068	0.671875	0.190918
906.0	-4.141713	4.114747	8.228234	-1.35686	0.022319	-0.041045	-0.603516	0.643311	0.189209
907.0	-2.076808	4.362273	9.2921	-0.793189	0.101779	-0.204626	-0.635254	0.619141	0.180664
908.0	-1.185689	5.464318	9.83788	-0.351463	0.463614	-0.286503	-0.671143	0.592773	0.165283
909.0	-1.491791	6.681093	9.939069	-0.392101	0.867184	-0.362587	-0.693848	0.564453	0.140869
910.0	-1.261525	6.162287	9.667729	-0.431143	1.279118	-0.489723	-0.723145	0.535889	0.107178
911.0	-0.764999	5.484792	9.428698	-0.388017	1.696134	-0.675927	-0.739502	0.511963	0.06665
912.0	-0.058465	4.798518	9.172459	-0.242491	2.130529	-0.888943	-0.76416	0.476807	0.026367
913.0	0.641118	4.615839	9.08295	-0.09696	2.541798	-1.079639	-0.749756	0.44873	-0.025391
914.0	1.470405	4.655582	9.055927	-0.028908	2.922868	-1.209845	-0.737305	0.411865	-0.088623
915.0	2.306568	4.287336	8.841872	-0.032895	3.274585	-1.307517	-0.709961	0.388184	-0.138428
916.0	2.829141	3.844434	8.505023	0.01013	3.574628	-1.368677	-0.658691	0.364502	-0.16748
917.0	3.125457	3.509559	8.111086	0.08925	3.797503	-1.416278	-0.614258	0.345215	-0.189941
918.0	3.425643	3.399241	7.974566	0.195072	3.94574	-1.457441	-0.563965	0.343506	-0.19458
919.0	3.931	3.218203	8.203707	0.283468	4.047976	-1.500343	-0.5354	0.336914	-0.17627
920.0	4.700464	2.552121	8.618466	0.431458	4.150977	-1.542091	-0.510986	0.326172	-0.157959
921.0	5.491552	2.446816	9.138514	0.64398	4.273795	-1.549984	-0.521484	0.317383	-0.12793
922.0	6.191013	2.543058	9.63642	0.804705	4.403572	-1.53603	-0.544189	0.291016	-0.115967
923.0	6.96134	2.948827	10.309263	0.899249	4.513327	-1.507641	-0.568848	0.255859	-0.104004
924.0	7.579889	3.330662	10.976937	0.968939	4.614347	-1.530641	-0.586182	0.205566	-0.103027
925.0	8.062206	3.705754	11.603264	0.974238	4.684636	-1.598454	-0.614746	0.159424	-0.106689
926.0	8.377756	3.380706	12.088649	0.993649	4.709135	-1.676265	-0.63208	0.109131	-0.112305
927.0	8.536288	2.798951	12.543023	1.101151	4.663371	-1.759115	-0.655762	0.056641	-0.113525
928.0	8.905562	2.330429	12.950141	1.244144	4.540194	-1.770434	-0.671387	0.012939	-0.11499
929.0	9.642627	1.327656	13.363019	1.398203	4.339823	-1.712947	-0.691406	-0.028564	-0.125488
930.0	10.766677	0.540511	13.896768	1.519875	4.117569	-1.564597	-0.704834	-0.065674	-0.147705
931.0	11.822864	-0.391595	13.742413	1.645059	3.84988	-1.32816	-0.712158	-0.098389	-0.16748
932.0	14.271232	-1.726901	13.683505	1.784296	3.490607	-1.052015	-0.719727	-0.126953	-0.180664
933.0	18.875354	-1.348332	14.272978	2.119954	3.287051	-0.842719	-0.725342	-0.144287	-0.198486
934.0	23.081027	0.492065	14.598825	2.202826	3.370865	-0.71908	-0.718018	-0.161621	-0.225586
935.0	25.855701	2.31931	13.106328	1.960801	3.576954	-0.667562	-0.71582	-0.163818	-0.255127
936.0	27.117933	1.912015	10.117235	1.45394	3.702264	-0.662219	-0.709229	-0.163574	-0.291504
937.0	27.602771	-1.521648	5.422542	1.112373	3.777273	-0.745406	-0.698486	-0.161377	-0.330322
938.0	26.384621	-4.230207	0.544026	1.185911	3.649073	-0.892123	-0.683105	-0.16333	-0.357666
939.0	25.058777	-6.272171	-4.11072	1.090593	3.233801	-0.946843	-0.67627	-0.169678	-0.391846
940.0	27.209017	-9.622668	-8.679991	0.74287	2.539539	-0.892562	-0.654785	-0.165039	-0.407715
941.0	28.594837	-11.076046	-12.695982	0.632372	1.889449	-0.795566	-0.650146	-0.167236	-0.423828
942.0	26.53156	-10.818552	-14.694474	0.079913	1.067026	-0.646976	-0.645752	-0.171631	-0.432861
943.0	22.688814	-9.472291	-13.519655	-0.589935	-0.106085	-0.438356	-0.643799	-0.167236	-0.430664
944.0	21.44048	-8.597958	-9.100288	-1.260137	-1.265366	-0.228024	-0.650391	-0.162842	-0.426025
945.0	13.47626	-7.995734	-3.243118	-1.270373	-1.625019	0.062035	-0.659424	-0.156494	-0.412598
946.0	5.143031	-4.059936	8.13888	-0.99754	-3.320339	0.462098	-0.672607	-0.154297	-0.39209
947.0	-22.057953	5.997778	22.654933	0.511387	-3.32474	1.162532	-0.688477	-0.141357	-0.367188
948.0	3.411962	-4.030605	13.425882	-1.759528	-4.10628	2.247664	-0.706543	-0.126465	-0.335693
949.0	12.093404	-5.248037	4.968408	0.553513	-4.881337	2.127334	-0.722168	-0.120117	-0.303711
950.0	27.152202	5.298916	20.361773	-0.070348	-3.785876	1.559804	-0.733643	-0.104736	-0.285889
951.0	17.665475	6.818216	16.518545	-0.152058	-2.447952	1.010384	-0.734131	-0.096191	-0.274658
952.0	17.970255	8.151023	17.996621	-0.548806	-2.390204	1.180136	-0.740723	-0.093994	-0.258789
953.0	11.828734	6.994235	10.745515	-1.517948	-0.582096	0.938074	-0.746094	-0.074463	-0.259033
954.0	4.357201	2.004337	8.828828	-1.591772	-1.103515	0.852329	-0.750732	-0.067871	-0.259277
955.0	6.998212	0.673967	10.380416	-1.335735	-0.851685	0.83744	-0.750977	-0.061523	-0.250244
956.0	9.244328	3.782475	9.686565	-0.94809	-0.553839	0.68787	-0.749268	-0.04834	-0.248291
957.0	7.648076	2.744953	8.785513	-1.107116	-0.136664	0.480219	-0.749512	-0.046143	-0.250488
958.0	5.749419	1.055423	9.327928	-0.742625	-0.217994	0.402373	-0.749512	-0.041748	-0.248291
959.0	6.329232	1.388567	8.710676	-0.535352	-0.01819	0.277344	-0.754395	-0.035156	-0.248535
960.0	5.684234	1.574989	9.098574	-0.443878	0.014777	0.190825	-0.749756	-0.041748	-0.25293
961.0	5.698941	2.258801	8.813686	-0.263946	0.045144	0.134184	-0.756348	-0.035156	-0.246094
962.0	5.340125	2.147373	8.789312	-0.303824	0.044795	0.113639	-0.75	-0.032959	-0.25293
963.0	5.325489	1.709193	8.8684	-0.230642	0.03918	0.083613	-0.750244	-0.026367	-0.253174
964.0	5.211862	1.866566	8.712022	-0.125735	0.026557	0.05182	-0.747803	-0.035156	-0.25293
965.0	5.21844	2.284251	8.608549	-0.095499	0.017569	0.040209	-0.752441	-0.026367	-0.255371
966.0	5.251598	2.684641	8.556208	-0.105727	0.018361	0.04861	-0.752441	-0.028564	-0.253174
967.0	5.251383	2.865331	8.537286	-0.13126	0.02279	0.069541	-0.754639	-0.028564	-0.257568
968.0	5.259863	2.768173	8.498126	-0.189135	0.0262	0.098587	-0.748291	-0.02417	-0.257813
969.0	5.294313	2.744392	8.499527	-0.21875	0.034207	0.118451	-0.752441	-0.026367	-0.253174
970.0	5.239706	2.546183	8.519506	-0.270182	0.051424	0.140274	-0.746094	-0.021973	-0.26001
971.0	5.243917	2.324686	8.584463	-0.282789	0.050678	0.14647	-0.752686	-0.02002	-0.257813
972.0	5.270243	2.167117	8.567159	-0.276348	0.055224	0.149191	-0.752686	-0.022217	-0.253174
973.0	5.221405	2.260591	8.588744	-0.261674	0.058282	0.151463	-0.748779	-0.013428	-0.258057
974.0	5.185252	2.182836	8.608322	-0.252876	0.060337	0.154202	-0.750977	-0.013428	-0.260254
975.0	5.195653	1.956653	8.616373	-0.253417	0.053895	0.151145	-0.748779	-0.013428	-0.255615
976.0	5.221409	1.87586	8.588982	-0.217775	0.057135	0.144599	-0.746826	-0.009033	-0.260254
977.0	5.266797	1.798514	8.574992	-0.210298	0.052579	0.133421	-0.750977	-0.013428	-0.260254
978.0	5.26451	1.775497	8.581189	-0.172311	0.052981	0.11748	-0.744629	-0.006836	-0.260498
979.0	5.253772	1.760952	8.640331	-0.151156	0.045397	0.10003	-0.749023	-0.009033	-0.255859
980.0	5.2436	1.955907	8.557931	-0.143812	0.053468	0.097265	-0.753418	-0.006836	-0.255859
981.0	5.278768	1.996737	8.675161	-0.143888	0.053379	0.09711	-0.749268	-0.002441	-0.260498
982.0	5.224459	1.947138	8.586841	-0.149373	0.054723	0.098157	-0.751221	-0.004639	-0.253662
983.0	5.235467	1.903296	8.574756	-0.140517	0.051866	0.096652	-0.753174	-0.013428	-0.255615
984.0	5.183104	1.792275	8.61327	-0.138961	0.036964	0.091151	-0.753662	-0.002441	-0.253662
985.0	5.219532	1.809719	8.731102	-0.119687	0.020264	0.084807	-0.753418	-0.004639	-0.255859
986.0	5.190162	1.86213	8.64597	-0.113719	0.012659	0.082719	-0.749023	-0.009033	-0.253418
987.0	5.239741	1.869054	8.621293	-0.11314	0.006652	0.086585	-0.749023	-0.004639	-0.253662
988.0	5.20635	1.93607	8.710753	-0.113961	-0.010385	0.086065	-0.744873	-0.002441	-0.262695
989.0	5.195424	1.819321	8.651921	-0.110546	-0.016466	0.090735	-0.74707	-0.002441	-0.255859
990.0	5.156303	1.810687	8.712165	-0.110502	-0.024924	0.093723	-0.74292	0.00415	-0.258301
991.0	5.144051	1.893237	8.690579	-0.102204	-0.04814	0.099552	-0.751709	0.00415	-0.260498
992.0	5.166248	2.029605	8.746725	-0.10455	-0.058665	0.112197	-0.745117	0.001953	-0.256104
993.0	5.184464	2.057787	8.688177	-0.123627	-0.075774	0.130517	-0.747559	0.010742	-0.253906
994.0	5.123288	2.024413	8.787244	-0.133526	-0.094412	0.15025	-0.745605	0.012939	-0.253906
995.0	5.274444	1.799038	8.721607	-0.15154	-0.132539	0.160258	-0.751953	0.008545	-0.249268
996.0	5.072538	2.195232	8.972699	-0.129136	-0.164763	0.172847	-0.751953	0.008545	-0.249268
997.0	4.965653	2.005724	8.98159	-0.190578	-0.216954	0.196277	-0.751953	0.012695	-0.24707
998.0	4.865739	1.799243	9.199448	-0.267242	-0.302134	0.199746	-0.75	0.012695	-0.24707
999.0	4.701356	0.997945	8.968052	-0.314139	-0.410852	0.192008	-0.754639	0.023682	-0.242676
1000.0	4.567553	1.77223	9.552195	-0.137876	-0.598574	0.192418	-0.754639	0.021484	-0.240479
1001.0	4.501992	1.582892	9.593194	-0.251502	-0.806671	0.215943	-0.754639	0.019287	-0.233643
1002.0	4.282591	2.130712	10.030169	-0.206152	-1.072484	0.236843	-0.754883	0.025879	-0.224609
1003.0	4.060928	2.534853	10.531925	-0.259254	-1.416498	0.291965	-0.759277	0.027832	-0.210938
1004.0	4.38481	3.306865	10.812118	-0.367972	-1.806796	0.383598	-0.757568	0.036621	-0.199707
1005.0	4.325481	3.624909	11.476221	-0.653475	-2.151163	0.567237	-0.766113	0.034424	-0.183594
1006.0	4.230299	3.893379	11.96393	-0.935248	-2.582208	0.793958	-0.766602	0.047363	-0.170166
1007.0	3.551894	4.261791	12.1478	-1.292824	-3.080621	1.168451	-0.760742	0.060547	-0.145508
1008.0	3.427441	4.281635	12.399426	-1.625965	-3.781545	1.709752	-0.763672	0.075684	-0.118408
1009.0	2.866447	3.370434	12.143458	-1.859907	-4.583635	2.26476	-0.762695	0.101807	-0.08252
1010.0	2.856045	3.484782	11.507627	-1.650588	-5.339657	2.874743	-0.75708	0.123535	-0.039551
1011.0	2.574495	5.063935	11.070167	-1.749135	-6.222352	3.439769	-0.751709	0.151855	0.01001
1012.0	8.029619	3.126606	11.427086	-2.019611	-7.048688	3.635547	-0.735596	0.180176	0.05957
1013.0	16.247002	-1.162343	13.01809	-1.281408	-7.400702	3.278728	-0.717041	0.208496	0.104492
1014.0	33.77131	4.484218	15.345578	0.486637	-7.088855	2.992864	-0.693848	0.22168	0.1521
1015.0	27.118017	8.093764	22.79759	-0.741837	-5.902401	3.020412	-0.67749	0.25	0.18335
1016.0	16.485708	11.453963	26.016527	-0.169584	-4.091596	2.413934	-0.660645	0.260986	0.199219
1017.0	1.875208	17.628879	24.135728	-1.251079	-2.273266	1.308141	-0.647705	0.265381	0.210449
1018.0	1.683002	7.548118	10.872805	-2.014333	-1.138786	-0.241543	-0.645508	0.263184	0.210449
1019.0	-1.206434	15.956758	11.697129	-0.771832	-0.905824	-1.138332	-0.640625	0.252441	0.212891
1020.0	-1.036318	8.460755	8.464591	-2.568456	-1.379322	-1.429622	-0.640137	0.243652	0.226807
1021.0	1.525297	3.918264	10.556565	-1.544981	-0.910232	-1.706994	-0.64209	0.237061	0.231445
1022.0	0.460665	3.227449	10.787583	-1.023121	-0.403848	-1.819512	-0.637451	0.228271	0.229492
1023.0	-0.682494	3.820116	10.566005	-0.619439	0.014198	-1.740579	-0.641113	0.217529	0.229736
1024.0	-0.6516	3.043128	10.341391	-0.609088	0.42907	-1.565568	-0.645264	0.213135	0.220703
1025.0	-0.523139	2.3223	9.771886	-0.447868	0.923136	-1.373099	-0.649658	0.210938	0.207031
1026.0	-0.714716	1.527528	8.774138	-0.202925	1.403867	-1.24335	-0.649658	0.20874	0.202393
1027.0	-0.889345	2.032001	8.120593	0.026492	1.791565	-1.155139	-0.662598	0.206543	0.195557
1028.0	-0.619757	2.366476	7.674677	0.170416	2.092289	-1.114276	-0.666748	0.204346	0.175293
1029.0	-0.006992	2.84223	7.669831	0.238403	2.345282	-1.124979	-0.666748	0.204346	0.156982
1030.0	0.669003	3.140745	7.797407	0.298641	2.589765	-1.187554	-0.67334	0.206543	0.138672
1031.0	1.455236	3.434737	8.033409	0.340943	2.803012	-1.297693	-0.679932	0.206543	0.120605
1032.0	2.377832	3.82088	8.474512	0.391383	3.037041	-1.451348	-0.69043	0.197754	0.100098
1033.0	2.872236	3.778687	8.587885	0.374135	3.267325	-1.603518	-0.699463	0.202148	0.081787
1034.0	3.26693	3.282948	8.663834	0.372287	3.458464	-1.726629	-0.705566	0.191162	0.059326
1035.0	3.690871	2.639141	8.78079	0.439441	3.624903	-1.816948	-0.718506	0.191162	0.03418
1036.0	4.370553	2.062686	9.264816	0.548507	3.778357	-1.8604	-0.731201	0.18042	0.016113
1037.0	5.114331	1.945411	9.866947	0.694435	3.945289	-1.858087	-0.744141	0.178223	-0.013428
1038.0	5.948874	2.0867	10.721863	0.782035	4.112627	-1.814368	-0.759277	0.176025	-0.045166
1039.0	6.686896	2.150929	11.429557	0.875298	4.275047	-1.76376	-0.765625	0.169434	-0.081543
1040.0	7.226981	2.058326	11.918363	0.954698	4.398551	-1.715172	-0.782959	0.165039	-0.115479
1041.0	7.615326	2.082032	12.368771	1.080529	4.472542	-1.654772	-0.784912	0.160645	-0.149658
1042.0	7.761834	1.698145	12.557287	1.187393	4.434718	-1.560761	-0.793701	0.160889	-0.188477
1043.0	8.596857	0.915875	13.330402	1.340711	4.285012	-1.457248	-0.79834	0.16748	-0.231934
1044.0	10.804367	0.026605	14.714846	1.592359	4.185328	-1.316865	-0.798096	0.165283	-0.268311
1045.0	11.55627	-0.176983	15.038711	1.825151	4.214355	-1.114088	-0.793945	0.169922	-0.311768
1046.0	10.964673	-1.0541	14.387717	1.81264	4.040491	-0.808253	-0.791748	0.169922	-0.352783
1047.0	11.589329	-2.107378	14.035277	1.876076	3.633167	-0.453618	-0.791992	0.172363	-0.398438
1048.0	15.305595	-2.560719	15.445654	1.969377	3.236027	-0.198979	-0.787598	0.172363	-0.439453
1049.0	20.007649	-1.455361	16.928771	2.182749	3.148471	-0.083709	-0.772461	0.172607	-0.496338
1050.0	25.296671	-0.788034	17.597148	2.056995	3.425638	-0.065338	-0.749756	0.157715	-0.539307
1051.0	27.569264	-0.793556	14.997928	1.976049	4.017032	-0.112579	-0.7229	0.140381	-0.586914
1052.0	26.500644	-2.296081	9.032766	1.725056	4.366428	-0.150637	-0.698242	0.123291	-0.632324
1053.0	23.776225	-5.053414	2.128912	1.663717	4.253875	-0.227013	-0.662598	0.106201	-0.672852
1054.0	22.702221	-8.050165	-3.578505	1.719781	3.595909	-0.310549	-0.637451	0.080078	-0.69751
1055.0	25.899514	-9.811539	-7.766425	1.658116	2.73851	-0.328941	-0.610107	0.054199	-0.719971
1056.0	29.378992	-11.604775	-12.195086	1.245725	1.986274	-0.376458	-0.592041	0.043457	-0.726563
1057.0	28.314039	-11.668747	-14.87834	0.713779	1.266483	-0.479683	-0.583008	0.032471	-0.737793
1058.0	21.953018	-10.094069	-14.413222	-0.359617	0.084223	-0.454192	-0.585205	0.034668	-0.737793
1059.0	18.09136	-10.377985	-16.892278	-1.530714	-2.581896	0.252471	-0.598877	0.047607	-0.719727
1060.0	-6.866395	-12.462348	-8.895172	-1.604905	-3.248747	0.960108	-0.627686	0.060547	-0.692627
1061.0	8.560951	-1.4723	28.809464	-0.699864	-5.37155	0.941668	-0.652344	0.073486	-0.667725
1062.0	7.376346	-0.761476	17.114007	0.030443	-3.712849	1.978248	-0.666016	0.086426	-0.6521
1063.0	12.254458	-6.154263	4.107507	-0.35554	-4.244749	1.867973	-0.69043	0.094971	-0.620361
1064.0	22.422198	8.207368	19.11233	0.916488	-3.927941	1.157397	-0.712158	0.096924	-0.597412
1065.0	26.316903	11.238922	22.759393	-0.269181	-2.861368	1.175604	-0.718994	0.103271	-0.588623
1066.0	14.584446	5.256003	13.144912	-1.600777	-0.585472	0.928346	-0.717529	0.116455	-0.582031
1067.0	4.466973	1.752864	9.203114	-1.10086	-1.310139	0.787579	-0.722656	0.133789	-0.575439
1068.0	6.605276	1.930498	9.880785	-1.093595	-0.7521	0.79163	-0.725098	0.140381	-0.571045
1069.0	5.745918	8.020199	8.842406	-0.937174	-0.730553	0.83178	-0.730225	0.155518	-0.562256
1070.0	9.897582	1.575868	10.289651	-2.010883	-0.556667	0.841956	-0.72168	0.162109	-0.564697
1071.0	6.266722	-0.397186	8.595646	-0.790151	0.017245	0.579698	-0.724609	0.17749	-0.560303
1072.0	6.471941	3.126586	9.38825	-0.824381	-0.043729	0.501234	-0.720459	0.181885	-0.555908
1073.0	6.032711	1.310477	9.04016	-0.853816	0.047199	0.420197	-0.716553	0.192871	-0.562988
1074.0	5.808018	0.57687	8.612613	-0.496184	0.139399	0.296323	-0.720703	0.190674	-0.562988
1075.0	5.551714	2.189497	8.956922	-0.446098	0.130491	0.216268	-0.71875	0.195068	-0.562988
1076.0	5.318142	1.314409	8.635827	-0.348247	0.110116	0.164212	-0.717041	0.203613	-0.558594
1077.0	5.144837	1.978204	8.709236	-0.252894	0.090455	0.116827	-0.715088	0.205811	-0.558594
1078.0	5.073057	2.196636	8.699119	-0.208185	0.068213	0.096459	-0.717041	0.201416	-0.560791
1079.0	5.145691	2.080247	8.529978	-0.17862	0.050522	0.081796	-0.717285	0.208008	-0.561035
1080.0	5.17574	2.567831	8.437249	-0.121657	0.047103	0.077287	-0.712891	0.208008	-0.558594
1081.0	5.171383	2.813895	8.378585	-0.17225	0.036373	0.09527	-0.715088	0.210205	-0.561035
1082.0	5.32569	2.513212	8.533999	-0.203777	0.04074	0.114041	-0.717285	0.210205	-0.558594
1083.0	5.242837	2.144677	8.521315	-0.199653	0.0428	0.112454	-0.717529	0.2146	-0.558838
1084.0	5.23829	2.204554	8.607164	-0.189421	0.042386	0.113541	-0.715332	0.212402	-0.561035
1085.0	5.133752	2.088709	8.638875	-0.177579	0.035693	0.11104	-0.717773	0.218994	-0.556641
1086.0	5.188591	2.489204	8.697711	-0.185247	0.031673	0.124869	-0.711182	0.218994	-0.556641
1087.0	5.182496	2.088733	8.620475	-0.201825	0.035226	0.139723	-0.715576	0.221191	-0.558838
1088.0	5.208897	1.889981	8.604399	-0.19922	0.024906	0.131151	-0.711182	0.221191	-0.563477
1089.0	5.20296	1.778532	8.706545	-0.181133	0.029966	0.125867	-0.711426	0.225586	-0.559082
1090.0	5.219188	1.625439	8.615758	-0.153927	0.023523	0.113054	-0.707275	0.22998	-0.561279
1091.0	5.240647	1.7299	8.622305	-0.140215	0.029308	0.091846	-0.709473	0.227783	-0.563721
1092.0	5.296828	1.882982	8.619709	-0.139274	0.033903	0.088586	-0.71167	0.232178	-0.559082
1093.0	5.271224	1.911304	8.571399	-0.132297	0.049149	0.084574	-0.713867	0.22998	-0.561279
1094.0	5.257632	1.851639	8.634854	-0.141682	0.059069	0.084457	-0.713867	0.227783	-0.561279
1095.0	5.219818	1.83656	8.645548	-0.136513	0.061063	0.080163	-0.711914	0.236572	-0.556885
1096.0	5.215195	1.772698	8.655181	-0.123449	0.050604	0.073193	-0.714111	0.234375	-0.556885
1097.0	5.167848	1.740311	8.720552	-0.121847	0.049134	0.069255	-0.713867	0.22998	-0.556885
1098.0	5.162698	1.821697	8.682222	-0.09837	0.0384	0.063794	-0.71167	0.232178	-0.554688
1099.0	5.224825	1.828623	8.639825	-0.104179	0.028675	0.057703	-0.713867	0.232178	-0.559082
1100.0	5.223492	1.816715	8.643142	-0.102818	0.026105	0.055771	-0.705078	0.22998	-0.559082
1101.0	5.160946	1.858961	8.685765	-0.102121	0.011631	0.058162	-0.70752	0.234375	-0.559082
1102.0	5.131655	1.826854	8.728937	-0.10066	0.000716	0.059422	-0.70752	0.236572	-0.561523
1103.0	5.062777	1.72052	8.747861	-0.099922	-0.027098	0.060419	-0.707764	0.23877	-0.563721
1104.0	5.011027	1.766031	8.821155	-0.086082	-0.06511	0.059344	-0.701172	0.236572	-0.559326
1105.0	5.012562	1.680533	8.789936	-0.071909	-0.11036	0.059439	-0.710205	0.24292	-0.559326
1106.0	5.19317	1.734806	8.719456	-0.065161	-0.159091	0.057029	-0.70752	0.236572	-0.554688
1107.0	5.099182	1.913898	8.853962	-0.035822	-0.200397	0.04854	-0.707764	0.23877	-0.55249
1108.0	5.080062	1.777527	8.736829	-0.055912	-0.231099	0.054017	-0.709961	0.238525	-0.547852
1109.0	5.01287	2.060479	8.962954	-0.065567	-0.284238	0.053	-0.707764	0.240723	-0.55249
1110.0	4.814061	2.064828	9.054645	-0.117715	-0.334496	0.061143	-0.712402	0.245117	-0.543457
1111.0	5.032924	2.014682	8.994397	-0.167954	-0.410243	0.077218	-0.714355	0.24292	-0.547852
1112.0	4.653552	1.410663	9.120665	-0.097412	-0.513275	0.105864	-0.717041	0.253906	-0.539063
1113.0	4.892152	1.957486	9.200828	-0.180555	-0.640739	0.125392	-0.718994	0.249512	-0.532227
1114.0	4.857991	1.805638	9.318843	-0.096162	-0.785935	0.143048	-0.72583	0.251465	-0.522949
1115.0	4.821181	1.846969	9.367741	-0.140576	-0.965408	0.156627	-0.72583	0.253662	-0.516357
1116.0	4.908986	2.154171	9.423669	-0.101027	-1.178852	0.169554	-0.732178	0.251465	-0.50708
1117.0	4.652088	2.248236	9.773565	-0.177821	-1.431376	0.205712	-0.740967	0.253662	-0.495605
1118.0	4.544049	2.631052	10.220178	-0.223902	-1.731573	0.240594	-0.747803	0.26001	-0.486816
1119.0	4.988099	3.663747	10.304145	-0.40305	-2.040869	0.354359	-0.754395	0.26001	-0.466309
1120.0	4.739836	4.149603	10.7328	-0.69485	-2.274301	0.626621	-0.758789	0.261963	-0.452637
1121.0	4.664776	3.919165	11.124148	-0.989186	-2.639463	0.91884	-0.770508	0.277344	-0.429932
1122.0	4.313908	4.047515	11.4777	-1.261883	-2.977504	1.291187	-0.773193	0.288086	-0.395996
1123.0	3.62991	3.805383	11.467976	-1.53858	-3.52927	1.744851	-0.775879	0.301025	-0.368896
1124.0	3.528415	2.888402	11.321727	-1.700867	-4.195496	2.19067	-0.785889	0.327148	-0.333008
1125.0	3.183409	3.280046	10.493268	-1.543596	-4.915111	2.670653	-0.788574	0.342285	-0.2854
1126.0	3.554165	3.807678	10.041801	-1.8523	-5.744707	3.086726	-0.789551	0.36377	-0.229004
1127.0	6.168539	1.300102	10.116775	-1.846512	-6.520167	3.260129	-0.784424	0.394287	-0.174805
1128.0	10.972125	-1.13499	11.211866	-1.459869	-7.147114	3.131476	-0.780518	0.407227	-0.118164
1129.0	24.267646	1.426184	13.956523	0.233132	-7.445655	2.71396	-0.770508	0.424805	-0.063721
1130.0	29.400851	5.132219	16.725536	-0.758626	-6.542769	3.041053	-0.757813	0.435547	-0.013916
1131.0	23.76832	7.200148	19.503172	-0.462162	-5.737507	2.968625	-0.740967	0.446533	0.02002
1132.0	15.676388	13.134919	26.757531	-0.693555	-4.186539	2.206887	-0.727783	0.446533	0.052002
1133.0	5.875938	16.04355	24.373472	-1.042765	-1.985482	0.868621	-0.72998	0.444336	0.065674
1134.0	2.373051	13.809927	15.207775	-1.761377	-0.590038	-0.548056	-0.727051	0.426758	0.070557
1135.0	-0.107684	12.531353	11.864894	-1.902543	-0.348688	-1.375836	-0.740967	0.400391	0.089355
1136.0	-3.652051	7.644048	8.390612	-2.131396	-0.610729	-1.730835	-0.741943	0.37207	0.099121
1137.0	-0.688164	2.077406	9.546369	-1.777203	-0.632859	-1.937506	-0.74292	0.348145	0.113281
1138.0	0.186601	1.341629	11.236975	-0.570441	-0.197898	-1.966402	-0.753174	0.328369	0.118164
1139.0	-0.249617	2.411823	11.928221	-0.260845	0.295471	-1.758154	-0.749756	0.304443	0.114014
1140.0	-0.624649	2.757391	11.784306	-0.139435	0.80954	-1.452389	-0.758057	0.295654	0.116455
1141.0	-0.738642	1.656131	10.940357	-0.167521	1.31084	-1.162085	-0.763916	0.275879	0.103271
1142.0	-0.54944	0.946424	10.248443	0.107895	1.808254	-0.982146	-0.776123	0.260498	0.087646
1143.0	-0.144858	1.263353	9.760645	0.422834	2.265851	-0.906741	-0.773682	0.251953	0.081055
1144.0	0.36363	2.364215	9.625705	0.604038	2.680175	-0.894145	-0.783936	0.240967	0.05835
1145.0	1.046474	3.097448	9.470238	0.628382	3.044737	-0.94947	-0.783447	0.230225	0.038086
1146.0	1.759835	3.267737	9.250508	0.588265	3.360325	-1.05207	-0.793945	0.219238	0.010986
1147.0	2.138701	3.516562	8.853246	0.585202	3.630178	-1.203097	-0.800049	0.208252	-0.00708
1148.0	2.431022	3.364544	8.551255	0.525877	3.800474	-1.354872	-0.803467	0.188721	-0.047607
1149.0	2.86132	3.040871	8.637179	0.50204	3.916674	-1.504156	-0.80957	0.177734	-0.07251
1150.0	3.594688	2.308736	8.87	0.544364	4.025606	-1.615947	-0.819824	0.1604	-0.106445
1151.0	4.266779	1.98536	9.31591	0.638041	4.131214	-1.688426	-0.814697	0.145264	-0.137939
1152.0	5.117986	1.762461	9.932973	0.760109	4.239467	-1.706793	-0.815918	0.125732	-0.174072
1153.0	6.189611	1.87457	10.643504	0.853827	4.344987	-1.704901	-0.815186	0.106201	-0.212402
1154.0	6.878038	2.090752	11.330387	0.944239	4.456871	-1.700369	-0.809814	0.082275	-0.255127
1155.0	7.593871	1.498386	11.990107	0.944581	4.539029	-1.645484	-0.795898	0.064941	-0.286865
1156.0	8.185306	1.058689	12.382015	1.150374	4.581793	-1.553133	-0.781494	0.036865	-0.318115
1157.0	8.350506	1.467794	12.394852	1.365202	4.570472	-1.406789	-0.773926	0.015137	-0.352051
1158.0	9.491757	1.65547	12.77179	1.447303	4.441196	-1.251646	-0.755371	-0.010986	-0.378906
1159.0	10.642958	1.900237	13.436027	1.652385	4.32941	-1.177617	-0.741455	-0.030273	-0.412598
1160.0	11.316604	1.999891	13.79371	1.80698	4.193463	-1.149892	-0.720947	-0.049805	-0.432861
1161.0	12.706082	2.509241	14.2891	1.904975	3.989199	-1.139075	-0.704834	-0.069336	-0.439209
1162.0	15.20512	2.017695	15.1276	1.869252	3.773883	-1.166419	-0.692627	-0.095459	-0.46167
1163.0	18.870507	0.641948	15.674059	2.110055	3.707873	-1.291978	-0.67041	-0.108398	-0.468262
1164.0	22.699089	1.208284	16.586338	2.307748	3.766624	-1.371876	-0.654297	-0.12793	-0.481445
1165.0	25.999956	0.357231	15.120382	2.164118	4.131536	-1.351101	-0.63623	-0.138672	-0.501709
1166.0	26.852582	-0.485944	12.225498	1.980416	4.403371	-1.205045	-0.618164	-0.153809	-0.515137
1167.0	25.937571	-3.348558	6.864371	1.779271	4.449028	-0.999396	-0.600342	-0.162354	-0.533203
1168.0	24.371121	-5.837206	1.429432	1.78913	4.149375	-0.833575	-0.57373	-0.170898	-0.553711
1169.0	24.52431	-8.579809	-3.638448	1.731371	3.432713	-0.680987	-0.562988	-0.170654	-0.558105
1170.0	29.29523	-11.541846	-9.763073	1.792217	2.668836	-0.617318	-0.555664	-0.188232	-0.566895
1171.0	30.818941	-10.842091	-15.585564	1.897602	2.006796	-0.635601	-0.540039	-0.19458	-0.569092
1172.0	26.859679	-9.599934	-18.601139	0.974725	0.935794	-0.70496	-0.539551	-0.203369	-0.575928
1173.0	21.600743	-7.463446	-16.379465	0.087657	-0.686422	-0.632593	-0.544189	-0.201172	-0.569092
1174.0	17.85599	-4.426456	-10.704374	-0.707498	-1.983406	-0.485247	-0.554688	-0.207764	-0.552979
1175.0	8.20971	7.168205	0.207178	-1.369197	-3.709802	0.047915	-0.575195	-0.186035	-0.532959
1176.0	-6.88726	-2.312573	15.624389	-3.308297	-4.152114	0.305247	-0.597412	-0.179688	-0.507813
1177.0	-1.043461	0.734271	15.694241	-0.192476	-4.421074	0.590967	-0.615234	-0.171143	-0.478271
1178.0	4.850771	-14.400123	7.081741	-2.533962	-5.433362	1.381248	-0.641846	-0.158447	-0.442139
1179.0	23.741382	-10.408759	17.304319	0.864548	-4.951564	1.370409	-0.657471	-0.149902	-0.417236
1180.0	22.280856	-1.420539	21.577441	-0.403739	-3.455673	1.507997	-0.666504	-0.145508	-0.396729
1181.0	20.497712	4.213078	17.759267	0.79846	-2.69386	1.37757	-0.684326	-0.136963	-0.378662
1182.0	19.386776	15.053803	17.458589	-0.961081	-1.029177	1.129731	-0.684814	-0.126221	-0.381104
1183.0	4.051977	2.810602	6.698385	-2.056473	-1.059836	0.852227	-0.693848	-0.119629	-0.374512
1184.0	8.365129	3.140977	10.617983	-1.141419	-0.796759	0.867432	-0.685791	-0.102051	-0.374756
1185.0	6.671195	7.982485	8.937729	-1.353686	-0.53885	0.964928	-0.693115	-0.089111	-0.368164
1186.0	8.818261	1.113357	9.39958	-2.147399	-0.259395	0.779993	-0.693604	-0.078125	-0.368408
1187.0	5.999762	-0.317618	8.620918	-0.64767	-0.041696	0.532265	-0.693604	-0.078125	-0.375244
1188.0	5.790062	4.832792	8.910496	-0.897152	-0.02126	0.459429	-0.696045	-0.06958	-0.37085
1189.0	5.904888	0.773562	8.767819	-0.902558	-0.019277	0.407667	-0.694336	-0.060791	-0.375732
1190.0	5.661784	1.652206	8.965949	-0.530983	0.031983	0.310769	-0.6875	-0.064941	-0.373291
1191.0	5.353916	1.333838	8.823706	-0.505158	0.02564	0.244517	-0.69458	-0.056396	-0.375732
1192.0	5.511968	1.268687	8.825225	-0.370097	0.02165	0.176112	-0.696777	-0.054199	-0.373535
1193.0	5.290049	1.657315	8.769765	-0.222763	0.022925	0.12484	-0.69458	-0.052002	-0.368896
1194.0	5.310568	2.438702	8.691882	-0.153157	0.017787	0.113782	-0.687988	-0.054199	-0.373535
1195.0	5.293871	2.255238	8.539959	-0.209349	0.012881	0.100977	-0.694824	-0.049805	-0.375732
1196.0	5.328413	2.401115	8.471312	-0.169733	0.013134	0.102557	-0.69458	-0.052002	-0.378174
1197.0	5.370099	2.560882	8.558768	-0.194917	0.015702	0.110252	-0.697266	-0.043213	-0.373779
1198.0	5.360165	2.489951	8.588207	-0.198955	0.012644	0.123678	-0.688232	-0.047607	-0.373535
1199.0	5.339709	2.377863	8.429742	-0.205776	0.01301	0.134065	-0.690918	-0.041016	-0.378418
1200.0	5.37213	2.260491	8.491096	-0.221907	0.006634	0.133211	-0.695313	-0.038818	-0.371582
1201.0	5.265788	2.185867	8.569899	-0.211588	0.005264	0.132005	-0.693115	-0.038818	-0.373779
1202.0	5.29736	2.159518	8.535072	-0.202891	-0.001737	0.13945	-0.692871	-0.043213	-0.373779
1203.0	5.281859	2.042458	8.619378	-0.18973	-0.00724	0.127118	-0.695068	-0.041016	-0.371338
1204.0	5.289232	1.947036	8.627289	-0.175842	-0.024317	0.125606	-0.691162	-0.034424	-0.373779
1205.0	5.323084	1.800928	8.563666	-0.152113	-0.033145	0.117348	-0.690918	-0.038818	-0.371582
1206.0	5.25648	1.729488	8.54455	-0.132838	-0.031556	0.098094	-0.695557	-0.032471	-0.371582
1207.0	5.352178	2.017733	8.631361	-0.108484	-0.039165	0.088714	-0.693359	-0.030273	-0.374023
1208.0	5.301746	1.991965	8.501063	-0.126666	-0.036593	0.095859	-0.695801	-0.028076	-0.371826
1209.0	5.372552	2.083389	8.606488	-0.125885	-0.03548	0.095014	-0.695801	-0.028076	-0.376221
1210.0	5.385875	1.940789	8.526902	-0.115718	-0.027982	0.100752	-0.693359	-0.030273	-0.376221
1211.0	5.330111	1.727967	8.550235	-0.135817	-0.034557	0.092174	-0.697754	-0.030273	-0.376221
1212.0	5.323032	1.788566	8.599898	-0.110134	-0.03961	0.085435	-0.700195	-0.025879	-0.367188
1213.0	5.271373	1.721624	8.559168	-0.105398	-0.060728	0.073146	-0.700195	-0.025879	-0.367188
1214.0	5.296762	1.884088	8.596102	-0.080741	-0.065661	0.069147	-0.702148	-0.032471	-0.366943
1215.0	5.378924	2.002089	8.643746	-0.066371	-0.081509	0.066276	-0.699951	-0.032471	-0.364746
1216.0	5.364293	1.859589	8.477407	-0.088297	-0.083908	0.070803	-0.693359	-0.032471	-0.364746
1217.0	5.356876	1.977254	8.609439	-0.088286	-0.092369	0.073112	-0.70459	-0.025879	-0.36499
1218.0	5.37793	1.890295	8.555932	-0.082126	-0.102021	0.075571	-0.695801	-0.025879	-0.369385
1219.0	5.402741	1.809994	8.623269	-0.084276	-0.122798	0.073579	-0.696045	-0.019287	-0.362793
1220.0	5.395061	1.626037	8.578416	-0.062599	-0.127977	0.063755	-0.702393	-0.023682	-0.367188
1221.0	5.39388	1.790567	8.61711	-0.054683	-0.149842	0.064807	-0.700684	-0.01709	-0.367432
1222.0	5.344381	1.856076	8.651212	-0.045934	-0.175401	0.065092	-0.698486	-0.014893	-0.360596
1223.0	5.311824	1.724296	8.639963	-0.052089	-0.199774	0.067118	-0.700439	-0.021484	-0.362793
1224.0	5.208978	1.864713	8.74787	-0.056195	-0.237668	0.065982	-0.702881	-0.01709	-0.355957
1225.0	4.991807	1.361516	8.786534	-0.070435	-0.316951	0.068518	-0.698486	-0.014893	-0.360596
1226.0	5.135178	1.851135	8.863434	-0.023427	-0.390497	0.060131	-0.700439	-0.021484	-0.355957
1227.0	5.165407	1.725381	8.866739	-0.00509	-0.495762	0.061926	-0.704834	-0.019287	-0.346924
1228.0	5.133091	1.966175	8.893795	-0.006116	-0.608682	0.06858	-0.71167	-0.015137	-0.346924
1229.0	5.140547	1.940283	8.9414	0.010732	-0.732884	0.083473	-0.707275	-0.015137	-0.342285
1230.0	5.124876	1.986905	8.986053	0.005554	-0.870457	0.089088	-0.709229	-0.017334	-0.337646
1231.0	5.145822	2.009849	9.037899	0.008854	-1.044447	0.103408	-0.709473	-0.010742	-0.324219
1232.0	5.09801	2.107064	9.167484	0.01164	-1.243144	0.1278	-0.720215	-0.015137	-0.317139
1233.0	5.031097	2.24959	9.261195	0.010252	-1.46105	0.162147	-0.722656	-0.010986	-0.310547
1234.0	4.71303	2.591428	9.658768	-0.018615	-1.717251	0.219845	-0.731689	-0.004395	-0.290039
1235.0	4.58387	2.977686	10.0508	-0.10454	-2.06307	0.309944	-0.733887	-0.002197	-0.276367
1236.0	4.99443	3.779951	10.019297	-0.231093	-2.385708	0.47918	-0.738281	-0.004639	-0.271729
1237.0	4.871718	4.122449	10.563711	-0.482669	-2.704749	0.763331	-0.74292	0.00415	-0.23999
1238.0	4.858623	4.224962	10.968277	-0.677703	-3.140715	1.067466	-0.756592	0.01709	-0.217529
1239.0	4.540395	5.269298	11.868891	-0.989694	-3.584577	1.480447	-0.755127	0.032227	-0.195068
1240.0	3.967159	4.380344	11.912423	-1.493646	-4.111964	1.997993	-0.762207	0.045166	-0.167969
1241.0	3.165064	3.722763	11.531283	-1.609431	-4.780033	2.47118	-0.760986	0.066895	-0.127441
1242.0	4.058481	3.580215	10.506441	-1.818139	-5.529303	2.854796	-0.762207	0.09082	-0.082275
1243.0	5.642062	1.946533	10.300147	-1.854895	-6.387657	2.952476	-0.758789	0.112549	-0.028076
1244.0	12.717329	-3.276384	9.894622	-1.013325	-7.562024	2.449616	-0.757324	0.13208	0.026367
1245.0	28.306518	0.893857	13.749631	1.564973	-7.632221	2.149458	-0.74292	0.149414	0.076172
1246.0	29.153591	8.248283	19.802735	0.676913	-6.838064	2.549978	-0.732666	0.162598	0.125977
1247.0	25.453592	5.529294	18.875009	0.432232	-5.754005	2.486513	-0.713867	0.184326	0.152832
1248.0	14.662193	15.214922	28.74722	0.781082	-3.339111	2.196628	-0.710205	0.19751	0.16626
1249.0	1.830226	18.545285	23.599409	-1.482763	-1.500699	1.481823	-0.699463	0.204102	0.17749
1250.0	1.659201	11.146397	15.326141	-2.226426	-0.658765	0.355689	-0.703369	0.195313	0.189209
1251.0	-2.323118	9.306797	11.201272	-1.66514	-0.282877	-0.39361	-0.700928	0.186523	0.189209
1252.0	-3.566233	6.894013	8.269998	-1.485012	-0.534947	-0.789458	-0.708984	0.17334	0.200928
1253.0	-0.974907	5.503987	9.738335	-1.272778	-0.427976	-0.954879	-0.710938	0.169189	0.191895
1254.0	-0.32814	5.060086	10.40194	-0.88863	-0.028002	-1.002758	-0.712402	0.151611	0.201416
1255.0	-0.780074	4.980266	10.434662	-0.757378	0.426128	-1.023554	-0.712158	0.14502	0.197021
1256.0	-1.128146	4.716924	10.112403	-0.599025	0.883668	-1.053368	-0.713867	0.134033	0.194824
1257.0	-0.95474	4.158023	9.681337	-0.525783	1.311533	-1.07798	-0.722168	0.123291	0.183594
1258.0	-0.45831	3.430986	9.249996	-0.36015	1.76759	-1.115578	-0.726074	0.114502	0.174805
1259.0	0.058347	3.145077	8.935003	-0.176846	2.199244	-1.155393	-0.736572	0.105713	0.163574
1260.0	0.779559	3.088754	8.810001	-0.029565	2.601072	-1.185958	-0.746582	0.088135	0.147949
1261.0	1.550951	3.304475	8.670226	0.07132	2.963213	-1.217155	-0.755127	0.08374	0.125244
1262.0	2.210366	3.292354	8.542293	0.12634	3.277775	-1.262339	-0.77002	0.074951	0.107178
1263.0	2.732952	3.348291	8.428054	0.178178	3.551512	-1.327969	-0.776123	0.064209	0.082275
1264.0	3.202695	3.287572	8.329766	0.231649	3.777295	-1.400192	-0.786865	0.057617	0.057373
1265.0	3.592816	3.113192	8.514228	0.276252	3.930702	-1.472152	-0.797119	0.044434	0.025879
1266.0	4.260039	2.515569	8.642852	0.403755	4.108574	-1.537355	-0.807373	0.031494	-0.005859
1267.0	4.852924	2.317292	8.968966	0.501965	4.257553	-1.558593	-0.820313	0.024902	-0.037598
1268.0	5.484498	2.322611	9.443343	0.666972	4.392168	-1.559547	-0.81958	0.011963	-0.087402
1269.0	6.28566	2.637092	10.063864	0.799415	4.500936	-1.565176	-0.82959	-0.007568	-0.123535
1271.0	7.347972	3.290064	11.199568	0.86479	4.638961	-1.621963	-0.821777	-0.037842	-0.211914
1272.0	8.198068	2.840041	12.161483	0.971109	4.706932	-1.68491	-0.816162	-0.066162	-0.247803
1273.0	8.62102	2.227893	12.287875	1.090339	4.678509	-1.674421	-0.802246	-0.085693	-0.290771
1275.0	10.296067	1.303253	13.153821	1.375241	4.445099	-1.49451	-0.774414	-0.122314	-0.358398
1276.0	13.777537	0.392027	15.55226	1.901971	4.355261	-1.315881	-0.769043	-0.144043	-0.380615
1277.0	16.1595	1.080117	17.001057	2.143642	4.447338	-1.192126	-0.750977	-0.156982	-0.416992
1278.0	18.458889	0.995864	17.257562	2.207859	4.569922	-1.079137	-0.73291	-0.169922	-0.444092
1279.0	20.85868	0.650219	16.673062	2.163645	4.729338	-0.989971	-0.708252	-0.187256	-0.478027
1280.0	22.49522	0.710753	15.313103	2.033475	4.828139	-0.895615	-0.683594	-0.199951	-0.505127
1281.0	23.086767	-0.127464	12.310773	1.795695	4.893141	-0.782083	-0.667969	-0.210693	-0.536865
1282.0	23.370461	-1.41872	8.301568	1.654251	4.704346	-0.639104	-0.638916	-0.228027	-0.559326
1283.0	22.960236	-3.791082	3.877357	1.732991	4.245869	-0.500033	-0.616699	-0.234375	-0.57959
1284.0	22.833755	-5.864163	-0.314818	1.931174	3.696462	-0.443524	-0.596436	-0.251465	-0.599854
1285.0	23.76984	-7.048677	-3.27124	1.87638	2.900729	-0.37465	-0.578613	-0.260254	-0.602051
1286.0	27.604116	-10.137581	-7.784372	1.58403	2.126233	-0.326004	-0.569092	-0.275391	-0.608643
1287.0	29.342109	-10.283245	-12.430329	1.393719	1.459166	-0.356624	-0.560059	-0.283936	-0.615234
1288.0	26.818073	-9.374901	-14.987261	0.568511	0.507034	-0.393728	-0.557617	-0.290527	-0.615234
1289.0	22.815429	-7.704888	-13.493268	-0.241148	-0.814173	-0.411461	-0.562012	-0.288574	-0.60376
1290.0	21.813061	-6.172507	-8.537945	-0.83371	-1.970286	-0.436937	-0.568604	-0.286377	-0.594727
1291.0	7.731917	1.506985	0.484031	-0.228005	-2.616911	-0.339195	-0.588135	-0.286377	-0.583252
1292.0	0.857855	4.032831	10.794668	-3.232472	-3.61409	0.046612	-0.595459	-0.273438	-0.569824
1293.0	-7.909284	2.562495	20.933779	-0.306027	-4.306936	0.117529	-0.625977	-0.271484	-0.549316
1294.0	-1.733147	-8.233854	6.314567	-2.123985	-4.223757	1.236639	-0.650635	-0.254395	-0.524658
1295.0	14.469257	-16.114561	8.985978	-0.483752	-5.592647	1.370178	-0.677246	-0.248047	-0.48584
1296.0	24.119972	-0.854098	22.553913	0.607997	-3.981535	1.549867	-0.694824	-0.243896	-0.465576
1297.0	18.23112	0.827187	15.13053	0.115007	-2.751597	1.438488	-0.710449	-0.237305	-0.451904
1298.0	26.123076	17.989338	24.912724	0.061355	-2.413281	1.550895	-0.713135	-0.224365	-0.443115
1299.0	6.479444	7.652094	5.684974	-2.604344	-0.229126	1.049787	-0.720703	-0.200439	-0.447998
1300.0	8.783712	-1.848891	10.48186	-1.900371	-1.111073	0.894057	-0.723145	-0.196045	-0.441406
1301.0	5.135856	4.436898	9.521712	-0.988798	-0.340875	0.802206	-0.728027	-0.185059	-0.443848
1302.0	9.241593	4.1473	9.825616	-1.573202	-0.435709	0.774898	-0.72876	-0.167725	-0.450928
1303.0	5.694886	-0.244173	8.378382	-1.025682	-0.093318	0.539806	-0.731201	-0.16333	-0.451172
1304.0	6.341456	3.602328	9.142731	-0.703909	-0.095491	0.456488	-0.731201	-0.161133	-0.451172
1305.0	5.742625	1.543473	8.638126	-0.833851	-0.038197	0.376136	-0.733887	-0.152344	-0.446777
1306.0	5.709663	1.284076	8.863652	-0.504081	0.007347	0.288168	-0.729736	-0.147949	-0.448975
1307.0	5.351341	1.85426	8.808713	-0.383705	0.011821	0.221971	-0.731934	-0.143799	-0.449219
1308.0	5.448109	1.447571	8.765522	-0.348937	-0.004089	0.17208	-0.727539	-0.147949	-0.453613
1309.0	5.37221	1.404277	8.711528	-0.202509	0.008768	0.100634	-0.732178	-0.141602	-0.456055
1310.0	5.26793	2.091657	8.755475	-0.125662	-0.003342	0.065091	-0.723389	-0.143555	-0.449219
1311.0	5.273857	2.241983	8.638044	-0.114049	-0.01717	0.051271	-0.732178	-0.139404	-0.451416
1312.0	5.255003	2.243514	8.501391	-0.089931	-0.018155	0.043851	-0.732178	-0.139404	-0.442383
1313.0	5.219871	2.654218	8.595127	-0.084903	-0.030653	0.055579	-0.727783	-0.139404	-0.449219
1314.0	5.22044	2.46993	8.593197	-0.111156	-0.032996	0.070593	-0.734375	-0.137207	-0.453857
1315.0	5.278707	2.682174	8.60339	-0.120446	-0.040254	0.097453	-0.728027	-0.132813	-0.447021
1316.0	5.212348	2.649002	8.458894	-0.144769	-0.04616	0.113689	-0.734619	-0.13501	-0.45166
1317.0	5.314008	2.402182	8.622112	-0.177427	-0.046268	0.130496	-0.736572	-0.137207	-0.449219
1318.0	5.30972	2.229232	8.584259	-0.174155	-0.051064	0.131901	-0.734619	-0.13501	-0.453857
1319.0	5.240576	1.908504	8.61795	-0.166401	-0.065726	0.127243	-0.734863	-0.130615	-0.449463
1320.0	5.248953	1.763228	8.556329	-0.133155	-0.067298	0.104266	-0.730713	-0.126221	-0.449463
1321.0	5.315589	2.051696	8.62953	-0.103487	-0.082865	0.092658	-0.732666	-0.128418	-0.45166
1322.0	5.316303	2.128027	8.499703	-0.102266	-0.08763	0.094811	-0.730713	-0.126221	-0.447266
