Acquisition frequency: 100 Hz
PacketCounter	Acc_X	Acc_Y	Acc_Z	Gyr_X	Gyr_Y	Gyr_Z	Mag_X	Mag_Y	Mag_Z
0.0	5.221031	0.557801	8.414752	-0.006565	0.006895	-0.003412	-0.557129	-0.212402	-0.438232
1.0	5.228591	0.55864	8.430335	-0.00629	0.008236	-0.004544	-0.559326	-0.2146	-0.438232
2.0	5.226857	0.585382	8.408994	-0.002597	0.005901	-0.007415	-0.556885	-0.216797	-0.438232
3.0	5.197893	0.575677	8.426395	-0.005744	0.005848	-0.000794	-0.559326	-0.2146	-0.438232
4.0	5.238243	0.564935	8.384488	-0.005193	0.008531	-0.003057	-0.561279	-0.218994	-0.442383
5.0	5.203348	0.551758	8.425512	-0.004509	0.008449	-0.005759	-0.561523	-0.212402	-0.438232
6.0	5.202656	0.551644	8.425947	-0.003688	0.007404	-0.003141	-0.55249	-0.216797	-0.436035
7.0	5.217984	0.581085	8.434505	-0.002183	0.006277	-0.003225	-0.559326	-0.212402	-0.436035
8.0	5.201374	0.551349	8.426758	-0.006697	0.009655	-0.002971	-0.559326	-0.212402	-0.44458
9.0	5.239348	0.586798	8.441815	-0.003278	0.005981	-0.004711	-0.561523	-0.212402	-0.436035
10.0	5.199072	0.577711	8.405803	-0.004647	0.006142	0.000694	-0.557129	-0.212402	-0.44043
11.0	5.222286	0.556784	8.434365	-0.005601	0.008152	-0.007242	-0.559326	-0.2146	-0.442383
12.0	5.19767	0.577298	8.406698	-0.00601	0.009573	-0.005671	-0.561523	-0.210449	-0.438232
13.0	5.226493	0.559885	8.411842	-0.004781	0.007106	-0.004624	-0.557129	-0.212402	-0.438232
14.0	5.201985	0.580333	8.384115	-0.00519	0.008527	-0.003053	-0.554932	-0.212402	-0.433838
15.0	5.212593	0.579372	8.437955	-0.005875	0.006809	-0.00611	-0.561279	-0.216797	-0.442383
16.0	5.207517	0.556573	8.38318	-0.003685	0.007401	-0.003137	-0.556885	-0.218994	-0.436035
17.0	5.199896	0.579811	8.385447	-0.005732	0.010913	-0.006799	-0.554932	-0.2146	-0.433838
18.0	5.223098	0.558982	8.414011	-0.003827	0.003296	-0.002447	-0.557129	-0.2146	-0.438232
19.0	5.194073	0.54918	8.431401	-0.006007	0.009571	-0.005668	-0.557129	-0.212402	-0.44043
20.0	5.220708	0.585418	8.393127	-0.004778	0.007104	-0.004622	-0.556885	-0.216797	-0.438232
21.0	5.208566	0.57829	8.440516	-0.006282	0.008228	-0.004537	-0.556885	-0.216797	-0.44043
22.0	5.219368	0.584967	8.393992	-0.004778	0.007103	-0.004621	-0.556885	-0.216797	-0.438232
23.0	5.196067	0.578717	8.387896	-0.003273	0.005978	-0.004706	-0.55249	-0.216553	-0.44458
24.0	5.212488	0.581217	8.418198	-0.006557	0.006886	-0.003406	-0.559326	-0.212402	-0.438232
25.0	5.195916	0.551569	8.410396	-0.00272	0.00866	-0.006965	-0.561035	-0.220947	-0.440186
26.0	5.223623	0.561119	8.39386	-0.004093	0.008819	-0.001563	-0.556885	-0.216797	-0.438232
27.0	5.187675	0.574826	8.413039	-0.002585	0.005897	-0.007406	-0.556885	-0.216797	-0.436035
28.0	5.216607	0.557553	8.418131	-0.00628	0.008226	-0.004534	-0.554932	-0.2146	-0.44043
29.0	5.208004	0.607526	8.39863	-0.004775	0.007101	-0.004619	-0.561279	-0.216797	-0.433838
30.0	5.221084	0.560515	8.39548	-0.007649	0.006587	-0.00489	-0.559082	-0.218994	-0.438232
31.0	5.237462	0.562831	8.425821	-0.006555	0.006883	-0.003404	-0.557129	-0.2146	-0.431641
32.0	5.190311	0.577181	8.391564	-0.002994	0.007317	-0.005832	-0.556885	-0.216797	-0.438232
33.0	5.236154	0.562551	8.426652	-0.006278	0.008224	-0.004532	-0.554932	-0.2146	-0.44043
34.0	5.189999	0.550031	8.414149	-0.005589	0.008144	-0.007232	-0.559326	-0.210449	-0.436035
35.0	5.22792	0.585492	8.429318	-0.006554	0.006882	-0.003402	-0.557129	-0.210205	-0.442627
36.0	5.223	0.562711	8.374485	-0.002176	0.006272	-0.003216	-0.554688	-0.216797	-0.431641
37.0	5.210917	0.555564	8.421786	-0.007646	0.006585	-0.004888	-0.559082	-0.218994	-0.442383
38.0	5.226223	0.584886	8.430412	-0.003268	0.005975	-0.004701	-0.559326	-0.2146	-0.44043
39.0	5.225632	0.584897	8.430778	-0.002991	0.007316	-0.00583	-0.554932	-0.212402	-0.442383
40.0	5.20903	0.555285	8.422972	-0.005998	0.009563	-0.005658	-0.557373	-0.206055	-0.438232
41.0	5.236824	0.564814	8.406432	-0.003267	0.005974	-0.0047	-0.561279	-0.218994	-0.436035
42.0	5.207723	0.555003	8.423799	-0.006274	0.008221	-0.004529	-0.559326	-0.212402	-0.436035
43.0	5.205905	0.581663	8.402577	-0.004493	0.008438	-0.005742	-0.563477	-0.2146	-0.436035
44.0	5.222116	0.584066	8.433014	-0.006963	0.008299	-0.001828	-0.559326	-0.212646	-0.433838
45.0	5.21714	0.561183	8.378239	-0.003678	0.007393	-0.003127	-0.556885	-0.216797	-0.438232
46.0	5.198099	0.57742	8.427351	-0.004769	0.007096	-0.004613	-0.563721	-0.212646	-0.436035
47.0	5.220095	0.583293	8.434318	-0.008867	0.009045	-0.005928	-0.554932	-0.210205	-0.438232
48.0	5.225253	0.586522	8.411258	-0.00136	0.005225	-0.000598	-0.559082	-0.218994	-0.431641
49.0	5.207743	0.583751	8.381654	-0.005581	0.00814	-0.007226	-0.563477	-0.216797	-0.438232
50.0	5.230832	0.562768	8.410299	-0.009143	0.007702	-0.004799	-0.554688	-0.21875	-0.442383
51.0	5.207421	0.556295	8.404242	-0.004489	0.008436	-0.005739	-0.559326	-0.212402	-0.438232
52.0	5.22835	0.589215	8.389524	-0.003676	0.007391	-0.003124	-0.554932	-0.2146	-0.44043
53.0	5.216091	0.58201	8.436884	-0.005179	0.008514	-0.003038	-0.554932	-0.210205	-0.442627
54.0	5.205321	0.555686	8.405583	-0.006269	0.008216	-0.004524	-0.557129	-0.212402	-0.44043
55.0	5.198815	0.551894	8.429503	-0.006269	0.008216	-0.004524	-0.557129	-0.2146	-0.44043
56.0	5.248127	0.594476	8.397936	-0.003118	0.010073	-0.005377	-0.557129	-0.2146	-0.438232
57.0	5.213146	0.581088	8.438767	-0.004644	0.006127	0.000704	-0.559326	-0.212402	-0.442627
58.0	5.202617	0.554711	8.407322	-0.006133	0.005455	-0.004969	-0.554932	-0.212402	-0.44043
59.0	5.196223	0.551023	8.431158	-0.006666	0.00784	-0.008708	-0.559082	-0.218994	-0.436035
60.0	5.200208	0.581308	8.3865	-0.003395	0.00873	-0.004248	-0.557129	-0.210205	-0.438232
61.0	5.217505	0.556897	8.438587	-0.006545	0.006873	-0.003395	-0.557129	-0.212402	-0.436035
62.0	5.235398	0.540181	8.390276	-0.007635	0.006575	-0.004881	-0.554688	-0.216797	-0.436035
63.0	5.192433	0.576899	8.411237	-0.005987	0.009554	-0.005647	-0.559082	-0.216797	-0.433838
64.0	5.243969	0.565634	8.423001	-0.004364	0.007465	-0.000421	-0.556885	-0.216797	-0.436035
65.0	5.197901	0.553146	8.410341	-0.004881	0.008058	-0.009918	-0.554932	-0.212402	-0.438232
66.0	5.231464	0.566387	8.370447	-0.003393	0.008729	-0.004245	-0.559326	-0.2146	-0.438232
67.0	5.196458	0.553061	8.411239	-0.003672	0.007387	-0.003119	-0.559082	-0.2146	-0.436035
68.0	5.218505	0.559201	8.418191	-0.002979	0.00731	-0.005817	-0.556885	-0.216797	-0.438232
69.0	5.216789	0.58612	8.396934	-0.004068	0.007012	-0.007304	-0.557129	-0.2146	-0.438232
70.0	5.21723	0.559193	8.418982	-0.003671	0.007386	-0.003118	-0.557129	-0.212402	-0.44043
71.0	5.215409	0.585897	8.397807	-0.004894	0.009848	-0.004157	-0.55249	-0.218994	-0.440186
72.0	5.208977	0.582206	8.421647	-0.005714	0.004032	-0.006538	-0.554932	-0.2146	-0.436035
73.0	5.215307	0.558652	8.420209	-0.004084	0.008804	-0.001544	-0.557129	-0.210205	-0.44043
74.0	5.220416	0.561789	8.39723	-0.009132	0.007691	-0.004792	-0.557129	-0.2146	-0.436035
75.0	5.236558	0.564262	8.427702	-0.002697	0.008649	-0.00694	-0.563721	-0.212646	-0.431641
76.0	5.189423	0.578743	8.393356	-0.004758	0.007088	-0.004603	-0.557129	-0.212646	-0.431641
77.0	5.212497	0.557936	8.421996	-0.004478	0.008428	-0.005727	-0.559082	-0.216797	-0.438232
78.0	5.210794	0.584665	8.400757	-0.003948	0.006043	-0.00199	-0.561523	-0.212646	-0.433838
79.0	5.210197	0.584292	8.401153	-0.00913	0.007689	-0.00479	-0.559326	-0.210449	-0.438232
80.0	5.217399	0.53371	8.421486	-0.003803	0.010142	-0.002665	-0.557129	-0.210449	-0.436035
81.0	5.193066	0.554311	8.393639	-0.003119	0.003208	-0.005136	-0.559082	-0.2146	-0.436035
82.0	5.23103	0.589897	8.408919	-0.008434	0.007611	-0.007488	-0.554932	-0.2146	-0.44043
83.0	5.186198	0.550397	8.417743	-0.003533	0.004625	-0.003562	-0.559326	-0.210449	-0.436035
84.0	5.21409	0.559977	8.401281	-0.005978	0.009546	-0.005637	-0.557129	-0.2146	-0.436035
85.0	5.229123	0.589346	8.410144	-0.003667	0.007382	-0.003112	-0.557129	-0.212402	-0.438232
86.0	5.212678	0.559582	8.402183	-0.006257	0.008205	-0.004512	-0.561523	-0.212402	-0.436035
87.0	5.212036	0.559536	8.402584	-0.000382	0.006484	-0.00441	-0.561523	-0.212646	-0.431641
88.0	5.22127	0.585516	8.43485	-0.008151	0.00895	-0.00861	-0.556885	-0.216797	-0.436035
89.0	5.203783	0.582529	8.40525	-0.004642	0.006116	0.000711	-0.557129	-0.212646	-0.433838
90.0	5.204229	0.555474	8.427271	-0.004864	0.008051	-0.009906	-0.554932	-0.212402	-0.438232
91.0	5.203543	0.555453	8.427696	-0.003666	0.007381	-0.00311	-0.559326	-0.210449	-0.436035
92.0	5.201836	0.582203	8.406478	-0.003665	0.007381	-0.00311	-0.559326	-0.212402	-0.44458
93.0	5.230747	0.564847	8.411701	-0.006254	0.008202	-0.00451	-0.556885	-0.218994	-0.433838
94.0	5.213207	0.561913	8.382132	-0.005167	0.008499	-0.003022	-0.554932	-0.2146	-0.433838
95.0	5.199762	0.581382	8.407817	-0.005447	0.007158	-0.001899	-0.557129	-0.210205	-0.438232
96.0	5.206069	0.557872	8.406393	-0.005141	0.006709	-0.00878	-0.554932	-0.212402	-0.438232
97.0	5.234033	0.56744	8.389932	-0.004641	0.006114	0.000712	-0.559326	-0.212402	-0.436035
98.0	5.233324	0.567051	8.390401	-0.00856	0.010362	-0.007031	-0.556885	-0.216797	-0.433838
99.0	5.209893	0.560588	8.38428	-0.00475	0.007081	-0.004595	-0.554688	-0.216797	-0.433838
100.0	5.196417	0.580252	8.409963	-0.003382	0.008719	-0.00423	-0.559082	-0.216797	-0.438232
101.0	5.225272	0.562944	8.41523	-0.006251	0.008199	-0.004507	-0.552734	-0.2146	-0.436035
102.0	5.211868	0.58245	8.440875	-0.00503	0.005739	-0.003471	-0.554932	-0.2146	-0.442383
103.0	5.207217	0.559996	8.385982	-0.000512	0.009239	-0.003951	-0.559082	-0.2146	-0.436035
104.0	5.21053	0.582289	8.441712	-0.008702	0.006262	-0.006358	-0.559082	-0.216797	-0.436035
105.0	5.222696	0.562075	8.416887	-0.006947	0.008273	-0.001808	-0.554688	-0.216797	-0.431641
106.0	5.19249	0.578841	8.412486	-0.003943	0.006036	-0.001983	-0.556885	-0.216797	-0.44043
107.0	5.198853	0.555308	8.411028	-0.004747	0.007079	-0.004592	-0.559326	-0.210449	-0.438232
108.0	5.213902	0.584641	8.419917	-0.005162	0.008495	-0.003017	-0.555176	-0.208008	-0.442627
109.0	5.197462	0.554798	8.411921	-0.007333	0.007899	-0.005991	-0.563477	-0.218994	-0.436035
110.0	5.211399	0.611081	8.399247	-0.003378	0.008717	-0.004226	-0.554932	-0.212646	-0.429443
111.0	5.224529	0.564239	8.39607	-0.005161	0.008493	-0.003016	-0.559326	-0.212402	-0.436035
112.0	5.195425	0.554148	8.413222	-0.004223	0.004694	-0.000859	-0.559082	-0.216797	-0.438232
113.0	5.217545	0.559949	8.420223	-0.009114	0.007674	-0.00478	-0.559326	-0.212402	-0.436035
114.0	5.222732	0.563231	8.397255	-0.005547	0.00812	-0.007198	-0.556885	-0.218994	-0.440186
115.0	5.19352	0.553301	8.414454	-0.004744	0.007077	-0.004589	-0.559326	-0.212402	-0.44043
116.0	5.215544	0.559366	8.421502	-0.003658	0.007375	-0.003101	-0.55249	-0.216797	-0.438232
117.0	5.207923	0.582481	8.423766	-0.006244	0.008194	-0.004501	-0.561279	-0.2146	-0.44043
118.0	5.236871	0.565028	8.429012	-0.00761	0.006555	-0.004866	-0.556885	-0.218994	-0.433838
119.0	5.236185	0.564816	8.429452	-0.001207	0.00931	-0.001246	-0.561279	-0.2146	-0.44043
120.0	5.212862	0.558277	8.423234	-0.009393	0.00633	-0.003657	-0.557129	-0.212402	-0.44043
121.0	5.211167	0.58496	8.402066	-0.004844	0.008045	-0.009891	-0.55957	-0.208252	-0.44043
122.0	5.211567	0.558183	8.424041	-0.000372	0.00648	-0.004396	-0.557129	-0.210205	-0.44043
123.0	5.223789	0.538297	8.399191	-0.008026	0.007967	-0.00329	-0.554932	-0.212402	-0.433838
124.0	5.20321	0.581111	8.426772	-0.004175	0.009756	-0.006827	-0.559326	-0.2146	-0.44043
125.0	5.239077	0.540655	8.430194	-0.004322	0.00566	-0.006161	-0.561279	-0.2146	-0.436035
126.0	5.214747	0.561309	8.402345	-0.003373	0.008713	-0.004218	-0.557129	-0.2146	-0.438232
127.0	5.20814	0.557308	8.426219	-0.010892	0.007443	-0.003568	-0.559326	-0.210205	-0.44043
128.0	5.213384	0.560589	8.403238	-0.000788	0.007894	-0.002818	-0.557129	-0.210449	-0.433838
129.0	5.228487	0.590059	8.412119	-0.006105	0.005434	-0.004952	-0.554932	-0.2146	-0.44458
130.0	5.205244	0.583558	8.405834	-0.006239	0.008189	-0.004496	-0.55249	-0.216797	-0.438232
131.0	5.182889	0.550033	8.42122	-0.00774	0.009305	-0.004407	-0.556885	-0.218994	-0.433838
132.0	5.227515	0.562159	8.435009	-0.00502	0.005731	-0.003463	-0.554688	-0.218994	-0.433838
133.0	5.210216	0.559449	8.405279	-0.002953	0.007297	-0.005791	-0.565918	-0.210449	-0.438232
134.0	5.215561	0.56297	8.382232	-0.00502	0.005731	-0.003463	-0.559326	-0.212402	-0.436035
135.0	5.201981	0.582576	8.407922	-0.002004	0.010349	-0.003846	-0.559326	-0.2146	-0.438232
136.0	5.208221	0.559066	8.406541	-0.008685	0.00625	-0.006349	-0.559326	-0.2146	-0.44043
137.0	5.194578	0.578409	8.432282	-0.006371	0.010941	-0.004037	-0.557129	-0.210449	-0.433838
138.0	5.229396	0.564547	8.41419	-0.006802	0.005505	-0.002254	-0.557129	-0.210449	-0.433838
139.0	5.222909	0.560724	8.437958	-0.00295	0.007296	-0.005788	-0.55957	-0.208252	-0.438232
140.0	5.205512	0.558001	8.40829	-0.005153	0.008484	-0.003004	-0.559326	-0.2146	-0.44458
141.0	5.233277	0.567633	8.392096	-0.003787	0.010122	-0.002635	-0.559326	-0.212402	-0.44043
142.0	5.196951	0.58086	8.411151	-0.006234	0.008185	-0.004491	-0.559326	-0.210205	-0.44043
143.0	5.20316	0.55728	8.409793	-0.007032	0.009227	-0.007097	-0.55957	-0.206055	-0.431641
144.0	5.195431	0.580632	8.412105	-8.2e-05	0.007818	-0.005505	-0.55957	-0.206055	-0.44043
145.0	5.217343	0.586878	8.419258	-0.004069	0.00878	-0.001515	-0.55957	-0.208252	-0.438232
146.0	5.229524	0.567011	8.394477	-0.00553	0.008111	-0.007185	-0.559082	-0.216797	-0.438232
147.0	5.221881	0.590203	8.396748	-0.005813	0.00677	-0.006066	-0.559326	-0.210449	-0.436035
148.0	5.218488	0.540831	8.363359	-0.004447	0.008408	-0.005696	-0.559326	-0.210449	-0.438232
149.0	5.198934	0.556769	8.41244	-0.003649	0.007366	-0.003089	-0.559082	-0.2146	-0.436035
150.0	5.213888	0.58622	8.421444	-0.004446	0.008408	-0.005695	-0.561279	-0.2146	-0.436035
151.0	5.220183	0.562788	8.420027	-0.003649	0.007365	-0.003089	-0.563721	-0.212402	-0.44043
152.0	5.218519	0.589688	8.398874	-0.005107	0.006696	-0.008759	-0.557129	-0.2146	-0.44043
153.0	5.218779	0.562579	8.420911	-0.006365	0.010933	-0.004029	-0.557129	-0.212646	-0.433838
154.0	5.195426	0.556056	8.414654	-0.003933	0.006024	-0.00197	-0.557129	-0.210449	-0.436035
155.0	5.22441	0.538831	8.419928	-0.004444	0.008406	-0.005693	-0.561523	-0.212646	-0.433838
156.0	5.222707	0.565571	8.398817	-0.006513	0.006839	-0.003369	-0.557129	-0.210205	-0.438232
157.0	5.209138	0.585082	8.424461	-0.002943	0.007292	-0.005781	-0.556885	-0.218994	-0.433838
158.0	5.221409	0.565295	8.399642	-0.006228	0.008178	-0.004486	-0.55249	-0.216797	-0.442383
159.0	5.20878	0.557997	8.446867	0.001004	0.008115	-0.00401	-0.561279	-0.2146	-0.438232
160.0	5.213191	0.58848	8.402267	-0.009242	0.003559	-0.004109	-0.554688	-0.216797	-0.44043
161.0	5.191074	0.554848	8.417419	-0.004066	0.008775	-0.001509	-0.559326	-0.212402	-0.438232
162.0	5.212041	0.587809	8.403027	-0.006091	0.005425	-0.004944	-0.561523	-0.212402	-0.44043
163.0	5.202765	0.534696	8.392988	-0.005941	0.009517	-0.005601	-0.556885	-0.221191	-0.438232
164.0	5.211735	0.560488	8.425412	-0.003225	0.00595	-0.004661	-0.561523	-0.212646	-0.433838
165.0	5.211115	0.560328	8.425806	-0.006225	0.008176	-0.004483	-0.554688	-0.216797	-0.436035
166.0	5.239069	0.570088	8.409569	-0.002145	0.006248	-0.003173	-0.556885	-0.216797	-0.438232
167.0	5.209865	0.560015	8.4266	-0.007304	0.007877	-0.005971	-0.557129	-0.212402	-0.438232
168.0	5.21515	0.563565	8.403646	-0.00078	0.007887	-0.0028	-0.559326	-0.212646	-0.433838
169.0	5.20752	0.587018	8.405885	-0.000359	0.006475	-0.004377	-0.559082	-0.2146	-0.436035
170.0	5.191292	0.557389	8.397656	-0.008382	0.007577	-0.007458	-0.550537	-0.2146	-0.436035
171.0	5.229816	0.566048	8.435018	-0.003359	0.0087	-0.004199	-0.556885	-0.216797	-0.438232
172.0	5.212439	0.563386	8.40534	-0.004437	0.008401	-0.005686	-0.559082	-0.2146	-0.436035
173.0	5.183162	0.553347	8.422392	-0.003643	0.007359	-0.003082	-0.559326	-0.212402	-0.436035
174.0	5.233672	0.569424	8.412974	-0.004437	0.008401	-0.005686	-0.559326	-0.212402	-0.436035
175.0	5.20344	0.586309	8.408461	-0.006086	0.005421	-0.004941	-0.563477	-0.216797	-0.433838
176.0	5.209754	0.562994	8.407031	-0.000207	0.010566	-0.005029	-0.554932	-0.212646	-0.431641
177.0	5.23063	0.596235	8.392722	-0.006086	0.00542	-0.004941	-0.561279	-0.2146	-0.438232
178.0	5.195422	0.582564	8.433102	-0.002649	0.008627	-0.006889	-0.559082	-0.216797	-0.436035
179.0	5.236286	0.572794	8.391715	-0.00622	0.008171	-0.004479	-0.561279	-0.2146	-0.438232
180.0	5.216614	0.588524	8.44077	-0.00472	0.007058	-0.004568	-0.558838	-0.221191	-0.436035
181.0	5.199363	0.58589	8.411012	-0.001856	0.007585	-0.004284	-0.561279	-0.2146	-0.433838
182.0	5.228294	0.568838	8.416357	-0.005512	0.008099	-0.007171	-0.557129	-0.2146	-0.438232
183.0	5.198996	0.558885	8.433385	-0.000777	0.007884	-0.002794	-0.557129	-0.2146	-0.438232
184.0	5.204362	0.56232	8.410415	-0.007213	0.006899	-0.00067	-0.55249	-0.218994	-0.431641
185.0	5.202668	0.588992	8.389342	-0.003354	0.008696	-0.004193	-0.554932	-0.2146	-0.438232
186.0	5.202862	0.561794	8.411378	-0.008509	0.010321	-0.006991	-0.561523	-0.210449	-0.436035
187.0	5.223665	0.594901	8.397153	-0.004009	0.006986	-0.007258	-0.559326	-0.212402	-0.436035
188.0	5.195442	0.558004	8.435633	-0.001853	0.007584	-0.004281	-0.559082	-0.218994	-0.438232
189.0	5.223249	0.567828	8.419557	-0.00743	0.010619	-0.005501	-0.557129	-0.2146	-0.431641
190.0	5.228542	0.57133	8.396642	-0.004294	0.005645	-0.006142	-0.554932	-0.2146	-0.44043
191.0	5.214809	0.590831	8.422321	-0.003774	0.010105	-0.002612	-0.561523	-0.212402	-0.438232
192.0	5.198544	0.560864	8.414109	-0.009365	0.006297	-0.003645	-0.557129	-0.2146	-0.438232
193.0	5.233627	0.54733	8.39603	-0.000352	0.006472	-0.004368	-0.554932	-0.210449	-0.436035
194.0	5.21995	0.566879	8.421666	-0.008368	0.007567	-0.007451	-0.561523	-0.212646	-0.429443
195.0	5.196652	0.560406	8.415308	-0.004428	0.008394	-0.005677	-0.559326	-0.212402	-0.436035
196.0	5.217545	0.593466	8.401058	-0.005424	0.007123	-0.00187	-0.559082	-0.216797	-0.436035
197.0	5.202359	0.536562	8.414293	-0.006213	0.008164	-0.004473	-0.556885	-0.216797	-0.438232
198.0	5.200666	0.563347	8.393232	-0.003637	0.007352	-0.003073	-0.559326	-0.210449	-0.438232
199.0	5.209451	0.589046	8.425761	-0.005925	0.009504	-0.005586	-0.554932	-0.210205	-0.438232
200.0	5.238226	0.57193	8.431239	-0.003062	0.010032	-0.0053	-0.557129	-0.2146	-0.436035
201.0	5.204322	0.566649	8.371364	-0.006212	0.008163	-0.004471	-0.561768	-0.206055	-0.436035
202.0	5.214223	0.565456	8.425309	-0.002502	0.005872	-0.007342	-0.561279	-0.216797	-0.436035
203.0	5.204208	0.53945	8.393565	-0.00571	0.005781	-0.000755	-0.554932	-0.2146	-0.438232
204.0	5.219173	0.568838	8.402637	-0.002925	0.007281	-0.005763	-0.558838	-0.221191	-0.429443
205.0	5.219572	0.54167	8.424515	-0.006498	0.006821	-0.003357	-0.557129	-0.212402	-0.44043
206.0	5.19531	0.562173	8.396627	-0.004423	0.008391	-0.005672	-0.55249	-0.218994	-0.438232
207.0	5.211188	0.564518	8.42725	-0.006497	0.00682	-0.003356	-0.559326	-0.2146	-0.438232
208.0	5.222646	0.571792	8.380921	-0.002923	0.007281	-0.005761	-0.561523	-0.212646	-0.429443
209.0	5.215903	0.568171	8.404713	-0.002635	0.00862	-0.006873	-0.559082	-0.2146	-0.436035
210.0	5.208221	0.591409	8.406987	-0.006073	0.00541	-0.004934	-0.557129	-0.210449	-0.433838
211.0	5.215783	0.540964	8.426907	-0.002135	0.006239	-0.003159	-0.559326	-0.2146	-0.438232
212.0	5.230671	0.570395	8.436033	-0.006208	0.008159	-0.004468	-0.554688	-0.218994	-0.438232
213.0	5.226571	0.548139	8.381015	-0.002921	0.007279	-0.005759	-0.561279	-0.216797	-0.436035
214.0	5.205695	0.5911	8.408573	-0.002633	0.008619	-0.006871	-0.557129	-0.2146	-0.442383
215.0	5.228552	0.57029	8.437353	-0.007282	0.007858	-0.005955	-0.559082	-0.216797	-0.436035
216.0	5.218426	0.544307	8.405683	-0.00292	0.007279	-0.005758	-0.559082	-0.2146	-0.433838
217.0	5.181255	0.58453	8.402895	-0.003785	0.003258	-0.002421	-0.559082	-0.2146	-0.436035
218.0	5.217441	0.544112	8.406307	-0.003344	0.008687	-0.004179	-0.559326	-0.210449	-0.438232
219.0	5.23215	0.573564	8.415552	-0.005917	0.009496	-0.005577	-0.559326	-0.212402	-0.44043
220.0	5.18023	0.557058	8.425649	-0.004706	0.007047	-0.004555	-0.554688	-0.216797	-0.44043
221.0	5.230789	0.573236	8.41642	-0.002557	0.007646	-0.001577	-0.559326	-0.212402	-0.438232
222.0	5.207581	0.566894	8.409958	-0.003992	0.006978	-0.007245	-0.557129	-0.2146	-0.436035
223.0	5.193821	0.58639	8.435589	-0.004705	0.007046	-0.004554	-0.559326	-0.2146	-0.438232
224.0	5.222709	0.569428	8.44103	-0.00234	0.009957	-0.007978	-0.559326	-0.2146	-0.438232
225.0	5.20553	0.566748	8.411237	-0.006781	0.005474	-0.002241	-0.559082	-0.216797	-0.438232
226.0	5.221501	0.569282	8.441787	0.00037	0.0064	-0.007046	-0.559082	-0.2146	-0.436035
227.0	5.226808	0.573058	8.418905	-0.006339	0.010901	-0.003995	-0.557129	-0.212402	-0.44043
228.0	5.213874	0.565441	8.466106	-0.002916	0.007276	-0.005754	-0.554688	-0.218994	-0.436035
229.0	5.208893	0.570311	8.389576	-0.004703	0.007044	-0.004552	-0.557129	-0.2146	-0.438232
230.0	5.215293	0.546914	8.388117	-0.00334	0.008683	-0.004174	-0.554932	-0.2146	-0.436035
231.0	5.195347	0.562814	8.437138	-0.001127	0.007507	-0.006953	-0.559326	-0.210449	-0.433838
232.0	5.22335	0.572813	8.421068	-0.00649	0.006811	-0.003351	-0.557129	-0.2146	-0.436035
233.0	5.222692	0.572583	8.421491	-0.005486	0.008082	-0.007151	-0.559326	-0.2146	-0.438232
234.0	5.222064	0.572625	8.421878	-0.002488	0.005867	-0.007331	-0.554688	-0.216797	-0.438232
235.0	5.227572	0.576282	8.398894	-0.005416	0.00711	-0.001861	-0.561279	-0.216797	-0.436035
236.0	5.204349	0.569656	8.39244	-0.005127	0.00845	-0.002971	-0.557129	-0.212646	-0.433838
237.0	5.220148	0.571997	8.423109	-0.0047	0.007042	-0.00455	-0.559326	-0.212402	-0.436035
238.0	5.197928	0.538431	8.438094	-0.005126	0.008449	-0.00297	-0.561523	-0.208252	-0.438232
239.0	5.205631	0.590982	8.449211	-0.006488	0.006809	-0.003349	-0.559326	-0.212402	-0.438232
240.0	5.214916	0.549217	8.368887	-0.002911	0.007273	-0.005749	-0.557129	-0.212402	-0.438232
241.0	5.195035	0.56511	8.417834	-0.00034	0.006466	-0.00435	-0.556885	-0.216797	-0.44043
242.0	5.210751	0.567687	8.448534	-0.007763	0.010226	-0.009656	-0.561279	-0.218994	-0.433838
243.0	5.206771	0.545423	8.393507	-0.003916	0.006	-0.001949	-0.559326	-0.210449	-0.433838
244.0	5.199059	0.568446	8.395801	-0.006197	0.008147	-0.004457	-0.561279	-0.218994	-0.433838
245.0	5.22099	0.574604	8.403102	-0.003199	0.005933	-0.004638	-0.559326	-0.212402	-0.438232
246.0	5.191786	0.564324	8.41989	-0.006486	0.006806	-0.003347	-0.554932	-0.212402	-0.438232
247.0	5.219781	0.574076	8.403889	-0.006195	0.008146	-0.004456	-0.561279	-0.2146	-0.442383
248.0	5.190342	0.563856	8.420812	-0.003045	0.010018	-0.005276	-0.563477	-0.2146	-0.436035
249.0	5.212307	0.570086	8.428092	-0.003778	0.003252	-0.002418	-0.556885	-0.216797	-0.442383
250.0	5.211688	0.569928	8.428486	-0.005614	0.010824	-0.006674	-0.559326	-0.2146	-0.438232
251.0	5.224133	0.550173	8.403742	-0.006484	0.006805	-0.003346	-0.561279	-0.2146	-0.436035
252.0	5.225743	0.599011	8.438199	-0.004695	0.007038	-0.004545	-0.557129	-0.212402	-0.44458
253.0	5.209637	0.569195	8.429803	-0.005122	0.008444	-0.002965	-0.561523	-0.212402	-0.44043
254.0	5.222141	0.549411	8.40503	-0.006193	0.008143	-0.004454	-0.559326	-0.210205	-0.442627
255.0	5.230805	0.574902	8.437622	-0.006483	0.006803	-0.003345	-0.557129	-0.210449	-0.436035
256.0	5.207548	0.56839	8.431148	-0.005184	0.009415	-0.00825	-0.554932	-0.212402	-0.436035
257.0	5.212985	0.572054	8.408244	-0.003913	0.005997	-0.001945	-0.557129	-0.212402	-0.438232
258.0	5.234906	0.57822	8.415574	-0.005473	0.008075	-0.007141	-0.561523	-0.212402	-0.44043
259.0	5.211695	0.571679	8.409069	-0.00434	0.007403	-0.000365	-0.559082	-0.2146	-0.436035
260.0	5.218135	0.548194	8.407597	-0.004401	0.008375	-0.00565	-0.557129	-0.2146	-0.436035
261.0	5.210346	0.571345	8.409928	-0.005762	0.006735	-0.006031	-0.552734	-0.212402	-0.442383
262.0	5.239372	0.554347	8.415356	-0.001832	0.007569	-0.004251	-0.559082	-0.218994	-0.436035
263.0	5.195895	0.590685	8.43592	-0.006053	0.005394	-0.004923	-0.559326	-0.210205	-0.44043
264.0	5.238125	0.554139	8.416147	-0.003039	0.010014	-0.005267	-0.557129	-0.210205	-0.44043
265.0	5.200533	0.594234	8.41353	-0.004048	0.00874	-0.001471	-0.554932	-0.212402	-0.44043
266.0	5.236595	0.553641	8.417131	-0.006907	0.008205	-0.001762	-0.561279	-0.2146	-0.436035
267.0	5.182701	0.591034	8.384184	-0.005468	0.008073	-0.007137	-0.552734	-0.210205	-0.44043
268.0	5.235158	0.553273	8.41805	-0.004398	0.008373	-0.005647	-0.561279	-0.216797	-0.436035
269.0	5.20384	0.597059	8.392023	-0.006478	0.006798	-0.003341	-0.557129	-0.212402	-0.438232
270.0	5.227744	0.548993	8.442197	-0.003619	0.007333	-0.003049	-0.557129	-0.210205	-0.442627
271.0	5.203504	0.569449	8.414292	-0.007684	0.009242	-0.004357	-0.557129	-0.212402	-0.438232
272.0	5.202899	0.569184	8.414684	-0.003482	0.004588	-0.003522	-0.557129	-0.212402	-0.436035
273.0	5.231883	0.552131	8.42016	-0.005602	0.010816	-0.006661	-0.559326	-0.212402	-0.44043
274.0	5.207744	0.572814	8.392179	-0.003053	0.003182	-0.005102	-0.555176	-0.208252	-0.44043
275.0	5.208226	0.545606	8.413907	-0.005115	0.008437	-0.002957	-0.561279	-0.2146	-0.433838
276.0	5.221948	0.602068	8.401826	-0.004687	0.007031	-0.004537	-0.559082	-0.218994	-0.442383
277.0	5.199752	0.568433	8.41668	-0.006184	0.008135	-0.004446	-0.554688	-0.216797	-0.442383
278.0	5.21232	0.548794	8.391902	-0.004394	0.00837	-0.005643	-0.554932	-0.2146	-0.44043
279.0	5.197297	0.595353	8.396198	-0.003673	0.008304	-0.00833	-0.557129	-0.2146	-0.438232
280.0	5.226297	0.578202	8.401684	-0.007196	0.00686	-0.000651	-0.559082	-0.216797	-0.433838
281.0	5.203112	0.571547	8.395138	-0.003324	0.00867	-0.004152	-0.554932	-0.212402	-0.438232
282.0	5.225775	0.550611	8.424052	-0.006319	0.010877	-0.003969	-0.556885	-0.218994	-0.436035
283.0	5.202466	0.544136	8.417564	-0.002894	0.007265	-0.005732	-0.559326	-0.212646	-0.433838
284.0	5.200795	0.571109	8.396604	-0.005113	0.008433	-0.002953	-0.554932	-0.2146	-0.436035
285.0	5.229708	0.554123	8.402142	-0.001533	0.008905	-0.005347	-0.554932	-0.212402	-0.44043
286.0	5.1993	0.570976	8.397538	-0.00618	0.008132	-0.004443	-0.559326	-0.212646	-0.433838
287.0	5.221105	0.577031	8.404992	-0.00618	0.008131	-0.004442	-0.563721	-0.208252	-0.438232
288.0	5.204106	0.574284	8.375106	-0.00575	0.006727	-0.006023	-0.559082	-0.218994	-0.433838
289.0	5.220786	0.549385	8.427225	-0.006901	0.008195	-0.001755	-0.557129	-0.2146	-0.436035
290.0	5.219173	0.576229	8.406247	-0.001049	0.006526	-0.001644	-0.557129	-0.2146	-0.438232
291.0	5.218382	0.576095	8.406747	-0.008157	0.011611	-0.00805	-0.561279	-0.2146	-0.438232
292.0	5.20122	0.573375	8.376961	-0.003613	0.007327	-0.003042	-0.559326	-0.212402	-0.44043
293.0	5.210647	0.571882	8.431048	-0.005884	0.009469	-0.005545	-0.559326	-0.212402	-0.438232
294.0	5.217083	0.548439	8.429579	-0.00468	0.007026	-0.004531	-0.557129	-0.2146	-0.44043
295.0	5.202029	0.594783	8.433901	-0.004816	0.009769	-0.004054	-0.554688	-0.216797	-0.436035
296.0	5.214653	0.575076	8.409131	-0.006469	0.006789	-0.003334	-0.563477	-0.2146	-0.438232
297.0	5.214122	0.574665	8.409488	-0.006762	0.005449	-0.002229	-0.557129	-0.210205	-0.438232
298.0	5.213418	0.574276	8.409951	-0.006312	0.010871	-0.003961	-0.557129	-0.2146	-0.436035
299.0	5.228912	0.576477	8.440806	-0.006175	0.008127	-0.004438	-0.557129	-0.212402	-0.438232
300.0	5.189337	0.567267	8.40395	-0.007671	0.009229	-0.004345	-0.557129	-0.2146	-0.44043
301.0	5.233519	0.579661	8.418532	-0.004814	0.009767	-0.004051	-0.552734	-0.2146	-0.433838
302.0	5.204001	0.569157	8.435335	-0.00767	0.009228	-0.004345	-0.559326	-0.212402	-0.44043
303.0	5.222796	0.553248	8.387297	-0.005106	0.008427	-0.002946	-0.563477	-0.216797	-0.438232
304.0	5.23118	0.578554	8.420061	-0.009459	0.00899	-0.003148	-0.554932	-0.212402	-0.438232
305.0	5.214116	0.575707	8.390226	-0.003315	0.008664	-0.00414	-0.565918	-0.212402	-0.44458
306.0	5.207094	0.571549	8.414054	-0.009164	0.010329	-0.004251	-0.559082	-0.2146	-0.436035
307.0	5.228727	0.577428	8.421662	-0.005535	0.009828	-0.001361	-0.563721	-0.212646	-0.436035
308.0	5.176681	0.560578	8.431415	-0.003744	0.010065	-0.002557	-0.554932	-0.2146	-0.436035
309.0	5.204619	0.57044	8.415661	-0.009026	0.007585	-0.004728	-0.559082	-0.218994	-0.436035
310.0	5.232572	0.580199	8.399911	-0.005534	0.009827	-0.00136	-0.557129	-0.2146	-0.438232
311.0	5.202983	0.569626	8.416727	-0.006305	0.010865	-0.003953	-0.559326	-0.212402	-0.44043
312.0	5.218498	0.571767	8.447569	-0.006462	0.006783	-0.003329	-0.554932	-0.212402	-0.438232
313.0	5.230071	0.579019	8.40155	-0.009296	0.013067	-0.003768	-0.556885	-0.21875	-0.442383
314.0	5.207742	0.545127	8.416362	-0.00603	0.005381	-0.004911	-0.55957	-0.208252	-0.436035
315.0	5.199951	0.568122	8.418702	-0.004036	0.008724	-0.00145	-0.559326	-0.210449	-0.436035
316.0	5.206352	0.544533	8.417261	-0.006597	0.009524	-0.002848	-0.557129	-0.212402	-0.436035
317.0	5.204495	0.571404	8.396492	-0.003446	0.011402	-0.003654	-0.559326	-0.2146	-0.438232
318.0	5.203665	0.571105	8.397026	-0.007956	0.007882	-0.003235	-0.557129	-0.2146	-0.438232
319.0	5.220294	0.546088	8.449111	-0.004963	0.00568	-0.003419	-0.55249	-0.216797	-0.436035
320.0	5.196214	0.566423	8.421124	-0.009451	0.008982	-0.003142	-0.554932	-0.2146	-0.438232
321.0	5.231348	0.55316	8.403455	-0.002582	0.008597	-0.006817	-0.554932	-0.210449	-0.436035
322.0	5.194705	0.5662	8.42207	-0.005436	0.008057	-0.007113	-0.563232	-0.221191	-0.433838
323.0	5.228947	0.580033	8.38304	-0.006889	0.008181	-0.001742	-0.557129	-0.2146	-0.433838
324.0	5.215858	0.572017	8.430008	-0.002106	0.006219	-0.003121	-0.561523	-0.210449	-0.438232
325.0	5.199047	0.569349	8.400006	-0.006457	0.006779	-0.003325	-0.557129	-0.2146	-0.438232
326.0	5.198385	0.569127	8.40043	-0.00437	0.008357	-0.005621	-0.557129	-0.210205	-0.44458
327.0	5.214019	0.571437	8.431185	-0.006025	0.005377	-0.004908	-0.554932	-0.2146	-0.436035
328.0	5.226892	0.55198	8.406304	-0.002874	0.007257	-0.005712	-0.559326	-0.212402	-0.436035
329.0	5.190273	0.565073	8.424877	-0.002578	0.008596	-0.006814	-0.559326	-0.210449	-0.436035
330.0	5.248049	0.558386	8.414215	-0.006024	0.005376	-0.004907	-0.557129	-0.2146	-0.433838
331.0	5.218749	0.548045	8.430766	-0.000746	0.007858	-0.00273	-0.559326	-0.2146	-0.438232
332.0	5.19366	0.595961	8.381461	-0.004368	0.008355	-0.005619	-0.554688	-0.218994	-0.433838
333.0	5.194951	0.541524	8.424496	-0.004959	0.005677	-0.003416	-0.557129	-0.212402	-0.436035
334.0	5.222153	0.578835	8.387356	-0.002872	0.007255	-0.00571	-0.554932	-0.2146	-0.442383
335.0	5.21519	0.574752	8.411088	-0.008717	0.008913	-0.005822	-0.557129	-0.2146	-0.436035
336.0	5.2208	0.578707	8.388207	0.002975	0.005597	-0.005597	-0.556885	-0.216797	-0.436035
337.0	5.185215	0.564667	8.428018	-0.006158	0.008114	-0.004423	-0.559326	-0.210449	-0.436035
338.0	5.213212	0.574761	8.412314	-0.003303	0.008655	-0.004125	-0.559326	-0.212402	-0.438232
339.0	5.212468	0.574692	8.412779	-0.004366	0.008353	-0.005616	-0.557129	-0.212402	-0.44043
340.0	5.18921	0.568187	8.406165	-0.004798	0.009753	-0.004032	-0.55249	-0.221191	-0.436035
341.0	5.233303	0.580737	8.420928	-0.004798	0.009753	-0.004032	-0.557129	-0.212402	-0.438232
342.0	5.181328	0.563845	8.430464	-0.006156	0.008112	-0.004422	-0.557129	-0.2146	-0.44043
343.0	5.221929	0.581717	8.368194	-0.00466	0.007013	-0.004514	-0.556885	-0.216797	-0.438232
344.0	5.193513	0.544336	8.406043	-0.002138	0.007192	-0.008391	-0.554932	-0.212402	-0.44043
345.0	5.191886	0.571471	8.385154	-0.006155	0.008111	-0.004421	-0.559326	-0.212402	-0.44043
346.0	5.214566	0.550622	8.414045	-0.002571	0.008591	-0.006806	-0.561035	-0.221191	-0.438232
347.0	5.17692	0.590654	8.411305	-0.005092	0.008412	-0.002929	-0.557129	-0.212402	-0.436035
348.0	5.235611	0.556816	8.422064	-0.003928	0.00695	-0.007196	-0.561279	-0.216797	-0.438232
349.0	5.205298	0.573626	8.41729	-0.003596	0.007313	-0.003021	-0.554932	-0.2146	-0.44043
350.0	5.218115	0.554194	8.392491	-0.004361	0.00835	-0.005612	-0.554688	-0.216797	-0.438232
351.0	5.227253	0.552493	8.446649	-0.007648	0.009207	-0.004326	-0.559082	-0.218994	-0.436035
352.0	5.193228	0.574545	8.365003	-0.002865	0.007251	-0.005703	-0.563721	-0.210449	-0.431641
353.0	5.224907	0.579353	8.426235	-0.006152	0.008108	-0.004418	-0.554932	-0.2146	-0.442383
354.0	5.21525	0.55347	8.39432	-0.005421	0.008047	-0.007101	-0.556885	-0.218994	-0.438232
355.0	5.201107	0.572732	8.419941	-0.0021	0.006213	-0.003112	-0.559326	-0.212402	-0.438232
356.0	5.200483	0.572581	8.420337	-0.006151	0.008107	-0.004417	-0.559326	-0.212402	-0.438232
357.0	5.207	0.549063	8.418832	-0.00509	0.008408	-0.002925	-0.561523	-0.212402	-0.436035
358.0	5.227848	0.582389	8.405112	-0.005716	0.006707	-0.006	-0.556885	-0.221191	-0.438232
359.0	5.205783	0.548643	8.419611	-0.003891	0.005971	-0.001919	-0.561523	-0.212402	-0.44043
360.0	5.204311	0.575397	8.398675	-0.0093	0.006223	-0.003616	-0.554688	-0.216797	-0.436035
361.0	5.227151	0.55442	8.427476	-0.000306	0.006454	-0.004302	-0.559082	-0.2146	-0.436035
362.0	5.203975	0.547757	8.420786	-0.009871	0.01036	-0.001546	-0.559082	-0.218994	-0.436035
363.0	5.202319	0.574643	8.399961	-0.001366	0.006152	-0.005792	-0.563721	-0.212646	-0.436035
364.0	5.216899	0.604213	8.409487	-0.006148	0.008104	-0.004414	-0.552734	-0.210449	-0.436035
365.0	5.195662	0.543268	8.445322	-0.003592	0.007309	-0.003016	-0.556885	-0.216797	-0.44043
366.0	5.229148	0.584555	8.385088	-0.004652	0.007007	-0.004507	-0.557129	-0.212402	-0.436035
367.0	5.19345	0.570247	8.424835	-0.000739	0.007852	-0.002715	-0.557129	-0.212402	-0.436035
368.0	5.222529	0.553148	8.430424	-0.009297	0.00622	-0.003615	-0.552734	-0.2146	-0.438232
369.0	5.198391	0.573773	8.402452	-0.004085	0.010661	-0.011973	-0.559082	-0.2146	-0.436035
370.0	5.22104	0.552917	8.431362	-0.004622	0.006028	0.000767	-0.554932	-0.210449	-0.436035
371.0	5.241926	0.586233	8.417661	-0.004353	0.008344	-0.005603	-0.561279	-0.2146	-0.442383
372.0	5.226012	0.556431	8.408969	-0.006145	0.008102	-0.004411	-0.550537	-0.212402	-0.438232
373.0	5.1956	0.573086	8.404224	-0.004352	0.008344	-0.005602	-0.559326	-0.210449	-0.436035
374.0	5.217353	0.579471	8.411832	-0.002856	0.007247	-0.005695	-0.559326	-0.2146	-0.438232
375.0	5.217593	0.552289	8.433536	-0.003292	0.008645	-0.00411	-0.557129	-0.210449	-0.433838
376.0	5.223128	0.556007	8.410789	-0.006579	0.009498	-0.002825	-0.561279	-0.2146	-0.436035
377.0	5.207873	0.602103	8.415231	-0.008261	0.007496	-0.007393	-0.554688	-0.220947	-0.440186
378.0	5.221679	0.555363	8.411731	-0.004025	0.008703	-0.001426	-0.552734	-0.212402	-0.433838
379.0	5.213858	0.578398	8.414073	-0.00451	0.004266	-0.00499	-0.561279	-0.2146	-0.433838
380.0	5.21429	0.551075	8.435658	-0.004647	0.007003	-0.004502	-0.557129	-0.212402	-0.438232
381.0	5.183934	0.567678	8.430867	-0.006141	0.008098	-0.004408	-0.554932	-0.210449	-0.436035
382.0	5.231906	0.562452	8.366805	-0.006141	0.008098	-0.004408	-0.559082	-0.2146	-0.433838
383.0	5.211177	0.57773	8.415779	-0.000139	0.010527	-0.004901	-0.557129	-0.212402	-0.44043
384.0	5.210421	0.577768	8.416245	-0.005704	0.0067	-0.005992	-0.552734	-0.2146	-0.436035
385.0	5.216932	0.554388	8.41474	-0.007659	0.01017	-0.009583	-0.561279	-0.2146	-0.44043
386.0	5.208949	0.577525	8.417173	-0.003151	0.005905	-0.004594	-0.554932	-0.2146	-0.44043
387.0	5.208371	0.57744	8.417536	-0.003587	0.007303	-0.003008	-0.554688	-0.218994	-0.436035
388.0	5.214899	0.554149	8.416016	-0.004047	0.009678	-0.006692	-0.557129	-0.2146	-0.438232
389.0	5.220506	0.558047	8.393235	-0.004644	0.007	-0.004499	-0.559326	-0.212402	-0.44043
390.0	5.228691	0.583654	8.426067	-0.00285	0.007243	-0.005688	-0.559082	-0.218994	-0.440186
391.0	5.196972	0.551443	8.386721	-0.008415	0.003415	-0.006782	-0.554932	-0.212402	-0.436035
392.0	5.211617	0.581035	8.39624	1e-06	0.007789	-0.005385	-0.557129	-0.212402	-0.436035
393.0	5.198242	0.572877	8.443153	-0.00761	0.008211	0.000958	-0.559326	-0.208252	-0.433838
394.0	5.219962	0.578897	8.450835	-0.005401	0.008035	-0.007085	-0.557129	-0.212402	-0.438232
395.0	5.216801	0.557041	8.395605	-0.006137	0.008093	-0.004403	-0.557129	-0.212402	-0.438232
396.0	5.209793	0.552839	8.419264	-0.004642	0.006998	-0.004497	-0.557129	-0.212402	-0.438232
397.0	5.231599	0.559094	8.426882	-0.004642	0.006998	-0.004496	-0.552734	-0.210205	-0.438232
398.0	5.18517	0.57325	8.391603	-0.006135	0.008092	-0.004402	-0.557129	-0.212646	-0.433838
399.0	5.214205	0.55623	8.397271	-0.003584	0.0073	-0.003004	-0.557129	-0.2146	-0.438232
400.0	5.213484	0.555955	8.397737	-0.006572	0.009488	-0.002816	-0.561279	-0.2146	-0.438232
401.0	5.212834	0.555729	8.398155	-0.005259	0.005298	-0.007573	-0.559326	-0.212402	-0.44043
402.0	5.222028	0.554127	8.452171	-0.003146	0.005902	-0.004589	-0.561523	-0.212646	-0.433838
403.0	5.234096	0.561883	8.406129	-0.008684	0.008882	-0.005798	-0.559326	-0.210449	-0.438232
404.0	5.203681	0.578497	8.401336	-0.002845	0.007241	-0.005683	-0.557129	-0.212402	-0.436035
405.0	5.204004	0.551126	8.422955	-0.007489	0.006448	-0.004797	-0.563477	-0.2146	-0.44043
406.0	5.224906	0.584481	8.409348	-0.005695	0.006693	-0.005985	-0.554688	-0.216797	-0.436035
407.0	5.179497	0.57137	8.395233	-0.007488	0.006448	-0.004796	-0.557129	-0.2146	-0.446777
408.0	5.224666	0.556721	8.43134	-0.005694	0.006692	-0.005984	-0.556885	-0.218994	-0.436035
409.0	5.201586	0.550085	8.424517	-0.00402	0.008693	-0.001414	-0.554932	-0.2146	-0.442383
410.0	5.222363	0.583434	8.411	-0.008243	0.007483	-0.007381	-0.557129	-0.212402	-0.442383
411.0	5.18521	0.519777	8.416085	-0.007787	0.005107	-0.003701	-0.556885	-0.218994	-0.438232
412.0	5.214941	0.578798	8.434919	-0.003143	0.005901	-0.004585	-0.556885	-0.216797	-0.438232
413.0	5.214387	0.578695	8.435268	-0.006747	0.006389	-0.007474	-0.557129	-0.2146	-0.436035
414.0	5.227536	0.559282	8.410384	-0.005992	0.005352	-0.004888	-0.554932	-0.212402	-0.438232
415.0	5.219623	0.582235	8.412784	-0.004019	0.008691	-0.001412	-0.559326	-0.212402	-0.44043
416.0	5.219876	0.554897	8.434426	-0.004951	0.006633	-0.008661	-0.559082	-0.216797	-0.438232
417.0	5.195883	0.575669	8.406355	-0.00539	0.008029	-0.007074	-0.557129	-0.2146	-0.436035
418.0	5.217672	0.58194	8.414014	-0.00388	0.005956	-0.001903	-0.554932	-0.2146	-0.438232
419.0	5.218044	0.554517	8.435585	-0.005689	0.006689	-0.00598	-0.559326	-0.2146	-0.44043
420.0	5.19411	0.575153	8.407486	-0.004634	0.006992	-0.004488	-0.557129	-0.212402	-0.442383
421.0	5.216801	0.55431	8.436367	-0.001785	0.00754	-0.004184	-0.561523	-0.212402	-0.436035
422.0	5.186464	0.570935	8.431494	-0.006428	0.006745	-0.0033	-0.55249	-0.218994	-0.436035
423.0	5.214637	0.581232	8.415944	-0.002839	0.007237	-0.005675	-0.559082	-0.2146	-0.436035
424.0	5.221225	0.557852	8.414398	-0.006566	0.009478	-0.002806	-0.561279	-0.216797	-0.433838
425.0	5.219638	0.584767	8.393624	-0.003879	0.005954	-0.001902	-0.559326	-0.212402	-0.436035
426.0	5.213583	0.553138	8.438433	-0.008975	0.007533	-0.004696	-0.556885	-0.216797	-0.44043
427.0	5.219303	0.556763	8.415663	-0.007179	0.007779	-0.005883	-0.563232	-0.221191	-0.438232
428.0	5.217675	0.583712	8.394918	-0.005071	0.008385	-0.002899	-0.561523	-0.212402	-0.438232
429.0	5.217826	0.556237	8.416613	-0.005823	0.00942	-0.005483	-0.559326	-0.210205	-0.442627
430.0	5.203371	0.575331	8.442298	-0.002836	0.007236	-0.005672	-0.557129	-0.212402	-0.436035
431.0	5.224084	0.609042	8.428861	-0.002974	0.009969	-0.005177	-0.561523	-0.212402	-0.436035
432.0	5.222956	0.532815	8.415974	-0.008532	0.006136	-0.006281	-0.556885	-0.216797	-0.44043
433.0	5.194939	0.570942	8.466781	-0.001029	0.006502	-0.001594	-0.559326	-0.210205	-0.44043
434.0	5.220853	0.559714	8.395536	-0.006123	0.00808	-0.004389	-0.554932	-0.212402	-0.433838
435.0	5.213787	0.555453	8.419168	-0.004629	0.006988	-0.004483	-0.559082	-0.216797	-0.44043
436.0	5.212208	0.582475	8.3984	-0.006122	0.008079	-0.004388	-0.559326	-0.2146	-0.44043
437.0	5.196493	0.552616	8.389498	-0.004628	0.006987	-0.004482	-0.557129	-0.212402	-0.438232
438.0	5.211856	0.554854	8.420403	-0.004628	0.006987	-0.004482	-0.557129	-0.212402	-0.438232
439.0	5.211114	0.554497	8.420885	-0.01016	0.009957	-0.005689	-0.559326	-0.210449	-0.438232
440.0	5.203035	0.577242	8.423397	-0.004316	0.007345	-0.00031	-0.554688	-0.218994	-0.438232
441.0	5.203187	0.549746	8.445069	-0.007622	0.010149	-0.009553	-0.554932	-0.212402	-0.44458
442.0	5.208987	0.553742	8.422251	-0.000889	0.003768	-0.002087	-0.559326	-0.212402	-0.436035
443.0	5.207553	0.580867	8.401398	-0.006119	0.008077	-0.004385	-0.557129	-0.2146	-0.44043
444.0	5.185375	0.546892	8.415717	-0.005066	0.008379	-0.002893	-0.559082	-0.216797	-0.438232
445.0	5.22213	0.582758	8.432813	-0.004625	0.006985	-0.00448	-0.561279	-0.2146	-0.44043
446.0	5.199089	0.576092	8.425911	-0.006118	0.008076	-0.004384	-0.557129	-0.2146	-0.436035
447.0	5.213165	0.529443	8.422255	-0.003875	0.005949	-0.001896	-0.557373	-0.206055	-0.44043
448.0	5.210676	0.583639	8.380336	-0.006558	0.009469	-0.002796	-0.557129	-0.210205	-0.442627
449.0	5.204498	0.552004	8.42514	-0.003874	0.005949	-0.001895	-0.559326	-0.212402	-0.436035
450.0	5.210226	0.555781	8.402396	-0.008359	0.010201	-0.00687	-0.559326	-0.210449	-0.436035
451.0	5.203024	0.551572	8.426078	-0.002828	0.007232	-0.005663	-0.556885	-0.216797	-0.442383
452.0	5.207876	0.582785	8.382136	-0.006116	0.008074	-0.004382	-0.556885	-0.216797	-0.44043
453.0	5.194344	0.574427	8.428951	-0.004622	0.006983	-0.004477	-0.559082	-0.216797	-0.436035
454.0	5.200168	0.578341	8.406145	-0.004622	0.006983	-0.004477	-0.554932	-0.212402	-0.433838
455.0	5.23568	0.565346	8.388691	-0.006859	0.008127	-0.001703	-0.561523	-0.210449	-0.438232
456.0	5.205308	0.581866	8.383795	-0.004929	0.006625	-0.008646	-0.554932	-0.212402	-0.438232
457.0	5.227035	0.587989	8.391565	-0.007602	0.00818	0.000976	-0.557129	-0.210205	-0.438232
458.0	5.198431	0.54981	8.429028	-0.005369	0.008018	-0.007057	-0.561279	-0.2146	-0.436035
459.0	5.210684	0.557734	8.383055	-0.007467	0.00643	-0.004782	-0.559326	-0.212402	-0.438232
460.0	5.189728	0.572479	8.431926	-0.004759	0.009713	-0.003976	-0.559326	-0.2146	-0.44043
461.0	5.226016	0.532421	8.435712	-0.003266	0.008623	-0.004071	-0.556885	-0.216797	-0.436035
462.0	5.230835	0.563602	8.39183	-0.006112	0.00807	-0.004378	-0.557129	-0.2146	-0.431641
463.0	5.194007	0.576029	8.410113	-0.005669	0.006678	-0.005966	-0.559082	-0.216797	-0.433838
464.0	5.223007	0.559119	8.4159	-0.003707	0.010015	-0.002481	-0.557129	-0.210205	-0.44043
465.0	5.193514	0.548464	8.432146	-0.005226	0.005285	-0.007554	-0.559326	-0.210449	-0.436035
466.0	5.22174	0.55884	8.416705	-0.00611	0.008069	-0.004377	-0.559326	-0.212402	-0.438232
467.0	5.19134	0.575457	8.411798	-0.002822	0.007229	-0.005657	-0.563721	-0.212402	-0.438232
468.0	5.211941	0.533297	8.384895	-0.001329	0.00614	-0.005752	-0.559326	-0.210449	-0.436035
469.0	5.226296	0.562999	8.394698	-0.004314	0.008318	-0.00556	-0.554932	-0.2146	-0.44043
470.0	5.241453	0.565298	8.425721	-0.003263	0.008621	-0.004067	-0.554932	-0.212402	-0.438232
471.0	5.188541	0.575361	8.413531	-0.008347	0.010191	-0.006861	-0.552734	-0.212402	-0.438232
472.0	5.217486	0.558503	8.419365	-0.00072	0.007835	-0.002669	-0.561279	-0.216797	-0.436035
473.0	5.209491	0.581826	8.42178	-0.000277	0.006443	-0.004258	-0.561523	-0.210449	-0.438232
474.0	5.216111	0.55868	8.420205	-0.0055	0.010743	-0.006551	-0.554932	-0.2146	-0.438232
475.0	5.266426	0.575437	8.412352	-0.007599	0.009154	-0.004278	-0.559326	-0.210449	-0.438232
476.0	5.19205	0.551466	8.413923	-0.009091	0.010241	-0.004182	-0.554932	-0.210205	-0.44043
477.0	5.213572	0.55773	8.42184	-0.001464	0.008869	-0.005248	-0.559082	-0.2146	-0.433838
478.0	5.212787	0.557597	8.422335	-0.007598	0.009152	-0.004277	-0.559082	-0.218994	-0.440186
479.0	5.196096	0.555034	8.392284	-0.004005	0.009653	-0.006644	-0.557129	-0.2146	-0.44043
480.0	5.211293	0.557567	8.423261	0.002266	0.005657	-0.002858	-0.559082	-0.216797	-0.438232
481.0	5.19473	0.555306	8.393112	-0.007594	0.010133	-0.009533	-0.559326	-0.212402	-0.438232
482.0	5.247098	0.594147	8.441006	0.008261	0.008104	-0.003325	-0.561035	-0.221191	-0.429443
483.0	5.238648	0.541633	8.430044	-0.005939	0.01213	-0.004958	-0.554932	-0.212402	-0.442383
484.0	5.207883	0.558956	8.425278	0.013513	0.011585	-0.006371	-0.563477	-0.2146	-0.438232
485.0	5.236728	0.618703	8.444799	-0.009227	0.012966	-0.00368	-0.559082	-0.218994	-0.433838
486.0	5.219619	0.539633	8.401414	-0.012071	0.01241	-0.003989	-0.559082	-0.216797	-0.436035
487.0	5.218689	0.615528	8.415634	0.006188	0.013311	-0.001134	-0.554932	-0.210449	-0.436035
488.0	5.245947	0.549541	8.38727	-0.021465	0.020323	-0.001825	-0.556885	-0.221191	-0.438232
489.0	5.232258	0.589378	8.469394	0.000533	0.019979	-0.00709	-0.561523	-0.212402	-0.44043
490.0	5.280639	0.633696	8.441151	-0.004836	0.025038	0.001632	-0.561279	-0.216797	-0.44043
491.0	5.286521	0.581373	8.461864	-0.033982	0.032149	0.006292	-0.563721	-0.212402	-0.44458
492.0	5.276883	0.498907	8.473453	-0.013451	0.038703	0.006309	-0.554932	-0.2146	-0.438232
493.0	5.280682	0.549817	8.487445	-0.023714	0.050368	0.006407	-0.559082	-0.218994	-0.440186
494.0	5.335307	0.438241	8.487727	-0.020212	0.060382	0.004486	-0.556885	-0.218994	-0.438232
495.0	5.345047	0.51532	8.535911	-0.004813	0.084802	0.002094	-0.563721	-0.210205	-0.44043
496.0	5.365512	0.422019	8.533501	-0.007233	0.129019	0.000813	-0.552734	-0.212402	-0.44043
497.0	5.281305	0.475052	8.554372	0.015846	0.123138	-0.00805	-0.552979	-0.208008	-0.44043
498.0	5.19157	0.392712	8.626932	-0.025616	0.134454	-0.006227	-0.554932	-0.212402	-0.438232
499.0	5.280137	0.281678	8.513835	0.029683	0.132878	-0.019959	-0.552734	-0.2146	-0.44458
500.0	5.290841	0.341461	8.563629	0.045524	0.153729	-0.033722	-0.554932	-0.212402	-0.44458
501.0	5.380651	0.402582	8.612343	0.038447	0.170879	-0.039036	-0.552734	-0.212402	-0.442383
502.0	5.324496	0.356957	8.471942	0.053904	0.197869	-0.040661	-0.552734	-0.2146	-0.442383
503.0	5.139249	0.38136	8.565033	0.076581	0.21325	-0.052038	-0.550293	-0.220947	-0.448975
504.0	5.41584	0.48365	8.653843	0.158782	0.221489	-0.070762	-0.54834	-0.2146	-0.44043
505.0	5.172109	0.614403	8.592902	0.149408	0.250806	-0.066925	-0.550537	-0.212402	-0.44458
506.0	5.238867	0.579908	8.623475	0.125616	0.257057	-0.064676	-0.54834	-0.214355	-0.451172
507.0	5.199808	0.620499	8.584345	0.171675	0.279151	-0.058809	-0.545898	-0.21875	-0.448975
508.0	5.167535	0.660446	8.599693	0.16134	0.289356	-0.036956	-0.539551	-0.214355	-0.453369
509.0	4.884694	0.571415	8.515942	0.134992	0.299666	-0.011113	-0.541748	-0.21875	-0.455566
510.0	4.749802	0.506006	8.377621	0.140579	0.278402	0.000585	-0.543701	-0.220947	-0.451172
511.0	4.711379	0.692054	8.438867	0.204098	0.2507	0.00151	-0.539307	-0.2229	-0.453369
512.0	4.578841	0.929747	8.423668	0.169128	0.226861	0.004736	-0.537354	-0.216553	-0.451172
513.0	4.525645	0.833101	8.324853	0.109444	0.195813	0.005352	-0.537109	-0.225098	-0.453125
514.0	4.606251	0.819288	8.385289	0.121662	0.165509	0.003548	-0.539307	-0.220703	-0.45752
515.0	4.607137	0.880186	8.456519	0.095606	0.144718	0.020116	-0.541504	-0.2229	-0.455322
516.0	4.625402	0.896724	8.447343	0.074124	0.125272	0.026479	-0.537109	-0.225098	-0.45752
517.0	4.60935	0.874787	8.419457	0.060713	0.09947	0.035094	-0.537109	-0.2229	-0.459717
518.0	4.58702	0.87004	8.468953	0.041455	0.078926	0.038666	-0.537354	-0.220703	-0.459717
519.0	4.611253	0.90889	8.435388	0.043114	0.055794	0.046587	-0.541504	-0.220703	-0.453369
520.0	4.548992	1.023491	8.357704	0.033021	0.036425	0.044504	-0.537109	-0.225098	-0.459717
521.0	4.400467	1.078624	8.344271	0.002799	0.00028	0.043835	-0.539551	-0.218506	-0.45752
522.0	4.563798	0.96901	8.432528	-0.035895	-0.030767	0.041917	-0.537109	-0.220703	-0.451172
523.0	4.475585	0.686555	8.252242	-0.040368	-0.052146	0.035943	-0.537354	-0.216553	-0.455566
524.0	4.049775	0.576089	8.114929	-0.009891	-0.101582	0.021341	-0.534912	-0.2229	-0.453369
525.0	4.477034	0.802116	8.334377	0.038127	-0.16535	0.007163	-0.539307	-0.2229	-0.455322
526.0	4.72503	1.025496	8.464043	-0.000334	-0.183972	0.010603	-0.541504	-0.2229	-0.455322
527.0	4.696776	1.135894	8.48417	-0.031774	-0.206642	0.01541	-0.541504	-0.220947	-0.451172
528.0	4.91312	1.212282	8.603675	-0.085061	-0.221739	0.029087	-0.543701	-0.220947	-0.448975
529.0	4.910602	1.118505	8.574014	-0.131271	-0.214801	0.035582	-0.541504	-0.220947	-0.44458
530.0	5.069638	1.023051	8.544456	-0.133457	-0.214734	0.04378	-0.548096	-0.2229	-0.453369
531.0	5.109973	0.960809	8.586809	-0.159235	-0.193298	0.052458	-0.550293	-0.220947	-0.448975
532.0	5.67286	0.909424	9.0309	-0.195077	-0.162955	0.06058	-0.546143	-0.216553	-0.446777
533.0	5.395015	0.900769	8.625689	-0.155448	-0.084361	0.065974	-0.550537	-0.212402	-0.448975
534.0	5.036551	0.696564	8.814984	-0.287395	-0.083986	0.082706	-0.54834	-0.216553	-0.448975
535.0	5.257608	0.174987	8.769693	-0.248558	-0.070947	0.078183	-0.550781	-0.210205	-0.446777
536.0	5.122291	0.402519	8.66126	-0.078216	-0.052771	0.057655	-0.550537	-0.214355	-0.453369
537.0	5.186333	0.530324	8.753888	-0.14021	-0.041052	0.058568	-0.54834	-0.212402	-0.448975
538.0	5.069301	0.262995	8.542278	-0.124948	-0.017619	0.048229	-0.552979	-0.210205	-0.448975
539.0	5.079851	0.529451	8.670028	-0.032802	-0.019455	0.035571	-0.554932	-0.210205	-0.448975
540.0	4.985049	0.574155	8.596952	-0.098284	-0.010904	0.038338	-0.550781	-0.210205	-0.453369
541.0	5.008426	0.495269	8.591286	-0.071713	-0.018283	0.037881	-0.550781	-0.208008	-0.44458
542.0	5.024355	0.495394	8.544805	-0.071023	-0.015645	0.035758	-0.554932	-0.212402	-0.448975
543.0	5.05634	0.595878	8.598593	-0.061013	-0.020888	0.031519	-0.552979	-0.208008	-0.446777
544.0	5.0721	0.492521	8.559719	-0.091133	-0.014045	0.034385	-0.552979	-0.210205	-0.451172
545.0	5.02974	0.492896	8.599225	-0.068293	-0.014517	0.026734	-0.552979	-0.208008	-0.448975
546.0	5.015458	0.461881	8.511945	-0.074742	-0.015567	0.028724	-0.555176	-0.208008	-0.448975
547.0	5.032767	0.47857	8.598263	-0.052589	-0.018684	0.023193	-0.557373	-0.205811	-0.451172
548.0	5.026093	0.370774	8.550968	-0.072379	-0.01573	0.020741	-0.557617	-0.203613	-0.457764
549.0	5.02762	0.365518	8.550296	-0.032549	-0.018683	0.009896	-0.557373	-0.203613	-0.448975
550.0	5.066781	0.474177	8.581355	-0.027558	-0.016565	0.008016	-0.552979	-0.208008	-0.453369
551.0	5.096291	0.384272	8.495924	-0.039745	-0.014981	0.004571	-0.557129	-0.210205	-0.451172
552.0	5.062075	0.519345	8.561039	-0.006427	-0.014205	0.006183	-0.55542	-0.199463	-0.447021
553.0	5.041603	0.613934	8.545296	-0.044721	-0.017111	0.006469	-0.557617	-0.199463	-0.444824
554.0	5.057349	0.617743	8.498762	-0.047802	-0.016953	0.017184	-0.553223	-0.203857	-0.444824
555.0	5.05145	0.634644	8.500428	-0.079236	-0.011753	0.019702	-0.562012	-0.199463	-0.451172
556.0	5.023232	0.540526	8.500938	-0.07781	-0.023319	0.024362	-0.557861	-0.195068	-0.447021
557.0	5.047387	0.538138	8.508338	-0.092383	-0.018933	0.029529	-0.562256	-0.190918	-0.44043
558.0	5.01211	0.493061	8.489696	-0.093343	-0.022968	0.032777	-0.56665	-0.190918	-0.442627
559.0	5.020586	0.439486	8.430874	-0.09254	-0.023031	0.030133	-0.551514	-0.190918	-0.436035
560.0	5.045335	0.408866	8.458775	-0.092185	-0.031181	0.028552	-0.5625	-0.18457	-0.44043
561.0	5.018522	0.417592	8.451748	-0.079472	-0.0284	0.015136	-0.553711	-0.186523	-0.444824
562.0	5.000137	0.396802	8.519337	-0.084262	-0.036995	0.021244	-0.553711	-0.186523	-0.449219
563.0	5.032147	0.323379	8.488213	-0.082924	-0.041124	0.01644	-0.555908	-0.186523	-0.449219
564.0	5.051069	0.345904	8.496377	-0.063156	-0.048802	0.008281	-0.555908	-0.186523	-0.442627
565.0	5.011538	0.403565	8.492758	-0.064226	-0.050134	0.012056	-0.551514	-0.186523	-0.444824
566.0	5.01518	0.349181	8.454966	-0.069332	-0.055315	0.009254	-0.549072	-0.193115	-0.44043
567.0	4.984021	0.300919	8.510908	-0.055136	-0.062083	0.010391	-0.551514	-0.188721	-0.444824
568.0	4.975021	0.238908	8.518068	-0.054139	-0.077012	0.006084	-0.549316	-0.190674	-0.449219
569.0	4.945025	0.200369	8.495668	-0.017175	-0.096295	-0.001785	-0.55127	-0.195068	-0.448975
570.0	4.962703	0.197106	8.544127	-0.001013	-0.123431	-0.008756	-0.549316	-0.190918	-0.447021
571.0	5.017189	0.190646	8.497186	0.028021	-0.138982	-0.019209	-0.557861	-0.195068	-0.444824
572.0	5.059764	0.281567	8.489262	0.052563	-0.158076	-0.029334	-0.549072	-0.195068	-0.442627
573.0	5.146694	0.339134	8.460691	0.075138	-0.161518	-0.041898	-0.555664	-0.195068	-0.447021
574.0	5.13798	0.341179	8.444296	0.06466	-0.163821	-0.045754	-0.553467	-0.195313	-0.44043
575.0	5.085758	0.248166	8.474759	0.072553	-0.161217	-0.047261	-0.557861	-0.195068	-0.444824
576.0	5.193105	0.24622	8.361165	0.117367	-0.186795	-0.046154	-0.553467	-0.195068	-0.442627
577.0	5.258224	0.380219	8.338191	0.142667	-0.139183	-0.071647	-0.559814	-0.19751	-0.44043
578.0	5.193238	0.484847	8.480328	0.108886	-0.132296	-0.075335	-0.566406	-0.19751	-0.44043
579.0	5.27556	0.452109	8.380767	0.127008	-0.15395	-0.061708	-0.559814	-0.199463	-0.438232
580.0	5.317575	0.524489	8.392092	0.114786	-0.133452	-0.063932	-0.55957	-0.203857	-0.436035
581.0	5.227999	0.496537	8.477973	0.095599	-0.120407	-0.057221	-0.557617	-0.199707	-0.433838
582.0	5.23642	0.485978	8.41494	0.08126	-0.134096	-0.058033	-0.55957	-0.203857	-0.436035
583.0	5.155874	0.433313	8.498342	0.096931	-0.15292	-0.0563	-0.561768	-0.203857	-0.44043
584.0	5.185771	0.47484	8.498273	0.12434	-0.200187	-0.044068	-0.563721	-0.208252	-0.433838
585.0	5.280985	0.494362	8.406504	0.14078	-0.217432	-0.039115	-0.561768	-0.203857	-0.431641
586.0	5.163665	0.507989	8.48526	0.126609	-0.231269	-0.03969	-0.561523	-0.212646	-0.425293
587.0	4.893943	0.396824	8.831259	0.128628	-0.312569	-0.071934	-0.566162	-0.204102	-0.42749
588.0	5.348143	0.492619	8.325405	0.277932	-0.355572	-0.04195	-0.568115	-0.210449	-0.425293
589.0	4.134889	1.156278	9.672554	0.201746	-0.445392	-0.036519	-0.57251	-0.208496	-0.425293
590.0	4.643097	0.151542	9.107432	-0.007474	-0.635673	-0.01059	-0.572266	-0.212891	-0.418701
591.0	4.631255	0.251217	8.99063	0.287871	-0.852892	-0.062169	-0.57666	-0.210693	-0.412109
592.0	5.188649	1.269355	9.067317	0.396767	-1.054282	-0.063171	-0.581055	-0.212891	-0.405762
593.0	4.74137	1.471507	9.390354	0.102911	-1.2338	-0.0098	-0.583252	-0.210938	-0.403564
594.0	4.787909	0.61443	9.169769	-0.092903	-1.47372	0.0118	-0.592041	-0.208984	-0.38623
595.0	4.76396	0.484357	9.088082	0.089654	-1.736744	0.003323	-0.594238	-0.209229	-0.379639
596.0	4.62231	0.578775	9.232781	0.113739	-1.980683	-0.00526	-0.600342	-0.218018	-0.364502
597.0	4.328455	0.442606	9.31154	0.013723	-2.199828	-0.023025	-0.620117	-0.209473	-0.35376
598.0	4.50223	-0.003574	9.006281	0.042472	-2.48364	-0.097467	-0.626465	-0.214111	-0.338623
599.0	4.54909	-0.111638	8.845466	0.297683	-2.772594	-0.151106	-0.633057	-0.212158	-0.323486
600.0	4.580071	-0.274008	8.958472	0.455106	-3.092873	-0.175514	-0.643799	-0.216797	-0.301758
601.0	4.701722	-0.735885	8.648547	0.54121	-3.455869	-0.310309	-0.652344	-0.217041	-0.280029
602.0	4.755851	-1.055964	8.395065	0.888314	-3.853912	-0.482285	-0.660645	-0.228271	-0.25415
603.0	5.157605	-0.867735	8.063981	1.43797	-4.292005	-0.701563	-0.668945	-0.233154	-0.219238
604.0	6.047996	0.576104	7.658423	2.092481	-4.730502	-0.91484	-0.679443	-0.244385	-0.182373
605.0	7.950909	2.15005	9.072582	2.462037	-5.124813	-0.822074	-0.687744	-0.249268	-0.147705
606.0	9.146485	0.837423	8.882241	1.202343	-5.351752	-0.513116	-0.692139	-0.251953	-0.11084
607.0	12.075726	0.105729	10.245414	1.008354	-5.592795	-0.800544	-0.695801	-0.263184	-0.071777
608.0	17.473297	-0.178301	10.266968	1.180399	-5.574929	-0.707886	-0.696045	-0.259521	-0.030762
609.0	17.905196	-0.904765	9.74864	0.711489	-4.986829	-0.881719	-0.695801	-0.261963	-0.002441
610.0	16.458744	-2.908411	10.13559	0.091166	-4.179169	-1.251604	-0.686768	-0.266602	0.01709
611.0	14.080324	-5.887255	10.176796	0.802095	-3.532744	-1.828602	-0.686523	-0.275391	0.034424
612.0	12.132025	-6.443597	14.700027	2.391611	-2.548052	-2.138625	-0.67749	-0.281982	0.047363
613.0	9.101448	-2.756668	17.702161	3.403089	-1.56409	-1.851523	-0.677246	-0.28418	0.060547
614.0	6.776833	1.497394	17.369219	3.012283	-0.769875	-1.56383	-0.666748	-0.277832	0.05835
615.0	8.768568	1.350961	19.863914	0.489576	-0.028769	-0.395227	-0.666748	-0.275391	0.04541
616.0	3.605352	-4.750506	12.219903	-1.847002	0.90388	0.47428	-0.665283	-0.257813	0.021484
617.0	-0.901422	-9.450522	8.96584	-0.294052	1.177579	0.453608	-0.659668	-0.240234	-0.002441
618.0	-0.304187	-3.786202	9.165632	2.36408	1.094537	0.235563	-0.6604	-0.2229	-0.017822
619.0	-0.486547	0.760534	11.23243	1.654791	1.221471	0.021789	-0.645752	-0.20752	-0.035156
620.0	0.28257	1.25361	11.211108	-0.327174	1.416141	0.165638	-0.633301	-0.192139	-0.05249
621.0	0.487977	-1.536405	10.371552	-1.089216	1.596785	0.21182	-0.623291	-0.168213	-0.074463
622.0	1.056231	-2.189648	10.366917	-0.237751	1.837681	0.136857	-0.604492	-0.150635	-0.093994
623.0	1.778319	-0.57274	11.223327	-0.037309	2.106989	-0.125902	-0.585449	-0.135254	-0.115723
624.0	2.534354	0.559317	11.314166	-0.460763	2.533599	-0.169744	-0.560547	-0.109131	-0.126465
625.0	3.031049	0.672332	11.044111	-0.765102	2.823281	0.065438	-0.537354	-0.087402	-0.135254
626.0	3.043078	0.228372	10.432457	-0.995263	3.189502	0.204567	-0.503662	-0.061523	-0.141846
627.0	2.965913	-0.183182	9.911071	-1.056889	3.401904	0.263697	-0.482666	-0.037842	-0.137695
628.0	3.115506	0.161822	9.696174	-0.966191	3.559695	0.284294	-0.453125	-0.013916	-0.135498
629.0	3.5769	0.818173	9.933611	-1.070899	3.681529	0.299892	-0.425781	0.011719	-0.118164
630.0	4.370698	0.984867	10.218415	-1.21505	3.79943	0.3426	-0.406982	0.030762	-0.087891
631.0	5.002872	1.032897	10.364262	-1.295169	3.956064	0.332912	-0.407471	0.049561	-0.055664
632.0	5.467764	1.218889	10.722115	-1.376493	4.113042	0.290885	-0.409912	0.059814	-0.012207
633.0	5.921654	1.294115	10.976608	-1.464515	4.193097	0.268538	-0.42749	0.065674	0.018066
634.0	6.375115	1.226475	11.245298	-1.605541	4.211223	0.276165	-0.455322	0.052246	0.050537
635.0	7.02489	0.890117	11.670161	-1.791872	4.215825	0.346663	-0.488037	0.056152	0.065674
636.0	7.555164	0.100125	11.640833	-1.987864	4.11023	0.435535	-0.537598	0.043213	0.063477
637.0	7.85252	-0.274949	11.646354	-1.896923	4.041962	0.573193	-0.584717	0.023926	0.04834
638.0	8.413866	0.029729	12.119503	-1.855429	3.841984	0.72181	-0.623779	0.015381	0.022217
639.0	9.372644	0.937084	12.897906	-1.844462	3.684588	0.871153	-0.65332	-0.008057	-0.005859
640.0	9.776945	1.567642	12.927788	-1.965418	3.482223	0.994134	-0.685547	-0.020264	-0.049316
641.0	11.039725	1.698249	13.008281	-2.094549	3.242555	1.107021	-0.711182	-0.037109	-0.096924
642.0	13.20348	1.2913	12.943017	-2.076862	3.0547	1.206599	-0.736572	-0.058105	-0.144531
643.0	15.138981	1.89629	11.628044	-1.556508	2.970928	1.191428	-0.760742	-0.057373	-0.205322
644.0	14.893201	6.171142	10.649296	0.093923	2.915746	0.58348	-0.773438	-0.067139	-0.272461
645.0	18.829829	12.080965	10.353914	1.203416	2.680765	0.224452	-0.780273	-0.068359	-0.343994
646.0	19.507683	14.608693	9.759962	-0.372831	2.645886	0.680267	-0.776611	-0.054688	-0.402588
647.0	21.842946	11.469633	5.242323	-3.427534	2.464008	0.341902	-0.74707	-0.032227	-0.463135
648.0	22.970418	5.07565	-1.078876	-2.949692	2.346004	0.774538	-0.710938	-0.011963	-0.519531
649.0	24.071156	0.453641	-6.018591	-0.699527	2.655558	0.313525	-0.674316	-0.004639	-0.560791
650.0	23.485566	3.577247	-8.373661	0.904355	2.258946	-0.340875	-0.63916	-0.010742	-0.580322
651.0	24.152711	6.516369	-12.41414	1.111453	1.578072	0.181081	-0.608887	-0.010498	-0.595215
652.0	23.157876	7.004898	-14.873846	-0.562673	1.29557	0.515054	-0.581055	0.004883	-0.608398
653.0	21.175955	3.535766	-15.358819	-1.581773	0.719544	1.160155	-0.569092	0.030762	-0.617188
654.0	14.240529	-4.080988	-18.85888	-1.350182	-0.360712	1.650012	-0.572266	0.056641	-0.608643
655.0	5.593884	-8.543414	-23.399595	2.07329	-1.852055	1.703032	-0.573975	0.043457	-0.602051
656.0	-6.818409	12.234634	10.07361	7.175391	-1.02155	-0.979032	-0.583496	0.013428	-0.599854
657.0	6.197636	31.495846	31.80628	5.702461	-4.933874	1.784534	-0.609619	0.012939	-0.569336
658.0	21.037426	23.005933	4.940475	0.215431	-5.175412	0.279269	-0.627686	0.027588	-0.558594
659.0	17.306523	16.884391	12.406754	-2.14308	-1.227361	0.257894	-0.628662	0.055664	-0.558838
660.0	14.58424	7.095527	22.28737	-5.769414	-2.263995	0.231297	-0.63916	0.098633	-0.55249
661.0	20.986939	-7.461359	12.976255	-4.600802	-1.998954	1.869832	-0.64917	0.132813	-0.54834
662.0	0.396095	-12.973708	4.246428	0.649887	-0.427988	0.513014	-0.64624	0.115723	-0.543945
663.0	6.289081	0.237683	10.5352	4.309147	-2.049845	-1.700833	-0.664795	0.087402	-0.537354
664.0	8.596131	5.048143	9.81036	1.823159	-1.057538	-0.939078	-0.666748	0.085205	-0.535156
665.0	5.492195	0.958728	10.908116	-2.438062	-0.529737	0.437702	-0.670166	0.115234	-0.531006
666.0	8.673694	-5.050618	8.502401	-1.656714	-0.699972	0.09295	-0.670166	0.115234	-0.524658
667.0	5.204157	-2.353113	7.541146	2.464313	-0.447125	-0.60517	-0.666992	0.091553	-0.526611
668.0	5.408135	2.633379	10.012027	2.135203	-0.588867	-0.741069	-0.675537	0.084961	-0.52002
669.0	6.516461	3.736392	9.812025	0.137626	-0.312232	-0.322632	-0.679932	0.087158	-0.52002
670.0	5.693897	1.286713	8.775726	-0.342193	-0.265941	-0.067869	-0.67334	0.087402	-0.526611
671.0	5.507987	0.231229	8.436562	0.147816	-0.191984	-0.099313	-0.679932	0.084961	-0.517822
672.0	5.424009	0.898379	8.727913	0.403946	-0.214823	-0.118621	-0.673096	0.080566	-0.513428
673.0	5.560862	1.351974	8.804342	0.201176	-0.161858	-0.069886	-0.67749	0.080811	-0.517822
674.0	5.429946	0.931856	8.775173	-0.018565	-0.137999	-0.010594	-0.675537	0.084961	-0.517822
675.0	5.309862	0.334465	8.579019	-0.052262	-0.110648	0.004921	-0.677734	0.084961	-0.522217
676.0	5.295361	-0.069661	8.492836	-0.015585	-0.094672	-0.006422	-0.67334	0.084961	-0.511475
677.0	5.299427	-0.014273	8.467692	0.102487	-0.071194	-0.042832	-0.681885	0.083008	-0.522217
678.0	5.311402	0.14878	8.509998	0.154766	-0.048321	-0.061072	-0.679688	0.083008	-0.52002
679.0	5.216552	0.143499	8.499869	0.128982	-0.031168	-0.078947	-0.67749	0.080811	-0.522217
680.0	5.183057	0.10592	8.403538	0.140939	-0.022587	-0.094284	-0.679443	0.072021	-0.517822
681.0	5.163483	0.294243	8.440282	0.198704	-0.023077	-0.109014	-0.683838	0.078613	-0.52002
682.0	5.218862	0.502836	8.476202	0.211952	-0.021845	-0.112744	-0.681641	0.076416	-0.52002
683.0	5.214	0.624289	8.508748	0.217677	-0.014429	-0.109151	-0.679443	0.076416	-0.517822
684.0	5.214331	0.647257	8.506828	0.193557	-0.009059	-0.100828	-0.679443	0.076416	-0.515625
685.0	5.199749	0.592541	8.440906	0.191612	-0.008944	-0.092416	-0.681396	0.072021	-0.52002
686.0	5.198561	0.512502	8.428613	0.166192	-0.004485	-0.097122	-0.675049	0.072021	-0.515625
687.0	5.165834	0.500935	8.388234	0.178721	-0.00586	-0.098598	-0.677002	0.067871	-0.52002
688.0	5.192071	0.476172	8.416349	0.174739	-0.007374	-0.111749	-0.679199	0.070068	-0.52002
689.0	5.176615	0.494164	8.384405	0.173744	-0.004057	-0.118119	-0.681152	0.063477	-0.515625
690.0	5.144006	0.555889	8.453888	0.18046	-0.014383	-0.121734	-0.678955	0.061279	-0.517822
691.0	5.110456	0.518677	8.435687	0.152788	-0.019566	-0.125608	-0.683105	0.057129	-0.522217
692.0	5.093864	0.583616	8.457738	0.16213	-0.03719	-0.123158	-0.683105	0.056885	-0.515625
693.0	5.091513	0.626855	8.454966	0.151721	-0.055886	-0.120349	-0.687256	0.052734	-0.52002
694.0	5.087692	0.616542	8.496519	0.130377	-0.080853	-0.111473	-0.689453	0.050537	-0.513428
695.0	5.11447	0.512668	8.434858	0.107111	-0.098639	-0.111388	-0.693848	0.054688	-0.504883
696.0	5.12821	0.50418	8.428544	0.116044	-0.107522	-0.11726	-0.702881	0.061035	-0.504883
697.0	5.201176	0.687143	8.430978	0.147464	-0.127152	-0.123662	-0.701172	0.078125	-0.498291
698.0	5.239287	0.787491	8.439358	0.136621	-0.129013	-0.127783	-0.688232	0.078125	-0.494141
699.0	5.142268	0.827737	8.502816	0.118302	-0.148184	-0.117466	-0.685791	0.072021	-0.50708
700.0	4.910649	0.854047	8.850463	0.168152	-0.303144	-0.072334	-0.683594	0.069824	-0.504883
701.0	5.50385	0.843696	8.173209	0.257878	-0.524422	-0.015712	-0.681396	0.067627	-0.502686
702.0	5.388924	0.952595	8.294489	0.163707	-0.221899	-0.099329	-0.682861	0.05249	-0.504639
703.0	5.365294	0.957193	8.343055	0.095552	-0.269343	-0.091566	-0.685547	0.063232	-0.500488
704.0	5.327923	0.857656	8.352427	0.15938	-0.25656	-0.09476	-0.685059	0.052246	-0.491699
705.0	5.393816	0.962903	8.38136	0.177444	-0.286933	-0.106606	-0.680664	0.054443	-0.487305
706.0	5.346758	1.015727	8.397581	0.177501	-0.294407	-0.093355	-0.693604	0.045898	-0.496094
707.0	5.334885	0.875203	8.281063	0.148068	-0.310527	-0.09004	-0.684814	0.047852	-0.485107
708.0	4.984946	1.608564	8.770136	0.32673	-0.347128	-0.1338	-0.68457	0.041504	-0.489502
709.0	5.07952	1.59272	8.936402	0.060735	-0.498517	-0.025821	-0.688965	0.039307	-0.485107
710.0	4.970821	1.027724	8.672649	-0.055077	-0.62026	-0.018736	-0.690918	0.037109	-0.47876
711.0	4.964046	1.138906	8.780773	0.124731	-0.745659	0.014332	-0.693359	0.04126	-0.469971
712.0	4.937756	1.192302	8.969633	0.020037	-0.910787	0.036247	-0.695557	0.043457	-0.469971
713.0	4.996246	1.005521	8.922847	-0.017317	-1.128458	0.060015	-0.704102	0.043213	-0.454834
714.0	5.109318	0.875299	9.079177	0.049022	-1.292811	0.081436	-0.704102	0.038818	-0.444092
715.0	4.837932	0.965143	9.42816	0.013194	-1.55317	0.193681	-0.706299	0.042969	-0.4375
716.0	4.49912	0.468073	9.714535	-0.147636	-1.82543	0.12836	-0.706055	0.03418	-0.428711
717.0	4.027006	-0.06905	9.768361	-0.156798	-2.245446	0.005976	-0.712891	0.04248	-0.405029
718.0	3.486632	-0.601803	9.934201	-0.013403	-2.729096	-0.136382	-0.720947	0.031494	-0.385498
719.0	3.264114	-0.61772	10.183873	0.366281	-3.22092	-0.293728	-0.725098	0.026855	-0.361572
720.0	2.954312	-0.413719	10.612562	0.683388	-3.758081	-0.458807	-0.731201	0.013428	-0.337646
721.0	2.128553	-0.698206	10.832824	0.838598	-4.395885	-0.671892	-0.737061	0.002197	-0.307373
722.0	1.703823	-1.567391	10.197965	1.238577	-5.30264	-0.936142	-0.736572	-0.01123	-0.263916
723.0	2.606421	-1.785072	8.923565	2.370109	-6.407517	-1.181201	-0.733643	-0.024658	-0.216064
724.0	5.041913	0.550096	7.79867	3.704644	-7.416214	-1.473343	-0.730225	-0.057617	-0.16626
725.0	11.844259	3.42731	12.696819	4.139569	-7.760399	-1.185446	-0.723145	-0.064941	-0.109863
726.0	19.274524	3.550046	18.232081	1.412823	-7.878788	-0.329998	-0.700439	-0.087158	-0.05542
727.0	28.428312	-1.167529	15.940665	-0.288434	-7.788729	-0.439469	-0.680176	-0.103027	0.009766
728.0	27.188802	-9.370412	12.940303	-0.136389	-5.586661	-1.477964	-0.64624	-0.133301	0.044678
729.0	15.630198	-11.18329	12.911431	3.18146	-4.96305	-2.809752	-0.614746	-0.155518	0.098877
730.0	15.21346	-1.012637	20.079144	8.174405	-4.031811	-2.379319	-0.576904	-0.173096	0.142578
731.0	14.098041	9.876762	27.030995	7.148551	-2.389304	-2.104294	-0.55249	-0.186523	0.186035
732.0	12.493124	8.409397	27.106884	0.331816	-0.955616	0.578109	-0.530518	-0.192871	0.188232
733.0	3.139132	-5.592539	11.559502	-6.586362	0.18895	2.380749	-0.52124	-0.208008	0.186035
734.0	-3.910129	-21.143014	6.393013	-2.015914	0.999007	1.592522	-0.512451	-0.208008	0.199219
735.0	-1.059614	-6.162334	7.750425	7.375003	-0.102149	0.359917	-0.508545	-0.195557	0.225098
736.0	-2.104033	5.491755	12.527152	6.47943	0.321913	-0.620303	-0.497314	-0.201904	0.229492
737.0	0.176811	10.409285	14.022439	0.482305	0.997137	-0.5443	-0.501465	-0.206299	0.236084
738.0	-0.396564	3.35276	11.946822	-4.280419	1.162331	0.810602	-0.509521	-0.225586	0.220947
739.0	-0.596736	-4.870998	7.776175	-4.318608	1.685732	0.751543	-0.511475	-0.229736	0.214355
740.0	0.006944	-7.454324	7.30874	0.272406	1.869714	0.081043	-0.521973	-0.238525	0.214355
741.0	0.940273	-0.588397	10.15251	2.313896	2.167295	-0.195033	-0.528564	-0.236328	0.209961
742.0	2.411139	1.723025	10.789331	0.279455	2.516259	-0.364051	-0.54126	-0.246826	0.194824
743.0	3.119278	0.376449	9.694571	-1.519638	2.969765	0.02328	-0.558594	-0.253174	0.17749
744.0	4.070353	-2.460414	7.944445	-1.275584	3.445556	0.300814	-0.571777	-0.252686	0.14502
745.0	3.843864	-1.932059	8.647189	-0.416514	3.896581	0.177805	-0.589355	-0.250488	0.125488
746.0	4.420414	-0.347168	8.846829	-0.374113	4.180947	0.253521	-0.602295	-0.252197	0.093018
747.0	4.857258	0.050118	8.938751	-0.78805	4.372897	0.31721	-0.624023	-0.255859	0.038818
748.0	5.523601	0.311761	8.901219	-0.787129	4.649379	0.368862	-0.62207	-0.255127	-0.010986
749.0	5.940264	1.02967	9.330523	-1.010054	4.838307	0.344965	-0.620117	-0.254395	-0.071777
750.0	6.431102	1.074095	9.596155	-1.252323	5.019146	0.324238	-0.598389	-0.251221	-0.136719
751.0	7.162832	1.201937	10.018798	-1.352766	5.10127	0.211402	-0.559814	-0.241699	-0.19751
752.0	7.949269	1.600531	10.625045	-1.459354	5.211513	0.135214	-0.51416	-0.243164	-0.231934
753.0	8.73799	1.781036	11.190393	-1.759145	5.258706	0.03347	-0.455322	-0.246826	-0.255859
754.0	9.658699	1.991542	12.084047	-1.976052	5.404417	-0.009897	-0.407227	-0.250732	-0.275146
755.0	10.394715	2.25411	13.160554	-2.212308	5.409348	0.033711	-0.358887	-0.263428	-0.279297
756.0	10.424691	2.164182	13.230961	-2.441546	5.167579	0.038802	-0.317139	-0.273926	-0.279297
757.0	10.674964	2.668443	12.646809	-2.448112	4.883198	-0.037041	-0.279297	-0.291016	-0.270508
758.0	12.953202	3.897037	14.416755	-2.62811	4.534039	-0.036915	-0.252686	-0.304199	-0.255127
759.0	17.165725	4.241588	15.628	-3.210835	4.272773	0.002068	-0.232422	-0.325684	-0.248535
760.0	19.54338	3.691203	14.815348	-3.551055	4.224474	0.062757	-0.225098	-0.345215	-0.235352
761.0	21.303444	3.770088	13.602275	-3.302895	4.156333	0.174259	-0.237305	-0.364746	-0.21582
762.0	21.453195	6.724288	10.251835	-2.18621	3.972293	-0.039092	-0.264893	-0.382324	-0.202637
763.0	23.396901	13.597272	7.928194	-0.203853	3.861591	-0.2803	-0.299805	-0.380371	-0.200684
764.0	23.589759	18.016786	6.74265	-1.746016	3.483289	0.057055	-0.326416	-0.36499	-0.224609
765.0	26.281092	14.274895	-0.111023	-5.717938	3.064996	-0.013125	-0.351563	-0.341064	-0.257324
766.0	26.654079	4.619392	-7.048829	-5.318827	3.112919	0.314177	-0.369873	-0.319336	-0.285645
767.0	25.77786	-0.418514	-12.529039	-1.554296	2.910131	-0.115391	-0.370117	-0.310547	-0.296387
768.0	25.808139	5.406276	-15.648237	2.427498	1.663336	-0.333922	-0.385254	-0.312744	-0.298584
769.0	27.37616	11.792593	-20.082878	2.765315	0.416721	0.224737	-0.389648	-0.314941	-0.298584
770.0	21.151237	8.804798	-21.988919	-1.127807	0.178593	1.149483	-0.39917	-0.29541	-0.313965
771.0	19.26401	-7.636034	-29.206273	-2.946214	-0.802308	2.501921	-0.410645	-0.280273	-0.318359
772.0	-12.692047	-2.997515	-20.009583	4.89005	-0.685538	0.457009	-0.406982	-0.312988	-0.285645
773.0	-4.253149	36.094251	32.511629	13.291217	-3.824886	-1.489823	-0.427246	-0.350586	-0.211914
774.0	18.627817	41.222472	15.329477	7.255398	-7.248292	1.3487	-0.439941	-0.355469	-0.177246
775.0	25.586578	30.883605	4.553523	-4.909495	-2.911432	0.321944	-0.442383	-0.348633	-0.19458
776.0	20.005136	10.708282	30.757186	-11.285941	-1.788457	0.212397	-0.447754	-0.322754	-0.211914
777.0	32.249693	-20.320597	11.043986	-6.975737	-2.282069	2.196128	-0.45752	-0.296875	-0.214355
778.0	-9.027495	-20.474265	4.042816	4.120725	-0.465087	0.478705	-0.460938	-0.322998	-0.19043
779.0	6.654428	4.554083	8.761041	7.39278	-2.977125	-3.121158	-0.453369	-0.349121	-0.162109
780.0	8.755506	12.294822	10.158239	3.632457	-0.76075	-0.716401	-0.451172	-0.349365	-0.15332
781.0	4.904973	2.128891	15.37672	-6.288319	-1.246085	0.713695	-0.456055	-0.336182	-0.175049
782.0	12.343134	-9.910364	3.099518	-3.211904	-0.776838	0.322489	-0.458008	-0.338379	-0.172852
783.0	3.476981	-3.037541	8.906311	5.050608	-0.649489	-0.805615	-0.455322	-0.351563	-0.148926
784.0	6.974899	6.294878	10.089786	4.035737	-0.961269	-1.372392	-0.448486	-0.358154	-0.140381
785.0	6.851319	9.202188	11.770616	0.098603	-0.082039	-0.147344	-0.450684	-0.360352	-0.138184
786.0	5.84645	3.323878	9.308432	-2.792443	-0.345382	0.204214	-0.450684	-0.35791	-0.146729
787.0	5.522858	-1.743507	7.099921	-1.595259	-0.076937	0.4576	-0.45752	-0.35376	-0.151123
788.0	4.651458	-1.252645	8.515809	0.622368	-0.240049	-0.092118	-0.453125	-0.35376	-0.138184
789.0	5.5433	1.821425	8.956568	0.91828	-0.261641	-0.123356	-0.452881	-0.355957	-0.142578
790.0	5.40701	2.18562	9.354548	-0.281369	-0.179055	0.057493	-0.453125	-0.351563	-0.142578
791.0	5.261758	-0.03035	8.429416	-0.755906	-0.1272	0.127897	-0.45752	-0.35376	-0.144775
792.0	5.118433	-0.889348	8.213202	-0.163969	-0.136564	0.052567	-0.455322	-0.351563	-0.140381
793.0	5.260471	0.210086	8.641342	0.157641	-0.141845	0.004969	-0.457275	-0.35376	-0.140381
794.0	5.211361	0.497847	8.667582	-0.103624	-0.112447	0.012044	-0.453125	-0.351563	-0.146973
795.0	5.094734	-0.273397	8.416982	-0.172932	-0.102746	0.003907	-0.455078	-0.355957	-0.140381
796.0	5.058327	-0.286275	8.395286	0.029003	-0.111847	-0.037085	-0.452881	-0.355957	-0.140381
797.0	5.151895	0.203012	8.516196	0.083857	-0.124141	-0.04968	-0.455322	-0.349609	-0.140381
798.0	5.195773	0.414432	8.540387	0.042013	-0.128348	-0.045479	-0.455078	-0.358154	-0.140381
799.0	5.235125	0.35195	8.484745	0.028397	-0.130583	-0.033183	-0.459473	-0.35376	-0.140381
800.0	5.292321	0.49062	8.428774	0.034552	-0.125661	-0.025754	-0.455322	-0.351807	-0.138184
801.0	5.266555	0.383285	8.503571	-0.028635	-0.109335	-0.020372	-0.453125	-0.35376	-0.135986
802.0	5.167943	-0.059129	8.420381	-0.075757	-0.101	-0.021607	-0.455322	-0.35376	-0.138184
803.0	5.176264	-0.227552	8.270091	0.024653	-0.091064	-0.060586	-0.452881	-0.360352	-0.140381
804.0	5.286928	0.071791	8.353227	0.128552	-0.081623	-0.089254	-0.455078	-0.360352	-0.135986
805.0	5.293966	0.335103	8.373443	0.124559	-0.062511	-0.097586	-0.452881	-0.360352	-0.135986
806.0	5.257507	0.314053	8.430951	0.075751	-0.048952	-0.096596	-0.452637	-0.366699	-0.138184
807.0	5.259591	0.2535	8.394672	0.116586	-0.051485	-0.097805	-0.45459	-0.368896	-0.135986
808.0	5.220784	0.283526	8.431417	0.106467	-0.036439	-0.094825	-0.452393	-0.373291	-0.138184
809.0	5.32842	0.245053	8.380296	0.120355	-0.047627	-0.105	-0.462891	-0.377686	-0.133789
810.0	5.256065	0.371125	8.388988	0.141744	-0.042772	-0.104322	-0.476318	-0.369141	-0.127197
811.0	5.160988	0.242308	8.444834	0.104965	-0.035098	-0.111515	-0.485596	-0.354248	-0.118652
812.0	5.204139	0.343709	8.436005	0.204834	-0.06668	-0.120525	-0.473145	-0.337158	-0.10791
813.0	5.229678	0.469728	8.472313	0.206833	-0.084403	-0.125914	-0.469238	-0.330566	-0.118896
814.0	5.141924	0.470574	8.612306	0.206857	-0.150048	-0.098535	-0.453613	-0.336914	-0.118652
815.0	5.350294	0.264471	8.308889	0.23126	-0.230857	-0.074867	-0.453369	-0.343262	-0.125244
816.0	5.295845	0.399567	8.363765	0.246143	-0.10849	-0.134405	-0.444336	-0.349854	-0.118652
817.0	5.213191	0.381765	8.426197	0.221292	-0.145255	-0.138838	-0.44873	-0.352051	-0.118652
818.0	5.156924	0.372442	8.416353	0.320969	-0.215061	-0.126472	-0.448486	-0.358398	-0.12085
819.0	5.31762	0.562071	8.355432	0.391476	-0.250269	-0.108754	-0.444092	-0.358398	-0.114258
820.0	5.213448	0.547846	8.428692	0.305838	-0.195989	-0.159078	-0.454834	-0.36499	-0.114258
821.0	5.15414	0.494316	8.386023	0.337791	-0.243964	-0.208469	-0.45459	-0.369385	-0.112061
822.0	4.738688	0.918596	8.851848	0.411223	-0.298489	-0.233672	-0.452148	-0.373535	-0.105469
823.0	4.691508	0.764628	8.873475	0.190165	-0.427704	-0.19668	-0.450195	-0.369385	-0.103516
824.0	4.870485	0.572675	8.721702	0.255855	-0.558931	-0.181516	-0.450195	-0.371582	-0.101318
825.0	5.132466	1.000725	8.668948	0.347117	-0.707927	-0.155013	-0.452393	-0.367432	-0.092529
826.0	5.358528	1.520024	8.696892	0.313235	-0.827115	-0.105169	-0.450195	-0.369629	-0.088135
827.0	5.236711	1.603355	8.84881	0.173519	-0.955007	-0.04876	-0.456787	-0.367432	-0.083984
828.0	5.188622	1.183567	8.786527	0.019904	-1.086243	0.016044	-0.452393	-0.367432	-0.07959
829.0	4.993176	0.944202	8.992433	0.042543	-1.261865	0.107035	-0.454834	-0.363281	-0.075195
830.0	4.950258	0.579615	9.192828	0.014464	-1.473574	0.147067	-0.458984	-0.365723	-0.06665
831.0	4.578269	0.462231	9.496737	0.002026	-1.752357	0.079224	-0.459229	-0.359375	-0.055908
832.0	4.211978	0.219439	9.73837	0.064261	-2.106886	0.009032	-0.467773	-0.361572	-0.049316
833.0	3.741095	-0.044741	9.904743	0.134329	-2.579375	-0.10534	-0.474365	-0.357666	-0.029785
834.0	3.53451	-0.228455	10.138906	0.222402	-3.069159	-0.307001	-0.46582	-0.355469	-0.019043
835.0	3.273834	-0.420413	10.435782	0.404982	-3.614361	-0.514255	-0.468018	-0.351563	0.00708
836.0	2.626049	-0.778361	10.340691	0.672673	-4.271006	-0.811683	-0.459229	-0.351807	0.030762
837.0	2.013715	-1.412918	10.149306	1.12563	-5.130143	-1.137181	-0.461426	-0.3479	0.061279
838.0	2.42922	-1.47978	9.260996	1.881726	-6.144551	-1.405052	-0.448242	-0.350586	0.102295
839.0	4.111456	0.152139	8.048228	2.855064	-7.236487	-1.566212	-0.439453	-0.349121	0.154541
840.0	7.674906	3.972121	9.214174	4.327407	-8.077204	-1.689503	-0.420166	-0.341064	0.202148
841.0	16.943212	5.627139	16.107213	2.065269	-8.190974	-0.203826	-0.409912	-0.324463	0.245361
842.0	24.870112	2.269132	20.803878	-1.528924	-7.806977	-0.061476	-0.388184	-0.316162	0.277832
843.0	27.115151	-7.097807	10.446967	-1.767166	-7.277225	-0.866311	-0.381836	-0.312256	0.301758
844.0	24.000876	-10.585113	15.453396	0.867007	-5.518574	-2.486909	-0.360596	-0.297607	0.338623
845.0	17.938016	-6.957645	19.265923	4.570096	-4.67901	-2.270163	-0.346436	-0.27002	0.366699
846.0	14.628865	-3.452761	22.362542	4.624818	-2.861005	-1.027185	-0.345459	-0.236084	0.396729
847.0	12.889196	1.918873	24.320974	4.453596	-1.440764	-0.105354	-0.357666	-0.19751	0.411621
848.0	8.617815	0.529836	20.59461	1.360559	-0.038683	1.21954	-0.378418	-0.171875	0.424561
849.0	-1.828567	-5.530147	10.533756	-0.885142	0.685135	1.604246	-0.394531	-0.148438	0.4375
850.0	-4.52811	-6.905284	8.60851	1.362323	0.446489	1.283082	-0.411133	-0.112061	0.447998
851.0	-2.143296	0.021562	9.817587	3.891152	0.28781	0.620701	-0.423584	-0.071533	0.456543
852.0	-1.73117	5.006008	12.128615	2.891393	0.645097	-0.228071	-0.442139	-0.041504	0.469238
853.0	-0.349223	6.498908	12.697578	0.042477	1.0154	-0.277829	-0.466553	-0.029053	0.484375
854.0	-0.246101	2.034452	11.23303	-2.300491	1.419914	-0.047255	-0.497559	-0.01416	0.488525
855.0	0.140429	-2.13026	8.948235	-2.199771	1.837975	-0.156643	-0.532959	0.00293	0.492676
856.0	0.502037	-3.106444	8.566403	-0.207472	2.201476	-0.30279	-0.574951	0.015625	0.492676
857.0	1.223429	-0.665216	9.745261	0.388625	2.423802	-0.486826	-0.614746	0.032715	0.496826
858.0	2.367148	0.160085	9.426011	-0.419221	2.857104	-0.435592	-0.656738	0.049805	0.48584
859.0	3.375495	-0.38588	8.692019	-0.967629	3.266752	-0.243289	-0.711426	0.054199	0.472656
860.0	3.205798	-0.88916	8.539638	-1.016083	3.773882	-0.120206	-0.770264	0.056396	0.444336
861.0	3.611564	-0.792864	8.495706	-0.929732	4.025486	-0.059372	-0.842285	0.056396	0.42041
862.0	4.43457	0.080864	8.770137	-0.869979	4.280071	-0.071606	-0.902832	0.048096	0.383545
863.0	5.1688	1.19118	9.669011	-1.162635	4.657445	-0.011386	-0.978516	0.031494	0.322754
864.0	5.947582	0.931144	9.77808	-1.58546	4.88353	0.029378	-1.049805	0.010986	0.231689
865.0	6.188805	0.682633	9.943407	-1.568431	5.156372	-0.023435	-1.101563	-0.009521	0.136475
866.0	7.00096	1.159091	9.945291	-1.5516	5.350435	-0.065061	-1.139893	-0.038086	0.010742
867.0	7.40416	1.433127	10.609048	-1.754698	5.704142	-0.091406	-1.145996	-0.055664	-0.11499
868.0	7.564791	1.510363	11.960184	-1.985299	5.566212	-0.149112	-1.12793	-0.07959	-0.244873
869.0	9.055372	1.48805	12.288574	-2.012851	5.444657	-0.151029	-1.084229	-0.086182	-0.376953
870.0	10.075965	1.904754	13.488098	-2.176528	5.490268	-0.141378	-1.023926	-0.080322	-0.48291
871.0	10.740464	2.045433	13.974399	-2.38225	5.426438	-0.110074	-0.94043	-0.044189	-0.573975
872.0	10.575413	2.741307	13.486832	-2.35331	5.227359	-0.077812	-0.84668	0.001709	-0.615234
873.0	11.54395	4.095408	14.182328	-2.539342	4.862991	-0.009355	-0.766357	0.066895	-0.628418
874.0	16.5037	4.874754	16.540131	-3.13592	4.420277	0.120732	-0.697021	0.129395	-0.613525
875.0	21.066939	3.852113	16.035726	-3.71347	4.322029	0.363467	-0.626465	0.167725	-0.581055
876.0	22.830358	2.454371	13.975182	-3.626289	4.317699	0.602255	-0.570068	0.169922	-0.552734
877.0	23.693522	4.052865	10.75529	-2.271854	4.148101	0.713186	-0.51416	0.132813	-0.51123
878.0	24.450753	11.119007	7.939462	0.365123	3.86344	0.328553	-0.468506	0.083252	-0.485107
879.0	27.717264	16.847201	7.15665	-0.001609	3.511115	0.751015	-0.438477	0.035889	-0.469482
880.0	29.616619	13.694875	-0.44527	-4.487402	3.385353	0.366827	-0.415527	0.011963	-0.454102
881.0	29.134808	5.024386	-9.144228	-3.919586	3.489371	0.538562	-0.401855	-0.007324	-0.449707
882.0	27.576788	4.000937	-15.075111	0.139843	2.841605	-0.084814	-0.391602	-0.046143	-0.443115
883.0	28.649753	11.608492	-20.41534	2.367776	1.529051	-0.245747	-0.385498	-0.089111	-0.436279
884.0	28.507343	14.27559	-25.231108	0.361378	0.509065	0.268555	-0.389648	-0.0979	-0.425537
885.0	21.521527	7.208533	-26.060459	-2.326744	0.042079	0.46757	-0.387451	-0.09375	-0.416748
886.0	12.085174	-5.297528	-27.266146	-0.584089	-0.905318	1.325656	-0.387207	-0.098389	-0.397217
887.0	-16.683709	8.554926	0.318522	5.549282	-0.182401	-1.506911	-0.391846	-0.148193	-0.371094
888.0	-4.317976	33.961714	32.060702	9.878232	-4.974767	-0.018768	-0.410156	-0.177002	-0.318848
889.0	21.332044	28.641309	6.273346	1.485981	-7.685922	0.149734	-0.418701	-0.181641	-0.286377
890.0	31.704754	20.438171	13.545133	-4.144601	-1.841031	0.643458	-0.415039	-0.162354	-0.290771
891.0	15.898145	2.668543	28.598195	-10.254395	-1.727505	0.17818	-0.412109	-0.12793	-0.291016
892.0	21.455096	-20.173887	6.700324	-4.6561	-2.486897	1.943312	-0.419189	-0.11084	-0.286621
893.0	-1.437966	-18.9941	4.041505	3.262148	-1.017985	-0.32913	-0.424561	-0.141113	-0.269287
894.0	4.666969	3.562086	9.187209	8.071843	-2.627995	-2.346802	-0.418945	-0.171631	-0.240967
895.0	10.222513	11.848973	12.207769	3.705047	-1.599751	-1.014477	-0.425293	-0.178223	-0.22998
896.0	8.833186	5.72941	14.354641	-4.210557	-1.212305	0.272697	-0.434326	-0.165283	-0.234375
897.0	11.681321	-2.772675	6.835432	-3.443477	-0.760761	0.370568	-0.428223	-0.158691	-0.236572
898.0	3.256571	-4.497134	7.350566	1.766357	-0.197964	0.129097	-0.423584	-0.165283	-0.232178
899.0	6.203993	2.302647	10.661636	2.426809	-0.821835	-1.027558	-0.418701	-0.17627	-0.217041
900.0	7.356836	6.179129	8.868045	1.597723	-0.258371	-0.472061	-0.427246	-0.182861	-0.214844
901.0	4.561067	3.915173	10.900068	-1.174571	-0.221043	0.157269	-0.425293	-0.178467	-0.221436
902.0	6.038268	0.049835	7.726744	-1.774242	-0.225598	0.267368	-0.425537	-0.171875	-0.219238
903.0	4.685851	-1.349999	8.287354	0.048817	-0.170964	0.122894	-0.425293	-0.174072	-0.221436
904.0	5.498111	0.87497	8.705283	0.650517	-0.259516	-0.108127	-0.427734	-0.169678	-0.221436
905.0	5.262598	1.474836	9.218059	-0.01258	-0.175948	0.040311	-0.429688	-0.174072	-0.217041
906.0	5.275337	-0.086574	8.44928	-0.477971	-0.138657	0.07176	-0.425293	-0.174072	-0.219238
907.0	5.150911	-0.98101	8.25839	-0.075843	-0.142329	0.023851	-0.42334	-0.169678	-0.219238
908.0	5.214845	-0.048817	8.490485	0.276529	-0.130878	-0.060141	-0.42749	-0.174072	-0.219238
909.0	5.205946	0.158927	8.579667	0.045565	-0.103573	-0.05883	-0.425293	-0.174072	-0.212646
910.0	5.069292	-0.501242	8.312473	0.02691	-0.091337	-0.086837	-0.42749	-0.174072	-0.212646
911.0	5.094286	-0.158451	8.379581	0.27215	-0.10738	-0.132071	-0.42749	-0.174316	-0.210449
912.0	5.256562	0.474067	8.498592	0.289071	-0.112989	-0.144872	-0.423096	-0.176514	-0.206299
913.0	5.289588	0.68406	8.469527	0.21887	-0.103559	-0.124028	-0.42749	-0.17627	-0.210449
914.0	5.330074	0.666259	8.468752	0.229433	-0.094046	-0.115052	-0.422852	-0.182861	-0.210449
915.0	5.262055	0.519582	8.547514	0.188044	-0.085009	-0.096789	-0.422852	-0.180664	-0.204102
916.0	5.160226	-0.006204	8.418842	0.115187	-0.076053	-0.1077	-0.418457	-0.180664	-0.210449
917.0	5.196716	-0.147523	8.277098	0.245366	-0.080185	-0.152139	-0.424805	-0.187256	-0.201904
918.0	5.297443	0.454617	8.3411	0.340341	-0.074894	-0.184552	-0.420654	-0.185059	-0.210449
919.0	5.311099	0.762229	8.445734	0.245428	-0.064953	-0.173762	-0.42041	-0.189453	-0.201904
920.0	5.256968	0.626277	8.404716	0.167386	-0.056567	-0.160124	-0.422363	-0.193604	-0.20166
921.0	5.305344	0.736091	8.371915	0.208067	-0.070842	-0.144984	-0.422119	-0.202148	-0.203857
922.0	5.268031	0.696145	8.45025	0.144804	-0.061855	-0.131055	-0.42627	-0.204346	-0.20166
923.0	5.300907	0.419715	8.399437	0.080962	-0.07017	-0.135761	-0.434814	-0.206787	-0.19751
924.0	5.262291	0.627935	8.399948	0.1794	-0.075264	-0.131815	-0.44165	-0.200439	-0.190918
925.0	5.206744	0.806477	8.468355	0.119614	-0.080464	-0.117263	-0.450928	-0.1875	-0.182373
926.0	5.229612	0.650691	8.374021	0.067413	-0.0973	-0.110882	-0.448975	-0.177002	-0.177979
927.0	5.220516	0.706894	8.468669	0.102675	-0.140669	-0.102904	-0.429932	-0.163818	-0.18457
928.0	5.172993	0.878174	8.609572	0.116921	-0.193343	-0.057036	-0.42334	-0.170166	-0.186768
929.0	5.352155	0.654381	8.365743	0.065205	-0.311132	-0.017272	-0.421143	-0.170166	-0.188965
930.0	5.351855	0.608758	8.290234	0.054353	-0.154061	-0.086608	-0.418213	-0.185059	-0.193115
931.0	5.221727	0.730313	8.477298	0.072697	-0.199539	-0.076624	-0.418213	-0.189453	-0.186523
932.0	5.282253	0.802156	8.457085	0.119603	-0.270474	-0.057721	-0.422363	-0.196045	-0.188721
933.0	5.190229	0.884314	8.589655	0.140568	-0.346166	-0.020013	-0.424561	-0.194092	-0.180176
934.0	5.378092	0.942732	8.212127	0.131482	-0.363047	-0.042701	-0.420166	-0.196045	-0.182373
935.0	5.038012	1.6303	8.936475	0.114903	-0.348676	-0.050007	-0.421875	-0.202637	-0.177979
936.0	5.067658	1.178513	8.770812	-0.160531	-0.467635	0.021398	-0.422119	-0.196045	-0.180176
937.0	5.007611	0.76749	8.626957	-0.07311	-0.579592	0.037857	-0.426514	-0.196045	-0.177979
938.0	5.14986	1.036358	8.618711	0.068184	-0.700933	0.046338	-0.426514	-0.198242	-0.175781
939.0	5.111964	1.052743	8.831486	-0.044691	-0.833768	0.074192	-0.430664	-0.200684	-0.171387
940.0	5.156988	0.509212	8.701146	-0.095523	-0.992541	0.087928	-0.432861	-0.200684	-0.169189
941.0	5.071152	0.303179	8.808321	0.021287	-1.188563	0.074701	-0.428711	-0.19873	-0.15625
942.0	5.413283	0.463517	8.711712	0.166209	-1.335097	0.064389	-0.430664	-0.202881	-0.151855
943.0	5.030459	0.684934	9.142399	0.074541	-1.499314	0.057062	-0.43042	-0.205322	-0.141113
944.0	4.95269	0.201289	9.17116	-0.013969	-1.721726	0.074297	-0.437012	-0.205322	-0.136719
945.0	4.384479	0.148634	9.257698	0.073952	-2.036485	0.00442	-0.441406	-0.203369	-0.123779
946.0	3.893228	-0.005971	9.847251	0.224284	-2.460604	-0.020569	-0.443359	-0.209961	-0.112793
947.0	3.664746	-0.504404	9.924058	0.231291	-2.965314	-0.156838	-0.443115	-0.212402	-0.099854
948.0	3.402037	-0.868022	10.153554	0.374296	-3.468594	-0.440475	-0.445313	-0.214844	-0.08252
949.0	3.167767	-0.952197	10.316093	0.775644	-3.991022	-0.627136	-0.447021	-0.223633	-0.056396
950.0	2.523074	-1.301937	10.294765	1.070836	-4.706283	-0.973825	-0.44458	-0.230469	-0.02832
951.0	2.034683	-1.762983	9.702121	1.645709	-5.672786	-1.363277	-0.432861	-0.246094	0.008789
952.0	3.595868	-1.445956	8.864788	2.563055	-6.919109	-1.558889	-0.423828	-0.25708	0.039063
953.0	6.99004	0.857844	8.036784	3.682141	-8.067582	-1.895547	-0.406006	-0.26416	0.089111
954.0	15.296839	4.279445	16.031389	3.894476	-8.358185	-1.35911	-0.387939	-0.277832	0.134766
955.0	26.223009	2.907126	19.70138	0.110566	-7.800442	-0.39076	-0.378906	-0.284668	0.165039
956.0	28.015227	-3.877699	11.980405	-0.797496	-6.525665	-1.311349	-0.358643	-0.299805	0.191162
957.0	21.99431	-8.291178	14.659092	0.436506	-5.109722	-2.203028	-0.344727	-0.321777	0.215088
958.0	15.035569	-6.73752	16.528021	4.805304	-4.655846	-2.776305	-0.324951	-0.320068	0.265137
959.0	12.406165	3.975335	23.418559	6.917796	-3.309446	-2.30118	-0.309814	-0.316162	0.299805
960.0	14.846793	8.260949	26.877489	4.592048	-1.976831	-1.374574	-0.311768	-0.322998	0.323486
961.0	8.76859	1.651153	22.354316	-2.568549	-0.545259	1.428206	-0.317627	-0.338135	0.317139
962.0	2.795303	-13.226015	5.423756	-5.079361	0.792288	2.142347	-0.33667	-0.355225	0.314941
963.0	-4.096785	-16.633662	7.233894	2.735321	0.554342	1.222824	-0.337158	-0.340576	0.338867
964.0	0.194734	-0.444973	9.498277	7.230254	0.471129	0.299172	-0.346436	-0.321533	0.362549
965.0	-1.448924	6.63382	12.699015	4.135793	0.794043	-0.210557	-0.353027	-0.31958	0.379883
966.0	0.128573	7.41933	12.175436	-0.45896	1.22819	0.736267	-0.36377	-0.326172	0.379883
967.0	-0.861247	0.843392	9.680369	-3.202733	1.554699	1.177826	-0.383057	-0.336914	0.369141
968.0	-0.734229	-4.472329	7.294981	-1.914687	1.942486	0.455198	-0.398193	-0.336914	0.368896
969.0	0.111444	-2.180454	8.021792	1.746812	2.16903	0.109058	-0.411377	-0.334717	0.371094
970.0	0.987723	2.052562	9.829791	1.789366	2.522884	-0.315089	-0.428955	-0.330566	0.375488
971.0	2.06521	3.363345	10.171616	-0.19961	2.970891	-0.264958	-0.459473	-0.328369	0.364502
972.0	2.646674	1.200968	8.666787	-1.241896	3.247296	0.110975	-0.485596	-0.328369	0.35376
973.0	2.7899	-0.704877	7.860575	-1.056818	3.740338	-0.034156	-0.513916	-0.33252	0.332031
974.0	3.37907	0.331563	8.388482	-0.332976	4.001613	-0.105007	-0.541992	-0.33667	0.305908
975.0	4.190565	1.645281	9.205055	-0.725661	4.324695	-0.137284	-0.568359	-0.332031	0.279785
976.0	4.531023	1.127051	9.377841	-1.28001	4.56002	-0.058867	-0.592041	-0.340088	0.240723
977.0	5.207773	0.604483	9.151459	-1.008902	4.72677	-0.09095	-0.616455	-0.333252	0.199463
978.0	5.50481	1.690395	9.682359	-0.812159	4.917141	-0.159041	-0.63623	-0.332764	0.147461
979.0	6.222509	2.373165	9.952224	-1.359727	5.126448	-0.200953	-0.649658	-0.325684	0.104004
980.0	6.670533	1.992738	10.457302	-1.808186	5.40863	-0.176609	-0.647705	-0.318604	0.058594
981.0	7.551431	1.841849	10.988047	-1.942237	5.424586	-0.253409	-0.654785	-0.309326	0.010742
982.0	8.400306	2.054075	12.288036	-1.79215	5.502559	-0.198501	-0.655029	-0.302246	-0.032471
983.0	9.59983	2.240058	13.804639	-2.104468	5.34353	-0.227705	-0.660156	-0.284668	-0.071777
984.0	10.615743	2.182257	14.042226	-2.267894	5.358391	-0.180325	-0.654297	-0.270996	-0.11499
985.0	10.596418	2.634898	14.246391	-2.251669	5.230851	-0.150396	-0.650635	-0.255615	-0.145508
986.0	11.707316	3.844893	14.627271	-2.351235	4.966066	-0.082233	-0.646729	-0.248535	-0.186768
987.0	14.902487	4.917793	16.565793	-2.821373	4.64883	-0.002858	-0.640381	-0.239502	-0.217041
988.0	19.517817	4.576295	17.132989	-3.507511	4.457477	0.141036	-0.641113	-0.228271	-0.253906
989.0	22.567184	3.628069	15.559456	-3.618934	4.455442	0.313134	-0.641357	-0.219238	-0.291016
990.0	23.576029	4.002815	12.460754	-2.831026	4.461441	0.4376	-0.639404	-0.214355	-0.321289
991.0	22.172991	9.015586	7.811509	-0.617707	4.352129	-5.8e-05	-0.621826	-0.220459	-0.349365
992.0	24.491231	15.641996	7.799322	0.664322	4.070889	0.117822	-0.617432	-0.224365	-0.373291
993.0	25.790881	15.494414	3.183041	-3.257643	3.515937	-0.148272	-0.613525	-0.215332	-0.410156
994.0	26.629959	8.339792	-5.502094	-4.72261	3.33907	-0.046317	-0.612305	-0.193359	-0.438477
995.0	26.181689	4.746565	-12.332063	-1.431251	2.904695	-0.35486	-0.601318	-0.195313	-0.453613
996.0	27.397597	10.977447	-16.57453	1.510205	1.74455	-0.695263	-0.605225	-0.206055	-0.455566
997.0	31.119987	14.158003	-23.870785	0.157883	0.297884	-0.191432	-0.609863	-0.201416	-0.46875
998.0	25.092797	7.707734	-27.145716	-2.97055	0.095254	0.054695	-0.608154	-0.186279	-0.475342
999.0	21.18288	2.038977	-22.232037	-1.096198	-0.654961	-0.012946	-0.623535	-0.18457	-0.458008
1000.0	9.047027	1.436558	-14.610425	1.467085	-0.578696	0.445549	-0.62793	-0.186523	-0.462158
1001.0	-6.986669	11.121122	22.841971	1.645517	-0.118811	-0.887341	-0.629639	-0.19751	-0.444824
1002.0	-19.630491	12.480244	19.632861	2.006465	-3.939403	-0.095574	-0.663818	-0.206787	-0.407959
1003.0	9.539243	7.720218	1.328209	2.639138	-7.555649	0.36944	-0.689453	-0.218506	-0.347412
1004.0	37.088318	15.545574	10.816037	3.332532	-3.781826	-0.795304	-0.693604	-0.225098	-0.338623
1005.0	16.825444	13.261405	30.1128	-3.649469	-1.184084	0.1438	-0.705078	-0.210205	-0.325684
1006.0	20.648702	-2.269967	14.179187	-6.127907	-3.531923	1.29609	-0.710449	-0.180176	-0.321533
1007.0	11.965004	-19.339975	6.169364	-2.26562	-0.151719	1.622813	-0.721436	-0.176025	-0.319336
1008.0	-1.929059	-4.276305	8.184375	5.879827	-2.310629	-1.607627	-0.724609	-0.20874	-0.280273
1009.0	11.263514	8.831026	10.271218	6.221168	-2.372186	-2.284008	-0.721191	-0.237061	-0.26709
1010.0	7.059073	8.591746	13.580397	-1.180669	-0.497694	0.29978	-0.724121	-0.219727	-0.26709
1011.0	9.014334	-0.599562	11.456894	-5.679637	-1.129761	0.366003	-0.731201	-0.20459	-0.269531
1012.0	7.735191	-6.838135	3.653652	0.373255	-0.486888	0.292043	-0.733154	-0.211426	-0.258545
1013.0	4.078191	0.20923	11.043929	3.447486	-0.646203	-0.792945	-0.730225	-0.226563	-0.249756
1014.0	7.068588	4.87033	9.434981	1.517884	-0.66814	-0.841409	-0.734619	-0.22876	-0.243408
1015.0	6.158531	4.725372	10.239957	-0.362792	-0.173127	0.012234	-0.734863	-0.224365	-0.247803
1016.0	5.548868	0.882017	8.585052	-1.394336	-0.264708	0.180357	-0.736816	-0.224365	-0.243408
1017.0	5.3443	-0.880346	8.126092	-0.346281	-0.164809	0.099728	-0.734863	-0.222412	-0.239014
1018.0	5.327391	0.589529	8.732691	0.573958	-0.228427	-0.10742	-0.736816	-0.226563	-0.236816
1019.0	5.310952	1.469354	9.113404	0.096328	-0.189026	-0.012068	-0.730225	-0.226563	-0.236816
1020.0	5.395316	0.395388	8.666764	-0.343971	-0.158404	0.034855	-0.734619	-0.224609	-0.239014
1021.0	5.188159	-0.481635	8.303245	-0.105301	-0.133255	0.005681	-0.737061	-0.222412	-0.236816
1022.0	5.303666	-0.064903	8.49685	0.166237	-0.121667	-0.045559	-0.736816	-0.224609	-0.232422
1023.0	5.335935	0.153509	8.528516	0.109854	-0.084918	-0.05837	-0.736816	-0.229004	-0.226074
1024.0	5.258862	-0.149015	8.425233	0.088238	-0.060677	-0.071283	-0.739014	-0.22876	-0.234619
1025.0	5.212272	-0.140744	8.35146	0.179197	-0.051696	-0.10829	-0.734619	-0.224609	-0.234619
1026.0	5.206511	0.247404	8.525793	0.250247	-0.056683	-0.129103	-0.743164	-0.231201	-0.228271
1027.0	5.238189	0.431329	8.501128	0.197361	-0.055864	-0.124842	-0.734619	-0.229004	-0.226074
1028.0	5.263866	0.43727	8.450141	0.201873	-0.059447	-0.124804	-0.73877	-0.230957	-0.234619
1029.0	5.309594	0.622129	8.455509	0.231393	-0.056874	-0.122061	-0.734619	-0.229004	-0.226074
1030.0	5.305228	0.743406	8.487308	0.202962	-0.046798	-0.107683	-0.738525	-0.235352	-0.230225
1031.0	5.272897	0.578977	8.473797	0.131641	-0.042255	-0.091041	-0.736328	-0.237549	-0.232422
1032.0	5.226495	0.308793	8.417259	0.123412	-0.042261	-0.093285	-0.731934	-0.237549	-0.228027
1033.0	5.180101	0.140172	8.374025	0.162481	-0.042452	-0.11526	-0.734375	-0.235352	-0.228027
1034.0	5.171893	0.208841	8.373682	0.187505	-0.040782	-0.139813	-0.729736	-0.239502	-0.236816
1035.0	5.17793	0.383102	8.41611	0.218695	-0.055205	-0.156845	-0.733887	-0.248291	-0.232422
1036.0	5.172674	0.605442	8.459254	0.190935	-0.060329	-0.153791	-0.738037	-0.252441	-0.232422
1037.0	5.215322	0.638803	8.416874	0.161593	-0.074334	-0.141486	-0.742432	-0.248291	-0.223633
1038.0	5.245859	0.587776	8.463168	0.145767	-0.087214	-0.139967	-0.73999	-0.25708	-0.221436
1039.0	5.233704	0.530204	8.338853	0.122883	-0.086911	-0.127087	-0.755371	-0.250732	-0.210693
1040.0	5.193897	0.510593	8.33952	0.127178	-0.09157	-0.142593	-0.755859	-0.237793	-0.20874
1041.0	5.318172	0.761077	8.373182	0.199121	-0.109331	-0.133098	-0.756348	-0.225098	-0.204346
1042.0	5.255047	0.835003	8.452949	0.092774	-0.099505	-0.126791	-0.748047	-0.218506	-0.206543
1043.0	5.27284	0.624898	8.423682	0.083745	-0.119497	-0.107721	-0.736816	-0.227051	-0.20874
1044.0	5.154345	0.703981	8.510293	0.117357	-0.151579	-0.113629	-0.734375	-0.233398	-0.20874
1045.0	5.119558	0.828399	8.64792	0.155731	-0.290903	-0.075598	-0.731934	-0.23999	-0.206543
1046.0	5.512543	0.725145	8.194515	0.120875	-0.306774	-0.075008	-0.729736	-0.242188	-0.208496
1047.0	5.310384	0.699676	8.388662	0.054465	-0.192041	-0.134097	-0.738281	-0.246338	-0.208496
1048.0	5.252858	0.66905	8.398245	0.138941	-0.267294	-0.126362	-0.736084	-0.244385	-0.206299
1049.0	5.325399	0.832504	8.285237	0.196391	-0.287111	-0.14921	-0.733643	-0.250977	-0.195557
1050.0	5.00736	1.161791	8.580426	0.196575	-0.315567	-0.128578	-0.735596	-0.255127	-0.195557
1051.0	5.115128	1.726067	8.947883	0.236886	-0.429782	-0.069404	-0.737793	-0.25293	-0.197754
1052.0	4.909071	1.064008	8.829107	-0.131118	-0.516336	-0.028426	-0.73584	-0.250977	-0.188965
1053.0	5.037331	0.658729	8.55074	0.02563	-0.64794	-0.022575	-0.740234	-0.250977	-0.184814
1054.0	5.019426	1.119109	8.819364	0.194724	-0.778018	-0.007791	-0.737793	-0.253418	-0.173828
1055.0	5.08098	0.993762	8.93504	0.024206	-0.939381	0.009618	-0.746338	-0.257813	-0.167236
1056.0	5.081687	0.720966	8.804512	0.014166	-1.115473	0.00787	-0.746338	-0.255859	-0.156494
1057.0	5.282596	0.749458	8.845268	0.153039	-1.263487	0.016004	-0.744385	-0.251709	-0.147949
1058.0	4.886198	0.825823	9.386873	0.073816	-1.463217	0.057065	-0.748535	-0.256104	-0.13916
1059.0	4.689351	0.399829	9.465395	-0.053088	-1.720031	0.005798	-0.750977	-0.249756	-0.119629
1060.0	4.278359	0.159466	9.632221	0.096114	-2.08483	0.026339	-0.757568	-0.24585	-0.095947
1061.0	3.842515	-0.113623	9.835348	0.179453	-2.515886	-0.056935	-0.757324	-0.252441	-0.087158
1062.0	3.549743	-0.353683	10.113673	0.276372	-2.963755	-0.248329	-0.759277	-0.257324	-0.054688
1063.0	3.206766	-0.618154	10.259736	0.519503	-3.476625	-0.422207	-0.76123	-0.259766	-0.026367
1064.0	2.655638	-0.995392	10.367497	0.858979	-4.105291	-0.685584	-0.763184	-0.262451	0.012451
1065.0	1.914702	-1.36011	9.904501	1.458063	-4.892244	-1.050685	-0.756104	-0.271729	0.055908
1066.0	2.250441	-1.041554	9.478438	2.17843	-5.913638	-1.337944	-0.749512	-0.274414	0.110107
1067.0	3.968585	-0.145362	8.447133	2.888187	-6.995123	-1.434381	-0.742676	-0.279785	0.183838
1068.0	6.643453	3.054266	7.591069	4.156335	-7.883871	-1.612211	-0.718262	-0.282715	0.255371
1069.0	16.028159	4.69445	14.665757	3.33248	-8.018555	-0.357338	-0.697021	-0.270752	0.316162
1070.0	23.815248	3.425263	20.49627	0.093528	-7.912169	-0.179331	-0.670654	-0.269043	0.370361
1071.0	27.237441	-3.029401	12.265684	-1.159743	-7.690454	-0.755688	-0.644043	-0.280518	0.42041
1072.0	27.963245	-8.976277	14.863071	-0.206743	-5.338368	-2.0154	-0.619873	-0.287354	0.450684
1073.0	15.973746	-10.80054	14.820807	3.497691	-4.621681	-2.488125	-0.598389	-0.2771	0.496338
1074.0	13.409863	-1.552523	21.891544	6.68413	-3.229822	-1.861402	-0.588623	-0.24292	0.52417
1075.0	15.168747	6.378239	26.823623	5.188579	-1.611764	-0.636887	-0.591797	-0.217529	0.543701
1076.0	9.476459	1.361502	25.105032	-0.838852	-0.181686	1.506525	-0.611572	-0.215088	0.530518
1077.0	-0.573373	-11.85794	7.919746	-4.054826	0.764518	2.321896	-0.631592	-0.206543	0.519775
1078.0	-5.856359	-14.952561	7.102888	2.936753	0.439847	1.539099	-0.656738	-0.169922	0.519531
1079.0	-1.952729	0.861284	10.072182	7.000818	0.254834	0.447712	-0.66748	-0.118652	0.530029
1080.0	-1.903459	8.515695	14.570739	4.624399	0.58617	-0.151749	-0.687744	-0.105713	0.519043
1081.0	-0.236756	9.674166	14.697935	-0.452397	1.051524	0.273555	-0.705078	-0.105225	0.495117
1082.0	-0.447161	2.894702	12.638411	-4.389733	1.619314	0.3403	-0.726318	-0.120117	0.460449
1083.0	0.159055	-3.4352	8.785812	-3.582884	2.031928	0.213061	-0.748291	-0.119629	0.432373
1084.0	0.493407	-4.179047	9.306313	0.298335	2.48946	-0.229064	-0.768066	-0.11499	0.395508
1085.0	1.568696	0.984553	10.615204	1.204049	2.80325	-0.706339	-0.787842	-0.114502	0.358643
1086.0	2.547586	2.933456	10.991727	-0.351676	3.276608	-0.473365	-0.794189	-0.118164	0.308594
1087.0	2.850768	1.334512	9.555474	-2.01648	3.538115	-0.251876	-0.811523	-0.126221	0.256592
1088.0	3.336259	-0.709066	7.686118	-2.007712	4.018043	-0.148157	-0.813477	-0.134033	0.200439
1089.0	3.407216	-0.427056	8.486737	-1.158718	4.276703	-0.213379	-0.808594	-0.148438	0.148438
1090.0	4.415192	1.060681	8.905154	-0.960206	4.464545	-0.207579	-0.803711	-0.166992	0.098633
1091.0	4.986838	1.818437	9.328943	-1.404422	4.777369	-0.167128	-0.794434	-0.185547	0.035889
1092.0	5.53418	1.770383	9.763715	-1.643779	4.982157	-0.108799	-0.782715	-0.208252	-0.020264
1093.0	6.087171	1.900311	10.328453	-1.638958	5.118171	-0.144911	-0.76709	-0.224854	-0.067871
1094.0	6.786854	2.203598	10.625663	-1.751917	5.185879	-0.220357	-0.742432	-0.243408	-0.113281
1095.0	7.374086	2.235829	10.974085	-1.901328	5.298058	-0.259948	-0.729004	-0.257813	-0.156494
1096.0	8.171476	2.240762	11.720827	-2.034421	5.317097	-0.301826	-0.710938	-0.272461	-0.191162
1097.0	9.355473	2.386421	12.803301	-2.16677	5.335247	-0.305118	-0.695557	-0.280273	-0.234375
1098.0	10.633808	2.237963	13.865424	-2.445678	5.346576	-0.241534	-0.688965	-0.286133	-0.275391
1099.0	11.240351	2.066238	14.167569	-2.531411	5.343514	-0.1611	-0.677734	-0.292236	-0.310059
1100.0	11.854976	2.666514	14.564754	-2.55033	5.194951	-0.050737	-0.658447	-0.287109	-0.364258
1101.0	13.920521	2.94539	15.257321	-2.962982	4.948362	0.129794	-0.644043	-0.273438	-0.405518
1102.0	18.570671	2.753018	16.383169	-3.317811	4.711683	0.385709	-0.629639	-0.253662	-0.44458
1103.0	22.61776	2.162769	15.875519	-3.357669	4.733742	0.660243	-0.608398	-0.237793	-0.483643
1104.0	24.118895	2.233959	13.742912	-2.995087	4.790688	0.875711	-0.580811	-0.222168	-0.518311
1105.0	23.302984	4.994027	9.675749	-1.798917	4.599132	0.867327	-0.555664	-0.197998	-0.548828
1106.0	24.582299	12.793673	6.099724	0.827345	4.230208	0.487546	-0.526855	-0.214844	-0.563721
1107.0	27.439851	18.781962	6.148138	-0.663942	3.936027	0.730531	-0.501465	-0.197266	-0.585449
1108.0	28.682877	13.678511	-1.924033	-5.693668	3.592852	0.479809	-0.479004	-0.160156	-0.615967
1109.0	27.380202	3.104109	-13.136949	-4.065133	3.389506	0.480835	-0.455566	-0.14917	-0.635498
1110.0	25.168132	5.467065	-17.067899	1.445237	2.343441	-0.576856	-0.437012	-0.174805	-0.635498
1111.0	29.592926	14.841087	-22.166524	3.300362	0.259383	-0.49052	-0.438721	-0.187988	-0.626709
1112.0	29.418287	15.018006	-26.595076	-1.50517	-0.358474	0.121174	-0.44165	-0.166504	-0.628906
1113.0	24.722886	3.392155	-25.983165	-3.469273	-0.468002	0.493993	-0.442383	-0.15332	-0.637695
1114.0	5.970762	-6.774631	-23.144016	-0.758864	-0.159117	1.883774	-0.442383	-0.15332	-0.648438
1115.0	-19.652083	12.281052	28.354867	4.545018	-0.631126	-0.927517	-0.447021	-0.19873	-0.61792
1116.0	-7.458837	19.239593	9.262955	9.059657	-5.394286	0.11898	-0.48877	-0.242676	-0.565674
1117.0	17.224251	26.014991	3.890943	5.001195	-7.398209	-0.514663	-0.51123	-0.275635	-0.528809
1118.0	29.331512	27.452426	18.533006	-2.285137	-2.397506	0.331859	-0.519043	-0.243164	-0.544189
1119.0	14.820434	6.50545	23.231372	-9.844542	-3.351841	0.535036	-0.538574	-0.189453	-0.540039
1120.0	28.687476	-16.301794	15.432431	-5.816039	-3.051717	2.228576	-0.548584	-0.155029	-0.544678
1121.0	3.519811	-23.74492	1.082848	1.525871	-1.164343	0.217902	-0.55835	-0.185547	-0.518555
1122.0	7.497197	3.009461	12.714244	9.011948	-2.80654	-2.628809	-0.564697	-0.246338	-0.483643
1123.0	10.784267	13.733925	9.523017	5.171808	-1.629262	-1.709715	-0.572754	-0.259277	-0.472656
1124.0	7.120476	8.18042	18.659816	-4.346148	-0.725924	0.485395	-0.571777	-0.229004	-0.488037
1125.0	9.882255	-3.525143	3.848607	-5.684621	-1.273678	0.62962	-0.576904	-0.20752	-0.494629
1126.0	5.136534	-6.906886	7.359883	2.126596	0.022424	0.726967	-0.580811	-0.224854	-0.490234
1127.0	4.105063	0.663393	10.535785	2.897997	-1.005623	-1.410981	-0.575684	-0.238037	-0.468506
1128.0	8.598453	5.760736	7.612411	2.125319	-0.450619	-1.046885	-0.579346	-0.255127	-0.464111
1129.0	4.89611	5.373383	11.741456	-0.147909	-0.038493	0.170028	-0.585938	-0.255127	-0.468262
1130.0	6.265363	1.679818	8.370922	-1.978197	-0.338561	0.202568	-0.582275	-0.237793	-0.472656
1131.0	5.287808	-1.392236	7.85426	-0.863715	-0.100135	0.464554	-0.586914	-0.231445	-0.466309
1132.0	4.973941	-1.293591	8.326044	0.254012	-0.227427	-0.064457	-0.588867	-0.238037	-0.466309
1133.0	5.675052	0.966862	8.556813	0.629246	-0.190098	-0.157338	-0.588623	-0.244385	-0.466309
1134.0	5.479195	1.389803	9.005466	-0.027352	-0.140485	0.005281	-0.580078	-0.238037	-0.468506
1135.0	5.439121	-0.082995	8.356206	-0.43827	-0.086888	0.042102	-0.58667	-0.238037	-0.468506
1136.0	5.341888	-0.595656	8.207181	0.002448	-0.093172	-0.012531	-0.584473	-0.240234	-0.464111
1137.0	5.411376	0.186463	8.508538	0.17111	-0.076684	-0.054555	-0.588867	-0.240234	-0.468506
1138.0	5.333859	0.051763	8.453411	-0.054726	-0.043782	-0.051309	-0.58667	-0.238037	-0.464111
1139.0	5.229655	-0.367343	8.345258	0.039568	-0.031118	-0.080895	-0.586426	-0.246826	-0.45752
1140.0	5.365534	0.108312	8.359866	0.199526	-0.044456	-0.107708	-0.586426	-0.244385	-0.466309
1141.0	5.391401	0.627643	8.498284	0.13856	-0.037306	-0.098356	-0.591064	-0.238037	-0.461914
1142.0	5.418292	0.55241	8.4119	0.061886	-0.02504	-0.074296	-0.590576	-0.246582	-0.464111
1143.0	5.407452	0.482394	8.419459	0.074371	-0.018732	-0.064663	-0.586426	-0.246582	-0.461914
1144.0	5.398782	0.565128	8.400456	0.046957	-0.022193	-0.051426	-0.586182	-0.248779	-0.461914
1145.0	5.364347	0.464277	8.344428	0.014826	-0.006425	-0.038903	-0.586426	-0.244629	-0.461914
1146.0	5.360078	0.391812	8.330519	0.015557	-0.001082	-0.040506	-0.586182	-0.248779	-0.464111
1147.0	5.352147	0.391985	8.353288	0.020302	0.000637	-0.046631	-0.586182	-0.250977	-0.468262
1148.0	5.305134	0.358233	8.357749	0.007354	0.008006	-0.046438	-0.583984	-0.253174	-0.466309
1149.0	5.310234	0.337686	8.356471	0.003114	0.009725	-0.052095	-0.588379	-0.250977	-0.466309
1150.0	5.325642	0.369529	8.367066	0.007064	0.007723	-0.050694	-0.58374	-0.257324	-0.468262
1151.0	5.282614	0.411026	8.385335	0.005568	0.007775	-0.045248	-0.592529	-0.257568	-0.461914
1152.0	5.353401	0.377486	8.430253	-0.01349	0.001084	-0.041624	-0.596436	-0.263916	-0.461914
1153.0	5.28897	0.269029	8.312848	-0.026109	0.003334	-0.038272	-0.605469	-0.259766	-0.455322
1154.0	5.195915	0.067264	8.327452	-0.028856	0.007674	-0.048803	-0.603516	-0.249023	-0.446777
1155.0	5.238124	0.308012	8.353949	0.06157	-0.005961	-0.06319	-0.604248	-0.229736	-0.44043
1156.0	5.294192	0.398516	8.437897	0.014206	-0.013238	-0.06399	-0.595703	-0.225342	-0.446777
1157.0	5.236527	0.2638	8.394749	0.000507	-0.01768	-0.057945	-0.587158	-0.223145	-0.448975
1158.0	5.202684	0.155777	8.415484	0.016174	-0.029178	-0.068441	-0.58252	-0.231689	-0.453369
1159.0	5.244892	0.203052	8.355161	0.063965	-0.04026	-0.08806	-0.580078	-0.240479	-0.448975
1160.0	5.215928	0.305252	8.382374	0.095515	-0.046866	-0.101423	-0.579834	-0.246582	-0.461914
1161.0	5.201319	0.235474	8.411359	0.096192	-0.069819	-0.107363	-0.577637	-0.246582	-0.459717
1162.0	5.161265	0.187332	8.431973	0.165152	-0.115901	-0.117893	-0.583984	-0.248779	-0.459717
1163.0	5.184809	0.284263	8.490783	0.234408	-0.195879	-0.112824	-0.581787	-0.253174	-0.459717
1164.0	5.170673	0.279573	8.438677	0.231852	-0.205675	-0.129904	-0.587891	-0.259521	-0.459717
1165.0	5.209283	0.262888	8.400372	0.23153	-0.242314	-0.153393	-0.588135	-0.255371	-0.450928
1166.0	5.147561	0.291648	8.46458	0.279741	-0.2276	-0.178304	-0.585693	-0.26416	-0.446533
1167.0	5.017587	0.406954	8.517598	0.284665	-0.283782	-0.200485	-0.585693	-0.26416	-0.442383
1168.0	4.624437	0.909931	8.977292	0.353089	-0.367012	-0.207216	-0.589844	-0.266357	-0.442383
1169.0	4.630136	0.766357	9.176502	0.147477	-0.544722	-0.145285	-0.591797	-0.272949	-0.435791
1170.0	4.955233	0.48431	8.668573	0.20303	-0.735938	-0.132139	-0.593994	-0.268555	-0.429199
1171.0	5.2181	1.26992	8.814754	0.404923	-0.873248	-0.114431	-0.598389	-0.273193	-0.422852
1172.0	4.872178	1.241717	9.399729	0.08258	-1.036757	-0.037861	-0.600342	-0.275391	-0.41626
1173.0	4.644957	0.340622	9.307008	-0.104972	-1.28071	-0.058925	-0.609131	-0.273438	-0.407715
1174.0	4.688824	0.217336	9.300279	0.192314	-1.593669	-0.057507	-0.608887	-0.277832	-0.401123
1175.0	4.528623	0.653257	9.724484	0.315126	-1.919865	-0.03499	-0.619873	-0.275879	-0.383789
1176.0	4.335294	0.311006	10.022642	0.098182	-2.246447	-0.057594	-0.626221	-0.280273	-0.37085
1177.0	3.904236	-0.178311	10.045387	0.019129	-2.659592	-0.136531	-0.63501	-0.278564	-0.349121
1178.0	3.425963	-0.579705	10.349057	0.24637	-3.134549	-0.258396	-0.638916	-0.2854	-0.325195
1179.0	2.923425	-0.836974	10.503833	0.521189	-3.69519	-0.484574	-0.643311	-0.283447	-0.299316
1180.0	2.457935	-1.087198	10.317268	0.861203	-4.373476	-0.869561	-0.660156	-0.299072	-0.268799
1181.0	1.945331	-1.388729	9.700009	1.362914	-5.150004	-1.261841	-0.661377	-0.316895	-0.225342
1182.0	2.022159	-1.25476	8.744003	2.06983	-6.175882	-1.545427	-0.669434	-0.330566	-0.17334
1183.0	4.131982	0.062317	7.858304	2.769131	-7.196398	-1.809945	-0.664551	-0.346436	-0.114746
1184.0	8.509317	2.668888	8.998035	3.920314	-7.826433	-1.770557	-0.659424	-0.358154	-0.04541
1185.0	17.960892	1.835301	15.227952	2.158201	-7.585107	-0.52727	-0.657227	-0.354492	0.006592
1186.0	23.081313	-2.073333	16.964481	-0.368292	-7.288219	-0.866603	-0.643311	-0.374268	0.050049
1187.0	27.158608	-6.566462	8.885022	1.309937	-6.884373	-2.355645	-0.618896	-0.383545	0.100098
1188.0	23.003923	-3.859871	15.957067	3.298883	-4.932546	-2.725463	-0.603271	-0.392578	0.141357
1189.0	15.357482	-2.459033	21.136317	3.172125	-3.670548	-2.237495	-0.58374	-0.393066	0.18042
1190.0	12.839179	0.371151	20.905396	4.042784	-2.38501	-1.205753	-0.570557	-0.393311	0.204346
1191.0	11.585638	2.858222	22.977597	2.715229	-0.955466	0.104869	-0.566406	-0.38501	0.223633
1192.0	6.877132	-3.880265	17.084943	-2.280266	0.133041	1.743089	-0.575439	-0.380615	0.212891
1193.0	-2.57739	-14.923269	7.253856	-1.387072	0.601509	1.665148	-0.575928	-0.365723	0.217041
1194.0	-1.580744	-8.000803	7.364951	4.760933	0.076968	0.947558	-0.578613	-0.348877	0.245117
1195.0	-0.559758	2.989926	11.842498	5.398489	0.475493	0.434257	-0.57251	-0.338379	0.262451
1196.0	-0.473772	6.711913	13.704259	2.080932	0.682834	0.504613	-0.579834	-0.321045	0.262451
1197.0	0.343163	4.002883	12.77864	-1.64437	1.208163	0.835074	-0.579834	-0.321045	0.251465
1198.0	0.101983	-1.048944	10.785922	-2.840641	1.646137	0.641932	-0.586182	-0.325195	0.238525
1199.0	0.736252	-4.084881	9.169389	-0.465217	1.928072	0.306444	-0.588623	-0.318604	0.227783
1200.0	1.495776	-0.158715	11.062165	1.26568	2.325587	-0.011851	-0.59082	-0.316406	0.227783
1201.0	2.568579	1.847766	11.743868	0.165727	2.778349	-0.115534	-0.599854	-0.309814	0.210205
1202.0	3.102826	0.860876	10.439561	-1.136555	3.198715	-0.024526	-0.61499	-0.311768	0.192871
1203.0	3.235502	-0.593949	8.749338	-1.095764	3.626014	0.067483	-0.619385	-0.311523	0.17334
1204.0	3.197639	-0.558207	8.862389	-0.70503	3.944436	0.08836	-0.625977	-0.311035	0.147461
1205.0	3.775669	0.002307	8.366241	-0.795175	4.201616	0.108813	-0.639404	-0.306396	0.121338
1206.0	4.122124	0.054616	8.792473	-0.935154	4.449911	0.218837	-0.645508	-0.31665	0.080322
1207.0	4.949695	0.247043	9.284652	-0.953606	4.674058	0.222816	-0.647461	-0.326904	0.039063
1208.0	5.544538	0.50905	10.004306	-1.028877	4.776972	0.17345	-0.645264	-0.326416	0.0
1209.0	6.285133	0.663541	10.250658	-1.102831	4.884744	0.12103	-0.643066	-0.334473	-0.041016
1210.0	6.936313	0.866373	10.627916	-1.212061	4.992713	0.076512	-0.629639	-0.342285	-0.086426
1211.0	7.7198	0.992788	11.109544	-1.387785	5.067044	0.050028	-0.625244	-0.348145	-0.125488
1212.0	8.221231	0.470109	11.189559	-1.628597	5.168321	0.092718	-0.609619	-0.358643	-0.153564
1213.0	9.977524	1.479461	13.205979	-1.581041	5.145624	0.06195	-0.603027	-0.362305	-0.192627
1214.0	10.317468	1.257108	13.712086	-2.116533	5.187892	0.128403	-0.60083	-0.364014	-0.218506
1215.0	10.831459	0.609941	13.813653	-2.237146	5.183514	0.216783	-0.592285	-0.361328	-0.253174
1216.0	11.054765	1.750349	14.352307	-2.009203	5.047386	0.233868	-0.592529	-0.358887	-0.287842
1217.0	12.541278	2.952238	15.349076	-2.399028	4.799762	0.263717	-0.597168	-0.35376	-0.335693
1218.0	15.462938	3.325241	15.691997	-2.816331	4.579861	0.297197	-0.591309	-0.340332	-0.374756
1219.0	17.809492	3.106963	15.339102	-3.150858	4.378082	0.319906	-0.579102	-0.320313	-0.422607
1220.0	19.750689	3.751671	13.377375	-2.97774	4.191753	0.316059	-0.568604	-0.308838	-0.468018
1221.0	19.539975	7.587346	9.724517	-1.515709	3.879329	-0.021155	-0.551514	-0.302002	-0.500488
1222.0	23.658112	16.579391	8.508529	1.089556	3.785221	-0.236606	-0.529785	-0.303711	-0.528809
1223.0	25.274672	20.939915	9.006449	-1.796072	3.523853	0.11011	-0.506836	-0.281494	-0.561279
1224.0	28.047904	13.901151	0.204993	-6.463118	3.291725	-0.138885	-0.490479	-0.25293	-0.602539
1225.0	27.44901	3.410411	-10.269039	-3.865851	3.420079	0.109352	-0.465088	-0.235352	-0.619873
1226.0	26.956643	5.556348	-15.295003	1.601515	2.825221	-1.119343	-0.446777	-0.260986	-0.630615
1227.0	30.264303	14.480293	-22.473892	3.532421	0.97178	-0.921314	-0.443848	-0.282715	-0.624023
1228.0	29.034145	15.033507	-29.203526	-1.594498	-0.18126	-0.21878	-0.436035	-0.260986	-0.632813
1229.0	24.290281	2.888521	-30.010401	-4.436248	-0.40816	0.393917	-0.438965	-0.241455	-0.643799
1230.0	13.719805	-4.540624	-20.666922	-0.360824	-0.185027	1.04395	-0.443359	-0.237305	-0.643799
1231.0	-8.492434	7.49089	14.973823	2.895306	0.815124	0.069692	-0.444336	-0.267334	-0.637207
1232.0	-21.533546	14.695241	22.437004	4.029405	-3.618433	-0.841815	-0.471436	-0.295898	-0.602295
1233.0	5.612153	11.505838	2.096771	4.926397	-8.010144	0.449289	-0.513916	-0.322754	-0.545898
1234.0	39.202229	20.879293	9.66308	3.677759	-4.733509	-0.674871	-0.522217	-0.33374	-0.530762
1235.0	18.215997	16.005842	30.492585	-4.8366	-0.79599	0.108637	-0.529785	-0.303467	-0.548096
1236.0	22.164376	-1.21272	16.703771	-6.60517	-3.878845	1.256557	-0.557861	-0.258301	-0.548584
1237.0	13.801175	-17.824594	3.74275	-1.604194	-0.559616	2.395036	-0.562012	-0.258301	-0.546387
1238.0	-1.740729	-4.230345	11.303764	5.120926	-1.950467	-1.750687	-0.573486	-0.299805	-0.50708
1239.0	9.352992	6.136029	9.449727	5.028557	-2.633403	-2.478806	-0.570068	-0.330078	-0.485352
1240.0	8.253313	7.29777	11.003284	0.027152	-0.706839	0.018467	-0.574951	-0.319336	-0.491943
1241.0	9.858154	1.096407	13.466504	-3.857941	-0.996662	0.187054	-0.586426	-0.304443	-0.494141
1242.0	7.809701	-3.494993	4.400058	0.08115	-0.726823	0.162009	-0.585938	-0.312988	-0.491943
1243.0	4.727165	0.658172	10.695136	2.366801	-0.401456	-0.481294	-0.583252	-0.323975	-0.472412
1244.0	6.775734	4.206373	9.473873	0.934591	-0.617433	-0.743431	-0.585449	-0.328369	-0.474365
1245.0	6.073011	3.871689	9.521182	-0.222151	-0.231352	0.062051	-0.589844	-0.323975	-0.470215
1246.0	5.587359	0.73081	8.594979	-1.076782	-0.284173	0.181142	-0.587646	-0.323975	-0.474609
1247.0	5.488616	-0.576019	8.233995	-0.274019	-0.198181	0.090728	-0.583496	-0.31958	-0.474609
1248.0	5.341201	0.658476	8.757268	0.349568	-0.228751	-0.059063	-0.589844	-0.323975	-0.470215
1249.0	5.435402	1.255989	8.971147	-0.033528	-0.1973	0.037718	-0.594238	-0.321777	-0.474609
1250.0	5.400337	0.268304	8.551023	-0.369015	-0.173981	0.069858	-0.588135	-0.31543	-0.470215
1251.0	5.328709	-0.24248	8.352332	-0.123422	-0.170477	0.054687	-0.589844	-0.321777	-0.472412
1252.0	5.333385	0.113619	8.505265	-0.010809	-0.159548	0.019009	-0.594482	-0.31958	-0.474609
1253.0	5.40466	0.097512	8.490173	-0.105249	-0.140575	0.018607	-0.59668	-0.317627	-0.470215
1254.0	5.246827	-0.273425	8.363029	-0.133119	-0.127124	0.000428	-0.594482	-0.317627	-0.470215
1255.0	5.208784	-0.34289	8.380384	-0.009972	-0.131899	-0.040729	-0.598633	-0.319824	-0.468018
1256.0	5.275307	-0.049273	8.414812	0.077529	-0.137475	-0.070478	-0.594482	-0.319824	-0.468018
1257.0	5.374241	0.286518	8.413455	0.106783	-0.140302	-0.080499	-0.592285	-0.319824	-0.472412
1258.0	5.443657	0.514141	8.409429	0.075857	-0.136283	-0.063129	-0.594482	-0.317627	-0.472412
1259.0	5.454554	0.522166	8.40187	0.043841	-0.129781	-0.046774	-0.60083	-0.322021	-0.468018
1260.0	5.44973	0.398396	8.368546	0.001465	-0.121053	-0.035233	-0.596436	-0.324219	-0.463623
1261.0	5.391113	0.131239	8.346669	-0.02105	-0.112622	-0.037102	-0.596191	-0.326416	-0.459229
1262.0	5.479182	0.087332	8.229481	0.034763	-0.103821	-0.056083	-0.598633	-0.324219	-0.46582
1263.0	5.461842	0.289351	8.247627	0.07766	-0.087649	-0.074839	-0.594238	-0.326172	-0.463623
1264.0	5.481732	0.526908	8.285031	0.072982	-0.072245	-0.07062	-0.594238	-0.324219	-0.46582
1265.0	5.49965	0.50739	8.333513	5.2e-05	-0.057494	-0.059489	-0.596191	-0.328369	-0.468018
1266.0	5.454889	0.425168	8.299659	0.010785	-0.055678	-0.055211	-0.591797	-0.332764	-0.468018
1267.0	5.426494	0.371248	8.276157	0.00352	-0.054948	-0.044592	-0.598145	-0.336914	-0.470215
1268.0	5.411139	0.291113	8.304925	0.012195	-0.055212	-0.049345	-0.608887	-0.341309	-0.463623
1269.0	5.438731	0.273146	8.329639	0.046988	-0.112445	-0.020023	-0.619629	-0.339355	-0.450684
1270.0	5.583279	0.122253	8.190192	0.033588	-0.027889	-0.047093	-0.626709	-0.32666	-0.446289
1271.0	5.361892	0.214017	8.309783	0.050456	-0.037559	-0.07809	-0.623047	-0.311768	-0.437744
1272.0	5.393569	0.325945	8.384973	0.078359	-0.061806	-0.087245	-0.614502	-0.302979	-0.442139
1273.0	5.385157	0.35548	8.40593	0.062693	-0.069149	-0.0526	-0.601318	-0.305176	-0.442139
1274.0	5.331722	0.296011	8.394285	0.046602	-0.153221	-0.029515	-0.594727	-0.307129	-0.455078
1275.0	5.521724	0.315117	8.185802	0.106174	-0.154767	-0.053126	-0.598877	-0.313477	-0.450684
1276.0	5.511716	0.511186	8.332855	0.065822	-0.071057	-0.069244	-0.592285	-0.319824	-0.455078
1277.0	5.260445	0.369467	8.401475	0.00153	-0.106505	-0.071471	-0.598633	-0.324219	-0.455078
1278.0	5.369889	0.408863	8.325851	0.137075	-0.192999	-0.051981	-0.598389	-0.326416	-0.452881
1279.0	5.309024	0.594994	8.419855	0.112336	-0.236541	-0.015519	-0.598389	-0.32666	-0.444092
1280.0	5.091439	0.55986	8.505526	0.05445	-0.235277	-0.04558	-0.606934	-0.328613	-0.446289
1281.0	5.215344	0.47752	8.638917	-0.002986	-0.319347	-0.018608	-0.598389	-0.328613	-0.448486
1282.0	5.030453	0.053511	8.459953	-0.020884	-0.404487	0.005265	-0.609131	-0.330811	-0.446289
1283.0	5.056396	0.140618	8.65146	0.14652	-0.530698	-0.033776	-0.606689	-0.335205	-0.439697
1284.0	5.000103	0.320165	8.744354	0.135315	-0.628793	-0.047992	-0.609131	-0.333252	-0.43335
1285.0	5.208776	0.338818	8.495792	0.138535	-0.763615	-0.044743	-0.619873	-0.335449	-0.426758
1286.0	5.394662	0.818651	8.734782	0.200919	-0.884631	-0.035562	-0.621826	-0.339844	-0.418213
1287.0	5.154037	1.005707	8.924588	0.079907	-1.067753	0.031182	-0.619629	-0.337891	-0.411621
1288.0	5.121435	0.555486	8.967157	-0.092815	-1.217492	0.047262	-0.624023	-0.340088	-0.407227
1289.0	4.969122	0.213691	9.034458	-0.019558	-1.477566	0.044023	-0.63501	-0.335938	-0.398682
1290.0	5.051237	0.45893	9.176873	0.16659	-1.744917	0.093368	-0.636963	-0.338379	-0.383545
1291.0	4.618873	0.242684	9.550273	0.065539	-2.021669	0.15429	-0.650146	-0.336426	-0.368408
1292.0	4.265749	-0.500299	9.384613	-0.015473	-2.375058	0.117455	-0.656738	-0.334473	-0.351074
1293.0	3.839389	-0.77933	9.498241	0.199957	-2.7796	-0.095806	-0.669678	-0.334961	-0.329346
1294.0	3.691375	-0.369115	10.146012	0.562859	-3.260591	-0.192764	-0.675781	-0.34375	-0.309814
1295.0	3.24603	-0.444982	10.436664	0.491148	-3.814569	-0.354267	-0.677979	-0.342041	-0.277344
1296.0	2.707544	-1.057725	10.257238	0.589228	-4.465746	-0.53855	-0.688477	-0.353271	-0.242676
1297.0	2.821232	-1.486109	9.836621	1.235436	-5.277388	-0.797468	-0.69873	-0.362549	-0.199219
1298.0	3.593836	-0.694541	8.673943	2.294923	-6.240963	-0.880533	-0.698242	-0.374268	-0.138428
1299.0	5.675517	1.774764	9.209821	3.486335	-7.234243	-1.053059	-0.693604	-0.381348	-0.079834
1300.0	10.430558	1.831631	11.694559	2.054	-8.086459	-0.367458	-0.699707	-0.388672	-0.01709
1301.0	17.715447	0.650093	15.692597	0.285116	-8.06765	-0.299582	-0.699463	-0.389648	0.041504
1302.0	26.558466	-1.34211	12.191683	0.999469	-7.890795	-0.4027	-0.681885	-0.392578	0.104492
1303.0	27.133022	-3.274968	13.957573	0.968522	-6.488133	-1.470183	-0.672607	-0.399414	0.143555
1304.0	19.36419	-6.632063	14.074961	0.686672	-5.156154	-2.281828	-0.648193	-0.412842	0.182617
1305.0	14.595458	-7.942036	18.306768	3.912846	-4.092658	-2.574653	-0.628174	-0.417725	0.232422
1306.0	10.05446	1.398328	22.288344	6.932864	-2.720019	-2.711074	-0.608643	-0.413818	0.278076
1307.0	10.171347	8.573666	23.722803	6.146498	-1.373841	-2.656819	-0.600342	-0.407715	0.299561
1308.0	8.485305	8.703535	23.786393	0.502834	-0.198963	-0.867469	-0.5979	-0.414063	0.293213
1309.0	1.844713	-0.383237	13.449967	-5.043647	0.585847	1.093726	-0.608398	-0.424561	0.267334
1310.0	-3.011266	-14.223377	4.100865	-4.608128	1.323401	1.843488	-0.615479	-0.413574	0.243408
1311.0	-3.795007	-15.230971	5.656303	2.245485	0.631331	-0.093686	-0.619873	-0.407471	0.26709
1312.0	-0.119838	-0.962314	10.55282	5.370996	0.830611	-0.390333	-0.620361	-0.394531	0.275635
1313.0	1.43348	4.010102	13.049197	1.878548	1.228368	-0.463883	-0.627197	-0.390137	0.269287
