Acquisition frequency: 100 Hz
PacketCounter	Acc_X	Acc_Y	Acc_Z	Gyr_X	Gyr_Y	Gyr_Z	Mag_X	Mag_Y	Mag_Z
0.0	5.797962	-0.040268	8.053066	-0.007163	0.008561	-0.004995	-0.503418	-0.056641	-0.016113
1.0	5.802552	-0.073649	8.027909	-0.002298	0.004648	-0.005822	-0.508057	-0.05249	-0.011963
2.0	5.807569	-0.072909	8.052057	-0.0023	0.00833	-0.008153	-0.503662	-0.05249	-0.01416
3.0	5.796169	-0.040162	8.054357	-0.008156	0.010214	-0.004777	-0.508057	-0.050293	-0.016357
4.0	5.811733	-0.072631	8.076813	-0.00239	0.005309	-0.00322	-0.505615	-0.056641	-0.016113
5.0	5.779347	-0.083514	8.084814	-0.006173	0.006912	-0.005217	-0.499268	-0.05249	-0.01416
6.0	5.78391	-0.062335	8.058476	-0.004687	0.006277	-0.006712	-0.510254	-0.050293	-0.018311
7.0	5.799479	-0.040044	8.079723	-0.004283	0.007953	-0.005384	-0.51001	-0.054443	-0.016113
8.0	5.782704	-0.062405	8.059341	-0.005679	0.007929	-0.006493	-0.508057	-0.048096	-0.01416
9.0	5.797935	-0.073961	8.031241	-0.002391	0.00531	-0.00322	-0.503662	-0.05249	-0.016113
10.0	5.781494	-0.062402	8.060209	-0.004287	0.011637	-0.007716	-0.503662	-0.054443	-0.016113
11.0	5.802137	-0.073384	8.055968	-0.00149	0.004319	-0.000837	-0.514404	-0.05249	-0.018311
12.0	5.780214	-0.062398	8.061127	-0.005683	0.011615	-0.008825	-0.512207	-0.054688	-0.016357
13.0	5.800608	-0.073348	8.05707	-0.003387	0.010647	-0.005333	-0.507813	-0.058838	-0.011963
14.0	5.805373	-0.07286	8.081384	-0.005681	0.007932	-0.006495	-0.505615	-0.058838	-0.016113
15.0	5.794128	-0.094713	8.084764	-0.004286	0.007956	-0.005386	-0.505615	-0.054688	-0.01416
16.0	5.777262	-0.062438	8.063243	-0.005187	0.00895	-0.007771	-0.510254	-0.050293	-0.016357
17.0	5.81369	-0.084843	8.030543	-0.004195	0.007299	-0.00799	-0.507813	-0.054443	-0.016113
18.0	5.79744	-0.07337	8.059349	-0.004283	0.004272	-0.003056	-0.506104	-0.048096	-0.018311
19.0	5.780836	-0.095662	8.038845	-0.005096	0.008293	-0.010375	-0.51001	-0.056641	-0.016113
20.0	5.807063	-0.051421	8.057139	-0.0014	0.003662	-0.003441	-0.505615	-0.056641	-0.016113
21.0	5.796039	-0.073274	8.060357	-0.006178	0.006918	-0.005222	-0.507813	-0.054688	-0.011963
22.0	5.80611	-0.051566	8.057825	-0.004691	0.006284	-0.006717	-0.499268	-0.054443	-0.01416
23.0	5.784371	-0.095099	8.064036	-0.004196	0.007302	-0.007992	-0.501465	-0.05249	-0.016113
24.0	5.789191	-0.040029	8.087098	-0.004784	0.006943	-0.004114	-0.508057	-0.05249	-0.018311
25.0	5.798825	-0.051986	8.035334	-0.003301	0.009995	-0.007939	-0.507813	-0.054688	-0.009766
26.0	5.77185	-0.062299	8.067119	-0.004285	0.004274	-0.003058	-0.503418	-0.058838	-0.016113
27.0	5.803241	-0.051459	8.059892	-0.005099	0.008298	-0.010378	-0.503662	-0.050293	-0.01416
28.0	5.79213	-0.073067	8.063169	-0.000907	0.004682	-0.004717	-0.510254	-0.050293	-0.018311
29.0	5.791692	-0.072962	8.063484	-0.004693	0.006287	-0.006719	-0.508057	-0.05249	-0.016357
30.0	5.791297	-0.072962	8.063768	-0.004193	0.003618	-0.005662	-0.510254	-0.05249	-0.016357
31.0	5.80149	-0.051155	8.061154	-0.004693	0.006288	-0.006719	-0.508057	-0.05249	-0.011963
32.0	5.7904	-0.072951	8.064412	-0.004694	0.006288	-0.006719	-0.505859	-0.048096	-0.016357
33.0	5.795202	-0.051466	8.037951	-0.000314	0.001356	-0.006264	-0.505615	-0.054688	-0.01416
34.0	5.805515	-0.084051	8.036463	-0.005195	0.008958	-0.007776	-0.503662	-0.050293	-0.018311
35.0	5.789047	-0.072627	8.065386	-0.003392	0.006969	-0.003005	-0.505615	-0.054443	-0.018311
36.0	5.809785	-0.083573	8.06112	-0.004201	0.007308	-0.007995	-0.501465	-0.050293	-0.016357
37.0	5.793364	-0.071971	8.090005	-0.002805	0.007331	-0.006885	-0.510254	-0.050293	-0.011963
38.0	5.787372	-0.072272	8.066591	-0.003206	0.005657	-0.008214	-0.507813	-0.058838	-0.009766
39.0	5.786826	-0.072157	8.066984	-0.0029	0.007988	-0.004281	-0.505859	-0.05249	-0.01416
40.0	5.80219	-0.049778	8.088378	-0.002406	0.009008	-0.005556	-0.505615	-0.054688	-0.01416
41.0	5.780264	-0.072348	8.043984	-0.000314	0.001359	-0.006265	-0.508057	-0.05249	-0.01416
42.0	5.811688	-0.061057	8.03677	-0.001325	0.01039	-0.010711	-0.503418	-0.056641	-0.020508
43.0	5.795061	-0.049341	8.065788	-0.005199	0.008963	-0.00778	-0.505615	-0.054443	-0.018311
44.0	5.800017	-0.048812	8.089942	-0.002799	0.003644	-0.004555	-0.51001	-0.054688	-0.01416
45.0	5.815477	-0.060226	8.061772	-0.004697	0.006292	-0.006723	-0.505859	-0.050293	-0.01416
46.0	5.793586	-0.049293	8.066848	-0.004298	0.007968	-0.005394	-0.51001	-0.054688	-0.01416
47.0	5.824902	-0.038403	8.059722	-0.003302	0.006316	-0.005612	-0.501221	-0.058838	-0.018311
48.0	5.813803	-0.06029	8.062979	-0.006188	0.006926	-0.005231	-0.508057	-0.05249	-0.01416
49.0	5.797105	-0.082601	8.042547	-0.003312	0.010008	-0.007945	-0.503662	-0.054443	-0.016113
50.0	5.791143	-0.049177	8.068603	-0.000512	0.006363	-0.003389	-0.503662	-0.05249	-0.01416
51.0	5.806425	-0.060335	8.040579	0.000475	0.008403	-0.00594	-0.501465	-0.054688	-0.011963
52.0	5.811283	-0.059599	8.0648	-0.001908	0.006341	-0.004502	-0.503662	-0.05249	-0.011963
53.0	5.805263	-0.060052	8.04142	-0.0043	0.00797	-0.005396	-0.505859	-0.050293	-0.018311
54.0	5.8046	-0.060188	8.041898	-0.005791	0.008603	-0.003904	-0.510254	-0.05249	-0.011963
55.0	5.809378	-0.059836	8.066171	-0.004301	0.007971	-0.005397	-0.508057	-0.05249	-0.01416
56.0	5.808832	-0.059743	8.066564	-0.003209	0.005665	-0.008219	-0.501465	-0.054443	-0.018311
57.0	5.808126	-0.059823	8.067073	-0.006391	0.011931	-0.002358	-0.508057	-0.050293	-0.011963
58.0	5.807177	-0.059962	8.067755	-0.004312	0.011666	-0.00773	-0.505615	-0.056641	-0.011963
59.0	5.806349	-0.059895	8.068351	-0.005204	0.008971	-0.007786	-0.503418	-0.054688	-0.009766
60.0	5.789436	-0.027755	8.046853	-0.007189	0.008583	-0.005019	-0.505859	-0.05249	-0.01416
61.0	5.799483	-0.06069	8.045585	-0.003905	0.009649	-0.004069	-0.505615	-0.056641	-0.016113
62.0	5.798779	-0.06077	8.046092	-0.005699	0.007952	-0.006512	-0.514648	-0.050293	-0.01416
63.0	5.798116	-0.06093	8.046569	-0.005795	0.008607	-0.003907	-0.508057	-0.050293	-0.01416
64.0	5.797467	-0.061251	8.047033	-0.007685	0.007564	-0.003746	-0.503418	-0.056641	-0.016113
65.0	5.791263	-0.02822	8.073233	-0.005314	0.013324	-0.007515	-0.508057	-0.048096	-0.009766
66.0	5.795792	-0.06162	8.048237	-0.00629	0.007587	-0.002634	-0.507813	-0.054688	-0.01416
67.0	5.779136	-0.084169	8.027768	-0.005303	0.00963	-0.005183	-0.505615	-0.056641	-0.016113
68.0	5.794479	-0.062077	8.049179	-0.006688	0.005913	-0.003965	-0.507813	-0.056641	-0.018311
69.0	5.788541	-0.029028	8.075182	-0.004306	0.007978	-0.005401	-0.505615	-0.054443	-0.018311
70.0	5.798669	-0.061937	8.073857	-0.007194	0.008588	-0.005023	-0.510254	-0.05249	-0.01416
71.0	5.798044	-0.062156	8.074304	-0.0048	0.006958	-0.004127	-0.503418	-0.056641	-0.016113
72.0	5.797402	-0.062166	8.074765	-0.002418	0.009024	-0.005562	-0.508057	-0.050293	-0.018311
73.0	5.796696	-0.062296	8.07527	-0.009986	0.008545	-0.007252	-0.506104	-0.048096	-0.022705
74.0	5.790646	-0.063134	8.051928	-0.006293	0.00759	-0.002636	-0.510254	-0.05249	-0.011963
75.0	5.800605	-0.041523	8.049527	-0.003406	0.006981	-0.003013	-0.508057	-0.05249	-0.018311
76.0	5.799963	-0.041508	8.04999	-0.002419	0.009026	-0.005563	-0.51001	-0.054688	-0.01416
77.0	5.799321	-0.041518	8.050452	-0.004802	0.00696	-0.004128	-0.510254	-0.048096	-0.018311
78.0	5.783033	-0.084824	8.08032	-0.004309	0.007983	-0.005403	-0.514404	-0.05249	-0.01416
79.0	5.803407	-0.041224	8.075199	-0.005308	0.009636	-0.005187	-0.505859	-0.05249	-0.016357
80.0	5.786809	-0.063667	8.054683	-0.004803	0.006961	-0.004129	-0.503662	-0.050293	-0.011963
81.0	5.802003	-0.041547	8.076206	-0.006309	0.011291	-0.004971	-0.503662	-0.05249	-0.005371
82.0	5.80116	-0.041721	8.07681	-0.00531	0.009638	-0.005188	-0.510254	-0.05249	-0.01416
83.0	5.790169	-0.063699	8.079941	-0.002395	0.001632	-0.000899	-0.510254	-0.050293	-0.011963
84.0	5.789609	-0.063848	8.080341	-0.007212	0.012294	-0.007361	-0.505859	-0.054443	-0.022705
85.0	5.804811	-0.075352	8.052469	-0.004804	0.006963	-0.00413	-0.503906	-0.045898	-0.01416
86.0	5.80412	-0.075592	8.052965	-0.006805	0.01027	-0.003698	-0.512451	-0.050293	-0.016357
87.0	5.781989	-0.064829	8.058134	-0.003818	0.00901	-0.00668	-0.507813	-0.056641	-0.020508
88.0	5.807906	-0.075309	8.077918	-0.004917	0.011316	-0.003858	-0.503662	-0.05249	-0.016113
89.0	5.791014	-0.043246	8.056421	-0.005299	0.005941	-0.002857	-0.51001	-0.054443	-0.018311
90.0	5.806504	-0.075608	8.078923	-0.004326	0.011689	-0.007739	-0.512207	-0.054688	-0.011963
91.0	5.778918	-0.06519	8.060334	-0.005313	0.009643	-0.005191	-0.505615	-0.054688	-0.009766
92.0	5.799509	-0.076225	8.05628	-0.006709	0.009622	-0.006307	-0.507813	-0.054443	-0.016113
93.0	5.782735	-0.065044	8.085253	-0.005314	0.009644	-0.005192	-0.508057	-0.050293	-0.018311
94.0	5.782025	-0.065127	8.085759	-0.004314	0.007991	-0.005408	-0.510254	-0.052246	-0.020508
95.0	5.781384	-0.065188	8.086218	-0.005709	0.00797	-0.006524	-0.505859	-0.048096	-0.01416
96.0	5.786021	-0.043877	8.060004	-0.005201	0.005293	-0.005465	-0.512451	-0.050293	-0.011963
97.0	5.812129	-0.054261	8.079661	-0.003328	0.010041	-0.007957	-0.503662	-0.05249	-0.016113
98.0	5.774196	-0.065593	8.063714	-0.000623	0.007031	-0.000786	-0.514404	-0.05249	-0.018311
99.0	5.784076	-0.043726	8.061401	-0.005217	0.008996	-0.0078	-0.508057	-0.05249	-0.011963
100.0	5.772937	-0.065513	8.064616	-0.001919	0.00636	-0.004508	-0.51001	-0.054443	-0.016113
101.0	5.772388	-0.065375	8.06501	-0.002821	0.007364	-0.006899	-0.512207	-0.058838	-0.01416
102.0	5.798279	-0.054708	8.034301	-0.003823	0.009019	-0.006684	-0.507813	-0.054688	-0.01416
103.0	5.781527	-0.043316	8.063231	-0.003824	0.009019	-0.006685	-0.505859	-0.050293	-0.016357
104.0	5.791768	-0.075972	8.061849	-0.003315	0.006341	-0.005626	-0.503418	-0.056641	-0.01416
105.0	5.785674	-0.042793	8.087905	-0.004318	0.007995	-0.005411	-0.505615	-0.056641	-0.01416
106.0	5.800921	-0.054068	8.060066	-0.004334	0.0117	-0.007745	-0.512207	-0.054688	-0.01416
107.0	5.800173	-0.054116	8.060604	-0.006206	0.00695	-0.005254	-0.507813	-0.054443	-0.022705
108.0	5.794307	-0.054626	8.037167	-0.003316	0.006343	-0.005627	-0.510254	-0.050293	-0.016357
109.0	5.793925	-0.07565	8.087949	-0.004812	0.006972	-0.004138	-0.507813	-0.056641	-0.020508
110.0	5.761283	-0.065765	8.04532	-0.004319	0.007998	-0.005412	-0.510254	-0.05249	-0.011963
111.0	5.771298	-0.064923	8.093421	-0.00432	0.007998	-0.005413	-0.507813	-0.056641	-0.018311
112.0	5.786819	-0.076263	8.065399	-0.00381	0.005319	-0.004353	-0.508057	-0.05249	-0.018311
113.0	5.775411	-0.04359	8.067612	-0.00432	0.007999	-0.005413	-0.505615	-0.054688	-0.011963
114.0	5.780256	-0.076827	8.042466	-0.005324	0.009654	-0.005199	-0.508057	-0.050293	-0.016357
115.0	5.79555	-0.054546	8.063925	-0.001412	0.003686	-0.003451	-0.505615	-0.054443	-0.016113
116.0	5.811243	-0.086792	8.086282	-0.006618	0.008985	-0.008923	-0.507813	-0.056641	-0.016113
117.0	5.778334	-0.043336	8.093148	-0.00621	0.006954	-0.005258	-0.503662	-0.05249	-0.01416
118.0	5.793913	-0.054767	8.0651	-0.005206	0.0053	-0.005473	-0.505615	-0.054443	-0.016113
119.0	5.782919	-0.076785	8.068191	-0.00621	0.006955	-0.005258	-0.51001	-0.056885	-0.011963
120.0	5.782497	-0.076913	8.068493	-0.005598	0.003626	-0.006806	-0.503662	-0.054688	-0.01416
121.0	5.802982	-0.033426	8.06339	-0.007317	0.009259	-0.002437	-0.505859	-0.052246	-0.020508
122.0	5.781381	-0.077283	8.069289	-0.003218	0.0057	-0.008236	-0.507813	-0.056641	-0.01416
123.0	5.823265	-0.044369	8.059616	-0.006212	0.006957	-0.005259	-0.51001	-0.054443	-0.016113
124.0	5.780425	-0.077457	8.069972	-0.004306	0.004296	-0.003082	-0.501465	-0.054443	-0.016113
125.0	5.790521	-0.055536	8.06753	-0.001823	0.005721	-0.007118	-0.505615	-0.056641	-0.018311
126.0	5.779544	-0.077273	8.070605	-0.004716	0.00633	-0.006749	-0.505859	-0.05249	-0.009766
127.0	5.800502	-0.08805	8.066351	-0.003712	0.004675	-0.006963	-0.501465	-0.054443	-0.020508
128.0	5.810556	-0.066117	8.063942	-0.004716	0.00633	-0.006749	-0.501465	-0.054443	-0.016113
129.0	5.799291	-0.033441	8.066045	-0.003302	0.002642	-0.003297	-0.503662	-0.054688	-0.011963
130.0	5.809813	-0.066283	8.064476	-0.006214	0.006959	-0.005261	-0.507813	-0.056641	-0.018311
131.0	5.782503	-0.05588	8.045654	-0.005127	0.008366	-0.010417	-0.510254	-0.052246	-0.020508
132.0	5.803392	-0.087673	8.091909	-0.00203	0.007019	-0.001905	-0.507813	-0.054688	-0.01416
133.0	5.808117	-0.066214	8.065699	-0.005108	0.004658	-0.008084	-0.508057	-0.05249	-0.018311
134.0	5.78625	-0.05546	8.070595	-0.006216	0.00696	-0.005262	-0.505859	-0.05249	-0.016357
135.0	5.817578	-0.044574	8.063721	-0.004821	0.00698	-0.004143	-0.510254	-0.050293	-0.018311
136.0	5.817247	-0.065697	8.1144	-0.004206	0.003651	-0.005691	-0.507813	-0.054443	-0.016113
137.0	5.779565	-0.056394	8.047762	-0.008207	0.006561	-0.002501	-0.505859	-0.052246	-0.018311
138.0	5.778941	-0.056636	8.048208	-0.005232	0.009017	-0.007811	-0.503662	-0.050293	-0.01416
139.0	5.773237	-0.078046	8.07511	-0.001416	0.003691	-0.003453	-0.501465	-0.054443	-0.018311
140.0	5.804616	-0.066921	8.068213	-0.005233	0.009018	-0.007812	-0.507813	-0.054688	-0.01416
141.0	5.777284	-0.05658	8.049398	-0.004823	0.006982	-0.004145	-0.503662	-0.05249	-0.01416
142.0	5.808762	-0.066693	8.09286	-0.005212	0.005308	-0.005479	-0.503662	-0.054688	-0.01416
143.0	5.802947	-0.067151	8.069411	-0.002936	0.00803	-0.004299	-0.510254	-0.052246	-0.022705
144.0	5.781025	-0.056258	8.074333	-0.002319	0.004701	-0.005847	-0.510254	-0.052246	-0.020508
145.0	5.780488	-0.056281	8.074717	-0.004435	0.008658	-0.002812	-0.501465	-0.052246	-0.020508
146.0	5.784941	-0.05592	8.099138	-0.004354	0.011724	-0.007754	-0.503662	-0.054443	-0.016113
147.0	5.800439	-0.067173	8.071214	-0.00431	0.0043	-0.003086	-0.512207	-0.054443	-0.018311
148.0	5.768019	-0.057232	8.028428	-0.005624	0.007348	-0.009148	-0.508057	-0.05249	-0.016357
149.0	5.826044	-0.056473	8.040871	-0.003327	0.006358	-0.005634	-0.505859	-0.050293	-0.011963
150.0	5.798915	-0.067093	8.07231	-0.003327	0.006359	-0.005635	-0.508057	-0.05249	-0.01416
151.0	5.793115	-0.067546	8.048858	-0.004826	0.006985	-0.004147	-0.505859	-0.050293	-0.009766
152.0	5.824392	-0.077671	8.092465	-0.005341	0.00967	-0.005208	-0.508057	-0.05249	-0.01416
153.0	5.791715	-0.067893	8.049862	-0.007229	0.008623	-0.005055	-0.505859	-0.052246	-0.020508
154.0	5.769777	-0.057325	8.054775	-0.004312	0.004302	-0.003088	-0.508057	-0.050293	-0.011963
155.0	5.82255	-0.057045	8.043397	-0.002448	0.009064	-0.005575	-0.503662	-0.05249	-0.01416
156.0	5.763281	-0.078866	8.082211	-0.006738	0.009653	-0.00633	-0.512207	-0.054688	-0.011963
157.0	5.799754	-0.067552	8.099311	-0.006223	0.006969	-0.00527	-0.505859	-0.05249	-0.01416
158.0	5.767224	-0.057678	8.056601	-0.004336	0.008018	-0.005423	-0.505859	-0.050293	-0.01416
159.0	5.803759	-0.046266	8.073664	-0.004829	0.006988	-0.004149	-0.51001	-0.054688	-0.01416
160.0	5.797984	-0.067938	8.100574	-0.006224	0.00697	-0.005271	-0.512207	-0.056641	-0.016113
161.0	5.786995	-0.068836	8.053248	-0.002426	0.005352	-0.003242	-0.503662	-0.050293	-0.01416
162.0	5.791719	-0.047483	8.027094	-0.009014	0.006934	-0.007514	-0.505615	-0.058838	-0.013916
163.0	5.801514	-0.046981	8.075272	-0.005451	0.01032	-0.002602	-0.505615	-0.054443	-0.018311
164.0	5.806481	-0.080324	8.050106	-0.005838	0.008646	-0.003937	-0.505615	-0.054443	-0.016113
165.0	5.768192	-0.058504	8.08349	-0.004338	0.008021	-0.005424	-0.505859	-0.052246	-0.020508
166.0	5.788978	-0.069324	8.07942	-0.004339	0.008022	-0.005425	-0.510254	-0.050293	-0.01416
167.0	5.820045	-0.058251	8.072826	-0.004469	0.012383	-0.005151	-0.51001	-0.058838	-0.020508
168.0	5.787295	-0.069366	8.080625	-0.003848	0.009053	-0.006699	-0.501465	-0.05249	-0.016113
169.0	5.776069	-0.070013	8.033488	-0.003356	0.010084	-0.007973	-0.508057	-0.05249	-0.018311
170.0	5.81762	-0.058074	8.074574	-0.005349	0.00968	-0.005213	-0.501465	-0.054443	-0.01416
171.0	5.790179	-0.04777	8.055812	-0.00256	0.009717	-0.002969	-0.505615	-0.054688	-0.01416
172.0	5.805715	-0.080128	8.078266	-0.003438	0.007012	-0.003031	-0.503662	-0.052246	-0.018311
173.0	5.788944	-0.047963	8.056698	-0.004833	0.006994	-0.004154	-0.512451	-0.05249	-0.01416
174.0	5.794154	-0.081199	8.031377	-0.006228	0.006976	-0.005276	-0.512207	-0.056641	-0.016113
175.0	5.793107	-0.047876	8.081301	-0.003824	0.005338	-0.004367	-0.503662	-0.054443	-0.016113
176.0	5.787422	-0.048308	8.057789	-0.006122	0.006334	-0.007886	-0.503662	-0.054443	-0.018311
177.0	5.797842	-0.081019	8.056323	-0.004343	0.008027	-0.005428	-0.503906	-0.048096	-0.018311
178.0	5.781057	-0.048716	8.034769	-0.003333	0.006371	-0.005641	-0.507813	-0.054443	-0.018311
179.0	5.785543	-0.048256	8.059139	-0.004369	0.011747	-0.007763	-0.503662	-0.05249	-0.01416
180.0	5.806194	-0.058987	8.055198	-0.004344	0.008028	-0.005429	-0.505859	-0.05249	-0.01416
181.0	5.784105	-0.048285	8.06017	-0.005739	0.008011	-0.006552	-0.505615	-0.054688	-0.01416
182.0	5.783462	-0.048345	8.060632	-0.004344	0.008029	-0.00543	-0.505615	-0.054443	-0.018311
183.0	5.810003	-0.092212	8.030903	-0.00396	0.009704	-0.004094	-0.505615	-0.054688	-0.009766
184.0	5.813843	-0.058383	8.10488	-0.002459	0.00908	-0.00558	-0.507813	-0.056641	-0.018311
185.0	5.776088	-0.048891	8.038341	-0.010032	0.008601	-0.007315	-0.503662	-0.054443	-0.016113
186.0	5.791724	-0.081219	8.060721	-0.000439	0.005768	-0.006005	-0.505859	-0.054443	-0.020508
187.0	5.801623	-0.059326	8.058488	-0.00634	0.007623	-0.002672	-0.506104	-0.048096	-0.020508
188.0	5.795869	-0.059849	8.035039	-0.003336	0.006375	-0.005643	-0.507813	-0.058838	-0.011963
189.0	5.795293	-0.059837	8.035454	-0.004347	0.008032	-0.005431	-0.501465	-0.050049	-0.020508
190.0	5.778345	-0.048693	8.064299	-0.003856	0.009065	-0.006705	-0.505859	-0.05249	-0.016357
191.0	5.799222	-0.059453	8.060215	-0.005223	0.005326	-0.005495	-0.505615	-0.058838	-0.016113
192.0	5.798797	-0.059579	8.06052	-0.006618	0.005309	-0.006619	-0.505859	-0.052246	-0.020508
193.0	5.792948	-0.060183	8.037142	-0.00916	0.011313	-0.007257	-0.503662	-0.052246	-0.020508
194.0	5.770947	-0.049796	8.042026	-0.005303	0.002246	-0.000551	-0.505859	-0.050293	-0.011963
195.0	5.797026	-0.060319	8.061789	-0.004378	0.011758	-0.007767	-0.503662	-0.052246	-0.018311
196.0	5.791202	-0.060721	8.038396	-0.004321	0.004312	-0.003098	-0.51001	-0.056641	-0.018311
197.0	5.779712	-0.049386	8.090877	-0.005224	0.005328	-0.005496	-0.508057	-0.050293	-0.009766
198.0	5.800678	-0.060275	8.086738	-0.006236	0.006986	-0.005285	-0.503662	-0.050293	-0.01416
199.0	5.79505	-0.060846	8.063205	-0.005716	0.004296	-0.004223	-0.505859	-0.052246	-0.020508
200.0	5.76807	-0.05069	8.044085	-0.005716	0.004296	-0.004224	-0.508057	-0.05249	-0.018311
201.0	5.799408	-0.060699	8.087645	-0.001453	0.007431	-0.005794	-0.501221	-0.056641	-0.016113
202.0	5.78849	-0.061459	8.040344	-0.009027	0.006953	-0.007535	-0.510254	-0.05249	-0.01416
203.0	5.804282	-0.093905	8.062605	-0.004214	0.003674	-0.005709	-0.507813	-0.054443	-0.016113
204.0	5.803294	-0.039353	8.062177	-0.003831	0.005348	-0.004373	-0.505615	-0.056641	-0.020508
205.0	5.770939	-0.050575	8.069588	-0.004735	0.006365	-0.006771	-0.507813	-0.054443	-0.022705
206.0	5.808132	-0.072399	8.03717	-0.004353	0.00804	-0.005435	-0.505615	-0.056641	-0.016113
207.0	5.764688	-0.050938	8.046507	-0.005118	0.004692	-0.008108	-0.507813	-0.054443	-0.020508
208.0	5.807185	-0.072327	8.037855	-0.003341	0.006383	-0.005647	-0.505859	-0.050293	-0.011963
209.0	5.790299	-0.061238	8.066614	-0.004354	0.008041	-0.005435	-0.505615	-0.054443	-0.016113
210.0	5.827506	-0.083022	8.034204	-0.003342	0.006384	-0.005647	-0.503662	-0.050293	-0.018311
211.0	5.783972	-0.061459	8.043595	-0.00515	0.00842	-0.010444	-0.508057	-0.050293	-0.018311
212.0	5.820568	-0.04983	8.060719	-0.003312	0.002658	-0.003313	-0.507813	-0.054443	-0.018311
213.0	5.793437	-0.060671	8.091924	-0.004247	0.007403	-0.008046	-0.505615	-0.058838	-0.016113
214.0	5.787583	-0.060891	8.068566	-0.004769	0.010096	-0.009109	-0.503662	-0.054688	-0.01416
215.0	5.823844	-0.049181	8.085936	-0.002471	0.009095	-0.005584	-0.501221	-0.056641	-0.018311
216.0	5.764712	-0.049934	8.074042	-0.001949	0.006403	-0.004523	-0.503662	-0.05249	-0.01416
217.0	5.785528	-0.060497	8.070043	-0.003376	0.010114	-0.007984	-0.501465	-0.05249	-0.016113
218.0	5.806295	-0.071288	8.06608	-0.006353	0.007631	-0.002681	-0.503662	-0.052246	-0.018311
219.0	5.779027	-0.060968	8.047152	-0.002363	0.008458	-0.008195	-0.503662	-0.054443	-0.018311
220.0	5.783371	-0.060542	8.071588	-0.003597	0.011393	-0.002764	-0.503662	-0.054443	-0.020508
221.0	5.804073	-0.071352	8.067679	-0.005754	0.008029	-0.006566	-0.508057	-0.05249	-0.018311
222.0	5.813785	-0.049414	8.065615	-0.003869	0.009082	-0.006712	-0.512207	-0.054443	-0.020508
223.0	5.807964	-0.049717	8.042246	-0.002965	0.008063	-0.004313	-0.505615	-0.054688	-0.01416
224.0	5.802146	-0.071173	8.069066	-0.001841	0.005768	-0.007135	-0.507813	-0.054688	-0.01416
225.0	5.806749	-0.049428	8.043125	-0.003489	0.010757	-0.005376	-0.501465	-0.050293	-0.011963
226.0	5.779225	-0.060172	8.07456	-0.002365	0.008462	-0.008198	-0.508057	-0.05249	-0.011963
227.0	5.778522	-0.060016	8.075064	-0.005265	0.009068	-0.007841	-0.505615	-0.054688	-0.01416
228.0	5.789084	-0.092701	8.073538	-0.002933	0.004335	-0.001979	-0.508057	-0.050293	-0.018311
229.0	5.809366	-0.048866	8.068802	-0.002967	0.008065	-0.004315	-0.505615	-0.056641	-0.018311
230.0	5.776797	-0.060101	8.076298	-0.005266	0.00907	-0.007842	-0.508057	-0.05249	-0.01416
231.0	5.787366	-0.071458	8.024597	-0.002968	0.008066	-0.004315	-0.505615	-0.054688	-0.011963
232.0	5.80745	-0.048847	8.070182	-0.003838	0.005356	-0.00438	-0.505859	-0.05249	-0.01416
233.0	5.77514	-0.060187	8.077482	-0.005233	0.00534	-0.005507	-0.505859	-0.052246	-0.022705
234.0	5.790969	-0.071124	8.049557	-0.002367	0.008467	-0.008199	-0.503662	-0.054688	-0.01416
235.0	5.805953	-0.048776	8.071258	-0.004329	0.00432	-0.003108	-0.503662	-0.052246	-0.018311
236.0	5.773536	-0.060114	8.078629	-0.005268	0.009073	-0.007844	-0.507813	-0.054443	-0.016113
237.0	5.804769	-0.048906	8.072109	-0.004855	0.007016	-0.004171	-0.503662	-0.05249	-0.016113
238.0	5.793783	-0.070951	8.075076	-0.004365	0.008053	-0.005444	-0.505615	-0.054688	-0.01416
239.0	5.766599	-0.0606	8.056065	-0.00335	0.006395	-0.005654	-0.508057	-0.05249	-0.018311
240.0	5.787563	-0.071324	8.052004	-0.004856	0.007017	-0.004172	-0.507813	-0.054443	-0.016113
241.0	5.797337	-0.049463	8.049911	-0.004366	0.008054	-0.005445	-0.51001	-0.054443	-0.018311
242.0	5.786248	-0.0715	8.052948	-0.005382	0.009713	-0.005235	-0.505615	-0.054443	-0.016113
243.0	5.801076	-0.049248	8.074762	-0.003351	0.006397	-0.005655	-0.508057	-0.050293	-0.016357
244.0	5.79549	-0.049373	8.051241	0.000945	0.005808	-0.004882	-0.505859	-0.052246	-0.018311
245.0	5.789721	-0.070787	8.07799	-0.003351	0.006398	-0.005656	-0.505859	-0.050293	-0.01416
246.0	5.799448	-0.048891	8.075933	-0.006779	0.009699	-0.006365	-0.505859	-0.052246	-0.020508
247.0	5.761792	-0.060542	8.059505	-0.004256	0.007421	-0.008058	-0.508057	-0.05249	-0.018311
248.0	5.798096	-0.048795	8.076905	-0.002484	0.009111	-0.005591	-0.505615	-0.054443	-0.016113
249.0	5.787119	-0.070824	8.079853	-0.005349	0.005981	-0.002901	-0.507813	-0.056641	-0.01416
250.0	5.802192	-0.027226	8.051369	-0.002372	0.008476	-0.008203	-0.507813	-0.054443	-0.018311
251.0	5.807347	-0.081321	8.076343	-0.005274	0.009081	-0.00785	-0.505859	-0.052246	-0.018311
252.0	5.790541	-0.049018	8.054804	-0.002449	0.005378	-0.003256	-0.507813	-0.054443	-0.018311
253.0	5.790044	-0.049121	8.055161	-0.006255	0.007005	-0.005304	-0.505859	-0.05249	-0.01416
254.0	5.826462	-0.037558	8.072491	-0.003353	0.006401	-0.005658	-0.507813	-0.056641	-0.016113
255.0	5.800255	-0.081785	8.053912	-0.004221	0.003689	-0.005724	-0.505859	-0.05249	-0.016357
256.0	5.810324	-0.059829	8.051621	-0.004221	0.003689	-0.005724	-0.505859	-0.054443	-0.022705
257.0	5.793278	-0.048966	8.08036	-0.006407	0.011377	-0.00503	-0.505615	-0.056641	-0.018311
258.0	5.803937	-0.060352	8.028689	-0.003354	0.006403	-0.005659	-0.507813	-0.054443	-0.016113
259.0	5.813483	-0.059531	8.076879	-0.002375	0.008481	-0.008205	-0.503662	-0.05249	-0.016113
260.0	5.786189	-0.049002	8.057931	-0.002489	0.009116	-0.005593	-0.510254	-0.05249	-0.018311
261.0	5.801687	-0.08117	8.080411	-0.002489	0.009117	-0.005594	-0.505615	-0.056641	-0.016113
262.0	5.795149	-0.026787	8.056442	-0.00426	0.007428	-0.008062	-0.514404	-0.056641	-0.016113
263.0	5.778922	-0.070416	8.085722	-0.004864	0.007024	-0.004178	-0.505615	-0.054688	-0.011963
264.0	5.778508	-0.049128	8.035932	-0.003885	0.009103	-0.006724	-0.501465	-0.050293	-0.009766
265.0	5.804539	-0.059381	8.055796	-0.005127	0.004717	-0.008129	-0.501221	-0.058838	-0.011963
266.0	5.803961	-0.059417	8.056212	-0.005394	0.009723	-0.005243	-0.507813	-0.054443	-0.016113
267.0	5.776493	-0.070468	8.087457	-0.003357	0.006406	-0.005661	-0.508057	-0.05249	-0.016357
268.0	5.797685	-0.059807	8.03321	-0.007165	0.008035	-0.007713	-0.503662	-0.050293	-0.009766
269.0	5.802092	-0.059572	8.057557	-0.004377	0.008066	-0.005453	-0.507813	-0.054443	-0.016113
270.0	5.796397	-0.059924	8.034138	-0.004377	0.008066	-0.005453	-0.501221	-0.056641	-0.01416
271.0	5.80587	-0.059225	8.082355	-0.002869	0.007448	-0.006935	-0.508057	-0.05249	-0.011963
272.0	5.800094	-0.059464	8.058996	-0.004907	0.010766	-0.006518	-0.507813	-0.054688	-0.01416
273.0	5.799556	-0.05951	8.059383	-0.003319	0.002669	-0.003326	-0.505615	-0.054443	-0.016113
274.0	5.794045	-0.059892	8.035834	-0.008072	0.009064	-0.010119	-0.505859	-0.05249	-0.01416
275.0	5.803634	-0.03801	8.033906	-0.005399	0.009728	-0.005246	-0.505859	-0.050293	-0.016357
276.0	5.787457	-0.081702	8.063115	-0.00283	0.003711	-0.004599	-0.505615	-0.056641	-0.016113
277.0	5.802558	-0.0381	8.034683	-0.005399	0.009729	-0.005246	-0.505859	-0.050293	-0.016357
278.0	5.796584	-0.05991	8.061518	-0.004869	0.007029	-0.004182	-0.505859	-0.050293	-0.016357
279.0	5.796046	-0.059979	8.061904	-0.004755	0.006397	-0.006795	-0.505859	-0.05249	-0.011963
280.0	5.800771	-0.038342	8.035972	-0.005775	0.008056	-0.006587	-0.503662	-0.050293	-0.01416
281.0	5.778309	-0.049153	8.09107	-0.004381	0.008072	-0.005456	-0.505859	-0.05249	-0.016357
282.0	5.794265	-0.059939	8.063185	-0.000457	0.005809	-0.006014	-0.507813	-0.058838	-0.018311
283.0	5.788833	-0.060174	8.039588	-0.00434	0.00433	-0.003119	-0.51001	-0.056641	-0.018311
284.0	5.78827	-0.060324	8.039992	-0.005403	0.009732	-0.005248	-0.505859	-0.05249	-0.01416
285.0	5.814166	-0.070795	8.05997	-0.006266	0.007017	-0.005316	-0.507813	-0.054443	-0.016113
286.0	5.813521	-0.070878	8.060434	-0.005288	0.009101	-0.007862	-0.503662	-0.054443	-0.018311
287.0	5.774759	-0.049361	8.093603	-0.004383	0.008074	-0.005458	-0.508057	-0.05249	-0.016357
288.0	5.784393	-0.02738	8.091651	-0.005289	0.009102	-0.007862	-0.505615	-0.054443	-0.016113
289.0	5.789933	-0.060106	8.066295	0.001309	0.0075	-0.003543	-0.507813	-0.056641	-0.018311
290.0	5.810764	-0.070749	8.062422	-0.00831	0.010338	-0.004902	-0.505859	-0.05249	-0.01416
291.0	5.767018	-0.049579	8.071659	-0.000459	0.005813	-0.006015	-0.501465	-0.050293	-0.018311
292.0	5.787985	-0.060149	8.067692	-0.005896	0.008694	-0.003979	-0.505371	-0.061035	-0.011963
293.0	5.782332	-0.060509	8.044262	-0.004269	0.007445	-0.008072	-0.503906	-0.048096	-0.016357
294.0	5.808268	-0.070767	8.064221	-0.004386	0.008077	-0.00546	-0.505615	-0.058838	-0.013916
295.0	5.802645	-0.07102	8.040774	-0.00427	0.007447	-0.008073	-0.505859	-0.05249	-0.01416
296.0	5.790497	-0.059683	8.093373	-0.002876	0.007461	-0.00694	-0.505859	-0.05249	-0.016357
297.0	5.790168	-0.03839	8.043615	-0.010081	0.008654	-0.007379	-0.503662	-0.054443	-0.020508
298.0	5.800829	-0.070966	8.042085	0.002328	0.005845	-0.00375	-0.507813	-0.056641	-0.016113
299.0	5.794176	-0.038014	8.068222	-0.007132	0.004306	-0.005389	-0.501465	-0.050293	-0.016357
300.0	5.804925	-0.070773	8.066628	-0.005783	0.008066	-0.006594	-0.505859	-0.05249	-0.01416
301.0	5.793113	-0.038362	8.068983	-0.005367	0.005994	-0.002916	-0.505615	-0.054688	-0.009766
302.0	5.815376	-0.082289	8.015269	-0.005783	0.008067	-0.006595	-0.51001	-0.054688	-0.01416
303.0	5.813527	-0.049136	8.065434	-0.003367	0.006421	-0.005669	-0.505859	-0.050293	-0.011963
304.0	5.781007	-0.060587	8.07269	-0.005412	0.009741	-0.005255	-0.501465	-0.054443	-0.018311
305.0	5.753853	-0.050411	8.053596	-0.005251	0.005365	-0.005531	-0.510254	-0.05249	-0.01416
306.0	5.801516	-0.071183	8.069076	-0.000462	0.00582	-0.006016	-0.507813	-0.056641	-0.01416
307.0	5.811417	-0.049158	8.066954	-0.007134	0.004309	-0.005392	-0.51001	-0.054688	-0.01416
308.0	5.78938	-0.038649	8.071661	-0.004274	0.007453	-0.008076	-0.510254	-0.05249	-0.011963
309.0	5.784847	-0.093483	8.048584	-0.003857	0.00538	-0.004398	-0.510254	-0.05249	-0.01416
310.0	5.783455	-0.038981	8.04844	-0.005252	0.005367	-0.005532	-0.508057	-0.050293	-0.011963
311.0	5.799185	-0.071241	8.070751	-0.002881	0.007468	-0.006943	-0.503662	-0.052246	-0.018311
312.0	5.777451	-0.039198	8.025279	-0.005252	0.005367	-0.005533	-0.503662	-0.054443	-0.016113
313.0	5.803129	-0.07082	8.095393	0.001302	0.00751	-0.003542	-0.505859	-0.052246	-0.020508
314.0	5.781245	-0.038689	8.05003	-0.008088	0.009089	-0.010139	-0.503662	-0.054443	-0.016113
315.0	5.792007	-0.071253	8.048438	-0.001441	0.003735	-0.003472	-0.505859	-0.05249	-0.016357
316.0	5.796436	-0.070995	8.072728	-0.005418	0.009746	-0.005258	-0.507813	-0.058838	-0.01416
317.0	5.806124	-0.049105	8.070765	-0.005254	0.005369	-0.005534	-0.505859	-0.050293	-0.011963
318.0	5.790394	-0.071439	8.049598	-0.004765	0.006414	-0.006807	-0.505859	-0.05249	-0.01416
319.0	5.783494	-0.038626	8.075879	-0.00579	0.008075	-0.0066	-0.508057	-0.050293	-0.01416
320.0	5.767566	-0.061056	8.054851	-0.004514	0.008717	-0.002852	-0.505615	-0.058838	-0.013916
321.0	5.803936	-0.049467	8.072336	-0.003324	0.002679	-0.003335	-0.505615	-0.054443	-0.018311
322.0	5.82	-0.060257	8.044478	-0.007114	0.011184	-0.012688	-0.507813	-0.054688	-0.009766
323.0	5.802782	-0.049299	8.073166	-0.001442	0.003737	-0.003473	-0.508057	-0.048096	-0.016357
324.0	5.807085	-0.049039	8.097539	-0.005958	0.012456	-0.006326	-0.512207	-0.054443	-0.020508
325.0	5.764528	-0.06118	8.057025	-0.004886	0.007045	-0.004195	-0.505615	-0.054688	-0.011963
326.0	5.805963	-0.02779	8.048426	-0.004935	0.010797	-0.006534	-0.507813	-0.054443	-0.016113
327.0	5.79503	-0.049842	8.051274	-0.003862	0.005386	-0.004402	-0.505859	-0.05249	-0.016357
328.0	5.789181	-0.071552	8.077928	-0.00428	0.007464	-0.008082	-0.507813	-0.054443	-0.020508
329.0	5.793893	-0.049765	8.052093	-0.004399	0.008092	-0.005469	-0.503662	-0.054688	-0.01416
330.0	5.793203	-0.049769	8.052589	-0.005306	0.009126	-0.007877	-0.507813	-0.054443	-0.016113
331.0	5.787218	-0.071602	8.079333	-0.006283	0.007035	-0.005332	-0.505371	-0.061035	-0.013916
332.0	5.775408	-0.039145	8.081661	-0.002469	0.0054	-0.003268	-0.508057	-0.050293	-0.01416
333.0	5.791541	-0.049876	8.053784	-0.002887	0.00748	-0.006948	-0.505859	-0.050293	-0.016357
334.0	5.795878	-0.049439	8.078124	-0.002887	0.00748	-0.006948	-0.505859	-0.05249	-0.01416
335.0	5.785342	-0.04985	8.030786	-0.003913	0.009141	-0.006743	-0.503418	-0.056641	-0.020508
336.0	5.794583	-0.049228	8.079054	-0.001982	0.006447	-0.004541	-0.505859	-0.05249	-0.01416
337.0	5.820631	-0.059499	8.098969	-0.005259	0.005376	-0.005541	-0.508057	-0.05249	-0.016357
338.0	5.788621	-0.049404	8.055886	-0.002401	0.008528	-0.008222	-0.508057	-0.05249	-0.016357
339.0	5.792924	-0.049097	8.080244	-0.006285	0.007037	-0.005335	-0.505615	-0.054688	-0.01416
340.0	5.792339	-0.049089	8.080663	-0.001495	0.007495	-0.005814	-0.505859	-0.052246	-0.018311
341.0	5.78679	-0.049287	8.057202	-0.005798	0.008085	-0.006608	-0.508057	-0.05249	-0.01416
342.0	5.802842	-0.060036	8.029409	-0.00289	0.007484	-0.00695	-0.503418	-0.058838	-0.013916
343.0	5.780331	-0.070849	8.084269	-0.002352	0.004777	-0.005884	-0.508057	-0.05249	-0.018311
344.0	5.826858	-0.037004	8.099519	-0.004405	0.008098	-0.005473	-0.510254	-0.05249	-0.01416
345.0	5.795713	-0.081713	8.05696	-0.006459	0.011421	-0.005062	-0.507813	-0.054443	-0.018311
346.0	5.778853	-0.049539	8.035458	-0.004234	0.003718	-0.005749	-0.503662	-0.054688	-0.01416
347.0	5.810394	-0.03812	8.029018	-0.004355	0.004344	-0.003135	-0.505615	-0.056641	-0.018311
348.0	5.820805	-0.092332	8.077569	-0.007195	0.008076	-0.007748	-0.505615	-0.056641	-0.016113
349.0	5.787385	-0.049333	8.084211	-0.004235	0.003719	-0.00575	-0.501465	-0.05249	-0.016113
350.0	5.792435	-0.027591	8.058168	-0.005629	0.003707	-0.006887	-0.510254	-0.05249	-0.016357
351.0	5.781883	-0.049654	8.060721	-0.004235	0.00372	-0.00575	-0.505615	-0.054443	-0.016113
352.0	5.8081	-0.059946	8.080526	-0.00563	0.003708	-0.006888	-0.507568	-0.061035	-0.011963
353.0	5.802964	-0.060184	8.056776	-0.003208	0.002059	-0.005956	-0.505859	-0.050293	-0.011963
354.0	5.787579	-0.082477	8.035361	-0.007025	0.003697	-0.008025	-0.503174	-0.061035	-0.011963
355.0	5.839512	-0.027074	8.024343	-0.00908	0.007019	-0.007615	-0.505615	-0.056641	-0.01416
356.0	5.801948	-0.060487	8.057506	-0.003208	0.002061	-0.005957	-0.510254	-0.050293	-0.01416
357.0	5.780042	-0.050012	8.06204	-0.006659	0.005371	-0.006683	-0.505859	-0.05249	-0.01416
358.0	5.796388	-0.060844	8.034063	-0.004237	0.003722	-0.005751	-0.507813	-0.054688	-0.01416
359.0	5.800926	-0.060651	8.05824	-0.005265	0.005383	-0.005546	-0.51001	-0.054443	-0.016113
360.0	5.827076	-0.070984	8.078097	-0.005632	0.003711	-0.00689	-0.501221	-0.056641	-0.018311
361.0	5.800117	-0.060695	8.058822	-0.004291	0.007481	-0.008091	-0.507813	-0.054443	-0.018311
362.0	5.799644	-0.060718	8.059163	-0.004359	0.004347	-0.003137	-0.503662	-0.054688	-0.01416
363.0	5.782407	-0.049921	8.087769	-0.00241	0.008542	-0.008225	-0.508057	-0.05249	-0.011963
364.0	5.776911	-0.049997	8.064283	-0.003385	0.006445	-0.005682	-0.505615	-0.054688	-0.011963
365.0	5.802946	-0.060248	8.084226	-0.003872	0.005397	-0.00441	-0.508057	-0.050293	-0.016357
366.0	5.786174	-0.028106	8.062664	-0.00769	0.007035	-0.006481	-0.507813	-0.054443	-0.016113
367.0	5.792061	-0.061023	8.037182	-0.004415	0.008108	-0.005477	-0.503662	-0.054443	-0.022705
368.0	5.811554	-0.038441	8.083079	-0.002357	0.004786	-0.005888	-0.505859	-0.050293	-0.020508
369.0	5.78555	-0.08281	8.06425	-0.006473	0.011431	-0.005067	-0.505859	-0.05249	-0.011963
370.0	5.795175	-0.060883	8.062375	-0.004239	0.003726	-0.005754	-0.508057	-0.05249	-0.016357
371.0	5.826486	-0.049346	8.056149	-0.002656	0.009793	-0.002996	-0.505859	-0.050293	-0.020508
372.0	5.777103	-0.050297	8.091556	-0.00684	0.00976	-0.006412	-0.510254	-0.05249	-0.018311
373.0	5.814822	-0.071562	8.059489	-0.003387	0.006449	-0.005683	-0.505859	-0.050293	-0.011963
374.0	5.790924	-0.027991	8.114091	-0.002536	0.009172	-0.005612	-0.505859	-0.05249	-0.016357
375.0	5.813504	-0.07143	8.060441	-0.004417	0.008111	-0.005479	-0.503662	-0.054443	-0.016113
376.0	5.774911	-0.028639	8.043323	-0.003931	0.009162	-0.006751	-0.503906	-0.048096	-0.018311
377.0	5.79071	-0.060933	8.065583	-0.003332	0.002689	-0.003345	-0.503662	-0.054443	-0.018311
378.0	5.768581	-0.050562	8.070241	-0.005448	0.009774	-0.005275	-0.505615	-0.056641	-0.016113
379.0	5.784585	-0.061323	8.042562	-0.005326	0.009152	-0.007892	-0.507813	-0.054443	-0.016113
380.0	5.810432	-0.071626	8.062655	-0.004906	0.007063	-0.004209	-0.51001	-0.054688	-0.011963
381.0	5.793549	-0.039403	8.041176	-0.003025	0.008125	-0.004341	-0.505859	-0.05249	-0.016357
382.0	5.819366	-0.049763	8.061292	-0.005937	0.008726	-0.004005	-0.508057	-0.050293	-0.009766
383.0	5.787272	-0.039939	8.018271	-0.005451	0.009777	-0.005277	-0.501465	-0.05249	-0.011963
384.0	5.790882	-0.061501	8.092863	-0.005938	0.008727	-0.004005	-0.505615	-0.054688	-0.01416
385.0	5.790579	-0.040137	8.043311	-0.006482	0.01144	-0.005073	-0.510254	-0.052246	-0.022705
386.0	5.806109	-0.072646	8.065759	-0.006302	0.007055	-0.005351	-0.505859	-0.05249	-0.011963
387.0	5.78856	-0.061964	8.09452	-0.00169	0.011903	-0.005542	-0.503662	-0.054443	-0.020508
388.0	5.799246	-0.094412	8.093038	-0.006179	0.006435	-0.007968	-0.503418	-0.056641	-0.011963
389.0	5.78776	-0.040318	8.045339	-0.004422	0.008118	-0.005483	-0.505859	-0.05249	-0.01416
390.0	5.808749	-0.050815	8.041524	-0.004423	0.008119	-0.005484	-0.505859	-0.05249	-0.009766
391.0	5.812897	-0.050552	8.065953	-0.002542	0.009181	-0.005615	-0.505615	-0.054443	-0.016113
392.0	5.797018	-0.07284	8.04489	-0.003698	0.011465	-0.002795	-0.508057	-0.05249	-0.016357
393.0	5.774858	-0.062281	8.049542	-0.000297	0.001472	-0.006301	-0.503662	-0.05249	-0.009766
394.0	5.811072	-0.050479	8.067268	-0.008368	0.010383	-0.004946	-0.503662	-0.054688	-0.01416
395.0	5.783833	-0.040297	8.048162	-0.002419	0.008562	-0.008233	-0.503418	-0.054688	-0.009766
396.0	5.804376	-0.07224	8.094412	-0.002485	0.005418	-0.003277	-0.499268	-0.054443	-0.01416
397.0	5.782772	-0.040266	8.048925	-0.006306	0.007059	-0.005355	-0.501465	-0.054443	-0.016113
398.0	5.803768	-0.050753	8.04512	-0.002545	0.009185	-0.005617	-0.505615	-0.056641	-0.018311
399.0	5.812727	-0.05028	8.093483	-0.004426	0.008123	-0.005486	-0.505859	-0.050293	-0.01416
400.0	5.802534	-0.050781	8.04601	-0.005275	0.005398	-0.00556	-0.505615	-0.054443	-0.016113
401.0	5.816905	-0.028493	8.068159	-0.00079	0.010869	-0.003131	-0.505859	-0.05249	-0.011963
402.0	5.80127	-0.050798	8.046921	-0.004367	0.004357	-0.003147	-0.507813	-0.058838	-0.01416
403.0	5.795214	-0.072818	8.073589	-0.0074	0.012492	-0.007494	-0.503662	-0.050293	-0.01416
404.0	5.804651	-0.05078	8.071887	-0.002	0.006473	-0.00455	-0.505615	-0.054443	-0.016113
405.0	5.799208	-0.050903	8.048406	-0.003941	0.009178	-0.00676	-0.503662	-0.052246	-0.018311
406.0	5.814785	-0.083159	8.070823	-0.003034	0.008136	-0.004347	-0.505859	-0.05249	-0.01416
407.0	5.812826	-0.028541	8.071098	-0.003942	0.009179	-0.006761	-0.505859	-0.052246	-0.018311
408.0	5.797194	-0.050755	8.049858	-0.003396	0.006464	-0.005692	-0.510254	-0.05249	-0.01416
409.0	5.791004	-0.07259	8.076611	-0.005523	0.013559	-0.007627	-0.510254	-0.05249	-0.016357
410.0	5.769016	-0.040399	8.031414	0.000239	0.009211	-0.003336	-0.503662	-0.054443	-0.022705
411.0	5.816374	-0.061015	8.047391	-0.005463	0.009791	-0.005288	-0.503662	-0.050293	-0.01416
412.0	5.772335	-0.040239	8.056413	-0.00443	0.008129	-0.005491	-0.503418	-0.056641	-0.011963
413.0	5.809588	-0.083108	8.074565	-0.005951	0.008739	-0.004017	-0.505859	-0.05249	-0.016357
414.0	5.787939	-0.050986	8.02913	-0.000483	0.005867	-0.006026	-0.507813	-0.058838	-0.01416
415.0	5.786779	-0.072514	8.07964	-0.004431	0.00813	-0.005492	-0.505859	-0.052246	-0.018311
416.0	5.791453	-0.050708	8.053989	-0.004072	0.009803	-0.004147	-0.512207	-0.058838	-0.01416
417.0	5.786078	-0.05088	8.030472	-0.002364	0.004805	-0.005898	-0.503662	-0.050293	-0.018311
418.0	5.81682	-0.061	8.074465	-0.006439	0.007687	-0.002747	-0.505615	-0.056641	-0.011963
419.0	5.794561	-0.050857	8.079134	-0.006313	0.007068	-0.005364	-0.503418	-0.058838	-0.018311
420.0	5.789056	-0.051169	8.05571	-0.004981	0.01085	-0.006562	-0.508057	-0.050293	-0.009766
421.0	5.778155	-0.073357	8.058444	-0.006313	0.007069	-0.005365	-0.503662	-0.054443	-0.016113
422.0	5.814797	-0.039911	8.026267	-0.00304	0.008143	-0.004351	-0.505859	-0.05249	-0.01416
423.0	5.808743	-0.061784	8.052895	-0.00304	0.008143	-0.004351	-0.507813	-0.058838	-0.01416
424.0	5.808158	-0.061774	8.053317	-0.004793	0.006461	-0.00684	-0.508057	-0.05249	-0.016357
425.0	5.785876	-0.051409	8.057993	-0.001774	0.008772	-0.000591	-0.51001	-0.056641	-0.016113
426.0	5.806694	-0.062003	8.054371	-0.010201	0.012488	-0.009793	-0.51001	-0.056641	-0.016113
427.0	5.794547	-0.029594	8.056865	-0.001457	0.003764	-0.003484	-0.505615	-0.054443	-0.018311
428.0	5.800758	-0.062225	8.031269	-0.005344	0.009182	-0.007911	-0.503418	-0.056641	-0.016113
429.0	5.783157	-0.051627	8.059943	-0.004436	0.008137	-0.005496	-0.503662	-0.052246	-0.018311
430.0	5.809055	-0.061913	8.080046	-0.005281	0.005409	-0.00557	-0.505859	-0.048096	-0.01416
431.0	5.782071	-0.051771	8.060721	-0.004437	0.008138	-0.005496	-0.503662	-0.05249	-0.016113
432.0	5.786245	-0.051526	8.085087	-0.000614	0.006493	-0.003411	-0.508057	-0.05249	-0.01416
433.0	5.790958	-0.029637	8.059444	-0.009169	0.01083	-0.009999	-0.507813	-0.054443	-0.022705
434.0	5.780204	-0.051762	8.06206	-0.001458	0.003765	-0.003485	-0.499512	-0.048096	-0.01416
435.0	5.805987	-0.062013	8.08225	-0.007419	0.012513	-0.00751	-0.501465	-0.050293	-0.016357
436.0	5.80058	-0.062263	8.058773	-0.002852	0.003757	-0.00463	-0.505615	-0.054688	-0.009766
437.0	5.783173	-0.05168	8.087284	-0.004439	0.00814	-0.005498	-0.501465	-0.05249	-0.011963
438.0	5.78995	-0.062652	8.011692	-0.003046	0.00815	-0.004354	-0.508057	-0.05249	-0.011963
439.0	5.803614	-0.062108	8.083954	-0.006191	0.00646	-0.00799	-0.505615	-0.054688	-0.01416
440.0	5.79351	-0.062642	8.036496	-0.007357	0.008741	-0.005171	-0.507813	-0.054688	-0.009766
441.0	5.804385	-0.095163	8.03493	-0.001524	0.007543	-0.005827	-0.505615	-0.056641	-0.018311
442.0	5.770478	-0.052251	8.04168	-0.005478	0.009806	-0.005298	-0.505615	-0.058838	-0.009766
443.0	5.806498	-0.040516	8.059642	-0.004376	0.004367	-0.003158	-0.507813	-0.056885	-0.011963
444.0	5.785681	-0.08483	8.064357	-0.005836	0.008135	-0.006645	-0.503906	-0.048096	-0.018311
445.0	5.783039	-0.052029	8.114711	-0.004799	0.006471	-0.006847	-0.505615	-0.056641	-0.016113
446.0	5.800113	-0.040769	8.03688	-0.00292	0.007537	-0.006973	-0.508057	-0.05249	-0.01416
447.0	5.794108	-0.062677	8.063425	-0.004929	0.007088	-0.004229	-0.503662	-0.050293	-0.016357
448.0	5.815105	-0.073041	8.059716	-0.003472	0.010259	-0.008044	-0.508057	-0.05249	-0.016357
449.0	5.788163	-0.062782	8.040347	-0.00334	0.002704	-0.003361	-0.507813	-0.054443	-0.020508
450.0	5.802676	-0.040516	8.062394	-0.003407	0.006482	-0.005703	-0.505615	-0.058838	-0.009766
451.0	5.79649	-0.062492	8.08906	-0.007428	0.012523	-0.007517	-0.503662	-0.050293	-0.009766
452.0	5.796533	-0.040784	8.039462	-0.001461	0.00377	-0.003487	-0.505615	-0.054443	-0.016113
453.0	5.800779	-0.040586	8.063759	-0.004445	0.008147	-0.005502	-0.505615	-0.054688	-0.011963
454.0	5.790002	-0.062599	8.066374	-0.001528	0.007549	-0.005829	-0.503418	-0.056641	-0.018311
455.0	5.794092	-0.062338	8.090779	-0.004446	0.008148	-0.005503	-0.505859	-0.05249	-0.01416
456.0	5.810376	-0.072842	8.063128	-0.002567	0.009214	-0.005629	-0.507813	-0.054443	-0.016113
457.0	5.771706	-0.030135	8.045914	-0.004447	0.008149	-0.005504	-0.51001	-0.054688	-0.01416
458.0	5.791997	-0.062268	8.09228	-0.005356	0.009199	-0.007922	-0.505859	-0.05249	-0.01416
459.0	5.803838	-0.073034	8.040488	-0.002432	0.001656	-0.000946	-0.508057	-0.05249	-0.01416
460.0	5.796529	-0.040578	8.066815	-0.008274	0.009799	-0.007597	-0.508057	-0.050293	-0.018311
461.0	5.812913	-0.051275	8.039104	-0.005288	0.005421	-0.005581	-0.505859	-0.050293	-0.01416
462.0	5.785302	-0.062873	8.069743	-0.00341	0.006487	-0.005706	-0.507813	-0.054443	-0.016113
463.0	5.806531	-0.073257	8.065893	-0.005289	0.005421	-0.005581	-0.507813	-0.054443	-0.016113
464.0	5.794527	-0.040894	8.068251	-0.005289	0.005422	-0.005581	-0.505615	-0.054688	-0.01416
465.0	5.800851	-0.073596	8.042638	-0.00445	0.008153	-0.005506	-0.51001	-0.054688	-0.01416
466.0	5.804918	-0.073631	8.067051	-0.00646	0.007701	-0.002763	-0.505859	-0.050293	-0.01416
467.0	5.814483	-0.05172	8.065319	-0.006199	0.006474	-0.008	-0.503662	-0.054443	-0.016113
468.0	5.81403	-0.051639	8.065646	-0.000978	0.004833	-0.00476	-0.507813	-0.054443	-0.018311
469.0	5.787278	-0.04133	8.046125	-0.002857	0.003766	-0.004636	-0.508057	-0.052246	-0.020508
470.0	5.803146	-0.073606	8.068326	-0.004806	0.006482	-0.006854	-0.505615	-0.054443	-0.018311
471.0	5.817426	-0.051428	8.090541	-0.006331	0.007089	-0.005383	-0.51001	-0.054443	-0.020508
472.0	5.775738	-0.063719	8.049269	-0.005776	0.004365	-0.004312	-0.51001	-0.056641	-0.018311
473.0	5.833483	-0.062269	8.06309	-0.004453	0.008156	-0.005507	-0.503662	-0.05249	-0.011963
474.0	5.784802	-0.041645	8.047903	-0.003282	0.005879	-0.008327	-0.508057	-0.050293	-0.009766
475.0	5.788837	-0.041574	8.072331	-0.008413	0.01042	-0.004984	-0.505615	-0.056641	-0.011963
476.0	5.820063	-0.029898	8.066468	-0.000979	0.004835	-0.004761	-0.503418	-0.056641	-0.01416
477.0	5.794636	-0.074078	8.047113	-0.001535	0.00756	-0.005832	-0.501465	-0.052246	-0.022705
478.0	5.772315	-0.063547	8.051726	-0.002929	0.007553	-0.00698	-0.505859	-0.05249	-0.016357
479.0	5.812953	-0.051325	8.093756	-0.002021	0.006501	-0.004561	-0.505859	-0.050293	-0.018311
480.0	5.798283	-0.051701	8.022328	-0.00397	0.009218	-0.006781	-0.505615	-0.054443	-0.016113
481.0	5.811705	-0.051334	8.094652	-0.005425	0.00604	-0.002967	-0.51001	-0.054443	-0.018311
482.0	5.832195	0.079285	8.164801	-0.029427	0.010652	-0.008042	-0.503662	-0.050293	-0.016357
483.0	5.788462	-0.067286	8.149368	-0.063252	-0.008543	-0.005841	-0.503662	-0.054443	-0.018311
484.0	5.892051	-0.004418	8.227747	-0.076553	-0.015377	-0.00238	-0.505859	-0.05249	-0.01416
485.0	6.030528	-0.00833	8.075659	-0.109742	-0.014044	0.008642	-0.503662	-0.054443	-0.016113
486.0	5.989689	-0.128137	8.133507	-0.10592	0.004663	0.011921	-0.503662	-0.05249	-0.016113
487.0	6.021492	-0.158878	8.078666	-0.119684	0.051093	0.016024	-0.503662	-0.050049	-0.022705
488.0	6.079772	-0.102693	8.243775	-0.113529	0.065273	0.013664	-0.507813	-0.056641	-0.018311
489.0	5.954324	-0.11601	7.923503	-0.153908	0.101304	0.019674	-0.512451	-0.050293	-0.018311
490.0	6.017449	0.09096	8.04025	-0.133446	0.093383	0.01971	-0.506104	-0.048096	-0.018311
491.0	6.096345	0.039779	8.02956	-0.094051	0.106221	0.006435	-0.501465	-0.050049	-0.022705
492.0	5.822692	0.253201	8.262255	-0.092388	0.142997	-0.027494	-0.505859	-0.05249	-0.016357
493.0	5.675632	-1.128403	7.817408	-0.096818	0.150417	-0.024152	-0.505615	-0.054443	-0.016113
494.0	5.504379	-0.243059	8.232355	-0.000169	0.127789	-0.052471	-0.506104	-0.048096	-0.018311
495.0	5.487143	-0.379626	8.115395	0.02001	0.108903	-0.076094	-0.503418	-0.056641	-0.022705
496.0	5.615215	-0.335405	8.021558	0.038072	0.092668	-0.076205	-0.499512	-0.045898	-0.020508
497.0	5.761673	-0.040569	8.123764	0.039231	0.083424	-0.071775	-0.505859	-0.052246	-0.020508
498.0	5.789467	0.032536	8.147367	0.028212	0.085433	-0.065562	-0.499268	-0.050049	-0.024902
499.0	5.770707	-0.015602	8.079974	0.025222	0.093136	-0.072593	-0.499268	-0.050049	-0.024902
500.0	5.719548	0.011136	8.093331	0.032139	0.093177	-0.066822	-0.499268	-0.052246	-0.022705
501.0	5.720921	-0.069348	8.072158	0.029894	0.100412	-0.068817	-0.494873	-0.054443	-0.022705
502.0	5.784326	-0.333721	8.11404	0.041852	0.096509	-0.063718	-0.499268	-0.054443	-0.022705
503.0	5.754264	-0.403062	8.049998	0.060402	0.130273	-0.045441	-0.49707	-0.054443	-0.024902
504.0	5.312246	-0.125362	7.985094	0.074794	0.104864	-0.037924	-0.49707	-0.054443	-0.020508
505.0	4.953133	-0.205711	7.928129	0.068385	0.082314	-0.04126	-0.49707	-0.054443	-0.022705
506.0	5.036913	-0.238032	7.915329	0.086579	0.013525	-0.04415	-0.49707	-0.056396	-0.029297
507.0	5.304102	0.053972	7.917912	0.096997	-0.002587	-0.043412	-0.49707	-0.056641	-0.022705
508.0	5.258264	0.008702	7.949992	0.12289	-0.041647	-0.049166	-0.499023	-0.056641	-0.0271
509.0	5.390925	-0.082371	8.024119	0.152797	-0.066868	-0.054551	-0.494873	-0.056396	-0.0271
510.0	6.317383	0.251376	8.40118	0.170828	-0.063089	-0.056067	-0.499023	-0.056641	-0.024902
511.0	5.66127	0.242821	8.118811	0.143292	-0.010519	-0.043155	-0.499023	-0.058594	-0.0271
512.0	5.824109	0.109264	8.189863	0.123726	-0.001298	-0.037094	-0.501221	-0.056396	-0.029297
513.0	5.880693	0.10169	8.254256	0.113512	0.000505	-0.037407	-0.501221	-0.056641	-0.020508
514.0	5.777317	0.096563	8.173878	0.087908	0.018158	-0.023887	-0.496826	-0.058838	-0.020508
515.0	5.765693	0.081706	8.177032	0.058798	0.023381	-0.023548	-0.501465	-0.054443	-0.024902
516.0	5.728731	0.205109	8.133634	0.03421	0.033211	-0.011785	-0.499023	-0.061035	-0.020508
517.0	5.659872	0.128048	8.123616	0.005469	0.042987	-0.003509	-0.499023	-0.060791	-0.0271
518.0	5.625861	0.028104	8.058426	-0.005152	0.046546	0.004079	-0.503418	-0.060791	-0.022705
519.0	5.558004	0.079142	8.021954	-0.007074	0.042255	0.009189	-0.501221	-0.058838	-0.022705
520.0	5.604271	0.188472	8.014128	-0.017017	0.039252	0.020248	-0.496826	-0.062988	-0.024902
521.0	5.69279	0.363365	8.072647	-0.038272	0.046377	0.035406	-0.494629	-0.058838	-0.020508
522.0	5.619135	0.277786	8.039089	-0.056363	0.04851	0.050012	-0.496826	-0.058594	-0.024902
523.0	5.651458	0.20523	8.111006	-0.082391	0.058391	0.060541	-0.496826	-0.058838	-0.020508
524.0	5.633346	0.204951	8.16623	-0.100223	0.056455	0.063277	-0.49707	-0.056396	-0.0271
525.0	5.698645	0.161613	8.18268	-0.123187	0.058177	0.078212	-0.499023	-0.058838	-0.022705
526.0	5.634509	0.12234	8.221312	-0.140171	0.055251	0.083334	-0.499268	-0.052246	-0.024902
527.0	5.678186	0.085014	8.241117	-0.159375	0.049594	0.087189	-0.494873	-0.054443	-0.0271
528.0	5.6091	0.019517	8.30462	-0.188939	0.036427	0.094078	-0.499268	-0.052246	-0.022705
529.0	5.538029	-0.135241	8.268768	-0.208377	0.025694	0.087301	-0.503662	-0.052246	-0.024902
530.0	5.507584	-0.083122	8.373359	-0.223117	0.005195	0.092414	-0.499512	-0.047852	-0.029297
531.0	5.529843	-0.116946	8.369068	-0.228165	-0.016876	0.078581	-0.501709	-0.047852	-0.029297
532.0	5.596938	-0.203052	8.281553	-0.228183	-0.037141	0.077254	-0.494873	-0.056396	-0.029297
533.0	5.598721	-0.171304	8.279374	-0.224442	-0.048184	0.068411	-0.495117	-0.045654	-0.029297
534.0	5.63964	-0.344542	8.268192	-0.204102	-0.058398	0.064682	-0.503906	-0.047852	-0.031494
535.0	5.606932	-0.320801	8.246234	-0.175134	-0.066096	0.060422	-0.497559	-0.043457	-0.033691
536.0	5.583646	-0.458463	8.245049	-0.152509	-0.076546	0.051401	-0.501709	-0.043701	-0.024902
537.0	5.554266	-0.48363	8.221021	-0.11595	-0.092919	0.040891	-0.497314	-0.045898	-0.024902
538.0	5.600175	-0.459563	8.184141	-0.091396	-0.105237	0.025196	-0.497559	-0.043701	-0.024902
539.0	5.681799	-0.452138	8.090838	-0.05984	-0.107733	0.014691	-0.499756	-0.043701	-0.0271
540.0	5.745506	-0.346092	8.101536	-0.032841	-0.105174	0.003602	-0.499756	-0.039307	-0.0271
541.0	5.801673	-0.291607	8.063305	-0.018507	-0.096173	-0.002169	-0.50415	-0.041504	-0.022705
542.0	5.750962	-0.293595	8.043578	-0.008168	-0.084872	-0.007454	-0.506104	-0.045898	-0.020508
543.0	5.809623	-0.236863	8.030627	0.007014	-0.073157	-0.01311	-0.503906	-0.043701	-0.022705
544.0	5.84682	-0.22291	8.021319	0.02058	-0.057008	-0.019622	-0.506348	-0.041504	-0.022705
545.0	5.847573	-0.195901	7.945246	0.03525	-0.032632	-0.02697	-0.50415	-0.041504	-0.020508
546.0	5.819217	-0.334182	7.996583	0.063882	-0.01796	-0.033575	-0.503906	-0.045898	-0.022705
547.0	5.806422	-0.238443	8.000479	0.096886	0.013088	-0.047215	-0.506104	-0.045898	-0.016357
548.0	5.768774	-0.238196	7.983412	0.120593	0.02456	-0.060101	-0.503662	-0.052246	-0.022705
549.0	5.731499	-0.204205	8.041748	0.141505	0.038955	-0.068743	-0.503906	-0.043701	-0.0271
550.0	5.67353	-0.298936	8.028145	0.152051	0.042107	-0.072108	-0.501953	-0.041504	-0.022705
551.0	5.692234	-0.292047	8.026927	0.166389	0.040734	-0.079961	-0.501465	-0.052246	-0.022705
552.0	5.661311	-0.19906	8.134495	0.188237	0.036592	-0.080942	-0.503662	-0.052246	-0.018311
553.0	5.661671	-0.125747	8.161164	0.168747	0.021772	-0.073841	-0.503418	-0.056641	-0.022705
554.0	5.698964	-0.042655	8.205364	0.145405	0.015275	-0.064568	-0.499268	-0.052246	-0.018311
555.0	5.688358	-0.050633	8.207555	0.11777	-0.00059	-0.055426	-0.503662	-0.052246	-0.024902
556.0	5.676037	-0.115232	8.184791	0.101409	-0.003008	-0.054175	-0.507813	-0.054443	-0.018311
557.0	5.671149	-0.12597	8.210193	0.102572	-0.015146	-0.056309	-0.501465	-0.054443	-0.016113
558.0	5.644425	-0.158938	8.164605	0.098445	-0.028834	-0.05677	-0.509766	-0.061035	-0.020508
559.0	5.644024	-0.115398	8.212996	0.092839	-0.0387	-0.060737	-0.501465	-0.054443	-0.020508
560.0	5.672675	-0.146994	8.156671	0.08944	-0.045817	-0.063454	-0.503418	-0.061035	-0.018311
561.0	5.698739	-0.145941	8.150028	0.092048	-0.054716	-0.069391	-0.501221	-0.056641	-0.016113
562.0	5.732942	-0.067715	8.141432	0.089263	-0.051436	-0.076738	-0.503418	-0.056641	-0.020508
563.0	5.713039	-0.100387	8.118337	0.095066	-0.052542	-0.077386	-0.499023	-0.058838	-0.020508
564.0	5.659611	-0.09015	8.101017	0.09583	-0.059279	-0.088203	-0.505615	-0.058838	-0.018311
565.0	5.664783	-0.076836	8.097539	0.105072	-0.066552	-0.094692	-0.503418	-0.061035	-0.018311
566.0	5.668423	-0.008153	8.093475	0.109944	-0.076444	-0.097061	-0.507568	-0.065186	-0.020508
567.0	5.666371	0.016798	8.164841	0.102776	-0.085687	-0.099555	-0.505371	-0.062988	-0.020508
568.0	5.667054	0.085251	8.135415	0.106688	-0.0977	-0.09938	-0.511963	-0.061035	-0.013916
569.0	5.672725	0.022583	8.155628	0.095086	-0.115668	-0.099333	-0.503174	-0.063232	-0.011963
570.0	5.731728	0.038522	8.114577	0.105429	-0.128302	-0.103712	-0.505371	-0.06543	-0.009766
571.0	5.664641	-0.015538	8.147338	0.112136	-0.14688	-0.105499	-0.509521	-0.067383	-0.016113
572.0	5.640561	-0.034582	8.170974	0.107994	-0.163886	-0.1152	-0.50293	-0.067627	-0.005371
573.0	5.615704	-0.020156	8.243048	0.11179	-0.198338	-0.120197	-0.509521	-0.06543	-0.007568
574.0	5.552072	0.069698	8.344909	0.114129	-0.232715	-0.126394	-0.507324	-0.072021	-0.005371
575.0	5.429663	0.113654	8.507423	0.113098	-0.297032	-0.128761	-0.50293	-0.071777	-0.005371
576.0	5.134397	-0.419326	8.790083	0.09332	-0.391984	-0.142639	-0.509521	-0.067627	-0.000977
577.0	5.271449	-0.428496	8.622612	0.183412	-0.561208	-0.176784	-0.518311	-0.067627	-0.003174
578.0	5.590614	-0.093631	8.551507	0.179855	-0.657332	-0.190949	-0.517822	-0.076416	0.001221
579.0	5.398376	1.256456	9.554811	0.157878	-0.802498	-0.193432	-0.522217	-0.076416	0.007813
580.0	5.404187	0.072461	8.731176	0.177437	-0.995692	-0.16709	-0.521973	-0.083008	0.016357
581.0	5.255621	0.406732	9.27302	0.110974	-1.182489	-0.161175	-0.526611	-0.07666	0.020752
582.0	5.332525	0.285832	9.39507	0.158545	-1.446217	-0.14862	-0.530762	-0.081055	0.031494
583.0	5.101507	0.083216	9.623101	0.167421	-1.68392	-0.177002	-0.532959	-0.076904	0.04248
584.0	4.67589	-0.327541	9.94876	0.15544	-1.993396	-0.265499	-0.539307	-0.083496	0.053223
585.0	4.476848	-0.440424	10.059014	0.198663	-2.37045	-0.386655	-0.548096	-0.081543	0.061768
586.0	4.576003	-1.002304	10.360279	0.269423	-2.774141	-0.530222	-0.556396	-0.092529	0.079346
587.0	4.891347	-1.461088	10.249352	0.452225	-3.181851	-0.708577	-0.560791	-0.09082	0.103027
588.0	4.968365	-1.64788	10.272182	0.661648	-3.581402	-0.913329	-0.571289	-0.097656	0.122559
589.0	5.25484	-1.71936	9.834635	0.922192	-3.940631	-1.151501	-0.57959	-0.106445	0.144287
590.0	5.550119	-0.098996	9.362234	1.194909	-4.429607	-1.3279	-0.592285	-0.115723	0.178955
591.0	7.347394	-0.017779	11.178778	1.050213	-4.89322	-1.372944	-0.591797	-0.126709	0.205078
592.0	9.313521	-3.188609	9.001367	1.421543	-4.997899	-1.463695	-0.604248	-0.137939	0.239746
593.0	11.409545	0.024164	10.905593	1.430009	-5.410583	-1.47816	-0.601807	-0.142822	0.278809
594.0	15.892349	-2.989365	10.772371	1.038678	-5.249957	-1.612165	-0.597168	-0.151855	0.311279
595.0	18.134428	-6.246888	9.943765	1.553693	-4.768982	-2.043749	-0.598633	-0.163086	0.3396
596.0	14.615081	-1.42482	9.554696	2.19852	-4.215855	-2.223455	-0.587402	-0.169922	0.36792
597.0	14.488243	-0.095494	9.27985	2.0559	-3.902329	-2.066984	-0.576416	-0.176514	0.385254
598.0	10.052809	1.854941	11.488887	1.829483	-2.915292	-1.749766	-0.576172	-0.183105	0.400391
599.0	12.223962	-5.193212	14.666597	0.849811	-2.06027	-0.703743	-0.569824	-0.172363	0.404785
600.0	9.235098	-6.546018	15.833086	0.674958	-0.925288	0.348964	-0.568115	-0.163818	0.402588
601.0	6.492399	-7.583894	12.977399	1.044978	-0.163278	0.76357	-0.56665	-0.146484	0.398193
602.0	3.575674	-3.017266	12.412752	1.06599	0.664949	0.919244	-0.560547	-0.133301	0.378662
603.0	-0.9072	-0.229374	10.336418	0.750643	0.934506	0.981793	-0.55957	-0.107422	0.371826
604.0	-2.096899	-0.084336	9.214864	0.281951	0.945564	0.900274	-0.549072	-0.094238	0.352295
605.0	-1.994754	-0.663	8.800959	-0.009381	0.999238	0.691958	-0.543213	-0.078857	0.337158
606.0	-3.001503	-1.016984	8.012144	-0.165401	1.043906	0.459455	-0.531006	-0.059326	0.330566
607.0	-1.999306	-0.647696	8.350856	-0.223254	0.940314	0.297332	-0.518555	-0.041992	0.313232
608.0	0.693784	-0.962534	9.397791	-0.369589	1.086644	0.240671	-0.493408	-0.02002	0.300049
609.0	2.445471	-1.673198	10.201296	-0.434495	1.468222	0.252834	-0.483154	-0.000488	0.289063
610.0	3.279055	-1.72546	10.523612	-0.460716	1.895744	0.330692	-0.456055	0.025391	0.280518
611.0	3.632833	-1.526598	10.326232	-0.513064	2.297202	0.482926	-0.42627	0.045166	0.271729
612.0	3.940843	-1.333835	10.178255	-0.590797	2.620707	0.688237	-0.401123	0.072998	0.275879
613.0	4.40945	-1.386871	9.939546	-0.632675	2.905835	0.870433	-0.375977	0.099121	0.273682
614.0	4.945659	-1.221753	9.873242	-0.623485	3.15444	1.000312	-0.344238	0.122803	0.282227
615.0	5.374277	-0.682569	9.898438	-0.615028	3.372165	1.082653	-0.319336	0.150391	0.303955
616.0	5.83688	-0.108213	10.00116	-0.671173	3.559639	1.125066	-0.29126	0.163086	0.334229
617.0	6.457167	0.204119	10.290152	-0.759042	3.733656	1.116815	-0.281006	0.179932	0.362305
618.0	7.190384	0.376696	10.619209	-0.871819	3.890986	1.081119	-0.270752	0.196533	0.412109
619.0	7.851088	0.412324	10.937307	-0.981514	4.047512	1.006938	-0.279053	0.19165	0.446777
620.0	8.518369	0.416779	11.292196	-1.100003	4.181724	0.954591	-0.30957	0.191162	0.479248
621.0	9.177016	0.128249	11.542739	-1.219624	4.297221	0.920322	-0.337646	0.184326	0.500977
622.0	9.815878	-0.222572	11.769963	-1.31244	4.373293	0.932556	-0.380371	0.168701	0.520508
623.0	10.049692	-0.494808	11.764456	-1.361989	4.408511	0.96867	-0.419189	0.155762	0.516113
624.0	10.050218	-0.314596	11.581212	-1.416749	4.344745	1.03271	-0.459961	0.142822	0.505127
625.0	10.039194	-0.003121	11.42701	-1.495106	4.152003	1.120437	-0.505127	0.125977	0.477051
626.0	10.194144	0.113061	11.142644	-1.608415	3.875623	1.20189	-0.5354	0.117676	0.446777
627.0	10.48208	0.249498	10.902231	-1.69098	3.487238	1.275844	-0.563477	0.109375	0.409912
628.0	12.284286	0.901231	11.008827	-1.788738	3.077528	1.371068	-0.587402	0.105469	0.368652
629.0	14.228033	3.310489	11.038962	-1.878979	2.798397	1.476789	-0.615723	0.105957	0.331787
630.0	16.141815	5.102789	10.801665	-2.225461	2.709873	1.479837	-0.629395	0.117188	0.281738
631.0	18.568346	4.776401	9.975644	-2.210717	2.773489	1.252164	-0.634033	0.122314	0.229736
632.0	20.297698	5.334758	8.557716	-1.984171	2.992975	0.865554	-0.628174	0.137939	0.179932
633.0	20.640319	6.665898	6.356743	-1.731965	3.199464	0.490321	-0.617676	0.147461	0.13208
634.0	20.213617	7.328469	3.342471	-1.586364	3.267241	0.246203	-0.60498	0.150146	0.084473
635.0	19.530343	6.271517	-0.607549	-1.428275	3.158058	0.085103	-0.585693	0.157227	0.047607
636.0	19.535873	5.658136	-4.527771	-1.154775	2.851095	-0.062578	-0.566162	0.159912	0.019531
637.0	19.428266	6.71364	-8.286813	-0.998875	2.407071	-0.163308	-0.54248	0.162354	-0.006592
638.0	18.996814	8.080623	-11.033962	-1.075133	1.787626	-0.219324	-0.531738	0.166992	-0.023926
639.0	18.155969	7.417901	-12.480011	-1.123002	0.997488	-0.254052	-0.525635	0.175781	-0.036865
640.0	17.796212	5.240628	-12.175795	-0.757309	0.147728	-0.295984	-0.525391	0.171387	-0.034668
641.0	18.501354	4.195399	-10.057962	-0.113249	-0.617867	-0.310937	-0.519043	0.175781	-0.032471
642.0	13.546853	-4.58574	-0.845562	0.145002	-0.958311	-0.133531	-0.523193	0.17334	-0.019531
643.0	-3.414642	-5.715699	-4.979489	3.896978	-1.763712	-0.823131	-0.533447	0.156006	-0.012939
644.0	6.405422	8.921155	25.724833	2.111289	-3.544136	-0.147849	-0.542236	0.157959	0.0
645.0	-0.335082	-7.729801	12.269948	0.977042	-1.316153	-0.030441	-0.546387	0.153564	0.015137
646.0	3.167185	5.991962	5.406168	1.95963	-2.746811	0.175319	-0.554932	0.151123	0.030273
647.0	6.791904	4.880086	5.73221	0.934026	-3.100324	0.325478	-0.563721	0.155273	0.043213
648.0	10.328778	7.332003	13.583733	1.418337	-3.01306	-0.127441	-0.574463	0.152832	0.064941
649.0	9.697582	12.661599	12.720658	0.798132	-2.630443	-0.599526	-0.574707	0.156982	0.077881
650.0	11.58267	6.269598	10.981502	-0.122954	-2.746338	-0.505506	-0.585449	0.154541	0.095215
651.0	14.774302	-0.363014	11.423623	-0.110251	-2.314861	-0.331053	-0.591797	0.1521	0.104004
652.0	18.511027	-7.734757	12.31521	0.02802	-1.99572	-0.605769	-0.587646	0.154297	0.110352
653.0	10.604358	-5.012537	8.636363	0.993949	-0.513025	-0.486439	-0.595947	0.147705	0.110596
654.0	5.509868	-0.488814	8.235847	1.159704	-1.09941	-0.468776	-0.600342	0.147461	0.123535
655.0	8.763129	0.421584	9.531448	0.842494	-0.784865	-0.619627	-0.5979	0.143311	0.125732
656.0	7.641013	-1.418547	7.894292	0.942276	-0.402928	-0.60327	-0.597656	0.134521	0.12793
657.0	6.795786	0.215123	8.774041	1.035428	-0.426283	-0.604786	-0.597412	0.130127	0.132324
658.0	8.118781	1.201249	8.961254	0.860506	-0.161878	-0.559241	-0.599365	0.121582	0.130127
659.0	7.164547	1.488972	8.833209	0.767332	-0.076248	-0.468541	-0.599121	0.115234	0.130127
660.0	6.731813	1.80704	8.721989	0.524486	0.089048	-0.370034	-0.599121	0.11499	0.136719
661.0	6.206841	0.570574	8.472427	0.437266	0.060822	-0.30004	-0.59668	0.113037	0.136719
662.0	6.282251	0.665549	8.509485	0.36081	0.091422	-0.245565	-0.59668	0.108643	0.130127
663.0	5.741464	0.29708	8.387785	0.241462	0.111406	-0.188705	-0.601074	0.108643	0.12793
664.0	5.700453	0.171605	8.326693	0.214449	0.067833	-0.151454	-0.598633	0.106689	0.130127
665.0	5.674174	0.151006	8.334157	0.152854	0.045967	-0.122777	-0.594482	0.106445	0.134521
666.0	5.750849	0.104223	8.34903	0.121092	0.02572	-0.105525	-0.601074	0.11084	0.130127
667.0	5.738345	-0.046239	8.281853	0.103671	0.014358	-0.094264	-0.589844	0.104492	0.125977
668.0	5.898802	-0.175634	8.185467	0.099514	0.013622	-0.088873	-0.598633	0.102295	0.130127
669.0	5.832627	-0.21863	8.124549	0.111069	0.011273	-0.090072	-0.594238	0.102295	0.12793
670.0	5.755844	-0.138508	8.136126	0.130604	0.010542	-0.090678	-0.60083	0.102295	0.132324
671.0	5.736717	-0.056155	8.162701	0.137839	0.012596	-0.095179	-0.596436	0.104492	0.125977
672.0	5.59952	0.004251	8.209178	0.14176	0.003586	-0.099781	-0.594238	0.100098	0.132324
673.0	5.565297	0.263305	8.280739	0.137515	-0.007079	-0.093464	-0.598389	0.100098	0.130127
674.0	5.55367	0.3302	8.205475	0.106997	-0.025497	-0.07855	-0.598389	0.0979	0.128174
675.0	5.531284	0.386941	8.255267	0.078562	-0.04355	-0.066323	-0.600586	0.100098	0.134521
676.0	5.54636	0.327421	8.178307	0.046695	-0.072048	-0.051531	-0.594238	0.100098	0.134521
677.0	5.53118	0.253728	8.106015	0.023732	-0.089263	-0.043574	-0.596191	0.0979	0.132324
678.0	5.649363	0.094873	8.088167	0.009093	-0.106178	-0.040226	-0.600586	0.0979	0.136719
679.0	5.666076	0.010179	8.059362	0.011929	-0.105999	-0.049484	-0.596191	0.100098	0.134521
680.0	5.731103	0.070859	8.066582	0.024326	-0.094863	-0.060573	-0.600586	0.0979	0.136719
681.0	5.6597	0.121127	8.122705	0.028079	-0.085752	-0.068341	-0.600586	0.0979	0.132324
682.0	5.804059	0.249476	8.089386	0.033948	-0.083759	-0.074005	-0.600586	0.095703	0.134521
683.0	5.704711	0.146172	8.107449	0.035446	-0.070632	-0.078862	-0.598389	0.100098	0.136719
684.0	5.813591	0.154677	8.060653	0.043328	-0.068207	-0.087278	-0.596191	0.0979	0.132324
685.0	5.767898	0.218284	8.088226	0.050163	-0.061048	-0.089035	-0.595947	0.093506	0.136719
686.0	5.795378	0.162821	8.083448	0.054586	-0.055314	-0.098293	-0.600342	0.089355	0.138916
687.0	5.6785	0.019575	8.132728	0.060254	-0.05567	-0.107895	-0.600342	0.089355	0.136719
688.0	5.803793	-0.053711	8.111783	0.071255	-0.065007	-0.120921	-0.600342	0.093506	0.136719
689.0	5.721039	0.056622	8.119075	0.087526	-0.076484	-0.133299	-0.591553	0.091309	0.143311
690.0	5.719986	0.269724	8.156303	0.086341	-0.087643	-0.138787	-0.59375	0.093506	0.136719
691.0	5.765323	0.316585	8.117416	0.071075	-0.107947	-0.138005	-0.5979	0.087158	0.138916
692.0	5.625661	0.404116	8.158624	0.066204	-0.11825	-0.136673	-0.595947	0.093506	0.141113
693.0	5.721745	0.429292	8.134647	0.04505	-0.153473	-0.135761	-0.593506	0.086914	0.145508
694.0	5.633962	0.309704	8.224303	0.026227	-0.176615	-0.13727	-0.5979	0.086914	0.147705
695.0	5.288082	-0.054896	8.422446	0.044395	-0.227633	-0.139836	-0.595703	0.082764	0.141113
696.0	5.489888	-0.032975	8.473569	0.070483	-0.316796	-0.15245	-0.595459	0.080566	0.145508
697.0	5.493511	0.011225	8.383329	0.089119	-0.374337	-0.165996	-0.5979	0.084717	0.15625
698.0	5.623885	0.265769	8.428679	0.119751	-0.466627	-0.168243	-0.595459	0.080322	0.15625
699.0	5.477177	0.029482	8.476858	0.111902	-0.525342	-0.183305	-0.602051	0.078369	0.15625
700.0	5.439675	0.032359	8.613288	0.129437	-0.64713	-0.196366	-0.599609	0.078125	0.167236
701.0	5.472607	0.965976	8.802302	0.235366	-0.776056	-0.200641	-0.597412	0.073975	0.162842
702.0	5.420398	0.276166	8.824889	0.072462	-0.929358	-0.186156	-0.601807	0.07373	0.173584
703.0	5.354014	0.226397	9.236149	0.187813	-1.12965	-0.207047	-0.599609	0.073486	0.18457
704.0	5.274476	0.290629	9.213903	0.170935	-1.346022	-0.237936	-0.601563	0.071289	0.195313
705.0	5.288539	0.245451	9.474475	0.217425	-1.622904	-0.272258	-0.605713	0.0625	0.19751
706.0	5.11083	0.142028	9.587092	0.230174	-1.909816	-0.354804	-0.607666	0.060303	0.208496
707.0	4.684585	-0.326257	9.680736	0.246431	-2.201795	-0.477824	-0.603271	0.060059	0.221436
708.0	4.618234	-0.344642	9.79971	0.383827	-2.590443	-0.601126	-0.598633	0.05127	0.23877
709.0	4.623288	-0.781671	10.253241	0.538107	-2.975481	-0.75975	-0.608887	0.040283	0.260498
710.0	4.62145	-1.386414	10.624147	0.773654	-3.407632	-0.947211	-0.601807	0.0271	0.278076
711.0	4.649822	-1.549577	10.818982	1.065589	-3.850555	-1.190666	-0.605713	0.016113	0.301758
712.0	4.272527	-1.372011	10.962153	1.262734	-4.39817	-1.448162	-0.594238	0.000488	0.332275
713.0	4.068996	-1.916291	11.205292	1.490356	-5.030209	-1.695356	-0.591309	-0.01709	0.36499
714.0	5.066233	-1.228955	11.099373	1.824977	-5.89185	-1.898254	-0.583984	-0.032715	0.408447
715.0	6.671197	3.5992	11.912641	2.082502	-6.683214	-1.97571	-0.568359	-0.043945	0.443115
716.0	11.32687	0.077175	11.940794	1.545528	-7.304553	-1.807651	-0.545654	-0.063721	0.48877
717.0	18.334078	-1.226395	14.122477	1.836788	-7.849906	-1.810304	-0.527832	-0.074951	0.532227
718.0	26.058469	-6.403921	14.247365	1.934377	-7.18283	-2.203125	-0.496338	-0.096924	0.575684
719.0	25.126612	-5.61605	14.06089	2.357797	-6.41013	-2.468378	-0.467529	-0.110352	0.606201
720.0	21.636475	-1.620554	14.319007	2.352485	-5.329057	-2.260714	-0.447021	-0.13208	0.632324
721.0	9.076801	0.31496	10.82331	2.164081	-4.006577	-1.928719	-0.418213	-0.138672	0.651855
722.0	14.14245	-8.342343	17.332387	2.025533	-3.278408	-0.225904	-0.402588	-0.149414	0.660645
723.0	23.993049	-12.131168	24.268382	1.480234	-1.240635	1.811991	-0.407227	-0.141113	0.671387
724.0	0.367116	-13.78781	12.696816	2.245341	0.334887	2.299012	-0.405518	-0.132568	0.682373
725.0	2.141953	1.303717	15.436935	2.944928	0.236254	2.253035	-0.405762	-0.124023	0.679932
726.0	-2.401622	5.786717	12.609765	1.356522	0.474708	1.950607	-0.401611	-0.121582	0.675781
727.0	-1.394547	5.281819	13.123368	-0.113012	0.740998	1.449299	-0.407959	-0.123779	0.673584
728.0	-0.899391	1.412372	12.384558	-0.787191	1.064069	0.75127	-0.414063	-0.134521	0.669189
729.0	-0.200983	-0.522527	11.745615	-0.973734	1.537099	0.111859	-0.42041	-0.143066	0.658447
730.0	0.506431	-0.39824	11.287399	-1.044653	2.016229	-0.203156	-0.428711	-0.153564	0.632568
731.0	1.190749	-0.511032	10.640533	-1.234804	2.49503	-0.197718	-0.439209	-0.16626	0.621582
732.0	1.697051	-1.403655	9.896073	-1.37292	2.927683	-0.02612	-0.449951	-0.168213	0.5979
733.0	2.299828	-2.039516	9.396063	-1.376425	3.319721	0.214366	-0.465088	-0.174316	0.567383
734.0	2.812467	-1.78506	9.077528	-1.282108	3.663583	0.465283	-0.478027	-0.178223	0.541504
735.0	3.175696	-1.069695	8.917276	-1.230236	3.960639	0.693889	-0.484863	-0.171387	0.510986
736.0	3.936124	-0.503924	9.007524	-1.206513	4.199625	0.865244	-0.493652	-0.170898	0.476318
737.0	4.696874	0.062692	9.248512	-1.196606	4.44211	0.968876	-0.500244	-0.17041	0.430908
738.0	5.538793	0.579954	9.538723	-1.215428	4.676723	0.985634	-0.50293	-0.16333	0.389648
739.0	6.092647	0.919186	9.758292	-1.260173	4.908019	0.915688	-0.496826	-0.149658	0.339844
740.0	6.645975	1.290785	10.077324	-1.328175	5.113206	0.772801	-0.475342	-0.144775	0.300781
741.0	6.98202	1.636003	10.300046	-1.459186	5.258417	0.620407	-0.455811	-0.14624	0.255371
742.0	7.776281	1.753751	10.851283	-1.671095	5.346003	0.496079	-0.425293	-0.150146	0.229248
743.0	8.684789	1.283092	11.510673	-1.89629	5.390755	0.420324	-0.394775	-0.151611	0.192627
744.0	9.78946	0.865847	12.369162	-2.076474	5.401908	0.384334	-0.359863	-0.159668	0.168701
745.0	10.791234	0.875577	13.052336	-2.244787	5.380473	0.419264	-0.331055	-0.170166	0.153809
746.0	10.548772	1.00938	12.965696	-2.483347	5.262761	0.521956	-0.304688	-0.180664	0.138672
747.0	10.869207	1.394345	13.099394	-2.67242	4.851625	0.676319	-0.282227	-0.195557	0.130127
748.0	14.946875	1.641309	14.4467	-2.879704	4.391771	0.850684	-0.26001	-0.206299	0.134521
749.0	17.461163	1.711697	14.4367	-3.126263	4.236758	1.054749	-0.263916	-0.219238	0.136719
750.0	19.531752	1.245539	13.162217	-3.214025	3.937907	1.325979	-0.267822	-0.227783	0.141113
751.0	22.352543	4.950694	12.151943	-2.993466	3.696188	1.707955	-0.289551	-0.22998	0.138916
752.0	26.40532	9.012467	12.148331	-3.233936	3.677308	1.958046	-0.307373	-0.219238	0.130127
753.0	30.641416	7.529891	9.551952	-3.061449	4.122672	1.684045	-0.336426	-0.201904	0.106201
754.0	31.789352	7.533192	5.042841	-2.508195	4.631127	1.161501	-0.34375	-0.182373	0.088623
755.0	28.971951	8.962361	-1.2341	-1.930812	4.816332	0.739989	-0.348877	-0.166992	0.064697
756.0	25.775995	9.203573	-8.116546	-1.623467	4.403378	0.609807	-0.349854	-0.142822	0.040771
757.0	24.789252	11.462845	-15.110601	-1.328426	3.490585	0.644616	-0.357178	-0.123291	0.025635
758.0	27.985298	15.650926	-21.1484	-1.495149	2.272234	0.749412	-0.361816	-0.114502	0.010254
759.0	28.975317	12.474222	-25.18689	-1.602691	1.330256	0.942699	-0.360352	-0.097412	0.012451
760.0	23.320234	7.225947	-23.213084	-0.428646	0.019538	1.103409	-0.373779	-0.088867	0.008057
761.0	20.035802	4.683134	-15.354004	1.026252	-1.407482	1.09965	-0.380371	-0.084717	0.018799
762.0	-1.855649	-9.369289	-5.07328	3.835147	-2.009932	0.545491	-0.384277	-0.095703	0.033936
763.0	0.545086	9.048965	32.021514	4.36855	-4.006924	-0.087578	-0.394775	-0.102539	0.064453
764.0	1.998734	1.087002	15.528343	2.349321	-1.537136	-0.59959	-0.398682	-0.113525	0.075195
765.0	0.195558	16.17143	2.332969	3.225253	-2.748747	-0.778158	-0.403076	-0.111572	0.101318
766.0	2.529449	12.524439	5.850611	1.248951	-3.932849	-0.500882	-0.411865	-0.109863	0.12085
767.0	14.884619	11.709283	16.900852	0.86612	-4.44156	-0.256908	-0.422607	-0.114502	0.146729
768.0	17.189434	9.370196	13.423741	0.186108	-3.426697	-0.407595	-0.428955	-0.114746	0.164063
769.0	15.870575	3.428865	11.613727	-0.230178	-3.207782	-0.359498	-0.433594	-0.11084	0.179199
770.0	20.636043	-7.405827	15.338302	-0.423642	-2.92322	-0.539638	-0.437744	-0.115234	0.190186
771.0	19.202409	-8.181013	8.313111	1.405522	-1.021916	-0.623375	-0.431152	-0.115234	0.19873
772.0	3.483975	0.31993	8.666336	1.420104	-1.360201	-0.44696	-0.435303	-0.115479	0.209717
773.0	10.89505	4.426087	10.606871	0.989551	-1.369358	-0.62959	-0.435303	-0.119873	0.222656
774.0	9.087624	-0.993304	8.156026	0.730892	-0.785415	-0.616101	-0.430908	-0.117676	0.222656
775.0	8.170894	-0.594183	9.04594	0.981679	-0.62369	-0.536148	-0.43042	-0.130615	0.220459
776.0	7.582456	1.728298	8.753163	0.866666	-0.253058	-0.555373	-0.430664	-0.126465	0.233643
777.0	7.412343	1.6816	9.147473	0.709477	-0.115787	-0.475628	-0.424072	-0.124268	0.231445
778.0	6.243957	1.531887	8.823188	0.538867	0.005718	-0.397047	-0.428223	-0.130859	0.233643
779.0	5.987477	0.362114	8.540015	0.437753	-0.016728	-0.33777	-0.425781	-0.13501	0.231445
780.0	6.510012	0.891685	8.770569	0.410431	-0.035855	-0.286325	-0.425781	-0.13501	0.229248
781.0	6.035687	1.051211	8.717038	0.225557	0.013404	-0.20822	-0.43042	-0.130859	0.235596
782.0	5.804452	0.319036	8.417191	0.161471	-0.013699	-0.154476	-0.419434	-0.133057	0.23999
783.0	5.872538	0.076196	8.260768	0.138585	-0.041135	-0.129566	-0.427979	-0.139404	0.238037
784.0	5.811663	-0.05152	8.122725	0.112127	-0.047017	-0.108507	-0.419189	-0.141602	0.238037
785.0	5.70786	-0.311286	8.117955	0.101827	-0.052057	-0.10152	-0.423584	-0.137207	0.238037
786.0	5.653909	-0.550302	8.006352	0.126096	-0.058503	-0.103952	-0.423584	-0.139404	0.238037
787.0	5.577116	-0.544453	8.041998	0.148943	-0.060332	-0.1189	-0.419434	-0.135254	0.244385
788.0	5.591084	-0.522863	8.087265	0.187777	-0.07647	-0.12692	-0.421631	-0.133057	0.242188
789.0	5.58709	-0.467276	8.084584	0.197506	-0.08955	-0.138706	-0.423584	-0.139404	0.23999
790.0	5.615029	-0.179335	8.094394	0.218892	-0.085004	-0.153484	-0.42334	-0.141602	0.242188
791.0	5.719733	0.374014	8.131428	0.203872	-0.087261	-0.151155	-0.419189	-0.141602	0.244385
792.0	5.78196	0.507419	8.137361	0.148493	-0.096606	-0.135043	-0.425781	-0.139404	0.238037
793.0	5.734633	0.449667	8.192263	0.121237	-0.101004	-0.113573	-0.418945	-0.145996	0.250977
794.0	5.713451	0.144703	8.103085	0.104047	-0.116343	-0.099781	-0.421387	-0.139648	0.246582
795.0	5.826195	0.16095	8.054017	0.120222	-0.114172	-0.103926	-0.427734	-0.143799	0.244385
796.0	5.760024	0.186003	8.059332	0.127797	-0.124743	-0.09488	-0.427734	-0.141602	0.244385
797.0	5.834622	0.334443	8.060303	0.114879	-0.119989	-0.091017	-0.42334	-0.143799	0.246582
798.0	5.810756	0.391263	8.056682	0.105266	-0.127824	-0.082747	-0.42334	-0.141846	0.255371
799.0	5.795356	0.412887	8.027729	0.092285	-0.143057	-0.065384	-0.419189	-0.139648	0.250977
800.0	5.772491	0.519763	8.020172	0.069589	-0.171753	-0.038493	-0.42334	-0.145996	0.246582
801.0	5.875318	0.68343	8.0855	0.021171	-0.213509	-0.005574	-0.421143	-0.141846	0.255371
802.0	6.114964	0.433078	8.168637	0.003142	-0.197377	-0.005876	-0.423584	-0.139648	0.253174
803.0	5.861829	-0.100455	8.081344	0.026964	-0.151651	-0.040257	-0.42334	-0.141846	0.255371
804.0	5.864202	0.159006	8.112477	0.058787	-0.154369	-0.072045	-0.420898	-0.148193	0.253174
805.0	5.985523	0.375684	7.998965	0.057504	-0.161638	-0.091563	-0.42334	-0.144043	0.259521
806.0	5.886619	0.12284	8.072156	0.042689	-0.147385	-0.108885	-0.421387	-0.139648	0.255371
807.0	5.642796	-0.01517	8.092925	0.081931	-0.179654	-0.12727	-0.418945	-0.144043	0.259521
808.0	5.923916	0.33667	8.064738	0.095985	-0.217741	-0.139389	-0.419189	-0.139648	0.259521
809.0	5.868679	0.32626	8.016719	0.089965	-0.226208	-0.137991	-0.423096	-0.14624	0.263916
810.0	5.784556	-0.084674	8.094272	0.091713	-0.238929	-0.149225	-0.418945	-0.144043	0.263916
811.0	5.526418	-0.306441	8.371027	0.110683	-0.28483	-0.174025	-0.418945	-0.14624	0.263916
812.0	5.416258	-0.430661	8.41346	0.139407	-0.38528	-0.217714	-0.420898	-0.14624	0.270508
813.0	5.545825	-0.093446	8.403918	0.180609	-0.489675	-0.242843	-0.418945	-0.14209	0.270508
814.0	5.500126	0.961633	8.856817	0.189262	-0.634579	-0.252026	-0.418945	-0.14209	0.279053
815.0	5.421721	0.512802	8.649442	0.112527	-0.81742	-0.220496	-0.423096	-0.146484	0.287842
816.0	5.454175	0.728312	9.023558	0.115492	-1.008084	-0.204401	-0.418945	-0.142334	0.287842
817.0	5.414694	0.322404	9.09715	0.123348	-1.24026	-0.20955	-0.425537	-0.140137	0.294189
818.0	5.433359	0.058142	9.269832	0.144262	-1.474111	-0.258397	-0.421143	-0.142578	0.30957
819.0	4.886918	0.004694	9.653986	0.184092	-1.724185	-0.353676	-0.429688	-0.144775	0.315918
820.0	4.852772	-0.279902	9.926378	0.216129	-2.073928	-0.470542	-0.423096	-0.14502	0.333252
821.0	4.701915	-0.41252	10.152947	0.305242	-2.4357	-0.62962	-0.42749	-0.143066	0.344238
822.0	4.641814	-1.023018	10.119667	0.392664	-2.832291	-0.834897	-0.42749	-0.145508	0.36377
823.0	4.551577	-1.334333	10.457749	0.605202	-3.285588	-1.059799	-0.420898	-0.143555	0.387451
824.0	4.565741	-1.902001	11.033338	0.849491	-3.760869	-1.326401	-0.418701	-0.144043	0.413574
825.0	3.895101	-1.427389	11.296711	1.212411	-4.363045	-1.584579	-0.418457	-0.146484	0.446045
826.0	3.843806	-1.564458	11.569159	1.409245	-5.074164	-1.820252	-0.405518	-0.142578	0.478516
827.0	3.708818	-2.257924	11.951769	1.766158	-5.960028	-2.07737	-0.390137	-0.145264	0.515381
828.0	6.889581	-0.242869	12.376563	2.283578	-6.892908	-2.239351	-0.379639	-0.133057	0.567383
829.0	8.613872	5.006055	12.984647	2.161483	-7.649203	-2.140984	-0.355713	-0.125244	0.625977
830.0	20.250082	-2.79922	14.864707	1.42675	-8.307701	-1.92434	-0.336182	-0.121338	0.669434
831.0	28.012927	-5.539706	15.317813	2.038803	-7.487935	-2.387602	-0.317139	-0.106689	0.712646
832.0	27.393133	-4.814149	14.407075	2.63352	-6.2686	-2.633443	-0.288818	-0.10498	0.745117
833.0	21.824287	-1.95171	13.563495	2.883951	-5.00796	-2.425062	-0.269775	-0.090332	0.779785
834.0	9.845757	2.696029	14.297332	2.738744	-3.607509	-2.038481	-0.259277	-0.075684	0.812256
835.0	19.62867	-3.0827	22.034469	1.242674	-2.583847	-0.006751	-0.263916	-0.067383	0.840332
836.0	13.148056	-14.574313	19.610262	1.150265	0.193842	1.250138	-0.275635	-0.04834	0.851074
837.0	0.729916	-12.248724	10.223181	2.77214	0.077389	1.546602	-0.287354	-0.024902	0.866211
838.0	0.65069	1.922603	13.154782	2.677517	0.441068	1.642088	-0.305908	0.004883	0.878906
839.0	-1.250612	3.376747	11.394837	1.466406	0.47748	1.611237	-0.31958	0.019775	0.889648
840.0	-1.030513	1.250648	11.179972	0.346694	0.830211	1.307547	-0.339355	0.030518	0.891846
841.0	-0.838789	-0.375945	10.775753	-0.027617	1.147208	0.831246	-0.36377	0.041016	0.902588
842.0	-0.870297	-0.534455	10.028705	-0.271095	1.568554	0.432662	-0.387939	0.047363	0.900391
843.0	-0.648394	-0.328315	9.400431	-0.565303	1.975555	0.252861	-0.420654	0.049316	0.902344
844.0	-0.042207	-0.944236	8.902874	-0.851808	2.334024	0.261523	-0.458008	0.057861	0.893555
845.0	0.75636	-1.752535	8.514663	-0.991436	2.666277	0.362819	-0.501465	0.055664	0.891357
846.0	1.712619	-1.703516	8.468106	-1.037532	2.986094	0.496081	-0.536621	0.062256	0.878174
847.0	2.674773	-1.274849	8.526119	-1.088065	3.314715	0.632421	-0.584473	0.060059	0.856445
848.0	3.45537	-0.839219	8.563709	-1.156075	3.63342	0.748443	-0.638916	0.060303	0.828369
849.0	3.960372	-0.388291	8.612282	-1.244456	3.925702	0.829231	-0.688965	0.05835	0.795654
850.0	4.616004	-0.274721	8.621894	-1.306737	4.167297	0.87547	-0.743408	0.054688	0.739258
851.0	5.132296	-0.018902	8.916103	-1.344668	4.378451	0.897048	-0.791504	0.055176	0.680664
852.0	6.04736	0.45326	9.434496	-1.388988	4.569632	0.884506	-0.830811	0.053955	0.602539
853.0	6.945744	0.776874	9.929158	-1.474502	4.780207	0.846885	-0.863281	0.046631	0.509277
854.0	7.910601	0.613055	10.318055	-1.580959	4.985147	0.825597	-0.868164	0.054443	0.411621
855.0	8.573478	1.148616	10.945345	-1.618171	5.136709	0.786399	-0.864746	0.068604	0.316406
856.0	9.633199	1.135982	11.637343	-1.85688	5.303924	0.776935	-0.828613	0.089355	0.225342
857.0	10.509406	0.808835	12.509248	-2.028551	5.373492	0.782675	-0.769287	0.129395	0.151367
858.0	11.591444	0.879935	13.337229	-2.176252	5.406447	0.81935	-0.705566	0.168701	0.121094
859.0	12.432094	1.571603	13.839985	-2.392654	5.410662	0.861459	-0.63501	0.199219	0.114502
860.0	12.688256	2.176631	13.720171	-2.709662	5.295966	0.898917	-0.585205	0.205566	0.125488
861.0	14.335459	2.230977	13.563118	-2.992551	4.964435	0.927307	-0.547607	0.192627	0.142822
862.0	18.702541	2.050125	13.791445	-3.200975	4.658304	1.024033	-0.524902	0.166748	0.151611
863.0	22.342932	2.455831	13.504483	-3.291185	4.624441	1.226557	-0.49707	0.126221	0.141113
864.0	24.390699	2.800302	12.285258	-3.216262	4.744687	1.463226	-0.476074	0.089844	0.124023
865.0	23.248773	7.918682	10.299424	-2.829466	4.763259	1.731904	-0.455078	0.051514	0.104736
866.0	24.519978	12.289805	8.650818	-3.080489	4.611059	1.76561	-0.436768	0.026123	0.085449
867.0	26.10259	8.946073	4.42273	-2.908239	4.543893	1.252104	-0.422852	0.00293	0.05957
868.0	26.762635	7.595577	-0.900719	-2.126808	4.281809	0.584082	-0.408936	-0.022461	0.029297
869.0	26.415666	9.193982	-6.667807	-1.36677	3.8276	0.246657	-0.393066	-0.037354	0.016357
870.0	26.022169	12.671903	-13.566459	-1.078587	3.117874	0.300947	-0.392578	-0.054443	0.005615
871.0	28.124886	17.108855	-20.87808	-1.189808	2.027579	0.537962	-0.385986	-0.056396	-0.005127
872.0	28.596787	11.863975	-25.894264	-1.076511	0.976632	0.656668	-0.383545	-0.064697	-0.024658
873.0	21.961003	8.709939	-23.09179	0.859489	-0.549401	0.519206	-0.389404	-0.077881	-0.009521
874.0	12.594649	1.517635	-17.284241	2.616341	-2.428951	0.001931	-0.401855	-0.095459	0.014404
875.0	-4.293426	13.865591	13.250974	4.648037	-3.191552	-0.725588	-0.415771	-0.125977	0.047119
876.0	16.836773	-1.45383	28.073333	1.036546	-3.257977	-0.621794	-0.415039	-0.141357	0.060303
877.0	-1.175486	-3.797506	10.538765	2.321429	-1.471521	-1.363836	-0.414063	-0.167236	0.073486
878.0	-3.523606	14.085596	4.371294	2.009831	-2.652367	-0.419881	-0.418213	-0.169678	0.092773
879.0	6.684471	0.763212	7.204722	0.136766	-5.097619	0.516527	-0.428955	-0.176514	0.118896
880.0	24.497466	13.218371	17.834551	0.980898	-3.824844	0.143438	-0.437256	-0.185547	0.140625
881.0	13.298425	10.950289	12.23465	-0.034747	-2.663952	-0.339062	-0.436768	-0.194336	0.157959
882.0	13.389031	1.78315	11.01909	-0.305661	-2.710564	-0.424707	-0.438721	-0.200928	0.175293
883.0	21.6056	-11.995236	12.920755	-0.266922	-2.375174	-0.63668	-0.438477	-0.205322	0.179688
884.0	10.886079	-5.069851	8.180787	1.448799	-0.5797	-0.410051	-0.436035	-0.209961	0.190674
885.0	4.824117	3.172739	8.813784	1.192621	-1.439335	-0.42546	-0.436035	-0.214111	0.197021
886.0	10.01339	2.141885	9.682123	0.585578	-1.079991	-0.5808	-0.431152	-0.2229	0.205811
887.0	9.33387	-1.499387	8.137635	0.733062	-0.613685	-0.50514	-0.4375	-0.229492	0.216797
888.0	7.928194	0.772869	9.136403	0.823363	-0.549187	-0.430504	-0.435303	-0.231689	0.216797
889.0	7.072981	1.135281	8.742728	0.553791	-0.298086	-0.380514	-0.435059	-0.233887	0.220947
890.0	6.570721	0.290377	8.733466	0.481173	-0.215868	-0.296109	-0.434814	-0.240479	0.225342
891.0	6.291685	0.871709	8.67333	0.385335	-0.13238	-0.242397	-0.430664	-0.238281	0.234131
892.0	6.130057	0.067474	8.212958	0.294113	-0.106168	-0.208124	-0.430664	-0.238281	0.229736
893.0	6.047187	0.504119	8.618409	0.269108	-0.085781	-0.169954	-0.43042	-0.242676	0.227539
894.0	6.101895	0.184099	8.627994	0.196027	-0.099394	-0.137276	-0.423828	-0.242676	0.234131
895.0	6.109432	0.196158	8.473062	0.160787	-0.112741	-0.107348	-0.428223	-0.240479	0.229736
896.0	6.034672	0.13684	8.356053	0.114021	-0.102161	-0.08414	-0.427979	-0.249268	0.236328
897.0	5.887803	-0.058126	8.201966	0.096021	-0.108334	-0.070343	-0.425781	-0.249268	0.238525
898.0	5.913957	-0.199197	8.094591	0.09111	-0.101018	-0.074765	-0.434326	-0.251221	0.236328
899.0	5.826234	-0.470658	8.031452	0.11875	-0.105827	-0.084998	-0.430176	-0.249268	0.236328
900.0	5.902376	-0.410186	7.965132	0.158181	-0.106132	-0.103706	-0.425781	-0.249268	0.236328
901.0	5.90803	-0.357317	8.009387	0.183904	-0.102691	-0.105862	-0.427734	-0.253662	0.24292
902.0	5.937861	-0.204135	8.073555	0.191218	-0.094385	-0.108822	-0.427979	-0.251221	0.236328
903.0	5.92614	-0.0082	8.09435	0.176608	-0.088685	-0.103638	-0.432129	-0.253662	0.244873
904.0	5.864408	0.042405	8.075412	0.143437	-0.091389	-0.093342	-0.425537	-0.255615	0.240723
905.0	5.893041	0.1024	8.065538	0.1273	-0.098915	-0.083429	-0.425537	-0.253418	0.240723
906.0	5.852286	0.06163	8.093325	0.105902	-0.107983	-0.071802	-0.427979	-0.251465	0.24292
907.0	5.818411	-0.048466	8.021818	0.085573	-0.118764	-0.060312	-0.425537	-0.255859	0.249268
908.0	5.840256	-0.125377	8.014283	0.080761	-0.125919	-0.064108	-0.425537	-0.257813	0.247314
909.0	5.803013	-0.093779	7.990006	0.089745	-0.128926	-0.070268	-0.42334	-0.253662	0.249268
910.0	5.915427	0.115945	8.010238	0.086579	-0.12755	-0.067447	-0.425537	-0.253662	0.24707
911.0	5.904752	0.082023	8.007222	0.068925	-0.126958	-0.060731	-0.425537	-0.253662	0.249268
912.0	5.945772	0.067795	7.920065	0.058172	-0.136047	-0.058915	-0.425781	-0.251465	0.249268
913.0	5.991345	0.285112	8.000246	0.047862	-0.130526	-0.050081	-0.421143	-0.258057	0.251465
914.0	5.910755	0.060212	7.964724	0.040857	-0.12002	-0.054121	-0.425537	-0.257813	0.249268
915.0	5.945408	-0.031676	7.905877	0.046824	-0.114881	-0.064773	-0.425537	-0.255859	0.253662
916.0	5.935494	-0.03278	7.977346	0.061984	-0.110465	-0.077649	-0.42334	-0.255859	0.251465
917.0	5.981088	-0.010964	7.988362	0.060362	-0.119512	-0.086936	-0.420898	-0.262207	0.253662
918.0	5.897015	0.074518	8.021323	0.056994	-0.123509	-0.094552	-0.425293	-0.260254	0.258057
919.0	5.939188	0.095961	8.00743	0.045804	-0.133515	-0.102942	-0.421143	-0.255859	0.258057
920.0	5.923344	0.095147	8.029009	0.046663	-0.158427	-0.110676	-0.425293	-0.260254	0.258057
921.0	5.689171	-0.006336	8.168711	0.046112	-0.169824	-0.111269	-0.423096	-0.264404	0.258057
922.0	5.828794	-0.017431	7.985014	0.085172	-0.235852	-0.113377	-0.420898	-0.260254	0.260254
923.0	5.917295	0.108947	8.0536	0.076079	-0.246642	-0.118303	-0.422852	-0.266846	0.268799
924.0	5.66741	-0.055755	8.221063	0.077072	-0.290012	-0.114287	-0.425293	-0.262451	0.264648
925.0	5.632687	-0.071718	8.390138	0.089128	-0.367785	-0.127362	-0.418457	-0.266602	0.264648
926.0	5.612648	-0.003191	8.376089	0.10703	-0.46811	-0.124463	-0.422852	-0.266846	0.266846
927.0	5.486704	0.642959	8.884002	0.057527	-0.607466	-0.118894	-0.41626	-0.266846	0.270996
928.0	5.685952	0.346511	8.626584	0.057415	-0.758936	-0.098402	-0.422852	-0.269043	0.275391
929.0	5.643151	0.453142	8.725986	0.012664	-0.92317	-0.078112	-0.425049	-0.269043	0.281982
930.0	5.76418	0.626702	8.83021	-0.011113	-1.095848	-0.056984	-0.418701	-0.262695	0.286133
931.0	5.487045	0.093097	8.925861	-0.046872	-1.296179	-0.045436	-0.427002	-0.273438	0.28833
932.0	5.367225	-0.004382	9.269263	-0.050672	-1.555625	-0.075617	-0.425049	-0.265137	0.301514
933.0	5.026072	-0.058906	9.497292	-0.061601	-1.839476	-0.133842	-0.422852	-0.265137	0.310059
934.0	4.914644	-0.314587	9.64858	-0.076829	-2.189828	-0.204586	-0.42041	-0.271973	0.325195
935.0	4.820376	-0.632489	9.801978	-0.042676	-2.56774	-0.318343	-0.42041	-0.271973	0.336182
936.0	4.750744	-1.126639	10.041506	0.01468	-2.976278	-0.451113	-0.417969	-0.278564	0.353516
937.0	4.684036	-1.638698	10.222365	0.223425	-3.443273	-0.637579	-0.417725	-0.283203	0.37085
938.0	4.814358	-1.657685	10.646338	0.480627	-3.940107	-0.847398	-0.410889	-0.285645	0.392578
939.0	4.145359	-2.321129	10.828142	0.706179	-4.485163	-1.077862	-0.408447	-0.294678	0.420898
940.0	4.153876	-3.004509	10.888198	1.190385	-5.19648	-1.406286	-0.397217	-0.301514	0.451172
941.0	4.871182	-1.144513	11.446948	1.602398	-5.954415	-1.641154	-0.379395	-0.30835	0.483887
942.0	6.140346	0.510422	10.919507	1.717041	-6.73318	-1.757885	-0.368408	-0.312988	0.524902
943.0	8.816283	3.535702	13.233974	1.516918	-7.637466	-1.622715	-0.346191	-0.320068	0.564209
944.0	18.125363	-2.691409	12.088356	1.253778	-7.934763	-1.428664	-0.322021	-0.32251	0.59668
945.0	26.548954	-4.431063	14.926158	1.320879	-7.817121	-1.712535	-0.295654	-0.327148	0.635742
946.0	28.620173	-6.311122	13.898652	1.642351	-6.353896	-2.172738	-0.269287	-0.333984	0.66626
947.0	22.546352	-9.274968	13.619931	2.412522	-5.660937	-2.602516	-0.249756	-0.330078	0.703125
948.0	10.777213	-5.485342	12.267407	3.376937	-4.442202	-2.913655	-0.22998	-0.332764	0.73999
949.0	3.564315	-0.495271	13.287216	3.961305	-4.009284	-2.814622	-0.214844	-0.324463	0.768066
950.0	23.964689	9.514974	25.504	1.64104	-3.338052	-1.067062	-0.212646	-0.328857	0.776855
951.0	14.701056	-6.502846	20.923553	-0.488538	0.41791	0.340646	-0.223633	-0.326904	0.787598
952.0	3.39363	-12.717976	13.282535	0.445503	0.729623	0.77261	-0.247803	-0.318359	0.7854
953.0	-1.574411	-7.889255	10.547926	1.204096	1.259443	0.788161	-0.26123	-0.310059	0.79834
954.0	-3.38129	-2.656114	8.993143	1.469694	0.988763	0.816135	-0.283447	-0.299316	0.804688
955.0	-2.114328	-0.014025	8.878403	0.874373	1.038252	0.825037	-0.296387	-0.299316	0.80249
956.0	-0.630701	-0.307426	9.188779	0.258636	1.269068	0.795975	-0.322998	-0.284424	0.800293
957.0	0.443428	-1.576256	9.289269	-0.054314	1.655059	0.672577	-0.336426	-0.275879	0.800049
958.0	1.332701	-1.833237	9.41931	-0.157443	2.135177	0.523186	-0.358398	-0.273682	0.784912
959.0	2.076083	-1.092905	9.452957	-0.261108	2.645444	0.45831	-0.38916	-0.269287	0.780518
960.0	2.385331	-0.59769	9.142783	-0.444451	3.133232	0.476169	-0.404541	-0.264893	0.763184
961.0	2.887365	-0.493279	8.764672	-0.633551	3.553165	0.546917	-0.428955	-0.253906	0.739258
962.0	3.560318	-0.606048	8.564809	-0.767823	3.909553	0.629031	-0.45752	-0.249268	0.715332
963.0	4.196594	-0.782777	8.409565	-0.846351	4.241116	0.690828	-0.481689	-0.240479	0.684814
964.0	4.900337	-0.890179	8.440873	-0.844057	4.517399	0.713961	-0.508301	-0.231689	0.663086
965.0	5.329619	-0.668768	8.630075	-0.820171	4.763196	0.71551	-0.528564	-0.216309	0.630371
966.0	5.925359	0.029046	8.921976	-0.857379	4.961962	0.698963	-0.541992	-0.209473	0.600098
967.0	6.646611	0.453445	9.232936	-0.978172	5.137994	0.667996	-0.555908	-0.19165	0.560791
968.0	7.415584	0.512466	9.54018	-1.134246	5.300388	0.631212	-0.571289	-0.184814	0.52832
969.0	7.824041	0.695219	9.947681	-1.241053	5.407084	0.576543	-0.582764	-0.171387	0.491455
970.0	8.776782	0.996007	10.515704	-1.496504	5.485134	0.541867	-0.593994	-0.166748	0.463135
971.0	9.566036	0.431432	11.103731	-1.690214	5.519552	0.513138	-0.601074	-0.155518	0.424072
972.0	10.551156	0.213789	12.047761	-1.820167	5.521633	0.495273	-0.612305	-0.148682	0.391602
973.0	11.718631	0.420771	13.157418	-1.964999	5.497562	0.530624	-0.616943	-0.143799	0.345947
974.0	12.144547	0.98893	13.829762	-2.173809	5.449956	0.597837	-0.625732	-0.141113	0.309082
975.0	12.641471	1.498537	14.11952	-2.475428	5.234628	0.660149	-0.628174	-0.138672	0.278809
976.0	15.364674	1.541068	14.596441	-2.832754	4.908021	0.689777	-0.641602	-0.127441	0.243896
977.0	19.103643	1.51831	14.197173	-3.171113	4.687647	0.75989	-0.657471	-0.118408	0.198486
978.0	21.596264	2.168041	12.998546	-3.514489	4.541924	0.967207	-0.660156	-0.10498	0.161377
979.0	24.079793	3.466611	10.916687	-3.583078	4.427224	1.290507	-0.66333	-0.080566	0.115723
980.0	24.635182	10.527107	9.99318	-3.589798	4.29056	1.600673	-0.670898	-0.054443	0.085449
981.0	27.941588	10.309965	7.028248	-3.872617	4.397197	1.482758	-0.674072	-0.034424	0.039795
982.0	28.900139	8.259037	3.452213	-3.22082	4.470839	0.960851	-0.670654	-0.008057	0.004883
983.0	27.858288	7.297084	-1.908628	-2.003062	4.36997	0.383186	-0.664795	0.007568	-0.03418
984.0	26.463751	9.446854	-8.253741	-0.903416	3.992667	0.050684	-0.656738	0.016602	-0.071045
985.0	26.344971	15.724014	-15.882068	-0.447536	3.170045	-0.081211	-0.652832	0.029785	-0.092773
986.0	28.960964	18.946421	-23.595556	-1.142136	2.06809	-0.220173	-0.640137	0.036377	-0.103516
987.0	26.486845	12.421909	-27.647187	-0.974296	0.872187	-0.362136	-0.644531	0.040771	-0.101563
988.0	21.026454	7.919791	-21.750091	0.754496	-0.873309	-0.512196	-0.659668	0.038574	-0.097168
989.0	8.0025	-3.544587	-17.844102	3.674025	-2.341527	-1.011598	-0.671387	0.001465	-0.075195
990.0	-1.69212	23.541311	28.940743	4.681519	-3.660894	-1.016285	-0.694824	-0.01001	-0.031982
991.0	7.507525	-4.830401	24.084973	-0.388344	-1.940861	-0.651201	-0.698975	-0.012207	-0.027588
992.0	-3.603371	2.256357	2.948956	2.558294	-2.471356	-1.183657	-0.709229	-0.027588	-0.001465
993.0	2.903549	10.394172	3.962798	0.782018	-4.165123	-0.495125	-0.730957	-0.025879	0.033203
994.0	13.556698	2.468978	12.954709	0.595024	-5.018035	-0.020143	-0.752686	-0.024414	0.074219
995.0	23.735301	7.421189	15.994388	0.242834	-3.595381	-0.170804	-0.759277	-0.022705	0.104492
997.0	20.825165	-3.804481	12.251595	0.317443	-2.767927	-0.625367	-0.776123	-0.03418	0.147949
998.0	9.900943	-3.138046	9.953941	1.490459	-0.473314	-0.516547	-0.775879	-0.038574	0.154541
999.0	9.737661	3.755295	10.453552	1.509385	-1.584807	-0.595943	-0.780029	-0.047363	0.163086
1000.0	8.401232	4.774381	9.413205	0.763618	-0.543926	-0.644152	-0.775391	-0.053955	0.174072
1001.0	10.73394	0.787208	8.721052	0.702128	-0.57082	-0.43466	-0.786133	-0.056152	0.17627
1002.0	6.159446	1.453824	9.08302	0.570067	-0.273488	-0.337458	-0.781738	-0.05835	0.178467
1003.0	7.098224	1.059279	8.653063	0.36864	-0.168434	-0.243721	-0.772705	-0.064697	0.187012
1004.0	6.267864	0.401229	8.391799	0.325257	-0.142264	-0.19004	-0.7771	-0.062744	0.184814
1005.0	6.302963	0.997624	8.661901	0.241163	-0.126255	-0.152179	-0.783447	-0.064697	0.178467
1006.0	6.182752	0.6403	8.418708	0.13594	-0.031693	-0.112201	-0.78125	-0.066895	0.184814
1007.0	5.983221	0.481247	8.490087	0.088383	-0.04683	-0.081704	-0.778809	-0.075684	0.185059
1008.0	5.791461	0.176597	8.484482	0.044655	-0.043095	-0.061965	-0.774658	-0.071289	0.187012
1009.0	5.816999	-0.043358	8.400814	0.032154	-0.053486	-0.060452	-0.776855	-0.069092	0.187012
1010.0	5.839425	-0.23966	8.219175	0.036593	-0.056911	-0.066114	-0.78125	-0.066895	0.187012
1011.0	5.766861	-0.255524	8.127867	0.051583	-0.060497	-0.069903	-0.776855	-0.071289	0.185059
1012.0	5.776155	-0.331937	8.048821	0.065004	-0.052869	-0.08462	-0.774658	-0.067139	0.191406
1013.0	5.778931	-0.428392	7.995442	0.104597	-0.052872	-0.091185	-0.779053	-0.071289	0.189209
1014.0	5.790155	-0.413682	8.04149	0.140724	-0.043798	-0.099673	-0.778809	-0.075684	0.185059
1015.0	5.829886	-0.329018	8.084659	0.162127	-0.035559	-0.104681	-0.781006	-0.073486	0.191406
1016.0	5.760046	-0.225501	8.070023	0.165455	-0.025375	-0.109678	-0.776611	-0.073486	0.193604
1017.0	5.792063	-0.084422	8.090155	0.163462	-0.0263	-0.109717	-0.774414	-0.077881	0.189209
1018.0	5.759668	0.030565	8.119323	0.146605	-0.011965	-0.105343	-0.776611	-0.073486	0.193604
1019.0	5.719977	0.067045	8.149126	0.129251	-0.016702	-0.101865	-0.778809	-0.075684	0.193604
1020.0	5.689622	0.06963	8.15258	0.111356	-0.019758	-0.090467	-0.776367	-0.080078	0.195801
1021.0	5.699946	-0.003177	8.100498	0.099056	-0.024622	-0.089887	-0.780762	-0.082031	0.193604
1022.0	5.738924	-0.195334	8.044233	0.093467	-0.024538	-0.094719	-0.776367	-0.082275	0.200195
1023.0	5.661428	-0.175363	8.029981	0.102007	-0.024535	-0.101881	-0.77417	-0.082031	0.195801
1024.0	5.696257	0.015432	8.097744	0.107865	-0.022256	-0.107459	-0.780762	-0.082031	0.193604
1025.0	5.783804	0.045649	8.083737	0.091066	-0.026013	-0.105173	-0.778564	-0.082275	0.197998
1026.0	5.769582	0.145514	8.08435	0.090471	-0.020877	-0.102362	-0.776367	-0.082031	0.193604
1027.0	5.702201	0.109698	8.117907	0.069719	-0.0286	-0.101227	-0.780518	-0.08667	0.202393
1028.0	5.767992	0.14731	8.106508	0.080975	-0.035212	-0.095943	-0.769531	-0.088623	0.197998
1029.0	5.701771	0.055871	8.115086	0.066423	-0.042406	-0.093926	-0.776123	-0.086426	0.193604
1030.0	5.690791	0.076675	8.163647	0.074697	-0.060184	-0.088923	-0.775879	-0.093018	0.200195
1031.0	5.645012	0.161092	8.141822	0.075191	-0.086365	-0.088907	-0.778076	-0.09082	0.193604
1032.0	5.693459	0.207063	8.129918	0.059788	-0.10194	-0.08589	-0.780518	-0.08667	0.20459
1033.0	5.68755	0.226619	8.174868	0.062981	-0.125229	-0.076871	-0.780762	-0.080078	0.202393
1034.0	5.755908	0.185371	8.158816	0.065229	-0.144065	-0.075392	-0.784668	-0.09082	0.200195
1035.0	5.730941	0.105124	8.15678	0.065419	-0.156782	-0.081294	-0.77832	-0.088623	0.20459
1036.0	5.666464	0.044739	8.184978	0.069188	-0.172289	-0.098044	-0.778076	-0.09082	0.206787
1037.0	5.637598	-0.187286	8.209372	0.069729	-0.195011	-0.117508	-0.778076	-0.09082	0.200195
1038.0	5.097479	-0.737671	8.541809	0.094177	-0.241436	-0.149259	-0.780273	-0.093018	0.20459
1039.0	5.441006	-0.267633	8.493354	0.171828	-0.362116	-0.185357	-0.782227	-0.097656	0.217529
1040.0	5.413853	0.047763	8.502014	0.150343	-0.42753	-0.201598	-0.775879	-0.095459	0.219727
1041.0	5.542528	0.200525	8.532917	0.171777	-0.512001	-0.216325	-0.777832	-0.099854	0.224121
1042.0	5.470026	0.04269	8.550856	0.180706	-0.64002	-0.203794	-0.782227	-0.099854	0.226318
1043.0	5.393158	1.591019	9.493048	0.226179	-0.808704	-0.179375	-0.780029	-0.0979	0.237061
1044.0	5.086448	-0.034043	8.81377	0.100562	-1.020187	-0.155444	-0.786133	-0.104248	0.243652
1045.0	5.321516	0.408321	9.513418	0.10846	-1.273952	-0.178481	-0.781982	-0.104492	0.256592
1046.0	4.951452	0.102905	9.733455	0.106566	-1.509931	-0.202525	-0.788574	-0.098389	0.269531
1047.0	4.791332	0.023687	9.955005	0.131814	-1.85361	-0.277607	-0.788086	-0.111328	0.282715
1048.0	4.502868	-0.337808	10.27403	0.160222	-2.194047	-0.413716	-0.78833	-0.105225	0.308594
1049.0	4.339152	-0.761856	10.044506	0.292641	-2.625776	-0.559974	-0.788086	-0.111816	0.321777
1050.0	4.403656	-1.237328	10.629922	0.478624	-3.04585	-0.754689	-0.796387	-0.116699	0.349854
1051.0	4.322442	-1.982027	10.764553	0.746341	-3.491912	-0.976889	-0.793701	-0.130127	0.388916
1052.0	4.334427	-2.092072	11.422915	1.089255	-4.04232	-1.234454	-0.784912	-0.130371	0.421387
1053.0	3.960795	-2.066619	11.499878	1.342591	-4.586169	-1.502224	-0.779785	-0.144043	0.467041
1054.0	2.890872	-2.126942	11.779782	1.565697	-5.291373	-1.782191	-0.772705	-0.155273	0.514893
1055.0	3.969668	-2.327896	11.827094	1.977193	-6.299417	-2.064682	-0.759277	-0.162598	0.577637
1056.0	6.488075	1.34388	12.001853	2.306719	-7.265091	-2.267794	-0.741455	-0.174072	0.634277
1057.0	10.080944	1.142615	13.858142	1.723579	-8.047544	-2.255001	-0.712402	-0.185547	0.697266
1058.0	20.632387	-1.789826	13.442908	2.076606	-8.551722	-2.14311	-0.681885	-0.186279	0.762207
1059.0	30.24767	-5.662152	14.592683	1.936813	-7.833739	-2.524715	-0.641846	-0.201904	0.81665
1060.0	28.009146	-5.73301	15.411074	2.368629	-6.48438	-2.688664	-0.613281	-0.206787	0.860107
1061.0	22.251692	-5.731736	14.440836	2.618473	-5.108125	-2.567471	-0.591553	-0.209229	0.883789
1062.0	7.753375	-0.161351	12.442201	2.692374	-3.581915	-2.338454	-0.576416	-0.202881	0.892578
1063.0	16.437703	-0.778407	22.236825	1.980876	-2.62608	-0.153341	-0.565918	-0.192139	0.901123
1064.0	18.501454	-13.954373	22.274845	0.58823	0.458975	1.573812	-0.58374	-0.181152	0.877197
1065.0	-5.040563	-15.919627	9.581154	1.875526	0.649243	2.052258	-0.591309	-0.155273	0.870605
1066.0	-1.150156	-1.266556	13.115507	2.740324	0.37043	2.145707	-0.603027	-0.135742	0.864014
1067.0	-2.07797	1.919348	11.055686	1.574744	0.477524	2.017666	-0.610352	-0.116211	0.840088
1068.0	-0.401319	2.124028	12.477931	0.442145	0.921048	1.686229	-0.619385	-0.109375	0.820557
1069.0	-0.343021	-0.021702	12.012182	-0.059474	1.382848	1.156134	-0.628174	-0.106934	0.792236
1070.0	-0.380195	-0.18118	11.354275	-0.299257	1.897368	0.641508	-0.630127	-0.113037	0.770508
1071.0	-0.152593	0.50209	10.75886	-0.571788	2.361504	0.320825	-0.643066	-0.121338	0.736084
1072.0	0.595676	0.480399	10.216397	-0.889444	2.760949	0.202138	-0.651611	-0.127197	0.701416
1073.0	1.667892	-0.143769	9.774362	-1.126032	3.131646	0.213866	-0.651123	-0.14209	0.673096
1074.0	2.870362	-0.6365	9.523136	-1.242578	3.506233	0.278689	-0.65332	-0.145752	0.629883
1075.0	3.675915	-0.688515	9.267186	-1.266777	3.882884	0.361666	-0.661377	-0.1604	0.595215
1076.0	4.230893	-0.36952	9.027394	-1.279157	4.205445	0.452432	-0.669922	-0.16626	0.560547
1077.0	4.386591	0.056573	8.773698	-1.330844	4.470123	0.564848	-0.67627	-0.174316	0.517334
1078.0	4.776092	0.306993	8.804752	-1.393807	4.659688	0.66235	-0.682373	-0.186768	0.480469
1079.0	5.472475	0.376607	9.15008	-1.431699	4.804718	0.727359	-0.682617	-0.181885	0.437012
1080.0	6.495516	0.727111	9.672251	-1.47832	4.95064	0.758876	-0.689209	-0.181396	0.400146
1081.0	7.594884	1.02584	10.253954	-1.56208	5.11856	0.773223	-0.687012	-0.187256	0.352539
1082.0	8.413506	1.342397	10.860835	-1.671724	5.290722	0.773385	-0.689453	-0.18457	0.307129
1083.0	9.217246	1.352479	11.519217	-1.8503	5.433314	0.788744	-0.689453	-0.183594	0.25293
1084.0	10.070178	1.160936	12.389557	-2.017038	5.511326	0.811794	-0.68335	-0.178711	0.202881
1085.0	11.170611	1.333923	13.442978	-2.172029	5.515579	0.876535	-0.675049	-0.169434	0.159668
1086.0	11.993095	1.859343	14.308204	-2.374961	5.490939	0.942162	-0.658203	-0.155762	0.109619
1087.0	12.918841	2.265022	14.578072	-2.656415	5.359907	0.985999	-0.643311	-0.148682	0.066406
1088.0	15.258947	2.302311	14.53589	-2.917311	5.100293	1.042006	-0.622314	-0.137207	0.012207
1089.0	19.049546	2.125364	14.128615	-3.13014	4.843972	1.216303	-0.601074	-0.125732	-0.029053
1090.0	22.33824	1.39727	12.95863	-3.166164	4.70537	1.541992	-0.580322	-0.099365	-0.063721
1091.0	25.050559	1.360729	11.387274	-2.811046	4.594126	1.886561	-0.552734	-0.081543	-0.098633
1092.0	25.416405	7.042712	9.787608	-2.269676	4.51323	2.232615	-0.529541	-0.063965	-0.124512
1093.0	28.16854	9.311683	7.842953	-2.338203	4.449058	2.239645	-0.506592	-0.039795	-0.150635
1094.0	29.629054	7.047655	3.118624	-1.908125	4.525046	1.778804	-0.485107	-0.035156	-0.170166
1095.0	28.994009	8.095965	-2.963205	-1.272168	4.414493	1.230545	-0.455078	-0.026123	-0.191895
1096.0	26.90204	12.659254	-9.17533	-1.031259	3.95053	0.915102	-0.433594	-0.015137	-0.209229
1097.0	26.773376	18.185022	-16.17734	-1.394142	3.072603	0.75747	-0.423096	-0.006348	-0.219971
1098.0	30.08845	16.761231	-23.513485	-2.175107	2.04341	0.524919	-0.415039	0.01123	-0.233154
1099.0	25.953306	9.43533	-27.158174	-1.280842	0.990405	0.364899	-0.410645	0.008789	-0.224365
1100.0	20.044449	7.503447	-21.136674	0.231426	-0.795377	0.16758	-0.419189	0.004395	-0.220215
1101.0	10.682036	-8.729264	-17.304439	1.899652	-2.607942	-0.144377	-0.428955	-0.021484	-0.207031
1102.0	-4.700146	11.132046	17.426162	5.139549	-3.505409	-0.91108	-0.454346	-0.041504	-0.172363
1103.0	15.029944	-1.129046	25.735659	0.325391	-3.075886	-0.182431	-0.458008	-0.056641	-0.169922
1104.0	-3.163475	-2.315066	5.798567	2.210868	-2.159657	-0.424552	-0.4729	-0.067627	-0.156982
1105.0	1.045408	11.97086	2.8271	1.645469	-3.882578	-0.042567	-0.498779	-0.074463	-0.128906
1106.0	10.612124	8.811275	12.222978	0.870139	-4.977833	0.023254	-0.513672	-0.079346	-0.098389
1107.0	22.682042	14.249874	16.610134	0.33026	-3.759503	-0.427205	-0.521973	-0.088135	-0.083252
1108.0	14.376107	5.686137	11.782188	-0.291269	-2.995898	-0.660941	-0.534668	-0.097168	-0.059326
1109.0	20.337303	-8.325394	14.707637	-0.557966	-3.15736	-0.685888	-0.543457	-0.095215	-0.048584
1110.0	21.740611	-8.926807	8.309524	1.425192	-1.044227	-0.653418	-0.544922	-0.112549	-0.0354
1111.0	5.39321	-1.718068	10.017423	1.254362	-1.360639	-0.618483	-0.553223	-0.119141	-0.026855
1112.0	11.346458	2.972769	9.325199	1.266876	-0.850041	-0.722585	-0.552979	-0.12793	-0.018066
1113.0	5.500075	-0.403586	8.657089	0.843251	-0.878336	-0.707413	-0.550537	-0.13208	-0.013672
1114.0	10.663603	0.770141	8.782836	1.05632	-0.54187	-0.598853	-0.552246	-0.143066	-0.009277
1115.0	7.323774	1.792492	9.242331	0.724905	-0.318613	-0.502791	-0.549805	-0.149658	-0.000732
1116.0	6.655582	-0.928197	8.3486	0.565329	-0.140842	-0.411766	-0.552246	-0.147217	-0.009277
1117.0	6.211498	0.478206	8.53348	0.624532	-0.115138	-0.387772	-0.553955	-0.158203	-0.000732
1118.0	6.36178	0.971078	8.608174	0.450051	-0.096142	-0.327189	-0.553955	-0.1604	0.001465
1119.0	6.577324	1.157593	8.472274	0.366905	-0.034055	-0.251906	-0.549316	-0.162354	-0.002686
1120.0	6.464023	1.183862	8.680342	0.228245	-0.017367	-0.171992	-0.549316	-0.164795	0.005859
1121.0	5.872028	0.147042	8.412363	0.135654	-0.020893	-0.123851	-0.553711	-0.166748	-0.000488
1122.0	5.97947	0.165557	8.370488	0.122093	-0.05007	-0.10393	-0.549316	-0.164795	0.008057
1123.0	5.958207	-0.092444	8.173505	0.090366	-0.047151	-0.093977	-0.549316	-0.164795	0.005859
1124.0	5.867254	-0.255311	8.110345	0.090444	-0.052421	-0.085348	-0.540527	-0.168945	0.008057
1125.0	5.788081	-0.450852	8.045764	0.099101	-0.056611	-0.090045	-0.549316	-0.166992	0.005859
1126.0	5.862824	-0.523077	8.057534	0.122953	-0.066738	-0.094851	-0.542725	-0.164795	0.012451
1127.0	5.7846	-0.660286	7.993149	0.150149	-0.068668	-0.105969	-0.551514	-0.166992	0.008057
1128.0	5.761279	-0.597179	8.019017	0.180185	-0.067303	-0.11977	-0.551514	-0.166992	0.005859
1129.0	5.842557	-0.529951	8.004726	0.197572	-0.072329	-0.134241	-0.553467	-0.171143	0.008057
1130.0	5.769898	-0.331889	8.011833	0.209074	-0.055965	-0.14998	-0.551025	-0.177734	0.014648
1131.0	5.781578	0.131078	8.101264	0.20522	-0.06552	-0.145172	-0.546631	-0.179932	0.012451
1132.0	5.791701	0.263962	8.144241	0.166207	-0.064767	-0.130764	-0.546875	-0.171387	0.014648
1133.0	5.825727	0.293861	8.110571	0.125072	-0.077805	-0.107677	-0.544434	-0.177734	0.016846
1134.0	5.786028	0.110673	8.066419	0.099766	-0.088621	-0.093367	-0.548828	-0.175537	0.014648
1136.0	5.821978	-0.133777	7.960034	0.085275	-0.108468	-0.087325	-0.548828	-0.177734	0.016846
1137.0	5.951438	0.127738	7.952594	0.099445	-0.105306	-0.085298	-0.546631	-0.177734	0.012451
1139.0	5.919727	0.221663	7.961016	0.087912	-0.094551	-0.080201	-0.544434	-0.179932	0.019043
1140.0	5.958009	0.228944	7.985509	0.077158	-0.088064	-0.067605	-0.544189	-0.184082	0.012451
1141.0	5.945789	0.140256	7.985657	0.070328	-0.081952	-0.071977	-0.550781	-0.179932	0.019043
1142.0	5.921503	0.083747	7.987365	0.064866	-0.075824	-0.075177	-0.548584	-0.184326	0.023438
1143.0	5.899374	0.082557	8.012258	0.068096	-0.077625	-0.08071	-0.54834	-0.188721	0.02124
1144.0	5.929563	0.137287	8.027334	0.055387	-0.076547	-0.086029	-0.550537	-0.186523	0.019043
1145.0	5.8348	0.165487	8.013216	0.056553	-0.09495	-0.089443	-0.550537	-0.188477	0.019043
1146.0	5.952688	0.233556	8.012511	0.051977	-0.109001	-0.097336	-0.548584	-0.184326	0.023438
1149.0	5.825149	0.048582	8.059219	0.040041	-0.149995	-0.102281	-0.554688	-0.195068	0.023438
1150.0	5.715562	-0.040225	8.132051	0.05643	-0.211187	-0.117534	-0.543701	-0.193115	0.030029
1151.0	5.602464	-0.138492	8.292997	0.05579	-0.269992	-0.128985	-0.548096	-0.195068	0.025635
1152.0	5.509439	-0.247353	8.399612	0.064136	-0.338291	-0.150841	-0.550293	-0.190918	0.03418
1153.0	5.521347	-0.187642	8.454898	0.07929	-0.442553	-0.168641	-0.554688	-0.195313	0.042969
1154.0	5.570553	-0.093194	8.423857	0.105611	-0.538506	-0.188975	-0.554443	-0.19751	0.038574
1155.0	5.447105	0.732043	8.865906	0.161337	-0.679449	-0.181337	-0.554688	-0.195313	0.045166
1156.0	5.573686	0.224336	8.682026	0.042411	-0.845593	-0.161014	-0.558838	-0.199707	0.051514
1157.0	5.552798	0.353342	8.970102	0.084997	-1.026196	-0.167917	-0.560791	-0.201904	0.053711
1158.0	5.504592	0.123738	8.998985	0.056076	-1.219677	-0.17167	-0.562988	-0.204346	0.064697
1159.0	5.471495	0.141621	9.236016	0.088524	-1.436965	-0.201995	-0.565186	-0.202148	0.068848
1160.0	5.138939	-0.074244	9.453666	0.083886	-1.687373	-0.25226	-0.571533	-0.204834	0.092773
1161.0	4.964812	-0.22119	9.711124	0.163419	-2.014382	-0.352392	-0.571289	-0.209229	0.105713
1162.0	4.876598	-0.465603	9.574494	0.195366	-2.350539	-0.471849	-0.579834	-0.213623	0.116699
1163.0	4.917681	-0.801303	9.815905	0.297446	-2.734174	-0.615523	-0.581787	-0.220459	0.146973
1164.0	4.621369	-0.689283	10.211254	0.520888	-3.149063	-0.757392	-0.585693	-0.225098	0.168701
1165.0	4.840626	-1.164441	10.484819	0.704925	-3.612302	-0.90376	-0.589844	-0.231934	0.194824
1166.0	4.624653	-1.375482	10.814506	0.982608	-4.139578	-1.084085	-0.587402	-0.236816	0.231689
1167.0	4.038666	-1.242075	10.949982	1.174156	-4.726481	-1.287675	-0.593262	-0.250244	0.26416
1168.0	3.833428	-1.997903	11.207636	1.429122	-5.490088	-1.535013	-0.588379	-0.261475	0.307617
1169.0	5.846676	-0.261945	11.437421	1.825736	-6.330663	-1.708351	-0.581543	-0.270996	0.370605
1170.0	6.491668	4.115576	11.53272	1.73643	-7.04155	-1.744141	-0.572266	-0.280029	0.413818
1171.0	13.394172	-0.850137	12.171467	1.244614	-7.812139	-1.471245	-0.560791	-0.289551	0.474609
1172.0	20.828607	-1.532576	14.052859	1.47139	-7.974803	-1.512803	-0.536621	-0.296631	0.529053
1173.0	28.444933	-6.95508	13.914011	1.815592	-7.176044	-1.938472	-0.516846	-0.297119	0.57666
1174.0	25.05828	-7.144924	13.000815	2.393636	-6.21655	-2.37931	-0.494873	-0.299805	0.626465
1175.0	19.126816	-4.274012	13.92117	2.937357	-5.239546	-2.432738	-0.4729	-0.304688	0.669922
1176.0	6.807118	-2.036877	12.05704	3.074704	-4.249242	-2.32534	-0.453125	-0.307373	0.706787
1177.0	12.471802	-0.60325	17.560197	3.026891	-3.372644	-0.715676	-0.442627	-0.294678	0.73291
1178.0	28.607453	-6.039505	26.643018	0.99571	-1.314919	1.273078	-0.451904	-0.277588	0.732666
1179.0	1.174543	-12.555178	14.953761	1.194606	1.01842	1.835139	-0.463623	-0.258301	0.739014
1180.0	0.423385	-4.405689	14.508245	2.361422	0.807035	1.815481	-0.479492	-0.239014	0.741211
1181.0	-4.027243	1.446396	11.382694	1.69584	0.87634	1.593981	-0.48877	-0.224121	0.743164
1182.0	-1.895238	3.993869	12.441966	0.5794	0.923954	1.282323	-0.499756	-0.221924	0.736816
1183.0	-0.673396	1.591758	12.265783	-0.262812	1.259919	0.833397	-0.501953	-0.22168	0.721436
1184.0	0.328571	-0.531358	12.155496	-0.632085	1.763203	0.339394	-0.515137	-0.219238	0.701904
1185.0	1.232284	-1.066257	11.893827	-0.742961	2.320706	-0.008367	-0.521484	-0.22998	0.688965
1186.0	1.788813	-0.740851	11.343086	-0.875847	2.870519	-0.112271	-0.525879	-0.229492	0.667236
1187.0	2.098581	-0.806506	10.551676	-1.070233	3.372788	-0.03754	-0.536133	-0.246582	0.641357
1188.0	2.223122	-0.948487	9.710223	-1.230189	3.787774	0.105196	-0.544678	-0.248291	0.613281
1189.0	2.528376	-1.014903	9.040384	-1.33931	4.108421	0.268294	-0.55542	-0.258545	0.576416
1190.0	3.01134	-1.140081	8.58434	-1.38562	4.359683	0.410235	-0.563965	-0.260498	0.54834
1191.0	3.710138	-0.995322	8.473484	-1.385019	4.556035	0.532302	-0.568115	-0.270752	0.517822
1192.0	4.595083	-0.773508	8.62979	-1.368384	4.7373	0.638175	-0.583496	-0.270264	0.483154
1193.0	5.313393	-0.488308	9.008617	-1.351495	4.918425	0.712152	-0.594238	-0.27417	0.452881
1194.0	6.242012	0.121642	9.483861	-1.362473	5.074694	0.752217	-0.605225	-0.273926	0.416016
1195.0	7.004435	0.502001	10.026363	-1.450571	5.24564	0.767406	-0.620605	-0.273193	0.374756
1196.0	7.890566	0.635484	10.717688	-1.558688	5.373801	0.756917	-0.623047	-0.268555	0.335693
1197.0	8.739732	0.814157	11.456061	-1.699952	5.494681	0.716917	-0.634033	-0.267822	0.288086
1198.0	10.057867	0.885935	12.571888	-1.869197	5.578666	0.691553	-0.634277	-0.262939	0.236084
1199.0	11.339035	0.835875	13.830619	-2.052674	5.647651	0.688021	-0.637207	-0.244873	0.17749
1200.0	12.545558	1.610593	14.929153	-2.258636	5.690583	0.707672	-0.628662	-0.246338	0.123291
1201.0	13.473519	2.05548	15.309386	-2.614787	5.664675	0.730624	-0.612061	-0.230225	0.066895
1202.0	14.993345	1.65962	14.856617	-2.993578	5.455399	0.749671	-0.597168	-0.223145	0.014893
1203.0	17.898258	1.751127	14.245652	-3.265578	5.074299	0.873573	-0.578125	-0.209473	-0.039307
1204.0	21.791195	2.526864	13.096528	-3.495337	4.747057	1.189423	-0.561768	-0.187256	-0.080566
1205.0	24.260587	4.818204	10.531851	-3.351204	4.528155	1.551593	-0.547119	-0.171875	-0.108887
1206.0	25.669109	11.673362	10.000135	-3.450402	4.167026	1.747572	-0.535156	-0.143311	-0.145996
1207.0	29.855952	8.435591	7.142279	-3.240127	4.218686	1.301787	-0.51001	-0.121094	-0.178467
1208.0	32.390642	7.027329	3.025223	-2.319661	4.365037	0.696329	-0.495361	-0.105713	-0.206787
1209.0	31.608814	8.401195	-3.250924	-1.349475	4.457917	0.373399	-0.478516	-0.092285	-0.237061
1210.0	28.755532	11.758974	-10.739048	-0.887991	4.184079	0.414112	-0.450684	-0.081055	-0.258789
1211.0	27.540027	15.758758	-18.710458	-1.020581	3.2831	0.524735	-0.433838	-0.070313	-0.265381
1212.0	29.961304	16.406236	-26.006915	-1.279283	2.087004	0.445222	-0.42334	-0.059082	-0.284912
1213.0	27.138476	11.084853	-28.575946	-0.363988	0.967374	0.233985	-0.42334	-0.063477	-0.284912
1214.0	22.715482	10.799236	-22.571476	1.512782	-0.718982	0.058169	-0.418701	-0.070068	-0.280518
1215.0	9.999803	7.404597	-12.99207	3.023305	-2.141244	-0.581807	-0.437012	-0.098145	-0.267334
1216.0	-9.077427	11.67516	19.093619	3.617265	-2.661803	-1.283588	-0.462402	-0.120117	-0.239014
1217.0	6.756171	1.048823	28.004599	1.081755	-3.165519	-1.395569	-0.470215	-0.137451	-0.230225
1218.0	-3.135405	1.586964	1.504164	1.592425	-2.272982	-1.655201	-0.484863	-0.155029	-0.210693
1219.0	-2.770488	7.975809	1.229955	1.07142	-4.746224	-0.514224	-0.515137	-0.155518	-0.18042
1220.0	20.500285	2.444582	15.062587	0.216321	-6.603161	0.24701	-0.54541	-0.158447	-0.143555
1221.0	28.534929	8.958216	16.198004	0.118401	-3.383851	-0.255542	-0.567139	-0.158691	-0.132813
1222.0	25.406512	-10.520088	15.100693	0.127043	-3.703196	-1.127462	-0.568848	-0.171875	-0.111084
1223.0	24.393818	-8.53223	10.374584	1.653156	-0.904917	-0.644985	-0.57251	-0.191406	-0.0979
1224.0	7.23513	8.90356	10.770246	2.628264	-1.094603	-0.605542	-0.574463	-0.193848	-0.078613
1225.0	10.024684	8.67027	11.604328	0.198641	-1.00017	-0.606805	-0.583008	-0.198242	-0.078613
1226.0	9.137783	-1.430577	7.369988	0.588319	-0.422244	-0.346776	-0.576416	-0.198242	-0.072021
1227.0	7.132313	1.253874	9.180421	0.436282	-0.441003	-0.223512	-0.580566	-0.206787	-0.072021
1228.0	7.027316	0.001116	7.965127	0.347837	-0.250482	-0.185075	-0.578125	-0.208984	-0.06543
1229.0	7.22685	1.742187	8.964017	0.210434	-0.224346	-0.097614	-0.580322	-0.208984	-0.06543
1230.0	6.528008	0.102061	8.182887	0.040253	-0.125411	-0.048539	-0.580322	-0.213379	-0.063232
1231.0	6.357443	0.377624	8.331285	0.03369	-0.112947	-0.021638	-0.580322	-0.208984	-0.069824
1232.0	6.185114	0.051095	8.093817	-0.019086	-0.078651	-0.01133	-0.58252	-0.208984	-0.06543
1233.0	5.984364	-0.174238	8.25883	-0.032601	-0.091235	-0.007432	-0.58252	-0.211182	-0.067627
1234.0	6.012521	0.058373	8.405176	-0.057801	-0.108005	-0.006978	-0.584717	-0.207031	-0.061035
1235.0	5.938964	0.085279	8.287646	-0.087672	-0.12806	0.009034	-0.586914	-0.211182	-0.067627
1236.0	5.981202	-0.102011	8.121464	-0.109796	-0.140916	0.017237	-0.591064	-0.213379	-0.069824
1237.0	6.028753	-0.261963	8.077908	-0.110485	-0.144102	0.014388	-0.589111	-0.209229	-0.058838
1238.0	5.952759	-0.315406	7.981439	-0.098178	-0.145366	0.012155	-0.586914	-0.211426	-0.058838
1239.0	6.005969	-0.450126	7.912714	-0.089218	-0.134222	0.00319	-0.584961	-0.206787	-0.067627
1240.0	5.942959	-0.665608	7.858586	-0.074206	-0.120985	-0.011158	-0.586914	-0.207031	-0.061035
1241.0	5.85909	-0.599868	7.917082	-0.04492	-0.11764	-0.024456	-0.589355	-0.204834	-0.061035
1242.0	5.942901	-0.500057	7.927303	-0.034015	-0.111626	-0.035128	-0.587158	-0.202881	-0.054688
1243.0	5.92472	-0.381523	7.929119	-0.02694	-0.111139	-0.040762	-0.593506	-0.209229	-0.061035
1244.0	5.930932	-0.326403	7.925017	-0.015252	-0.106939	-0.037389	-0.593506	-0.209229	-0.058838
1245.0	5.88524	-0.328341	7.927149	-0.016832	-0.096796	-0.039215	-0.591064	-0.213379	-0.061035
1246.0	5.920854	-0.395958	7.790952	-0.002213	-0.092049	-0.045044	-0.593506	-0.209229	-0.063232
1247.0	5.948787	-0.455488	7.755438	0.024812	-0.08259	-0.05136	-0.584961	-0.204834	-0.058838
1248.0	5.916741	-0.406517	7.733918	0.051394	-0.070851	-0.061385	-0.584473	-0.213623	-0.054688
1249.0	5.917518	-0.36741	7.781452	0.073096	-0.065642	-0.07286	-0.591309	-0.207031	-0.056885
1250.0	6.008218	-0.340498	7.765052	0.096305	-0.05826	-0.079137	-0.586914	-0.211426	-0.054688
1251.0	5.968301	-0.307261	7.770048	0.127397	-0.044244	-0.095884	-0.589111	-0.209229	-0.048096
1252.0	6.050502	-0.350922	7.75351	0.156859	-0.035686	-0.11296	-0.591064	-0.215576	-0.054688
1253.0	6.025004	-0.260191	7.882872	0.189687	-0.014336	-0.128178	-0.58667	-0.217773	-0.056641
1254.0	6.038558	-0.268724	7.879927	0.203314	-0.002597	-0.137601	-0.595215	-0.217773	-0.05249
1255.0	6.024039	-0.235702	7.932803	0.208586	0.014306	-0.143545	-0.586426	-0.222168	-0.054443
1256.0	6.009088	-0.148622	8.012313	0.194777	0.024831	-0.148567	-0.586182	-0.224365	-0.048096
1257.0	6.094983	-0.216137	7.97355	0.193921	0.033998	-0.14812	-0.588379	-0.224365	-0.048096
1258.0	6.020569	-0.18633	8.012242	0.185475	0.030494	-0.153118	-0.584229	-0.219971	-0.048096
1259.0	6.011637	-0.054349	8.017358	0.162816	0.029833	-0.149086	-0.588379	-0.224365	-0.048096
1260.0	5.943296	-0.005214	8.029787	0.138716	0.014071	-0.141923	-0.584229	-0.224365	-0.056641
1261.0	5.889808	0.063981	8.063713	0.128916	-0.014704	-0.128748	-0.583984	-0.226563	-0.050293
1262.0	5.823495	-0.022815	8.071365	0.098027	-0.049462	-0.120807	-0.583984	-0.224365	-0.041504
1263.0	5.740343	-0.125418	8.154412	0.096628	-0.086063	-0.117754	-0.588135	-0.23291	-0.052246
1264.0	5.589194	-0.115333	8.322375	0.0774	-0.13363	-0.120505	-0.586182	-0.22876	-0.041504
1265.0	5.468095	-0.41013	8.430735	0.059144	-0.214958	-0.133172	-0.592529	-0.230957	-0.037109
1266.0	5.08477	-0.721386	8.554781	0.140148	-0.346184	-0.152886	-0.588135	-0.235352	-0.039307
1267.0	5.696644	-0.175242	8.44126	0.14283	-0.442751	-0.177798	-0.58374	-0.235352	-0.034912
1268.0	5.690847	-0.056283	8.372455	0.176341	-0.549464	-0.164584	-0.590088	-0.237549	-0.030518
1269.0	5.420121	0.906089	8.994115	0.162359	-0.686823	-0.155004	-0.594482	-0.235596	-0.021973
1270.0	5.566402	-0.035453	8.487392	0.098887	-0.850173	-0.135508	-0.594482	-0.237793	-0.019775
1271.0	5.538216	0.324607	8.929045	0.078809	-1.043373	-0.132324	-0.600586	-0.244385	-0.009033
1272.0	5.178825	0.12096	9.136572	0.046031	-1.270116	-0.128184	-0.598877	-0.23584	0.001953
1273.0	5.153932	0.131704	9.57245	0.023537	-1.57385	-0.132441	-0.605225	-0.240234	0.001953
1274.0	4.756946	-0.238258	9.821048	0.026152	-1.873069	-0.195045	-0.611572	-0.242676	0.019287
1275.0	4.776733	-0.134246	9.921018	0.017333	-2.238536	-0.278643	-0.620117	-0.245117	0.036621
1276.0	4.880908	-0.575269	9.894832	0.108428	-2.61221	-0.372188	-0.626465	-0.247559	0.056152
1277.0	4.642002	-1.245054	9.901496	0.21875	-3.002336	-0.512492	-0.636963	-0.256592	0.084229
1278.0	5.009825	-1.492395	10.232603	0.532986	-3.460193	-0.698272	-0.63916	-0.259033	0.110352
1279.0	4.93747	-1.950699	10.614852	0.712358	-3.874029	-0.885925	-0.643066	-0.265869	0.13623
1280.0	4.606356	-2.227246	10.57186	1.037777	-4.390956	-1.119532	-0.646973	-0.2771	0.171143
1281.0	4.002203	-2.529013	10.662407	1.254225	-4.961376	-1.435617	-0.650635	-0.290527	0.212402
1282.0	4.716959	-1.300734	11.001566	1.662802	-5.801432	-1.691943	-0.650146	-0.304199	0.26001
1283.0	6.069402	1.690742	11.556383	1.695829	-6.572417	-1.848855	-0.645264	-0.313477	0.312012
1284.0	10.58552	-2.650222	11.422701	1.405329	-7.246022	-1.861148	-0.642334	-0.329346	0.375
1285.0	17.030285	-1.60374	12.886333	1.832829	-7.715063	-1.929113	-0.62207	-0.343018	0.429443
1286.0	25.070981	-4.792731	12.736274	1.753304	-7.289216	-2.170449	-0.608398	-0.354492	0.48584
1287.0	26.684708	-7.13343	13.049148	1.938151	-6.279831	-2.583494	-0.58374	-0.369873	0.533691
1288.0	21.444464	-7.312279	13.078716	2.680941	-5.495253	-2.822245	-0.557129	-0.37915	0.574951
1289.0	13.291838	-4.902579	12.135587	2.93425	-4.349377	-2.894465	-0.534668	-0.394531	0.616211
1290.0	6.439896	-2.984102	13.526195	3.167855	-3.477585	-2.425459	-0.515137	-0.39502	0.644287
1291.0	23.725098	-2.299396	23.37351	2.205174	-2.507893	-0.146623	-0.510742	-0.397217	0.650879
1292.0	12.315197	-10.910999	20.445748	0.641819	1.195914	1.27897	-0.515625	-0.38208	0.64209
1293.0	-2.169221	-14.101291	11.239729	2.040122	0.710916	1.701607	-0.529053	-0.371582	0.663818
1294.0	-2.509478	-2.61786	12.408647	2.238535	1.039905	1.6551	-0.527588	-0.350098	0.661377
1295.0	-2.597802	1.812009	11.577911	1.731183	0.812601	1.531703	-0.541016	-0.343506	0.661377
1296.0	-0.688218	2.246201	12.147713	0.544311	1.175583	1.256772	-0.552002	-0.341309	0.654785
1297.0	0.226193	0.257599	12.149351	-0.070634	1.597648	0.86268	-0.552246	-0.334717	0.64624
1298.0	0.976496	-0.780103	11.835143	-0.327746	2.109919	0.456414	-0.556396	-0.343262	0.626709
1299.0	1.482116	-0.728852	11.356311	-0.493089	2.638671	0.194344	-0.564941	-0.347412	0.609375
1300.0	2.051162	-0.462224	10.74347	-0.706396	3.135794	0.111067	-0.573486	-0.353516	0.589844
1301.0	2.670633	-0.675015	9.990541	-0.920475	3.575083	0.147503	-0.579834	-0.359619	0.568115
1302.0	3.133126	-0.861646	9.33556	-1.078635	3.964615	0.238786	-0.590576	-0.363525	0.537842
1303.0	3.402028	-0.939023	8.745354	-1.174279	4.266948	0.344541	-0.603516	-0.367676	0.516113
1304.0	3.802493	-0.762578	8.439441	-1.228073	4.484831	0.439867	-0.605469	-0.375732	0.481445
1305.0	4.429331	-0.465624	8.513382	-1.289318	4.653963	0.518742	-0.629639	-0.373291	0.453369
1306.0	5.179259	-0.194302	8.83067	-1.34623	4.789779	0.597829	-0.633789	-0.377197	0.412109
1307.0	6.148055	0.16261	9.502741	-1.424032	4.91609	0.644602	-0.64502	-0.372314	0.375244
1308.0	7.45078	0.358247	10.148582	-1.530948	5.082712	0.659856	-0.653809	-0.371826	0.340576
1309.0	8.354418	0.392656	10.794096	-1.62446	5.263269	0.661824	-0.660156	-0.375732	0.297119
1310.0	9.182139	0.534831	11.469163	-1.762607	5.413566	0.657178	-0.666992	-0.370605	0.24292
1311.0	10.08507	0.757735	12.331733	-1.936188	5.503585	0.670106	-0.65625	-0.37207	0.19751
1312.0	11.267274	0.962528	13.404629	-2.162201	5.550728	0.70683	-0.658691	-0.367188	0.154053
1313.0	12.377882	1.470949	14.144085	-2.438247	5.555689	0.754448	-0.658936	-0.366699	0.108643
1314.0	13.179902	2.089753	14.226722	-2.825262	5.490888	0.75017	-0.652344	-0.365967	0.058838
1315.0	14.440934	2.445653	13.862909	-3.268327	5.263146	0.712969	-0.645996	-0.363037	0.013184
