Acquisition frequency: 100 Hz
PacketCounter	Acc_X	Acc_Y	Acc_Z	Gyr_X	Gyr_Y	Gyr_Z	Mag_X	Mag_Y	Mag_Z
0.0	8.91706	0.502568	4.830467	0.013995	0.002802	0.001369	-0.394287	0.037598	-0.770264
1.0	8.902435	0.545578	4.799556	0.016544	0.00088	0.004111	-0.396729	0.039795	-0.765625
2.0	8.918398	0.529978	4.808482	0.018507	0.004741	0.002611	-0.394287	0.037598	-0.768066
3.0	8.926792	0.536738	4.73652	0.014843	0.008391	0.002724	-0.394531	0.044189	-0.768311
4.0	8.947652	0.536097	4.764475	0.016081	0.011372	0.006994	-0.39209	0.039795	-0.765625
5.0	8.906266	0.562559	4.820311	0.014649	0.011564	0.001399	-0.39917	0.044189	-0.763672
6.0	8.918282	0.55811	4.789114	0.014846	0.004653	0.002464	-0.392334	0.041992	-0.768066
7.0	8.896811	0.559413	4.762235	0.010529	0.003279	0.002811	-0.39209	0.039795	-0.758789
8.0	8.917844	0.558762	4.789852	0.011183	0.008304	0.002574	-0.389893	0.041992	-0.770508
9.0	8.883639	0.565146	4.79542	0.013802	0.01345	0.000574	-0.401123	0.041992	-0.765869
10.0	8.88156	0.53943	4.818584	0.011451	0.00846	-0.001104	-0.396729	0.039795	-0.768066
11.0	8.847491	0.545924	4.823872	0.012494	0.007139	0.001313	-0.392334	0.046387	-0.763672
12.0	8.887723	0.582074	4.815677	0.014	0.002801	0.001379	-0.392334	0.041992	-0.763428
13.0	8.880698	0.541058	4.819989	0.009292	0.007773	-0.000931	-0.396729	0.041992	-0.76123
14.0	8.919306	0.550828	4.834197	0.009487	0.0046	0.000398	-0.394287	0.039795	-0.765625
15.0	8.897802	0.552121	4.807394	0.004125	0.004547	-0.001674	-0.398926	0.041992	-0.768066
16.0	8.892401	0.537162	4.789353	0.005168	0.003226	0.000744	-0.394287	0.037598	-0.765625
17.0	8.897348	0.552469	4.808194	0.003857	0.00813	0.002268	-0.394775	0.046387	-0.768311
18.0	8.941621	0.515437	4.794495	0.005436	0.003381	-0.002936	-0.394531	0.044189	-0.763672
19.0	8.912961	0.537153	4.817759	0.010799	0.003435	-0.000863	-0.394287	0.039795	-0.770264
20.0	8.909075	0.548775	4.777507	0.008639	0.006486	-0.000429	-0.39917	0.044189	-0.772949
21.0	8.937246	0.52811	4.75505	0.006941	0.00652	-0.002346	-0.396729	0.039795	-0.765625
22.0	8.924471	0.533679	4.787463	0.009294	0.007773	-0.000928	-0.394531	0.041992	-0.768066
23.0	8.936435	0.529156	4.756458	0.009294	0.011512	-0.000667	-0.394531	0.041992	-0.763428
24.0	8.894978	0.55568	4.812206	0.005168	0.010704	0.001267	-0.396729	0.041992	-0.763428
25.0	8.905439	0.52468	4.80339	0.008447	0.00592	-0.002016	-0.394531	0.041992	-0.765869
26.0	8.871509	0.531201	4.808377	0.010801	0.003435	-0.000859	-0.392334	0.044189	-0.768311
27.0	8.899802	0.510361	4.785753	0.011574	0.005701	0.0055	-0.394531	0.041992	-0.770508
28.0	8.904525	0.525897	4.804951	0.010801	0.014651	-7.7e-05	-0.394531	0.041992	-0.765869
29.0	8.90242	0.499984	4.828184	0.01439	0.007675	0.00483	-0.396729	0.041992	-0.770508
30.0	8.903724	0.526668	4.806351	0.014853	0.004656	0.002481	-0.390137	0.048584	-0.761475
31.0	8.910261	0.568669	4.802781	0.011845	0.005855	0.001823	-0.394287	0.039795	-0.765625
32.0	8.926007	0.552848	4.812178	0.009029	0.00762	0.002755	-0.394531	0.044189	-0.765869
33.0	8.891962	0.559205	4.81737	0.016167	0.007229	0.001482	-0.396729	0.041992	-0.765869
34.0	8.886395	0.544597	4.79965	0.01146	0.008459	-0.001095	-0.396729	0.041992	-0.768066
35.0	8.875117	0.576618	4.809812	0.011461	0.008459	-0.001095	-0.396484	0.037598	-0.763428
36.0	8.8411	0.583094	4.814919	0.009493	0.004601	0.000407	-0.39209	0.037598	-0.768066
37.0	8.85178	0.552101	4.805751	0.008837	0.003315	0.000907	-0.396973	0.046387	-0.772949
38.0	8.867678	0.536332	4.814869	0.008837	0.003315	0.000908	-0.392334	0.041992	-0.772705
39.0	8.883658	0.520702	4.823825	0.010805	-0.000304	-0.001111	-0.396729	0.044189	-0.765869
40.0	8.867686	0.537232	4.814754	0.007524	-0.002996	0.00165	-0.39209	0.037598	-0.765625
41.0	8.917509	0.515684	4.818864	0.00741	-0.000242	-0.00495	-0.39209	0.039795	-0.763428
42.0	8.919096	0.542366	4.796495	0.01092	0.000681	0.005748	-0.394531	0.041992	-0.772705
43.0	8.913938	0.527495	4.778069	0.012117	-0.001472	-0.002369	-0.396729	0.039795	-0.765625
44.0	8.935202	0.527217	4.805168	0.007332	0.000176	0.00032	-0.394287	0.039795	-0.763428
45.0	8.908729	0.51307	4.759692	0.008182	0.00203	0.001409	-0.394531	0.044189	-0.763672
46.0	8.935032	0.527818	4.80542	0.008838	0.003315	0.000908	-0.394531	0.044189	-0.765869
47.0	8.911947	0.502758	4.800985	0.007141	0.007085	-0.000754	-0.401367	0.044189	-0.763672
48.0	8.916858	0.5186	4.819755	0.012969	0.004121	-0.001021	-0.394775	0.046387	-0.765869
49.0	8.91138	0.50383	4.801927	0.011194	0.00831	0.002585	-0.39917	0.044189	-0.770508
50.0	8.900112	0.535695	4.81204	0.011465	0.008459	-0.001094	-0.392334	0.041992	-0.772705
51.0	8.892794	0.494829	4.817	0.012123	0.013483	-0.001337	-0.396729	0.039795	-0.760986
52.0	8.863752	0.516529	4.840782	0.012892	0.00828	0.004508	-0.396729	0.039795	-0.770264
53.0	8.868624	0.532116	4.859623	0.015054	0.005228	0.004082	-0.396729	0.039795	-0.763428
54.0	8.886026	0.542736	4.846573	0.015518	0.005945	0.001993	-0.396729	0.044189	-0.765869
55.0	8.875415	0.512658	4.810371	0.013357	0.005258	0.002163	-0.394531	0.041992	-0.763428
56.0	8.896317	0.51232	4.83813	0.014864	0.008398	0.002751	-0.394287	0.039795	-0.768066
57.0	8.880037	0.528826	4.829604	0.013549	0.002088	0.003498	-0.398926	0.039795	-0.763428
58.0	8.879961	0.529126	4.829712	0.015247	0.002059	0.00542	-0.396729	0.044189	-0.768311
59.0	8.893927	0.550639	4.775759	0.018532	0.004747	0.00266	-0.39917	0.044189	-0.770508
60.0	8.858322	0.530985	4.803146	0.010814	0.007172	-0.00059	-0.396729	0.041992	-0.768066
61.0	8.884418	0.545981	4.849157	0.015058	0.005229	0.004087	-0.396484	0.037598	-0.768066
62.0	8.909271	0.53605	4.785815	0.014864	0.00092	0.002244	-0.396729	0.044189	-0.76123
63.0	8.909118	0.536588	4.786039	0.015524	0.005945	0.001998	-0.394531	0.041992	-0.763428
64.0	8.908799	0.53709	4.786578	0.011008	0.007741	0.001	-0.394531	0.041992	-0.765869
65.0	8.919384	0.506016	4.777713	0.012897	0.004544	0.004258	-0.394287	0.039795	-0.765625
66.0	8.895812	0.543041	4.819163	0.01317	0.004688	0.000579	-0.392334	0.044189	-0.768311
67.0	8.92412	0.522291	4.79671	0.007804	0.004629	-0.001508	-0.394531	0.041992	-0.763428
68.0	8.896967	0.570331	4.797503	0.015526	0.005945	0.002001	-0.394531	0.041992	-0.768066
69.0	8.868626	0.53004	4.774969	0.009505	0.00834	0.000668	-0.394531	0.041992	-0.765869
70.0	8.877042	0.535036	4.834423	0.016182	0.003491	0.001248	-0.396729	0.044189	-0.765869
71.0	8.90719	0.540629	4.789171	0.01533	-0.002104	-9.2e-05	-0.394775	0.048584	-0.766113
72.0	8.910827	0.530312	4.829625	0.009691	-0.002307	0.0015	-0.392334	0.044189	-0.765869
73.0	8.877232	0.536558	4.833906	0.009883	-0.001736	0.003089	-0.394531	0.041992	-0.765869
74.0	8.896544	0.573129	4.797955	0.00649	0.002059	-0.000504	-0.392334	0.046387	-0.765869
75.0	8.921794	0.499763	4.820032	0.008186	-0.001708	0.001167	-0.396484	0.037598	-0.763428
76.0	8.888174	0.506268	4.824331	0.008267	-0.002137	-0.004102	-0.398926	0.041992	-0.765869
77.0	8.916789	0.485598	4.801334	0.010157	-0.001593	-0.000589	-0.398926	0.041992	-0.768066
78.0	8.905996	0.517645	4.810438	0.013827	-0.001505	-0.000423	-0.394775	0.046387	-0.763672
79.0	8.918631	0.5131	4.778363	0.016181	-0.003987	0.000747	-0.396973	0.046387	-0.768311
80.0	8.952525	0.507714	4.773432	0.018072	-0.003442	0.00426	-0.392334	0.046387	-0.768311
81.0	8.952645	0.508079	4.773169	0.01761	-0.000416	0.006602	-0.39917	0.044189	-0.765869
82.0	8.97015	0.518524	4.759954	0.014877	0.008402	0.002755	-0.394775	0.046387	-0.765869
83.0	8.923413	0.530107	4.797168	0.010555	0.014509	0.003591	-0.396729	0.041992	-0.768066
84.0	8.912239	0.56192	4.806978	0.014022	-0.000934	0.00117	-0.392334	0.041992	-0.768066
85.0	8.96018	0.577253	4.74804	0.009694	-0.002306	0.001506	-0.401123	0.041992	-0.765869
86.0	8.914412	0.526766	4.738618	0.010165	0.005885	-8.6e-05	-0.398926	0.041992	-0.768066
87.0	8.894194	0.55319	4.820995	0.010169	0.009625	0.000163	-0.394287	0.039795	-0.772705
88.0	8.860638	0.497613	4.780365	0.012138	0.005999	-0.001841	-0.394531	0.041992	-0.763428
89.0	8.875753	0.544338	4.835752	0.010169	0.009625	0.000164	-0.396729	0.041992	-0.765869
90.0	8.861607	0.52477	4.759035	0.00885	0.003317	0.00092	-0.398926	0.041992	-0.763428
91.0	8.866673	0.540534	4.77742	0.009505	0.000861	0.000169	-0.39917	0.048584	-0.763672
92.0	8.887855	0.540438	4.804616	0.010627	-0.000882	-0.002673	-0.394287	0.039795	-0.765625
93.0	8.905708	0.551047	4.790741	0.005829	-0.006706	-0.000495	-0.39917	0.046387	-0.76123
94.0	8.902486	0.562118	4.749417	0.008186	-0.005447	0.000927	-0.396729	0.041992	-0.765869
95.0	8.913567	0.530916	4.739743	0.003668	-0.003652	-8e-05	-0.396729	0.039795	-0.770264
96.0	8.894428	0.494996	4.775364	0.008845	-0.004162	0.000424	-0.396729	0.039795	-0.763428
97.0	8.90654	0.552401	4.789038	0.008463	-0.001569	-0.002505	-0.39917	0.046387	-0.765869
98.0	8.935247	0.531445	4.765945	0.009886	-0.005472	0.002852	-0.396729	0.041992	-0.765869
99.0	8.914401	0.532515	4.737996	0.010157	-0.009073	-0.001075	-0.394531	0.041992	-0.758789
100.0	8.909523	0.51763	4.719158	0.005641	-0.003539	-0.001835	-0.39209	0.037598	-0.765625
101.0	8.937698	0.558859	4.741768	0.00734	-0.003564	9e-05	-0.396729	0.039795	-0.765625
102.0	8.902573	0.539167	4.768318	0.006296	-0.005995	-0.002584	-0.394531	0.041992	-0.775146
103.0	8.952658	0.517671	4.772114	0.010158	-0.009073	-0.001074	-0.39917	0.046387	-0.763672
104.0	8.965516	0.512802	4.739646	0.009695	-0.006044	0.001264	-0.396729	0.039795	-0.763428
105.0	8.935475	0.508551	4.784612	0.013179	0.00095	0.000336	-0.39917	0.044189	-0.763672
106.0	8.946168	0.477805	4.775639	0.017512	0.006062	0.000248	-0.401367	0.044189	-0.765869
107.0	8.929938	0.494602	4.766916	0.013838	0.002234	-0.000166	-0.39917	0.044189	-0.765869
108.0	8.908154	0.558062	4.785378	0.016579	0.000902	0.004187	-0.396729	0.039795	-0.760986
109.0	8.920692	0.553093	4.753525	0.013564	-0.001642	0.00327	-0.398926	0.041992	-0.768066
110.0	8.920773	0.553425	4.753334	0.012057	-0.001044	0.002935	-0.396729	0.039795	-0.763428
111.0	8.919044	0.527707	4.776001	0.013377	0.005264	0.002172	-0.396729	0.041992	-0.76123
112.0	8.920463	0.554264	4.753817	0.014884	0.004666	0.002509	-0.392334	0.041992	-0.765869
113.0	8.922277	0.518094	4.8172	0.013838	-0.001506	-0.000407	-0.396729	0.044189	-0.759033
114.0	8.913494	0.514107	4.758297	0.015158	0.004801	-0.00117	-0.39917	0.044189	-0.763672
115.0	8.902282	0.546428	4.768035	0.015821	0.009825	-0.00143	-0.396729	0.044189	-0.759033
116.0	8.896753	0.531745	4.750417	0.017052	0.005353	0.002344	-0.396729	0.044189	-0.765869
117.0	8.884069	0.537857	4.782393	0.017516	0.002322	1e-05	-0.398926	0.039795	-0.763428
118.0	8.905106	0.538104	4.809839	0.016668	0.004203	-0.00083	-0.389893	0.039795	-0.765625
119.0	8.896191	0.534088	4.751207	0.015354	0.005376	0.000421	-0.394775	0.046387	-0.765869
120.0	8.945781	0.512831	4.755966	0.016666	0.000463	-0.001071	-0.394531	0.041992	-0.76123
121.0	8.904583	0.540344	4.810558	0.011874	0.005864	0.001839	-0.398926	0.041992	-0.76123
122.0	8.911834	0.519989	4.760767	0.015542	-0.001528	0.001527	-0.398926	0.041992	-0.756592
123.0	8.911771	0.520453	4.760834	0.011216	0.004581	0.002343	-0.39917	0.044189	-0.765869
124.0	8.911607	0.520807	4.761103	0.010365	0.002721	0.00126	-0.394531	0.044189	-0.759033
125.0	8.900659	0.552822	4.770326	0.011487	0.000972	-0.001577	-0.39917	0.044189	-0.765869
126.0	8.91678	0.537494	4.779137	0.01384	-0.005247	-0.000637	-0.394287	0.039795	-0.760986
127.0	8.913435	0.548857	4.737948	0.013651	-0.002082	-0.001984	-0.401123	0.041992	-0.763428
128.0	8.932958	0.523038	4.787748	0.012147	0.002256	-0.002081	-0.387695	0.044189	-0.763672
129.0	8.950556	0.533733	4.774287	0.013189	0.000951	0.00035	-0.396729	0.044189	-0.76123
130.0	8.93274	0.524277	4.788019	0.007818	0.004624	-0.001508	-0.396484	0.037598	-0.768066
131.0	8.94505	0.519498	4.756617	0.012807	0.003539	-0.002585	-0.398926	0.039795	-0.760986
132.0	8.921971	0.494738	4.752352	0.008477	0.005907	-0.002013	-0.398926	0.039795	-0.765625
133.0	8.944584	0.520797	4.757352	0.010834	0.00343	-0.00083	-0.403564	0.041992	-0.765869
134.0	8.923206	0.521851	4.7304	0.009519	0.004604	0.000419	-0.396729	0.041992	-0.76123
135.0	8.939008	0.506369	4.739852	0.011494	0.004713	-0.001334	-0.396729	0.039795	-0.763428
136.0	8.931396	0.527764	4.790144	0.008204	0.005778	0.001668	-0.390137	0.044189	-0.763672
137.0	8.909844	0.528792	4.763522	0.012157	0.009736	-0.001599	-0.39917	0.046387	-0.765869
138.0	8.925426	0.513459	4.773369	0.011498	0.008453	-0.001094	-0.392334	0.044189	-0.768311
139.0	8.9268	0.540091	4.751201	0.010836	0.00343	-0.000827	-0.396729	0.041992	-0.758789
140.0	8.908753	0.530721	4.765346	0.01301	0.011597	-0.000515	-0.392334	0.044189	-0.765869
141.0	8.908241	0.531335	4.766235	0.008484	0.009648	-0.001772	-0.398926	0.039795	-0.763428
142.0	8.920373	0.52641	4.735236	0.01084	0.00717	-0.000587	-0.394531	0.044189	-0.765869
143.0	8.88641	0.533005	4.740076	0.010837	0.00343	-0.000825	-0.39917	0.044189	-0.765869
144.0	8.928556	0.532574	4.794904	0.00763	0.004046	-0.003092	-0.398926	0.039795	-0.768066
145.0	8.912374	0.549127	4.786027	0.004803	0.002077	-0.002422	-0.398926	0.039795	-0.765625
146.0	8.906975	0.534057	4.768297	0.009525	0.008345	0.000661	-0.394287	0.039795	-0.760986
147.0	8.906656	0.534633	4.768828	0.009798	0.004732	-0.003256	-0.401367	0.046387	-0.763672
148.0	8.901299	0.519746	4.751009	0.01103	0.004008	0.000764	-0.398926	0.041992	-0.768066
149.0	8.888629	0.525827	4.782862	0.011495	0.000973	-0.001565	-0.394287	0.039795	-0.765625
150.0	8.906329	0.536425	4.769237	0.010175	-0.001593	-0.000555	-0.401123	0.037598	-0.770264
151.0	8.923958	0.546951	4.755752	0.009331	0.004027	-0.001163	-0.401367	0.041992	-0.779785
152.0	8.941464	0.557469	4.7425	0.005464	0.00336	-0.002926	-0.392334	0.041992	-0.763428
153.0	8.910992	0.553432	4.788104	0.006507	0.005799	-0.000256	-0.398926	0.039795	-0.768066
154.0	8.92342	0.548178	4.756621	0.005184	-0.000507	0.000517	-0.396729	0.044189	-0.763672
155.0	8.944552	0.54822	4.783887	0.008097	0.00101	-0.005419	-0.403564	0.041992	-0.765869
156.0	8.937529	0.507454	4.788738	0.010843	0.007172	-0.000585	-0.394531	0.041992	-0.763428
157.0	8.928649	0.502907	4.730247	0.009523	0.004606	0.000426	-0.394531	0.041992	-0.765869
158.0	8.949729	0.503053	4.757604	0.017529	-0.001414	-0.000197	-0.398926	0.039795	-0.770264
159.0	8.979712	0.508241	4.712809	0.015375	0.012864	0.00091	-0.403564	0.044189	-0.765869
160.0	8.932539	0.520374	4.750519	0.012371	0.025279	0.000936	-0.39917	0.044189	-0.765869
161.0	8.936694	0.536402	4.770427	0.013213	0.015918	0.001313	-0.401367	0.046387	-0.768311
162.0	8.941277	0.552419	4.789523	0.012545	0.007154	0.001348	-0.394775	0.046387	-0.763672
163.0	8.932353	0.547768	4.731188	0.00953	0.008347	0.000665	-0.394531	0.044189	-0.770508
164.0	8.898166	0.554317	4.736386	0.01302	0.011599	-0.000508	-0.400879	0.0354	-0.763184
165.0	8.883286	0.534607	4.791807	0.012173	0.013478	-0.001354	-0.401611	0.048584	-0.766113
166.0	8.866752	0.551144	4.783543	0.009531	0.008348	0.000666	-0.392334	0.044189	-0.775146
167.0	8.887659	0.551188	4.811197	0.0132	0.000955	0.000377	-0.394531	0.044189	-0.76123
168.0	8.879019	0.546853	4.752333	0.012631	0.002958	-0.00415	-0.396729	0.041992	-0.768066
169.0	8.949744	0.525015	4.78463	0.008206	0.002042	0.001442	-0.396729	0.044189	-0.763672
170.0	8.968956	0.561385	4.748688	0.00679	0.005923	-0.003932	-0.396484	0.0354	-0.760986
171.0	8.915475	0.53201	4.789904	0.004155	0.008275	-0.001443	-0.396729	0.044189	-0.768311
172.0	8.927636	0.526874	4.759012	0.008494	0.009647	-0.001768	-0.394287	0.039795	-0.765625
173.0	8.927248	0.527301	4.759693	0.005003	0.006396	-0.000595	-0.401123	0.041992	-0.763428
174.0	8.900728	0.512584	4.714767	0.010189	0.00589	-7.1e-05	-0.396973	0.046387	-0.768311
175.0	8.944397	0.538125	4.747119	0.006321	0.00522	-0.001839	-0.39917	0.044189	-0.76123
176.0	8.939014	0.523181	4.729452	0.012168	0.005996	-0.001819	-0.390137	0.044189	-0.765869
177.0	8.920962	0.513747	4.743566	0.011232	0.008333	0.002599	-0.39917	0.048584	-0.761475
178.0	8.927298	0.555606	4.739807	0.007839	0.012106	-0.001028	-0.394531	0.041992	-0.765869
179.0	8.925098	0.530109	4.763411	0.009534	0.008349	0.00067	-0.401123	0.041992	-0.76123
180.0	8.929767	0.546141	4.78228	0.008497	0.009647	-0.001765	-0.394287	0.039795	-0.765625
181.0	8.924321	0.531156	4.764749	0.013208	0.004698	0.00062	-0.396973	0.046387	-0.770508
182.0	8.917264	0.49028	4.76977	0.010001	0.00531	-0.001654	-0.396729	0.041992	-0.765869
183.0	8.907702	0.548332	4.756553	0.012366	0.010318	5e-06	-0.39917	0.048584	-0.766113
184.0	8.93917	0.516954	4.775929	0.013218	0.012181	0.001088	-0.398926	0.041992	-0.763428
185.0	8.922574	0.53321	4.767791	0.004544	0.013178	0.001964	-0.403564	0.044189	-0.759033
186.0	8.922135	0.533385	4.768592	0.01359	0.00586	0.003798	-0.39917	0.044189	-0.763672
187.0	8.916729	0.518078	4.751049	0.012933	0.00832	0.004536	-0.396729	0.039795	-0.770264
188.0	8.921402	0.534067	4.769887	0.013878	0.009722	0.000353	-0.394287	0.039795	-0.765625
189.0	8.882129	0.525158	4.756868	0.013878	0.009722	0.000354	-0.401123	0.039795	-0.760986
190.0	8.915351	0.519725	4.753454	0.014731	0.011585	0.001436	-0.39917	0.044189	-0.763672
191.0	8.914968	0.520377	4.754102	0.016891	0.004789	0.000813	-0.396729	0.039795	-0.758789
192.0	8.935779	0.520619	4.781873	0.014064	0.006562	0.001711	-0.398926	0.041992	-0.770508
193.0	8.914268	0.521637	4.755275	0.022281	0.012348	0.003397	-0.394531	0.044189	-0.763672
194.0	8.939819	0.537487	4.801768	0.015586	0.01345	0.002521	-0.39917	0.046387	-0.76123
195.0	8.918209	0.538469	4.77536	0.01926	0.009798	0.002477	-0.398926	0.041992	-0.76123
196.0	8.948134	0.543317	4.731044	0.017942	0.010976	0.003719	-0.396729	0.041992	-0.765869
197.0	8.942472	0.528227	4.714012	0.017949	0.014718	0.003951	-0.394531	0.044189	-0.765869
198.0	8.929074	0.534475	4.746933	0.015407	0.016609	0.001167	-0.396729	0.044189	-0.76123
199.0	8.933483	0.550675	4.766192	0.014738	0.011586	0.001443	-0.39917	0.046387	-0.768311
200.0	8.894157	0.541713	4.753273	0.016248	0.01099	0.001791	-0.398926	0.041992	-0.777344
201.0	8.938257	0.504632	4.741201	0.014929	0.012169	0.003032	-0.401123	0.041992	-0.763428
202.0	8.926736	0.536884	4.751058	0.01418	0.013579	-0.003085	-0.396729	0.039795	-0.765625
203.0	8.942154	0.521757	4.761312	0.019267	0.0098	0.002489	-0.396729	0.044189	-0.763672
204.0	8.928906	0.528255	4.79386	0.01588	0.013567	-0.001149	-0.401123	0.041992	-0.763428
205.0	8.907246	0.529295	4.767572	0.017104	0.012856	0.002878	-0.398926	0.039795	-0.765625
206.0	8.906707	0.529823	4.76852	0.01408	0.010306	0.001955	-0.392334	0.041992	-0.772705
207.0	8.890209	0.546281	4.760131	0.013236	0.012183	0.001102	-0.39917	0.044189	-0.759033
208.0	8.892963	0.536489	4.801934	0.013607	0.009608	0.004048	-0.401367	0.044189	-0.765869
209.0	8.894416	0.56292	4.779656	0.013509	0.004812	-0.003032	-0.401123	0.039795	-0.768066
210.0	8.889145	0.547785	4.761944	0.009256	0.004495	0.004134	-0.401367	0.041992	-0.777344
211.0	8.933612	0.510484	4.749322	0.010862	0.003429	-0.000783	-0.39917	0.044189	-0.770508
212.0	8.940176	0.55255	4.745	0.011534	0.008452	-0.00106	-0.394531	0.044189	-0.763672
213.0	8.937905	0.527375	4.768666	0.009181	0.010925	-0.002262	-0.39917	0.044189	-0.763672
214.0	8.932378	0.512313	4.751446	0.011723	0.009037	0.000529	-0.396729	0.044189	-0.763672
215.0	8.919221	0.518633	4.783772	0.010026	0.009048	-0.001407	-0.401367	0.044189	-0.763672
216.0	8.925648	0.560629	4.779692	0.007854	0.008362	-0.001251	-0.394531	0.044189	-0.765869
217.0	8.918344	0.519527	4.785309	0.010592	0.010802	0.003355	-0.398926	0.041992	-0.763428
218.0	8.930524	0.514341	4.754712	0.011832	0.012307	-0.004507	-0.396729	0.044189	-0.768311
219.0	8.904444	0.526735	4.818884	0.009848	0.012206	-0.002764	-0.398926	0.037598	-0.765625
220.0	8.906517	0.490219	4.75227	0.01343	0.01277	0.002696	-0.39917	0.044189	-0.768311
221.0	8.894961	0.522282	4.762086	0.012399	0.014061	0.000255	-0.39209	0.039795	-0.770264
222.0	8.904472	0.554129	4.799145	0.011727	0.009038	0.000534	-0.394287	0.039795	-0.763428
223.0	8.883097	0.554751	4.772413	0.009077	0.007656	0.002781	-0.398682	0.0354	-0.763184
224.0	8.870842	0.497939	4.759868	0.009554	0.008352	0.00069	-0.392334	0.044189	-0.770508
225.0	8.898194	0.539502	4.783304	0.009563	0.012094	0.000917	-0.394287	0.039795	-0.763428
226.0	8.900828	0.529967	4.825205	0.01287	0.011015	-0.00206	-0.394287	0.039795	-0.765625
227.0	8.897239	0.540644	4.784952	0.013605	0.005871	0.003835	-0.398926	0.039795	-0.760986
228.0	8.913035	0.52514	4.79458	0.007842	0.000877	-0.001698	-0.392334	0.046387	-0.763672
229.0	8.927463	0.545546	4.740413	0.0104	0.006476	0.001547	-0.39917	0.046387	-0.76123
230.0	8.873716	0.516479	4.781599	0.013904	0.009724	0.000384	-0.39209	0.039795	-0.763428
231.0	8.940852	0.504944	4.77394	0.013231	0.004701	0.000664	-0.396484	0.037598	-0.765625
232.0	8.940615	0.505575	4.774318	0.015405	0.005386	0.000511	-0.401367	0.041992	-0.772705
233.0	8.924397	0.522161	4.765351	0.013897	0.005982	0.00016	-0.398926	0.041992	-0.765869
234.0	8.908178	0.538554	4.756403	0.013607	0.005873	0.003839	-0.394775	0.046387	-0.775146
235.0	8.944846	0.522844	4.793644	0.013232	0.004701	0.000666	-0.398926	0.041992	-0.76123
236.0	8.957289	0.517557	4.762677	0.015604	0.009716	0.002325	-0.394531	0.044189	-0.765869
237.0	8.961685	0.533747	4.781805	0.011752	0.016524	0.000989	-0.401367	0.044189	-0.76123
238.0	8.927117	0.540267	4.787393	0.012606	0.018391	0.002072	-0.39917	0.044189	-0.768311
239.0	8.892638	0.546721	4.792808	0.008061	0.012691	0.000567	-0.394531	0.041992	-0.763428
240.0	8.910029	0.55693	4.780022	0.009551	0.00461	0.000472	-0.392334	0.041992	-0.763428
241.0	8.92254	0.551684	4.748963	0.012871	0.00727	-0.002277	-0.398926	0.041992	-0.765869
242.0	8.886361	0.532823	4.776952	0.008177	0.015954	-0.004473	-0.398926	0.039795	-0.770264
243.0	8.856771	0.555336	4.800521	0.007521	0.018416	-0.003744	-0.394531	0.041992	-0.76123
244.0	8.843199	0.5618	4.833368	0.011747	0.012782	0.000771	-0.396973	0.046387	-0.763672
245.0	8.889258	0.550492	4.798643	0.011364	0.007865	-0.002626	-0.39917	0.044189	-0.759033
246.0	8.883892	0.535508	4.78124	0.009189	0.00718	-0.002474	-0.396973	0.046387	-0.770508
247.0	8.87081	0.541931	4.813177	0.007191	0.003338	-0.000959	-0.394775	0.046387	-0.763672
248.0	8.935018	0.540358	4.764371	0.00918	0.003437	-0.002697	-0.394531	0.041992	-0.765869
249.0	8.929829	0.525163	4.746679	0.004174	0.004527	-0.001666	-0.396729	0.041992	-0.756592
250.0	8.971432	0.524951	4.80204	0.006242	0.005695	0.003448	-0.394531	0.044189	-0.765869
251.0	8.932306	0.515553	4.788782	0.005516	0.010831	-0.002452	-0.403564	0.041992	-0.765869
252.0	8.915993	0.531946	4.779978	0.007858	0.004619	-0.001463	-0.401367	0.044189	-0.763672
253.0	8.934691	0.50652	4.830975	0.006359	0.008956	-0.001593	-0.394775	0.046387	-0.76123
254.0	8.897375	0.523085	4.794862	0.007026	0.010237	-0.002098	-0.398926	0.041992	-0.763428
255.0	8.914639	0.533335	4.782347	0.008065	0.012693	0.000571	-0.398926	0.039795	-0.760986
256.0	8.930005	0.518042	4.792803	0.007321	0.010342	-0.005775	-0.396729	0.044189	-0.763672
257.0	8.895674	0.524695	4.797841	0.006557	0.013288	0.000218	-0.396973	0.046387	-0.768311
258.0	8.910927	0.509262	4.80852	0.009214	0.014666	-0.002023	-0.396729	0.044189	-0.765869
259.0	8.876676	0.515894	4.813396	0.010222	0.005893	-2.2e-05	-0.394531	0.041992	-0.763428
260.0	8.910206	0.510317	4.809743	0.012573	0.003424	0.001192	-0.392334	0.046387	-0.763672
261.0	8.901892	0.505095	4.751226	0.013251	0.008448	0.00091	-0.401123	0.041992	-0.768066
262.0	8.90446	0.495597	4.793083	0.013448	0.012779	0.00272	-0.396729	0.044189	-0.765869
263.0	8.908889	0.511923	4.812011	0.017604	0.00982	0.000613	-0.39917	0.046387	-0.770508
264.0	8.908533	0.512541	4.812605	0.013428	0.005293	0.002277	-0.396729	0.044189	-0.763672
265.0	8.923047	0.532847	4.758562	0.013909	0.005985	0.000186	-0.392334	0.041992	-0.756592
266.0	8.909873	0.539216	4.790562	0.010596	0.007071	0.003154	-0.39917	0.046387	-0.763672
267.0	8.909619	0.539399	4.791014	0.014642	0.004597	0.006312	-0.396729	0.039795	-0.763428
268.0	8.904394	0.524011	4.77348	0.010893	0.007173	-0.000524	-0.394287	0.037598	-0.765625
269.0	8.90898	0.540314	4.7921	0.013255	0.008448	0.000915	-0.401123	0.039795	-0.770264
270.0	8.922511	0.499471	4.825408	0.018276	0.0111	0.000113	-0.394531	0.041992	-0.768066
271.0	8.869257	0.532014	4.779817	0.014962	0.012187	0.00308	-0.403564	0.046387	-0.763672
272.0	8.855791	0.538589	4.812293	0.01526	0.012288	-0.000597	-0.396729	0.041992	-0.765869
273.0	8.901824	0.52711	4.777929	0.011945	0.013375	0.002369	-0.398926	0.039795	-0.758789
274.0	8.919047	0.53721	4.765565	0.013641	0.013371	0.004313	-0.39917	0.044189	-0.765869
275.0	8.92651	0.543308	4.825442	0.012962	0.008348	0.004598	-0.401123	0.041992	-0.76123
276.0	8.923046	0.553631	4.785239	0.009215	0.01092	-0.002242	-0.394531	0.044189	-0.763672
277.0	8.928541	0.506781	4.759745	0.012604	0.010912	0.001646	-0.401611	0.048584	-0.761475
278.0	8.934819	0.548654	4.755781	0.005542	0.014572	-0.002231	-0.396729	0.039795	-0.763428
279.0	8.932197	0.523508	4.780023	0.008561	0.013384	-0.001515	-0.398926	0.041992	-0.770508
280.0	8.913759	0.514199	4.794543	0.007225	0.010825	-0.000506	-0.394531	0.046387	-0.759033
281.0	8.913116	0.514619	4.795693	0.007906	0.015848	-0.00079	-0.398926	0.041992	-0.768066
282.0	8.912408	0.515196	4.796948	0.012249	0.013476	-0.001302	-0.396729	0.041992	-0.765869
283.0	8.873104	0.506135	4.783965	0.013275	0.012193	0.001148	-0.396729	0.041992	-0.756592
284.0	8.890335	0.516504	4.771595	0.010742	0.01407	-0.001659	-0.396484	0.037598	-0.765625
285.0	8.894735	0.532907	4.790472	0.014773	0.007856	0.001288	-0.394531	0.044189	-0.763672
286.0	8.927934	0.527287	4.787565	0.009603	0.015846	0.001157	-0.389893	0.039795	-0.765625
287.0	8.87557	0.523993	4.80626	0.011112	0.015252	0.001516	-0.39917	0.046387	-0.765869
288.0	8.921698	0.512381	4.771962	0.010063	0.009047	-0.001371	-0.39209	0.039795	-0.772705
289.0	8.887498	0.518921	4.776616	0.013634	0.009632	0.004107	-0.396973	0.048584	-0.772949
290.0	8.904951	0.529022	4.763886	0.009579	0.008358	0.000721	-0.394287	0.037598	-0.765625
291.0	8.902485	0.503865	4.787804	0.01328	0.012194	0.001154	-0.394531	0.041992	-0.765869
292.0	8.906991	0.520255	4.806453	0.011561	0.004708	-0.001229	-0.394775	0.046387	-0.763672
293.0	8.906705	0.520906	4.806914	0.016286	0.007263	0.001655	-0.39917	0.044189	-0.768311
294.0	8.908259	0.547107	4.78458	0.010919	0.010917	-0.000287	-0.396729	0.041992	-0.772705
295.0	8.918856	0.515947	4.776889	0.013439	0.005298	0.002306	-0.396729	0.044189	-0.765869
296.0	8.918583	0.516422	4.777347	0.014109	0.006577	0.001802	-0.394531	0.044189	-0.768311
297.0	8.938066	0.552386	4.741457	0.012247	0.009732	-0.001512	-0.401367	0.044189	-0.765869
298.0	8.937541	0.552977	4.742377	0.007903	0.012104	-0.001006	-0.394287	0.039795	-0.760986
299.0	8.914099	0.527863	4.739083	0.014991	0.015938	0.003323	-0.396729	0.044189	-0.772949
300.0	8.921155	0.534466	4.799393	0.011423	0.015349	-0.002157	-0.394531	0.044189	-0.763672
301.0	8.925283	0.550806	4.818705	0.008102	0.016441	0.0008	-0.394531	0.041992	-0.768066
302.0	8.919606	0.535504	4.802155	0.009916	0.015942	-0.002516	-0.392578	0.048584	-0.766113
303.0	8.900837	0.526389	4.817174	0.010114	0.020279	-0.000711	-0.394531	0.044189	-0.76123
304.0	8.850309	0.548773	4.812929	0.008104	0.016442	0.000803	-0.396729	0.044189	-0.768311
305.0	8.858617	0.492011	4.828895	0.009234	0.010919	-0.002226	-0.396729	0.041992	-0.765869
306.0	8.89396	0.512137	4.802745	0.00922	0.007174	-0.002443	-0.394531	0.044189	-0.768311
307.0	8.880501	0.518828	4.834892	0.010927	0.010918	-0.000277	-0.39917	0.044189	-0.763672
308.0	8.910943	0.522961	4.790872	0.013458	0.009045	0.002537	-0.392334	0.046387	-0.763672
309.0	8.879532	0.519786	4.836569	0.009419	0.011512	-0.000638	-0.396729	0.039795	-0.760986
310.0	8.909948	0.523914	4.792619	0.010258	0.009639	0.000228	-0.396729	0.041992	-0.772705
311.0	8.904573	0.508528	4.775568	0.011111	0.011511	0.001312	-0.394287	0.037598	-0.765625
312.0	8.921871	0.518746	4.763199	0.012453	0.01407	0.000305	-0.392334	0.046387	-0.76123
313.0	8.924101	0.509654	4.805303	0.014619	0.011011	-5.3e-05	-0.39917	0.044189	-0.768311
314.0	8.939398	0.494692	4.815944	0.017289	0.012383	-0.002283	-0.394775	0.046387	-0.765869
315.0	8.943676	0.511226	4.834889	0.016677	0.012199	0.005072	-0.392334	0.044189	-0.770508
316.0	8.919447	0.521394	4.767448	0.013981	0.017222	0.000886	-0.387695	0.044189	-0.763672
317.0	8.939232	0.521981	4.79675	0.01636	0.022246	0.00255	-0.398926	0.041992	-0.765869
318.0	8.891289	0.534613	4.833872	0.013708	0.024621	0.004998	-0.389893	0.041992	-0.765869
319.0	8.86959	0.534919	4.808034	0.010296	0.017129	0.000667	-0.396729	0.044189	-0.770508
320.0	8.920608	0.539131	4.792056	0.012935	0.01101	-0.001993	-0.394531	0.044189	-0.768311
321.0	8.904029	0.555399	4.783649	0.007642	0.019504	0.003114	-0.394287	0.037598	-0.763428
322.0	8.871249	0.587454	4.76618	0.013002	0.02599	-0.001127	-0.396729	0.041992	-0.765869
323.0	8.888788	0.562573	4.818876	0.010971	0.018409	0.000168	-0.394775	0.046387	-0.765869
324.0	8.854068	0.569348	4.824232	0.012135	0.020372	-0.002424	-0.387695	0.044189	-0.763672
325.0	8.871146	0.579763	4.812298	0.009266	0.014663	-0.001996	-0.394531	0.041992	-0.765869
326.0	8.904138	0.574123	4.810008	0.003412	0.017629	-0.001869	-0.389893	0.041992	-0.763428
327.0	8.880525	0.548953	4.807032	0.003232	0.017035	-0.003455	-0.39917	0.046387	-0.768311
328.0	8.905169	0.565247	4.854116	-0.000458	0.016942	-0.003681	-0.396729	0.039795	-0.765625
329.0	8.894787	0.533787	4.819614	0.001215	0.013199	-0.001944	-0.390137	0.044189	-0.765869
330.0	8.911952	0.543923	4.807596	0.002217	0.018312	-0.005907	-0.392334	0.044189	-0.770508
331.0	8.859315	0.540837	4.826281	0.000217	0.018221	-0.004182	-0.396729	0.044189	-0.770508
332.0	8.882649	0.503378	4.788283	0.002562	0.015757	-0.002948	-0.396729	0.044189	-0.765869
333.0	8.915757	0.497694	4.785848	0.007924	0.012107	-0.000982	-0.396729	0.044189	-0.763672
334.0	8.90191	0.504421	4.818407	0.008435	0.016536	-0.002854	-0.394531	0.044189	-0.759033
335.0	8.901121	0.504976	4.819807	0.007943	0.015852	-0.000764	-0.396729	0.044189	-0.770508
336.0	8.886657	0.546819	4.788219	0.007764	0.015258	-0.00235	-0.396729	0.039795	-0.768066
337.0	8.870563	0.528202	4.844098	0.008931	0.017221	-0.004941	-0.396729	0.044189	-0.765869
338.0	8.831291	0.519145	4.830991	0.010944	0.010922	-0.000245	-0.390137	0.048584	-0.763672
339.0	8.882679	0.523049	4.814615	0.009266	0.004531	0.004219	-0.392334	0.041992	-0.763428
340.0	8.909318	0.475903	4.816646	0.010075	0.005303	-0.001546	-0.396729	0.039795	-0.765625
341.0	8.897706	0.508111	4.82578	0.012669	0.018416	0.002142	-0.39917	0.046387	-0.765869
342.0	8.917443	0.508676	4.855032	0.012491	0.017821	0.000556	-0.39209	0.037598	-0.763428
343.0	8.895979	0.509231	4.828844	0.016183	0.017915	0.00079	-0.390137	0.044189	-0.765869
344.0	8.908353	0.503581	4.799004	0.013507	0.016546	0.003014	-0.389893	0.039795	-0.765625
345.0	8.8965	0.535803	4.808549	0.012315	0.017226	-0.001028	-0.394531	0.041992	-0.765869
346.0	8.893595	0.511167	4.83303	0.01968	0.013668	-0.000775	-0.39209	0.039795	-0.763428
347.0	8.915545	0.537414	4.838945	0.016724	0.019704	0.005556	-0.396973	0.046387	-0.765869
348.0	8.873857	0.50279	4.849503	0.01585	0.020469	-0.002162	-0.392334	0.046387	-0.765869
349.0	8.843876	0.52566	4.8726	0.02006	0.018606	0.00262	-0.394775	0.046387	-0.768311
350.0	8.885308	0.498198	4.821308	0.020717	0.016139	0.001906	-0.389893	0.039795	-0.770264
351.0	8.844446	0.552759	4.852133	0.020719	0.016139	0.001907	-0.394531	0.041992	-0.756592
352.0	8.893233	0.531577	4.859846	0.017882	0.017921	0.002758	-0.394775	0.048584	-0.772949
353.0	8.881271	0.563891	4.869484	0.01167	0.019693	-0.000305	-0.390137	0.044189	-0.768311
354.0	8.837123	0.538692	4.838723	0.015025	0.015957	0.003395	-0.390137	0.046387	-0.76123
355.0	8.85224	0.523636	4.849747	0.017331	0.012384	-0.002213	-0.401123	0.039795	-0.765625
356.0	8.872124	0.524434	4.878625	0.008973	0.01458	0.001703	-0.394531	0.044189	-0.763672
357.0	8.850895	0.524726	4.852084	0.012488	0.014077	0.000355	-0.396973	0.050781	-0.768555
358.0	8.888829	0.535045	4.867517	0.012646	0.010929	0.001729	-0.387695	0.039795	-0.768066
359.0	8.876531	0.478247	4.85606	0.010981	0.014669	-1.4e-05	-0.396729	0.044189	-0.772949
360.0	8.905454	0.545831	4.856552	0.013841	0.016634	-0.000645	-0.390137	0.046387	-0.765869
361.0	8.892995	0.489031	4.84541	0.011337	0.015865	0.003162	-0.394531	0.041992	-0.772705
362.0	8.86543	0.537137	4.84476	0.014321	0.013568	-0.002945	-0.389893	0.039795	-0.772705
363.0	8.893747	0.515938	4.824712	0.01065	0.01722	-0.002971	-0.39209	0.037598	-0.768066
364.0	8.879744	0.522761	4.857196	0.011318	0.01212	0.002951	-0.392334	0.041992	-0.768066
365.0	8.879132	0.523212	4.858267	0.014002	0.013486	0.000734	-0.396729	0.039795	-0.765625
366.0	8.894158	0.508025	4.869493	0.012516	0.017825	0.000577	-0.390137	0.044189	-0.765869
367.0	8.890746	0.518062	4.830013	0.014046	0.02098	0.001163	-0.392334	0.044189	-0.768311
368.0	8.876465	0.524974	4.862948	0.013194	0.019103	7.8e-05	-0.387695	0.039795	-0.770264
369.0	8.870825	0.509545	4.846723	0.015057	0.019709	0.003626	-0.394531	0.044189	-0.772949
370.0	8.874651	0.525876	4.866161	0.01202	0.017146	0.00267	-0.385498	0.041992	-0.765869
371.0	8.846355	0.484887	4.845279	0.013022	0.018505	-0.001505	-0.392334	0.044189	-0.768311
372.0	8.861963	0.558812	4.876904	0.013332	0.012209	0.001245	-0.390137	0.044189	-0.765869
373.0	8.870142	0.502123	4.89335	0.010492	0.013992	0.002087	-0.390137	0.044189	-0.763672
374.0	8.848968	0.502417	4.866782	0.013179	0.015357	-0.000128	-0.387939	0.046387	-0.768311
375.0	8.852911	0.518956	4.885945	0.009486	0.015263	-0.000373	-0.398926	0.041992	-0.765869
376.0	8.870354	0.529214	4.873628	0.013814	0.009142	-0.001051	-0.389893	0.041992	-0.765869
377.0	8.849396	0.529488	4.846682	0.01301	0.012131	0.004925	-0.392334	0.041992	-0.765869
378.0	8.887249	0.539762	4.862285	0.014691	0.014766	0.000249	-0.389893	0.041992	-0.765869
379.0	8.863804	0.514861	4.858992	0.014692	0.014766	0.00025	-0.387451	0.037598	-0.763428
380.0	8.863137	0.515456	4.860146	0.011829	0.012802	0.000878	-0.392334	0.044189	-0.768311
381.0	8.896334	0.509765	4.857856	0.013514	0.012811	0.002841	-0.394531	0.041992	-0.772705
382.0	8.895698	0.510399	4.858955	0.016028	0.013574	-0.000959	-0.389893	0.039795	-0.768066
383.0	8.861251	0.517177	4.863401	0.013515	0.012811	0.002843	-0.392334	0.041992	-0.770508
384.0	8.896745	0.53697	4.837811	0.013843	0.012888	-0.000831	-0.392334	0.046387	-0.770508
385.0	8.864691	0.534305	4.883366	0.009646	0.012117	0.001007	-0.394531	0.044189	-0.770508
386.0	8.843693	0.534402	4.856542	0.01133	0.012126	0.00297	-0.383057	0.037598	-0.772705
387.0	8.863554	0.535063	4.885346	0.010981	0.010925	-0.000203	-0.390137	0.044189	-0.772949
388.0	8.862956	0.535616	4.886371	0.008643	0.013385	-0.001454	-0.387695	0.039795	-0.774902
389.0	8.871104	0.513779	4.838381	0.010982	0.010925	-0.000202	-0.392334	0.046387	-0.772949
390.0	8.859598	0.51134	4.911464	0.012642	0.007187	0.001551	-0.390137	0.046387	-0.765869
391.0	8.870323	0.514889	4.839695	0.014654	0.007272	-0.00016	-0.394531	0.041992	-0.763428
392.0	8.85188	0.505885	4.853639	0.015005	0.008475	0.003015	-0.392334	0.044189	-0.765869
393.0	8.871898	0.506787	4.882121	0.012972	0.007263	-0.002122	-0.394531	0.041992	-0.765869
394.0	8.855795	0.523304	4.872675	0.014656	0.007273	-0.000158	-0.392334	0.041992	-0.768066
395.0	8.871188	0.508167	4.883268	0.012644	0.007188	0.001554	-0.385498	0.044189	-0.768311
396.0	8.85979	0.540392	4.891583	0.017345	0.006016	0.004271	-0.392334	0.044189	-0.770508
397.0	8.839273	0.540687	4.863888	0.016293	-0.000212	0.001389	-0.389893	0.039795	-0.768066
398.0	8.888803	0.51936	4.870609	0.013451	0.001572	0.002223	-0.392334	0.041992	-0.770508
399.0	8.881701	0.513057	4.811798	0.016668	0.004739	0.004773	-0.392334	0.041992	-0.768066
400.0	8.906394	0.529803	4.858075	0.01418	0.010345	0.002141	-0.390137	0.044189	-0.772949
401.0	8.885478	0.529826	4.831149	0.007641	0.012034	0.00272	-0.390137	0.046387	-0.772949
402.0	8.871775	0.536597	4.862762	0.012598	-0.000307	0.00114	-0.385254	0.039795	-0.765625
403.0	8.869288	0.546202	4.82187	0.007617	0.008287	0.002512	-0.394287	0.039795	-0.765625
404.0	8.904971	0.531122	4.860539	0.008627	0.009637	-0.001663	-0.389893	0.041992	-0.772705
405.0	8.854798	0.553526	4.854846	0.007998	0.015855	-0.000746	-0.394287	0.039795	-0.760986
406.0	8.840638	0.560491	4.887232	0.008653	0.013384	-0.001454	-0.394287	0.039795	-0.768066
407.0	8.848828	0.538569	4.839334	0.0078	0.011505	-0.00254	-0.389893	0.041992	-0.770508
408.0	8.868744	0.539528	4.867962	0.010792	0.006575	-0.001991	-0.390137	0.046387	-0.772949
409.0	8.839187	0.562289	4.889651	0.00257	0.008253	-0.003381	-0.389893	0.041992	-0.765869
410.0	8.863321	0.524432	4.851483	0.004253	0.008265	-0.001416	-0.389893	0.041992	-0.775146
411.0	8.860583	0.499513	4.875518	0.00727	0.007083	-0.000659	-0.385498	0.044189	-0.763672
412.0	8.867349	0.541225	4.870315	0.006565	0.002058	-0.000366	-0.387695	0.041992	-0.779785
413.0	8.860317	0.534821	4.811504	0.007245	0.003335	-0.000866	-0.39917	0.044189	-0.770508
414.0	8.911915	0.504219	4.859875	0.010114	0.005298	-0.001488	-0.390137	0.044189	-0.768311
415.0	8.864327	0.517378	4.894747	0.007271	0.007083	-0.000658	-0.394775	0.046387	-0.765869
416.0	8.861757	0.527134	4.854047	0.010115	0.005299	-0.001487	-0.394775	0.046387	-0.768311
417.0	8.897715	0.512232	4.892184	0.008904	-0.0004	0.000894	-0.394287	0.039795	-0.765625
418.0	8.861322	0.527995	4.854749	0.004959	0.01329	-0.001709	-0.394531	0.041992	-0.76123
419.0	8.894692	0.52241	4.852277	0.009942	0.004695	-0.003073	-0.387695	0.044189	-0.765869
420.0	8.853558	0.487817	4.861632	0.009635	0.008373	0.000808	-0.39209	0.037598	-0.768066
421.0	8.86028	0.529576	4.856477	0.008756	0.002745	-0.000485	-0.39209	0.039795	-0.768066
422.0	8.923315	0.501758	4.832141	0.014766	-0.003366	0.000827	-0.387939	0.046387	-0.770508
423.0	8.909738	0.5088	4.863388	0.011144	0.007783	0.001188	-0.392334	0.041992	-0.768066
424.0	8.870875	0.499163	4.849557	0.008474	0.010171	0.003603	-0.387695	0.044189	-0.772949
425.0	8.85471	0.515353	4.840218	0.02073	0.00866	0.001586	-0.390137	0.044189	-0.768311
426.0	8.883962	0.548556	4.90421	0.013309	0.004721	0.000863	-0.387451	0.037598	-0.770264
427.0	8.892519	0.526486	4.855819	0.015018	0.008483	0.003036	-0.394531	0.044189	-0.772949
428.0	8.837968	0.532983	4.831771	0.015179	0.007947	-0.002225	-0.392334	0.041992	-0.765869
429.0	8.878293	0.534461	4.888113	0.015674	0.006012	0.002331	-0.392334	0.044189	-0.768311
430.0	8.860081	0.559878	4.837202	0.011802	0.005312	0.000485	-0.387695	0.041992	-0.770508
431.0	8.855034	0.509985	4.884507	0.013993	0.005998	0.000365	-0.387695	0.039795	-0.765625
432.0	8.857171	0.535709	4.861472	0.011296	0.00464	0.002573	-0.389893	0.039795	-0.774902
433.0	8.886162	0.513982	4.840846	0.017012	0.004817	0.001128	-0.392334	0.041992	-0.772705
434.0	8.872374	0.52126	4.872397	0.014675	0.007275	-0.000134	-0.39209	0.039795	-0.768066
435.0	8.903394	0.490419	4.893348	0.012004	0.009665	0.002278	-0.392578	0.048584	-0.766113
436.0	8.894281	0.54794	4.878214	0.016359	0.007289	0.001836	-0.394531	0.041992	-0.770508
437.0	8.891748	0.557565	4.837523	0.01047	0.006508	0.001694	-0.396729	0.041992	-0.765869
438.0	8.884309	0.516686	4.843958	0.009495	0.011517	-0.000571	-0.387695	0.041992	-0.768066
439.0	8.883716	0.517235	4.844988	0.010177	0.012794	-0.001071	-0.394531	0.041992	-0.772705
440.0	8.865161	0.508274	4.85905	0.011807	0.005312	0.000491	-0.387695	0.039795	-0.772705
441.0	8.894198	0.486643	4.838394	0.012289	0.002235	-0.001799	-0.394531	0.044189	-0.765869
442.0	8.89632	0.512417	4.815393	0.012007	0.009667	0.002281	-0.387695	0.041992	-0.763428
443.0	8.893562	0.487776	4.839449	0.009953	0.004691	-0.003063	-0.390137	0.044189	-0.768311
444.0	8.86647	0.535891	4.837331	0.014172	0.006605	0.001961	-0.385498	0.044189	-0.763672
445.0	8.863726	0.51131	4.861349	0.014681	0.007275	-0.000126	-0.396729	0.039795	-0.765625
446.0	8.863361	0.511968	4.861946	0.014854	0.007881	0.001461	-0.389893	0.041992	-0.768066
447.0	8.876586	0.50602	4.831355	0.017019	0.004819	0.001141	-0.390137	0.044189	-0.768311
448.0	8.880979	0.522867	4.849399	0.014656	0.003527	-0.000326	-0.387695	0.039795	-0.770264
449.0	8.880776	0.523567	4.849696	0.011638	0.004707	-0.001091	-0.390137	0.044189	-0.768311
450.0	8.880553	0.524057	4.850051	0.011301	0.004644	0.002583	-0.390137	0.048584	-0.772949
451.0	8.896005	0.508783	4.860646	0.010302	0.005903	0.000113	-0.389893	0.041992	-0.770508
452.0	8.861953	0.5155	4.864139	0.010957	0.003431	-0.000589	-0.390137	0.044189	-0.772949
453.0	8.879881	0.525496	4.851125	0.00962	0.004627	0.000614	-0.389893	0.039795	-0.765625
454.0	8.895364	0.510186	4.861672	0.011303	0.004644	0.002584	-0.389893	0.041992	-0.765869
455.0	8.895056	0.510544	4.862198	0.009648	0.008376	0.000815	-0.389893	0.039795	-0.768066
456.0	8.860865	0.517037	4.865956	0.010648	0.007118	0.003287	-0.394287	0.039795	-0.768066
457.0	8.822231	0.507577	4.851691	0.012295	0.002233	-0.001789	-0.394531	0.044189	-0.76123
458.0	8.896754	0.537179	4.839866	0.010959	0.003431	-0.000587	-0.390137	0.044189	-0.768311
459.0	8.873659	0.512234	4.836077	0.015398	0.012301	-0.000421	-0.392334	0.044189	-0.763672
460.0	8.882342	0.545079	4.872365	0.012841	0.007805	0.003171	-0.392334	0.044189	-0.770508
461.0	8.877345	0.529423	4.855339	0.014034	0.009749	0.000583	-0.389893	0.041992	-0.772705
462.0	8.845225	0.527073	4.900441	0.011333	0.008395	0.002788	-0.396973	0.046387	-0.770508
463.0	8.856272	0.529842	4.828762	0.010989	0.007179	-0.000384	-0.387695	0.041992	-0.768066
464.0	8.869153	0.489658	4.863121	0.013181	0.007866	-0.0005	-0.394775	0.046387	-0.765869
465.0	8.905037	0.509105	4.837151	0.011334	0.008395	0.00279	-0.392334	0.041992	-0.768066
466.0	8.873083	0.506758	4.881925	0.008597	0.002136	-0.002051	-0.390137	0.044189	-0.768311
467.0	8.857186	0.523092	4.872004	0.012328	0.005982	-0.001584	-0.392334	0.044189	-0.765869
468.0	8.874995	0.533028	4.859238	0.009142	0.00771	0.002906	-0.390137	0.044189	-0.772949
469.0	8.856458	0.523829	4.873247	0.008144	0.008967	0.000434	-0.390137	0.048584	-0.772949
470.0	8.871767	0.508654	4.884118	0.012501	0.00659	4e-06	-0.387695	0.044189	-0.768311
471.0	8.85369	0.533911	4.833047	0.011646	0.004706	-0.00108	-0.387695	0.041992	-0.768066
472.0	8.873841	0.535192	4.861106	0.014466	-0.00083	-0.002093	-0.390137	0.044189	-0.765869
473.0	8.869215	0.51959	4.843438	0.010625	0.003373	0.003095	-0.394775	0.046387	-0.768311
474.0	8.86663	0.494924	4.867187	0.013984	0.002252	0.000193	-0.390137	0.044189	-0.765869
475.0	8.884539	0.505048	4.854229	0.009311	0.00716	-0.002352	-0.394531	0.041992	-0.765869
476.0	8.854955	0.52802	4.875526	0.015695	0.006021	0.002364	-0.392334	0.044189	-0.765869
477.0	8.870398	0.512921	4.886158	0.009456	0.00402	-0.000963	-0.392334	0.046387	-0.763672
478.0	8.861085	0.481131	4.851026	0.010966	0.003431	-0.000576	-0.385498	0.044189	-0.772949
479.0	8.849857	0.513621	4.858602	0.017006	0.001074	0.000969	-0.392334	0.046387	-0.772949
480.0	8.899304	0.492581	4.865838	0.0192	0.00176	0.000855	-0.392334	0.044189	-0.763672
481.0	8.912891	0.486518	4.834743	0.017322	-0.001456	0.003947	-0.394531	0.044189	-0.765869
482.0	8.881518	0.518375	4.814167	0.013988	0.002252	0.000198	-0.387695	0.044189	-0.76123
483.0	8.894937	0.512237	4.783389	0.013333	0.004727	0.000896	-0.390137	0.046387	-0.768311
484.0	8.892653	0.521569	4.742403	0.008946	0.003354	0.001126	-0.390137	0.044189	-0.768311
485.0	8.892702	0.521815	4.742284	-0.002566	-0.005655	-0.003252	-0.394531	0.044189	-0.763672
486.0	8.843676	0.488538	4.649836	-0.009748	-0.020792	-0.008249	-0.392334	0.041992	-0.765869
487.0	8.83787	0.481634	4.589157	-0.013937	-0.018969	-0.013081	-0.39917	0.046387	-0.763672
488.0	8.827081	0.479806	4.660153	-0.029037	-0.013079	-0.016943	-0.392334	0.044189	-0.768311
489.0	8.836403	0.422976	4.675083	-0.031255	-0.017514	-0.017019	-0.392334	0.046387	-0.765869
490.0	8.893134	0.318933	4.720191	-0.047798	-0.025423	-0.020456	-0.390137	0.044189	-0.763672
491.0	8.883012	0.227017	4.770001	-0.050312	-0.049212	-0.023094	-0.396973	0.048584	-0.766113
492.0	8.784395	0.15626	4.753892	-0.046708	-0.090898	-0.030232	-0.387939	0.046387	-0.763672
493.0	8.737218	0.098703	4.676878	-0.055801	-0.122803	-0.046371	-0.392578	0.048584	-0.770752
494.0	8.781672	0.111064	4.680068	-0.041717	-0.137226	-0.059039	-0.394531	0.044189	-0.765869
495.0	8.677444	0.224016	4.59735	-0.047876	-0.132875	-0.068734	-0.394287	0.039795	-0.770264
496.0	8.567129	0.088647	4.373818	-0.013384	-0.138651	-0.076186	-0.396729	0.044189	-0.76123
497.0	8.55419	-0.023456	4.206327	0.040768	-0.149445	-0.085365	-0.396729	0.041992	-0.756592
498.0	8.693164	-0.152086	4.184642	0.081256	-0.134505	-0.084916	-0.394531	0.041992	-0.763428
499.0	8.856495	-0.317572	4.124715	0.122747	-0.134638	-0.075947	-0.40332	0.039795	-0.763428
500.0	9.169228	-0.333573	4.057172	0.172632	-0.15942	-0.071945	-0.401367	0.044189	-0.765869
501.0	9.486982	-0.243632	4.024604	0.187682	-0.155467	-0.050321	-0.40332	0.039795	-0.758789
502.0	9.640084	-0.139467	3.920848	0.187914	-0.111886	-0.034588	-0.394287	0.039795	-0.763428
503.0	9.663462	-0.008674	4.066685	0.194723	-0.061292	-0.012341	-0.40332	0.039795	-0.758789
504.0	9.556517	0.185599	4.224331	0.18618	-0.023035	0.010441	-0.401123	0.037598	-0.760986
505.0	9.490933	0.259976	4.312668	0.179725	-0.020168	0.017916	-0.40332	0.037598	-0.756348
506.0	9.293786	0.441025	4.300092	0.184886	-0.065014	0.021953	-0.40332	0.0354	-0.760986
507.0	9.301231	0.55429	4.155987	0.176198	-0.067775	0.022586	-0.403076	0.030762	-0.760742
508.0	9.245941	0.570628	4.25888	0.146916	-0.007472	0.026265	-0.398438	0.031006	-0.758545
509.0	9.106928	0.549189	4.320891	0.130173	0.016441	0.016013	-0.403076	0.030762	-0.760742
510.0	9.011149	0.465613	4.396086	0.122889	-0.014358	0.009128	-0.400879	0.031006	-0.765381
511.0	9.000832	0.412778	4.382755	0.118964	-0.035049	-0.000203	-0.402832	0.028564	-0.753662
512.0	9.014534	0.443291	4.45579	0.119809	-0.019379	-0.005361	-0.400635	0.028564	-0.758301
513.0	9.000099	0.431317	4.509631	0.110078	-0.000953	0.000246	-0.402832	0.02417	-0.762939
514.0	8.962341	0.393062	4.561592	0.10944	0.012773	0.001351	-0.400391	0.021973	-0.755859
515.0	8.879578	0.359715	4.518169	0.091886	0.022222	0.002998	-0.407471	0.030762	-0.763184
516.0	8.813754	0.367433	4.568647	0.074813	0.028566	0.002397	-0.405029	0.026367	-0.753662
517.0	8.731754	0.299623	4.59166	0.046416	0.020182	0.005718	-0.405029	0.02417	-0.758057
518.0	8.660922	0.321168	4.557747	0.044384	-0.006121	0.0065	-0.407471	0.028564	-0.756104
519.0	8.71205	0.357539	4.473559	0.03514	-0.015787	0.015685	-0.400635	0.02417	-0.760498
520.0	8.846552	0.487575	4.51648	0.02663	-0.00794	0.031685	-0.400391	0.021973	-0.758057
521.0	9.035779	0.577987	4.477531	0.02936	0.009001	0.055538	-0.400635	0.028564	-0.762939
522.0	9.145513	0.619509	4.436902	0.016132	0.022328	0.09449	-0.398438	0.026367	-0.758301
523.0	9.229121	0.639005	4.353461	0.019209	0.049906	0.133847	-0.402832	0.028564	-0.751465
524.0	9.261406	0.709588	4.373185	0.036431	0.091029	0.17377	-0.405029	0.021973	-0.760498
525.0	9.308982	0.818708	4.491256	0.018439	0.164257	0.209052	-0.400635	0.026367	-0.758301
526.0	9.218538	0.827509	4.677959	0.009278	0.220273	0.236441	-0.398193	0.02417	-0.760498
527.0	9.130333	0.883472	4.819399	0.006722	0.242745	0.250262	-0.398438	0.026367	-0.755859
528.0	9.031911	1.060384	4.984946	-0.002269	0.240696	0.260004	-0.394043	0.028809	-0.762939
529.0	8.877473	1.094651	5.024991	-0.038166	0.216135	0.255497	-0.398682	0.033203	-0.763184
530.0	8.776994	1.138494	4.829492	-0.039165	0.14366	0.249901	-0.391846	0.033203	-0.763184
531.0	8.842971	1.26378	4.676987	-0.03772	0.064976	0.241693	-0.391846	0.033203	-0.763184
532.0	8.984201	1.334395	4.446576	-0.077539	-0.011421	0.228817	-0.398682	0.0354	-0.760986
533.0	9.100655	1.395655	4.124819	-0.092209	-0.051051	0.206835	-0.396484	0.037598	-0.760986
534.0	9.159745	1.497614	4.058303	-0.122903	-0.01096	0.178595	-0.396484	0.0354	-0.763184
535.0	9.333211	1.401629	3.980368	-0.158693	0.031594	0.137681	-0.394531	0.044189	-0.759033
536.0	9.613994	1.320609	4.102663	-0.166083	0.032823	0.079005	-0.39209	0.039795	-0.758789
537.0	9.934011	1.222202	4.130929	-0.174825	0.006631	-0.000748	-0.394531	0.041992	-0.76123
538.0	9.907245	1.080322	3.961152	-0.182281	-0.041967	-0.079483	-0.390137	0.044189	-0.763672
539.0	9.797587	1.017403	3.675298	-0.184183	-0.089185	-0.149053	-0.394531	0.041992	-0.76123
540.0	9.586658	1.102474	3.694318	-0.13392	-0.08994	-0.200093	-0.394531	0.044189	-0.76123
541.0	9.498326	1.097631	3.733573	-0.13695	-0.037993	-0.219889	-0.398926	0.039795	-0.760986
542.0	9.464431	0.89375	3.67472	-0.106372	-0.00861	-0.226772	-0.396729	0.044189	-0.759033
543.0	9.534206	0.760148	3.624556	-0.074981	-0.02179	-0.21632	-0.396729	0.039795	-0.756348
544.0	9.644783	0.604936	3.479954	-0.054409	-0.025858	-0.197922	-0.396484	0.0354	-0.758545
545.0	9.637379	0.514958	3.443933	-0.0528	0.018315	-0.1676	-0.396729	0.039795	-0.760986
546.0	9.505914	0.406937	3.462345	-0.089812	0.128466	-0.136684	-0.396484	0.0354	-0.760986
547.0	9.342001	0.28473	3.575915	-0.083886	0.223431	-0.11567	-0.394287	0.039795	-0.756348
548.0	9.1972	0.250772	3.740984	-0.069726	0.253059	-0.103502	-0.389893	0.037598	-0.765625
549.0	9.066341	0.332017	3.829108	-0.043297	0.248618	-0.091732	-0.389893	0.041992	-0.76123
550.0	8.960317	0.463001	3.897524	-0.027338	0.260759	-0.075273	-0.385498	0.044189	-0.763672
551.0	8.91448	0.496505	4.074035	-0.02636	0.29007	-0.062123	-0.387451	0.0354	-0.758545
552.0	8.830258	0.553184	4.170731	-0.00419	0.269332	-0.054494	-0.389893	0.039795	-0.756348
553.0	8.861832	0.682005	4.2014	0.022859	0.197979	-0.038937	-0.383301	0.044189	-0.765869
554.0	8.920306	0.724131	4.063153	0.015076	0.137621	-0.025933	-0.376465	0.039795	-0.765625
555.0	9.019525	0.775627	3.935588	0.058365	0.098574	-0.010278	-0.380859	0.039795	-0.763428
556.0	9.113418	0.832503	3.937036	0.048944	0.088864	-0.001323	-0.378662	0.039795	-0.770264
557.0	9.245357	0.719685	3.915019	0.04479	0.066831	0.002465	-0.387451	0.033203	-0.760742
558.0	9.296657	0.66914	3.819922	0.054258	0.032174	-0.010898	-0.376465	0.039795	-0.768066
559.0	9.213718	0.823392	3.771037	0.052776	0.04716	-0.012087	-0.375977	0.033203	-0.765381
560.0	9.116629	0.797021	3.758886	0.023315	0.070862	-0.0216	-0.376221	0.037598	-0.763428
561.0	9.045258	0.822198	3.726983	0.038746	0.035785	-0.041574	-0.378418	0.037598	-0.765625
562.0	8.971115	0.969187	3.817935	0.033719	0.006912	-0.045934	-0.376221	0.037598	-0.765625
563.0	8.828762	1.042493	3.61907	0.021478	-0.037131	-0.055368	-0.376221	0.037598	-0.772705
564.0	8.723075	1.238245	3.599512	0.016843	-0.065966	-0.063381	-0.373779	0.031006	-0.763184
565.0	8.602489	1.359315	3.548691	-0.01876	-0.095141	-0.057585	-0.376465	0.039795	-0.75415
566.0	8.60436	1.4139	3.390387	-0.033843	-0.154344	-0.05869	-0.374023	0.037598	-0.758789
567.0	8.648611	1.682129	3.256036	-0.040311	-0.199571	-0.055865	-0.378418	0.0354	-0.74707
568.0	8.836877	1.688355	3.089384	-0.126287	-0.204554	-0.048654	-0.383057	0.037598	-0.756348
569.0	9.061489	1.580389	2.985312	-0.153699	-0.175882	-0.052605	-0.380859	0.039795	-0.756348
570.0	9.256614	1.630916	3.048149	-0.199431	-0.139616	-0.05599	-0.383057	0.037598	-0.756348
571.0	9.391839	1.670038	3.07313	-0.221325	-0.071349	-0.06385	-0.380615	0.031006	-0.746826
572.0	9.477368	1.542958	3.099914	-0.270403	-0.013252	-0.071403	-0.376465	0.039795	-0.756348
573.0	9.380297	1.466046	2.9617	-0.275413	0.006843	-0.085911	-0.383301	0.044189	-0.749756
574.0	9.554325	1.668774	3.178507	-0.239474	0.063324	-0.108924	-0.376709	0.046387	-0.759033
575.0	9.695733	1.693477	3.639301	-0.26499	0.153738	-0.137183	-0.378662	0.044189	-0.756592
576.0	9.767199	1.204759	3.94809	-0.296976	0.141552	-0.172908	-0.376221	0.037598	-0.744873
577.0	9.679125	0.956345	4.103701	-0.248643	-0.048531	-0.193169	-0.381104	0.046387	-0.756592
578.0	9.564813	0.954355	3.96453	-0.220481	-0.237502	-0.204919	-0.381104	0.044189	-0.749756
579.0	9.861493	1.064009	4.054343	-0.167204	-0.225741	-0.201351	-0.381104	0.048584	-0.747559
580.0	10.217386	0.955618	4.66099	-0.166656	-0.085967	-0.211119	-0.378662	0.044189	-0.745117
581.0	10.444425	0.858067	5.193763	-0.138802	-0.119278	-0.214523	-0.383301	0.041992	-0.744873
582.0	10.662096	0.742057	5.171261	-0.120095	-0.347768	-0.203534	-0.378906	0.048584	-0.749756
583.0	10.774776	0.744971	4.653425	-0.098004	-0.506145	-0.187033	-0.383301	0.044189	-0.738037
584.0	10.962887	1.009741	4.473719	-0.042305	-0.504613	-0.18434	-0.383301	0.041992	-0.735596
585.0	11.197201	1.089876	4.715157	-0.029114	-0.388274	-0.186555	-0.385254	0.039795	-0.733154
586.0	11.234855	1.08384	5.092543	-0.057413	-0.265124	-0.20238	-0.383301	0.046387	-0.73584
587.0	11.23879	0.772127	5.292124	-0.134315	-0.224021	-0.218003	-0.39209	0.039795	-0.726318
588.0	11.066994	0.512568	5.257862	-0.133669	-0.243166	-0.22407	-0.387939	0.046387	-0.731201
589.0	10.787568	0.419775	5.305568	-0.093742	-0.162754	-0.220483	-0.394531	0.041748	-0.726318
590.0	10.260771	-0.078379	5.450106	-0.10931	0.026466	-0.192704	-0.385498	0.044189	-0.730957
591.0	9.579979	-1.005797	5.621613	-0.112157	0.19311	-0.165258	-0.389893	0.041992	-0.730957
592.0	8.64334	-1.615575	5.811573	-0.005949	0.231487	-0.157145	-0.380859	0.041992	-0.72876
593.0	7.772933	-1.916412	5.878163	0.05917	0.146949	-0.156474	-0.383057	0.041992	-0.72876
594.0	6.791801	-1.855313	5.714724	0.131278	0.065358	-0.158282	-0.378662	0.041992	-0.72876
595.0	6.364211	-1.559766	5.277921	0.272169	-0.16562	-0.155227	-0.387451	0.037598	-0.730713
596.0	6.483801	-1.110753	5.067635	0.415511	-0.360805	-0.146441	-0.382813	0.033203	-0.721436
597.0	6.649442	-0.360167	4.86833	0.477331	-0.426564	-0.140073	-0.387451	0.035156	-0.719238
598.0	7.012626	0.271512	4.683464	0.554072	-0.492059	-0.108729	-0.384766	0.026367	-0.723389
599.0	8.17616	0.572482	4.619926	0.630978	-0.609692	-0.056076	-0.398438	0.026367	-0.721191
600.0	9.393383	0.902437	4.491765	0.651203	-0.621543	0.012198	-0.398193	0.021973	-0.718506
601.0	10.154709	0.886817	4.069657	0.536513	-0.501423	0.077589	-0.395752	0.017578	-0.718506
602.0	10.557486	0.768583	4.146034	0.448203	-0.244547	0.162885	-0.398193	0.021973	-0.707031
603.0	10.420609	0.451761	4.396793	0.345754	-0.100359	0.220499	-0.402344	0.013184	-0.711426
604.0	9.987714	0.196362	4.157937	0.3375	-0.04552	0.264721	-0.397949	0.015381	-0.713623
605.0	9.462793	0.172018	4.31713	0.311554	0.06495	0.280538	-0.395508	0.015381	-0.704346
606.0	8.91257	0.366251	4.730601	0.238333	0.130245	0.280611	-0.397949	0.015381	-0.711426
607.0	8.726206	0.352741	4.442042	0.218657	0.083189	0.277357	-0.395508	0.015381	-0.708984
608.0	9.353777	0.404063	3.957109	0.29902	0.047513	0.254108	-0.391113	0.013184	-0.704346
609.0	9.930559	0.785152	3.759179	0.284251	0.157476	0.219082	-0.391113	0.017578	-0.711426
610.0	9.846547	1.036644	3.824729	0.156474	0.358182	0.188608	-0.384277	0.010986	-0.713623
611.0	9.269408	1.068989	4.087374	0.060275	0.467901	0.167719	-0.388916	0.017578	-0.709229
612.0	8.740958	1.016614	4.313771	0.043884	0.42421	0.163383	-0.379639	0.008789	-0.718262
613.0	8.41986	0.891337	4.439585	0.034366	0.315209	0.16022	-0.384521	0.017578	-0.723145
614.0	8.39368	0.77109	4.32753	0.032207	0.194592	0.151739	-0.380127	0.019775	-0.716309
615.0	8.497934	0.676049	4.041745	0.072699	0.103082	0.1515	-0.377686	0.017578	-0.723145
616.0	8.663161	0.479232	3.801789	0.042477	0.120713	0.153858	-0.375488	0.019775	-0.723145
617.0	8.793133	0.35352	3.784758	0.012297	0.21897	0.163089	-0.380127	0.021973	-0.714111
618.0	8.712407	0.211239	3.850629	-0.042116	0.362021	0.175539	-0.368652	0.017822	-0.720703
619.0	8.480081	0.122612	3.946413	-0.051756	0.432988	0.182944	-0.373047	0.015625	-0.727783
620.0	8.297383	0.126649	4.041171	-0.070312	0.41059	0.19039	-0.364258	0.02002	-0.718506
621.0	8.388936	-0.072737	4.045883	-0.051527	0.321304	0.192978	-0.364502	0.024414	-0.71875
622.0	8.485156	-0.124502	3.969197	-0.0016	0.221669	0.178826	-0.366455	0.02002	-0.723145
623.0	8.622659	-0.099073	3.767649	0.034907	0.14653	0.159473	-0.362061	0.022217	-0.730225
624.0	8.701192	-0.075051	3.479414	0.095733	0.130181	0.133698	-0.364258	0.022217	-0.725586
625.0	8.672365	-0.011843	3.291782	0.117684	0.18196	0.097149	-0.357666	0.022217	-0.720947
626.0	8.533491	-0.025602	3.043494	0.14665	0.251427	0.062392	-0.353027	0.02002	-0.720947
627.0	8.376572	0.071928	2.977394	0.17193	0.300732	0.020011	-0.355225	0.022217	-0.725586
628.0	8.299726	0.237612	3.107575	0.180036	0.344627	-0.004711	-0.348633	0.022217	-0.725586
629.0	8.227348	0.324852	3.281795	0.127649	0.348594	-0.033508	-0.352539	0.01123	-0.7229
630.0	8.039126	0.330017	3.284969	0.101719	0.255141	-0.059442	-0.348389	0.015625	-0.734619
631.0	7.965252	0.261124	3.288218	0.083346	0.093738	-0.079433	-0.348389	0.017822	-0.734863
632.0	8.061638	0.054549	3.233815	0.071498	-0.066768	-0.086254	-0.345947	0.01123	-0.727539
633.0	8.347067	-0.138894	3.248531	0.065914	-0.182055	-0.092825	-0.352539	0.01123	-0.72998
634.0	8.751948	-0.3376	3.406188	0.059453	-0.245987	-0.089702	-0.348145	0.013428	-0.718262
635.0	9.219008	-0.429057	3.401844	0.076548	-0.265501	-0.097296	-0.350342	0.009033	-0.718262
636.0	9.589246	-0.181078	3.398951	0.146173	-0.260768	-0.099781	-0.348145	0.013428	-0.7229
637.0	9.978838	-0.020212	3.408416	0.144946	-0.226169	-0.078704	-0.352295	0.004639	-0.720215
638.0	10.181893	-0.027832	3.461098	0.137255	-0.159022	-0.034626	-0.3479	0.006836	-0.718018
639.0	10.172777	-0.163336	3.383315	0.099373	-0.087362	-0.001309	-0.354492	0.004639	-0.715576
640.0	9.959579	-0.296848	3.393167	0.113189	-0.098401	0.029393	-0.347656	0.002441	-0.715576
641.0	9.936651	-0.51903	3.115244	0.113565	-0.20873	0.051719	-0.354492	0.004639	-0.710938
642.0	10.388606	-0.917346	2.552337	0.200081	-0.381838	0.071425	-0.352295	0.002441	-0.713379
643.0	11.227263	-1.50906	2.34978	0.29467	-0.441024	0.081154	-0.356689	0.0	-0.713135
644.0	12.047404	-1.508153	2.329165	0.446474	-0.292775	0.090406	-0.361084	-0.004395	-0.708496
645.0	12.532999	-0.249438	3.050755	0.60679	-0.112235	0.144118	-0.356689	0.002197	-0.706299
646.0	12.523876	0.885351	3.842836	0.515104	0.102506	0.207674	-0.356445	-0.004395	-0.713135
647.0	11.936212	1.353278	3.992895	0.374397	0.192031	0.261567	-0.354248	-0.006592	-0.708252
648.0	11.528723	1.602335	4.24785	0.291992	0.227497	0.298586	-0.354004	-0.008789	-0.698975
649.0	11.209378	1.782232	4.882897	0.098103	0.380909	0.322869	-0.349609	-0.006592	-0.708252
650.0	10.485803	2.392144	5.654219	-0.089828	0.423604	0.325216	-0.345459	0.000244	-0.710938
651.0	10.054314	3.335665	6.733657	-0.260234	0.24833	0.329195	-0.345459	0.000244	-0.715576
652.0	9.934321	3.328614	7.105444	-0.536362	0.087772	0.354738	-0.343262	0.000244	-0.713135
653.0	9.733852	2.524564	6.650924	-0.705192	0.011385	0.384231	-0.3479	0.006836	-0.706543
654.0	8.975811	1.596109	5.546602	-0.761932	-0.110018	0.354788	-0.341797	0.02002	-0.71167
655.0	7.952188	0.938735	4.642747	-0.659444	-0.288573	0.284647	-0.346191	0.022217	-0.714111
656.0	7.798527	-0.036624	4.966099	-0.643085	-0.302388	0.24549	-0.346436	0.024414	-0.71875
657.0	7.625454	-0.686434	5.106126	-0.478877	-0.302111	0.221108	-0.34668	0.033203	-0.714355
658.0	7.493948	-0.223567	5.517945	-0.058542	-0.40311	0.206253	-0.348633	0.026611	-0.709473
659.0	8.537357	0.152103	5.890236	0.024523	-0.445413	0.255802	-0.348877	0.031006	-0.709717
660.0	9.677808	0.003318	5.392252	0.051373	-0.459626	0.306483	-0.353516	0.0354	-0.702881
661.0	10.314276	0.658326	4.86146	0.078337	-0.212955	0.35452	-0.355957	0.037598	-0.705322
662.0	10.44106	1.373009	4.573295	-0.082138	0.284428	0.387203	-0.351318	0.0354	-0.705322
663.0	10.066199	1.542714	4.684516	-0.324633	0.87754	0.362439	-0.344482	0.033203	-0.712158
664.0	9.563406	1.352672	5.572627	-0.476567	1.269198	0.284093	-0.338135	0.044189	-0.712402
665.0	9.01003	0.783089	6.314952	-0.615443	1.337962	0.169566	-0.331543	0.048828	-0.712646
666.0	8.669621	-0.241771	6.530179	-0.598081	1.038467	0.047571	-0.32251	0.048828	-0.724365
667.0	8.426389	-0.867351	6.455312	-0.403624	0.591235	-0.065096	-0.325195	0.057617	-0.727051
668.0	8.527097	-1.096153	6.208651	-0.202372	0.184375	-0.134644	-0.320557	0.05542	-0.719971
669.0	8.317399	-0.686319	5.667716	0.004797	-0.009261	-0.173232	-0.324951	0.048828	-0.731201
670.0	8.043369	0.057827	5.314922	0.144968	-0.04976	-0.164881	-0.320557	0.053223	-0.722168
671.0	7.778351	0.814768	4.848056	0.280189	0.028027	-0.13699	-0.320313	0.048828	-0.724365
672.0	7.616211	1.64213	5.001185	0.320205	0.169439	-0.082637	-0.320313	0.048828	-0.731201
673.0	7.663907	1.579957	5.140207	0.239611	0.269275	-0.041295	-0.320313	0.051025	-0.736084
674.0	7.493959	1.233109	5.162298	0.171026	0.286599	-0.006624	-0.315674	0.046631	-0.731201
675.0	7.804492	0.650864	5.12911	0.180545	0.082686	-0.006781	-0.32251	0.046631	-0.731201
676.0	8.068769	0.255125	4.8906	0.158644	-0.077648	-0.039151	-0.311035	0.044434	-0.733398
677.0	8.080022	0.173445	4.419051	0.098436	-0.144343	-0.080257	-0.317871	0.046631	-0.724121
678.0	8.005335	0.157684	4.045513	0.091491	-0.116344	-0.121745	-0.31543	0.040039	-0.730957
679.0	7.726882	0.356109	3.978624	0.094286	0.00744	-0.155413	-0.315674	0.046631	-0.733643
680.0	7.426025	0.507962	4.142972	0.063905	0.160504	-0.168238	-0.320068	0.040039	-0.726318
681.0	7.134183	0.635353	4.368314	0.051911	0.254268	-0.178307	-0.315674	0.044434	-0.724121
682.0	7.028921	0.895541	4.588708	0.067659	0.224411	-0.175959	-0.317627	0.037842	-0.723877
683.0	7.337649	1.112523	4.735016	0.056086	0.109283	-0.154505	-0.311035	0.042236	-0.724121
684.0	7.752409	1.212144	4.579973	-0.002503	0.006142	-0.14166	-0.311035	0.042236	-0.726318
685.0	8.110401	1.217703	4.31626	-0.033168	-0.068564	-0.123916	-0.313232	0.042236	-0.72168
686.0	8.484697	1.229475	3.933518	-0.028666	-0.123503	-0.107744	-0.311035	0.040039	-0.726318
687.0	8.941186	1.008542	3.750987	-0.087809	-0.055323	-0.105549	-0.311035	0.044434	-0.724121
688.0	9.095394	0.60674	3.346141	-0.155598	0.077751	-0.11871	-0.309082	0.046631	-0.721924
689.0	8.973741	0.240794	2.98792	-0.137412	0.15871	-0.12906	-0.313477	0.044434	-0.726563
690.0	8.503785	0.186544	2.840894	-0.124218	0.259055	-0.135421	-0.300049	0.048828	-0.721924
691.0	8.103124	0.201485	3.124784	-0.108772	0.260578	-0.130477	-0.311523	0.053223	-0.726807
692.0	7.86223	0.36607	3.457275	-0.085031	0.093802	-0.116428	-0.302246	0.048828	-0.726563
693.0	7.81761	0.615401	3.644215	-0.07948	-0.190972	-0.100201	-0.313477	0.048828	-0.724365
694.0	8.357115	1.03394	3.609839	-0.072312	-0.439962	-0.056702	-0.304932	0.05542	-0.724609
695.0	8.75277	1.435098	3.474102	-0.13127	-0.463944	-0.001218	-0.311768	0.057617	-0.724609
696.0	8.961059	1.619286	3.347842	-0.21807	-0.315693	0.069302	-0.30957	0.059814	-0.719971
697.0	8.837607	1.540798	3.695042	-0.267727	-0.142537	0.123076	-0.311768	0.059814	-0.715332
698.0	8.717531	1.302001	4.091302	-0.245533	-0.134746	0.149939	-0.30957	0.064209	-0.720215
699.0	8.710918	1.018887	4.426746	-0.124679	-0.248098	0.130427	-0.311768	0.057617	-0.715332
700.0	8.831691	0.877311	4.560509	0.0058	-0.330078	0.105082	-0.312012	0.066406	-0.715576
701.0	8.861387	0.970031	4.162136	-0.010727	-0.34947	0.075348	-0.316406	0.064209	-0.715576
702.0	9.40797	0.867162	3.463322	-0.102836	-0.340934	0.035673	-0.312012	0.068604	-0.711182
703.0	10.336501	1.125391	3.147046	-0.080156	-0.166392	-0.04218	-0.314209	0.066406	-0.715576
704.0	11.244068	1.912636	3.766409	-0.170672	0.111368	-0.142713	-0.314209	0.062012	-0.713135
705.0	11.565325	2.154494	4.231169	-0.403488	0.209871	-0.241861	-0.307617	0.066406	-0.713379
706.0	11.687665	1.508926	4.307734	-0.578366	-0.055618	-0.311183	-0.309814	0.068604	-0.71582
707.0	11.726051	0.961578	3.711824	-0.494636	-0.48127	-0.363712	-0.317139	0.07959	-0.713867
708.0	11.632294	0.90736	2.988165	-0.259609	-0.587728	-0.371868	-0.317139	0.07959	-0.709229
709.0	11.216503	0.786209	3.100992	-0.033427	-0.195859	-0.374326	-0.319336	0.07959	-0.711426
710.0	10.822551	-0.274586	4.663686	0.102561	0.1875	-0.4048	-0.314697	0.07959	-0.706787
711.0	10.55871	-1.449066	6.553557	0.240056	0.021405	-0.456798	-0.319092	0.077393	-0.70459
712.0	10.511572	-1.947734	7.385213	0.603514	-0.390763	-0.508356	-0.321289	0.070801	-0.706543
713.0	10.457538	-1.109224	7.678282	0.848348	-0.613564	-0.523117	-0.325439	0.066406	-0.706299
714.0	9.574079	-0.340452	6.52257	0.637524	-0.813524	-0.477973	-0.325439	0.062012	-0.703857
715.0	9.064821	0.197734	5.504091	0.65433	-0.964071	-0.407115	-0.338867	0.062012	-0.699219
716.0	9.211755	1.079489	5.715132	0.476639	-0.740071	-0.369793	-0.332031	0.057617	-0.703613
717.0	9.134089	1.292323	6.01684	0.028764	-0.394147	-0.358733	-0.33667	0.062012	-0.692383
718.0	8.95735	0.820321	6.259466	-0.136924	-0.202481	-0.411523	-0.338867	0.062012	-0.699219
719.0	8.949876	0.862238	6.517961	-0.061671	-0.221722	-0.498986	-0.343262	0.061768	-0.69458
720.0	9.162821	0.512799	6.475769	-0.127138	-0.262451	-0.556002	-0.338623	0.057373	-0.692139
721.0	9.23435	-0.124902	6.06194	-0.103361	-0.185076	-0.546656	-0.338867	0.062012	-0.69458
722.0	9.938777	-0.434388	5.784321	0.117657	-0.293214	-0.457599	-0.336426	0.05542	-0.696777
723.0	10.748795	-0.155284	5.765542	0.322207	-0.365636	-0.293095	-0.343262	0.057373	-0.696777
724.0	11.093334	-0.247655	5.278102	0.266396	-0.335643	-0.113458	-0.349854	0.055176	-0.698975
725.0	10.90788	-0.206915	4.045664	0.37121	-0.298822	0.034886	-0.350098	0.063965	-0.689941
726.0	10.141772	0.498755	3.361055	0.542054	-0.070304	0.141138	-0.343018	0.052979	-0.691895
727.0	9.160895	0.97978	3.58595	0.407844	0.403982	0.220593	-0.342773	0.048584	-0.696533
728.0	7.762473	0.731437	4.480976	0.222804	0.727237	0.276991	-0.336426	0.057617	-0.694336
729.0	6.699761	0.331711	5.679311	0.171979	0.576349	0.299293	-0.34082	0.057373	-0.694336
730.0	6.601676	-0.058802	6.221111	0.137356	0.08747	0.299457	-0.33667	0.062012	-0.699219
731.0	7.057578	-0.464076	5.918158	0.049976	-0.323906	0.299044	-0.341309	0.064209	-0.70166
732.0	7.575836	-0.595317	5.215294	0.021178	-0.536166	0.30769	-0.338867	0.064209	-0.69458
733.0	7.674314	-0.28224	4.661435	-0.034455	-0.534761	0.309063	-0.343506	0.063965	-0.692383
734.0	7.771921	-0.135506	4.456188	-0.076506	-0.458846	0.329499	-0.34375	0.072998	-0.692627
735.0	7.98624	-0.111565	4.232118	-0.016608	-0.49618	0.337735	-0.34375	0.068359	-0.685547
736.0	8.269879	0.203378	3.896564	0.107217	-0.579895	0.33204	-0.350586	0.072754	-0.685791
737.0	8.604904	0.594849	3.459135	0.17104	-0.568675	0.33007	-0.357422	0.072754	-0.687988
738.0	8.806411	0.723964	2.720709	0.172129	-0.510199	0.302807	-0.352783	0.072754	-0.68335
739.0	8.728485	0.681177	2.376334	0.182341	-0.28188	0.268689	-0.355225	0.077148	-0.695068
740.0	8.549344	0.652234	2.661074	0.181431	0.026944	0.225218	-0.348389	0.074951	-0.683594
741.0	8.211798	0.606067	3.375503	0.124926	0.274105	0.186143	-0.348633	0.07959	-0.686035
742.0	7.99674	0.387208	3.913029	0.080785	0.357642	0.146534	-0.351074	0.083984	-0.681396
743.0	8.004716	0.287696	4.065467	0.072058	0.294984	0.100976	-0.346436	0.081787	-0.688477
744.0	8.243438	0.26339	3.762324	0.054638	0.180945	0.059478	-0.346436	0.083984	-0.683838
745.0	8.902947	0.188873	3.105371	0.075773	0.116807	0.0255	-0.348633	0.081787	-0.690674
746.0	9.549124	0.241506	2.5428	0.113138	0.166064	-0.007384	-0.351074	0.086182	-0.688477
747.0	9.929615	0.250851	2.061488	0.100439	0.344873	-0.038284	-0.341797	0.07959	-0.681396
748.0	9.982167	0.289728	1.760412	0.079412	0.58148	-0.069846	-0.337402	0.081787	-0.693115
749.0	9.749316	0.229946	1.612832	0.072173	0.797189	-0.111691	-0.335205	0.083984	-0.699951
750.0	9.336564	0.126892	1.807775	0.117738	0.992797	-0.153481	-0.328125	0.077393	-0.695068
751.0	8.939855	-0.086492	2.378193	0.136155	1.137748	-0.197349	-0.321533	0.07959	-0.69751
752.0	8.405709	-0.252788	3.19212	0.105104	1.143173	-0.242127	-0.314941	0.086182	-0.704834
753.0	7.619613	-0.63972	3.927736	0.067576	0.944566	-0.28834	-0.312256	0.075195	-0.711426
754.0	6.850968	-1.051396	4.252718	0.117102	0.56478	-0.311376	-0.308105	0.084229	-0.71167
755.0	7.043856	-1.261853	4.258493	0.245857	0.061806	-0.314884	-0.307861	0.075195	-0.708984
756.0	7.432199	-0.997565	3.906739	0.358656	-0.306074	-0.267211	-0.307861	0.077393	-0.709229
757.0	8.244731	-0.774609	3.573682	0.445777	-0.420304	-0.172284	-0.314453	0.072998	-0.708984
758.0	9.321965	-0.629949	3.601639	0.496798	-0.379247	-0.048158	-0.316895	0.072998	-0.706543
759.0	10.016322	-0.193809	3.921011	0.483999	-0.255359	0.058383	-0.314453	0.068604	-0.711182
760.0	10.046703	0.300063	3.427733	0.446997	-0.234787	0.123453	-0.318848	0.068604	-0.701904
761.0	10.185208	0.76596	2.428519	0.566829	-0.386449	0.15055	-0.321045	0.066406	-0.704102
762.0	11.041938	0.879069	1.995821	0.63477	-0.506727	0.16695	-0.322998	0.062012	-0.70166
763.0	12.119686	0.09425	2.016076	0.444723	-0.314202	0.195582	-0.323242	0.064209	-0.704102
764.0	12.097165	0.256269	2.094322	0.492833	-0.131371	0.246714	-0.318604	0.062012	-0.703857
765.0	12.026653	1.084198	2.558101	0.542964	-0.210416	0.323502	-0.323242	0.064209	-0.70166
766.0	12.060332	1.302305	2.800148	0.430348	-0.273344	0.41379	-0.321045	0.064209	-0.704102
767.0	12.046255	1.432649	3.394163	0.304761	0.016121	0.515139	-0.323242	0.068604	-0.699463
768.0	12.017083	2.764921	5.23424	0.217969	0.523315	0.647831	-0.313965	0.059814	-0.703857
769.0	12.203316	4.808442	7.962334	-0.045383	0.848419	0.801455	-0.314453	0.068604	-0.706543
770.0	11.386475	6.054184	10.126794	-0.613006	0.745238	0.926909	-0.303711	0.082031	-0.713867
771.0	9.518827	4.7728	10.225674	-1.33309	0.506737	0.947601	-0.301514	0.088623	-0.707275
772.0	7.336637	2.922458	8.309854	-1.490557	0.214186	0.84317	-0.300049	0.104004	-0.710205
773.0	5.909152	1.712863	5.877997	-1.208196	-0.270858	0.652962	-0.307129	0.112793	-0.708008
774.0	6.516386	0.320665	5.361203	-0.805809	-0.345004	0.543599	-0.305176	0.119385	-0.708252
775.0	8.114018	-1.210216	5.859886	-0.638327	-0.17645	0.487214	-0.312012	0.123779	-0.706299
776.0	9.152718	-1.908061	6.067631	-0.329857	-0.391841	0.479484	-0.307373	0.121582	-0.708496
777.0	10.709683	-1.800946	6.722315	0.007256	-0.610777	0.489395	-0.309814	0.123779	-0.699219
778.0	11.590175	-1.934135	6.408829	-0.056033	-0.605496	0.480157	-0.321045	0.125977	-0.699219
779.0	11.796286	-1.951374	5.073862	0.03724	-0.539509	0.378813	-0.310059	0.128174	-0.706299
780.0	11.777594	-0.577645	5.018781	0.192537	-0.263399	0.191911	-0.314453	0.128174	-0.699463
781.0	11.236614	0.806827	5.153245	-0.119126	0.319682	0.010665	-0.314453	0.128174	-0.704102
782.0	10.104992	0.712126	4.664429	-0.389661	0.877862	-0.134882	-0.308105	0.134766	-0.704346
783.0	9.065452	0.819964	4.787476	-0.243287	0.975247	-0.26777	-0.303467	0.132568	-0.70874
784.0	8.101128	1.301999	5.387992	-0.220221	0.840347	-0.343171	-0.298828	0.130371	-0.70874
785.0	7.076335	1.231597	5.173857	-0.294365	0.613552	-0.355403	-0.294434	0.13501	-0.711182
786.0	6.413616	1.330247	4.883493	-0.170199	0.323708	-0.325228	-0.294434	0.132813	-0.711182
787.0	6.372856	1.543928	4.850789	-0.127047	0.179693	-0.257494	-0.299072	0.13501	-0.713623
788.0	6.68814	1.41544	4.71174	-0.147564	0.175021	-0.196167	-0.29248	0.141602	-0.711426
789.0	6.887918	1.560492	4.695042	-0.011667	0.16217	-0.163527	-0.292236	0.137207	-0.708984
790.0	7.127167	1.603478	4.80132	-0.042926	0.145233	-0.123938	-0.290283	0.141602	-0.713867
791.0	7.609944	1.00479	4.788658	-0.080941	0.123665	-0.101658	-0.294434	0.132813	-0.71582
792.0	7.972642	0.335516	4.565631	-0.103276	0.051577	-0.120055	-0.294678	0.141602	-0.713867
793.0	8.245439	-0.068856	4.356208	-0.0596	-0.020052	-0.157606	-0.290039	0.137207	-0.7229
794.0	8.210131	-0.178379	4.064022	-0.09051	0.000749	-0.192622	-0.290039	0.137207	-0.718262
795.0	7.940405	-0.163734	3.835546	-0.102369	0.086721	-0.215405	-0.294434	0.13501	-0.725098
796.0	7.733013	-0.09512	3.820936	-0.081573	0.181193	-0.214812	-0.290283	0.141602	-0.720703
797.0	7.594332	-0.065423	3.931209	-0.068285	0.24156	-0.187354	-0.2854	0.13501	-0.725098
798.0	7.893275	-0.069582	3.833593	-0.018517	0.199713	-0.151791	-0.287842	0.139404	-0.716064
799.0	8.07955	0.097329	3.811797	0.021956	0.179063	-0.117664	-0.283447	0.139404	-0.723145
800.0	8.172898	0.326996	3.792532	0.025522	0.246255	-0.090471	-0.285645	0.139404	-0.720703
801.0	8.420324	0.583817	3.877201	0.03465	0.259024	-0.072882	-0.287842	0.139404	-0.72998
802.0	8.924392	0.771502	4.058445	-0.003291	0.246386	-0.059092	-0.283447	0.141602	-0.732422
803.0	9.228911	0.505575	3.867915	-0.127036	0.240471	-0.05293	-0.28125	0.143799	-0.725586
804.0	9.161225	0.094634	3.331616	-0.143814	0.210425	-0.044126	-0.28125	0.139404	-0.72998
805.0	8.840264	0.198433	3.061858	-0.126868	0.219942	-0.048592	-0.276855	0.143799	-0.725586
806.0	8.431485	0.274534	3.190078	-0.199803	0.236838	-0.052074	-0.276855	0.143799	-0.732422
807.0	8.063666	0.269009	3.415144	-0.250139	0.189452	-0.063064	-0.279297	0.148193	-0.737305
808.0	8.104389	0.5818	3.867258	-0.149058	-0.007216	-0.047013	-0.274658	0.148193	-0.730469
809.0	8.023691	1.17278	4.073741	-0.15444	-0.155934	-0.001871	-0.279297	0.150391	-0.735107
810.0	7.556111	1.565985	3.772551	-0.242507	-0.241425	0.088746	-0.2771	0.148193	-0.728027
811.0	7.162277	1.654103	3.701179	-0.265392	-0.25011	0.165747	-0.281494	0.150391	-0.728027
812.0	6.905817	1.628569	3.939474	-0.287013	-0.202034	0.175923	-0.277344	0.154785	-0.728271
813.0	7.089862	1.364647	4.37783	-0.287175	-0.295137	0.127067	-0.281982	0.15918	-0.723877
814.0	7.897698	1.203901	4.429321	-0.165504	-0.501769	0.020993	-0.286133	0.152588	-0.72583
815.0	8.71237	1.27619	4.288257	-0.005574	-0.57559	-0.052472	-0.293213	0.15918	-0.726074
816.0	9.178382	0.987659	3.391876	-0.06549	-0.421434	-0.067165	-0.293213	0.156982	-0.723633
817.0	10.280889	0.42083	2.90921	-0.047844	-0.293242	-0.039848	-0.295654	0.161377	-0.723877
818.0	11.546453	0.766818	2.969067	-0.08879	-0.143425	-0.073955	-0.288574	0.156982	-0.718994
819.0	12.146452	2.09105	3.502661	-0.185344	0.008637	-0.146964	-0.297607	0.154785	-0.728271
820.0	12.286588	2.027234	3.705059	-0.59519	-0.007684	-0.228515	-0.291016	0.15918	-0.721436
821.0	11.715123	1.07708	2.913315	-0.74838	-0.37991	-0.305192	-0.293457	0.167969	-0.724121
822.0	11.204474	0.568677	1.666262	-0.565801	-0.799445	-0.367238	-0.295654	0.165771	-0.714844
823.0	10.68681	0.590144	1.362455	-0.214886	-0.562389	-0.404074	-0.304932	0.170166	-0.721924
824.0	9.916097	0.519511	2.550757	0.073405	0.070457	-0.451044	-0.307129	0.170166	-0.719482
825.0	9.610068	-0.472904	5.461079	0.159714	0.46816	-0.511957	-0.307129	0.170166	-0.721924
826.0	9.831682	-2.773092	7.985958	0.348191	0.310156	-0.569261	-0.30249	0.163574	-0.72168
827.0	10.768826	-3.866098	9.82125	1.053302	-0.095472	-0.687966	-0.306396	0.148193	-0.725586
828.0	10.856222	-3.81361	10.396148	1.136373	-0.427789	-0.745325	-0.308594	0.148193	-0.730225
829.0	9.191887	-3.917624	8.028224	1.018858	-0.837844	-0.706598	-0.317139	0.136963	-0.725342
830.0	8.27707	-2.694722	6.341759	1.288843	-0.908107	-0.701248	-0.318848	0.123779	-0.722412
831.0	8.581994	0.623774	6.11014	1.289188	-0.824522	-0.667115	-0.327637	0.119385	-0.719971
832.0	9.60227	2.405258	6.242417	0.738713	-0.457551	-0.606201	-0.325195	0.112793	-0.719727
833.0	9.633905	3.089183	6.402655	0.376047	-0.029585	-0.595716	-0.327148	0.108398	-0.717285
834.0	10.140103	4.032979	6.505323	0.351448	-0.164983	-0.567802	-0.327148	0.106201	-0.719482
835.0	10.933331	4.749519	6.452063	0.293219	-0.341592	-0.456077	-0.336182	0.108398	-0.721924
836.0	11.826722	3.854531	6.485575	0.03719	-0.197349	-0.254578	-0.329102	0.101807	-0.717041
837.0	12.028189	1.760855	6.034559	-0.004087	-0.023181	-0.077569	-0.331543	0.104004	-0.72168
838.0	11.498767	0.659646	5.629273	0.239491	0.000782	0.073779	-0.326904	0.099609	-0.721436
839.0	10.576124	-0.046414	4.643799	0.271114	0.076903	0.183336	-0.329102	0.101807	-0.719238
840.0	9.306099	-0.854308	3.984888	0.276964	0.218525	0.262243	-0.32251	0.101807	-0.728516
841.0	8.025975	-1.245449	4.174175	0.364529	0.267528	0.312943	-0.329346	0.101807	-0.726318
842.0	7.003647	-1.038283	5.003596	0.402869	0.189408	0.352243	-0.324707	0.104004	-0.726318
843.0	6.502121	-1.152311	5.582942	0.2617	0.044893	0.382522	-0.331299	0.099609	-0.726074
844.0	7.10463	-1.627168	5.202128	0.295533	-0.316702	0.394692	-0.326904	0.101807	-0.733154
845.0	7.642956	-1.068686	4.511419	0.375016	-0.592891	0.376587	-0.335938	0.101807	-0.730957
846.0	7.978155	-0.460124	4.031914	0.262699	-0.571796	0.363125	-0.342773	0.099365	-0.726074
847.0	8.224619	-0.150414	3.686357	0.185209	-0.451974	0.359837	-0.342773	0.101563	-0.733154
848.0	8.667613	0.235761	3.639009	0.302945	-0.471728	0.373033	-0.340332	0.099365	-0.716797
849.0	8.94065	0.792306	3.639591	0.353473	-0.458782	0.397647	-0.342773	0.099365	-0.721436
850.0	8.874588	0.858368	3.294595	0.289619	-0.302871	0.417391	-0.349609	0.101563	-0.719238
851.0	8.665861	0.808685	2.798883	0.304564	-0.155402	0.407469	-0.349365	0.099365	-0.726074
852.0	8.130013	0.891214	2.715123	0.270387	-0.034014	0.38089	-0.344727	0.094971	-0.726074
853.0	7.853147	0.911846	2.814908	0.254688	0.115496	0.342268	-0.344971	0.099365	-0.723877
854.0	7.398588	0.959818	3.165129	0.211196	0.26725	0.288821	-0.347168	0.101563	-0.728516
855.0	7.298514	0.853132	3.531323	0.14742	0.326101	0.222788	-0.344971	0.101563	-0.730957
856.0	7.644194	0.712282	3.60861	0.150079	0.252595	0.133886	-0.344971	0.099365	-0.730713
857.0	8.155843	0.771778	3.422882	0.141921	0.183462	0.039698	-0.340332	0.097168	-0.728516
858.0	8.88002	0.7102	3.028475	0.08382	0.179097	-0.043965	-0.342285	0.092773	-0.728271
859.0	9.459752	0.642526	2.51398	0.070744	0.247785	-0.11208	-0.342773	0.101563	-0.728516
860.0	9.692745	0.662676	2.090041	0.05775	0.419275	-0.17251	-0.340576	0.101563	-0.737793
861.0	9.55028	0.889035	1.902762	0.026881	0.641943	-0.225206	-0.335449	0.090576	-0.739746
862.0	9.107768	0.9919	1.839152	-0.019975	0.831345	-0.273883	-0.329102	0.099609	-0.740234
863.0	8.599349	0.967947	2.075866	-0.02875	0.937288	-0.315519	-0.322266	0.095215	-0.749268
864.0	8.377066	0.916195	2.436426	-0.029542	0.927668	-0.349736	-0.317627	0.093018	-0.753906
865.0	8.345817	0.526799	3.128867	-0.072307	0.850689	-0.379566	-0.310791	0.093018	-0.753906
866.0	8.189655	0.039733	3.655796	-0.122847	0.713985	-0.408203	-0.310791	0.09082	-0.756104
867.0	7.672159	-0.330785	3.942071	-0.114292	0.455334	-0.436063	-0.306396	0.093018	-0.763184
868.0	7.566301	-0.610324	4.126444	-0.062972	0.100633	-0.436849	-0.30835	0.086426	-0.755859
869.0	7.705972	-0.717319	4.129402	0.007299	-0.227668	-0.387234	-0.312744	0.082031	-0.753418
870.0	8.122782	-0.845207	3.981838	0.048167	-0.358639	-0.273019	-0.312988	0.088623	-0.753662
871.0	8.75474	-1.434208	3.958122	0.049902	-0.33106	-0.134076	-0.314941	0.084229	-0.758057
872.0	9.248486	-1.577495	3.898464	0.12942	-0.282921	-0.027182	-0.312744	0.084229	-0.755859
873.0	9.553339	-0.914373	3.736546	0.22079	-0.297447	0.053139	-0.321777	0.086426	-0.753662
874.0	10.36319	-0.555039	2.918305	0.313284	-0.416709	0.088405	-0.31958	0.084229	-0.751221
875.0	11.595434	-0.45064	2.569062	0.42673	-0.437125	0.104957	-0.317139	0.082031	-0.750977
876.0	12.450677	-0.060443	2.722772	0.45714	-0.322297	0.143039	-0.326172	0.079834	-0.748779
877.0	12.43792	0.104049	2.511386	0.482068	-0.338685	0.23096	-0.325928	0.075195	-0.748535
878.0	12.385455	0.704911	2.459949	0.644033	-0.518452	0.312035	-0.334961	0.072998	-0.750732
879.0	12.496378	1.881973	3.012777	0.532727	-0.382944	0.397435	-0.332764	0.077393	-0.746338
880.0	12.367825	2.592017	4.21651	0.180159	0.022672	0.531798	-0.332764	0.07959	-0.746338
881.0	12.260739	3.350904	5.570861	-0.063672	0.347695	0.687511	-0.330566	0.07959	-0.750977
882.0	12.432311	4.953428	7.242305	-0.120067	0.364483	0.815427	-0.32373	0.079834	-0.750977
883.0	11.372739	5.74813	8.551358	-0.713083	0.33364	0.842394	-0.322021	0.09082	-0.751465
884.0	9.016645	3.865058	7.9302	-1.467636	0.458114	0.76684	-0.322754	0.108398	-0.749756
885.0	6.503078	1.680336	6.189799	-1.426034	0.34073	0.59258	-0.322754	0.110596	-0.756836
886.0	5.664138	0.664671	5.081709	-0.89462	-0.207377	0.432519	-0.325439	0.119385	-0.752441
887.0	6.876259	-0.064282	5.538925	-0.508789	-0.368169	0.347347	-0.325439	0.121582	-0.759521
888.0	7.951382	-1.061695	5.647065	-0.569512	-0.258183	0.347167	-0.323486	0.125977	-0.748047
889.0	8.915516	-1.943295	5.190663	-0.290058	-0.441657	0.390117	-0.328125	0.128174	-0.748047
890.0	10.236633	-1.344536	5.724758	0.045667	-0.578424	0.467278	-0.330322	0.130371	-0.743652
891.0	11.278595	-1.183573	5.511166	-0.07242	-0.460349	0.533678	-0.334717	0.128174	-0.752686
892.0	11.489786	-1.227716	4.498952	-0.051663	-0.20202	0.494672	-0.332764	0.134766	-0.750732
893.0	11.319822	0.150009	4.805607	0.027606	0.2496	0.352158	-0.335449	0.141357	-0.757813
894.0	10.889437	1.191557	5.393884	-0.294745	0.820216	0.174402	-0.323975	0.136963	-0.753174
895.0	10.04119	0.817742	5.299679	-0.540327	1.112921	0.008135	-0.31958	0.143799	-0.753418
896.0	9.213713	0.881875	5.547092	-0.362037	0.973949	-0.149718	-0.31543	0.148193	-0.762939
897.0	8.413056	1.186074	5.732177	-0.346867	0.691895	-0.250467	-0.319824	0.145996	-0.762695
898.0	7.60052	1.137025	5.096509	-0.349285	0.425228	-0.276618	-0.310791	0.145996	-0.762695
899.0	7.190462	1.176861	4.681369	-0.214997	0.223667	-0.249355	-0.30835	0.143799	-0.764893
900.0	7.401864	1.457907	4.6225	-0.133907	0.12451	-0.200403	-0.310791	0.145996	-0.760498
901.0	7.708477	1.659208	4.42993	-0.097549	0.128972	-0.151935	-0.311035	0.150391	-0.762939
902.0	7.928953	1.722335	4.269161	-0.0599	0.217202	-0.101255	-0.312988	0.148193	-0.767578
903.0	8.228317	1.659585	4.579367	-0.073337	0.314399	-0.061165	-0.312988	0.145996	-0.762695
904.0	8.473135	1.042709	4.833411	-0.18726	0.335468	-0.054777	-0.308594	0.148193	-0.760498
905.0	8.753732	0.15754	4.77114	-0.18222	0.213855	-0.100371	-0.308594	0.148193	-0.769775
906.0	8.622173	-0.023453	4.47871	-0.115914	0.128916	-0.166185	-0.30835	0.143799	-0.764893
907.0	8.44042	0.022218	4.188857	-0.102812	0.131838	-0.207844	-0.302002	0.150391	-0.765137
908.0	8.111417	0.106018	3.986407	-0.084824	0.252078	-0.232255	-0.301758	0.145996	-0.762695
909.0	7.757798	0.219082	3.913084	-0.100988	0.41075	-0.234649	-0.302002	0.150391	-0.769775
910.0	7.63899	0.220551	4.062252	-0.083176	0.447359	-0.229185	-0.304199	0.148193	-0.769775
911.0	7.518827	0.531134	4.216693	-0.044374	0.448884	-0.206558	-0.299561	0.150391	-0.779297
912.0	7.565304	0.551018	4.435936	-0.096089	0.452219	-0.175022	-0.302002	0.150391	-0.774658
913.0	7.550831	0.448947	4.364702	-0.112773	0.368106	-0.153043	-0.297363	0.145996	-0.783691
914.0	7.609152	0.57406	4.247658	-0.077049	0.226205	-0.138053	-0.297363	0.148193	-0.781494
915.0	8.109789	0.608141	4.056558	-0.105456	0.120846	-0.13431	-0.295166	0.150391	-0.776855
916.0	8.63549	0.443653	3.77379	-0.165779	0.114582	-0.128268	-0.295166	0.148193	-0.781494
917.0	8.809089	0.316103	3.378339	-0.192504	0.194346	-0.129024	-0.295166	0.152588	-0.776855
918.0	8.787677	0.20977	3.267849	-0.192841	0.280998	-0.113047	-0.28833	0.148193	-0.774414
919.0	8.544499	0.177182	3.391323	-0.20338	0.318583	-0.105086	-0.290527	0.148193	-0.776855
920.0	8.137857	0.35283	3.591322	-0.170232	0.256073	-0.092666	-0.290527	0.148438	-0.786133
921.0	7.911369	0.725141	4.027256	-0.163305	0.087491	-0.068042	-0.288574	0.152832	-0.788574
922.0	7.828889	1.084295	4.005575	-0.21331	-0.079117	-0.011572	-0.286133	0.152832	-0.783936
923.0	7.929263	1.470739	3.791126	-0.212611	-0.242304	0.062009	-0.302002	0.154785	-0.779297
924.0	7.826088	1.819468	3.486556	-0.302327	-0.153521	0.118499	-0.297852	0.159424	-0.781738
925.0	7.702987	1.725861	3.346378	-0.377492	-0.005186	0.16264	-0.291016	0.157227	-0.7771
926.0	7.649492	1.575486	3.831943	-0.382797	0.000419	0.156232	-0.29126	0.166016	-0.777344
927.0	8.00131	1.245137	4.269997	-0.391065	-0.233274	0.101302	-0.293701	0.168213	-0.779785
928.0	9.092284	0.76218	4.399757	-0.251192	-0.475792	0.031657	-0.304688	0.161377	-0.777344
929.0	10.031691	0.398217	4.174021	-0.128226	-0.419948	-0.018274	-0.307129	0.165771	-0.772705
930.0	10.212346	0.006368	3.402944	-0.118599	-0.220874	-0.025066	-0.304932	0.167969	-0.777588
931.0	10.463024	-0.381396	3.034777	-0.076093	-0.062769	-0.001127	-0.304932	0.167969	-0.763672
932.0	11.129539	-0.048111	3.15191	-0.004443	0.00622	-0.036808	-0.304932	0.167969	-0.768311
933.0	11.825289	0.78992	3.959133	-0.065122	0.022457	-0.113242	-0.309326	0.165771	-0.775146
934.0	11.971546	0.610652	3.858492	-0.257369	-0.075416	-0.204382	-0.304932	0.17041	-0.782227
935.0	11.568518	0.96365	3.018165	-0.231194	-0.396302	-0.278607	-0.309326	0.165771	-0.779785
936.0	11.023141	1.622449	2.013542	-0.198789	-0.626974	-0.299293	-0.318604	0.170166	-0.779785
937.0	10.292778	2.102358	1.779875	-0.06179	-0.337722	-0.302885	-0.320801	0.170166	-0.777588
938.0	9.35567	2.254537	2.792696	-0.012191	0.03952	-0.306181	-0.320557	0.165771	-0.768066
939.0	9.186503	1.353338	4.909441	0.090758	0.208041	-0.357534	-0.320557	0.163574	-0.765625
940.0	9.146481	-0.045729	7.266242	0.145289	0.08698	-0.416488	-0.318115	0.15918	-0.774902
941.0	9.669434	-1.53994	8.809726	0.482412	-0.018045	-0.513629	-0.315918	0.15918	-0.772461
942.0	10.139789	-2.70858	10.043622	0.565576	-0.096817	-0.591044	-0.32666	0.150391	-0.767578
943.0	9.201752	-4.350632	8.309768	0.395708	-0.500927	-0.587267	-0.331055	0.145996	-0.774414
944.0	8.032068	-3.439338	6.593838	0.940989	-0.85713	-0.604361	-0.335205	0.136963	-0.769287
945.0	8.042548	-1.050942	5.832392	0.827703	-0.767944	-0.614824	-0.346191	0.132568	-0.778564
946.0	8.389562	0.353464	5.253479	0.475725	-0.427561	-0.648937	-0.34375	0.125977	-0.773682
947.0	8.653548	1.263193	5.867228	0.320267	-0.231385	-0.656353	-0.352783	0.123779	-0.766602
948.0	9.326762	2.200541	6.093908	0.265551	-0.296299	-0.666481	-0.345703	0.117188	-0.761719
949.0	10.557726	3.283985	6.120955	0.341844	-0.386933	-0.590802	-0.356934	0.11499	-0.773193
950.0	11.886126	3.275762	5.967142	0.25027	-0.222013	-0.428201	-0.352051	0.108398	-0.76123
951.0	12.497327	2.053259	5.805276	0.193021	-0.034889	-0.238846	-0.356689	0.108398	-0.770508
952.0	12.003738	0.510709	5.725556	0.179472	0.141972	-0.06292	-0.352051	0.106201	-0.763672
953.0	10.778118	-0.304843	5.778504	0.227949	0.258575	0.074286	-0.351807	0.104004	-0.765869
954.0	9.295962	-1.036725	5.469063	0.198549	0.24297	0.186005	-0.358643	0.101563	-0.772705
955.0	8.289002	-1.271104	4.965498	0.349257	0.086209	0.249405	-0.351807	0.099609	-0.768066
956.0	7.763982	-0.767926	4.995499	0.454471	-0.044248	0.284963	-0.354004	0.099365	-0.768066
957.0	7.38765	-0.332981	4.9836	0.383178	0.005385	0.313337	-0.349365	0.097412	-0.765625
958.0	7.354243	-0.595657	4.869327	0.316392	-0.017907	0.336847	-0.354004	0.099365	-0.768066
959.0	7.865142	-0.877048	4.730216	0.367665	-0.256607	0.339304	-0.35376	0.094971	-0.77002
960.0	8.223498	-0.374468	4.522111	0.453771	-0.492929	0.324694	-0.362549	0.090576	-0.760742
961.0	8.869148	0.053505	4.219189	0.385356	-0.544614	0.326257	-0.362793	0.092773	-0.765381
962.0	8.754196	0.447056	4.092556	0.324922	-0.399253	0.337874	-0.362793	0.092773	-0.760742
963.0	8.3113	0.649245	4.219804	0.215596	-0.160975	0.349335	-0.364746	0.088379	-0.765137
964.0	8.570738	0.484289	4.291275	0.265425	-0.211572	0.359797	-0.371582	0.088379	-0.762939
965.0	8.569623	0.823839	4.04834	0.334142	-0.342798	0.351693	-0.364746	0.088379	-0.760498
966.0	8.38608	0.982276	3.574918	0.257184	-0.237734	0.347473	-0.375977	0.088379	-0.760498
967.0	7.964784	0.924721	3.289517	0.195655	-0.008989	0.342302	-0.378174	0.083984	-0.760498
968.0	7.466773	0.879708	3.455964	0.185508	0.163246	0.316257	-0.369141	0.083984	-0.762695
969.0	7.297576	0.937508	3.7481	0.17796	0.214724	0.270281	-0.378174	0.083984	-0.762695
970.0	7.401068	0.829594	3.799258	0.167387	0.213281	0.217555	-0.369141	0.083984	-0.760498
971.0	7.810869	0.731398	3.736812	0.171224	0.198263	0.159921	-0.373535	0.081787	-0.767334
972.0	8.400556	0.639705	3.530408	0.159062	0.170182	0.10183	-0.375732	0.07959	-0.767334
973.0	8.989635	0.508453	3.065465	0.156115	0.163343	0.039054	-0.373535	0.07959	-0.769531
974.0	9.338818	0.500867	2.62621	0.154853	0.287901	-0.02065	-0.368896	0.077393	-0.760254
976.0	9.153231	0.597449	2.383102	0.091129	0.615811	-0.103534	-0.362061	0.075195	-0.771729
977.0	8.545329	0.782723	2.62406	0.031322	0.8297	-0.19536	-0.355469	0.077393	-0.781006
978.0	8.08823	0.854668	2.882061	-0.031102	0.819268	-0.24427	-0.346191	0.072998	-0.781006
979.0	7.856342	0.727953	3.139933	-0.046087	0.670826	-0.279116	-0.355225	0.072998	-0.783203
980.0	7.882583	0.291633	3.326693	-0.07313	0.44435	-0.311956	-0.345947	0.068604	-0.7854
981.0	7.630052	-0.113735	3.312705	-0.06127	0.207423	-0.352588	-0.345947	0.068604	-0.77832
982.0	7.520037	-0.651125	3.247901	-0.048766	-0.010924	-0.397374	-0.352539	0.066406	-0.7854
983.0	7.469411	-0.845063	3.251423	0.022471	-0.202113	-0.420404	-0.352539	0.064209	-0.782959
985.0	8.370405	-0.70754	3.433429	0.252765	-0.374079	-0.354434	-0.361084	0.053223	-0.780273
986.0	10.080414	-0.568944	3.851001	0.386879	-0.329884	-0.162451	-0.358887	0.05542	-0.777832
987.0	10.67466	-0.358755	3.947198	0.377229	-0.176824	-0.033102	-0.36084	0.046631	-0.777588
988.0	10.54078	0.09359	3.436227	0.344886	-0.091484	0.052794	-0.363037	0.044434	-0.786865
989.0	10.74015	0.107686	2.488562	0.406678	-0.197626	0.095695	-0.367432	0.041992	-0.772705
990.0	11.3669	0.262807	2.452462	0.437731	-0.150647	0.113168	-0.36499	0.0354	-0.774902
991.0	11.681813	0.353062	2.866654	0.361861	0.002064	0.176661	-0.367188	0.0354	-0.779541
992.0	11.675501	0.683075	3.105174	0.448911	-0.109893	0.285692	-0.371582	0.0354	-0.774902
993.0	11.787312	1.774201	3.388258	0.579816	-0.43704	0.395191	-0.374023	0.0354	-0.7771
994.0	12.225626	2.272907	3.763047	0.360283	-0.409557	0.524265	-0.380615	0.0354	-0.774902
995.0	12.278847	2.513448	4.465362	0.099604	-0.006361	0.701261	-0.380371	0.028809	-0.776855
996.0	12.13545	3.641812	6.09472	-0.066139	0.352534	0.853511	-0.378418	0.037598	-0.779541
997.0	11.732075	4.838173	7.96517	-0.398241	0.380241	0.952784	-0.378662	0.039795	-0.781982
998.0	10.613774	4.681422	9.14728	-0.965278	0.346602	0.962398	-0.376709	0.050781	-0.782471
999.0	8.627129	3.144401	8.132256	-1.31505	0.261808	0.864946	-0.372803	0.064209	-0.782959
1000.0	6.739375	1.473684	6.09157	-1.109188	0.016939	0.705807	-0.373047	0.068604	-0.787598
1001.0	6.967565	0.290286	5.867519	-0.658371	0.011988	0.596181	-0.37793	0.07959	-0.783447
1002.0	8.220341	-0.64934	6.794842	-0.545159	0.082184	0.549639	-0.373535	0.081787	-0.785889
1003.0	9.31253	-1.844506	6.32727	-0.337207	-0.199647	0.562081	-0.373535	0.07959	-0.778809
1004.0	10.867509	-1.620095	6.523626	0.049618	-0.535088	0.578492	-0.380371	0.086182	-0.776855
1005.0	11.544325	-1.274182	6.168693	-0.012644	-0.495699	0.58829	-0.380615	0.088379	-0.776855
1006.0	11.117255	-1.188754	5.256712	-0.151828	-0.083059	0.51521	-0.38501	0.086182	-0.776855
1007.0	10.449493	-0.354742	5.296773	-0.096141	0.416327	0.345666	-0.382813	0.086182	-0.786133
1009.0	9.722227	0.625818	6.110066	-0.295052	0.796479	0.066071	-0.374023	0.092773	-0.786377
1010.0	9.146836	0.64908	5.466912	-0.269202	0.784591	-0.202337	-0.367188	0.092773	-0.791016
1011.0	8.358138	1.460577	5.342869	-0.183799	0.688925	-0.329463	-0.371582	0.088379	-0.78833
1012.0	7.543568	1.758034	5.256557	-0.245965	0.57387	-0.375075	-0.367432	0.094971	-0.798096
1013.0	6.723077	1.829368	5.027283	-0.219692	0.424005	-0.369807	-0.364746	0.086182	-0.79541
1014.0	6.401076	2.150362	4.967865	-0.152362	0.190997	-0.324822	-0.360596	0.092773	-0.791016
1015.0	6.535713	2.129607	4.561276	-0.196814	0.083028	-0.26914	-0.36499	0.090576	-0.793213
1016.0	6.799906	2.208974	4.331399	-0.150594	0.070842	-0.208156	-0.362549	0.090576	-0.793213
1017.0	7.303522	2.303784	4.483127	-0.181292	0.093858	-0.157833	-0.364746	0.088379	-0.797852
1018.0	8.099471	1.682277	4.753917	-0.324562	0.080761	-0.132101	-0.36499	0.090576	-0.800049
1019.0	8.560184	0.599825	4.485042	-0.383998	0.055908	-0.163852	-0.367188	0.092773	-0.795654
1020.0	8.490007	0.088992	4.252126	-0.303413	0.037349	-0.208485	-0.369385	0.090576	-0.79541
1021.0	8.330623	-0.142419	4.086372	-0.276776	0.112777	-0.246013	-0.36499	0.092773	-0.797852
1022.0	8.054175	-0.342725	4.006188	-0.263213	0.279528	-0.262717	-0.369629	0.092773	-0.800293
1023.0	7.942508	-0.520761	4.005822	-0.245283	0.374477	-0.277692	-0.367432	0.094971	-0.800293
1024.0	7.755952	-0.357589	4.144042	-0.1954	0.378106	-0.277034	-0.362549	0.088379	-0.79541
1025.0	7.637864	-0.284761	4.278445	-0.20154	0.277388	-0.249682	-0.358398	0.097412	-0.802734
1026.0	7.762847	-0.286972	4.163465	-0.158526	0.156135	-0.205562	-0.360596	0.093018	-0.807129
1027.0	7.937865	-0.220571	3.924568	-0.112113	0.113652	-0.166702	-0.36499	0.092773	-0.800293
1028.0	8.132053	0.151261	3.760276	-0.055217	0.130555	-0.137901	-0.358154	0.093018	-0.800293
1029.0	8.532427	0.212992	3.893022	-0.075567	0.160887	-0.112974	-0.360352	0.09082	-0.807129
1030.0	8.866194	0.174029	3.829708	-0.103329	0.201389	-0.106868	-0.36499	0.090576	-0.800049
1031.0	8.893556	0.124374	3.682328	-0.093684	0.201195	-0.092298	-0.364746	0.086182	-0.809326
1032.0	8.745584	0.253888	3.434321	-0.064022	0.203131	-0.078267	-0.362305	0.083984	-0.809082
1033.0	8.42176	0.523431	3.335201	-0.021697	0.194674	-0.059746	-0.360352	0.09082	-0.816406
1034.0	8.12244	0.710695	3.449871	-0.062574	0.180549	-0.048509	-0.355957	0.09082	-0.804688
1035.0	7.868259	0.83511	3.678352	-0.091498	0.070413	-0.019374	-0.362305	0.083984	-0.809082
1036.0	7.736596	1.108233	3.749652	-0.113706	-0.097986	0.005599	-0.360352	0.088623	-0.804688
1037.0	7.964217	1.307289	3.685801	-0.192824	-0.265494	0.055425	-0.362793	0.095215	-0.812012
1038.0	8.001561	1.454804	3.394274	-0.280447	-0.267044	0.108272	-0.36499	0.093018	-0.80957
1039.0	7.736196	1.491333	3.291845	-0.34999	-0.139313	0.120376	-0.367432	0.095215	-0.814209
1040.0	7.541187	1.452566	3.668206	-0.329349	-0.163562	0.108031	-0.367432	0.099609	-0.802734
1041.0	7.61254	1.308414	4.07296	-0.226309	-0.379395	0.06548	-0.374268	0.099365	-0.807373
1042.0	8.057202	0.960042	4.117078	-0.041496	-0.619313	0.016682	-0.376465	0.097168	-0.802734
1043.0	8.436269	0.739759	3.666809	0.080325	-0.590649	-0.024013	-0.387451	0.090576	-0.80249
1044.0	8.911209	0.651143	2.996039	0.103336	-0.448306	-0.030646	-0.385254	0.090576	-0.804688
1045.0	10.427933	0.693315	3.135778	0.144895	-0.236945	-0.028807	-0.387451	0.090576	-0.80249
1046.0	11.874702	1.344865	4.113934	0.083494	0.042577	-0.082799	-0.387451	0.090576	-0.80249
1047.0	12.527247	1.670785	4.74774	-0.221066	0.099439	-0.147385	-0.389648	0.086182	-0.800049
1048.0	12.630912	1.509695	4.425461	-0.495259	-0.264985	-0.216647	-0.394287	0.094971	-0.793213
1049.0	12.212825	1.158045	2.995976	-0.56564	-0.819468	-0.258918	-0.40332	0.094971	-0.793213
1050.0	11.198715	0.751675	1.702371	-0.299298	-0.806485	-0.2768	-0.400879	0.090576	-0.790771
1051.0	9.862901	0.362074	1.67264	-0.011204	-0.212943	-0.281012	-0.40332	0.094971	-0.793213
1052.0	9.408657	-0.76395	3.794373	0.286024	0.320856	-0.339843	-0.403076	0.086182	-0.78833
1053.0	9.274189	-2.070304	6.77986	0.437821	0.207881	-0.431182	-0.400635	0.083984	-0.802246
1054.0	10.082672	-3.477317	8.295735	0.896314	-0.358435	-0.550138	-0.404785	0.072754	-0.787842
1055.0	10.788803	-3.28908	8.663602	1.291919	-0.768506	-0.657864	-0.410889	0.055176	-0.791748
1056.0	9.894615	-2.018224	7.028828	1.245956	-1.065733	-0.664454	-0.41748	0.050781	-0.789307
1057.0	9.836494	-1.275088	6.168744	1.197654	-1.041966	-0.641376	-0.423828	0.039551	-0.788818
1058.0	10.050059	0.578502	6.339764	1.107937	-0.684439	-0.641101	-0.430176	0.030762	-0.783936
1059.0	10.307094	1.878724	6.384662	0.691913	-0.289966	-0.623307	-0.431641	0.015381	-0.783447
1060.0	10.170663	2.51303	6.430095	0.420834	0.031402	-0.614459	-0.429688	0.021973	-0.779053
1061.0	9.955144	2.881741	6.801498	0.276652	0.087639	-0.60786	-0.433838	0.008789	-0.783203
1062.0	10.047017	3.218884	6.954367	0.300122	-0.033119	-0.500285	-0.435791	0.006592	-0.782959
1063.0	10.63408	2.543781	7.174502	0.13512	-0.017801	-0.330984	-0.431396	0.004395	-0.77832
1064.0	11.024499	1.478578	6.628033	0.15783	-0.041091	-0.139304	-0.437988	0.004395	-0.780518
1065.0	11.40499	0.660445	5.845611	0.265768	-0.181951	0.043118	-0.437744	-0.002441	-0.778076
1066.0	11.174707	0.5874	4.829005	0.365125	-0.183192	0.176124	-0.442383	0.001953	-0.780518
1067.0	9.976602	0.580236	3.925752	0.276126	0.070435	0.300066	-0.435791	0.006592	-0.780762
1068.0	8.461838	-0.13112	3.812347	0.17037	0.346054	0.384572	-0.435791	0.004395	-0.782959
1069.0	7.13496	-0.382834	4.575952	0.285886	0.289493	0.425321	-0.433594	0.006592	-0.787598
1070.0	6.536354	-0.415023	5.405673	0.256049	0.059302	0.427786	-0.437744	-0.002197	-0.782715
1071.0	7.012475	-0.823705	5.342505	0.201179	-0.241217	0.409866	-0.438232	0.008789	-0.783203
1072.0	7.644872	-0.948658	4.472676	0.248792	-0.522077	0.367265	-0.442383	0.001953	-0.775879
1073.0	8.018467	-0.428889	4.058409	0.232527	-0.517615	0.320896	-0.447021	0.001953	-0.77832
1074.0	8.326866	-0.012827	4.180821	0.090589	-0.420851	0.297317	-0.447266	0.006348	-0.773682
1075.0	8.137912	0.188457	4.298231	-0.006201	-0.401228	0.291016	-0.451416	0.001953	-0.782959
1076.0	8.263752	0.598083	4.166042	0.064308	-0.556795	0.287263	-0.454102	0.008545	-0.771484
1077.0	8.425474	0.99368	3.592586	0.07465	-0.596685	0.303113	-0.454102	0.008545	-0.773926
1078.0	8.633423	1.173957	2.786147	0.046811	-0.453411	0.311413	-0.460693	0.008545	-0.762207
1079.0	8.54438	1.108465	2.323227	0.008111	-0.260642	0.306673	-0.465332	0.008545	-0.762207
1080.0	8.230997	0.971336	2.212763	-0.000896	-0.058529	0.272514	-0.465332	0.008545	-0.764404
1081.0	8.02173	0.796643	2.328698	-0.010449	0.097807	0.202232	-0.467773	0.015137	-0.76709
1082.0	7.749938	0.762936	2.871636	-0.03161	0.228972	0.123731	-0.458984	0.017334	-0.771729
1083.0	7.736653	0.841121	3.223091	-0.034947	0.191427	0.079382	-0.465576	0.015137	-0.771729
1084.0	8.205964	0.614288	3.008264	-0.02495	0.17484	0.022852	-0.458496	0.008545	-0.766846
1085.0	8.64977	0.529487	2.796776	-0.096709	0.247879	-0.041756	-0.460938	0.015137	-0.776367
1086.0	9.136901	0.314505	2.464614	-0.08941	0.320655	-0.097243	-0.456543	0.012939	-0.776367
1087.0	9.405766	0.416024	2.162882	-0.073846	0.426036	-0.144571	-0.45874	0.015137	-0.778809
1088.0	9.359037	0.525729	1.910633	-0.090589	0.617312	-0.192928	-0.454102	0.010742	-0.780762
1089.0	8.915598	0.644688	1.928869	-0.117476	0.829436	-0.233372	-0.44751	0.015381	-0.785645
1090.0	8.31739	0.690236	2.175685	-0.131341	0.954275	-0.279906	-0.440674	0.013184	-0.785645
1091.0	7.843777	0.549814	2.674784	-0.154323	0.9368	-0.317932	-0.437988	0.004395	-0.794678
1092.0	7.607351	0.08248	3.19903	-0.174417	0.765347	-0.347372	-0.433838	0.013184	-0.794922
1093.0	7.603365	-0.352714	3.633152	-0.14663	0.50356	-0.38804	-0.429443	0.010986	-0.804199
1094.0	7.455958	-0.597334	3.673791	-0.113615	0.217308	-0.420286	-0.429199	0.006592	-0.801514
1095.0	7.442985	-0.780815	3.54969	-0.04566	-0.027344	-0.411943	-0.429443	0.010986	-0.794922
1096.0	7.766378	-0.937045	3.749803	-0.004072	-0.1172	-0.341489	-0.428955	0.004395	-0.794678
1097.0	8.382276	-1.194917	4.289556	-0.035692	-0.073336	-0.224477	-0.431152	0.002197	-0.799072
1098.0	8.608206	-1.28619	4.611571	-0.025948	-0.144039	-0.09277	-0.431396	0.004395	-0.799316
1099.0	9.284165	-0.95698	4.515304	0.05283	-0.397651	0.049063	-0.440186	0.002197	-0.799072
1100.0	10.023997	-0.344224	3.451063	0.110748	-0.566458	0.137801	-0.442383	0.002197	-0.794434
1101.0	11.487939	-0.187194	2.143373	0.242961	-0.651181	0.17521	-0.447021	0.002197	-0.794434
1102.0	12.939852	-0.168053	1.988352	0.316511	-0.509433	0.165299	-0.449219	0.00415	-0.782959
1103.0	13.924446	0.006978	2.225613	0.318747	-0.232365	0.185039	-0.449219	-0.000244	-0.787354
1104.0	13.796058	0.367982	2.480542	0.442295	-0.146119	0.259234	-0.451416	-0.000244	-0.787354
1105.0	12.765234	0.720314	2.522337	0.448341	-0.134814	0.33215	-0.456055	0.00415	-0.785156
1106.0	11.82146	0.820503	3.173385	0.266035	0.005017	0.386172	-0.449219	0.001953	-0.796875
1107.0	11.014667	1.326117	4.485348	0.022253	0.24076	0.465441	-0.455811	-0.000244	-0.791992
1108.0	10.687327	2.363856	5.889476	-0.05496	0.268742	0.579718	-0.451416	0.001953	-0.792236
1109.0	11.169659	4.134052	7.80172	-0.122169	0.211339	0.699665	-0.447266	0.006592	-0.790039
1110.0	10.882601	4.974118	9.547157	-0.800172	0.355046	0.78117	-0.447754	0.019775	-0.790527
1111.0	9.256811	3.597531	8.628951	-1.379142	0.413205	0.769257	-0.448242	0.032959	-0.800293
1112.0	6.879961	2.498491	6.458657	-1.156079	-0.065926	0.618746	-0.448486	0.041748	-0.79834
1113.0	6.132564	1.712429	5.012845	-0.856588	-0.49462	0.491618	-0.453369	0.050537	-0.798584
1114.0	7.207633	0.154151	5.153989	-0.633784	-0.429052	0.450041	-0.453613	0.054932	-0.789551
1115.0	8.413635	-1.264392	5.471587	-0.464756	-0.450672	0.446913	-0.460449	0.057129	-0.794189
1116.0	9.286987	-1.51243	5.41883	-0.139568	-0.722328	0.475363	-0.460693	0.061523	-0.789795
1117.0	10.798505	-1.170987	5.493118	0.08195	-0.895627	0.537852	-0.463379	0.070313	-0.77832
1118.0	11.77958	-1.48855	4.777367	-0.032208	-0.685686	0.554919	-0.465576	0.070313	-0.77832
1119.0	12.036034	-1.287666	3.91477	-0.012702	-0.250762	0.477997	-0.476807	0.07251	-0.776123
1120.0	12.081097	-0.057638	4.605889	-0.01087	0.323943	0.31449	-0.469971	0.070313	-0.773682
1121.0	11.607399	1.097839	5.335165	-0.297738	0.892612	0.120022	-0.463623	0.081299	-0.788086
1122.0	10.180358	1.277022	5.426104	-0.532321	1.208606	-0.055225	-0.457031	0.081543	-0.797363
1123.0	9.067399	1.223107	5.40994	-0.458969	1.055604	-0.211424	-0.457275	0.088135	-0.800049
1124.0	8.292764	1.348418	5.30727	-0.364773	0.734267	-0.299821	-0.446045	0.090332	-0.797852
1125.0	7.593311	1.4214	4.844889	-0.34873	0.514564	-0.327539	-0.448242	0.085938	-0.802246
1126.0	7.103192	1.474288	4.605056	-0.272561	0.422342	-0.301072	-0.438965	0.081543	-0.809082
1127.0	7.168101	1.209864	4.561787	-0.264876	0.350337	-0.258484	-0.441406	0.085938	-0.806885
1128.0	7.243957	1.11597	4.69375	-0.160195	0.245556	-0.211067	-0.445801	0.08374	-0.809082
1129.0	7.306114	1.155194	4.65327	-0.073034	0.153017	-0.173343	-0.436768	0.08374	-0.809082
1130.0	7.878142	1.319692	4.740613	0.006451	0.041558	-0.144231	-0.443359	0.081543	-0.804443
1131.0	8.391926	0.870746	4.575302	-0.0794	0.03889	-0.127704	-0.441406	0.08374	-0.802246
1132.0	8.663922	0.040023	4.093024	-0.116304	0.069852	-0.16284	-0.441406	0.08374	-0.804443
1133.0	8.566465	-0.125779	3.921559	-0.026457	0.138361	-0.210598	-0.441406	0.08374	-0.806885
1134.0	8.31841	0.001911	3.937752	-0.059152	0.228978	-0.230688	-0.436768	0.085938	-0.799805
1136.0	7.89062	-0.095172	3.745136	-0.08938	0.327709	-0.237098	-0.436768	0.081543	-0.806641
1137.0	7.540604	0.02343	3.699742	-0.028689	0.37064	-0.204228	-0.432373	0.08374	-0.813721
1139.0	7.550254	0.058532	4.01808	-0.046124	0.413976	-0.148771	-0.429932	0.081543	-0.822998
1140.0	7.658307	0.155349	4.027788	0.004932	0.313045	-0.098883	-0.425537	0.081543	-0.809082
1141.0	8.09553	0.375181	3.954779	0.047248	0.195253	-0.074299	-0.427979	0.088135	-0.813965
1142.0	8.702796	0.400463	3.813176	-0.006299	0.143464	-0.057171	-0.421143	0.085938	-0.816162
1143.0	9.09937	0.254184	3.408519	-0.019148	0.184723	-0.047875	-0.425537	0.085938	-0.818604
1144.0	9.301365	0.081332	3.126744	-0.043922	0.29833	-0.041933	-0.420898	0.08374	-0.818359
1145.0	9.11224	0.033009	3.012372	-0.038267	0.418653	-0.039374	-0.421143	0.085938	-0.813965
1146.0	8.624417	0.093002	3.225694	-0.03525	0.473946	-0.034407	-0.411865	0.081787	-0.820557
1147.0	8.03134	0.292964	3.600481	-0.039114	0.401577	-0.021122	-0.420898	0.08374	-0.820801
1149.0	7.713545	0.722455	4.124763	-0.028292	0.009251	0.019702	-0.414307	0.086182	-0.820801
1150.0	7.725522	1.283021	3.84122	-0.131969	-0.340551	0.093281	-0.416992	0.097168	-0.81665
1151.0	7.814785	1.503361	3.213989	-0.21534	-0.291677	0.134825	-0.418945	0.090576	-0.811768
1152.0	7.690788	1.775011	3.196087	-0.240755	-0.067875	0.138803	-0.416992	0.094971	-0.818848
1153.0	7.879329	1.892796	3.816718	-0.220552	-0.039775	0.109335	-0.421631	0.101563	-0.82373
1154.0	8.093849	1.770099	4.173888	-0.194905	-0.246612	0.04878	-0.423828	0.099365	-0.814453
1155.0	8.677166	1.44377	4.166952	-0.042601	-0.478119	-0.020713	-0.426025	0.099121	-0.809814
1156.0	9.234227	1.309615	3.908373	0.062266	-0.359682	-0.077635	-0.430664	0.101318	-0.812012
1157.0	9.762528	1.357584	3.562063	0.053778	-0.16351	-0.092722	-0.433105	0.103516	-0.809814
1158.0	10.86106	1.081903	3.386944	-0.052973	-0.066225	-0.101824	-0.433105	0.10376	-0.819092
1159.0	11.856311	1.302745	3.563602	-0.102637	-0.023604	-0.147161	-0.430664	0.099121	-0.807373
1160.0	12.53516	1.023346	3.837766	-0.373279	-0.018234	-0.217522	-0.430908	0.108154	-0.810059
1161.0	12.541087	0.190114	3.165113	-0.490237	-0.129424	-0.300348	-0.43335	0.108154	-0.812256
1162.0	11.949188	0.279598	2.477393	-0.351678	-0.362381	-0.361726	-0.437744	0.10791	-0.807617
1163.0	11.255258	0.581997	2.27167	-0.121354	-0.254167	-0.364238	-0.437744	0.10791	-0.807617
1164.0	10.284432	0.527915	3.277941	0.193597	0.237537	-0.372407	-0.439941	0.103516	-0.812256
1165.0	9.534788	-0.116132	5.31654	0.368159	0.42408	-0.406241	-0.430664	0.099121	-0.802734
1166.0	9.359666	-1.19699	6.989121	0.537864	0.04359	-0.442548	-0.437256	0.092529	-0.807129
1167.0	9.846446	-1.780077	7.706211	0.839772	-0.431132	-0.481044	-0.441162	0.081543	-0.806641
1168.0	10.150737	-1.384304	7.894798	1.039021	-0.51918	-0.49018	-0.440918	0.077148	-0.806641
1169.0	9.244554	-0.852498	6.82007	0.872666	-0.492051	-0.44637	-0.44751	0.072754	-0.801758
1170.0	8.178697	-0.161607	5.679659	0.83283	-0.56391	-0.366847	-0.449463	0.061523	-0.799072
1171.0	8.40213	0.661766	5.800648	0.703837	-0.413895	-0.340725	-0.458496	0.063721	-0.801514
1172.0	8.584709	1.211415	6.365654	0.287191	-0.188022	-0.358302	-0.45166	0.059326	-0.80127
1173.0	8.6412	0.945334	6.306861	0.027042	-0.151755	-0.420465	-0.455811	0.052734	-0.793945
1174.0	9.522623	0.767358	6.22924	0.131501	-0.305181	-0.523402	-0.460449	0.057129	-0.80127
1175.0	10.143482	0.807524	6.137684	0.107217	-0.350531	-0.629257	-0.462402	0.04834	-0.784668
1176.0	10.93116	0.413811	5.715887	0.143427	-0.359042	-0.645854	-0.462402	0.046143	-0.786865
1177.0	11.415306	0.314709	5.722396	0.344214	-0.266202	-0.538482	-0.466553	0.041748	-0.786621
1178.0	11.760755	0.080582	5.62139	0.459049	-0.141126	-0.31025	-0.464111	0.035156	-0.786377
1179.0	11.778637	-0.120356	5.17924	0.586576	-0.107425	-0.0876	-0.461914	0.035156	-0.786377
1180.0	10.982535	-0.135272	4.412004	0.589054	0.034749	0.080369	-0.464111	0.032959	-0.781738
1181.0	9.76936	0.348414	4.302976	0.578416	0.269477	0.189186	-0.468506	0.032715	-0.781738
1182.0	8.472671	0.653144	4.574839	0.504182	0.411246	0.29274	-0.466064	0.030762	-0.790771
1183.0	7.554371	0.610788	4.76757	0.437344	0.393725	0.371516	-0.457275	0.035156	-0.791016
1184.0	6.992375	0.342438	5.203862	0.343383	0.282091	0.405128	-0.463867	0.028564	-0.793213
1185.0	6.661818	-0.022056	5.606696	0.218318	0.119442	0.423416	-0.45752	0.037354	-0.793457
1186.0	6.876085	-0.436817	5.559836	0.121717	-0.150391	0.406454	-0.455078	0.037354	-0.79126
1187.0	7.764125	-0.58188	5.054275	0.163471	-0.567172	0.392674	-0.46875	0.039551	-0.79126
1188.0	8.126179	-0.015316	4.275268	0.218057	-0.689085	0.379167	-0.471191	0.041748	-0.784424
1189.0	7.906948	0.302657	3.804669	0.080496	-0.505445	0.402557	-0.475586	0.041504	-0.781982
1190.0	8.068806	0.177209	3.605561	0.15223	-0.436829	0.409362	-0.47583	0.043945	-0.781982
1191.0	8.346828	0.475293	3.637313	0.268891	-0.531511	0.395623	-0.480225	0.043701	-0.772705
1192.0	8.456456	0.690638	3.188776	0.248863	-0.525925	0.372846	-0.484863	0.045898	-0.775146
1193.0	8.246956	0.834637	2.742086	0.247221	-0.393606	0.335004	-0.484619	0.041504	-0.772705
1194.0	7.996244	0.928767	2.705397	0.254114	-0.250231	0.300862	-0.489258	0.043701	-0.772705
1195.0	8.000031	0.988965	2.83688	0.222101	-0.089561	0.245312	-0.486816	0.039307	-0.770264
1196.0	8.109943	0.960899	3.177602	0.154986	0.084895	0.189764	-0.489258	0.045898	-0.765869
1197.0	8.226751	0.924001	3.499174	0.081615	0.164673	0.143031	-0.484619	0.041504	-0.765625
1198.0	8.477499	0.782606	3.507139	0.021628	0.179957	0.077429	-0.487061	0.043701	-0.775146
1199.0	9.0103	0.683651	3.121872	-0.002052	0.166965	0.021249	-0.487061	0.045898	-0.770508
1200.0	9.500087	0.505838	2.498675	-0.009178	0.226277	-0.026923	-0.489502	0.048096	-0.777588
1201.0	9.750416	0.452532	1.904551	-0.013876	0.393764	-0.066807	-0.482666	0.045898	-0.768311
1202.0	9.637852	0.501079	1.740061	-0.009425	0.646956	-0.102077	-0.47583	0.048096	-0.772949
1203.0	9.220052	0.639875	1.95374	-0.017232	0.885222	-0.152185	-0.473633	0.050537	-0.784668
1204.0	8.679231	0.67618	2.306182	-0.075005	1.00023	-0.19925	-0.466797	0.046143	-0.779785
1205.0	8.182419	0.368026	2.826242	-0.136016	0.983757	-0.246402	-0.462158	0.043945	-0.793701
1206.0	7.786923	-0.008285	3.261444	-0.123796	0.79289	-0.297249	-0.457764	0.043945	-0.791504
1207.0	7.486593	-0.368561	3.66631	-0.0598	0.462418	-0.364171	-0.457764	0.043945	-0.791504
1208.0	7.153343	-0.769116	3.717931	-0.02968	0.148997	-0.428357	-0.453369	0.046143	-0.789063
1209.0	6.825223	-0.950193	3.523073	0.009021	-0.084617	-0.463341	-0.453125	0.043945	-0.791504
1210.0	6.645968	-0.844425	3.356006	0.14617	-0.254235	-0.420033	-0.45752	0.041748	-0.793701
1211.0	7.439573	-0.927917	3.502753	0.259616	-0.379249	-0.312003	-0.46875	0.039551	-0.786621
1212.0	8.551055	-0.889625	3.556971	0.325463	-0.456853	-0.178131	-0.464111	0.037354	-0.786377
1213.0	9.667547	-0.278625	3.786681	0.367781	-0.437595	-0.045436	-0.475342	0.034912	-0.779541
1214.0	10.320285	0.213682	3.1979	0.268011	-0.333694	0.042358	-0.46875	0.039551	-0.781982
1215.0	11.112742	0.146667	2.257506	0.3607	-0.365655	0.089103	-0.481934	0.02832	-0.781494
1216.0	12.301918	-0.229604	2.434198	0.399418	-0.268567	0.106956	-0.475098	0.02832	-0.779297
1217.0	12.229875	-0.356273	2.389528	0.325696	-0.017863	0.182681	-0.484131	0.026123	-0.774414
1218.0	11.878836	0.075038	2.269172	0.544857	-0.117739	0.292495	-0.479736	0.030518	-0.774658
1219.0	11.871905	1.310669	2.548882	0.713377	-0.374764	0.407184	-0.479492	0.026123	-0.776855
1220.0	12.24111	1.449195	3.234579	0.46654	-0.191919	0.520833	-0.481934	0.02832	-0.767578
1221.0	12.244721	1.857208	4.487123	0.33245	0.244026	0.667909	-0.475098	0.026123	-0.769775
1222.0	12.491117	4.125408	7.015237	0.325952	0.516567	0.840931	-0.473145	0.034912	-0.7771
1223.0	12.898771	6.793221	10.442554	-0.140904	0.604102	1.020412	-0.47583	0.043701	-0.779785
1224.0	11.375966	6.886916	11.25109	-1.145109	0.51269	1.113161	-0.474121	0.059326	-0.775635
1225.0	7.954007	4.057096	7.638951	-1.584116	0.045383	1.010687	-0.474365	0.065918	-0.780518
1226.0	6.020246	1.783214	4.657736	-1.072382	-0.225376	0.848758	-0.474854	0.079102	-0.77417
1227.0	7.317412	0.285188	5.242203	-0.703836	0.129325	0.750279	-0.470947	0.092285	-0.776855
1228.0	8.990192	-1.806055	6.172167	-0.708676	0.336408	0.68465	-0.466309	0.092285	-0.774658
1229.0	9.556035	-2.807289	6.489838	-0.313228	0.05161	0.658285	-0.473633	0.101074	-0.777344
1230.0	10.80615	-2.655031	7.428457	-0.018711	-0.321605	0.672759	-0.471191	0.101074	-0.770264
1231.0	11.264706	-2.906748	6.866983	-0.0827	-0.405114	0.670465	-0.47583	0.103271	-0.770264
1232.0	10.838195	-2.490914	5.848827	0.007559	-0.184701	0.543571	-0.473633	0.105469	-0.772705
1233.0	10.502921	-0.66044	6.314028	0.132037	0.121559	0.356469	-0.473877	0.107666	-0.770508
1234.0	10.024101	0.684969	6.870914	-0.077572	0.343893	0.182862	-0.476318	0.114258	-0.770752
1235.0	9.736486	1.061225	6.203203	-0.188561	0.374941	0.005979	-0.476318	0.114258	-0.768555
1236.0	9.596122	1.616526	5.129984	-0.12555	0.329122	-0.145521	-0.469482	0.114502	-0.775391
1237.0	8.834882	2.095653	4.535331	-0.172385	0.465924	-0.236959	-0.467285	0.116699	-0.782471
1238.0	7.74176	1.995959	4.478683	-0.299081	0.60065	-0.272354	-0.462891	0.114502	-0.777832
1239.0	6.669369	2.120429	4.868878	-0.207223	0.463988	-0.285774	-0.462891	0.116699	-0.780029
1240.0	6.385817	2.282378	5.198656	-0.151245	0.149227	-0.242261	-0.462891	0.118896	-0.780273
1241.0	6.695786	2.11893	4.669922	-0.184667	-0.055895	-0.197277	-0.464844	0.112305	-0.777588
1242.0	7.438411	2.155225	4.317409	-0.119162	-0.188842	-0.170351	-0.469482	0.114502	-0.780029
1243.0	8.14784	2.095958	4.121229	-0.166903	-0.146059	-0.147445	-0.465332	0.118896	-0.777832
1244.0	8.534343	1.445693	3.95912	-0.294986	0.036534	-0.138705	-0.462646	0.112305	-0.780029
1245.0	8.636913	0.441131	3.743868	-0.334991	0.260393	-0.159196	-0.465332	0.121094	-0.778076
1246.0	8.448939	-0.013498	4.08536	-0.255275	0.383176	-0.204369	-0.467529	0.118896	-0.780273
1247.0	7.913217	-0.148431	4.458826	-0.257089	0.421406	-0.233166	-0.465332	0.118896	-0.787109
1248.0	7.678442	-0.397015	4.323756	-0.228953	0.329288	-0.251272	-0.458496	0.118896	-0.787109
1249.0	7.651768	-0.397278	4.102975	-0.119362	0.2452	-0.255282	-0.463135	0.125488	-0.789795
1250.0	7.65713	-0.357704	3.941709	-0.126949	0.305894	-0.242469	-0.456299	0.123291	-0.785156
1251.0	7.634643	-0.23425	3.923488	-0.108604	0.382393	-0.211575	-0.45166	0.118896	-0.784912
1252.0	7.695071	-0.100302	4.163974	-0.087081	0.379649	-0.174617	-0.451904	0.125488	-0.782715
1253.0	7.911292	-0.030826	4.237677	-0.084125	0.306884	-0.148733	-0.45166	0.118896	-0.789551
1254.0	8.248762	-0.02837	4.084747	-0.060404	0.207396	-0.134041	-0.454102	0.123291	-0.787354
1255.0	8.652183	0.16546	3.848481	-0.004219	0.135551	-0.119916	-0.456299	0.121094	-0.794189
1256.0	9.196354	0.340899	3.664325	-0.005658	0.136171	-0.120309	-0.45166	0.118896	-0.789551
1257.0	9.495237	0.310094	3.563132	-0.037603	0.247528	-0.120356	-0.447266	0.121094	-0.789551
1258.0	9.364766	0.136685	3.458588	-0.079616	0.386663	-0.114204	-0.453857	0.118896	-0.796387
1259.0	9.019868	0.179771	3.443331	-0.023337	0.446693	-0.096301	-0.449707	0.123291	-0.799072
1260.0	8.618125	0.407885	3.717054	0.031626	0.4123	-0.073644	-0.44043	0.121094	-0.794189
1261.0	8.156562	0.541548	3.84311	0.017551	0.329076	-0.053079	-0.44043	0.116699	-0.801025
1262.0	7.942251	0.647031	4.028103	0.028524	0.169867	-0.022623	-0.44043	0.121094	-0.798828
1263.0	7.771579	0.831798	4.209859	-0.036227	0.004235	0.002661	-0.440674	0.123291	-0.799072
1264.0	7.661316	1.037731	3.973657	-0.111561	-0.110422	0.018597	-0.444824	0.116699	-0.791748
1265.0	7.568164	1.454474	3.644716	-0.152301	-0.14965	0.032636	-0.445313	0.125488	-0.799072
1266.0	7.772795	1.992855	3.506303	-0.124864	-0.105241	0.041224	-0.44751	0.127686	-0.799072
1267.0	7.663384	2.452347	3.870292	-0.138843	-0.0529	0.034778	-0.449707	0.125488	-0.796631
1268.0	7.442462	2.149063	4.096627	-0.171248	-0.172688	0.037949	-0.445313	0.129883	-0.794678
1269.0	7.842683	1.430748	4.475641	-0.011786	-0.395399	0.020742	-0.449707	0.125488	-0.796631
1270.0	8.473231	1.177804	4.283041	0.030075	-0.517025	-0.009103	-0.45459	0.13208	-0.790039
1271.0	9.294517	1.140716	3.394711	-0.014887	-0.529334	-0.034495	-0.461182	0.129883	-0.787598
1272.0	10.72114	1.120614	3.257726	-0.084204	-0.35869	-0.052104	-0.456787	0.134277	-0.797119
1273.0	12.071574	1.060406	3.45302	-0.20746	-0.167657	-0.118754	-0.461182	0.129883	-0.787598
1274.0	12.629378	1.088539	3.87542	-0.313421	-0.122342	-0.202612	-0.46582	0.13208	-0.7854
1275.0	12.624799	0.950496	3.618141	-0.440439	-0.32199	-0.270687	-0.466064	0.138672	-0.790283
1276.0	12.020492	0.949639	2.649121	-0.367772	-0.565224	-0.29234	-0.470459	0.136475	-0.7854
1277.0	11.429592	0.973708	1.975244	-0.133544	-0.489805	-0.286974	-0.474854	0.13208	-0.780762
1278.0	10.765215	0.56781	2.525213	0.069619	-0.100611	-0.285622	-0.474854	0.134277	-0.783203
1279.0	10.319672	-0.433973	4.076516	0.277321	0.16028	-0.321757	-0.477051	0.134277	-0.7854
1280.0	10.244183	-1.284044	6.300291	0.483824	-0.018003	-0.392654	-0.476807	0.127686	-0.780518
1281.0	10.463328	-1.946467	7.398675	0.709013	-0.318552	-0.454729	-0.481201	0.123291	-0.782715
1282.0	10.361553	-2.052191	7.534398	0.875613	-0.508439	-0.482866	-0.480469	0.105469	-0.779785
1283.0	9.085713	-1.19669	6.375723	0.858129	-0.673204	-0.442569	-0.491455	0.101074	-0.781982
1284.0	8.799868	-0.513061	5.634259	0.822813	-0.65725	-0.396379	-0.491455	0.09668	-0.781738
1285.0	8.941271	0.183536	5.945296	0.608056	-0.302412	-0.393828	-0.493408	0.092285	-0.774658
1286.0	8.552372	0.283503	6.196836	0.237048	0.006434	-0.4283	-0.493164	0.087891	-0.781494
1287.0	8.33529	0.177976	6.291684	0.188795	-0.047605	-0.503868	-0.5	0.087891	-0.774414
1288.0	8.405379	0.428663	6.420235	0.258729	-0.217255	-0.581014	-0.495361	0.081299	-0.771729
1289.0	9.280961	0.539033	6.292242	0.316621	-0.312186	-0.599266	-0.501709	0.074463	-0.780762
1290.0	9.969063	0.588354	6.225273	0.378452	-0.13805	-0.554396	-0.499512	0.072266	-0.780762
1291.0	10.743109	0.60467	6.299023	0.445528	-0.10562	-0.407238	-0.499023	0.063477	-0.780518
1292.0	11.382423	0.55649	6.043516	0.549203	-0.252389	-0.233549	-0.501221	0.063477	-0.773438
1293.0	11.538018	0.517304	5.284973	0.55266	-0.31926	-0.045735	-0.508057	0.065674	-0.773682
1294.0	10.696784	0.54917	4.454557	0.475301	-0.115198	0.092426	-0.507813	0.054688	-0.777832
1295.0	9.345447	0.658181	4.033749	0.429586	0.209279	0.203748	-0.503418	0.059082	-0.784912
1296.0	7.968833	0.688651	4.492476	0.373874	0.405284	0.28765	-0.498535	0.05249	-0.777832
1297.0	7.282109	0.525814	5.078252	0.317312	0.339019	0.316919	-0.500977	0.054688	-0.787109
1298.0	6.98333	0.262596	5.144366	0.229426	0.172085	0.314414	-0.498535	0.05249	-0.789307
1299.0	7.041245	-0.254952	5.054537	0.108993	-0.012083	0.299625	-0.498779	0.056885	-0.784912
1300.0	7.586358	-0.297184	5.040679	0.137476	-0.233643	0.269583	-0.505615	0.059082	-0.784912
1301.0	7.898497	0.091537	4.929429	0.079297	-0.388009	0.255026	-0.505859	0.063477	-0.785156
1302.0	8.229329	0.251481	4.359587	0.001315	-0.437174	0.257295	-0.505859	0.065674	-0.780518
1303.0	8.43272	0.449874	3.895069	0.059351	-0.422632	0.270606	-0.510254	0.061279	-0.784912
1304.0	8.19524	0.760776	3.88468	-0.003309	-0.237114	0.285575	-0.510498	0.065674	-0.780518
1305.0	8.013396	0.647569	3.680333	-0.030632	-0.195472	0.276837	-0.512695	0.063477	-0.787354
1306.0	8.199021	0.655522	3.560288	0.077823	-0.358999	0.250267	-0.51709	0.061279	-0.773438
1307.0	8.349768	0.788695	3.324099	0.095524	-0.417746	0.226038	-0.519287	0.063477	-0.778076
1308.0	8.490218	0.764033	2.969922	0.049329	-0.317151	0.192068	-0.519287	0.061279	-0.778076
1309.0	8.627093	0.675723	2.794174	0.029544	-0.142197	0.15381	-0.521729	0.067871	-0.775879
1310.0	8.690971	0.730547	2.931245	-0.011013	0.110871	0.1058	-0.519531	0.065674	-0.77832
1311.0	8.760301	0.591507	3.094424	-0.080257	0.317876	0.055505	-0.51709	0.065674	-0.780518
1312.0	8.86763	0.387651	3.138676	-0.112303	0.437342	-0.000922	-0.515137	0.067871	-0.782959
1313.0	9.036791	0.332353	2.978535	-0.086902	0.467911	-0.04712	-0.510498	0.065674	-0.782959
1314.0	9.23256	0.372004	2.69672	-0.047437	0.492148	-0.091829	-0.508057	0.061279	-0.787354
1315.0	9.211403	0.472136	2.42584	-0.054097	0.591966	-0.129735	-0.505859	0.065674	-0.789795
1316.0	9.048651	0.567464	2.427422	-0.064921	0.699294	-0.175608	-0.496826	0.065918	-0.794434
1317.0	8.61033	0.586232	2.543694	-0.105273	0.720776	-0.227551	-0.501221	0.059082	-0.798828
1318.0	8.213087	0.523806	2.744688	-0.115046	0.635156	-0.274741	-0.487793	0.061523	-0.803711
1319.0	8.084389	0.275661	3.008618	-0.063227	0.449845	-0.323396	-0.492432	0.063721	-0.803711
1320.0	8.121636	-0.271081	3.435517	-0.068846	0.305846	-0.372047	-0.483154	0.059326	-0.819824
1321.0	7.837439	-0.666655	3.756015	-0.071645	0.156775	-0.431268	-0.492188	0.057129	-0.812744
1322.0	7.268126	-0.898752	3.897407	-0.051889	-0.012833	-0.464919	-0.489746	0.054932	-0.808105
1323.0	6.886299	-0.897469	3.91619	0.046793	-0.232195	-0.449246	-0.487549	0.054932	-0.805664
1324.0	7.226381	-0.709605	3.890415	0.208104	-0.353408	-0.345497	-0.496338	0.050293	-0.8125
1325.0	8.253793	-0.803721	3.829473	0.305071	-0.362425	-0.208052	-0.494141	0.050293	-0.807861
1326.0	9.082798	-0.627224	3.830187	0.3977	-0.237253	-0.063673	-0.493652	0.041504	-0.814453
1327.0	9.572445	-0.365305	3.563503	0.404646	-0.05488	0.063995	-0.49585	0.041504	-0.809814
1328.0	10.292621	-0.224676	2.806319	0.514283	-0.078755	0.127484	-0.493652	0.041504	-0.805176
1329.0	11.533392	-0.092274	2.550739	0.631325	-0.1639	0.155457	-0.495605	0.034912	-0.807373
1330.0	12.282204	-0.200551	2.709627	0.474004	-0.04846	0.179227	-0.5	0.032715	-0.80957
1331.0	11.924998	0.012672	2.452061	0.492676	-0.157194	0.262519	-0.502441	0.032715	-0.804932
1332.0	12.138809	1.117566	2.093241	0.72001	-0.592334	0.352689	-0.506592	0.02832	-0.804688
1333.0	13.02194	2.12637	1.751791	0.709412	-0.739184	0.443322	-0.508789	0.023926	-0.806885
1334.0	13.372073	2.086329	2.107788	0.392182	-0.207023	0.549665	-0.509033	0.02832	-0.811768
1335.0	13.009214	2.529113	4.043036	0.128868	0.600613	0.663276	-0.506836	0.030518	-0.813965
1336.0	12.682379	3.926145	7.471713	-0.09469	0.972751	0.782502	-0.493164	0.02832	-0.823242
1337.0	11.659871	4.840207	10.089695	-0.526612	0.651248	0.8844	-0.498291	0.045898	-0.826172
1338.0	10.258149	4.618698	10.308716	-0.925077	0.18408	0.916534	-0.496582	0.057129	-0.831299
1339.0	8.078919	3.474803	8.076021	-1.152953	-0.12225	0.819831	-0.501221	0.061523	-0.824463
1340.0	6.762454	1.534576	5.495079	-1.118377	-0.109885	0.707469	-0.495117	0.074707	-0.841309
1341.0	7.09478	-0.289852	4.87868	-0.814357	0.089218	0.575246	-0.495117	0.079102	-0.829834
