Acquisition frequency: 100 Hz
PacketCounter	Acc_X	Acc_Y	Acc_Z	Gyr_X	Gyr_Y	Gyr_Z	Mag_X	Mag_Y	Mag_Z
0.0	5.598939	0.060805	8.728954	-0.008571	0.005574	-0.01063	-0.614502	0.059814	-0.389404
1.0	5.591857	0.070107	8.70762	-0.00417	0.005634	-0.014278	-0.608154	0.062012	-0.394043
2.0	5.569011	0.060859	8.710728	-0.007257	0.006184	-0.01223	-0.610352	0.059814	-0.389404
3.0	5.599101	0.109771	8.694845	-0.004412	0.007106	-0.01392	-0.610352	0.059814	-0.389404
4.0	5.610788	0.03192	8.74102	-0.0068	0.004412	-0.01108	-0.610352	0.064209	-0.394043
5.0	5.566577	0.072973	8.744355	-0.003098	0.007717	-0.01552	-0.60791	0.057617	-0.391846
6.0	5.60406	0.101479	8.717532	-0.008978	0.005	-0.015516	-0.608154	0.059814	-0.39624
7.0	5.581302	0.092392	8.720575	-0.000868	0.004784	-0.014818	-0.608154	0.062012	-0.387207
8.0	5.588222	0.072153	8.709937	-0.010536	0.00586	-0.013559	-0.60791	0.057617	-0.389404
9.0	5.580233	0.092834	8.721255	-0.00463	0.007406	-0.01543	-0.614502	0.059814	-0.387207
10.0	5.615957	0.072809	8.729572	-0.008574	0.00557	-0.010633	-0.608154	0.059814	-0.391846
11.0	5.616154	0.061547	8.697381	-0.004657	0.008578	-0.013563	-0.612549	0.062012	-0.389648
12.0	5.615518	0.061684	8.697791	-0.008791	0.00587	-0.012142	-0.612549	0.059814	-0.389404
13.0	5.591622	0.063801	8.733621	-0.004018	0.011262	-0.017821	-0.612305	0.057617	-0.391846
14.0	5.607344	0.071724	8.677162	-0.004847	0.007706	-0.01694	-0.612305	0.057617	-0.389404
15.0	5.597395	0.044346	8.723725	-0.005334	0.010649	-0.016223	-0.617188	0.066406	-0.387451
16.0	5.612324	0.063465	8.69984	-0.006378	0.007393	-0.01685	-0.608154	0.059814	-0.394043
17.0	5.604081	0.084471	8.711304	-0.003804	0.010962	-0.016313	-0.612549	0.059814	-0.387207
18.0	5.574242	0.084604	8.693001	-0.005335	0.010649	-0.016224	-0.610352	0.062012	-0.391846
19.0	5.601208	0.09663	8.745187	-0.009099	0.013267	-0.016837	-0.605957	0.062012	-0.387207
20.0	5.577667	0.087275	8.74871	-0.005852	0.014763	-0.01364	-0.612305	0.057617	-0.389404
21.0	5.578319	0.06483	8.68421	-0.006651	0.010035	-0.014627	-0.610352	0.062012	-0.396484
22.0	5.59131	0.106523	8.725655	-0.007326	0.012107	-0.017287	-0.608154	0.059814	-0.39624
23.0	5.575389	0.076592	8.718119	-0.008455	0.012364	-0.012312	-0.612305	0.057617	-0.391846
24.0	5.582724	0.115873	8.705291	-0.009898	0.008537	-0.017827	-0.605713	0.057861	-0.394043
25.0	5.603344	0.065864	8.705608	-0.006897	0.011506	-0.014269	-0.612549	0.064209	-0.391846
26.0	5.585802	0.058528	8.763164	-0.009713	0.009407	-0.014451	-0.605957	0.059814	-0.387207
27.0	5.571785	0.077036	8.720419	-0.005123	0.010348	-0.014718	-0.610352	0.059814	-0.398682
28.0	5.615509	0.096296	8.715556	-0.011244	0.009093	-0.014363	-0.610352	0.059814	-0.394043
29.0	5.570017	0.077175	8.721548	-0.005154	0.011519	-0.01285	-0.612549	0.062012	-0.389648
30.0	5.591228	0.086936	8.719536	-0.00889	0.012963	-0.015333	-0.60791	0.055664	-0.394043
31.0	5.612409	0.096733	8.717548	-0.00733	0.012106	-0.01729	-0.608398	0.064209	-0.389648
32.0	5.582653	0.096586	8.699168	-0.006194	0.008262	-0.01348	-0.610352	0.059814	-0.394043
33.0	5.624762	0.067574	8.729339	-0.006655	0.010034	-0.014631	-0.610352	0.062012	-0.389648
34.0	5.587457	0.087853	8.721943	-0.006902	0.011505	-0.014272	-0.610107	0.057617	-0.389404
35.0	5.587452	0.076762	8.689942	-0.006656	0.010033	-0.014632	-0.610352	0.062012	-0.389648
36.0	5.593053	0.067873	8.712208	-0.005373	0.011819	-0.014361	-0.610596	0.066406	-0.387451
37.0	5.613416	0.089075	8.742755	-0.006657	0.010033	-0.014632	-0.610352	0.062012	-0.394043
38.0	5.592233	0.057118	8.680736	-0.006411	0.008562	-0.014992	-0.610352	0.062012	-0.391846
39.0	5.583763	0.077777	8.692303	-0.008896	0.01296	-0.015337	-0.616699	0.059814	-0.391846
40.0	5.589403	0.068678	8.714544	-0.007726	0.007945	-0.013396	-0.605713	0.057861	-0.39624
41.0	5.603379	0.098831	8.723331	-0.007974	0.009416	-0.013037	-0.608154	0.062012	-0.396484
42.0	5.581173	0.077959	8.693965	-0.008436	0.011188	-0.014187	-0.612549	0.059814	-0.38501
43.0	5.586845	0.068979	8.716181	-0.006627	0.008862	-0.016503	-0.610352	0.059814	-0.391846
44.0	5.586993	0.057725	8.684106	-0.011282	0.010255	-0.012504	-0.608154	0.059814	-0.387207
45.0	5.629507	0.088551	8.712078	-0.002962	0.013353	-0.019065	-0.614502	0.057617	-0.394043
46.0	5.577342	0.078815	8.696416	-0.009968	0.01087	-0.014102	-0.608154	0.059814	-0.391846
47.0	5.611861	0.070194	8.737618	-0.006413	0.008561	-0.014995	-0.612549	0.059814	-0.387207
48.0	5.598783	0.07735	8.662331	-0.010465	0.013811	-0.013384	-0.608154	0.062012	-0.389648
49.0	5.573371	0.090257	8.730926	-0.00691	0.011502	-0.014277	-0.60791	0.057617	-0.394043
50.0	5.602143	0.079563	8.718	-0.008688	0.012656	-0.013831	-0.612549	0.062012	-0.389648
51.0	5.594454	0.08887	8.697081	-0.007373	0.013273	-0.015428	-0.61499	0.066406	-0.396484
52.0	5.577425	0.070266	8.722202	-0.006341	0.016531	-0.014795	-0.614746	0.059814	-0.39624
53.0	5.628334	0.069214	8.70675	-0.011715	0.010852	-0.01553	-0.614502	0.059814	-0.391846
54.0	5.590954	0.089205	8.699328	-0.006911	0.011501	-0.014279	-0.612549	0.059814	-0.394043
55.0	5.588796	0.100737	8.732659	-0.005845	0.01359	-0.015515	-0.614502	0.059814	-0.389404
56.0	5.596267	0.069294	8.689819	-0.00912	0.013256	-0.016854	-0.608154	0.059814	-0.394043
57.0	5.594065	0.080627	8.723176	-0.008692	0.012654	-0.013835	-0.616699	0.057617	-0.389404
58.0	5.570715	0.071148	8.726482	-0.005598	0.012119	-0.015876	-0.605713	0.057861	-0.391846
59.0	5.614123	0.090765	8.721977	-0.008907	0.012954	-0.015346	-0.612549	0.059814	-0.398682
60.0	5.584069	0.090569	8.703735	-0.004782	0.015678	-0.016752	-0.612549	0.059814	-0.391846
61.0	5.597057	0.061126	8.71516	-0.011718	0.010847	-0.015536	-0.606201	0.064209	-0.391846
62.0	5.583009	0.079539	8.672486	-0.006915	0.0115	-0.014282	-0.612549	0.059814	-0.391846
63.0	5.558684	0.081386	8.708329	-0.00535	0.010649	-0.016237	-0.614502	0.057617	-0.389404
64.0	5.578811	0.102774	8.739018	-0.005815	0.01242	-0.017388	-0.612549	0.059814	-0.394043
65.0	5.564225	0.061838	8.698684	-0.005601	0.012119	-0.015878	-0.612549	0.059814	-0.394043
66.0	5.584269	0.082948	8.729428	-0.010441	0.012633	-0.015265	-0.612549	0.062012	-0.391846
67.0	5.577773	0.081092	8.67584	-0.005602	0.012118	-0.015879	-0.603516	0.057861	-0.389404
68.0	5.60425	0.093058	8.7283	-0.009164	0.01442	-0.014991	-0.608154	0.059814	-0.394043
69.0	5.604332	0.081914	8.696341	-0.00624	0.009425	-0.011624	-0.610352	0.059814	-0.391846
70.0	5.580028	0.08348	8.732135	-0.010406	0.011463	-0.017137	-0.608154	0.059814	-0.400879
71.0	5.586616	0.063131	8.721841	-0.008915	0.01295	-0.015352	-0.612549	0.062012	-0.398682
72.0	5.577827	0.083849	8.733537	-0.004075	0.012438	-0.015964	-0.614502	0.059814	-0.387207
73.0	5.570222	0.093516	8.712572	-0.005605	0.012118	-0.015881	-0.612549	0.062012	-0.394043
74.0	5.599199	0.083293	8.699634	-0.005102	0.009179	-0.016601	-0.612305	0.057617	-0.394043
75.0	5.576114	0.073871	8.702727	-0.008413	0.010009	-0.016074	-0.616943	0.062012	-0.391846
76.0	5.596472	0.095156	8.733267	-0.004385	0.005938	-0.015812	-0.610352	0.064209	-0.389648
77.0	5.596781	0.084351	8.701179	-0.007603	0.013569	-0.016949	-0.612549	0.059814	-0.398682
78.0	5.579996	0.065753	8.726059	-0.005356	0.010648	-0.016242	-0.608154	0.062012	-0.391846
79.0	5.587162	0.105474	8.71339	-0.006419	0.008556	-0.015009	-0.608154	0.059814	-0.389404
80.0	5.592801	0.096439	8.735604	-0.008455	0.011175	-0.014206	-0.614502	0.059814	-0.391846
81.0	5.593073	0.085327	8.703554	-0.008202	0.009705	-0.014566	-0.610352	0.059814	-0.394043
82.0	5.584188	0.04616	8.717317	-0.006887	0.010327	-0.016161	-0.608154	0.062012	-0.382813
83.0	5.597787	0.076665	8.726358	-0.005144	0.010346	-0.014733	-0.616943	0.062012	-0.387207
84.0	5.596887	0.076972	8.726933	-0.006674	0.010025	-0.014651	-0.614502	0.057617	-0.394043
85.0	5.602447	0.067946	8.749195	-0.008671	0.011475	-0.015719	-0.608154	0.062012	-0.394043
86.0	5.565999	0.07663	8.709176	-0.009432	0.015882	-0.014638	-0.614746	0.062012	-0.389648
87.0	5.615904	0.087003	8.726471	-0.00948	0.007913	-0.014847	-0.616943	0.064209	-0.396484
88.0	5.579832	0.095919	8.68621	-0.00383	0.010969	-0.016328	-0.612793	0.066406	-0.389648
89.0	5.593043	0.066666	8.697537	-0.006971	0.01266	-0.012421	-0.612549	0.064209	-0.391846
90.0	5.583024	0.098472	8.741833	-0.00536	0.010648	-0.016246	-0.608154	0.062012	-0.394043
91.0	5.568856	0.057343	8.7013	-0.008247	0.010869	-0.0127	-0.610352	0.059814	-0.39624
92.0	5.596793	0.117795	8.718918	-0.006931	0.011493	-0.014293	-0.612549	0.062012	-0.387207
93.0	5.587822	0.078561	8.732725	-0.008674	0.011473	-0.015723	-0.610352	0.062012	-0.394043
94.0	5.602359	0.097581	8.709333	-0.009012	0.015275	-0.011619	-0.614746	0.059814	-0.39624
95.0	5.578967	0.087721	8.712579	-0.010417	0.011453	-0.017153	-0.610352	0.059814	-0.391846
96.0	5.577954	0.087806	8.713227	-0.008675	0.011472	-0.015724	-0.610352	0.064209	-0.394043
97.0	5.577018	0.087952	8.713824	-0.006465	0.009721	-0.013144	-0.610352	0.064209	-0.389648
98.0	5.582591	0.078812	8.736068	-0.010206	0.011149	-0.015644	-0.606201	0.068604	-0.394287
99.0	5.590685	0.047369	8.693044	-0.006721	0.01119	-0.012784	-0.614746	0.062012	-0.394043
100.0	5.596268	0.098025	8.713243	-0.006977	0.012658	-0.012424	-0.614502	0.059814	-0.394043
101.0	5.58091	0.067792	8.705318	-0.009312	0.008773	-0.011473	-0.605957	0.062012	-0.394043
102.0	5.600853	0.08872	8.736122	-0.008934	0.01294	-0.015366	-0.60791	0.057617	-0.391846
103.0	5.572394	0.077032	8.684962	-0.01042	0.011451	-0.017158	-0.610352	0.064209	-0.391846
104.0	5.598821	0.088965	8.737422	-0.004938	0.010044	-0.013227	-0.612549	0.062012	-0.394043
105.0	5.589965	0.049761	8.751135	-0.008679	0.011471	-0.015728	-0.605957	0.062012	-0.387207
106.0	5.589035	0.109645	8.749685	-0.00868	0.01147	-0.015728	-0.605957	0.059814	-0.389404
107.0	5.597157	0.078376	8.706677	-0.007151	0.011794	-0.015809	-0.612549	0.062012	-0.389648
108.0	5.588228	0.098956	8.718391	-0.007408	0.013262	-0.015449	-0.608398	0.064209	-0.398682
109.0	5.579341	0.059688	8.73212	-0.006257	0.009417	-0.011637	-0.608154	0.059814	-0.389404
110.0	5.594072	0.078874	8.708655	-0.008938	0.012937	-0.015369	-0.608154	0.059814	-0.394043
111.0	5.593187	0.079112	8.709221	-0.004427	0.007107	-0.013951	-0.605957	0.059814	-0.391846
112.0	5.592331	0.079248	8.70977	-0.010256	0.01231	-0.013779	-0.608154	0.059814	-0.39624
113.0	5.589916	0.090385	8.743107	-0.006941	0.01149	-0.0143	-0.612549	0.062012	-0.38501
114.0	5.598107	0.059185	8.700088	-0.007154	0.011793	-0.015812	-0.605957	0.062012	-0.391846
115.0	5.611485	0.089648	8.709291	-0.006684	0.010022	-0.014662	-0.608398	0.064209	-0.391846
116.0	5.596347	0.059627	8.701218	-0.007956	0.008229	-0.014944	-0.610352	0.059814	-0.389404
117.0	5.595532	0.119585	8.699686	-0.006685	0.010021	-0.014663	-0.610352	0.062012	-0.394043
118.0	5.594663	0.060021	8.702298	-0.008427	0.009999	-0.016095	-0.60791	0.057617	-0.394043
119.0	5.592286	0.071165	8.735596	-0.008519	0.012329	-0.01235	-0.614746	0.062012	-0.389648
120.0	5.562657	0.070551	8.716971	-0.006474	0.009718	-0.013152	-0.610352	0.059814	-0.389404
121.0	5.590377	0.071405	8.736816	-0.006945	0.011489	-0.014302	-0.610352	0.064209	-0.394043
122.0	5.613036	0.070383	8.702341	-0.008216	0.009696	-0.014585	-0.608154	0.059814	-0.389404
123.0	5.574136	0.101271	8.727381	-0.007158	0.011791	-0.015815	-0.612549	0.064209	-0.398682
124.0	5.58745	0.071986	8.738683	-0.007159	0.011791	-0.015815	-0.612549	0.064209	-0.391846
125.0	5.595696	0.10043	8.69362	-0.011747	0.010814	-0.01558	-0.612793	0.066406	-0.396484
126.0	5.586963	0.061045	8.707236	-0.004947	0.010043	-0.013232	-0.616699	0.059814	-0.394043
127.0	5.576611	0.092605	8.751576	-0.008949	0.012933	-0.015376	-0.612549	0.064209	-0.391846
128.0	5.57851	0.070534	8.686856	-0.008006	0.009391	-0.013076	-0.610352	0.062012	-0.391846
129.0	5.58402	0.121166	8.707057	-0.006477	0.009717	-0.013155	-0.612549	0.059814	-0.389404
130.0	5.605452	0.071471	8.707219	-0.008219	0.009694	-0.014589	-0.610352	0.064209	-0.391846
131.0	5.582441	0.061562	8.710133	-0.009748	0.009368	-0.014511	-0.616943	0.062012	-0.398682
132.0	5.595834	0.091897	8.719333	-0.006691	0.01002	-0.014668	-0.605957	0.059814	-0.391846
133.0	5.57911	0.072829	8.744003	-0.010694	0.012908	-0.016813	-0.608154	0.062012	-0.396484
134.0	5.593897	0.092098	8.720573	-0.006007	0.007946	-0.012006	-0.614746	0.062012	-0.398682
135.0	5.577521	0.073098	8.745015	-0.007912	0.007062	-0.016827	-0.610352	0.059814	-0.39624
136.0	5.593917	0.081379	8.688827	-0.00827	0.010856	-0.012717	-0.610596	0.068604	-0.389648
137.0	5.583762	0.053009	8.735071	-0.006481	0.009716	-0.013157	-0.61499	0.066406	-0.394287
138.0	5.592235	0.081588	8.689907	-0.007749	0.007922	-0.013442	-0.612793	0.066406	-0.396484
139.0	5.597991	0.072419	8.71201	-0.00775	0.007922	-0.013442	-0.610352	0.064209	-0.398682
140.0	5.597122	0.072624	8.712567	-0.005426	0.011814	-0.014385	-0.610352	0.064209	-0.396484
141.0	5.589762	0.081953	8.691495	-0.009328	0.008757	-0.011492	-0.608154	0.059814	-0.389404
142.0	5.593943	0.083784	8.746323	-0.006433	0.008552	-0.015033	-0.610352	0.059814	-0.391846
143.0	5.609144	0.043384	8.724724	-0.009492	0.007897	-0.014879	-0.610352	0.064209	-0.394043
144.0	5.587304	0.082178	8.693073	-0.007269	0.014116	-0.012072	-0.612549	0.062012	-0.394043
145.0	5.599145	0.06378	8.737059	-0.008437	0.009995	-0.016107	-0.610352	0.064209	-0.389648
146.0	5.582175	0.1045	8.759776	-0.00548	0.012977	-0.012511	-0.610352	0.062012	-0.394043
147.0	5.592207	0.062409	8.684012	-0.008437	0.009994	-0.016108	-0.608154	0.062012	-0.396484
148.0	5.58971	0.073666	8.717315	-0.00543	0.011813	-0.014387	-0.608154	0.062012	-0.391846
149.0	5.582302	0.083203	8.696276	-0.006697	0.010018	-0.014673	-0.608398	0.064209	-0.394043
150.0	5.616394	0.074915	8.737873	-0.00696	0.011485	-0.014311	-0.606201	0.066406	-0.394287
151.0	5.581865	0.072418	8.664862	-0.012021	0.012269	-0.015234	-0.610352	0.062012	-0.396484
152.0	5.585693	0.074193	8.719885	-0.007173	0.011789	-0.015824	-0.610352	0.062012	-0.389648
153.0	5.614821	0.064149	8.707195	-0.008702	0.01146	-0.015749	-0.612549	0.059814	-0.391846
154.0	5.596472	0.056002	8.764535	-0.007225	0.012951	-0.01395	-0.604004	0.064209	-0.394043
155.0	5.604595	0.084653	8.719657	-0.008966	0.012925	-0.015387	-0.610352	0.062012	-0.391846
156.0	5.597399	0.034086	8.700576	-0.010072	0.011988	-0.012287	-0.614746	0.062012	-0.391846
157.0	5.588256	0.054375	8.712336	-0.00765	0.013559	-0.016976	-0.610352	0.059814	-0.39624
158.0	5.593086	0.105407	8.732929	-0.003275	0.014851	-0.018715	-0.608154	0.062012	-0.387207
159.0	5.599891	0.085589	8.72267	-0.008968	0.012924	-0.01539	-0.612793	0.066406	-0.389648
160.0	5.58464	0.055497	8.714648	-0.0057	0.013279	-0.014027	-0.610596	0.068604	-0.391846
161.0	5.599195	0.074986	8.691452	-0.008969	0.012923	-0.015391	-0.608154	0.062012	-0.394043
162.0	5.574319	0.075955	8.727145	-0.008758	0.012619	-0.013879	-0.608154	0.062012	-0.394043
163.0	5.581269	0.05596	8.716804	-0.00586	0.012421	-0.017417	-0.610352	0.062012	-0.400879
164.0	5.58766	0.095765	8.704731	-0.009711	0.016159	-0.01618	-0.610596	0.066406	-0.389648
165.0	5.594534	0.075565	8.694448	-0.008284	0.010848	-0.01273	-0.612549	0.064209	-0.394043
166.0	5.56978	0.076553	8.730038	-0.006967	0.011482	-0.014318	-0.608398	0.066406	-0.394287
167.0	5.598966	0.066587	8.717381	-0.006968	0.011482	-0.014318	-0.608398	0.064209	-0.394043
168.0	5.589838	0.087135	8.729101	-0.005861	0.012421	-0.017419	-0.610352	0.062012	-0.389648
169.0	5.588781	0.087426	8.729775	-0.008708	0.011455	-0.015758	-0.612793	0.066406	-0.389648
170.0	5.581721	0.037122	8.71063	-0.007656	0.013556	-0.016983	-0.610352	0.062012	-0.394043
171.0	5.616668	0.077618	8.71797	-0.00903	0.014081	-0.01352	-0.608398	0.066406	-0.396484
172.0	5.607357	0.097957	8.729802	-0.007657	0.013556	-0.016984	-0.608398	0.068604	-0.396484
173.0	5.585904	0.077127	8.699981	-0.006283	0.009406	-0.011657	-0.608154	0.062012	-0.389648
174.0	5.578418	0.08657	8.679013	-0.007924	0.015021	-0.016622	-0.608154	0.062012	-0.391846
175.0	5.561457	0.06743	8.703699	-0.009398	0.013528	-0.018425	-0.608398	0.064209	-0.391846
176.0	5.587118	0.07936	8.756581	-0.007238	0.012946	-0.013959	-0.610352	0.064209	-0.391846
177.0	5.581309	0.077977	8.702923	-0.005654	0.012116	-0.015909	-0.606201	0.064209	-0.394043
178.0	5.580242	0.078372	8.703603	-0.005655	0.012116	-0.015909	-0.610352	0.059814	-0.400879
179.0	5.585582	0.069459	8.72594	-0.007394	0.012088	-0.01735	-0.612549	0.064209	-0.396484
180.0	5.600248	0.089103	8.702737	-0.006974	0.011479	-0.014324	-0.606201	0.064209	-0.394043
181.0	5.59151	0.049774	8.716296	-0.006191	0.015046	-0.015184	-0.608398	0.064209	-0.391846
182.0	5.582052	0.070237	8.728193	-0.00793	0.015018	-0.016626	-0.604004	0.066406	-0.394287
183.0	5.618578	0.100119	8.70296	-0.006345	0.01419	-0.018575	-0.610352	0.064209	-0.394043
184.0	5.581305	0.060071	8.697072	-0.005715	0.013276	-0.014035	-0.605957	0.059814	-0.391846
185.0	5.584769	0.062021	8.752195	-0.005926	0.01358	-0.015549	-0.608154	0.059814	-0.391846
186.0	5.615014	0.10109	8.705249	-0.007244	0.012942	-0.013964	-0.610352	0.062012	-0.391846
187.0	5.584234	0.051737	8.720948	-0.004341	0.012753	-0.017499	-0.610352	0.064209	-0.400879
188.0	5.5987	0.071417	8.697903	-0.009311	0.015539	-0.013167	-0.606201	0.068604	-0.391846
189.0	5.560885	0.090946	8.690213	-0.003653	0.010678	-0.014835	-0.616943	0.062012	-0.391846
190.0	5.566301	0.081946	8.712492	-0.010454	0.011419	-0.017214	-0.605957	0.059814	-0.391846
191.0	5.593685	0.083017	8.732684	-0.005929	0.013579	-0.015552	-0.605957	0.062012	-0.396484
192.0	5.579895	0.101733	8.690014	-0.009767	0.009344	-0.014551	-0.610596	0.066406	-0.394287
193.0	5.591644	0.083398	8.733988	-0.004402	0.013913	-0.015623	-0.608154	0.059814	-0.394043
194.0	5.59236	0.072717	8.701969	-0.010036	0.010808	-0.014189	-0.610352	0.062012	-0.398682
195.0	5.57386	0.064207	8.759131	-0.006981	0.011475	-0.014331	-0.608154	0.062012	-0.398682
196.0	5.596833	0.063674	8.724854	-0.006502	0.009705	-0.013181	-0.605957	0.060059	-0.39624
197.0	5.589489	0.07324	8.703809	-0.005663	0.012114	-0.015917	-0.604004	0.064209	-0.394043
198.0	5.588486	0.073659	8.70445	-0.005394	0.010649	-0.01628	-0.60791	0.053467	-0.394043
199.0	5.579297	0.09406	8.716131	-0.010458	0.011415	-0.01722	-0.608154	0.062012	-0.396484
200.0	5.586491	0.074095	8.705727	-0.005455	0.011809	-0.014404	-0.608398	0.068604	-0.391846
201.0	5.58365	0.085085	8.739084	-0.01004	0.010804	-0.014193	-0.605957	0.059814	-0.394043
202.0	5.621254	0.055121	8.715424	-0.005186	0.010344	-0.014768	-0.608398	0.068604	-0.389648
203.0	5.581826	0.085462	8.740246	-0.008242	0.009674	-0.014628	-0.608154	0.059814	-0.39624
204.0	5.552419	0.084728	8.721319	-0.007195	0.011779	-0.015849	-0.60376	0.060059	-0.39624
205.0	5.57372	0.095011	8.719689	-0.00881	0.005799	-0.012258	-0.608398	0.066406	-0.394287
206.0	5.58957	0.054825	8.697967	-0.006445	0.008545	-0.015062	-0.605713	0.057861	-0.39624
207.0	5.594299	0.105481	8.718523	-0.006568	0.010863	-0.011307	-0.608154	0.059814	-0.391846
208.0	5.585913	0.06599	8.731833	-0.008663	0.010284	-0.017658	-0.606201	0.066406	-0.389648
209.0	5.570351	0.095524	8.721836	-0.008307	0.010832	-0.012752	-0.60376	0.062012	-0.394043
210.0	5.601807	0.074784	8.676419	-0.00923	0.006409	-0.015289	-0.60791	0.057617	-0.389404
211.0	5.577183	0.075607	8.71168	-0.004709	0.008575	-0.013619	-0.60791	0.057861	-0.398682
212.0	5.590208	0.106116	8.721139	-0.007827	0.009062	-0.011603	-0.608154	0.062012	-0.391846
213.0	5.569378	0.084999	8.690938	-0.008812	0.005797	-0.012261	-0.608398	0.066406	-0.401123
214.0	5.583353	0.055553	8.701955	-0.008037	0.009367	-0.013117	-0.606201	0.064209	-0.391846
215.0	5.618451	0.096159	8.709317	-0.009503	0.007872	-0.014927	-0.606201	0.064209	-0.394043
216.0	5.581992	0.05557	8.702828	-0.007075	0.005827	-0.010817	-0.605957	0.062012	-0.394043
217.0	5.593237	0.096849	8.744936	-0.006239	0.008239	-0.013551	-0.605957	0.062012	-0.394043
218.0	5.594389	0.086083	8.712694	-0.009567	0.00903	-0.01305	-0.606201	0.066406	-0.394287
219.0	5.606313	0.067413	8.75653	-0.009777	0.009335	-0.014565	-0.606201	0.064209	-0.398682
220.0	5.594743	0.075221	8.680972	-0.007768	0.007902	-0.013483	-0.608154	0.062012	-0.396484
221.0	5.606688	0.056777	8.724791	-0.006722	0.010008	-0.014702	-0.60376	0.062012	-0.394043
222.0	5.560776	0.096245	8.727936	-0.00846	0.009977	-0.016149	-0.60376	0.062012	-0.391846
223.0	5.598492	0.066202	8.704311	-0.011643	0.011618	-0.012255	-0.608154	0.062012	-0.400879
224.0	5.589343	0.086374	8.71593	-0.004649	0.007418	-0.0155	-0.60791	0.057617	-0.391846
225.0	5.594807	0.077338	8.738159	-0.009008	0.012904	-0.015422	-0.608398	0.064209	-0.389648
226.0	5.587276	0.086857	8.71725	-0.005953	0.013579	-0.015558	-0.610352	0.062012	-0.391846
227.0	5.586137	0.086968	8.717979	-0.010327	0.01226	-0.01384	-0.60791	0.057861	-0.39624
228.0	5.599857	0.05755	8.729172	-0.008252	0.00967	-0.014637	-0.605957	0.062012	-0.394043
229.0	5.584235	0.087063	8.719196	-0.008736	0.011439	-0.015788	-0.60376	0.060059	-0.391846
230.0	5.583033	0.087116	8.719965	-0.009559	0.015829	-0.014695	-0.601563	0.060059	-0.39624
231.0	5.559755	0.076985	8.7228	-0.007418	0.012083	-0.017371	-0.605957	0.060059	-0.398682
232.0	5.587129	0.078183	8.743063	-0.006792	0.011165	-0.012827	-0.604004	0.068604	-0.396484
233.0	5.581853	0.076796	8.689253	-0.009991	0.009637	-0.016088	-0.605713	0.057861	-0.391846
234.0	5.609383	0.077912	8.709424	-0.006727	0.010007	-0.014707	-0.605957	0.059814	-0.387207
235.0	5.606522	0.088782	8.742716	-0.009783	0.00933	-0.014574	-0.60376	0.062012	-0.396484
236.0	5.58548	0.067871	8.712654	-0.005959	0.013579	-0.01556	-0.60376	0.062012	-0.391846
237.0	5.590792	0.058849	8.734972	-0.006728	0.010007	-0.014708	-0.605957	0.060059	-0.400879
238.0	5.605536	0.078616	8.711894	-0.010477	0.011405	-0.017241	-0.605957	0.060059	-0.39624
239.0	5.582428	0.068368	8.714606	-0.009016	0.0129	-0.015428	-0.605957	0.059814	-0.389404
240.0	5.587703	0.059184	8.736947	-0.007005	0.01147	-0.014345	-0.603516	0.057861	-0.391846
241.0	5.579265	0.12843	8.714449	-0.008742	0.011437	-0.015794	-0.60791	0.057617	-0.391846
242.0	5.60348	0.068376	8.681779	-0.008466	0.009974	-0.016159	-0.605957	0.062012	-0.389648
243.0	5.606804	0.070085	8.736806	-0.005688	0.012115	-0.015927	-0.608154	0.062012	-0.398682
244.0	5.577422	0.069195	8.717804	-0.011798	0.010756	-0.015664	-0.60791	0.057617	-0.389404
245.0	5.568009	0.089443	8.729543	-0.002217	0.012182	-0.013029	-0.610352	0.062012	-0.389648
246.0	5.575211	0.069506	8.719215	-0.012629	0.015143	-0.014571	-0.608154	0.062012	-0.391846
247.0	5.589827	0.089231	8.696249	-0.006872	0.009157	-0.018108	-0.605957	0.059814	-0.391846
248.0	5.581612	0.049655	8.709406	-0.010341	0.012251	-0.013852	-0.60791	0.057617	-0.391846
249.0	5.59212	0.090709	8.751916	-0.008329	0.010821	-0.012767	-0.60376	0.062012	-0.387207
250.0	5.593235	0.080005	8.719784	-0.008537	0.011128	-0.014283	-0.605957	0.059814	-0.394043
251.0	5.622737	0.070493	8.707309	-0.006942	0.010313	-0.016229	-0.610352	0.059814	-0.394043
252.0	5.591298	0.080531	8.721022	-0.005692	0.012116	-0.01593	-0.60791	0.055664	-0.391602
253.0	5.590316	0.080585	8.721651	-0.011385	0.010138	-0.012639	-0.612305	0.057617	-0.394043
254.0	5.561049	0.079624	8.702556	-0.005415	0.010653	-0.016295	-0.60376	0.060059	-0.394043
255.0	5.59683	0.060814	8.711784	-0.008609	0.012282	-0.012405	-0.610107	0.057617	-0.389404
256.0	5.581073	0.09027	8.701859	-0.006735	0.010005	-0.014716	-0.610352	0.059814	-0.391846
257.0	5.594985	0.061073	8.712967	-0.008263	0.009664	-0.014652	-0.610352	0.059814	-0.391846
258.0	5.557275	0.080134	8.704962	-0.008541	0.011126	-0.014287	-0.610352	0.062012	-0.387207
259.0	5.593077	0.061309	8.714191	-0.005279	0.011502	-0.0129	-0.605713	0.053467	-0.394043
260.0	5.605738	0.091992	8.723906	-0.006458	0.008543	-0.015083	-0.612549	0.059814	-0.394043
261.0	5.582908	0.081863	8.726382	-0.006737	0.010005	-0.014718	-0.60376	0.060059	-0.391846
262.0	5.559949	0.071422	8.72894	-0.011669	0.011596	-0.012279	-0.608154	0.059814	-0.391846
263.0	5.583161	0.071304	8.694837	-0.00382	0.009841	-0.018243	-0.605957	0.059814	-0.391846
264.0	5.580156	0.082347	8.728138	-0.008057	0.009355	-0.013139	-0.612549	0.059814	-0.391846
265.0	5.557268	0.072213	8.730641	-0.003684	0.010689	-0.014847	-0.603516	0.055664	-0.394043
266.0	5.617349	0.053292	8.705125	-0.008266	0.009661	-0.014656	-0.605713	0.057861	-0.391846
267.0	5.579701	0.072303	8.697049	-0.008059	0.009354	-0.01314	-0.605713	0.057861	-0.394043
268.0	5.605009	0.084378	8.750068	-0.003614	0.009534	-0.016729	-0.601318	0.055664	-0.389404
269.0	5.614824	0.054125	8.706748	-0.00674	0.010003	-0.014721	-0.605957	0.062012	-0.387207
270.0	5.596836	0.094232	8.729596	-0.00862	0.012277	-0.012411	-0.601563	0.059814	-0.38501
271.0	5.598172	0.083665	8.697379	-0.007916	0.007044	-0.016905	-0.605713	0.055664	-0.391602
272.0	5.581586	0.064169	8.721535	-0.007718	0.013541	-0.017023	-0.610107	0.057617	-0.39624
273.0	5.604744	0.064158	8.687516	-0.008477	0.009967	-0.016175	-0.60791	0.057617	-0.394043
274.0	5.59749	0.073647	8.666466	-0.008758	0.011428	-0.01581	-0.60791	0.05542	-0.389404
275.0	5.594132	0.08445	8.69997	-0.007793	0.014695	-0.015142	-0.605957	0.059814	-0.387207
276.0	5.599309	0.07522	8.722354	-0.008551	0.01112	-0.014295	-0.610352	0.059814	-0.389404
277.0	5.592128	0.084766	8.701256	-0.004728	0.008577	-0.013636	-0.610352	0.062012	-0.391846
278.0	5.57541	0.065007	8.725478	-0.012657	0.015124	-0.01459	-0.60791	0.057617	-0.391846
279.0	5.574241	0.064956	8.726225	-0.007025	0.011464	-0.014359	-0.614502	0.057617	-0.389404
280.0	5.608647	0.106001	8.734203	-0.00876	0.011427	-0.015813	-0.603516	0.057861	-0.389404
281.0	5.600589	0.066324	8.747229	-0.008272	0.009658	-0.014663	-0.608154	0.062012	-0.389648
282.0	5.586982	0.085106	8.704557	-0.009043	0.012888	-0.015448	-0.60791	0.05542	-0.389404
283.0	5.598533	0.066473	8.748544	-0.008554	0.011119	-0.014298	-0.612549	0.062012	-0.391846
284.0	5.576208	0.105326	8.717091	-0.006272	0.015038	-0.015207	-0.601563	0.057861	-0.389404
285.0	5.589944	0.076335	8.728349	-0.007161	0.010617	-0.01776	-0.603516	0.057861	-0.391846
286.0	5.597323	0.056675	8.717993	-0.006556	0.016498	-0.014842	-0.60376	0.059814	-0.387207
287.0	5.596189	0.056821	8.71872	-0.008066	0.009349	-0.013151	-0.610352	0.064209	-0.389648
288.0	5.586549	0.076889	8.730517	-0.007802	0.014692	-0.015147	-0.60791	0.057617	-0.387207
289.0	5.576745	0.096974	8.742414	-0.009047	0.012886	-0.015453	-0.608154	0.059814	-0.394043
290.0	5.586558	0.066495	8.699204	-0.008764	0.011425	-0.015819	-0.610352	0.059814	-0.394043
291.0	5.552686	0.086691	8.745597	-0.008765	0.011425	-0.01582	-0.610107	0.057617	-0.389404
292.0	5.590828	0.057414	8.722155	-0.008973	0.011732	-0.017337	-0.605957	0.059814	-0.389404
293.0	5.596838	0.097326	8.710456	-0.006901	0.012306	-0.010965	-0.605957	0.062012	-0.391846
294.0	5.595762	0.097495	8.711145	-0.007446	0.012078	-0.017399	-0.608154	0.059814	-0.387207
295.0	5.579015	0.077764	8.735326	-0.008636	0.012268	-0.012422	-0.603516	0.057861	-0.394043
296.0	5.571745	0.087173	8.714298	-0.008483	0.009963	-0.016189	-0.603516	0.057861	-0.389404
297.0	5.585708	0.058041	8.725431	-0.007034	0.011461	-0.014366	-0.608154	0.059814	-0.391846
298.0	5.57835	0.067567	8.704461	-0.007318	0.012922	-0.014	-0.612305	0.057617	-0.389404
299.0	5.596889	0.088801	8.736103	-0.008768	0.011423	-0.015824	-0.60791	0.057617	-0.391846
300.0	5.576275	0.067818	8.705789	-0.008769	0.011423	-0.015824	-0.60791	0.055664	-0.391602
301.0	5.581425	0.058529	8.728168	-0.009338	0.014343	-0.015092	-0.610107	0.057617	-0.389404
302.0	5.595962	0.07853	8.705425	-0.007036	0.011461	-0.014368	-0.60791	0.057617	-0.389404
303.0	5.572878	0.068073	8.707962	-0.011073	0.014304	-0.016551	-0.608154	0.059814	-0.387207
304.0	5.599942	0.069454	8.728553	-0.003984	0.012154	-0.014488	-0.610352	0.062012	-0.394043
305.0	5.579321	0.048709	8.698245	-0.007244	0.011768	-0.015887	-0.612549	0.062012	-0.396484
306.0	5.591602	0.079336	8.708218	-0.008565	0.011113	-0.014311	-0.605957	0.059814	-0.389404
307.0	5.590532	0.079435	8.708905	-0.009264	0.013189	-0.016979	-0.614502	0.057617	-0.394043
308.0	5.583032	0.088957	8.688036	-0.007817	0.014688	-0.015155	-0.60791	0.057617	-0.389404
309.0	5.563809	0.07973	8.745001	-0.008773	0.01142	-0.01583	-0.614502	0.059814	-0.394043
310.0	5.593228	0.070414	8.732849	-0.009631	0.0158	-0.014731	-0.603516	0.057861	-0.391846
311.0	5.622527	0.06103	8.720786	-0.011078	0.014301	-0.016556	-0.605713	0.055664	-0.389404
312.0	5.578204	0.089305	8.691133	-0.00572	0.012116	-0.015949	-0.605957	0.059814	-0.391846
313.0	5.589605	0.070894	8.735165	-0.00774	0.013536	-0.017041	-0.614502	0.057617	-0.394043
314.0	5.553996	0.079435	8.694353	-0.005928	0.012424	-0.017467	-0.610107	0.057617	-0.389404
315.0	5.600526	0.102182	8.746004	-0.006215	0.013884	-0.017101	-0.605957	0.059814	-0.389404
316.0	5.582272	0.070918	8.68296	-0.006009	0.013575	-0.015584	-0.610352	0.059814	-0.394043
317.0	5.598072	0.10275	8.747568	-0.00935	0.014337	-0.015102	-0.610107	0.057617	-0.387207
318.0	5.571076	0.091004	8.695686	-0.011083	0.014297	-0.016562	-0.605713	0.055664	-0.394043
319.0	5.591117	0.052369	8.728627	-0.009064	0.012877	-0.01547	-0.60791	0.05542	-0.389404
320.0	5.574971	0.081852	8.718851	-0.006012	0.013575	-0.015585	-0.605713	0.057617	-0.387207
321.0	5.5826	0.062224	8.708418	-0.007045	0.011457	-0.014378	-0.610107	0.057617	-0.39624
322.0	5.581516	0.062424	8.709111	-0.007539	0.013225	-0.015529	-0.612549	0.059814	-0.391846
323.0	5.599879	0.083671	8.740854	-0.008572	0.011107	-0.014321	-0.610107	0.057617	-0.391846
324.0	5.564461	0.091909	8.699911	-0.008779	0.011416	-0.015839	-0.601563	0.060059	-0.389404
325.0	5.578542	0.062751	8.711014	-0.006347	0.009379	-0.011711	-0.610107	0.057617	-0.389404
326.0	5.599482	0.073453	8.709914	-0.009068	0.012875	-0.015473	-0.610107	0.057617	-0.387207
327.0	5.595936	0.08421	8.743374	-0.005439	0.010656	-0.016321	-0.60791	0.05542	-0.389404
328.0	5.591163	0.083352	8.689586	-0.009069	0.012874	-0.015475	-0.610107	0.05542	-0.389404
329.0	5.60512	0.054158	8.700779	-0.008575	0.011106	-0.014324	-0.609863	0.053467	-0.389404
330.0	5.573419	0.063629	8.714286	-0.005729	0.012115	-0.015956	-0.605713	0.055664	-0.391602
331.0	5.563545	0.083733	8.726129	-0.009071	0.012874	-0.015476	-0.610107	0.05542	-0.389404
332.0	5.593271	0.07474	8.713893	-0.004946	0.008888	-0.015173	-0.605957	0.059814	-0.394043
333.0	5.570368	0.064257	8.716232	-0.00895	0.013713	-0.012074	-0.614502	0.059814	-0.387207
334.0	5.610435	0.096139	8.7464	-0.00602	0.013574	-0.01559	-0.610352	0.059814	-0.389404
335.0	5.583801	0.084662	8.694306	-0.008494	0.009954	-0.016213	-0.610352	0.059814	-0.394043
336.0	5.595333	0.066028	8.738222	-0.008784	0.011413	-0.015846	-0.60791	0.057617	-0.389404
337.0	5.59689	0.055678	8.706065	-0.008785	0.011413	-0.015847	-0.605713	0.055664	-0.389404
338.0	5.593351	0.066425	8.739488	-0.005443	0.010656	-0.016326	-0.608154	0.059814	-0.389404
339.0	5.586155	0.076061	8.718445	-0.00858	0.011103	-0.01433	-0.616699	0.059814	-0.389404
340.0	5.58266	0.086597	8.751834	-0.00829	0.009644	-0.014697	-0.60791	0.057617	-0.389404
341.0	5.608699	0.076533	8.685206	-0.007756	0.013532	-0.017055	-0.610352	0.059814	-0.391846
342.0	5.583116	0.076555	8.720387	-0.007056	0.011454	-0.014386	-0.610352	0.059814	-0.389404
343.0	5.560154	0.066271	8.722737	-0.004415	0.012776	-0.017533	-0.612549	0.059814	-0.394043
344.0	5.616086	0.118516	8.729466	-0.006064	0.007917	-0.012085	-0.605713	0.057861	-0.394043
345.0	5.56098	0.056386	8.691062	-0.007262	0.011762	-0.015906	-0.60791	0.057617	-0.38501
346.0	5.579255	0.077668	8.722848	-0.008584	0.0111	-0.014333	-0.608154	0.062012	-0.387207
347.0	5.572034	0.087182	8.701827	-0.007058	0.011453	-0.014388	-0.612305	0.057617	-0.387207
348.0	5.599263	0.088711	8.722393	-0.006476	0.008535	-0.015124	-0.605957	0.059814	-0.38501
349.0	5.579184	0.067838	8.691761	-0.006768	0.009994	-0.014757	-0.612549	0.059814	-0.387207
350.0	5.581834	0.069087	8.746827	-0.00706	0.011452	-0.01439	-0.616699	0.057617	-0.39624
351.0	5.599057	0.078883	8.691404	-0.009083	0.012867	-0.015487	-0.605957	0.059814	-0.391846
352.0	5.595472	0.089492	8.724817	-0.006477	0.008535	-0.015126	-0.60791	0.055664	-0.391602
353.0	5.581592	0.059126	8.715859	-0.008587	0.011099	-0.014337	-0.614502	0.059814	-0.394043
354.0	5.580662	0.059303	8.716452	-0.005039	0.010036	-0.013294	-0.608154	0.062012	-0.394043
355.0	5.601722	0.070274	8.715342	-0.008208	0.008492	-0.016592	-0.612549	0.059814	-0.389404
356.0	5.594546	0.079889	8.694299	-0.007561	0.013219	-0.015543	-0.599365	0.060059	-0.391846
357.0	5.593494	0.07992	8.694976	-0.011846	0.0107	-0.01575	-0.612305	0.057617	-0.391846
358.0	5.577052	0.059916	8.718759	-0.004454	0.00712	-0.014031	-0.605957	0.059814	-0.389404
359.0	5.569956	0.069552	8.697664	-0.009089	0.012865	-0.015491	-0.610352	0.059814	-0.394043
360.0	5.597036	0.071032	8.718346	-0.006772	0.009992	-0.014761	-0.60376	0.059814	-0.387207
361.0	5.574286	0.060532	8.720523	-0.006773	0.009992	-0.014762	-0.612549	0.059814	-0.394043
362.0	5.586382	0.091241	8.730622	-0.008299	0.009638	-0.014709	-0.612549	0.059814	-0.389404
363.0	5.603282	0.051708	8.708892	-0.008593	0.011096	-0.014341	-0.610352	0.062012	-0.389648
364.0	5.595989	0.061317	8.687932	-0.00604	0.013572	-0.015599	-0.608154	0.059814	-0.398682
365.0	5.564331	0.07064	8.701255	-0.005776	0.006456	-0.012461	-0.60791	0.057617	-0.389404
366.0	5.576453	0.101444	8.711337	-0.007478	0.01207	-0.017434	-0.605957	0.059814	-0.389404
367.0	5.590514	0.072369	8.722518	-0.008684	0.012242	-0.012457	-0.612549	0.062012	-0.391846
368.0	5.589598	0.072479	8.723105	-0.006481	0.008534	-0.015132	-0.614502	0.057617	-0.391846
369.0	5.582556	0.082214	8.701981	-0.00525	0.010346	-0.014817	-0.605713	0.055664	-0.394043
370.0	5.566041	0.062205	8.725776	-0.009827	0.009281	-0.014661	-0.608154	0.062012	-0.396484
371.0	5.617826	0.064084	8.711999	-0.006981	0.010301	-0.016285	-0.610352	0.059814	-0.387207
372.0	5.592835	0.113337	8.713243	-0.006777	0.009991	-0.014766	-0.612549	0.064209	-0.391846
373.0	5.58519	0.073544	8.725919	-0.008803	0.011403	-0.015865	-0.60791	0.055664	-0.391602
374.0	5.615016	0.06456	8.713807	-0.010124	0.010737	-0.014295	-0.60791	0.055664	-0.394043
375.0	5.555246	0.072302	8.707044	-0.005048	0.010036	-0.0133	-0.610352	0.059814	-0.391846
376.0	5.60137	0.095035	8.759028	-0.00737	0.012905	-0.014031	-0.605957	0.062012	-0.389648
377.0	5.577764	0.073146	8.673993	-0.007279	0.011758	-0.015919	-0.610352	0.059814	-0.394043
378.0	5.589146	0.0545	8.717955	-0.008805	0.011402	-0.015868	-0.610352	0.062012	-0.394043
379.0	5.625595	0.085505	8.693852	-0.010423	0.012193	-0.01393	-0.608398	0.066406	-0.391846
380.0	5.608833	0.065367	8.717782	-0.005847	0.013261	-0.014084	-0.610107	0.057617	-0.38501
381.0	5.576984	0.074327	8.731159	-0.011449	0.010068	-0.012729	-0.612549	0.059814	-0.387207
382.0	5.606987	0.065365	8.718969	-0.006484	0.008533	-0.015138	-0.612305	0.057617	-0.389404
383.0	5.578048	0.064282	8.69944	-0.007486	0.012069	-0.017441	-0.610107	0.05542	-0.389404
384.0	5.574287	0.074896	8.732876	-0.004847	0.009725	-0.011783	-0.610352	0.059814	-0.389404
385.0	5.597995	0.075587	8.699109	-0.007078	0.011447	-0.014403	-0.605957	0.062012	-0.391846
386.0	5.597019	0.075642	8.699736	-0.01013	0.010733	-0.014302	-0.608154	0.062012	-0.391846
387.0	5.580387	0.055518	8.723558	-0.005554	0.011803	-0.014454	-0.605713	0.057861	-0.391846
388.0	5.623055	0.077286	8.721137	-0.010131	0.010732	-0.014303	-0.605713	0.053467	-0.389404
389.0	5.563094	0.085039	8.714409	-0.004735	0.014239	-0.017176	-0.614502	0.057617	-0.391846
390.0	5.592997	0.076593	8.702314	-0.004459	0.007122	-0.014041	-0.610352	0.062012	-0.387207
391.0	5.614003	0.087722	8.70132	-0.007082	0.011446	-0.014405	-0.60791	0.057617	-0.391846
392.0	5.597343	0.067648	8.725146	-0.009015	0.01171	-0.017395	-0.605957	0.062012	-0.387207
393.0	5.574502	0.056959	8.72731	-0.008812	0.011399	-0.015876	-0.608154	0.059814	-0.391846
394.0	5.586217	0.087633	8.737658	-0.009111	0.012855	-0.015508	-0.614746	0.062012	-0.391846
395.0	5.590786	0.067164	8.672735	-0.007586	0.013213	-0.015558	-0.612793	0.066406	-0.389648
396.0	5.562094	0.077056	8.740628	-0.009112	0.012854	-0.015509	-0.612549	0.059814	-0.391846
397.0	5.59189	0.068274	8.728637	-0.008814	0.011398	-0.015879	-0.610107	0.057617	-0.391846
398.0	5.606548	0.088651	8.706116	-0.006677	0.010822	-0.011369	-0.608154	0.062012	-0.389648
399.0	5.589837	0.068557	8.72995	-0.006063	0.01357	-0.015609	-0.610107	0.05542	-0.394043
400.0	5.560685	0.067332	8.710525	-0.009114	0.012853	-0.015512	-0.610107	0.057617	-0.389404
401.0	5.587617	0.068825	8.731369	-0.008612	0.011086	-0.014361	-0.605713	0.057861	-0.39624
402.0	5.589474	0.058604	8.699203	-0.007182	0.012589	-0.012521	-0.614502	0.059814	-0.382568
403.0	5.579325	0.078294	8.711071	-0.008504	0.011919	-0.010953	-0.612549	0.062012	-0.389648
404.0	5.587454	0.058598	8.700501	-0.006584	0.009677	-0.01326	-0.610352	0.059814	-0.394043
405.0	5.599251	0.089336	8.710804	-0.008817	0.011396	-0.015883	-0.610352	0.062012	-0.391846
406.0	5.57349	0.088944	8.745768	-0.007495	0.012067	-0.017452	-0.610107	0.057617	-0.389404
407.0	5.590633	0.049779	8.724069	-0.007089	0.011444	-0.014412	-0.610352	0.062012	-0.387207
408.0	5.580499	0.069512	8.735915	-0.01044	0.012181	-0.013947	-0.614746	0.059814	-0.39624
409.0	5.604102	0.070216	8.702347	-0.007797	0.013522	-0.017085	-0.614502	0.057617	-0.389404
410.0	5.572181	0.079173	8.715635	-0.010044	0.00958	-0.016207	-0.614502	0.057617	-0.387207
411.0	5.605311	0.071272	8.758127	-0.007392	0.012899	-0.014045	-0.614502	0.057617	-0.394043
412.0	5.579275	0.059587	8.705741	-0.00821	0.01046	-0.011326	-0.608154	0.062012	-0.389648
413.0	5.575265	0.069931	8.739253	-0.007799	0.013522	-0.017086	-0.610107	0.057617	-0.394043
414.0	5.574196	0.070283	8.739931	-0.00547	0.010659	-0.016352	-0.60791	0.055664	-0.391602
415.0	5.59501	0.081508	8.739117	-0.007093	0.011443	-0.014416	-0.608154	0.059814	-0.391846
416.0	5.587715	0.091094	8.71819	-0.007696	0.014354	-0.013678	-0.60791	0.057617	-0.389404
417.0	5.570994	0.070921	8.741968	-0.006995	0.010298	-0.016306	-0.612549	0.059814	-0.398682
418.0	5.572943	0.060902	8.709787	-0.009327	0.013161	-0.017042	-0.609863	0.053467	-0.39624
419.0	5.602761	0.052415	8.69789	-0.005773	0.012114	-0.015985	-0.608154	0.059814	-0.394043
420.0	5.555436	0.090487	8.700727	-0.010853	0.012799	-0.016997	-0.608154	0.062012	-0.389648
421.0	5.59167	0.072393	8.710322	-0.005784	0.006452	-0.012485	-0.612549	0.064209	-0.391846
422.0	5.581696	0.092325	8.722032	-0.007503	0.012065	-0.01746	-0.608398	0.066406	-0.396484
423.0	5.568008	0.062098	8.712934	-0.004048	0.012163	-0.014512	-0.60791	0.057861	-0.398682
424.0	5.588702	0.07324	8.71222	-0.010653	0.012485	-0.015479	-0.614746	0.062012	-0.391846
425.0	5.578541	0.092992	8.724043	-0.006795	0.009986	-0.01479	-0.614502	0.059814	-0.389404
426.0	5.614626	0.074979	8.733755	-0.009129	0.012846	-0.015526	-0.610352	0.059814	-0.391846
427.0	5.594801	0.05398	8.703002	-0.007302	0.011753	-0.015942	-0.612305	0.057617	-0.391846
428.0	5.578584	0.08333	8.693108	-0.008221	0.00848	-0.016635	-0.610352	0.062012	-0.389648
429.0	5.577643	0.083507	8.693711	-0.007404	0.012895	-0.014052	-0.608154	0.062012	-0.396484
430.0	5.613613	0.065469	8.703514	-0.009132	0.012845	-0.015528	-0.605713	0.057861	-0.403076
431.0	5.578659	0.084458	8.749536	-0.009949	0.00843	-0.018112	-0.610352	0.059814	-0.391846
432.0	5.580755	0.074507	8.717302	-0.004154	0.013307	-0.012624	-0.610107	0.057617	-0.389404
433.0	5.588886	0.055055	8.706795	-0.008627	0.011077	-0.014378	-0.616699	0.059814	-0.394043
434.0	5.600466	0.085768	8.717241	-0.0069	0.011127	-0.012903	-0.608154	0.062012	-0.394043
435.0	5.583961	0.065525	8.740827	-0.008425	0.008792	-0.018161	-0.614502	0.057617	-0.391846
436.0	5.576898	0.075352	8.719763	-0.004055	0.012165	-0.014515	-0.610107	0.057617	-0.39624
437.0	5.597772	0.08661	8.718963	-0.007818	0.007854	-0.013598	-0.605957	0.062012	-0.389648
438.0	5.599887	0.076714	8.686738	-0.006493	0.014193	-0.018665	-0.610352	0.062012	-0.389648
439.0	5.574069	0.076135	8.721565	-0.009546	0.007803	-0.015076	-0.616699	0.05542	-0.391602
440.0	5.588605	0.047294	8.732552	-0.005682	0.010972	-0.017883	-0.608154	0.062012	-0.389648
441.0	5.58152	0.057227	8.711505	-0.00548	0.010659	-0.016363	-0.608154	0.062012	-0.391846
442.0	5.587016	0.097562	8.700261	-0.008125	0.009307	-0.013231	-0.605713	0.057861	-0.39624
443.0	5.601541	0.068605	8.711264	-0.006803	0.009983	-0.014798	-0.610352	0.059814	-0.389404
444.0	5.54193	0.075877	8.703964	-0.007717	0.00671	-0.015493	-0.60791	0.057617	-0.391846
445.0	5.590713	0.088543	8.723471	-0.00701	0.012266	-0.011016	-0.60791	0.057617	-0.394043
446.0	5.577343	0.058168	8.714174	-0.004871	0.007751	-0.017104	-0.610352	0.059814	-0.391846
447.0	5.589042	0.089159	8.724536	-0.008532	0.009931	-0.016277	-0.612549	0.059814	-0.391846
448.0	5.597408	0.06955	8.713913	-0.009958	0.010395	-0.01282	-0.612549	0.064209	-0.387207
449.0	5.568755	0.068144	8.694092	-0.004669	0.007438	-0.015583	-0.610352	0.059814	-0.387207
450.0	5.595896	0.069923	8.714881	-0.007926	0.008992	-0.011713	-0.610107	0.057617	-0.391846
451.0	5.595076	0.069955	8.715408	-0.008331	0.009618	-0.014757	-0.605957	0.060059	-0.39624
452.0	5.615914	0.081299	8.714661	-0.003759	0.010711	-0.014888	-0.612549	0.059814	-0.389404
453.0	5.584012	0.089836	8.727749	-0.014534	0.009299	-0.012692	-0.612305	0.057617	-0.389404
454.0	5.561394	0.078794	8.729629	-0.002033	0.010764	-0.01341	-0.608154	0.062012	-0.394043
455.0	5.628642	0.052394	8.726839	-0.009759	0.01008	-0.011302	-0.612549	0.059814	-0.389404
456.0	5.590519	0.070241	8.718329	-0.010471	0.01216	-0.013976	-0.605957	0.062012	-0.391846
457.0	5.589494	0.070235	8.718986	-0.006914	0.011123	-0.012911	-0.610352	0.062012	-0.391846
458.0	5.597898	0.050716	8.708357	-0.008131	0.009304	-0.013238	-0.610107	0.057617	-0.394043
459.0	5.578422	0.090067	8.731321	-0.007012	0.010295	-0.016325	-0.60791	0.057617	-0.389404
460.0	5.608464	0.081887	8.719452	-0.005795	0.012114	-0.015998	-0.608154	0.062012	-0.394043
461.0	5.607553	0.082191	8.720035	-0.008229	0.008475	-0.016654	-0.610352	0.062012	-0.394043
462.0	5.594469	0.101283	8.677279	-0.006715	0.010809	-0.011391	-0.608154	0.062012	-0.391846
463.0	5.611835	0.072967	8.742863	-0.007119	0.011435	-0.014435	-0.612549	0.059814	-0.387207
464.0	5.59232	0.052008	8.711932	-0.005393	0.011488	-0.012956	-0.610107	0.05542	-0.391602
465.0	5.581935	0.071716	8.723815	-0.008952	0.012522	-0.014023	-0.610352	0.059814	-0.391846
466.0	5.611929	0.063352	8.712008	-0.005394	0.011487	-0.012956	-0.60791	0.05542	-0.389404
467.0	5.59541	0.092575	8.702251	-0.009155	0.012835	-0.015547	-0.60791	0.057617	-0.389404
468.0	5.609778	0.063717	8.713391	-0.005597	0.011801	-0.014479	-0.612305	0.057617	-0.38501
469.0	5.568382	0.09185	8.737709	-0.011896	0.010648	-0.015835	-0.60791	0.057617	-0.391846
470.0	5.592358	0.092878	8.70421	-0.007122	0.011434	-0.014438	-0.608398	0.066406	-0.391846
471.0	5.572866	0.071951	8.673269	-0.007526	0.012061	-0.017483	-0.612549	0.059814	-0.39624
472.0	5.580754	0.063184	8.750116	-0.008755	0.012206	-0.012505	-0.608154	0.062012	-0.389648
473.0	5.601338	0.07436	8.74958	-0.007635	0.0132	-0.015591	-0.614502	0.057617	-0.398682
474.0	5.603456	0.064427	8.717452	-0.009159	0.012833	-0.015551	-0.610352	0.062012	-0.387207
475.0	5.602311	0.064567	8.718187	-0.007636	0.0132	-0.015592	-0.610352	0.059814	-0.389404
476.0	5.585593	0.093862	8.708542	-0.006422	0.01502	-0.015263	-0.606201	0.064209	-0.389648
477.0	5.605941	0.055285	8.741422	-0.012116	0.012923	-0.012056	-0.608154	0.059814	-0.391846
478.0	5.583025	0.044354	8.743433	0.009508	0.014879	0.001116	-0.608154	0.064209	-0.38501
479.0	5.55393	0.104199	8.777647	0.025172	0.006592	0.010747	-0.608154	0.062012	-0.389648
480.0	5.615739	-0.02114	8.732448	0.025464	0.007105	0.015684	-0.610107	0.05542	-0.387207
481.0	5.760558	0.070544	8.702786	0.092335	0.015947	0.010553	-0.610352	0.059814	-0.394043
482.0	5.699489	-0.015718	8.762784	0.056633	0.0274	0.001724	-0.614502	0.057617	-0.391846
483.0	5.758038	-0.083252	8.686761	0.163048	0.064732	-0.009692	-0.612793	0.068604	-0.391846
484.0	5.710948	-0.028608	8.80163	0.165588	0.072615	-0.033896	-0.614502	0.05542	-0.384766
485.0	5.668402	-0.061614	8.655576	0.250929	0.077602	-0.059265	-0.612305	0.057617	-0.391846
486.0	5.6958	0.053539	8.63483	0.215844	0.078445	-0.070728	-0.60791	0.055664	-0.400879
487.0	5.735778	-0.069498	8.618489	0.24788	0.086657	-0.087696	-0.612061	0.05127	-0.391602
488.0	5.678739	0.12825	8.818791	0.244836	0.096026	-0.09666	-0.607666	0.05127	-0.393799
489.0	5.83999	-0.08838	8.648284	0.243507	0.114721	-0.116542	-0.605469	0.049072	-0.39624
490.0	5.603045	0.132251	8.823893	0.269787	0.126452	-0.133894	-0.603027	0.04248	-0.395996
491.0	5.537427	0.146422	8.702442	0.26063	0.134288	-0.142768	-0.607422	0.046875	-0.398438
492.0	5.382727	0.459694	8.781794	0.251015	0.123388	-0.133263	-0.605225	0.044678	-0.393799
493.0	5.275168	0.446024	8.661135	0.19898	0.108584	-0.122702	-0.607422	0.044678	-0.393799
494.0	5.125801	0.740194	8.704141	0.172053	0.089377	-0.094218	-0.60083	0.04248	-0.400635
495.0	5.165793	0.766673	8.671914	0.074044	0.057984	-0.065754	-0.60498	0.040283	-0.395996
496.0	5.165002	0.714398	8.676298	0.032304	0.039235	-0.040708	-0.607422	0.044678	-0.393799
497.0	5.217953	0.88185	8.756209	-0.043657	0.008975	-0.015381	-0.611572	0.04248	-0.400635
498.0	5.299942	0.560986	8.744422	-0.093295	-0.010198	0.010215	-0.605225	0.044678	-0.391602
499.0	5.336986	0.595575	8.806632	-0.111234	-0.023286	0.028103	-0.607178	0.040283	-0.395996
500.0	5.410082	0.495243	8.751763	-0.142936	-0.035009	0.039352	-0.60498	0.040283	-0.400635
501.0	5.347175	0.507537	8.806643	-0.151702	-0.041427	0.051497	-0.609375	0.04248	-0.393799
502.0	5.396443	0.450667	8.749892	-0.184882	-0.052668	0.066157	-0.605469	0.049072	-0.391602
503.0	5.420976	0.389943	8.726441	-0.213368	-0.057473	0.078625	-0.607666	0.05127	-0.398438
504.0	5.57556	0.247281	8.798023	-0.236504	-0.067259	0.083072	-0.609863	0.05127	-0.398438
505.0	5.556029	0.048519	8.702775	-0.22781	-0.049462	0.084698	-0.603516	0.053467	-0.389404
506.0	5.624813	0.180862	8.857447	-0.241656	-0.048052	0.078013	-0.603516	0.053467	-0.39624
507.0	5.671303	0.068415	8.778902	-0.193969	-0.047962	0.070864	-0.609863	0.05127	-0.39624
508.0	5.558014	0.232053	8.88663	-0.202214	-0.048924	0.066422	-0.610107	0.05542	-0.391602
509.0	5.574397	0.070314	8.76626	-0.184737	-0.050911	0.058043	-0.610107	0.05542	-0.394043
510.0	5.562256	0.141457	8.806439	-0.166361	-0.049614	0.050358	-0.612305	0.057617	-0.391846
511.0	5.560873	0.134524	8.78204	-0.139757	-0.053039	0.050591	-0.608154	0.062012	-0.400879
512.0	5.505881	0.137594	8.858019	-0.129155	-0.058928	0.0451	-0.610352	0.062012	-0.394043
513.0	5.523712	0.105536	8.898003	-0.109425	-0.071943	0.051711	-0.610107	0.057617	-0.389404
514.0	5.487768	0.121298	8.862498	-0.080623	-0.08924	0.05818	-0.614502	0.057617	-0.387207
515.0	5.511457	0.094068	8.954885	-0.046897	-0.114527	0.062347	-0.612549	0.059814	-0.391846
516.0	5.425884	0.183069	9.071535	-0.013303	-0.14805	0.080685	-0.614746	0.064209	-0.391846
517.0	5.463136	0.300852	9.081512	0.048278	-0.19767	0.099302	-0.614502	0.057617	-0.387207
518.0	5.297189	0.471097	9.251595	0.050478	-0.25713	0.114026	-0.608154	0.062012	-0.38501
519.0	4.985383	0.724739	9.359883	0.115745	-0.35919	0.166473	-0.612549	0.059814	-0.38501
520.0	4.763628	1.30451	9.804953	0.073847	-0.502438	0.232751	-0.612549	0.062012	-0.38501
521.0	5.065671	0.512558	9.585714	-0.086812	-0.657122	0.279326	-0.61499	0.070801	-0.378418
522.0	5.316174	-0.626056	9.583046	0.010245	-0.787307	0.335489	-0.619385	0.066406	-0.378174
523.0	5.152368	1.086434	10.168489	0.605064	-0.902285	0.445205	-0.623779	0.070557	-0.371582
524.0	5.412262	0.987861	10.297347	-0.061048	-1.15434	0.493982	-0.630615	0.074951	-0.364746
525.0	5.814747	-0.309263	9.797295	0.414922	-1.263614	0.599554	-0.63916	0.072754	-0.353271
526.0	5.533404	0.537065	10.090409	0.396206	-1.401057	0.714558	-0.635254	0.081543	-0.348877
527.0	6.088788	1.360944	9.997216	0.674157	-1.472782	0.845251	-0.644043	0.081299	-0.335205
528.0	6.324128	1.27675	10.285833	0.305436	-1.574164	0.944257	-0.64624	0.083496	-0.333008
529.0	6.624539	3.271995	10.444556	0.798637	-1.471572	1.075389	-0.650879	0.087891	-0.330811
530.0	6.271452	4.369376	12.711984	-0.122618	-1.428677	1.114741	-0.65332	0.096436	-0.314941
531.0	9.984846	2.154245	13.995512	-0.076225	-0.869072	1.005782	-0.651367	0.10083	-0.317383
532.0	2.931077	6.255066	12.882283	0.598089	-0.095076	0.888264	-0.651367	0.103027	-0.322021
533.0	0.315795	4.757988	10.821572	-0.610576	-0.291329	0.658948	-0.643311	0.114014	-0.319824
534.0	1.572798	2.110916	10.019291	-0.019434	-0.191628	0.428587	-0.643311	0.114014	-0.319824
535.0	0.877288	4.556281	11.52783	0.237807	0.028156	0.196395	-0.638916	0.114014	-0.32666
536.0	-0.132119	3.881942	10.722872	-0.105842	0.18398	-0.015635	-0.638916	0.114014	-0.335938
537.0	-1.272131	2.579195	10.027568	-0.108137	0.258863	-0.22196	-0.627686	0.109863	-0.340332
538.0	-1.390089	1.61232	9.735728	-0.038342	0.254038	-0.408296	-0.627441	0.103271	-0.356201
539.0	-0.963991	1.674026	10.151835	0.070473	0.313175	-0.540036	-0.62085	0.099121	-0.365234
540.0	-0.622586	1.341519	10.47317	0.008617	0.410336	-0.662391	-0.607422	0.094727	-0.374268
541.0	0.067322	0.814721	10.570424	0.060279	0.526423	-0.783959	-0.60083	0.090576	-0.385498
542.0	1.053951	0.70886	10.906704	0.149619	0.68575	-0.897767	-0.593506	0.077393	-0.401367
543.0	1.950293	0.818451	11.19652	0.19672	0.901091	-1.00277	-0.576172	0.075439	-0.424072
544.0	2.409022	0.685567	11.151021	0.152775	1.108112	-1.09195	-0.553955	0.066895	-0.444336
545.0	2.692519	-0.090578	10.821033	0.144668	1.269642	-1.159106	-0.529297	0.056152	-0.455566
546.0	3.056384	-0.295136	10.712826	0.222085	1.378915	-1.169672	-0.504883	0.04541	-0.47583
547.0	3.775873	-0.436869	10.795803	0.212585	1.442332	-1.133698	-0.474365	0.043457	-0.496338
548.0	4.445205	-0.498776	10.807244	0.235361	1.522114	-1.059727	-0.443115	0.030762	-0.500732
549.0	4.788526	-0.791617	10.578515	0.178699	1.562992	-0.960085	-0.403809	0.028809	-0.514404
550.0	4.857396	-1.264633	10.165122	0.171372	1.545296	-0.833468	-0.369141	0.033447	-0.519287
551.0	4.854774	-1.609077	9.752301	0.198128	1.438474	-0.685196	-0.332031	0.031494	-0.519287
552.0	5.115989	-1.684363	9.616085	0.237041	1.266602	-0.507065	-0.292969	0.03833	-0.512451
553.0	5.78443	-1.792734	9.635371	0.279768	1.078526	-0.334411	-0.260498	0.040527	-0.508057
554.0	6.572621	-1.625978	9.707469	0.392226	0.93716	-0.191982	-0.227783	0.042969	-0.499023
555.0	7.324204	-1.11755	9.78535	0.481146	0.853096	-0.064189	-0.190918	0.04541	-0.480957
556.0	8.035665	-0.745561	9.72555	0.502345	0.797917	0.029827	-0.162842	0.054199	-0.465088
557.0	8.507405	-0.354446	9.471659	0.547166	0.803301	0.10841	-0.133057	0.067383	-0.444824
558.0	8.811846	-0.069225	9.174943	0.525809	0.827081	0.156309	-0.105225	0.078369	-0.422363
559.0	9.127163	0.188996	8.797741	0.525083	0.859394	0.186654	-0.086182	0.091553	-0.406738
560.0	9.191001	0.398343	8.412651	0.488112	0.905667	0.205391	-0.06665	0.093994	-0.377197
561.0	9.124435	0.488644	7.916368	0.477426	0.929923	0.196093	-0.047363	0.10498	-0.354492
562.0	9.12105	0.577325	7.411259	0.461517	0.925385	0.161197	-0.032959	0.122314	-0.322998
563.0	9.286204	0.678714	6.8583	0.46753	0.919025	0.102705	-0.015869	0.128906	-0.304932
564.0	9.379411	0.832331	6.362027	0.44316	0.916858	0.02077	-0.009766	0.139893	-0.273193
565.0	9.217502	0.969953	5.693914	0.414409	0.912531	-0.075697	-0.001465	0.150635	-0.255371
566.0	8.820486	1.002736	5.02336	0.315945	0.855956	-0.184572	-0.001953	0.161621	-0.228027
567.0	8.416744	0.865275	4.37109	0.198767	0.737551	-0.286689	-0.002441	0.174561	-0.205566
568.0	8.207232	0.484192	3.918981	0.076568	0.562443	-0.362349	-0.00293	0.185547	-0.1875
569.0	8.479778	0.045551	3.68584	0.014324	0.368294	-0.424711	-0.000977	0.189697	-0.169434
570.0	9.171458	-0.13296	3.695488	-0.019687	0.218526	-0.450493	-0.001709	0.202881	-0.151367
571.0	9.708323	0.082393	3.749448	-0.054264	0.125849	-0.424417	-0.008545	0.213623	-0.142578
572.0	8.084729	2.208011	1.243671	-0.264115	-0.08664	-0.218497	-0.008789	0.220215	-0.124512
573.0	10.928205	-0.590452	-0.003846	-1.524089	-0.995344	-0.024282	-0.013672	0.22876	-0.11084
574.0	11.856209	-4.013204	-2.491243	-0.783723	-1.182506	0.040637	-0.016113	0.235352	-0.097412
575.0	9.123902	-0.55195	1.297283	-0.845824	-1.400699	0.079088	-0.007813	0.246338	-0.086182
576.0	7.776667	-1.620199	12.0525	-0.969465	-1.75459	-0.015239	-0.005859	0.248535	-0.086182
577.0	5.490699	0.74315	14.892125	-0.31695	-0.781615	0.029933	-0.001953	0.259521	-0.07959
578.0	-0.90708	-0.822696	7.566086	-0.834244	-0.948525	0.171607	-0.002197	0.263672	-0.070557
579.0	1.028008	-3.621286	5.736038	-0.637263	-1.877403	0.282142	0.008545	0.270264	-0.061523
580.0	8.231445	-1.660302	10.837952	-0.404485	-2.075962	0.370247	0.014648	0.276855	-0.050293
581.0	11.37922	-3.271418	9.717295	-0.090859	-1.69965	0.139471	0.019043	0.279053	-0.043701
582.0	14.374636	5.227123	13.167277	0.71364	-1.490842	0.38979	0.022949	0.285645	-0.041504
583.0	16.070467	4.952945	13.184993	-1.540581	-0.567613	0.333788	0.020752	0.287842	-0.032471
584.0	6.184061	-2.496678	8.701586	-0.958987	-0.1789	0.173727	0.020508	0.294434	-0.034668
585.0	8.054923	-4.307994	9.507992	-0.710434	-0.255509	0.180473	0.027344	0.290039	-0.027832
586.0	4.795615	0.184457	8.304481	0.597164	-0.038005	0.155661	0.033691	0.292236	-0.032471
587.0	5.27839	3.615791	9.829784	-0.42336	-0.20399	0.105333	0.029297	0.294434	-0.020996
588.0	6.235945	-1.168008	7.998336	-0.859794	-0.2498	0.076838	0.0271	0.294434	-0.030273
589.0	6.607894	-0.012918	8.782457	0.001419	-0.063259	0.103271	0.029297	0.294434	-0.027832
590.0	6.265444	0.359414	8.795173	-0.449679	-0.021416	0.073638	0.03125	0.296631	-0.028076
591.0	6.133659	-0.777868	8.482334	-0.21537	0.074422	0.048084	0.026855	0.298828	-0.025879
592.0	6.346691	-0.000741	9.004177	-0.131854	0.105892	0.019199	0.033203	0.301025	-0.025879
593.0	5.694036	0.085513	8.764022	-0.033553	0.107327	0.003249	0.031494	0.294434	-0.023438
594.0	5.759174	-0.044669	8.94391	-0.161229	0.083194	-0.011114	0.033447	0.296631	-0.018799
595.0	5.845231	-0.741037	8.576861	-0.006331	0.088564	-0.033919	0.033447	0.298828	-0.025879
596.0	5.717159	0.160618	8.939277	0.036109	0.074741	-0.04865	0.033691	0.294434	-0.028076
597.0	5.756159	-0.316734	8.645341	0.000174	0.050668	-0.065789	0.033447	0.298828	-0.019043
598.0	5.578551	0.192467	8.797494	0.095911	0.053684	-0.069667	0.029053	0.298828	-0.023438
599.0	5.751454	0.159668	8.597374	0.033797	0.050105	-0.070298	0.033203	0.301025	-0.023438
600.0	5.652403	0.402174	8.642544	0.066776	0.063827	-0.060161	0.035645	0.298828	-0.025879
601.0	5.597343	0.394635	8.626539	0.0069	0.06987	-0.044266	0.033203	0.301025	-0.028076
602.0	5.604517	0.380528	8.729037	0.011105	0.08379	-0.030139	0.033447	0.298828	-0.016602
603.0	5.577507	0.421183	8.755355	-0.005338	0.083036	-0.016096	0.037842	0.296631	-0.023438
604.0	5.56666	0.270171	8.752699	-0.026279	0.079149	-0.007254	0.033203	0.301025	-0.023438
605.0	5.575822	0.190273	8.801947	-0.025921	0.072054	-0.004072	0.0354	0.301025	-0.023438
606.0	5.567849	0.087742	8.819194	-0.039012	0.06775	0.000812	0.035645	0.296631	-0.02124
607.0	5.519176	0.062536	8.824725	-0.017927	0.058358	-0.006225	0.035645	0.298828	-0.028076
608.0	5.526992	0.092393	8.836988	-0.010326	0.029498	0.001098	0.037842	0.298828	-0.023438
609.0	5.531022	0.181065	8.792208	-0.004318	0.011542	0.001363	0.035645	0.298828	-0.023438
610.0	5.560457	0.170894	8.725972	-0.01421	-0.00813	-0.000748	0.037842	0.296631	-0.025635
611.0	5.550971	0.349389	8.77651	-0.019971	-0.008249	0.00774	0.041992	0.303223	-0.02124
612.0	5.587302	0.326949	8.731591	-0.050238	-0.011261	0.023934	0.037842	0.294434	-0.018799
613.0	5.628471	0.453134	8.749362	-0.058341	0.010104	0.048816	0.037842	0.298828	-0.023438
614.0	5.572494	0.48773	8.675109	-0.094866	0.024537	0.080773	0.033691	0.294434	-0.02124
615.0	5.573936	0.364232	8.712186	-0.122858	0.039301	0.099221	0.041992	0.301025	-0.02124
616.0	5.531201	0.266754	8.717773	-0.091853	0.046729	0.106577	0.039795	0.301025	-0.025879
617.0	5.511793	0.231871	8.743196	-0.102256	0.041805	0.102984	0.037842	0.298828	-0.025879
618.0	5.508444	0.057589	8.704339	-0.090495	0.030448	0.094595	0.037842	0.296631	-0.016602
619.0	5.498844	0.165969	8.704223	-0.047476	0.023353	0.086443	0.037598	0.301025	-0.023438
620.0	5.53074	0.148266	8.747943	-0.081054	0.007821	0.083749	0.039795	0.301025	-0.019043
621.0	5.572811	0.049947	8.672084	-0.04961	0.01459	0.073262	0.041992	0.298828	-0.019043
622.0	5.546735	0.201004	8.748039	-0.040054	0.01703	0.079554	0.037842	0.298828	-0.019043
623.0	5.562864	0.102972	8.705843	-0.061484	0.010167	0.073099	0.035645	0.298828	-0.016602
624.0	5.577899	0.115079	8.683925	-0.037588	0.01303	0.078423	0.037598	0.303223	-0.019043
625.0	5.526092	0.154436	8.718496	-0.047559	0.01402	0.077774	0.037842	0.298828	-0.019043
626.0	5.539978	0.067445	8.763316	-0.05129	0.006897	0.069926	0.037598	0.303223	-0.019043
627.0	5.58486	0.022035	8.707848	-0.033067	-0.003618	0.064495	0.041992	0.303223	-0.016846
628.0	5.540681	0.053916	8.762966	-0.029562	-0.013927	0.056979	0.039795	0.303223	-0.02124
629.0	5.504698	0.016785	8.785254	-0.025742	-0.025687	0.049098	0.037598	0.303223	-0.023682
630.0	5.470511	0.029674	8.77356	-0.031382	-0.038203	0.041738	0.037598	0.301025	-0.019043
631.0	5.511512	0.007742	8.780994	-0.014113	-0.052829	0.032183	0.039795	0.301025	-0.012207
632.0	5.516899	0.004528	8.777612	-0.019902	-0.069867	0.030219	0.039551	0.307617	-0.021484
633.0	5.501707	-0.009336	8.774343	-0.006713	-0.078914	0.0271	0.037598	0.303223	-0.016846
634.0	5.555223	0.060283	8.789218	-0.019436	-0.091416	0.033167	0.039795	0.303223	-0.012207
635.0	5.602503	0.028132	8.706354	-0.015339	-0.099061	0.042334	0.039795	0.303223	-0.012207
636.0	5.610511	0.134247	8.721793	-0.003795	-0.093327	0.063759	0.044189	0.301025	-0.014404
637.0	5.560503	0.135747	8.70745	-0.027127	-0.104781	0.082169	0.037598	0.301025	-0.014404
638.0	5.594498	0.189934	8.721887	-0.014642	-0.109087	0.105972	0.044189	0.303223	-0.014404
639.0	5.558102	0.328645	8.738046	-0.035232	-0.115566	0.133405	0.039795	0.301025	-0.012207
640.0	5.58797	0.276861	8.709147	-0.058564	-0.127113	0.172737	0.037842	0.298828	-0.012207
641.0	5.484417	0.336752	8.793602	-0.046999	-0.137636	0.207969	0.037598	0.303223	-0.014404
642.0	5.358911	0.503535	8.932212	-0.066827	-0.171156	0.248209	0.041992	0.303223	-0.016846
643.0	5.120721	0.752455	9.194331	-0.072091	-0.224924	0.313038	0.039551	0.30542	-0.01001
644.0	5.404073	0.411789	9.083399	-0.220184	-0.303206	0.357395	0.039795	0.303223	-0.007568
645.0	5.376963	-0.286354	9.059624	-0.193604	-0.367038	0.352493	0.037354	0.30542	-0.007568
646.0	5.345279	-0.341764	9.073056	-0.120716	-0.476373	0.35842	0.041748	0.307617	-0.007813
647.0	5.155056	-0.610693	9.528812	-0.192393	-0.57477	0.306142	0.0354	0.301025	-0.00293
648.0	5.301747	-1.39338	9.036645	-0.128779	-0.751369	0.227845	0.039551	0.309814	-0.005371
649.0	5.19373	-0.468	9.677537	0.057389	-0.878895	0.188773	0.035156	0.30957	-0.000977
650.0	5.240037	-0.769458	9.672465	-0.119222	-1.096181	0.122928	0.037354	0.307617	-0.005371
651.0	5.239832	-0.939905	9.597533	0.038789	-1.28924	0.065796	0.032959	0.307373	0.003662
652.0	5.213972	-0.032497	9.973693	0.139382	-1.51436	0.040303	0.033203	0.300781	0.008301
653.0	5.066661	0.036813	10.22331	0.035063	-1.816492	0.031154	0.023926	0.313965	0.012695
654.0	4.779431	0.120653	10.569376	0.089044	-2.14849	0.029996	0.021973	0.30957	0.017334
655.0	4.560109	0.284889	10.890064	0.02772	-2.538915	0.031297	0.019775	0.311768	0.031006
656.0	4.626964	0.386376	11.085797	-0.027627	-2.973533	0.086172	0.01123	0.309326	0.035645
657.0	4.537117	0.817175	11.239446	-0.022402	-3.43192	0.195276	0.008545	0.318115	0.042236
658.0	4.574751	0.928697	11.056234	-0.181099	-3.917153	0.326899	0.008545	0.315918	0.053711
659.0	4.925701	1.213854	11.181778	-0.188779	-4.431206	0.487309	0.003906	0.322266	0.067139
660.0	5.507038	1.43709	10.773291	-0.337889	-4.892755	0.627475	-0.006592	0.317871	0.092529
661.0	6.067527	1.333483	10.597989	-0.434678	-5.42406	0.77891	0.001953	0.320068	0.10376
662.0	7.065207	0.907043	10.182396	-0.502274	-5.904899	0.898913	-0.004639	0.322266	0.128906
663.0	8.094375	1.142861	10.179293	-0.328024	-6.323975	1.010521	-0.004639	0.319824	0.151611
664.0	12.412087	0.720775	10.393237	-0.386967	-6.60549	1.041671	-0.000488	0.324219	0.160645
665.0	15.491755	-2.31901	10.186244	-0.383161	-6.297165	0.965309	-0.005127	0.333008	0.187744
666.0	21.15893	0.187177	10.931674	0.974946	-5.702257	0.857898	-0.004883	0.324219	0.208496
667.0	17.811467	5.478547	13.298757	0.341487	-4.828136	1.100153	-0.013672	0.326172	0.224365
668.0	17.142723	1.084248	10.748546	-0.668484	-4.543455	1.293913	-0.028809	0.323975	0.249512
669.0	12.040957	3.552925	11.721503	0.331509	-3.800659	1.509585	-0.037109	0.314941	0.272461
670.0	7.98347	4.512594	16.674298	-0.278636	-3.083736	1.127318	-0.052246	0.314941	0.290771
671.0	18.108325	8.507855	21.389198	0.118543	-1.548507	0.176962	-0.072266	0.319092	0.309082
672.0	3.206299	11.342311	16.326783	0.28883	0.092006	-0.357357	-0.100098	0.310059	0.332031
673.0	1.185135	10.173892	15.589163	-2.177271	0.131749	-0.688049	-0.130371	0.303223	0.359619
674.0	-0.735175	-1.232822	9.040799	-2.698222	0.174933	-0.997461	-0.164795	0.296387	0.384766
675.0	-1.224345	-1.193079	10.172093	-0.277951	0.456515	-1.094493	-0.193359	0.296387	0.39624
676.0	-0.943041	-0.334386	10.557214	-0.374431	0.493571	-1.173568	-0.216797	0.285156	0.410156
677.0	-0.099064	0.659609	11.166387	0.348183	0.797303	-1.077714	-0.24707	0.282715	0.421631
678.0	0.627671	1.178716	11.577692	0.021756	1.099205	-0.937241	-0.281982	0.280273	0.42627
679.0	1.559716	0.535822	11.469097	0.159659	1.558165	-0.835765	-0.308105	0.280273	0.428467
680.0	2.293636	0.088189	11.367567	0.050603	2.042836	-0.797734	-0.349365	0.275635	0.424072
681.0	3.029386	-0.429603	10.971851	0.203099	2.576265	-0.781433	-0.38208	0.275391	0.415039
682.0	3.130571	-0.545336	10.480188	0.241171	3.077053	-0.753277	-0.416748	0.270752	0.403809
683.0	2.9235	-0.765319	9.674201	0.321887	3.47141	-0.709521	-0.460205	0.268311	0.385742
684.0	2.872246	-0.923888	9.225772	0.321579	3.727367	-0.637911	-0.490723	0.266113	0.358398
685.0	3.067365	-1.416681	8.903347	0.376304	3.905675	-0.555869	-0.519043	0.266113	0.324219
686.0	3.530414	-1.570628	9.114204	0.434055	4.03795	-0.491074	-0.55127	0.25708	0.288086
687.0	4.296714	-1.899538	9.452466	0.509026	4.154114	-0.440054	-0.572998	0.252686	0.24707
688.0	5.195529	-1.829763	9.877361	0.59875	4.302633	-0.37177	-0.590332	0.250488	0.210693
689.0	6.007848	-1.815018	10.325694	0.639956	4.443053	-0.282048	-0.605225	0.241943	0.158447
690.0	6.845915	-1.756262	10.759339	0.709301	4.58651	-0.209973	-0.613281	0.22876	0.115479
691.0	7.499106	-1.409001	11.254568	0.778543	4.723235	-0.183715	-0.61499	0.218018	0.070068
692.0	8.082364	-0.941546	11.714759	0.780683	4.82043	-0.199682	-0.618408	0.196289	0.031738
693.0	8.451406	-0.710256	12.153799	0.772737	4.878337	-0.25712	-0.613281	0.176758	-0.004395
694.0	8.44114	-0.704636	12.442728	0.761632	4.853613	-0.333164	-0.619141	0.159424	-0.042725
695.0	8.816604	-1.166498	12.675355	0.783003	4.713623	-0.419565	-0.615967	0.137695	-0.074219
696.0	9.879619	-1.717658	12.852605	0.896344	4.536914	-0.461932	-0.61499	0.118164	-0.105713
697.0	10.148449	-1.739967	12.886839	1.016711	4.328381	-0.43652	-0.607666	0.10083	-0.132813
698.0	9.886469	-1.963409	12.602076	1.069709	3.926347	-0.374736	-0.611328	0.085449	-0.157471
699.0	11.218662	-2.844092	12.23752	1.173566	3.356196	-0.33252	-0.604004	0.068115	-0.179932
700.0	15.224213	-3.847929	11.968165	1.487301	2.82804	-0.389136	-0.59668	0.050781	-0.200195
701.0	21.639089	-3.505799	12.289662	1.979128	2.652214	-0.515702	-0.594238	0.044189	-0.225098
702.0	28.439094	-1.745245	11.801617	2.415719	3.036254	-0.647591	-0.584717	0.024658	-0.247559
703.0	32.108721	0.943308	10.004567	2.315905	3.809511	-0.651898	-0.571289	0.016113	-0.274658
704.0	31.866758	1.047509	5.78072	1.672646	4.55239	-0.475098	-0.550537	-0.005371	-0.308594
705.0	28.394825	-1.904743	-0.2072	1.041209	4.918221	-0.193848	-0.526367	-0.011719	-0.331299
706.0	24.29807	-4.687738	-6.494048	0.851192	4.728646	0.044098	-0.50415	-0.020264	-0.351563
707.0	23.251302	-6.830532	-12.031013	0.813783	3.936898	0.170448	-0.486328	-0.026611	-0.37207
708.0	26.010519	-6.820325	-17.091015	1.165316	3.016993	0.272927	-0.471191	-0.028809	-0.387939
709.0	27.108771	-3.806405	-19.09945	0.989766	2.092415	0.423416	-0.464355	-0.032959	-0.392334
710.0	24.30089	2.537129	-19.071826	0.673868	0.929023	0.714721	-0.455566	-0.032959	-0.39917
711.0	13.23765	3.809484	-23.306224	-3.066893	-1.099878	1.380431	-0.467773	-0.002441	-0.38623
712.0	0.546447	-18.196088	-8.27341	-5.852457	-4.044298	0.223651	-0.483643	0.006104	-0.372559
713.0	14.122598	-6.545366	26.543774	2.331211	-3.390835	0.216166	-0.491699	-0.004883	-0.363281
714.0	1.08683	8.641506	20.743929	0.2229	-1.079105	0.602811	-0.496826	0.008057	-0.363525
715.0	-2.500856	-9.378058	-1.443995	-4.890557	-3.611263	0.179119	-0.510254	0.018799	-0.331787
716.0	13.636551	-14.032086	8.825596	0.864769	-4.175757	0.331281	-0.520752	0.01001	-0.32251
717.0	17.889745	3.347175	17.451268	1.020407	-3.171142	0.538286	-0.529541	0.012207	-0.306641
718.0	13.524181	0.705406	10.186735	0.205089	-2.916333	0.200541	-0.540527	0.01416	-0.290771
719.0	23.341069	13.718302	17.398614	1.04835	-2.515839	0.644639	-0.549316	0.016357	-0.283936
720.0	12.5907	8.651535	11.448044	-2.69223	-0.675483	0.228287	-0.547607	0.025146	-0.283936
721.0	7.7295	-5.747331	9.341513	-2.71584	-1.79939	0.095606	-0.554443	0.029297	-0.272705
722.0	13.348346	-7.348249	8.38709	-0.72397	-0.783817	0.437823	-0.550049	0.031494	-0.272705
723.0	7.167596	2.275309	9.939602	0.416134	-0.240338	0.382841	-0.554688	0.035889	-0.263672
724.0	6.675614	0.279313	9.722199	-1.46871	-0.385475	0.2248	-0.55249	0.038086	-0.266113
725.0	7.867983	-2.869158	7.99394	-0.34198	-0.076115	0.224376	-0.55249	0.038086	-0.266113
726.0	6.093052	0.992087	9.913793	-0.220077	-0.007902	0.18898	-0.552979	0.046875	-0.270752
727.0	6.147455	-1.424396	8.507955	-0.556947	-0.023835	0.126028	-0.554932	0.04248	-0.263916
728.0	6.212395	-0.234982	9.260484	-0.106827	0.029037	0.098011	-0.555176	0.046875	-0.266357
729.0	5.832792	-0.805171	8.882019	-0.275231	0.008076	0.052873	-0.550781	0.049072	-0.266357
730.0	5.837915	-0.362765	9.068678	-0.026782	0.016629	0.027073	-0.555176	0.049072	-0.266357
731.0	5.663624	-0.28705	8.921765	-0.06829	-0.016036	-0.001735	-0.553467	0.055664	-0.270996
732.0	5.617301	-0.051822	8.855595	0.044701	-0.027402	-0.027129	-0.553223	0.05127	-0.268555
733.0	5.50155	0.498247	8.859575	0.052483	-0.050241	-0.02405	-0.548584	0.046875	-0.268555
734.0	5.485739	0.606426	8.792073	0.001279	-0.062527	-0.019832	-0.557373	0.049072	-0.268555
735.0	5.445801	0.773952	8.751966	-0.01446	-0.06045	0.011697	-0.557129	0.044678	-0.272949
736.0	5.450962	0.899998	8.769508	-0.090674	-0.065235	0.042786	-0.557373	0.046875	-0.266357
737.0	5.485183	0.67889	8.687112	-0.128822	-0.055473	0.069347	-0.557373	0.049072	-0.270752
738.0	5.601528	0.462279	8.722672	-0.165084	-0.052188	0.081875	-0.552979	0.049072	-0.268555
739.0	5.493497	0.266447	8.706439	-0.124163	-0.040678	0.087649	-0.555176	0.049072	-0.259521
740.0	5.519269	0.149634	8.822405	-0.152837	-0.043996	0.076228	-0.557617	0.05127	-0.261719
741.0	5.574914	-0.137054	8.71098	-0.113864	-0.039181	0.057094	-0.557617	0.05127	-0.268555
742.0	5.541154	0.022087	8.804571	-0.063743	-0.043156	0.037108	-0.559814	0.053467	-0.26416
743.0	5.548814	0.05713	8.710711	-0.059245	-0.047241	0.021744	-0.564209	0.053223	-0.266357
744.0	5.546866	0.3191	8.674811	-0.030796	-0.041562	0.036779	-0.55542	0.053467	-0.254883
745.0	5.630889	0.442772	8.703664	-0.064725	-0.032283	0.053545	-0.559814	0.053223	-0.261719
746.0	5.613766	0.278911	8.650167	-0.085499	-0.018298	0.067174	-0.557617	0.05542	-0.261963
747.0	5.596994	0.25027	8.673662	-0.076621	-0.001857	0.080873	-0.55127	0.055664	-0.261963
748.0	5.616329	0.12806	8.682139	-0.095958	-0.005609	0.089349	-0.55542	0.055664	-0.266357
749.0	5.630364	-0.041462	8.727154	-0.083968	-0.003899	0.084111	-0.562256	0.057617	-0.266357
750.0	5.666827	-0.017805	8.679051	-0.071692	-0.012817	0.076766	-0.553467	0.059814	-0.259766
751.0	5.681875	0.1312	8.654503	-0.027632	-0.010963	0.077346	-0.555664	0.057861	-0.26416
752.0	5.547504	0.087962	8.802463	-0.093331	-0.021555	0.084389	-0.557861	0.057617	-0.257324
753.0	5.67106	-0.046993	8.676177	-0.042649	-0.021506	0.084173	-0.559814	0.055664	-0.270996
754.0	5.626885	0.147013	8.813443	-0.044021	-0.037311	0.090631	-0.557861	0.059814	-0.261963
755.0	5.573963	-0.127657	8.723286	-0.067084	-0.059749	0.08612	-0.553467	0.059814	-0.259766
756.0	5.625377	-0.041361	8.798785	-0.014207	-0.065754	0.078204	-0.558105	0.062012	-0.259766
757.0	5.520715	0.039978	8.823893	-0.009095	-0.094346	0.075326	-0.562256	0.059814	-0.266602
758.0	5.631166	-0.01885	8.829687	-0.025586	-0.124632	0.076729	-0.553711	0.062012	-0.261963
759.0	5.572695	0.017064	8.799366	0.010206	-0.144617	0.082959	-0.558105	0.064209	-0.261963
760.0	5.593396	0.136017	8.835688	0.003264	-0.171847	0.093818	-0.553711	0.066406	-0.255127
761.0	5.635866	-0.073146	8.795863	-0.012803	-0.205079	0.094594	-0.560547	0.068604	-0.25293
762.0	5.639728	-0.107935	8.775592	0.026016	-0.226677	0.095411	-0.56665	0.059814	-0.250488
763.0	5.534006	0.020423	8.812523	0.065768	-0.239889	0.086696	-0.558105	0.062012	-0.257324
764.0	5.249866	0.441668	8.998297	0.0867	-0.280138	0.100815	-0.5625	0.066406	-0.250732
765.0	5.231975	0.650559	9.098618	-0.005231	-0.359307	0.143967	-0.5625	0.064209	-0.250732
766.0	5.417969	0.361473	8.938535	-0.040763	-0.426646	0.186872	-0.562256	0.062012	-0.246094
767.0	4.96034	0.191932	9.424851	-0.030985	-0.506546	0.214187	-0.562744	0.070801	-0.246094
768.0	5.316143	-0.316912	9.162092	-0.062631	-0.682163	0.207873	-0.560059	0.062012	-0.243652
769.0	5.147147	-0.267398	9.364884	0.035254	-0.791532	0.189737	-0.569336	0.072754	-0.237061
770.0	5.276313	-0.580628	9.404488	-0.00645	-0.981396	0.142945	-0.569336	0.072754	-0.228027
771.0	5.310375	-0.821734	9.569178	0.079742	-1.185955	0.073191	-0.578125	0.072754	-0.21875
772.0	5.053626	-0.427365	9.916904	0.175204	-1.412628	0.023854	-0.580078	0.066162	-0.214111
774.0	5.244898	-0.309617	10.111854	0.170537	-1.861332	-0.024839	-0.584229	0.063965	-0.188965
775.0	5.081808	0.28566	10.159309	0.283649	-2.331104	-0.02614	-0.59082	0.065918	-0.177734
776.0	4.691844	0.811537	10.760983	0.234574	-2.716777	0.00807	-0.595215	0.063721	-0.159424
777.0	4.516724	1.053854	11.039235	0.169818	-3.174272	0.063278	-0.601563	0.059326	-0.141113
778.0	4.572072	1.721469	11.304709	0.115531	-3.675227	0.176023	-0.60376	0.061523	-0.120605
779.0	4.664251	2.029565	11.819245	-0.053432	-4.239192	0.337142	-0.606201	0.065674	-0.091064
780.0	5.084992	1.942551	11.818004	-0.163828	-4.812564	0.526451	-0.61499	0.067627	-0.054688
781.0	5.232282	2.115848	11.867012	-0.26547	-5.391531	0.692256	-0.617188	0.072021	-0.027344
782.0	5.483612	1.743262	11.216252	-0.443142	-6.051454	0.847763	-0.612793	0.069824	0.006836
783.0	6.477072	1.303642	11.038533	-0.497545	-6.705086	0.997099	-0.61084	0.073975	0.052246
784.0	10.085492	-0.990102	11.372386	-0.618269	-7.242144	0.974697	-0.604492	0.080566	0.095459
785.0	15.251025	-4.405862	10.401613	-0.185021	-7.172891	0.699939	-0.591309	0.076172	0.134277
786.0	24.654492	2.030417	14.089061	1.23033	-6.577271	0.494093	-0.584717	0.078369	0.168457
787.0	23.446368	5.048277	12.310485	0.507673	-5.161681	0.869116	-0.576172	0.080322	0.200439
788.0	20.240443	5.847864	13.826535	-0.072392	-4.556637	1.247668	-0.556641	0.080566	0.227539
789.0	12.007308	5.086654	12.736846	-0.629276	-3.834092	1.628012	-0.543945	0.089355	0.243408
790.0	7.514968	6.721629	16.98097	-0.66159	-3.219693	1.215788	-0.532959	0.089355	0.263916
791.0	17.206904	7.617978	22.52033	-1.587914	-1.351827	0.14259	-0.523682	0.076172	0.268799
792.0	1.797943	7.799673	15.046425	-0.575748	-0.263254	-0.539389	-0.519043	0.069824	0.27124
793.0	0.084799	7.222579	13.441821	-2.29497	-0.083493	-0.917114	-0.513916	0.054443	0.282715
794.0	-0.221283	-0.097127	9.260881	-2.008392	-0.021241	-1.086171	-0.502441	0.039307	0.278564
795.0	-1.00243	0.880863	10.440651	-1.118819	0.148717	-1.065412	-0.497314	0.023926	0.285645
796.0	-0.266317	-0.734623	9.925895	-0.889376	0.290271	-0.981952	-0.488037	0.013184	0.290527
797.0	0.188736	0.757352	10.910327	-0.463373	0.598843	-0.810135	-0.487793	0.004395	0.290527
798.0	0.85134	0.833909	10.787764	-0.420044	0.976857	-0.612081	-0.47876	-0.002197	0.286133
799.0	1.337913	1.254013	10.925848	-0.458351	1.431313	-0.439877	-0.480469	-0.008545	0.288574
800.0	1.865137	0.859301	10.516799	-0.42483	1.925337	-0.325505	-0.478027	-0.015137	0.291016
801.0	2.503855	0.862196	10.235673	-0.404602	2.427993	-0.254665	-0.480225	-0.017334	0.28418
802.0	2.961892	1.093926	9.753647	-0.314568	2.919951	-0.219761	-0.479736	-0.026123	0.272949
803.0	2.996586	1.416345	9.131385	-0.29489	3.335486	-0.213693	-0.484375	-0.023926	0.268311
804.0	2.999007	1.57547	8.651725	-0.29311	3.652493	-0.246059	-0.492676	-0.030518	0.266113
805.0	3.069582	1.651117	8.231989	-0.271118	3.863277	-0.297947	-0.503418	-0.034912	0.257324
806.0	3.217277	1.702324	8.131464	-0.278451	4.001858	-0.375434	-0.51001	-0.032715	0.248047
807.0	3.847815	1.345172	8.321645	-0.242421	4.097146	-0.456415	-0.525391	-0.032959	0.241211
808.0	4.709817	1.075766	8.708726	-0.141031	4.215852	-0.518076	-0.538574	-0.026367	0.2229
809.0	5.636486	0.881724	9.042276	-0.013593	4.34589	-0.554604	-0.552002	-0.02417	0.202393
810.0	6.692143	1.205284	9.581618	0.11776	4.510753	-0.564583	-0.563477	-0.010986	0.172607
811.0	7.328739	1.350978	10.052215	0.151042	4.647078	-0.563408	-0.563965	0.0	0.142578
812.0	7.595885	1.846929	10.635934	0.197803	4.784465	-0.546342	-0.557861	0.010986	0.110596
813.0	8.373492	1.188929	11.063972	0.169838	4.859699	-0.568112	-0.550293	0.035156	0.078125
814.0	8.761336	1.385177	11.824006	0.320845	4.912345	-0.611447	-0.51416	0.059326	0.050293
815.0	9.2496	0.746167	12.339495	0.39402	4.897798	-0.653199	-0.485596	0.101074	0.051758
816.0	10.113997	0.232093	13.011497	0.561511	4.853043	-0.631851	-0.463379	0.142578	0.053223
817.0	10.698133	-0.880124	13.18272	0.743951	4.771773	-0.546802	-0.454834	0.197266	0.063477
818.0	10.69238	-1.658111	13.224724	1.044444	4.583745	-0.378148	-0.455322	0.251709	0.078369
819.0	11.515137	-2.899692	13.393035	1.298707	4.217922	-0.198034	-0.474609	0.297363	0.077393
820.0	14.910347	-4.659627	13.474594	1.732029	3.827339	-0.075363	-0.491699	0.338867	0.065186
821.0	20.374048	-4.767799	13.7506	2.433479	3.735192	0.001234	-0.517578	0.37793	0.043945
822.0	25.731551	-2.784458	13.549661	2.843407	3.96794	0.060589	-0.535889	0.399902	0.013916
823.0	28.954196	-0.483416	11.996944	2.731312	4.472528	0.132073	-0.561035	0.421631	-0.04126
824.0	29.246117	1.096643	8.791118	2.150064	4.913581	0.253455	-0.57666	0.428223	-0.098145
825.0	27.525468	-0.487351	3.671497	1.399881	5.033231	0.338475	-0.583008	0.423828	-0.150635
826.0	25.190512	-3.238476	-2.457846	1.097577	4.764694	0.336025	-0.583008	0.42627	-0.212158
827.0	24.113809	-5.505846	-8.178455	1.126057	4.078879	0.266639	-0.588867	0.41333	-0.257568
828.0	27.495081	-8.222122	-15.243118	1.325577	3.152062	0.218933	-0.588623	0.402344	-0.291504
829.0	30.111369	-6.040513	-20.67447	1.983982	2.397191	0.216412	-0.588379	0.400391	-0.325684
830.0	27.007361	-2.208384	-22.3643	1.344469	1.36609	-0.008647	-0.588379	0.400391	-0.348389
831.0	20.742975	5.891247	-20.207082	1.085443	-0.166096	-0.219524	-0.599609	0.40918	-0.364502
832.0	5.659442	6.817025	-17.133092	-3.422367	-2.585104	0.022139	-0.623291	0.446045	-0.331055
833.0	2.557793	-15.435258	8.680101	-5.516847	-5.773713	-1.336767	-0.661133	0.465332	-0.310791
834.0	16.280327	1.550542	26.057359	2.85188	-2.233016	-0.641672	-0.674561	0.476074	-0.320068
835.0	1.152289	6.881563	15.3766	-2.806337	-2.200119	-0.143188	-0.691162	0.504395	-0.295654
836.0	2.445371	-20.506442	-5.317681	-5.62807	-3.888749	-0.277219	-0.714355	0.534668	-0.268799
837.0	12.863198	-11.276119	12.306143	1.836642	-3.868565	0.624149	-0.735107	0.558594	-0.255615
838.0	14.906076	-5.531437	15.855851	-1.357824	-3.584585	0.69195	-0.740234	0.578125	-0.226318
839.0	14.056666	-5.253162	8.360801	1.75038	-3.162612	0.45121	-0.756104	0.591064	-0.215088
840.0	31.263521	20.439621	20.978261	2.092529	-3.018083	1.312971	-0.750488	0.610596	-0.20874
841.0	12.782792	11.347676	11.272288	-4.131376	-0.033204	0.248591	-0.755859	0.632324	-0.181885
842.0	7.146181	-10.289857	9.746391	-3.8213	-2.248404	0.138178	-0.766846	0.636719	-0.163574
843.0	11.708814	-9.146958	6.936156	0.193965	-0.178176	0.613545	-0.760742	0.645508	-0.168457
844.0	7.68779	4.106276	11.029565	0.557674	-0.330022	0.39319	-0.762939	0.647705	-0.168457
845.0	5.753252	0.469986	9.415419	-1.646259	-0.412786	0.236597	-0.771973	0.654053	-0.161621
846.0	8.402685	-1.765408	7.655463	-0.359628	-0.116487	0.263047	-0.763428	0.65625	-0.161865
847.0	5.951418	1.267223	9.755712	-0.354509	0.061705	0.251799	-0.772461	0.662842	-0.152832
848.0	6.867208	-2.261458	8.540904	-0.795972	-0.014226	0.168931	-0.766113	0.667236	-0.150635
849.0	6.102363	-0.400176	9.280426	0.133006	0.120349	0.140654	-0.763916	0.669434	-0.164307
850.0	5.638214	-0.221666	8.923462	-0.368354	0.04909	0.103349	-0.759521	0.669434	-0.159668
851.0	5.55348	-0.242566	8.970248	-0.036258	0.055467	0.091248	-0.761719	0.669434	-0.155273
852.0	5.564809	-0.286138	8.984326	-0.195188	-0.006384	0.063648	-0.763916	0.667236	-0.155029
853.0	5.497839	-0.339178	8.822831	0.017547	-0.021258	0.029699	-0.761963	0.673828	-0.153076
854.0	5.407091	0.403173	8.875859	-0.005491	-0.052926	0.012146	-0.761963	0.673828	-0.153076
855.0	5.505239	0.424893	8.782221	-0.027931	-0.073091	0.017531	-0.766357	0.671631	-0.150635
856.0	5.545156	0.636728	8.718281	-0.034429	-0.070815	0.023167	-0.761963	0.673828	-0.150635
857.0	5.488777	0.71088	8.731399	-0.081619	-0.071221	0.030884	-0.76001	0.676025	-0.150635
858.0	5.527442	0.571223	8.726066	-0.102607	-0.076372	0.03438	-0.761963	0.673828	-0.153076
859.0	5.503194	0.50805	8.682587	-0.081536	-0.083149	0.04279	-0.76001	0.676025	-0.14624
860.0	5.450046	0.586021	8.804122	-0.095842	-0.093901	0.057471	-0.762207	0.676025	-0.14624
861.0	5.602152	0.310353	8.749867	-0.128676	-0.101299	0.067656	-0.762207	0.68042	-0.148438
862.0	5.599496	-0.033107	8.756189	-0.115352	-0.103642	0.069462	-0.770996	0.677979	-0.148438
863.0	5.685062	-0.155525	8.745198	-0.090179	-0.113515	0.05781	-0.766602	0.68042	-0.157715
864.0	5.649258	-0.188117	8.686421	-0.050785	-0.109601	0.040039	-0.762451	0.68457	-0.14624
865.0	5.66644	0.085219	8.650597	-0.002716	-0.112747	0.034576	-0.766602	0.680176	-0.144043
866.0	5.737862	0.239834	8.610442	-0.025118	-0.119391	0.036309	-0.762207	0.68042	-0.14624
867.0	5.79481	0.239171	8.515135	-0.036638	-0.107501	0.044279	-0.764404	0.680176	-0.141602
868.0	5.79076	0.265834	8.551497	-0.036946	-0.087408	0.054763	-0.766846	0.682373	-0.144043
869.0	5.819266	0.085286	8.502885	-0.067412	-0.075292	0.065693	-0.766846	0.682373	-0.150879
870.0	5.79968	-0.160432	8.547555	-0.062654	-0.062911	0.056738	-0.764404	0.678223	-0.141602
871.0	5.834313	0.20107	8.651155	0.029246	-0.058073	0.064112	-0.769043	0.686768	-0.144043
872.0	5.721414	0.108579	8.721622	-0.104701	-0.070068	0.072523	-0.764648	0.68457	-0.14624
873.0	5.829956	-0.2104	8.548259	-0.008452	-0.077723	0.059455	-0.760498	0.686768	-0.141846
874.0	5.796823	0.194026	8.683108	0.00246	-0.082782	0.064011	-0.769043	0.682373	-0.137207
875.0	5.763573	-0.022727	8.659434	-0.053088	-0.099131	0.064528	-0.762695	0.688965	-0.137451
876.0	5.794702	-0.078047	8.655924	0.008881	-0.107737	0.059951	-0.76709	0.691162	-0.132813
877.0	5.778897	-0.019048	8.679081	0.008431	-0.119792	0.063846	-0.775879	0.688965	-0.13501
878.0	5.750815	0.009978	8.692759	0.023802	-0.139521	0.066609	-0.762695	0.688965	-0.139648
879.0	5.637354	0.064865	8.761499	0.054896	-0.159899	0.064897	-0.758301	0.688965	-0.139648
880.0	5.565449	0.224792	8.886456	0.063584	-0.205587	0.078668	-0.758301	0.688965	-0.137451
881.0	5.593657	0.219857	8.950003	0.04901	-0.261371	0.095232	-0.76709	0.691162	-0.130615
882.0	5.589167	-0.040549	8.787584	0.047043	-0.310512	0.107427	-0.762695	0.691162	-0.130615
883.0	5.640663	-0.165478	8.688424	0.087376	-0.359523	0.090882	-0.762939	0.693359	-0.128418
884.0	5.365545	-0.560933	8.991582	0.012615	-0.441795	0.046138	-0.762695	0.691162	-0.128174
885.0	5.562364	-0.310852	8.887483	0.158504	-0.501704	-0.008555	-0.765137	0.693359	-0.130615
886.0	5.219104	0.339492	9.362427	0.137829	-0.618891	-0.017071	-0.764893	0.686768	-0.119141
887.0	5.202773	0.171846	9.332032	0.083772	-0.782592	-0.018069	-0.771484	0.688965	-0.119141
888.0	5.235309	0.157596	9.478101	0.156298	-0.963314	-0.008699	-0.766846	0.68457	-0.107666
889.0	5.291957	0.002162	9.558472	0.139046	-1.163736	-0.00673	-0.773193	0.680176	-0.100586
890.0	5.47871	-0.310931	9.508239	0.169701	-1.379394	-0.026022	-0.773438	0.68457	-0.093994
891.0	5.318924	-0.501246	9.68557	0.193554	-1.589353	-0.058647	-0.777344	0.673584	-0.080078
892.0	5.336719	-0.416091	9.829328	0.273915	-1.857225	-0.101526	-0.783936	0.675537	-0.068604
893.0	5.17698	0.026314	10.085124	0.299307	-2.161471	-0.126231	-0.783203	0.6604	-0.054688
894.0	4.950161	0.446823	10.253669	0.346455	-2.528762	-0.121064	-0.782715	0.651611	-0.040771
895.0	4.662277	1.312242	10.54538	0.401319	-2.934219	-0.062064	-0.791748	0.655762	-0.020508
896.0	4.483384	1.519298	10.909051	0.275581	-3.438065	0.026934	-0.791504	0.64917	0.00708
897.0	4.830998	1.840742	11.33222	0.284294	-3.955557	0.149486	-0.791016	0.642578	0.034668
898.0	4.564973	2.206544	11.894528	0.169628	-4.601949	0.287203	-0.792969	0.635986	0.06665
899.0	5.018994	2.289732	12.105534	0.015359	-5.297677	0.459878	-0.788574	0.635986	0.103027
900.0	4.897448	2.513008	12.378854	-0.112594	-6.032163	0.660588	-0.781738	0.62915	0.144287
901.0	5.051662	2.133094	12.020914	-0.333051	-6.904889	0.839907	-0.7771	0.622559	0.201416
902.0	7.256476	1.20305	12.753693	-0.43274	-7.697609	0.924505	-0.759277	0.61377	0.249268
903.0	12.314634	-3.488855	11.909178	-0.562682	-8.137979	0.695624	-0.743408	0.603027	0.299561
904.0	21.152967	-5.695618	12.899969	0.827993	-7.974991	0.163172	-0.732178	0.592041	0.338623
905.0	29.92079	4.412487	13.391872	2.012579	-6.519172	0.224399	-0.713867	0.574463	0.366211
906.0	26.735272	8.449258	16.47387	0.761963	-5.511886	0.830431	-0.695557	0.554932	0.382568
907.0	19.664844	6.13552	14.901981	0.118441	-4.2304	1.357267	-0.672363	0.526855	0.396729
908.0	3.932849	7.851954	18.209782	-0.344567	-3.40374	1.726567	-0.65625	0.505127	0.399414
909.0	19.433189	9.820962	23.400156	-1.26993	-3.20978	1.040602	-0.648193	0.472412	0.402344
910.0	9.446038	4.40302	19.70945	-1.866219	0.219918	0.166329	-0.640137	0.4375	0.387207
911.0	-0.359514	8.157378	15.62573	-1.081425	0.439244	-0.34643	-0.638428	0.400391	0.369629
912.0	-3.342646	3.165006	10.974817	-2.633793	0.348781	-0.648818	-0.630371	0.367676	0.354248
913.0	-1.660257	-0.797901	9.268473	-1.306858	0.422531	-0.713483	-0.622803	0.341797	0.33667
914.0	-1.3298	0.747452	10.399073	-0.897158	0.628815	-0.679147	-0.600098	0.322266	0.323242
915.0	-0.714021	0.958329	10.480087	-0.439962	0.996829	-0.572623	-0.590576	0.307129	0.312012
916.0	-0.337916	1.624988	10.736644	-0.478839	1.42693	-0.435193	-0.563721	0.289795	0.298828
917.0	0.179556	1.252454	10.531556	-0.376451	1.912605	-0.302432	-0.545898	0.283447	0.289795
918.0	0.623463	0.651276	10.182246	-0.356363	2.420328	-0.193378	-0.528076	0.274658	0.282959
919.0	1.261435	0.297608	9.86919	-0.201084	2.914621	-0.08505	-0.512451	0.263916	0.27417
920.0	1.884963	0.288423	9.430156	-0.084054	3.382959	0.015895	-0.507568	0.255371	0.271973
921.0	2.049806	0.266258	8.954923	-0.00996	3.77562	0.104647	-0.504639	0.235596	0.276855
922.0	2.277552	0.221328	8.548903	0.096598	4.071565	0.172016	-0.506348	0.226807	0.272461
923.0	2.698401	0.405523	8.411416	0.192046	4.294325	0.198626	-0.518555	0.207275	0.279785
924.0	3.204554	0.626154	8.540408	0.257826	4.481585	0.186145	-0.532959	0.185303	0.268799
925.0	3.852091	0.545324	8.672661	0.335571	4.628096	0.129504	-0.545166	0.165527	0.269287
926.0	4.690407	0.64719	9.00338	0.430349	4.789568	0.065693	-0.563232	0.132813	0.253906
927.0	5.348951	0.547888	9.338534	0.521391	4.93205	0.007963	-0.592773	0.108643	0.240723
928.0	6.179071	0.66988	9.944663	0.617436	5.058735	-0.052538	-0.615479	0.082275	0.225342
929.0	7.112896	0.816016	10.702744	0.705633	5.178554	-0.122456	-0.633789	0.051758	0.200928
930.0	7.936607	0.64915	11.415064	0.737737	5.283416	-0.205861	-0.656982	0.031982	0.17627
931.0	8.665678	0.427185	12.381922	0.847506	5.355997	-0.306349	-0.671143	0.008057	0.144775
932.0	9.303921	-0.224521	12.969821	0.927816	5.367836	-0.383002	-0.6875	-0.018311	0.113525
933.0	9.87726	-0.474051	13.461869	1.128679	5.297172	-0.405031	-0.701904	-0.035645	0.084229
934.0	11.362308	-0.660746	13.939013	1.289431	5.141933	-0.401185	-0.708008	-0.044434	0.041016
935.0	13.073134	-0.330761	14.463416	1.598899	4.979311	-0.417289	-0.711914	-0.052979	0.004883
936.0	16.314117	-0.114956	15.144033	1.707997	4.829204	-0.567167	-0.71875	-0.050781	-0.0271
937.0	19.838373	-0.200937	14.933275	1.988932	4.791229	-0.815693	-0.714355	-0.048584	-0.072754
938.0	23.009162	-2.285705	14.246146	1.656759	4.851143	-1.046662	-0.707764	-0.04834	-0.120605
939.0	26.678737	-3.016542	12.230301	2.225835	4.9735	-1.088367	-0.699219	-0.046143	-0.159424
940.0	29.170948	-0.155092	11.032869	1.775318	5.114542	-0.791176	-0.67749	-0.043701	-0.205078
941.0	29.49546	-0.238021	7.395435	1.215742	5.192812	-0.391424	-0.6604	-0.039063	-0.246094
942.0	28.505915	-2.133284	2.147568	0.695799	5.052551	-0.127567	-0.643311	-0.030029	-0.285156
943.0	26.86026	-3.952329	-3.662405	0.810018	4.65383	-0.020864	-0.626221	-0.023438	-0.31958
944.0	26.429938	-6.865954	-9.740009	0.915909	3.896157	-0.003767	-0.608643	-0.027588	-0.34668
945.0	30.42368	-9.620794	-18.515695	1.766324	2.977202	-0.023239	-0.591064	-0.025146	-0.360596
946.0	29.974031	-4.5922	-23.013122	2.515014	2.032445	-0.056889	-0.584229	-0.033936	-0.369385
947.0	25.23473	-0.335123	-22.936251	1.468883	0.556174	-0.226789	-0.588867	-0.029541	-0.369629
948.0	22.173812	1.532241	-17.847148	0.098243	-1.297592	-0.456025	-0.59082	-0.033936	-0.353516
949.0	10.746266	8.063732	-5.646997	-0.230281	-2.348428	-0.585144	-0.599365	-0.036133	-0.335205
950.0	-5.539522	3.059294	16.071634	-3.562188	-4.264333	-0.699553	-0.619629	-0.023193	-0.312744
951.0	8.728785	3.178471	19.681271	-0.815602	-2.921566	-0.837503	-0.624023	-0.02124	-0.308105
952.0	-2.055001	3.338764	8.999349	-2.522764	-3.018185	-0.445829	-0.637695	-0.010498	-0.285645
953.0	6.444115	-14.165795	-1.26135	-4.236717	-4.329606	-0.58304	-0.648926	-0.003906	-0.253662
954.0	16.25126	-9.063907	11.177117	0.09338	-4.124259	-0.053507	-0.657715	0.000244	-0.22876
955.0	13.411744	-6.260183	15.957955	-1.797838	-3.082708	0.547496	-0.666992	0.010986	-0.222168
956.0	5.991179	-16.444094	7.373589	-0.746566	-3.338498	0.881849	-0.675781	0.013184	-0.197021
957.0	15.365164	-0.514651	11.427278	2.101994	-3.716087	0.689936	-0.684814	0.019531	-0.172119
958.0	33.017872	20.955203	19.799255	1.407941	-3.067652	1.160493	-0.687256	0.02832	-0.160889
959.0	11.556123	13.284352	10.960994	-3.253486	-0.200091	0.472707	-0.687988	0.04126	-0.154297
960.0	8.062164	-9.091833	11.18521	-4.450716	-2.429129	0.170287	-0.692627	0.047852	-0.13623
961.0	13.766487	-14.048571	5.815426	-0.269436	-0.507007	0.632568	-0.69043	0.050049	-0.13623
962.0	7.470267	5.194423	11.492272	1.484788	-0.205024	0.520917	-0.692627	0.050049	-0.129395
963.0	5.880124	2.319943	10.049671	-2.212464	-0.506052	0.247594	-0.695313	0.060791	-0.125
964.0	8.35808	-3.878085	6.997486	-0.662037	-0.227594	0.249943	-0.691162	0.062988	-0.127441
965.0	5.945156	2.216847	10.542075	0.054168	-0.064475	0.28362	-0.695313	0.060791	-0.131836
966.0	6.700011	-1.399208	8.223919	-1.198285	-0.169264	0.184547	-0.693359	0.062988	-0.129639
967.0	6.197581	-0.696489	8.652602	0.089629	0.0787	0.194548	-0.695557	0.067383	-0.122803
968.0	6.369961	0.24034	9.498723	-0.534272	-0.0305	0.13923	-0.693359	0.065186	-0.122803
969.0	5.844004	-1.476633	8.408994	-0.124515	0.041112	0.112082	-0.695801	0.073975	-0.127686
970.0	5.587329	0.501515	9.257165	-0.076369	0.004654	0.092038	-0.696045	0.076172	-0.129883
971.0	5.763482	-0.640122	8.533108	-0.186989	-0.045465	0.062021	-0.691406	0.06958	-0.13208
972.0	5.621936	0.443427	8.917043	0.048145	-0.047304	0.041552	-0.689209	0.06958	-0.13208
973.0	5.714278	0.171077	8.634931	-0.132319	-0.088984	0.020977	-0.69165	0.076172	-0.118408
974.0	5.67128	0.505509	8.662728	0.014598	-0.080529	0.027399	-0.695801	0.073975	-0.129883
975.0	5.68715	0.538514	8.644296	-0.113415	-0.096768	0.04051	-0.69165	0.073975	-0.125244
976.0	5.696976	0.404473	8.592751	-0.088638	-0.092197	0.04456	-0.693848	0.073975	-0.125244
977.0	5.71111	0.387444	8.664596	-0.126743	-0.097627	0.053943	-0.696045	0.076172	-0.12085
978.0	5.739124	0.272742	8.643551	-0.122297	-0.100369	0.064223	-0.691406	0.071777	-0.120605
979.0	5.808967	0.298339	8.612958	-0.107654	-0.092261	0.071258	-0.696045	0.076172	-0.129883
980.0	5.874028	0.044899	8.610595	-0.140793	-0.086715	0.071413	-0.696045	0.076172	-0.123047
981.0	5.954075	-0.19221	8.53023	-0.096168	-0.074964	0.06122	-0.691406	0.071777	-0.118408
982.0	5.869922	-0.123448	8.522882	-0.054817	-0.072171	0.04461	-0.695801	0.073975	-0.123047
983.0	5.865129	0.010256	8.521719	-0.033924	-0.068721	0.034317	-0.693604	0.071777	-0.120605
984.0	5.865141	0.136325	8.543192	-0.03461	-0.063708	0.040188	-0.694092	0.080566	-0.118652
985.0	5.900288	0.117076	8.474171	-0.046863	-0.057543	0.043903	-0.696045	0.076172	-0.118408
986.0	5.891643	0.07948	8.462185	-0.051465	-0.048805	0.050824	-0.692139	0.084961	-0.114014
987.0	5.896883	0.07517	8.513955	-0.045264	-0.044774	0.060808	-0.691895	0.080566	-0.116211
988.0	5.845497	-0.100516	8.566017	-0.068518	-0.034507	0.056573	-0.693848	0.076172	-0.111572
989.0	5.908533	0.051215	8.531765	-0.007741	-0.038494	0.069087	-0.696289	0.080566	-0.114014
990.0	5.807879	-0.135267	8.563433	-0.07802	-0.04855	0.06066	-0.696289	0.080566	-0.116211
991.0	5.859941	-0.010781	8.574227	0.005464	-0.044412	0.057327	-0.694092	0.082764	-0.116455
992.0	5.74061	0.148221	8.663742	-0.025148	-0.062507	0.066817	-0.694336	0.086914	-0.114258
993.0	5.795407	-0.031993	8.580218	-0.036049	-0.083946	0.074226	-0.698486	0.084717	-0.114014
994.0	5.79532	0.044798	8.636305	-0.009089	-0.09772	0.075803	-0.694092	0.084717	-0.111816
995.0	5.830699	0.037865	8.596456	-0.008032	-0.122995	0.083147	-0.696289	0.082764	-0.114014
996.0	5.812642	0.04638	8.65459	0.015008	-0.138929	0.09089	-0.696533	0.086914	-0.111816
997.0	5.768847	0.113878	8.687373	0.021954	-0.165515	0.110277	-0.692383	0.091309	-0.107422
998.0	5.516692	0.305871	8.817212	0.044072	-0.198563	0.122391	-0.692139	0.084961	-0.107178
999.0	5.63911	0.247989	8.759551	-0.011637	-0.275682	0.145195	-0.696777	0.093506	-0.112061
1000.0	5.752678	-0.023466	8.699217	-0.02244	-0.307439	0.148738	-0.698975	0.093506	-0.107422
1001.0	5.747991	-0.023949	8.637587	0.045678	-0.345222	0.167335	-0.698975	0.091309	-0.100586
1002.0	5.566292	0.195844	8.920326	0.035665	-0.386378	0.178344	-0.69458	0.093506	-0.095947
1003.0	5.327569	-0.364645	9.07023	-0.084798	-0.517762	0.154903	-0.696533	0.089111	-0.09375
1004.0	5.591703	-0.106633	9.144753	0.111646	-0.629342	0.138621	-0.698975	0.095703	-0.091553
1005.0	5.443833	-0.096422	9.490152	0.007918	-0.790188	0.12044	-0.701172	0.095703	-0.086914
1006.0	5.16542	-0.796299	9.451033	0.041884	-0.989325	0.081851	-0.694824	0.0979	-0.075684
1007.0	5.415838	-0.662259	9.539742	0.156541	-1.207891	0.021208	-0.697021	0.0979	-0.068848
1008.0	5.369376	-0.612548	9.724585	0.140398	-1.436055	-0.028245	-0.703613	0.097656	-0.055176
1009.0	5.258393	-0.528389	9.885874	0.197619	-1.707944	-0.07024	-0.705322	0.091064	-0.043701
1010.0	4.864682	-0.087084	10.367021	0.247636	-2.015018	-0.079162	-0.707764	0.095459	-0.034668
1011.0	4.891587	0.376311	10.503148	0.235957	-2.429157	-0.062605	-0.701172	0.095459	-0.009521
1012.0	4.615222	0.762005	10.70057	0.233308	-2.87961	-0.007823	-0.701416	0.097656	0.00415
1013.0	4.615033	1.467671	11.221605	0.215319	-3.392904	0.083715	-0.710205	0.101807	0.033691
1014.0	4.489767	1.836024	11.671675	0.069726	-3.951754	0.228273	-0.699219	0.099609	0.056641
1015.0	4.681715	2.253521	12.306701	0.032227	-4.577949	0.394044	-0.697266	0.106201	0.097412
1016.0	4.755369	2.850598	12.95094	-0.121525	-5.293637	0.645561	-0.697754	0.116943	0.135986
1017.0	4.44056	2.757993	12.984741	-0.399544	-6.097042	0.880237	-0.682617	0.121338	0.176758
1018.0	5.003701	2.421359	12.697746	-0.556996	-6.97634	1.091345	-0.672363	0.13208	0.222168
1019.0	7.611097	0.459767	12.645466	-0.742846	-7.815307	1.213719	-0.650635	0.134277	0.279053
1020.0	14.019854	-4.418539	11.920503	-0.642575	-8.094156	0.968923	-0.624756	0.145264	0.32666
1021.0	23.315752	-2.105397	13.887703	1.160468	-7.776831	0.515035	-0.599121	0.15625	0.369873
1022.0	31.356969	5.011669	14.57262	1.032545	-6.090575	0.711424	-0.577881	0.167236	0.39917
1023.0	23.335749	7.765492	15.629855	0.348598	-4.991382	1.200813	-0.560791	0.176025	0.428711
1024.0	14.816109	6.386321	15.368711	-0.86969	-4.047044	1.703245	-0.541748	0.187012	0.448975
1025.0	5.989783	6.85116	19.354101	-0.851403	-3.317286	1.316364	-0.521973	0.187012	0.462646
1026.0	19.945544	8.164558	25.312805	-1.731555	-1.37224	0.032883	-0.523926	0.18042	0.476318
1027.0	-0.609878	7.781683	15.614844	-0.719583	0.198258	-0.76165	-0.521729	0.182617	0.47168
1028.0	-3.154183	8.28743	13.851275	-2.230786	0.023554	-1.168349	-0.527344	0.160889	0.481201
1029.0	-1.264622	-0.440743	9.559025	-2.577724	-0.145322	-1.344308	-0.529297	0.1521	0.481445
1030.0	-0.833845	-0.391981	11.073185	-0.918195	0.242052	-1.257087	-0.53125	0.149902	0.481445
1031.0	-0.380376	-0.531029	11.115903	-0.792588	0.567915	-1.103212	-0.533203	0.145508	0.481689
1032.0	-0.530421	1.298318	11.784525	-0.337591	1.019507	-0.819558	-0.543945	0.138916	0.474854
1033.0	-0.248365	0.566852	11.156978	-0.567158	1.428461	-0.506108	-0.550293	0.138916	0.470459
1034.0	0.314518	-0.182137	10.798321	-0.384359	1.92175	-0.265919	-0.561523	0.143066	0.46582
1035.0	0.715193	-0.578276	10.209265	-0.190143	2.421501	-0.105072	-0.577148	0.149658	0.451904
1036.0	1.074465	-0.166832	9.750863	0.035514	2.888802	0.005125	-0.588379	0.158447	0.435791
1037.0	1.442049	0.283664	9.251946	0.158423	3.29239	0.086748	-0.610352	0.1604	0.422119
1038.0	1.928965	0.657122	8.932416	0.217986	3.622454	0.127127	-0.623779	0.171387	0.403809
1039.0	2.651277	0.842481	8.827637	0.272392	3.909619	0.115702	-0.643799	0.177734	0.383057
1040.0	3.032716	1.012125	8.859439	0.311357	4.154036	0.066787	-0.661865	0.190674	0.35791
1041.0	3.658345	0.88005	8.99829	0.32369	4.349275	-0.001014	-0.686279	0.199463	0.328125
1042.0	4.495862	0.800311	9.260579	0.417648	4.533221	-0.075194	-0.701904	0.208252	0.293701
1043.0	5.348552	0.892856	9.746766	0.47843	4.715891	-0.126033	-0.728516	0.216797	0.261719
1044.0	6.281971	0.893976	10.262413	0.521638	4.89144	-0.169498	-0.741943	0.227783	0.227295
1045.0	7.016418	0.758786	10.827771	0.588292	5.069804	-0.219987	-0.757813	0.240723	0.188232
1046.0	7.861361	0.927271	11.625467	0.634918	5.22009	-0.25116	-0.775391	0.245117	0.142578
1047.0	8.874114	0.408457	12.410896	0.713392	5.334985	-0.305683	-0.79126	0.256104	0.099121
1048.0	9.725796	0.13411	13.498462	0.837619	5.423442	-0.35232	-0.804443	0.256104	0.046631
1049.0	10.508707	-0.791017	13.9324	1.007798	5.458259	-0.35263	-0.811279	0.262695	-0.014893
1050.0	11.272854	-0.856289	14.309157	1.298609	5.377246	-0.288865	-0.813477	0.262939	-0.067383
1051.0	13.207311	-1.077502	14.481887	1.568232	5.201034	-0.217882	-0.806885	0.260986	-0.137939
1052.0	15.090274	0.202799	14.404622	1.979831	5.045133	-0.225909	-0.804199	0.252441	-0.194824
1053.0	16.958173	1.183565	13.69616	2.032801	4.765282	-0.437153	-0.788086	0.23291	-0.255859
1054.0	19.555142	-0.713534	12.369247	1.984686	4.417587	-0.85552	-0.769775	0.211426	-0.305664
1055.0	23.424798	-5.1167	10.308301	2.048469	4.121572	-1.276725	-0.761719	0.181152	-0.355225
1056.0	29.604481	-2.776154	10.423087	2.623929	4.109436	-1.265588	-0.729736	0.148682	-0.386475
1057.0	33.361014	-0.911136	8.571309	1.991213	4.393116	-0.905071	-0.707275	0.133545	-0.422852
1058.0	33.166895	-1.508563	4.52099	1.016836	4.699564	-0.438168	-0.680176	0.109863	-0.463379
1059.0	30.553811	-4.915316	-2.358206	0.508885	4.780393	-0.159601	-0.64917	0.101318	-0.497314
1060.0	27.469295	-5.860609	-8.481694	0.400741	4.375069	-0.011573	-0.625	0.094971	-0.522461
1061.0	29.419743	-9.615319	-17.068071	0.430997	3.514319	0.11672	-0.607178	0.086426	-0.540527
1062.0	30.046558	-8.927662	-23.591259	1.373724	2.581136	0.196243	-0.589111	0.073486	-0.553955
1063.0	25.845068	-4.697968	-24.972538	1.480965	1.336268	0.008207	-0.584229	0.062744	-0.555908
1064.0	20.83005	0.010699	-20.480894	0.807628	-0.438295	-0.381076	-0.581543	0.051758	-0.553467
1065.0	13.967483	12.571962	-13.192801	1.013672	-1.935799	-0.411609	-0.601318	0.055908	-0.542236
1066.0	-11.313046	1.808022	12.798686	-5.632007	-4.288023	-0.971243	-0.630615	0.073242	-0.503662
1067.0	17.484762	-2.400803	19.613553	-0.684942	-3.635256	-1.412038	-0.643066	0.060059	-0.498779
1068.0	-2.786914	6.866979	14.660824	-0.27616	-2.101196	-1.025165	-0.65625	0.066406	-0.478516
1069.0	4.255888	-7.394536	-0.495663	-5.750007	-4.193646	-1.196703	-0.678711	0.077148	-0.444336
1070.0	15.814348	-14.076957	5.530424	-0.117423	-4.029639	-0.720141	-0.697754	0.065918	-0.416748
1071.0	14.02642	-3.376041	20.051632	-1.420702	-3.24404	0.182642	-0.707275	0.081055	-0.396729
1072.0	10.689509	-21.332032	6.299654	-1.391962	-3.043025	0.547419	-0.722412	0.083252	-0.380615
1073.0	13.194862	-1.850856	11.289614	2.605275	-3.210752	0.678896	-0.735352	0.078613	-0.353271
1074.0	29.685823	17.430737	18.877296	1.020216	-2.797213	0.963914	-0.741943	0.080811	-0.341797
1075.0	11.801515	11.992754	10.363627	-2.226218	-0.167377	0.444627	-0.742676	0.095947	-0.335449
1076.0	8.49848	-4.769515	12.472938	-3.701784	-2.039027	0.316566	-0.75	0.113281	-0.317383
1077.0	11.316385	-13.099597	5.249889	-0.796431	-0.172327	0.570877	-0.747803	0.111328	-0.317383
1078.0	8.08869	4.880785	11.309831	1.5835	-0.162695	0.486335	-0.743408	0.113525	-0.319824
1079.0	4.665615	3.058642	10.085294	-1.911129	-0.302983	0.312999	-0.750732	0.126465	-0.310791
1080.0	8.304483	-3.003275	6.963467	-0.790117	-0.171944	0.300005	-0.748535	0.128662	-0.31543
1081.0	6.173946	1.88359	9.873215	-0.039945	0.059511	0.317853	-0.750732	0.128662	-0.31543
1082.0	6.560174	-1.314486	8.694988	-1.033603	-0.112942	0.227251	-0.746338	0.128662	-0.313232
1083.0	6.445065	-0.85492	8.614538	0.012413	0.105545	0.212114	-0.748779	0.135254	-0.315674
1084.0	5.898111	0.555781	9.095377	-0.386837	0.10775	0.18043	-0.744629	0.139648	-0.315674
1085.0	5.833353	-0.634903	8.700464	-0.191741	0.070805	0.149747	-0.746826	0.139648	-0.313477
1086.0	5.575859	-0.069893	9.010184	-0.168422	0.048126	0.124303	-0.746826	0.139648	-0.313477
1087.0	5.688764	-0.316599	8.685177	-0.111719	0.018087	0.088973	-0.749268	0.144043	-0.318115
1088.0	5.685698	0.308549	8.852524	-0.061583	-0.004012	0.084624	-0.742432	0.139648	-0.315674
1089.0	5.671976	0.215056	8.636815	-0.119088	-0.026453	0.07838	-0.744873	0.144043	-0.315674
1090.0	5.702407	0.466243	8.678644	-0.068607	-0.030612	0.07297	-0.744873	0.141846	-0.313477
1091.0	5.684212	0.442054	8.677321	-0.135395	-0.041121	0.068147	-0.749512	0.148193	-0.320313
1092.0	5.788608	0.180561	8.610424	-0.123945	-0.04348	0.062141	-0.751709	0.148193	-0.311279
1093.0	5.727047	0.346788	8.666048	-0.07597	-0.029853	0.060656	-0.745117	0.150391	-0.318115
1094.0	5.719563	0.355275	8.674735	-0.100252	-0.027565	0.067345	-0.740723	0.14624	-0.315918
1095.0	5.646679	0.329155	8.684481	-0.085815	-0.019205	0.074711	-0.751953	0.154785	-0.313721
1096.0	5.65091	0.206039	8.665977	-0.100056	-0.023781	0.08738	-0.747314	0.150391	-0.318115
1097.0	5.686647	0.076401	8.69124	-0.081709	-0.027863	0.082218	-0.745117	0.150391	-0.311279
1098.0	5.654615	-0.027588	8.659911	-0.071575	-0.032625	0.070958	-0.745361	0.154785	-0.315918
1099.0	5.662533	-0.045187	8.680071	-0.046775	-0.0393	0.055235	-0.747559	0.154785	-0.311523
1100.0	5.639686	-0.053958	8.655651	-0.037665	-0.046174	0.045187	-0.751709	0.152588	-0.313721
1101.0	5.734004	-0.076125	8.599776	-0.032873	-0.042356	0.032881	-0.743164	0.154785	-0.306885
1102.0	5.706027	0.088015	8.59127	-0.009294	-0.040048	0.033625	-0.747803	0.15918	-0.309326
1103.0	5.659275	0.181673	8.585478	-0.022077	-0.032733	0.037552	-0.747559	0.152588	-0.315918
1104.0	5.678755	0.039299	8.631944	-0.050243	-0.043481	0.033632	-0.747803	0.15918	-0.311523
1105.0	5.685946	-0.026811	8.577056	-0.019359	-0.041357	0.021053	-0.747803	0.161377	-0.311523
1106.0	5.667683	-0.036947	8.683752	-0.021916	-0.052912	0.012261	-0.749756	0.154785	-0.311523
1107.0	5.687424	-0.067368	8.692554	-0.003075	-0.058766	0.008277	-0.747803	0.15918	-0.309326
1108.0	5.70315	0.072885	8.716971	-0.003512	-0.067678	0.019209	-0.745361	0.152588	-0.306885
1109.0	5.728395	0.139891	8.655829	-0.007523	-0.081188	0.032561	-0.75	0.15918	-0.309326
1110.0	5.713876	0.125277	8.651428	-0.020398	-0.084234	0.047109	-0.747559	0.156982	-0.311523
1111.0	5.680171	0.149258	8.667063	-0.013128	-0.098096	0.059703	-0.752197	0.163574	-0.309326
1112.0	5.68971	0.145502	8.715443	-0.031349	-0.120491	0.06874	-0.751953	0.154785	-0.302246
1113.0	5.690648	-0.001927	8.679828	-0.018934	-0.145249	0.07058	-0.75	0.15918	-0.304688
1114.0	5.651031	-0.007782	8.736563	-0.0099	-0.169288	0.07276	-0.749756	0.156982	-0.300049
1115.0	5.713608	-0.049619	8.727171	0.010343	-0.199316	0.077728	-0.751953	0.156982	-0.29541
1116.0	5.45048	0.079225	8.88723	0.026532	-0.227444	0.076903	-0.760742	0.156982	-0.300049
1117.0	5.616118	0.171236	8.824672	0.002001	-0.29897	0.083559	-0.756348	0.15918	-0.295654
1118.0	5.598283	0.095416	8.842941	-0.011154	-0.320159	0.078033	-0.752197	0.161377	-0.288818
1119.0	5.60807	0.191931	8.896718	0.015382	-0.380688	0.096497	-0.758789	0.161377	-0.291016
1120.0	5.543023	0.522683	9.169937	0.03729	-0.455603	0.116783	-0.754639	0.165771	-0.291016
1121.0	4.857972	-0.336861	9.515447	-0.117162	-0.594262	0.115989	-0.758789	0.16333	-0.279785
1122.0	5.499077	-0.644718	9.210433	0.106776	-0.799114	0.077429	-0.756836	0.167725	-0.272949
1123.0	5.252808	-0.430275	9.551244	0.104763	-0.968905	0.035593	-0.765381	0.165527	-0.266113
1124.0	5.422942	-0.888213	9.474695	0.085287	-1.179592	-0.02893	-0.77417	0.165527	-0.254639
1125.0	5.311441	-0.5091	9.757832	0.244313	-1.394815	-0.072406	-0.771729	0.161133	-0.247803
1126.0	5.034772	-0.32969	10.033945	0.203735	-1.649915	-0.114152	-0.780518	0.158691	-0.236328
1127.0	5.134232	0.022926	10.155784	0.2591	-1.98815	-0.122957	-0.782471	0.156494	-0.220215
1128.0	4.864651	0.600708	10.29691	0.291708	-2.339138	-0.082883	-0.782471	0.158691	-0.199707
1129.0	4.866462	1.140994	10.502207	0.264834	-2.742786	-0.012801	-0.799805	0.154053	-0.172363
1130.0	4.779147	1.360531	10.822036	0.179632	-3.172659	0.082783	-0.802246	0.158447	-0.147461
1131.0	4.630449	1.494237	11.223483	0.099888	-3.651266	0.202501	-0.808838	0.158203	-0.108643
1132.0	4.616411	1.780569	11.764262	-0.00659	-4.211821	0.352485	-0.817627	0.1604	-0.083496
1133.0	4.95843	2.39952	12.232481	-0.059888	-4.821078	0.537473	-0.817627	0.164551	-0.044922
1134.0	4.52362	2.380155	12.466503	-0.342665	-5.531466	0.736203	-0.820068	0.168945	0.005127
1135.0	4.87081	1.999759	12.263712	-0.429055	-6.353898	0.912258	-0.811523	0.175293	0.062012
1136.0	5.829919	1.799974	12.519794	-0.594957	-7.183473	1.07478	-0.812012	0.183838	0.123291
1137.0	9.142227	-0.277503	12.353037	-0.781607	-7.841697	1.059056	-0.803711	0.19458	0.187012
1138.0	15.675857	-5.059699	11.445995	-0.696125	-7.93509	0.758243	-0.781982	0.19458	0.25293
1139.0	25.348829	-0.664527	14.20096	1.204091	-7.498656	0.364038	-0.769043	0.198975	0.302979
1140.0	26.371851	4.845172	14.223074	0.446729	-5.844896	0.655801	-0.749512	0.201172	0.337158
1141.0	23.393698	4.252495	14.894714	-0.036462	-4.991782	0.964775	-0.730225	0.209961	0.37793
1142.0	13.071717	5.478765	14.346812	-0.248044	-3.967242	1.365261	-0.715332	0.216553	0.402832
1143.0	4.241558	5.374795	18.924629	-0.897821	-3.318066	1.13077	-0.695557	0.212158	0.425781
1144.0	21.623693	6.46468	25.370502	-1.346882	-1.449306	0.186439	-0.695313	0.209961	0.425781
1145.0	-0.804736	7.374708	16.337879	-0.580365	0.33825	-0.420059	-0.697266	0.203369	0.428223
1146.0	-3.16764	7.653199	14.036372	-2.195883	0.193109	-0.737736	-0.700684	0.183838	0.428711
1147.0	-2.202595	-1.610361	8.890532	-2.392209	0.021299	-0.939531	-0.699951	0.16626	0.437988
1148.0	-1.3566	-0.762868	10.258405	-0.551395	0.376623	-0.935381	-0.708008	0.15332	0.431641
1149.0	-0.612311	0.316459	10.494272	-0.385837	0.684994	-0.875867	-0.709473	0.137939	0.427246
1150.0	-0.351279	2.404734	11.233761	-0.071252	1.140417	-0.707608	-0.71167	0.137939	0.411377
1151.0	0.162735	1.62995	10.780738	-0.369372	1.58392	-0.548314	-0.722168	0.126953	0.402344
1152.0	0.59309	0.752697	10.47922	-0.255341	2.096867	-0.436332	-0.728516	0.122559	0.388916
1153.0	1.337025	-0.275919	9.93525	-0.107304	2.598322	-0.391066	-0.743408	0.115967	0.366211
1154.0	2.349128	0.258753	9.894514	0.182599	3.090266	-0.355822	-0.749512	0.105225	0.341309
1155.0	2.980079	0.642108	9.548725	0.212934	3.549202	-0.311268	-0.758057	0.10083	0.30957
1156.0	3.32884	0.873853	9.309504	0.200533	3.910173	-0.244833	-0.768555	0.092041	0.277832
1157.0	3.791981	0.615204	8.986176	0.114349	4.185177	-0.181786	-0.788086	0.087646	0.243652
1158.0	4.047568	0.211169	8.732921	0.122026	4.40518	-0.154597	-0.783447	0.081299	0.20752
1159.0	4.381525	-0.361354	8.78925	0.184425	4.561788	-0.158884	-0.793945	0.07251	0.166504
1160.0	5.194246	-0.643171	8.907573	0.337485	4.685291	-0.16871	-0.802734	0.07251	0.134766
1161.0	5.980656	-0.596354	9.445916	0.43261	4.823511	-0.14037	-0.804443	0.061768	0.09375
1162.0	6.992616	-0.757416	9.885849	0.577418	4.9555	-0.077152	-0.797363	0.053223	0.059814
1163.0	7.870199	-0.513658	10.573444	0.683551	5.095872	-0.030477	-0.799561	0.048828	0.018799
1164.0	8.426841	-0.346765	11.156514	0.766798	5.21897	-0.040705	-0.794678	0.040283	-0.017334
1165.0	9.12201	-0.048421	11.888712	0.825312	5.292087	-0.099551	-0.7854	0.029541	-0.060547
1166.0	9.585097	-0.291448	12.37979	0.854143	5.307017	-0.190709	-0.781006	0.025391	-0.096924
1167.0	9.81836	-0.665221	12.492997	0.961834	5.212954	-0.255757	-0.767334	0.014648	-0.130859
1168.0	11.094499	-1.008125	13.050253	1.083029	5.015752	-0.291452	-0.760498	0.008057	-0.158203
1169.0	13.276741	-1.892066	13.494006	1.271006	4.868971	-0.320974	-0.751465	-0.000488	-0.192139
1170.0	15.136213	-1.660534	14.169529	1.608797	4.785654	-0.331566	-0.736084	-0.004639	-0.230713
1171.0	17.889627	-1.388864	14.249813	1.775726	4.682339	-0.375765	-0.729004	-0.013184	-0.258057
1172.0	21.07782	-2.813528	13.26462	1.814818	4.668432	-0.51836	-0.708984	-0.023926	-0.285156
1173.0	24.866912	-2.068791	12.223109	2.134987	4.806246	-0.617574	-0.699707	-0.036865	-0.312256
1174.0	27.737737	0.454532	10.803513	1.914743	5.023893	-0.498091	-0.681885	-0.047607	-0.341797
1175.0	28.405412	1.190737	7.985091	1.25082	5.200522	-0.221691	-0.662109	-0.049561	-0.380371
1176.0	26.792077	-1.240959	3.26691	0.730904	5.161389	0.046485	-0.640137	-0.051514	-0.416992
1177.0	24.619089	-3.830517	-2.055715	0.796802	4.753716	0.188131	-0.620117	-0.060059	-0.437256
1178.0	23.220071	-4.807538	-6.34709	1.175025	4.057237	0.218376	-0.598145	-0.064209	-0.457764
1179.0	24.707863	-6.764439	-10.940692	1.354727	3.140081	0.171188	-0.5979	-0.072998	-0.480225
1180.0	28.310736	-6.669032	-16.316614	2.025639	2.359782	0.064868	-0.582031	-0.085938	-0.484619
1181.0	27.519847	-1.710305	-18.750315	1.982009	1.562727	-0.078415	-0.570557	-0.094482	-0.493652
1182.0	23.259137	0.976121	-18.594883	0.658315	0.291433	-0.338892	-0.570557	-0.098877	-0.486816
1183.0	19.826163	2.204479	-14.563962	-0.505103	-1.173432	-0.65439	-0.578857	-0.103271	-0.481934
1184.0	8.372401	6.831551	-8.482047	-1.204961	-2.32884	-0.56757	-0.598877	-0.094727	-0.46167
1185.0	-4.905113	1.11382	17.501275	-2.811899	-4.525808	-0.907689	-0.62085	-0.092773	-0.438965
1186.0	9.115205	6.290374	20.054353	-0.504253	-2.516791	-0.921236	-0.625244	-0.092773	-0.425293
1187.0	-1.962285	3.23287	8.43769	-3.088004	-3.175002	-0.818483	-0.640869	-0.082031	-0.407227
1188.0	6.631471	-11.952425	-1.077279	-3.635793	-4.151738	-1.110579	-0.6604	-0.084473	-0.375244
1189.0	15.809271	-5.866971	10.650668	-0.131685	-3.967188	-0.784977	-0.671387	-0.084717	-0.356934
1190.0	14.186142	-5.303223	15.86176	-2.056671	-3.030268	-0.06159	-0.684814	-0.078125	-0.334229
1191.0	8.186668	-18.396358	8.852394	-1.480862	-3.051679	0.544388	-0.693604	-0.076172	-0.313721
1192.0	12.550502	-7.079055	10.112327	1.542623	-3.330703	0.572192	-0.708984	-0.074219	-0.291016
1193.0	27.77633	13.452996	18.838346	1.382901	-2.962213	0.984971	-0.718018	-0.067627	-0.272949
1194.0	16.728242	12.818989	12.211408	-1.892174	-0.340644	0.435482	-0.718506	-0.056885	-0.273193
1195.0	7.37973	-4.69393	11.679936	-3.588632	-1.773695	0.291446	-0.71875	-0.048096	-0.261963
1196.0	11.384783	-12.403711	5.663279	-0.65153	-0.164419	0.502377	-0.725342	-0.050293	-0.26416
1197.0	7.139451	4.91073	11.087706	1.569319	-0.264647	0.399665	-0.723145	-0.048096	-0.255127
1198.0	5.370049	2.73865	9.953574	-1.961369	-0.340376	0.223291	-0.721191	-0.043701	-0.257324
1199.0	8.162852	-3.178356	7.08274	-0.62521	-0.171723	0.204367	-0.72583	-0.039307	-0.250732
1200.0	5.935005	2.237573	9.747039	0.078679	0.047243	0.231298	-0.721436	-0.037109	-0.255371
1201.0	6.479818	-0.832087	8.786238	-1.064929	-0.104409	0.167598	-0.723633	-0.037109	-0.262207
1202.0	6.257893	-1.581998	8.504562	-0.002824	0.072921	0.131762	-0.728271	-0.030762	-0.248535
1203.0	5.758456	0.943643	9.414882	-0.262163	0.027973	0.096728	-0.726318	-0.028564	-0.26001
1204.0	5.840714	-1.158056	8.453876	-0.303821	0.076184	0.068679	-0.717529	-0.030518	-0.257568
1205.0	5.592943	0.082771	9.216808	0.012691	0.050461	0.036029	-0.728027	-0.035156	-0.257568
1206.0	5.625989	-0.525495	8.865933	-0.179456	-0.017606	-0.002988	-0.726318	-0.026367	-0.257813
1207.0	5.584194	-0.153213	8.862468	0.070271	-0.025515	-0.020275	-0.72168	-0.030762	-0.253174
1208.0	5.576423	0.119	8.862372	-0.043829	-0.061357	-0.038482	-0.724121	-0.028564	-0.250977
1209.0	5.622446	0.201531	8.748342	0.047594	-0.065794	-0.040784	-0.728516	-0.028564	-0.257813
1210.0	5.685822	0.551181	8.735527	-0.005571	-0.072042	-0.039465	-0.726074	-0.030762	-0.255371
1211.0	5.660613	0.608084	8.706863	-0.016265	-0.075549	-0.013864	-0.728027	-0.035156	-0.259766
1212.0	5.689149	0.566593	8.682816	-0.054597	-0.073533	0.004662	-0.726318	-0.028564	-0.257813
1213.0	5.684379	0.480581	8.703047	-0.051635	-0.067297	0.031675	-0.721924	-0.026367	-0.253174
1214.0	5.652662	0.340145	8.735131	-0.081739	-0.067623	0.041217	-0.72168	-0.030762	-0.257568
1215.0	5.654679	0.089925	8.716423	-0.068313	-0.068521	0.046767	-0.730469	-0.030762	-0.250732
1216.0	5.666873	0.072235	8.680283	-0.044795	-0.06805	0.035947	-0.724121	-0.028564	-0.250977
1217.0	5.64006	0.225017	8.693061	-0.02168	-0.070036	0.03591	-0.726074	-0.030762	-0.253174
1218.0	5.679255	0.262148	8.645115	-0.035693	-0.071294	0.039592	-0.726318	-0.02417	-0.246338
1219.0	5.69125	0.245881	8.609086	-0.044324	-0.061898	0.045319	-0.726318	-0.026367	-0.250977
1220.0	5.712198	0.310647	8.604438	-0.039587	-0.051705	0.063431	-0.728516	-0.02417	-0.250977
1221.0	5.705728	0.170512	8.605133	-0.08415	-0.040565	0.069841	-0.72876	-0.021973	-0.248779
1222.0	5.736001	0.062096	8.584438	-0.059025	-0.031275	0.072143	-0.726318	-0.026367	-0.248535
1223.0	5.775081	0.086856	8.615595	-0.063817	-0.025685	0.070386	-0.724365	-0.02417	-0.250977
1224.0	5.719582	-0.169357	8.553343	-0.072149	-0.022241	0.052204	-0.729004	-0.017578	-0.248779
1226.0	5.700888	0.132308	8.63032	-0.061351	-0.033011	0.066187	-0.733154	-0.021973	-0.244141
1228.0	5.71162	0.085373	8.665389	-0.010294	-0.038778	0.057336	-0.729004	-0.017578	-0.250977
1229.0	5.70721	-0.103844	8.616046	-0.034277	-0.062495	0.052541	-0.730713	-0.02417	-0.248779
1230.0	5.686081	0.142206	8.693491	0.019128	-0.07504	0.054957	-0.730957	-0.019775	-0.244141
1231.0	5.613053	0.132878	8.730801	-0.025512	-0.100896	0.061295	-0.733154	-0.017578	-0.248779
1232.0	5.639642	0.047804	8.660949	-0.005909	-0.125929	0.065945	-0.733398	-0.015381	-0.244385
1233.0	5.591522	0.203078	8.812553	0.020511	-0.150071	0.081691	-0.731201	-0.015381	-0.241943
1234.0	5.61796	0.077437	8.696604	-0.000645	-0.190699	0.094759	-0.73584	-0.01123	-0.237549
1235.0	5.565907	0.302654	8.875904	0.059689	-0.211485	0.127001	-0.735596	-0.013428	-0.239746
1236.0	5.153016	0.638814	8.992199	0.062269	-0.270628	0.163592	-0.73584	-0.01123	-0.239746
1237.0	5.441492	0.460067	8.981491	-0.050024	-0.360534	0.199979	-0.733398	-0.015381	-0.235107
1238.0	5.412345	-0.048206	8.960097	0.001038	-0.432811	0.212762	-0.731445	-0.01123	-0.230713
1239.0	4.937899	-0.26507	9.484856	-0.013985	-0.567484	0.184766	-0.738281	-0.004639	-0.230713
1240.0	5.45267	-0.402607	9.23344	0.069655	-0.724012	0.133923	-0.740479	-0.004639	-0.219482
1241.0	5.308517	-0.340169	9.486783	0.095084	-0.88446	0.100017	-0.742432	-0.006836	-0.219482
1242.0	5.526807	-0.936141	9.424605	0.064559	-1.057466	-0.004197	-0.749023	-0.009033	-0.205566
1243.0	5.006249	-0.547504	9.605802	0.284753	-1.243667	-0.042779	-0.748779	-0.013428	-0.191895
1244.0	5.1965	-0.119032	9.905664	0.17971	-1.501527	-0.07553	-0.755371	-0.011475	-0.187256
1245.0	5.130856	-0.266753	9.982757	0.232623	-1.769913	-0.086911	-0.755371	-0.011475	-0.173584
1246.0	4.920213	-0.012565	10.382229	0.296297	-2.076155	-0.080988	-0.766357	-0.011475	-0.153076
1247.0	4.913175	0.248351	10.417945	0.306484	-2.479237	-0.074725	-0.768311	-0.013916	-0.132568
1248.0	4.547179	0.81787	10.690517	0.361754	-2.90669	-0.024579	-0.763916	-0.013916	-0.107422
1249.0	4.688283	1.460203	10.955684	0.308694	-3.404628	0.06525	-0.775146	-0.009521	-0.08252
1250.0	4.476774	1.479627	11.313628	0.186652	-3.926266	0.189059	-0.7771	-0.009766	-0.050537
1251.0	4.848448	1.788442	11.733109	0.198556	-4.518489	0.344741	-0.786133	-0.005371	-0.011963
1252.0	4.688275	2.384154	12.464508	0.067555	-5.191063	0.509645	-0.792725	-0.001221	0.024414
1253.0	4.620874	2.362212	12.502299	-0.146091	-5.9497	0.737224	-0.784424	0.005127	0.072266
1254.0	4.643316	2.416312	12.338341	-0.314317	-6.810357	0.913147	-0.782227	0.007324	0.131348
1255.0	5.955452	1.892903	12.792594	-0.536166	-7.656723	1.049039	-0.77417	0.020264	0.194824
1256.0	11.300157	-0.922472	12.116818	-0.61989	-8.274424	0.947674	-0.761475	0.028809	0.258545
1257.0	19.250539	-5.489679	11.930119	-0.185364	-8.078307	0.544894	-0.739502	0.028809	0.317871
1258.0	29.922153	0.272586	13.977298	1.727831	-7.073163	0.241778	-0.720215	0.0354	0.363281
1259.0	26.036538	6.978659	14.589345	0.731454	-5.343032	0.762326	-0.701172	0.048584	0.392578
1260.0	21.997928	4.785289	14.056866	-0.13892	-4.532553	1.230634	-0.686279	0.057373	0.421875
1261.0	5.0806	5.655812	18.151589	-0.513524	-3.540837	1.593967	-0.675537	0.05957	0.453857
1262.0	15.225519	6.584602	21.767359	-0.735741	-3.045144	1.035044	-0.669189	0.063965	0.460693
1263.0	9.418995	5.406833	20.655979	-1.300789	-0.066601	0.305124	-0.675781	0.063965	0.458252
1264.0	-2.699244	7.739378	14.896842	-0.978895	0.144551	-0.128847	-0.670898	0.052979	0.456299
1265.0	-3.427431	3.024351	11.018878	-2.335675	-0.021711	-0.402865	-0.679199	0.044189	0.456543
1266.0	-1.232714	-0.393831	9.717689	-1.064188	0.191869	-0.513211	-0.681396	0.044189	0.451904
1267.0	-0.98733	1.912515	11.023336	-0.718828	0.524869	-0.538558	-0.687744	0.037598	0.451904
1268.0	-0.590632	2.476881	10.957027	-0.451998	0.951749	-0.489212	-0.693848	0.031006	0.440674
1269.0	-0.25696	3.386457	11.117694	-0.596839	1.394921	-0.414715	-0.706787	0.026611	0.434082
1270.0	0.36185	2.689966	10.553327	-0.683908	1.888217	-0.374468	-0.713135	0.02002	0.418213
1271.0	0.657503	1.870515	9.981815	-0.662309	2.358953	-0.360905	-0.725586	0.00708	0.393311
1272.0	1.194014	1.462713	9.45954	-0.503982	2.814069	-0.369446	-0.736328	0.006836	0.375244
1273.0	1.684967	1.526398	9.092484	-0.388004	3.192509	-0.373288	-0.753418	-0.001953	0.352539
1274.0	2.405751	1.791693	8.808717	-0.305357	3.507923	-0.360374	-0.762207	-0.003906	0.320801
1275.0	3.129595	1.924193	8.649702	-0.271773	3.778684	-0.341099	-0.772705	-0.010498	0.293457
1276.0	3.874537	1.831782	8.612022	-0.252709	4.015474	-0.341208	-0.792236	-0.012695	0.25708
1277.0	4.537719	1.669049	8.815571	-0.192213	4.229892	-0.357366	-0.796387	-0.021484	0.218506
1278.0	5.253297	1.253869	8.889966	-0.115767	4.42854	-0.368151	-0.807129	-0.021484	0.182129
1279.0	5.98915	1.229838	9.153676	0.037876	4.615364	-0.3615	-0.817627	-0.032227	0.141357
1280.0	6.839321	1.05031	9.444274	0.130874	4.764436	-0.33306	-0.817627	-0.030029	0.100342
1281.0	7.870357	1.038771	9.963924	0.295095	4.935779	-0.325385	-0.828369	-0.036621	0.063965
1282.0	8.675699	1.371154	10.563947	0.406686	5.082005	-0.342911	-0.821777	-0.036377	0.020508
1283.0	8.787832	1.691483	11.494648	0.4404	5.231877	-0.346328	-0.827881	-0.049316	-0.022461
1284.0	9.875904	0.648708	12.228113	0.402646	5.305441	-0.371912	-0.814697	-0.049072	-0.070313
1285.0	10.711944	0.032721	12.788335	0.638424	5.369598	-0.408318	-0.814453	-0.053467	-0.115723
1286.0	11.050959	-0.808745	12.879995	0.828065	5.36031	-0.391669	-0.803223	-0.059814	-0.156738
1287.0	11.632523	-1.620708	13.107882	1.074886	5.214646	-0.279811	-0.794434	-0.061768	-0.199951
1288.0	13.351147	-3.333887	13.288183	1.4346	4.985055	-0.11164	-0.774414	-0.07251	-0.233887
1289.0	15.993028	-3.471392	13.731154	1.974115	4.847457	0.07796	-0.765381	-0.081055	-0.272705
1290.0	18.683949	-3.954929	13.181671	2.320682	4.692608	0.248309	-0.751953	-0.0896	-0.297607
1291.0	22.392259	-3.193236	12.614583	2.679468	4.616964	0.415679	-0.733887	-0.100342	-0.329102
1292.0	25.849012	-1.695387	11.724595	2.747879	4.679088	0.526188	-0.722656	-0.111084	-0.36084
1293.0	28.368973	0.201921	9.975905	2.512282	4.87922	0.551489	-0.702393	-0.121826	-0.388184
1294.0	28.073081	0.882564	6.576968	1.989857	5.032268	0.494024	-0.680664	-0.123779	-0.419922
1295.0	26.327728	-0.903343	1.644533	1.48918	4.917471	0.368121	-0.665039	-0.12793	-0.447266
1296.0	24.396889	-3.564699	-3.880808	1.376215	4.448825	0.193699	-0.643311	-0.129883	-0.479248
1297.0	23.651417	-5.185322	-8.503824	1.463413	3.666186	0.038642	-0.634033	-0.140869	-0.488037
1298.0	26.833957	-7.528018	-13.821293	1.440632	2.725187	-0.054218	-0.620361	-0.156006	-0.501465
1299.0	29.737736	-5.975563	-18.227546	1.698544	2.003025	-0.082244	-0.617676	-0.162598	-0.503662
1300.0	26.975214	-2.298028	-19.503485	0.856675	1.113608	-0.176286	-0.608643	-0.168945	-0.510254
1301.0	21.778769	-1.50575	-18.015436	-0.373949	-0.245112	-0.448482	-0.615234	-0.168945	-0.505859
1302.0	16.441705	7.387578	-12.877275	-0.045707	-1.713182	-0.640778	-0.619629	-0.171143	-0.494385
1303.0	-9.57023	-0.028218	3.686198	-5.776934	-3.138042	-0.874733	-0.64917	-0.145264	-0.474365
1304.0	14.32747	-9.431103	18.727787	-1.660151	-4.531471	-1.632225	-0.659424	-0.158447	-0.455811
1305.0	-0.463675	5.71402	19.576812	-0.053107	-2.053029	-1.353991	-0.667969	-0.163086	-0.439697
1306.0	4.04439	-6.500733	2.066365	-5.31706	-3.44578	-1.419359	-0.683838	-0.149902	-0.424072
1307.0	10.193551	-15.382894	1.826787	-0.664537	-3.77542	-1.086654	-0.702881	-0.158936	-0.394287
1308.0	16.008227	-4.547229	15.702145	-1.052057	-3.433619	-0.422374	-0.714355	-0.150391	-0.376221
1309.0	11.004726	-15.244998	12.114498	-1.484572	-2.901983	0.44862	-0.727539	-0.144043	-0.355713
1310.0	9.676148	-10.195728	7.89748	0.969055	-3.037391	0.53035	-0.749268	-0.148438	-0.328369
1311.0	21.590995	10.360507	15.897397	2.023386	-3.287584	0.851301	-0.751465	-0.146484	-0.303223
1312.0	26.822875	18.325986	16.544995	-0.994822	-1.016739	0.654704	-0.75415	-0.137695	-0.310303
1313.0	0.523222	-2.977089	8.721914	-4.486212	-1.077791	0.17519	-0.767578	-0.126953	-0.294434
1314.0	16.495753	-13.84746	7.657918	-1.350197	-0.989732	0.515176	-0.77002	-0.122559	-0.294434
1315.0	5.550391	1.180072	9.964459	1.527036	-0.220747	0.527085	-0.765869	-0.118164	-0.290039
1316.0	6.695181	3.986423	10.810344	-1.433462	-0.18537	0.30748	-0.766602	-0.100586	-0.292725
1317.0	8.163235	-2.676205	7.383189	-1.015669	-0.272778	0.296291	-0.770996	-0.102783	-0.292725
1318.0	6.8528	0.692196	9.799779	-0.14353	0.131632	0.339229	-0.768799	-0.102783	-0.292725
1319.0	6.451571	-1.740619	8.367031	-0.848768	0.091305	0.251959	-0.773438	-0.096436	-0.295166
1320.0	6.585505	-0.82371	8.7896	-0.000355	0.175439	0.208062	-0.773682	-0.092041	-0.297363
1321.0	5.49653	0.518634	9.07789	-0.263643	0.107053	0.172118	-0.773682	-0.089844	-0.302002
1322.0	5.484666	-0.309104	8.860568	-0.247873	0.081745	0.1526	-0.766846	-0.094238	-0.299561
1323.0	5.450191	-0.296862	9.046562	-0.183385	0.006332	0.113157	-0.769287	-0.089844	-0.304199
1324.0	5.721953	-0.802582	8.676529	-0.172301	-0.023026	0.070261	-0.773682	-0.087646	-0.306641
1325.0	5.628583	-0.079597	8.789116	0.033643	-0.00782	0.053546	-0.773682	-0.089844	-0.299805
