Acquisition frequency: 100 Hz
PacketCounter	Acc_X	Acc_Y	Acc_Z	Gyr_X	Gyr_Y	Gyr_Z	Mag_X	Mag_Y	Mag_Z
0.0	7.43248	1.876921	6.23541	0.006981	-0.002568	-0.01662	-0.616699	-0.001953	-0.114258
1.0	7.433703	1.85405	6.23893	-0.007974	-0.003764	-0.016948	-0.610352	-0.001953	-0.118652
2.0	7.431353	1.811621	6.280233	-0.001598	0.001283	-0.011544	-0.614746	0.000244	-0.120605
3.0	7.429714	1.836265	6.276676	-0.00862	0.001226	-0.01205	-0.610352	-0.001953	-0.116455
4.0	7.400075	1.828993	6.238678	-0.008229	0.003612	-0.010873	-0.612549	0.000244	-0.120605
5.0	7.414308	1.832857	6.258305	-0.011771	0.003869	-0.007818	-0.612549	-0.001953	-0.118652
6.0	7.412642	1.856851	6.254966	-0.009365	0.00162	-0.007468	-0.608154	-0.001953	-0.116455
7.0	7.413664	1.832498	6.259173	-0.014403	0.00521	-0.005446	-0.614746	-0.001953	-0.120605
8.0	7.44737	1.834822	6.264281	-0.007381	0.005268	-0.00494	-0.612305	-0.00415	-0.118652
9.0	7.398187	1.827919	6.241231	-0.013556	0.006865	0.000485	-0.610352	0.000244	-0.122803
10.0	7.42544	1.858857	6.27684	-0.012321	0.013453	-0.002596	-0.610107	-0.006104	-0.120605
11.0	7.448332	1.784431	6.27445	-0.0183	0.008244	0.003368	-0.610352	0.000244	-0.122803
12.0	7.412252	1.80489	6.267194	-0.012027	0.011243	-0.001735	-0.610352	0.000244	-0.116455
13.0	7.428892	1.759808	6.294823	-0.012936	0.010158	-0.001051	-0.612549	0.000244	-0.116455
14.0	7.42828	1.759328	6.29568	-0.009783	0.007517	-0.005282	-0.610352	0.002197	-0.112061
15.0	7.432614	1.754426	6.262496	-0.005037	0.006139	-0.008162	-0.612305	-0.006104	-0.120605
16.0	7.411256	1.78008	6.273895	-0.001721	0.004975	-0.008498	-0.614502	-0.00415	-0.116455
17.0	7.428882	1.803735	6.255959	0.00062	0.005845	-0.011725	-0.610352	0.000244	-0.118652
18.0	7.441712	1.832473	6.271687	0.001205	0.001426	-0.010012	-0.618896	-0.006348	-0.120605
19.0	7.405802	1.854625	6.263722	-0.003606	0.005922	-0.010704	-0.614746	0.002441	-0.116455
20.0	7.419872	1.858667	6.283477	-0.009262	0.006214	-0.00714	-0.612549	0.002441	-0.118652
21.0	7.424257	1.853635	6.25029	-0.00858	0.00639	-0.005105	-0.612549	0.002441	-0.122803
22.0	7.404187	1.854385	6.265703	-0.01521	0.008714	-0.00443	-0.608154	0.000244	-0.118652
23.0	7.425801	1.804297	6.259454	-0.015049	0.01019	-0.000534	-0.606201	0.002441	-0.120605
24.0	7.439588	1.807154	6.279885	-0.021221	0.014332	-0.005289	-0.608154	-0.003906	-0.125
25.0	7.443789	1.801336	6.247165	-0.013553	0.006855	0.000497	-0.610107	-0.00415	-0.120605
26.0	7.436179	1.762075	6.323066	-0.020113	0.008612	-0.005437	-0.608154	0.000244	-0.125
27.0	7.437682	1.804794	6.282821	-0.00939	0.009899	-0.00409	-0.608398	0.002441	-0.118652
28.0	7.435648	1.828434	6.280053	-0.015205	0.008712	-0.004421	-0.612305	-0.00415	-0.118652
29.0	7.42526	1.819353	6.227996	-0.011272	0.010846	-0.006293	-0.60376	0.000244	-0.122803
30.0	7.434147	1.82759	6.282076	-0.015496	0.01092	-0.005271	-0.610352	0.002441	-0.12085
31.0	7.436028	1.778805	6.29062	-0.01858	0.012991	-0.007645	-0.610352	0.000244	-0.120605
32.0	7.436639	1.754466	6.295264	-0.005551	0.007439	-0.006285	-0.605957	-0.001953	-0.118652
33.0	7.455442	1.753748	6.281398	-0.00418	0.010347	-0.012394	-0.614746	0.002441	-0.12085
34.0	7.416576	1.823785	6.266405	-0.004056	0.004105	-0.00526	-0.610352	0.000244	-0.118652
35.0	7.43201	1.804023	6.289751	0.00313	0.008202	-0.011037	-0.612305	-0.00415	-0.118652
36.0	7.427152	1.877076	6.279363	-0.003207	0.008312	-0.009506	-0.610352	-0.001953	-0.116455
37.0	7.434184	1.824555	6.253531	-0.000415	0.00845	-0.007982	-0.612549	0.002441	-0.122803
38.0	7.448029	1.828769	6.27349	-0.00214	0.010871	-0.00629	-0.610352	-0.001953	-0.120605
39.0	7.431239	1.849436	6.251486	-0.00055	0.012133	-0.004937	-0.614746	-0.001953	-0.120605
40.0	7.438136	1.796544	6.225951	-0.004775	0.012205	-0.003917	-0.610352	0.000244	-0.120605
41.0	7.430976	1.82578	6.256985	0.002766	0.010974	-0.005273	-0.608154	-0.00415	-0.120605
42.0	7.43951	1.834952	6.311134	0.002956	0.020161	-0.004609	-0.612549	0.000244	-0.125
43.0	7.449698	1.80148	6.248429	0.000518	0.014692	-0.001717	-0.614746	0.002441	-0.12085
44.0	7.427711	1.827052	6.26049	0.008832	0.01823	-0.000706	-0.612305	-0.006104	-0.122803
45.0	7.442456	1.807354	6.284638	0.006953	0.019176	-0.002908	-0.610352	0.000244	-0.118652
46.0	7.425189	1.8283	6.263117	0.00734	0.02156	-0.001723	-0.614502	-0.00415	-0.118652
47.0	7.446104	1.779569	6.25741	0.006139	0.022682	-0.001892	-0.610352	0.000244	-0.116455
48.0	7.422277	1.829636	6.266177	0.014069	0.023835	-0.002056	-0.610352	0.000244	-0.118652
49.0	7.420693	1.830492	6.267803	0.005174	0.024713	-0.00477	-0.612549	-0.001953	-0.120605
50.0	7.440024	1.80621	6.258582	0.014983	0.024919	-0.002726	-0.610352	0.000244	-0.122803
51.0	7.399412	1.809443	6.289149	0.009984	0.020222	-0.004078	-0.612549	0.000244	-0.116455
52.0	7.451582	1.81229	6.2807	0.018536	0.024669	-0.005765	-0.608154	-0.001953	-0.120605
53.0	7.417218	1.7869	6.281248	0.01152	0.0246	-0.006277	-0.608154	-0.001953	-0.116455
54.0	7.412802	1.836646	6.275336	0.021179	0.023332	-0.008122	-0.612305	-0.00415	-0.116455
55.0	7.38659	1.844188	6.325064	0.011813	0.02239	-0.005421	-0.60376	0.000244	-0.122803
56.0	7.406066	1.820195	6.31564	0.009551	0.02095	-0.008809	-0.606201	0.002441	-0.120605
57.0	7.424238	1.820185	6.302457	0.009991	0.020218	-0.004061	-0.608154	-0.00415	-0.120605
58.0	7.393937	1.813672	6.265133	0.011045	0.017619	-0.007782	-0.614746	0.002441	-0.122803
59.0	7.420203	1.846642	6.301168	0.007967	0.019684	-0.010159	-0.610107	-0.003906	-0.122803
60.0	7.408045	1.863149	6.245668	0.007731	0.018776	-0.007446	-0.612549	-0.001953	-0.118652
61.0	7.417461	1.848371	6.303889	-0.002455	0.021341	-0.003744	-0.605957	-0.001953	-0.120605
62.0	7.401552	1.844934	6.286175	0.003889	0.021232	-0.00525	-0.610107	-0.003906	-0.122803
63.0	7.419727	1.844071	6.273285	-0.002307	0.022817	0.000156	-0.610352	-0.001953	-0.122803
64.0	7.40243	1.864213	6.252005	-0.007356	0.021234	-0.004768	-0.605713	-0.006104	-0.122803
65.0	7.397124	1.84461	6.291479	-0.011341	0.027373	0.000474	-0.605957	0.000244	-0.125
66.0	7.399736	1.771687	6.304662	-0.009322	0.022745	-0.000363	-0.605957	0.000244	-0.122803
67.0	7.4151	1.818319	6.2846	-0.010667	0.022389	-0.00443	-0.608154	0.000244	-0.120605
68.0	7.395418	1.795096	6.304573	-0.007349	0.021232	-0.004756	-0.612549	-0.001953	-0.120605
69.0	7.395423	1.771204	6.309856	-0.004849	0.018421	-0.011014	-0.610352	-0.001953	-0.118652
70.0	7.39274	1.795866	6.307493	-0.002446	0.016178	-0.010667	-0.610596	0.004639	-0.12085
71.0	7.391456	1.796832	6.308723	0.001354	0.016837	-0.016409	-0.612549	0.000244	-0.120605
72.0	7.409835	1.796826	6.295417	-0.00696	0.013296	-0.017454	-0.608154	-0.001709	-0.125
73.0	7.388992	1.79895	6.311006	-0.004602	0.014168	-0.02066	-0.610107	-0.006104	-0.125
74.0	7.408901	1.775259	6.301166	-0.001138	0.009329	-0.024035	-0.610107	-0.008301	-0.120605
75.0	7.364329	1.851796	6.319584	0.009439	0.009155	-0.026534	-0.610107	-0.00415	-0.118408
76.0	7.410632	1.798666	6.264908	-0.008292	0.007775	-0.028457	-0.610352	-0.001953	-0.125
77.0	7.400217	1.878041	6.287993	0.010792	0.004353	-0.029403	-0.612305	-0.003906	-0.122803
78.0	7.402267	1.832032	6.295736	-0.012371	0.004156	-0.030499	-0.612549	-0.001953	-0.122803
79.0	7.381752	1.834956	6.31067	0.004831	0.006839	-0.026705	-0.612549	0.000244	-0.120605
80.0	7.413429	1.86358	6.312422	-0.009061	0.008158	-0.023876	-0.616943	-0.001953	-0.125
81.0	7.416339	1.884337	6.275492	0.000893	0.004699	-0.024855	-0.610352	0.000244	-0.127197
82.0	7.38581	1.811031	6.282214	-0.007081	0.006645	-0.028261	-0.610107	-0.008301	-0.125
83.0	7.417546	1.839938	6.283815	0.004457	0.004455	-0.027879	-0.610107	-0.008301	-0.122803
84.0	7.421117	1.770469	6.295134	0.005343	0.003494	-0.03903	-0.610107	-0.008301	-0.122803
85.0	7.397653	1.823828	6.301976	0.030111	-0.000183	-0.043495	-0.616943	-0.001953	-0.125
86.0	7.410403	1.924427	6.272189	0.032855	0.003075	-0.045493	-0.608154	-0.001953	-0.120605
87.0	7.372328	1.974577	6.25955	0.027072	0.003918	-0.035365	-0.60791	-0.010498	-0.118408
88.0	7.364678	2.007381	6.289426	0.015583	0.002984	-0.032197	-0.60791	-0.008301	-0.122803
89.0	7.391639	1.955879	6.249017	0.004821	0.011987	-0.019731	-0.614502	-0.00415	-0.120605
90.0	7.398255	1.990005	6.299174	-0.001347	0.010448	-0.010806	-0.610107	-0.006104	-0.122803
91.0	7.395767	1.861083	6.265813	-0.011843	0.015191	-0.007976	-0.610107	-0.006104	-0.120605
92.0	7.411344	1.908363	6.24509	-0.002417	0.013046	-0.007089	-0.608154	-0.001953	-0.118652
93.0	7.372591	1.886315	6.278813	-0.014334	0.012834	-0.008662	-0.605957	0.000244	-0.120605
94.0	7.373108	1.862397	6.283682	-0.002172	0.013951	-0.009786	-0.610107	-0.008301	-0.120605
95.0	7.424348	1.888734	6.271441	-0.009808	0.010568	-0.008811	-0.614502	-0.008301	-0.120605
96.0	7.38943	1.886096	6.267474	-0.001879	0.011747	-0.00894	-0.614746	-0.001709	-0.127197
97.0	7.425689	1.84116	6.280763	-0.009807	0.010567	-0.008809	-0.60791	-0.006104	-0.120605
98.0	7.396769	1.895827	6.322355	0.001557	0.010027	-0.015847	-0.60791	-0.008301	-0.118408
99.0	7.388319	1.864088	6.273702	0.000109	0.010237	-0.013319	-0.612305	-0.003906	-0.122803
100.0	7.400336	1.893559	6.289834	0.01152	0.006587	-0.016814	-0.616943	-0.001953	-0.122803
101.0	7.379865	1.896174	6.304694	0.002763	0.008908	-0.015669	-0.610352	-0.001953	-0.120605
102.0	7.384317	1.892823	6.271471	0.00978	0.009002	-0.015126	-0.60376	-0.003906	-0.125
103.0	7.409062	1.950187	6.303324	0.00011	0.010234	-0.013315	-0.610352	-0.001953	-0.122803
104.0	7.361389	1.920077	6.283477	0.003313	0.009663	-0.007054	-0.60791	-0.006104	-0.120605
105.0	7.393195	1.94749	6.285364	-0.003284	0.008844	-0.002869	-0.610107	-0.006104	-0.120605
106.0	7.381278	1.895183	6.274335	-0.009925	0.011134	-0.002223	-0.614502	-0.006104	-0.125
107.0	7.373741	1.923605	6.305299	-0.008968	0.009112	0.000647	-0.610107	-0.00415	-0.120605
108.0	7.415684	1.872589	6.284856	-0.017434	0.009226	0.00263	-0.608154	-0.003906	-0.125
109.0	7.361463	1.869908	6.295094	-0.002991	0.00664	-0.002026	-0.612305	-0.006104	-0.122803
110.0	7.395106	1.872754	6.300546	-0.008263	0.00413	-0.004252	-0.610107	-0.006348	-0.118408
111.0	7.378893	1.892941	6.277817	-4.4e-05	0.00311	-0.003537	-0.610352	-0.001953	-0.118652
112.0	7.377056	1.917331	6.274329	-0.000709	0.002928	-0.005566	-0.612305	-0.003906	-0.125
113.0	7.406996	1.901342	6.317067	-0.00403	0.004073	-0.005242	-0.612549	-0.001953	-0.118652
114.0	7.375669	1.85014	6.320047	-0.007889	0.006515	-0.003062	-0.60791	-0.008301	-0.120605
115.0	7.379084	1.869459	6.282965	-0.002951	0.001477	-0.008955	-0.614502	-0.00415	-0.122803
116.0	7.366615	1.903594	6.346931	-0.005981	0.000417	-0.007792	-0.610352	-0.001953	-0.125
117.0	7.38403	1.865108	6.249518	-0.008762	0.000264	-0.009324	-0.610107	-0.006348	-0.118408
118.0	7.369995	1.922858	6.309905	-0.013534	0.001617	-0.006476	-0.610107	-0.006104	-0.120605
119.0	7.410756	1.896656	6.285112	-0.010213	0.000473	-0.006799	-0.605713	-0.006104	-0.120605
120.0	7.390875	1.897639	6.299721	-0.009425	8.2e-05	-0.01135	-0.605713	-0.006104	-0.122803
121.0	7.397579	1.86857	6.269958	-0.015649	0.001643	-0.005977	-0.60791	-0.006104	-0.118408
122.0	7.403219	1.925171	6.316023	-0.005854	0.001896	-0.003903	-0.612305	-0.006104	-0.120605
123.0	7.427912	1.919096	6.268363	-0.015567	0.006231	-0.005624	-0.609863	-0.010498	-0.122803
124.0	7.407758	1.919686	6.283408	-0.007349	0.005215	-0.004911	-0.610107	-0.006104	-0.125
125.0	7.409002	1.895315	6.287585	-0.01129	0.003065	-0.003081	-0.614502	-0.003906	-0.125
126.0	7.407038	1.919045	6.284453	-0.011333	0.006177	-0.006613	-0.60791	-0.008301	-0.120605
127.0	7.406518	1.918597	6.285203	-0.013325	0.00768	-0.00223	-0.610107	-0.008301	-0.120605
128.0	7.394862	1.866111	6.273894	-0.010128	0.005061	-0.00644	-0.608154	0.000244	-0.120605
129.0	7.419832	1.921776	6.306	-0.013076	0.008588	-0.004923	-0.612305	-0.00415	-0.118652
130.0	7.39212	1.889261	6.271859	-0.017308	0.00864	-0.003929	-0.605957	-0.001953	-0.114258
131.0	7.400369	1.897406	6.32601	-0.01403	0.010611	-0.007784	-0.610352	-0.003906	-0.127197
132.0	7.40334	1.916303	6.289645	-0.016145	0.010636	-0.007286	-0.614502	-0.006104	-0.122803
133.0	7.4111	1.862533	6.264388	-0.024609	0.01074	-0.005297	-0.612305	-0.003906	-0.122803
134.0	7.385251	1.86747	6.313661	-0.015603	0.00934	-0.009138	-0.612305	-0.003906	-0.122803
135.0	7.41017	1.929108	6.22174	-0.009132	0.010738	-0.006741	-0.60791	-0.006104	-0.120605
136.0	7.396335	1.894875	6.331485	-0.022903	0.01144	-0.010507	-0.614502	-0.00415	-0.122803
137.0	7.395138	1.832864	6.252981	-0.008468	0.010917	-0.00471	-0.610107	-0.00415	-0.118408
138.0	7.377024	1.938728	6.307036	-0.007597	0.01512	-0.008901	-0.60791	-0.008301	-0.127197
139.0	7.388407	1.905205	6.244313	-0.010995	0.011672	-0.008931	-0.612305	-0.00415	-0.120605
140.0	7.3986	1.957042	6.257579	-0.008637	0.014594	-0.001654	-0.610107	-0.008301	-0.118408
141.0	7.379507	1.9334	6.276871	-0.007062	0.015863	-0.00029	-0.614502	-0.006104	-0.127197
142.0	7.414127	1.911311	6.287033	-0.020298	0.017306	0.004549	-0.610352	-0.001953	-0.122803
143.0	7.383977	1.834936	6.294308	-0.006108	0.013838	0.002574	-0.610107	-0.00415	-0.118408
144.0	7.392558	1.910208	6.304164	-0.016726	0.017076	0.001533	-0.60791	-0.006348	-0.116455
145.0	7.394869	1.861274	6.312682	-0.004362	0.011429	0.000886	-0.612305	-0.006104	-0.120605
146.0	7.371157	1.909846	6.320849	-0.012322	0.013349	-0.002511	-0.610107	-0.008301	-0.122803
147.0	7.361576	1.900733	6.268679	-0.006848	0.00907	0.000189	-0.608154	-0.001953	-0.120605
148.0	7.389482	1.907843	6.308485	-0.012572	0.012438	0.000183	-0.610107	-0.008301	-0.122803
149.0	7.408464	1.906384	6.295201	-0.007137	0.011274	-0.000641	-0.605713	-0.006104	-0.122803
150.0	7.395098	1.877805	6.280384	-0.012281	0.010233	0.001016	-0.610107	-0.006348	-0.118408
151.0	7.359828	1.806385	6.320851	-0.015428	0.007695	-0.00171	-0.612305	-0.003906	-0.122803
152.0	7.416795	1.827778	6.275012	-0.005004	0.009217	-0.0116	-0.608154	-0.001953	-0.118652
153.0	7.393998	2.006248	6.317964	-0.00182	0.008638	-0.005349	-0.609863	-0.012695	-0.120605
154.0	7.390049	1.772083	6.244962	-0.024163	0.007963	-0.01102	-0.605957	-0.00415	-0.120605
155.0	7.382488	1.862783	6.355475	0.01196	0.00591	-0.012045	-0.614258	-0.010498	-0.127197
156.0	7.39674	1.873602	6.250975	-0.014206	0.004547	-0.012006	-0.60791	-0.008301	-0.127197
157.0	7.404981	1.882862	6.304618	0.007069	0.00578	-0.013077	-0.60791	-0.010498	-0.122803
158.0	7.404354	1.883929	6.305036	-0.007604	0.005386	-0.016182	-0.610352	0.000244	-0.118652
159.0	7.392565	1.833331	6.293266	0.011808	0.007557	-0.019445	-0.605713	-0.008301	-0.120605
160.0	7.399632	1.935409	6.298576	-0.001371	0.003842	-0.021552	-0.612305	-0.006104	-0.120605
161.0	7.387839	1.885053	6.286753	0.004143	0.007269	-0.022006	-0.610107	-0.003906	-0.122803
162.0	7.403645	1.934152	6.265486	0.006044	0.003219	-0.016293	-0.60791	-0.006104	-0.122803
163.0	7.388125	1.86407	6.291013	-0.000885	0.007694	-0.016464	-0.614502	-0.00415	-0.120605
164.0	7.39832	1.917663	6.303698	0.010355	0.00776	-0.016912	-0.60791	-0.006104	-0.118408
165.0	7.381697	1.939377	6.281044	-0.000593	0.005489	-0.015632	-0.610107	-0.006104	-0.120605
166.0	7.388148	1.911963	6.251284	0.007327	0.006692	-0.015751	-0.612305	-0.006104	-0.125
167.0	7.401728	1.917055	6.271148	-0.004824	0.005532	-0.01464	-0.610107	-0.00415	-0.120605
168.0	7.38521	1.938037	6.248586	0.002955	0.007297	-0.008188	-0.609863	-0.010498	-0.120605
169.0	7.393304	1.947098	6.302403	-0.007372	0.008318	-0.008402	-0.610352	-0.003906	-0.129395
170.0	7.379955	1.91924	6.287422	-0.007005	0.010701	-0.007204	-0.612305	-0.006104	-0.125
171.0	7.391901	1.9471	6.304048	-0.010655	0.006337	-0.004558	-0.612061	-0.014648	-0.125
172.0	7.378753	1.918837	6.288956	-0.008171	0.008698	-0.003854	-0.60791	-0.006104	-0.125
173.0	7.390722	1.946277	6.305685	-0.012292	0.010213	0.00102	-0.612305	-0.006104	-0.120605
174.0	7.38295	1.91288	6.257142	-0.010466	0.012395	-0.000301	-0.612061	-0.014648	-0.125
175.0	7.380593	1.936117	6.254633	-0.017181	0.010076	-1.4e-05	-0.610107	-0.008301	-0.122803
176.0	7.388808	1.88234	6.229087	-0.009517	0.01037	0.002555	-0.605713	-0.006104	-0.120605
177.0	7.402854	2.01404	6.284886	-0.012613	0.014445	0.010654	-0.60376	-0.003906	-0.122803
178.0	7.377057	1.956189	6.254512	-0.024217	0.011989	0.009905	-0.610107	-0.00415	-0.120605
179.0	7.39895	1.836982	6.293364	-0.027678	0.013679	0.016811	-0.610107	-0.006104	-0.120605
180.0	7.411023	1.862377	6.310597	-0.020237	0.011032	0.01161	-0.610352	-0.003906	-0.125
181.0	7.3804	1.876817	6.269297	-0.017864	0.011923	0.008432	-0.605713	-0.006104	-0.125
182.0	7.283077	1.952689	6.172467	-0.012372	-0.006287	0.02128	-0.610107	-0.003906	-0.122803
183.0	7.497476	2.234882	6.327528	-0.001814	0.005352	0.036595	-0.610352	-0.003906	-0.127197
184.0	7.459073	2.015116	6.246786	-0.101095	0.028384	0.064483	-0.610107	-0.006104	-0.120605
185.0	7.402741	2.027423	6.256563	-0.040095	0.046807	0.074088	-0.612549	0.002441	-0.125
186.0	7.391846	1.94047	6.252813	-0.118463	0.049278	0.08513	-0.610352	-0.003906	-0.127197
187.0	7.414573	1.855648	6.254703	-0.056677	0.057563	0.082871	-0.608154	-0.001709	-0.129395
188.0	7.403627	1.958782	6.367335	-0.084443	0.063177	0.085086	-0.608398	0.002441	-0.122803
189.0	7.39168	1.810105	6.284401	-0.085978	0.061892	0.083804	-0.605957	-0.001953	-0.122803
190.0	7.403743	1.71092	6.357457	-0.074688	0.059932	0.072928	-0.612549	-0.001953	-0.122803
191.0	7.376014	1.646102	6.330429	-0.061482	0.048791	0.060731	-0.614746	0.000244	-0.127197
192.0	7.37814	1.719509	6.377653	-0.033287	0.043517	0.049316	-0.608154	0.000244	-0.125
193.0	7.352315	1.63409	6.352455	-0.050097	0.036625	0.035824	-0.608398	0.004639	-0.127197
194.0	7.390457	1.628084	6.326951	-0.020556	0.02658	0.021441	-0.610352	-0.001709	-0.127197
195.0	7.375113	1.683211	6.389471	-0.010807	0.015151	0.005591	-0.608154	0.000244	-0.127197
196.0	7.343191	1.723532	6.34462	-0.008643	0.010021	-0.001915	-0.612549	-0.001953	-0.118652
197.0	7.37509	1.750423	6.347372	-0.002417	0.008496	-0.007323	-0.610352	0.000244	-0.125
198.0	7.374533	1.750813	6.347911	-0.008705	0.003467	-0.012834	-0.608154	0.000244	-0.122803
199.0	7.347394	1.720151	6.312313	-0.004037	-0.002446	-0.016115	-0.605957	0.000244	-0.127197
200.0	7.371288	1.801221	6.340953	0.008265	-0.004969	-0.020329	-0.610596	0.002441	-0.122803
201.0	7.371307	1.802507	6.340566	-0.009556	-0.005863	-0.015677	-0.608154	-0.001953	-0.116455
202.0	7.426601	1.781217	6.334887	-0.000727	-0.003588	-0.016452	-0.608398	0.004639	-0.12085
203.0	7.371269	1.804307	6.340099	-0.004299	-0.003373	-0.013419	-0.608154	-0.00415	-0.118408
204.0	7.410897	1.803589	6.311527	0.001499	-0.002164	-0.01304	-0.606201	0.002441	-0.125
205.0	7.409347	1.828301	6.308077	-0.006841	-0.000619	-0.007133	-0.610352	-0.003906	-0.125
206.0	7.416311	1.799881	6.2779	-0.005548	0.002846	-0.006569	-0.60376	0.000244	-0.125
207.0	7.390408	1.805013	6.326298	-0.009399	0.005267	-0.00435	-0.610596	0.002441	-0.122803
208.0	7.375867	1.801081	6.307285	-0.008745	0.005434	-0.002317	-0.608154	-0.001953	-0.120605
209.0	7.38942	1.804368	6.327636	-0.011151	0.010796	-0.00613	-0.610352	0.000244	-0.120605
210.0	7.388742	1.803931	6.328552	-0.008912	0.009088	0.000781	-0.612793	0.004639	-0.125
211.0	7.40806	1.802522	6.315162	-0.010482	0.00783	-0.000595	-0.604004	0.002441	-0.118652
212.0	7.384618	1.850862	6.323579	-0.010927	0.013692	0.001692	-0.610596	0.006592	-0.12085
213.0	7.3853	1.825717	6.328159	-0.013304	0.012789	0.004881	-0.608154	-0.001709	-0.125
214.0	7.402924	1.847662	6.311914	-0.017154	0.015208	0.007104	-0.610352	0.000244	-0.122803
215.0	7.37682	1.790362	6.280912	-0.018877	0.014471	0.012328	-0.610107	-0.003906	-0.122803
216.0	7.387431	1.748076	6.342351	-0.018986	0.013023	0.00842	-0.610352	0.000244	-0.122803
217.0	7.392372	1.742052	6.309976	-0.016232	0.016298	0.006458	-0.606201	0.006836	-0.12085
218.0	7.402829	1.792527	6.324134	-0.011452	0.011837	0.007081	-0.616943	0.002441	-0.122803
219.0	7.389408	1.763615	6.30911	-0.013575	0.014994	0.004085	-0.608398	0.002441	-0.125
220.0	7.38285	1.766951	6.3441	-0.009072	0.012739	0.003897	-0.605957	0.000244	-0.120605
221.0	7.353912	1.758761	6.306024	-0.017631	0.011388	0.001985	-0.608398	0.004639	-0.129395
222.0	7.380063	1.788857	6.342941	-0.010907	0.010554	0.005209	-0.612549	-0.001953	-0.122803
223.0	7.365464	1.784142	6.324233	-0.017729	0.006808	0.001572	-0.608398	0.004639	-0.122803
224.0	7.407664	1.733187	6.303406	-0.011282	0.008182	0.003987	-0.608398	0.004639	-0.127197
225.0	7.364535	1.782004	6.325919	-0.015891	0.008992	0.000266	-0.610596	0.002441	-0.122803
226.0	7.36558	1.756856	6.329991	-0.009811	0.004858	0.004951	-0.605957	-0.001953	-0.120605
227.0	7.379278	1.759449	6.350338	-0.016542	0.008828	-0.001765	-0.610596	0.006836	-0.127197
228.0	7.349203	1.775748	6.308502	-0.009001	0.004507	0.000385	-0.608398	0.004639	-0.125
229.0	7.397181	1.781308	6.333905	-0.014895	-0.001282	-0.000412	-0.608154	0.000244	-0.127197
230.0	7.398688	1.756336	6.337377	-0.012782	-0.001305	-0.000912	-0.608398	0.004639	-0.12085
231.0	7.383203	1.776258	6.314573	-0.013433	-0.001468	-0.002945	-0.608154	0.000244	-0.125
232.0	7.395865	1.803046	6.331126	-0.01663	0.001111	0.001318	-0.612793	0.006836	-0.122803
233.0	7.397236	1.778086	6.334746	-0.015929	-0.000679	-0.007162	-0.608398	0.004639	-0.122803
234.0	7.381662	1.797807	6.312117	-0.02031	-0.000124	0.000442	-0.608398	0.004639	-0.122803
235.0	7.377369	1.776822	6.349454	-0.014892	-0.001284	-0.000406	-0.608398	0.002441	-0.118652
236.0	7.383223	1.771552	6.315872	-0.017003	-0.001262	9.7e-05	-0.610596	0.002441	-0.125
237.0	7.397322	1.774179	6.335742	-0.013055	0.000901	-0.001711	-0.612793	0.004639	-0.127197
238.0	7.401659	1.793091	6.298951	-0.019114	-0.001241	0.000601	-0.610596	0.006836	-0.129395
239.0	7.403107	1.7678	6.302552	-0.017277	0.000945	-0.000705	-0.606201	0.002441	-0.125
240.0	7.398768	1.74701	6.339862	-0.012778	-0.001307	-0.000902	-0.606201	0.002686	-0.131592
241.0	7.404391	1.742228	6.306413	-0.013714	0.003878	-0.007231	-0.608398	0.004639	-0.125
242.0	7.402831	1.765962	6.303392	-0.009472	-0.002445	-0.001252	-0.610596	0.004639	-0.129395
243.0	7.416934	1.769088	6.323114	-0.009481	0.000695	-0.004743	-0.612549	0.002441	-0.12085
244.0	7.382787	1.766123	6.317901	-0.008563	0.001788	-0.005396	-0.608398	0.004639	-0.127197
245.0	7.416631	1.768817	6.323546	-0.006176	-0.000442	-0.005093	-0.608398	0.006836	-0.122803
246.0	7.417868	1.744524	6.327098	-0.01095	0.004018	-0.005697	-0.617188	0.004639	-0.122803
247.0	7.394815	1.793344	6.335106	-0.008562	0.001788	-0.005394	-0.610596	0.006592	-0.12085
248.0	7.397517	1.744954	6.341887	-0.010781	0.000371	-0.008805	-0.608398	0.006836	-0.12085
249.0	7.401574	1.764909	6.305162	-0.006727	0.003975	-0.0067	-0.612549	0.002441	-0.122803
250.0	7.416784	1.744438	6.328392	-0.011164	0.001141	-0.013522	-0.610596	0.004639	-0.127197
251.0	7.380994	1.766214	6.319971	-0.003155	0.003771	-0.009736	-0.608643	0.010986	-0.118652
252.0	7.394715	1.770061	6.339936	-0.008945	0.002557	-0.010109	-0.608398	0.002441	-0.122803
253.0	7.400148	1.766295	6.306447	-0.002611	0.002495	-0.011616	-0.606201	0.002441	-0.125
254.0	7.412371	1.794577	6.323121	-0.006566	0.003469	-0.013295	-0.612793	0.008789	-0.125
255.0	7.419138	1.766881	6.292984	-0.002887	0.004704	-0.012418	-0.61084	0.010986	-0.118652
256.0	7.393036	1.772236	6.341286	-0.008943	0.002555	-0.010106	-0.606201	0.002441	-0.122803
257.0	7.411003	1.795895	6.32435	-0.007653	0.006019	-0.009529	-0.606201	0.004639	-0.125
258.0	7.397916	1.768359	6.308488	-0.009487	0.00383	-0.008222	-0.608398	0.006836	-0.122803
259.0	7.397542	1.768315	6.308939	-0.008837	0.003991	-0.00619	-0.606201	0.004639	-0.122803
260.0	7.409855	1.795898	6.325694	-0.009209	0.001622	-0.007419	-0.610596	0.004639	-0.125
261.0	7.416887	1.767504	6.295461	-0.01197	0.00148	-0.008946	-0.610596	0.002441	-0.122803
262.0	7.389426	1.796557	6.340483	-0.008941	0.002555	-0.010101	-0.610596	0.004639	-0.125
263.0	7.410495	1.77177	6.329909	-0.011969	0.001479	-0.008944	-0.608154	0.000244	-0.122803
264.0	7.415972	1.767535	6.29653	-0.004509	0.005388	-0.00328	-0.610352	0.000244	-0.125
265.0	7.395774	1.768085	6.311076	-0.011318	0.00164	-0.006912	-0.612549	0.002441	-0.122803
266.0	7.393964	1.792281	6.308212	-0.008023	0.003649	-0.01075	-0.612793	0.006592	-0.12085
267.0	7.413417	1.791452	6.294625	-0.012036	0.006557	-0.001917	-0.610352	0.002441	-0.118652
268.0	7.393136	1.791703	6.309346	-0.008185	0.004151	-0.004153	-0.610596	0.004639	-0.122803
269.0	7.414134	1.766617	6.298952	-0.012139	0.005122	-0.005828	-0.608398	0.002441	-0.125
270.0	7.378295	1.787671	6.290757	-0.008185	0.00415	-0.004152	-0.608398	0.004639	-0.118652
271.0	7.41335	1.765989	6.30005	-0.012684	0.006395	-0.003944	-0.610596	0.004639	-0.118652
272.0	7.389965	1.814615	6.30845	-0.006896	0.007614	-0.003571	-0.608154	-0.001709	-0.125
273.0	7.413912	1.740966	6.304602	-0.016627	0.004223	-0.002136	-0.608398	0.002441	-0.120605
274.0	7.390423	1.789522	6.313143	-0.003773	0.013269	-0.004293	-0.608398	0.002441	-0.122803
275.0	7.423799	1.79212	6.319411	-0.01397	0.00293	-0.004521	-0.610352	-0.001953	-0.125
276.0	7.410816	1.764212	6.303529	-0.004784	0.007596	-0.004072	-0.612793	0.004639	-0.122803
277.0	7.390343	1.764567	6.318418	-0.01231	0.008762	-0.002708	-0.610596	0.006592	-0.114258
278.0	7.409665	1.763636	6.305043	-0.004784	0.007596	-0.00407	-0.610596	0.002441	-0.122803
279.0	7.407606	1.787451	6.302599	-0.011661	0.008922	-0.000676	-0.605957	0.000244	-0.122803
280.0	7.408552	1.762896	6.306557	-0.004135	0.007756	-0.002039	-0.610596	0.004639	-0.122803
281.0	7.386577	1.787401	6.318242	-0.012956	0.008601	-0.004735	-0.608398	0.002441	-0.129395
282.0	7.422884	1.741766	6.330972	-0.007272	0.008389	-0.008275	-0.608154	0.000244	-0.122803
283.0	7.386749	1.763041	6.323045	-0.006522	0.009981	-0.002331	-0.612793	0.004639	-0.125
284.0	7.386031	1.762737	6.323968	-0.010474	0.010951	-0.004004	-0.608398	0.002441	-0.125
285.0	7.405212	1.761776	6.310792	-0.00928	0.009838	-0.003856	-0.610596	0.008789	-0.118652
286.0	7.388915	1.78236	6.288847	-0.006899	0.010757	-0.007038	-0.610596	0.004639	-0.122803
287.0	7.402213	1.785604	6.309455	-0.014147	0.009712	-0.004877	-0.61499	0.004639	-0.12085
288.0	7.403014	1.7612	6.313531	-0.005057	0.009804	-0.004859	-0.610596	0.008789	-0.118652
289.0	7.394966	1.789398	6.34493	-0.008732	0.008565	-0.005735	-0.604004	0.002441	-0.120605
290.0	7.42155	1.76038	6.301096	-0.008361	0.010932	-0.004501	-0.61499	0.004639	-0.129395
291.0	7.413385	1.788477	6.332655	-0.009007	0.010773	-0.006529	-0.612549	0.002441	-0.122803
292.0	7.405951	1.756643	6.28334	-0.00836	0.010932	-0.004498	-0.612549	0.002441	-0.125
293.0	7.397792	1.78468	6.3149	-0.00836	0.010932	-0.004497	-0.606201	0.004639	-0.127197
294.0	7.382985	1.78111	6.296162	-0.006249	0.010915	-0.005	-0.612549	0.002441	-0.12085
295.0	7.424271	1.791461	6.356146	-0.004685	0.01217	-0.003618	-0.61499	0.004639	-0.125
296.0	7.416858	1.759724	6.306801	-0.010568	0.009516	-0.007906	-0.612549	-0.001953	-0.120605
297.0	7.39453	1.784249	6.31884	-0.010376	0.015522	-0.00355	-0.610596	0.004639	-0.12085
298.0	7.415152	1.75912	6.308975	-0.007436	0.008881	-0.001668	-0.610352	0.000244	-0.120605
299.0	7.394367	1.759401	6.324157	-0.009457	0.016618	-0.004195	-0.612549	0.000244	-0.118652
300.0	7.394787	1.73507	6.328643	-0.006153	0.01549	-0.004551	-0.608643	0.009033	-0.125
301.0	7.410729	1.782585	6.309428	-0.007342	0.013456	-0.001223	-0.610596	0.002441	-0.127197
302.0	7.409791	1.782264	6.310621	-0.004862	0.015807	-0.000488	-0.608398	0.006836	-0.125
303.0	7.388815	1.782578	6.325994	-0.011016	0.015361	-0.005571	-0.608398	0.004639	-0.129395
304.0	7.424689	1.737029	6.339235	-0.002477	0.016728	-0.003665	-0.614746	0.002441	-0.12085
305.0	7.386689	1.782557	6.328482	-0.006518	0.013121	-0.005781	-0.610596	0.002441	-0.125
306.0	7.411583	1.777917	6.281813	-0.006149	0.015488	-0.004542	-0.612549	0.000244	-0.118652
307.0	7.386131	1.758265	6.33409	-0.003943	0.016901	-0.001128	-0.612793	0.004639	-0.125
308.0	7.406536	1.733667	6.324375	-0.001377	0.014186	-0.007429	-0.606201	0.004639	-0.125
309.0	7.402439	1.782422	6.319198	-0.002569	0.015297	-0.007572	-0.610596	0.006592	-0.118652
310.0	7.38888	1.755239	6.303796	0.000186	0.015441	-0.006043	-0.606201	0.006836	-0.127197
311.0	7.420157	1.782809	6.307495	-0.002293	0.016234	-0.010246	-0.612793	0.004639	-0.12085
312.0	7.383599	1.804495	6.299857	-0.002842	0.014359	-0.004892	-0.610596	0.006592	-0.12085
313.0	7.403869	1.780145	6.290274	-0.003759	0.019553	-0.011178	-0.612793	0.004639	-0.125
314.0	7.370225	1.753402	6.289111	-0.003392	0.015628	-0.003004	-0.610596	0.006836	-0.122803
315.0	7.395544	1.784669	6.326633	-0.001005	0.016551	-0.006179	-0.610596	0.004639	-0.12085
316.0	7.394391	1.784977	6.327894	-0.003115	0.016565	-0.005677	-0.606201	0.004395	-0.116455
317.0	7.394822	1.761042	6.332258	-0.006235	0.014054	-0.008444	-0.608398	0.002441	-0.127197
318.0	7.392201	1.78543	6.330324	-0.003114	0.016564	-0.005674	-0.612549	0.002441	-0.12085
319.0	7.392627	1.761664	6.334648	-0.002011	0.014024	-0.009442	-0.614746	0.000244	-0.122803
320.0	7.388514	1.810473	6.329446	-0.004122	0.014038	-0.008941	-0.612549	0.000244	-0.122803
321.0	7.396744	1.758612	6.302852	-0.000269	0.008498	-0.007716	-0.610596	0.002441	-0.122803
322.0	7.402209	1.790913	6.354087	-0.001733	0.014961	-0.012112	-0.610596	0.004639	-0.122803
323.0	7.373222	1.784622	6.315713	-0.001369	0.014182	-0.007407	-0.61499	0.004639	-0.122803
324.0	7.413714	1.759872	6.291868	-0.003568	0.012767	-0.010821	-0.608398	0.002441	-0.122803
325.0	7.406712	1.764405	6.326601	-0.004486	0.01167	-0.010176	-0.612549	0.002441	-0.122803
326.0	7.39029	1.785575	6.304686	-0.002927	0.012925	-0.008789	-0.61084	0.008789	-0.123047
327.0	7.403282	1.789618	6.325371	0.000378	0.011801	-0.009142	-0.612549	0.000244	-0.125
328.0	7.388301	1.786643	6.306714	-0.006504	0.016255	-0.00922	-0.610352	-0.001953	-0.125
329.0	7.401223	1.790451	6.327544	-0.002651	0.010717	-0.007997	-0.604004	0.002441	-0.125
330.0	7.366402	1.788058	6.322695	-0.000813	0.012911	-0.009283	-0.612793	0.004639	-0.122803
331.0	7.380901	1.767932	6.346563	-0.007873	0.011363	-0.013728	-0.608398	0.002441	-0.122803
332.0	7.376928	1.816724	6.341158	-0.004208	0.00946	-0.00938	-0.610352	0.002441	-0.12085
333.0	7.385344	1.764802	6.314479	-0.006958	0.009314	-0.01091	-0.608398	0.002441	-0.125
334.0	7.396901	1.792822	6.331925	-0.002649	0.010716	-0.007992	-0.612549	0.002441	-0.122803
335.0	7.396083	1.79316	6.332785	-0.004761	0.010729	-0.007492	-0.601807	0.004639	-0.127197
336.0	7.361465	1.790368	6.32779	-0.008155	0.007278	-0.007593	-0.608398	0.002441	-0.120605
337.0	7.394586	1.793447	6.334451	-0.007785	0.012788	-0.009807	-0.604004	0.004639	-0.116455
338.0	7.379849	1.790175	6.315602	-0.007236	0.008374	-0.008233	-0.606201	0.006836	-0.127197
339.0	7.393052	1.793702	6.336169	-0.00779	0.009643	-0.006348	-0.614746	0.000244	-0.120605
340.0	7.39846	1.78979	6.303221	-0.007235	0.008374	-0.008232	-0.608154	0.000244	-0.127197
341.0	7.391713	1.793862	6.337686	-0.008153	0.007276	-0.007589	-0.608398	0.002441	-0.127197
342.0	7.371063	1.794465	6.352379	-0.007234	0.008374	-0.00823	-0.608398	0.004639	-0.129395
343.0	7.396491	1.790056	6.305455	-0.007789	0.009642	-0.006344	-0.610596	0.004639	-0.118652
344.0	7.391268	1.769807	6.343132	-0.01365	0.006981	-0.010647	-0.608398	0.006836	-0.122803
345.0	7.375173	1.790436	6.320988	-0.005958	0.008691	-0.00417	-0.606201	0.006836	-0.127197
346.0	7.38842	1.793764	6.341552	-0.011456	0.008396	-0.007229	-0.608154	0.000244	-0.120605
347.0	7.372202	1.814241	6.319599	-0.009536	0.012017	-0.004597	-0.608398	0.006836	-0.122803
348.0	7.3946	1.765194	6.312835	-0.009898	0.009652	-0.00584	-0.608398	0.002441	-0.125
349.0	7.386201	1.793226	6.344289	-0.006594	0.008532	-0.006194	-0.608398	0.002441	-0.125
350.0	7.391645	1.789261	6.311361	-0.010535	0.009493	-0.007866	-0.612549	0.002441	-0.122803
351.0	7.420371	1.771878	6.354796	-0.00843	0.006335	-0.004911	-0.610352	0.002441	-0.12085
352.0	7.390444	1.788899	6.31287	-0.00926	0.009809	-0.003808	-0.610596	0.004639	-0.125
353.0	7.383702	1.792678	6.347352	-0.006318	0.006324	-0.005408	-0.610596	0.002441	-0.129395
354.0	7.390843	1.764629	6.317391	-0.009977	0.008225	-0.009748	-0.608398	0.004639	-0.122803
355.0	7.366997	1.813499	6.325879	-0.008147	0.007274	-0.007577	-0.612549	0.000244	-0.118652
356.0	7.38958	1.76474	6.318837	-0.006592	0.008531	-0.006188	-0.610596	0.006836	-0.125
357.0	7.351893	1.810077	6.307516	-0.00751	0.007432	-0.005547	-0.610352	-0.001709	-0.129395
358.0	7.388345	1.764543	6.320336	-0.009259	0.009807	-0.003803	-0.612793	0.004639	-0.12085
359.0	7.385999	1.788566	6.318164	-0.009612	0.010589	-0.008497	-0.606201	0.002441	-0.127197
360.0	7.379145	1.792397	6.352728	-0.006873	0.00759	-0.003517	-0.605957	-0.001709	-0.127197
361.0	7.404743	1.788017	6.305754	-0.007226	0.008372	-0.008211	-0.610352	-0.001709	-0.127197
362.0	7.364103	1.788869	6.334324	-0.007792	0.006491	-0.002877	-0.606201	0.004639	-0.122803
363.0	7.403554	1.787998	6.307156	-0.006941	0.009312	-0.010876	-0.610352	0.000244	-0.127197
364.0	7.416657	1.791615	6.327794	-0.007782	0.009637	-0.006323	-0.608398	0.002441	-0.127197
365.0	7.382078	1.78863	6.322727	-0.006589	0.008529	-0.006181	-0.608398	0.004639	-0.125
366.0	7.381469	1.788617	6.323442	-0.007507	0.00743	-0.005541	-0.605957	0.000244	-0.125
367.0	7.380886	1.788495	6.324157	-0.005318	0.008845	-0.002124	-0.612549	0.000244	-0.122803
368.0	7.358588	1.812833	6.33585	-0.012003	0.009655	-0.005324	-0.610596	0.004639	-0.12085
369.0	7.378029	1.812205	6.322673	-0.006314	0.006322	-0.005398	-0.610596	0.006836	-0.129395
370.0	7.39902	1.787607	6.312585	-0.009607	0.010586	-0.008485	-0.608398	0.006836	-0.122803
371.0	7.378238	1.788076	6.327364	-0.006587	0.008528	-0.006176	-0.606201	0.002441	-0.125
372.0	7.399262	1.763373	6.317275	-0.008064	0.008694	-0.00365	-0.608154	-0.001709	-0.129395
373.0	7.390864	1.791203	6.348683	-0.006871	0.007587	-0.003509	-0.604004	0.004639	-0.12085
374.0	7.374865	1.811727	6.3265	-0.009616	0.007438	-0.005038	-0.608154	0.000244	-0.118652
375.0	7.369615	1.791292	6.364093	-0.007778	0.009636	-0.006313	-0.608398	0.004639	-0.127197
376.0	7.375199	1.787125	6.331175	-0.013838	0.007454	-0.004041	-0.606201	0.002441	-0.125
377.0	7.406797	1.814052	6.334878	-0.006858	0.010734	-0.006948	-0.616943	0.002441	-0.122803
378.0	7.401742	1.758155	6.288301	-0.008906	0.009016	0.000906	-0.610596	0.004639	-0.127197
379.0	7.387133	1.789767	6.353428	-0.006944	0.006164	-0.007418	-0.612549	0.002441	-0.118652
380.0	7.377424	1.80654	6.297423	-0.010533	0.006337	-0.004396	-0.60376	-0.003906	-0.120605
381.0	7.39234	1.785598	6.320975	-0.007502	0.007428	-0.00553	-0.605957	0.000244	-0.120605
382.0	7.403944	1.813011	6.338509	-0.010806	0.008543	-0.005171	-0.610352	0.000244	-0.116455
383.0	7.398894	1.757243	6.291906	-0.006223	0.010891	-0.004915	-0.610596	0.004639	-0.127197
384.0	7.404248	1.788576	6.343167	-0.009972	0.005072	-0.00628	-0.614746	0.002441	-0.12085
385.0	7.39768	1.757107	6.293371	-0.006855	0.010734	-0.00694	-0.608154	-0.001953	-0.122803
386.0	7.409173	1.784537	6.311034	-0.010172	0.008699	-0.003141	-0.608398	0.006836	-0.125
387.0	7.388521	1.784703	6.325691	-0.0075	0.007427	-0.005525	-0.605957	-0.001709	-0.125
388.0	7.387916	1.784604	6.326425	-0.008692	0.008534	-0.005664	-0.610596	0.002441	-0.125
389.0	7.387298	1.78456	6.327159	-0.008132	0.00727	-0.00755	-0.608398	0.004639	-0.118652
390.0	7.398857	1.812191	6.344681	-0.00658	0.008527	-0.006159	-0.608154	0.000244	-0.122803
391.0	7.386071	1.784501	6.328607	-0.00961	0.007433	-0.005025	-0.612793	0.006836	-0.127197
392.0	7.403883	1.808179	6.312449	-0.005029	0.009783	-0.004767	-0.612793	0.008789	-0.12085
393.0	7.35729	1.777584	6.290312	-0.009408	0.003807	-0.008163	-0.605957	-0.001953	-0.118652
394.0	7.404444	1.783942	6.31675	-0.011434	0.008383	-0.007187	-0.612793	0.004639	-0.118652
395.0	7.369972	1.780727	6.311544	-0.006866	0.007582	-0.003493	-0.608398	0.004639	-0.122803
396.0	7.389494	1.780224	6.298337	-0.007498	0.007426	-0.005518	-0.608398	0.002441	-0.122803
397.0	7.382654	1.783783	6.332795	-0.01172	0.007438	-0.004523	-0.608398	0.002441	-0.127197
398.0	7.420615	1.806963	6.302727	-0.007497	0.007426	-0.005517	-0.610596	0.002441	-0.127197
399.0	7.37532	1.787158	6.36787	-0.009335	0.005225	-0.004245	-0.608398	0.006836	-0.122803
400.0	7.381106	1.783254	6.334749	-0.008128	0.007269	-0.007541	-0.612549	0.002441	-0.125
401.0	7.385159	1.803461	6.298751	-0.010169	0.008693	-0.003129	-0.608398	0.002441	-0.127197
402.0	7.398387	1.806635	6.319331	-0.009046	0.006169	-0.006904	-0.610352	0.000244	-0.122803
403.0	7.387286	1.754614	6.306264	-0.01136	0.009799	-0.003265	-0.608398	0.004639	-0.122803
404.0	7.397163	1.80618	6.320894	-0.005384	0.007419	-0.006009	-0.608398	0.002441	-0.122803
405.0	7.378192	1.782249	6.338426	-0.010525	0.00633	-0.004379	-0.606201	0.002441	-0.129395
406.0	7.40243	1.80204	6.288481	-0.006864	0.00758	-0.003485	-0.608398	0.002441	-0.120605
407.0	7.375458	1.805749	6.336883	-0.01502	0.008546	-0.004155	-0.610596	0.006836	-0.129395
408.0	7.396619	1.78064	6.326841	-0.011086	0.007591	-0.002488	-0.606201	0.002441	-0.127197
409.0	7.368061	1.808455	6.372178	-0.013265	0.006179	-0.005904	-0.608398	0.006836	-0.12085
410.0	7.381891	1.776161	6.308392	-0.010744	0.0068	0.002199	-0.610596	0.002441	-0.129395
411.0	7.388935	1.782794	6.362621	-0.009961	0.005068	-0.006263	-0.610352	-0.001953	-0.120605
412.0	7.399468	1.799319	6.292744	-0.008412	0.006324	-0.004871	-0.606201	0.002441	-0.118652
413.0	7.39891	1.799085	6.293467	-0.010795	0.008535	-0.005143	-0.612549	0.002441	-0.12085
414.0	7.37523	1.754573	6.347754	-0.008411	0.006324	-0.004869	-0.606201	0.002441	-0.120605
415.0	7.391557	1.80227	6.328564	-0.009892	0.006483	-0.002346	-0.610596	0.006836	-0.125
416.0	7.378952	1.774221	6.312375	-0.011084	0.007588	-0.002481	-0.610352	0.000244	-0.122803
417.0	7.392108	1.777393	6.333023	-0.009942	0.00822	-0.009688	-0.606201	0.002441	-0.125
418.0	7.397966	1.773333	6.299941	-0.0111	0.004435	0.000949	-0.605957	0.000244	-0.122803
419.0	7.404862	1.78	6.354297	-0.008955	0.010736	-0.006404	-0.612793	0.006592	-0.116455
420.0	7.375013	1.797244	6.312401	-0.009601	0.007428	-0.005001	-0.610596	0.006836	-0.125
421.0	7.389865	1.776211	6.335972	-0.0096	0.007428	-0.005	-0.605957	-0.001709	-0.129395
422.0	7.373872	1.796681	6.313893	-0.010163	0.008688	-0.003109	-0.608154	-0.001709	-0.127197
423.0	7.394973	1.771879	6.303862	-0.009872	0.009634	-0.005767	-0.606445	0.008789	-0.122803
424.0	7.408092	1.77504	6.324554	-0.009599	0.007427	-0.004997	-0.612549	0.002441	-0.12085
425.0	7.387442	1.775176	6.339087	-0.011775	0.006017	-0.008414	-0.612793	0.004639	-0.12085
426.0	7.378902	1.802946	6.370502	-0.009035	0.006168	-0.006885	-0.610352	0.002441	-0.12085
427.0	7.392744	1.771246	6.306654	-0.009598	0.007427	-0.004995	-0.608154	0.000244	-0.120605
428.0	7.384166	1.798783	6.338176	-0.011709	0.00743	-0.004496	-0.610352	0.000244	-0.122803
429.0	7.393289	1.74648	6.311078	-0.010226	0.007272	-0.007018	-0.610596	0.004639	-0.122803
430.0	7.389437	1.794518	6.305889	-0.012627	0.006327	-0.003862	-0.606201	0.004639	-0.12085
431.0	7.406022	1.749158	6.332347	-0.011144	0.00617	-0.006383	-0.606201	0.004639	-0.122803
432.0	7.402204	1.797456	6.327047	-0.008469	0.004908	-0.00877	-0.610352	0.000244	-0.122803
433.0	7.389644	1.769936	6.310654	-0.009033	0.006167	-0.006879	-0.608398	0.004639	-0.125
434.0	7.402861	1.773209	6.331188	-0.011771	0.006015	-0.008405	-0.610596	0.002441	-0.129395
435.0	7.373252	1.790573	6.289021	-0.012125	0.003655	-0.009662	-0.612549	0.002441	-0.125
436.0	7.400295	1.797161	6.329365	-0.012689	0.004912	-0.00777	-0.612549	0.002441	-0.122803
437.0	7.415248	1.7762	6.352769	-0.010578	0.00491	-0.008267	-0.612549	-0.001709	-0.127197
438.0	7.387363	1.769452	6.31346	-0.009386	0.003805	-0.008133	-0.60376	-0.001709	-0.125
439.0	7.397404	1.821073	6.327934	-0.009677	0.002856	-0.005476	-0.610596	0.004639	-0.122803
440.0	7.406787	1.768864	6.30053	-0.012687	0.004911	-0.007766	-0.610352	0.000244	-0.127197
441.0	7.372606	1.765564	6.294904	-0.011222	0.0016	-0.006867	-0.610596	0.002441	-0.125
442.0	7.404339	1.792669	6.298618	-0.008677	0.008525	-0.005611	-0.612793	0.004639	-0.127197
443.0	7.397448	1.795972	6.333029	-0.015715	0.003809	-0.006634	-0.606201	0.002441	-0.129395
444.0	7.383403	1.792262	6.313593	-0.009675	0.002855	-0.005473	-0.608398	0.002441	-0.120605
445.0	7.398473	1.77119	6.33688	-0.009322	0.005215	-0.004212	-0.608398	0.004639	-0.129395
446.0	7.394641	1.819297	6.331673	-0.01114	0.006166	-0.006368	-0.612549	0.000244	-0.122803
447.0	7.40228	1.791172	6.301464	-0.011431	0.005216	-0.003712	-0.610352	0.002441	-0.118652
448.0	7.368041	1.787629	6.295962	-0.011431	0.005215	-0.003712	-0.610596	0.002441	-0.122803
449.0	7.395062	1.793786	6.336434	-0.011996	0.006472	-0.00182	-0.610596	0.004639	-0.125
450.0	7.394683	1.793195	6.337044	-0.012349	0.004112	-0.003079	-0.608398	0.004639	-0.122803
451.0	7.40068	1.788903	6.303987	-0.015297	0.007576	-0.001451	-0.610596	0.002441	-0.125
452.0	7.400208	1.788163	6.30475	-0.011995	0.006471	-0.001816	-0.608643	0.008789	-0.118652
453.0	7.413473	1.790847	6.325383	-0.01473	0.006319	-0.00334	-0.610596	0.002441	-0.122803
454.0	7.400998	1.76276	6.309037	-0.009884	0.00647	-0.002313	-0.608398	0.002441	-0.120605
455.0	7.378718	1.786697	6.320643	-0.01262	0.006318	-0.003837	-0.614746	-0.001953	-0.125
456.0	7.420186	1.76156	6.296601	-0.00834	0.007725	-0.000919	-0.61084	0.010986	-0.12085
457.0	7.397863	1.785547	6.308243	-0.013244	0.006166	-0.005858	-0.608398	0.002441	-0.122803
458.0	7.397405	1.785065	6.308917	-0.009258	0.006621	-0.000287	-0.610352	0.002441	-0.12085
459.0	7.403324	1.78094	6.275938	-0.012265	0.008676	-0.002571	-0.61084	0.009033	-0.125
460.0	7.396335	1.784026	6.310465	-0.008964	0.007573	-0.002939	-0.608154	-0.001953	-0.120605
461.0	7.391077	1.762865	6.347823	-0.013183	0.007572	-0.001939	-0.610596	0.002441	-0.125
462.0	7.395333	1.782936	6.311947	-0.009882	0.006469	-0.002307	-0.608398	0.004639	-0.122803
463.0	7.37462	1.782743	6.326539	-0.01197	0.009627	-0.00522	-0.612549	-0.001953	-0.122803
464.0	7.431322	1.736801	6.325493	-0.007985	0.010082	0.000351	-0.612549	0.000244	-0.120605
465.0	7.395237	1.757451	6.317269	-0.010506	0.006317	-0.004328	-0.608154	-0.001709	-0.131592
466.0	7.399421	1.777845	6.281417	-0.011402	0.008373	-0.00711	-0.608154	0.000244	-0.125
467.0	7.427891	1.759924	6.32497	-0.009528	0.008826	-0.00104	-0.610596	0.006836	-0.122803
468.0	7.413634	1.756232	6.3058	-0.009586	0.00742	-0.004955	-0.614746	-0.001953	-0.118652
469.0	7.384715	1.783867	6.351284	-0.009233	0.009778	-0.00369	-0.608398	0.004639	-0.127197
470.0	7.39047	1.780182	6.318417	-0.007748	0.009628	-0.006211	-0.610596	0.004639	-0.122803
471.0	7.411744	1.75558	6.308203	-0.007146	0.006618	-0.000777	-0.608398	0.004639	-0.125
472.0	7.411233	1.755405	6.308852	-0.008099	0.00727	-0.007474	-0.610352	0.000244	-0.127197
473.0	7.388614	1.779784	6.320699	-0.00921	0.012937	-0.007096	-0.612549	0.002441	-0.122803
474.0	7.401617	1.782807	6.341518	-0.006522	0.006768	0.001247	-0.608154	-0.001953	-0.122803
475.0	7.393816	1.775706	6.288618	-0.008937	0.01073	-0.006336	-0.608154	-0.001953	-0.120605
476.0	7.420403	1.782105	6.329478	-0.007689	0.011031	-0.00229	-0.612549	0.002441	-0.127197
477.0	7.365701	1.779042	6.337961	-0.005012	0.009779	-0.004681	-0.610352	0.000244	-0.125
478.0	7.451435	1.715994	6.379601	-0.007744	0.009627	-0.006204	-0.612793	0.006836	-0.125
479.0	7.529764	1.646743	6.367675	-0.002341	0.013446	-0.017803	-0.608398	0.002441	-0.118652
480.0	7.459719	1.9764	6.481218	0.001603	0.029799	-0.011459	-0.608398	0.004639	-0.125
481.0	7.483475	1.361783	6.268917	-0.053463	0.014905	-0.032978	-0.610352	0.002441	-0.12085
482.0	7.553354	1.831885	6.412474	0.112673	0.023812	-0.04429	-0.612793	0.004639	-0.127197
483.0	7.560224	1.787128	6.386092	0.001618	0.04769	-0.047025	-0.612549	0.000244	-0.122803
484.0	7.628968	1.684306	6.238554	0.131806	0.072833	-0.060172	-0.60376	-0.001953	-0.122803
485.0	7.68747	1.97178	6.420136	0.165628	0.079493	-0.085955	-0.612305	-0.006104	-0.127197
486.0	7.734562	1.611711	6.511507	0.202799	0.126264	-0.120626	-0.605957	-0.001709	-0.125
487.0	7.952618	1.530889	6.29221	0.317578	0.149602	-0.184106	-0.60376	-0.003906	-0.127197
488.0	7.915115	1.753241	6.789989	0.371131	0.221798	-0.226766	-0.60376	-0.003906	-0.129395
489.0	7.758111	1.506208	6.561753	0.311505	0.28398	-0.266599	-0.605713	-0.010254	-0.129395
490.0	7.544902	1.453116	6.337629	0.381608	0.280288	-0.297068	-0.607666	-0.014648	-0.131592
491.0	7.44548	1.855424	6.453304	0.421378	0.282815	-0.311671	-0.605713	-0.010254	-0.137939
492.0	7.499651	1.939168	6.497328	0.357759	0.291184	-0.297529	-0.598877	-0.016602	-0.137939
493.0	7.534142	1.995634	6.382856	0.36785	0.332145	-0.291417	-0.603027	-0.023193	-0.142334
494.0	7.197488	2.292822	6.282304	0.415585	0.377328	-0.272269	-0.603027	-0.020996	-0.142334
495.0	7.405968	3.071468	6.251173	0.421696	0.327665	-0.21776	-0.598633	-0.025146	-0.148682
496.0	7.910958	4.299195	6.544319	0.386937	0.418961	-0.144528	-0.593994	-0.031494	-0.153076
497.0	6.910639	4.211122	6.177259	0.014639	0.410164	-0.009314	-0.593994	-0.029297	-0.157471
498.0	7.39847	4.403656	6.192972	0.016274	0.442162	0.115916	-0.596436	-0.0271	-0.161621
499.0	7.322126	4.482009	6.421236	-0.275566	0.505012	0.258665	-0.594482	-0.020752	-0.157471
500.0	5.89313	2.972538	6.02468	-0.555763	0.524923	0.303848	-0.596436	-0.022705	-0.166016
501.0	5.875229	2.638035	5.746465	-0.317147	0.3918	0.065188	-0.59668	-0.020508	-0.17041
502.0	6.538044	3.929771	6.946825	-0.27922	0.301333	-0.225467	-0.592285	-0.020508	-0.174805
503.0	6.089102	2.371991	6.043291	-0.778527	0.188782	-0.325793	-0.594482	-0.018311	-0.174805
504.0	8.247548	-0.254708	7.07124	-0.579906	0.149563	-0.359394	-0.590088	-0.020508	-0.177002
505.0	7.868182	-1.515731	7.399907	-0.418512	0.260871	-0.321368	-0.590088	-0.020508	-0.174805
506.0	7.829979	-2.310014	7.410577	-0.103462	0.336536	-0.187104	-0.583496	-0.022461	-0.177002
507.0	7.138954	-0.968518	7.260429	0.35152	0.402475	-0.090452	-0.583496	-0.024658	-0.18335
508.0	6.46943	2.931076	6.585938	0.717764	0.417758	-0.207741	-0.581055	-0.031006	-0.18335
509.0	6.357542	3.579097	7.404992	0.133304	0.32353	-0.220731	-0.585449	-0.028809	-0.185547
510.0	6.339398	0.828807	6.472741	-0.043223	0.311983	-0.224607	-0.578857	-0.031006	-0.189941
511.0	6.206581	1.058684	6.595653	0.412308	0.265368	-0.253177	-0.580811	-0.039551	-0.194092
512.0	5.96954	2.067903	6.749801	0.370094	0.220672	-0.257835	-0.587402	-0.035156	-0.192139
513.0	6.046264	2.073534	6.623047	0.375088	0.171545	-0.266797	-0.576172	-0.041748	-0.191895
514.0	5.296443	2.09767	6.408816	0.369724	0.110298	-0.269942	-0.580566	-0.041748	-0.191895
515.0	5.131607	2.039429	6.369313	0.432505	-0.021454	-0.261738	-0.578125	-0.052246	-0.198486
516.0	6.170786	2.123526	6.767745	0.479316	-0.116224	-0.258808	-0.575928	-0.048096	-0.189697
517.0	6.158576	2.189568	6.725631	0.444562	-0.114534	-0.259187	-0.57373	-0.048096	-0.196289
518.0	5.421498	2.302268	6.187942	0.489131	-0.174454	-0.243499	-0.580078	-0.056885	-0.18335
519.0	5.466467	2.774337	6.292152	0.519772	-0.289365	-0.212169	-0.577881	-0.056885	-0.18335
520.0	6.592216	2.819383	6.58099	0.48472	-0.373887	-0.187779	-0.579834	-0.059082	-0.174561
521.0	7.321968	2.792286	6.993932	0.453701	-0.358886	-0.189002	-0.579834	-0.063232	-0.183105
522.0	7.426313	3.277582	6.583109	0.474098	-0.310558	-0.182093	-0.586182	-0.067627	-0.178955
523.0	7.522579	4.427239	6.621771	0.45165	-0.281155	-0.140587	-0.586182	-0.067627	-0.176758
524.0	8.043297	4.539901	7.025676	0.163316	-0.205913	-0.071939	-0.57959	-0.070068	-0.167969
525.0	7.171301	3.530588	6.447856	-0.034164	-0.120211	-0.023347	-0.586182	-0.065674	-0.163574
526.0	6.973788	3.29795	6.422498	0.029963	-0.114086	0.006194	-0.581787	-0.065674	-0.167969
527.0	6.961144	3.2347	6.620007	-0.051913	-0.091837	0.031499	-0.582031	-0.063477	-0.172363
528.0	6.45369	2.958729	6.266231	-0.073446	-0.098453	0.058902	-0.582031	-0.061279	-0.170166
529.0	6.219862	3.005092	6.330156	-0.084553	-0.145993	0.089483	-0.582031	-0.061279	-0.167969
530.0	6.065542	2.640348	6.317972	-0.151306	-0.194913	0.118235	-0.586426	-0.057129	-0.172363
531.0	6.352485	2.239521	6.460263	-0.124398	-0.281525	0.12136	-0.584473	-0.052734	-0.166016
532.0	8.072254	2.704455	7.047156	-0.00546	-0.287307	0.110071	-0.582275	-0.052734	-0.167969
533.0	5.899812	2.374474	6.565165	-0.266059	-0.218317	0.074913	-0.58252	-0.046387	-0.161621
534.0	7.289405	2.284054	6.358267	0.030572	-0.312929	0.045014	-0.595703	-0.046631	-0.157227
535.0	6.671004	2.802002	6.758793	-0.124416	-0.266981	0.017873	-0.595947	-0.040039	-0.155273
536.0	6.430708	2.350251	5.9349	-0.075779	-0.374118	0.042892	-0.5979	-0.042236	-0.153076
537.0	7.03242	3.296994	6.676318	-0.034574	-0.364432	0.065667	-0.599854	-0.046631	-0.150879
538.0	6.869683	2.86052	6.298931	-0.29204	-0.366766	0.097152	-0.604248	-0.044678	-0.14209
539.0	6.951682	2.792648	6.139178	-0.21605	-0.375313	0.127711	-0.604492	-0.040527	-0.133545
540.0	6.533359	3.230354	6.248512	-0.310357	-0.402086	0.188147	-0.608887	-0.03833	-0.137939
541.0	6.695917	3.514087	6.124111	-0.443617	-0.45424	0.281581	-0.611084	-0.03833	-0.131348
542.0	7.024796	3.643631	6.383311	-0.629373	-0.435057	0.378247	-0.606689	-0.040527	-0.126953
543.0	7.746332	3.011291	6.728294	-0.905146	-0.466896	0.42719	-0.611328	-0.031982	-0.122803
544.0	7.277017	2.490383	6.295339	-0.927458	-0.390071	0.394509	-0.611572	-0.025635	-0.118408
545.0	7.892905	2.577889	6.458899	-0.811611	-0.409799	0.335442	-0.615723	-0.029785	-0.120605
546.0	7.846661	2.484536	6.59587	-0.87101	-0.337583	0.296539	-0.61377	-0.023438	-0.116211
547.0	7.857552	2.256507	6.216185	-0.846291	-0.267487	0.273519	-0.615967	-0.023438	-0.114014
548.0	7.967024	1.990802	6.163117	-0.7713	-0.214491	0.264923	-0.614014	-0.014893	-0.109863
549.0	7.683767	1.633829	6.270465	-0.683339	-0.190818	0.232699	-0.618652	-0.012695	-0.116455
550.0	7.765228	1.541116	6.31698	-0.562603	-0.188138	0.201711	-0.616211	-0.014893	-0.112061
551.0	7.61343	1.962146	6.224821	-0.410042	-0.149051	0.201216	-0.618652	-0.008545	-0.107666
552.0	7.632026	2.388112	6.469243	-0.414914	-0.13547	0.226964	-0.616455	-0.010742	-0.112061
553.0	7.360257	1.951389	6.848174	-0.509861	-0.161729	0.249745	-0.618896	-0.006348	-0.107666
554.0	7.180941	2.206419	6.572437	-0.29592	-0.250258	0.278677	-0.621094	-0.006348	-0.112061
555.0	7.100952	3.346016	8.763035	-0.304234	-0.354429	0.352284	-0.625488	0.0	-0.103516
556.0	6.786935	0.48639	6.844635	-0.821786	-0.758494	0.313724	-0.625732	0.002197	-0.103516
557.0	7.182559	0.721344	7.143944	0.173179	-0.928456	0.27665	-0.629883	0.001953	-0.096924
558.0	6.944895	1.72416	8.163575	0.137679	-1.214136	0.26395	-0.62793	0.003906	-0.086182
559.0	7.021774	0.610367	7.200329	-0.079384	-1.577828	0.25359	-0.627686	0.001709	-0.07959
560.0	7.478029	0.952936	7.081376	0.410725	-1.809081	0.228378	-0.634521	0.010254	-0.075195
561.0	7.123844	1.740611	7.665501	0.443511	-2.014481	0.246391	-0.636719	0.01001	-0.049316
562.0	6.404038	1.360941	7.285526	0.217239	-2.291353	0.295069	-0.634521	0.007568	-0.03833
563.0	6.290653	1.516121	7.198073	0.402616	-2.614875	0.352443	-0.643066	0.007324	-0.019043
564.0	6.338595	1.771871	7.563355	0.415656	-2.898173	0.45716	-0.649902	0.013428	0.000488
565.0	6.312519	1.774631	7.100192	0.384877	-3.178843	0.625501	-0.651855	0.013184	0.022217
566.0	6.570184	1.837434	6.924547	0.475964	-3.437901	0.79437	-0.654541	0.023682	0.039551
567.0	6.216908	1.818505	6.408674	0.454923	-3.6607	1.018989	-0.652832	0.036377	0.063232
568.0	5.619502	1.903412	6.745991	0.551387	-4.033489	1.228328	-0.65918	0.038086	0.095703
569.0	5.097984	1.945317	6.490677	0.565203	-4.378127	1.455534	-0.664063	0.050537	0.121582
570.0	3.557088	1.872442	6.370783	0.6776	-5.195659	1.567068	-0.659912	0.060791	0.160645
571.0	4.814245	2.740282	5.183682	0.77936	-6.247201	1.735867	-0.658447	0.077393	0.203857
572.0	6.842238	3.567435	1.792415	-0.029478	-6.980603	2.327964	-0.654541	0.093994	0.255859
573.0	8.748936	1.835465	1.903482	-1.383432	-8.248029	2.817635	-0.650635	0.110352	0.320801
574.0	14.145508	1.120639	4.186644	-1.250525	-9.047831	2.894767	-0.629395	0.122314	0.385742
575.0	22.876746	2.570231	9.110792	-1.071182	-9.432426	2.559404	-0.603516	0.136719	0.435547
576.0	26.610089	-1.271949	-0.200673	-1.952032	-8.969288	1.924492	-0.581787	0.138184	0.494141
577.0	26.330449	1.478697	0.768342	1.07321	-8.929507	2.043692	-0.554199	0.157227	0.533203
578.0	23.458778	6.298047	2.46696	0.762425	-8.598622	2.072305	-0.519287	0.156738	0.570068
579.0	30.619378	1.983298	0.686991	0.134432	-8.168588	1.66804	-0.495605	0.16748	0.591797
580.0	33.33843	2.110743	1.375774	3.624091	-6.217022	0.615106	-0.468018	0.184814	0.583008
581.0	36.525372	24.740106	17.619774	8.829985	-4.021857	-0.693154	-0.460693	0.219727	0.545898
582.0	32.340673	52.125022	44.407473	-0.970013	0.258608	-0.754612	-0.474121	0.166504	0.498535
583.0	24.498919	11.699137	20.107267	-8.998817	2.261165	-1.269575	-0.482666	0.10498	0.433838
584.0	2.918672	-1.652063	14.369196	-4.267718	4.12826	-1.552984	-0.470459	0.06543	0.345215
585.0	3.599012	-3.697248	13.873877	-1.006101	3.621502	-1.617177	-0.443848	0.049561	0.260742
586.0	7.195	-2.017393	14.15878	1.272966	4.342109	-1.764538	-0.4021	0.033691	0.169922
587.0	9.074093	0.510117	12.953794	2.507274	5.154721	-1.909073	-0.338867	0.028564	0.094238
588.0	9.181732	3.988994	11.414175	3.235016	6.112169	-1.95286	-0.247559	0.029785	0.022705
589.0	7.750128	8.093407	10.551633	2.904196	6.92681	-1.873528	-0.130615	0.037354	-0.020264
590.0	5.630076	9.076911	9.488932	1.120955	7.444946	-1.636682	-0.003418	0.072266	-0.013916
591.0	4.291732	5.526379	6.899783	-0.369147	7.583183	-1.29161	0.104004	0.114746	0.040283
592.0	2.86454	2.837138	5.149321	-0.725624	7.52015	-0.98708	0.169434	0.171875	0.131104
593.0	1.730004	1.476374	4.411453	-0.750199	7.287149	-0.778648	0.185303	0.219971	0.250244
594.0	2.75419	0.198804	4.794679	-0.684286	6.941915	-0.688321	0.146973	0.25708	0.347412
595.0	4.117924	-0.889524	4.646771	-0.206338	6.807583	-0.800581	0.067627	0.283691	0.429688
596.0	4.631148	-0.234349	4.602895	0.661548	6.677577	-1.09201	-0.028564	0.295654	0.464111
597.0	4.713836	1.818978	4.907682	1.208215	6.460382	-1.455575	-0.133057	0.297119	0.483398
598.0	5.081503	3.685409	5.022924	1.289636	6.094161	-1.783831	-0.219482	0.279785	0.474609
599.0	6.70788	5.459939	5.505086	1.273467	5.686495	-2.023142	-0.303711	0.262695	0.446289
600.0	8.288571	7.133339	6.330864	0.903237	5.354226	-2.170362	-0.377197	0.245605	0.409424
601.0	8.230835	6.427208	6.080417	0.247522	4.9937	-2.197244	-0.432861	0.222412	0.355225
602.0	10.251763	5.818667	6.227867	0.446563	4.551362	-2.239922	-0.477783	0.197266	0.303223
603.0	12.442961	7.031301	6.956061	0.614584	4.274209	-2.34135	-0.50293	0.169922	0.249268
604.0	12.476229	9.439704	6.637249	0.587709	4.014964	-2.25284	-0.521484	0.140381	0.195068
605.0	13.55853	11.226726	7.611789	-0.170503	3.523177	-1.840527	-0.531738	0.119629	0.145508
606.0	15.883009	9.678244	7.627917	-1.27423	3.092905	-1.297463	-0.532959	0.092041	0.106445
607.0	19.720727	7.428297	8.431612	-1.660016	2.706769	-0.873368	-0.536865	0.081787	0.072021
608.0	26.443372	4.254291	10.017509	-1.87532	2.652091	-0.85421	-0.536377	0.064941	0.039551
609.0	32.029578	0.161916	9.476505	-1.561398	3.185776	-1.428921	-0.533691	0.05249	0.009277
610.0	34.902209	-1.999238	7.827533	-0.380151	3.990084	-2.431338	-0.52832	0.022949	-0.027588
611.0	33.579708	-2.147107	3.997722	0.457057	4.83221	-3.511041	-0.518555	-0.006592	-0.070557
612.0	27.916853	-1.574587	-0.651915	0.823409	5.093463	-4.313156	-0.504395	-0.040283	-0.118164
613.0	24.47455	-2.089435	-3.681244	0.313002	4.668822	-4.692759	-0.488037	-0.072021	-0.152588
614.0	25.003966	-4.211884	-7.306209	-0.534062	3.866757	-4.715228	-0.473633	-0.105957	-0.180664
615.0	26.268342	-5.960772	-12.579859	-0.956522	3.255474	-4.288588	-0.450684	-0.135742	-0.202148
616.0	25.065864	-9.818378	-16.501513	-0.863878	2.711453	-3.20873	-0.435059	-0.150391	-0.217285
617.0	21.156379	-15.609237	-19.401056	-0.71277	2.017192	-1.956325	-0.426025	-0.158936	-0.22583
618.0	18.316945	-19.706678	-24.422094	0.891371	0.620232	-0.867907	-0.421143	-0.169678	-0.232178
619.0	21.288114	-12.029541	-20.839775	5.017546	-1.389404	0.14228	-0.424805	-0.189209	-0.208252
620.0	27.922005	-0.698913	-9.070587	4.200025	-1.638705	1.362337	-0.431396	-0.183105	-0.195313
621.0	25.51608	0.533707	-3.99742	-0.659045	-1.334168	2.504389	-0.443115	-0.165771	-0.19751
622.0	5.850272	-1.579589	8.537875	-0.223679	-0.572629	3.523966	-0.450195	-0.150879	-0.184814
623.0	-9.005685	12.457667	33.047037	6.051454	-1.170407	4.150877	-0.463379	-0.146729	-0.191162
624.0	-11.078934	37.852014	-2.256168	-5.82032	-0.916889	3.979793	-0.491211	-0.099609	-0.178467
625.0	24.914972	-12.871314	3.033236	-13.210108	-9.954513	3.428702	-0.507324	-0.074219	-0.150391
626.0	29.105558	-14.496724	-7.790812	4.008378	-1.625895	-0.902345	-0.510986	-0.095947	-0.143799
627.0	9.513516	16.844249	21.305622	4.582911	-3.663434	-1.272063	-0.519775	-0.093994	-0.120117
628.0	17.76347	-1.334849	17.462276	-7.742488	-3.65765	0.967075	-0.528809	-0.081299	-0.115723
629.0	10.848747	-24.112713	-2.945168	-4.284962	-2.521847	1.033277	-0.53125	-0.075195	-0.092041
630.0	12.389722	-4.110208	-0.726081	7.754833	-2.662531	0.356232	-0.533203	-0.07959	-0.074707
631.0	11.81691	27.667549	22.18926	4.187422	-1.801987	0.271889	-0.537598	-0.075684	-0.055176
632.0	11.956411	3.320389	8.85279	-6.856804	-2.412721	1.229796	-0.538086	-0.067139	-0.048828
633.0	10.459781	-11.655738	-2.154767	-1.079511	-1.451018	0.537237	-0.544678	-0.062988	-0.040039
634.0	11.707939	3.631904	7.204443	5.136116	-1.181436	-0.17079	-0.544434	-0.06958	-0.022705
635.0	12.885749	14.103233	16.23585	0.088356	-0.93409	0.337331	-0.544678	-0.063232	-0.022705
636.0	8.725817	0.682039	5.207277	-3.031742	-0.515672	0.44581	-0.544678	-0.061035	-0.018311
637.0	8.468677	-2.271415	3.43333	0.313595	-0.440801	0.161692	-0.549072	-0.056885	-0.020508
638.0	8.514844	5.657062	9.192904	1.452841	-0.100326	0.029995	-0.549316	-0.050537	-0.01416
639.0	6.985004	3.916921	8.299741	-1.078546	-0.242367	0.149296	-0.547119	-0.05249	-0.01416
640.0	6.910926	-0.26336	4.924945	-0.425866	-0.167878	0.069891	-0.544922	-0.056885	-0.011963
641.0	6.929166	2.280678	7.31908	0.595819	-0.191133	-0.041363	-0.549072	-0.059082	-0.01416
642.0	6.595824	2.686927	7.320129	-0.136971	-0.229016	-0.047582	-0.544678	-0.057129	-0.001221
643.0	6.492803	1.774325	6.03785	0.105158	-0.263944	-0.045514	-0.553467	-0.054932	-0.003418
644.0	6.443528	3.179543	6.783019	0.255321	-0.288511	-0.035315	-0.549072	-0.059326	-0.001221
645.0	6.249254	3.176641	6.222081	0.018045	-0.329012	0.024147	-0.546875	-0.061279	-0.000977
646.0	6.381607	3.641383	6.134496	0.109698	-0.356919	0.097813	-0.548828	-0.065918	0.011963
647.0	5.870078	4.124451	6.079675	-0.082545	-0.350629	0.222152	-0.544434	-0.061768	0.022705
648.0	5.996571	4.181409	5.814232	-0.2741	-0.362115	0.387126	-0.540039	-0.063721	0.009766
649.0	4.935107	4.631203	5.487824	-0.535019	-0.337461	0.629961	-0.5271	-0.061523	0.009766
650.0	5.972102	5.45389	6.18556	-0.979284	-0.394396	0.953605	-0.519287	-0.043945	-0.007568
651.0	7.96326	5.959526	7.277084	-1.661379	-0.283503	1.182933	-0.529785	0.001465	-0.025146
652.0	8.397122	4.511452	6.501248	-2.30416	-0.08682	1.246714	-0.556885	0.03125	-0.020996
653.0	7.787254	2.569613	5.315345	-1.882721	0.023693	1.175738	-0.576416	0.026611	0.00708
654.0	8.424332	0.196175	7.534755	-1.611933	-0.133918	0.992811	-0.571533	0.017822	0.024414
655.0	8.929246	-2.212723	5.740552	-1.365002	-0.105464	0.710444	-0.566895	0.009277	0.015869
656.0	7.841986	-1.951581	6.592158	-0.193115	-0.034989	0.410248	-0.564697	0.00708	0.020264
657.0	7.461356	0.351104	7.510862	0.062498	-0.089579	0.237306	-0.5625	0.00708	0.020264
658.0	7.2073	1.359395	7.432638	-0.084636	-0.168257	0.20424	-0.564697	0.009277	0.015869
659.0	7.187405	2.540913	7.454103	0.053231	-0.233517	0.279156	-0.560547	0.013672	0.022461
660.0	7.010498	2.267521	7.937701	-0.424612	-0.367688	0.380677	-0.562744	0.011475	0.020264
661.0	7.273447	1.555958	6.717839	-0.320249	-0.532959	0.446411	-0.55835	0.013428	0.026611
662.0	7.272889	2.175836	7.7712	-0.060991	-0.599244	0.488502	-0.558594	0.017822	0.026611
663.0	6.125889	-0.174999	9.503986	-0.635547	-1.001682	0.454281	-0.558594	0.019775	0.031006
664.0	6.701357	-1.374812	7.878356	-0.266168	-1.399319	0.343148	-0.562988	0.02417	0.039551
665.0	6.391491	-1.043296	8.772297	0.228587	-1.778284	0.202817	-0.558594	0.021729	0.050537
666.0	6.473225	-1.609559	9.019197	0.102954	-2.32399	0.035341	-0.558594	0.019531	0.063477
667.0	6.703353	-2.365939	8.687789	0.42971	-2.797343	-0.13925	-0.55835	0.01709	0.087402
668.0	5.7187	-1.294653	8.442529	1.09703	-3.233455	-0.225025	-0.55835	0.016602	0.109131
669.0	4.710204	0.507966	9.029903	1.511499	-3.858282	-0.205928	-0.556152	0.016357	0.137207
670.0	3.883692	0.955778	9.776274	1.113747	-4.59865	0.06022	-0.549561	0.018066	0.161133
671.0	3.369353	0.636506	8.416892	1.027098	-5.306944	0.244295	-0.547363	0.017822	0.193604
672.0	3.38007	1.285486	8.13772	1.680335	-5.843468	0.230057	-0.538574	0.021484	0.236816
673.0	1.968658	2.488332	9.51732	2.059177	-6.297495	0.135459	-0.527832	0.027344	0.278076
674.0	2.190166	5.202004	8.28574	1.985964	-7.300709	0.014077	-0.514648	0.024658	0.325928
675.0	3.680033	4.850887	10.106466	0.871531	-8.637864	0.470618	-0.488525	0.030518	0.369141
676.0	11.370168	0.896777	6.429877	-0.577826	-10.446926	0.747168	-0.455811	0.029785	0.434326
677.0	27.411396	0.931732	1.284399	1.326661	-11.323019	0.524995	-0.418945	0.039795	0.494873
678.0	42.074316	7.939313	1.344381	3.176744	-10.907117	0.569157	-0.367188	0.052246	0.544922
679.0	34.451386	8.413189	9.367586	2.452298	-9.331407	0.978863	-0.324219	0.071289	0.58374
680.0	31.154907	9.428567	6.76013	3.55636	-8.72418	1.203013	-0.283691	0.094727	0.612061
681.0	37.996761	18.881067	17.74406	5.803033	-6.367208	1.401585	-0.254639	0.12915	0.624756
682.0	23.530909	18.305723	42.317022	2.905636	-3.109862	1.195339	-0.237549	0.139893	0.620605
683.0	23.32978	11.948676	30.863212	0.907709	0.702756	1.414759	-0.250732	0.142334	0.607422
684.0	8.994469	13.956505	28.476811	1.92041	2.910551	1.611534	-0.259766	0.146729	0.587891
685.0	1.276299	8.151051	20.654463	0.728976	3.395666	2.411439	-0.275391	0.159912	0.566162
686.0	5.490806	5.573276	17.678866	2.160777	3.884385	2.547295	-0.286865	0.170898	0.548828
687.0	6.933201	7.140668	15.943389	2.893311	4.839647	2.209114	-0.29834	0.184326	0.516113
688.0	6.827644	8.121135	13.266093	3.119028	5.763814	1.684806	-0.312256	0.204102	0.477051
689.0	5.776229	9.149909	10.806334	3.014865	6.612737	1.184538	-0.323486	0.210938	0.444336
690.0	4.165088	9.585159	9.096144	2.558969	7.096068	0.832795	-0.334717	0.217773	0.407471
691.0	2.956719	8.60579	7.704766	1.750856	7.343716	0.586141	-0.348389	0.233398	0.370605
692.0	1.64658	6.287784	5.909105	1.254867	7.235736	0.284747	-0.348633	0.238037	0.340088
693.0	1.554472	4.436647	5.204027	1.315194	6.926331	-0.151538	-0.357666	0.24707	0.314209
694.0	1.46483	3.191394	5.412849	1.428236	6.627613	-0.760524	-0.368896	0.249512	0.279541
695.0	2.711498	1.834456	5.417714	1.675548	6.264067	-1.437803	-0.373291	0.25	0.246826
696.0	3.642417	1.498346	5.859404	2.225276	6.055995	-2.112731	-0.373047	0.241699	0.21875
697.0	4.841604	1.977683	6.867788	2.540562	5.807986	-2.678338	-0.383545	0.231445	0.181885
698.0	6.341727	2.169319	7.644309	2.644125	5.560594	-3.11698	-0.385498	0.223145	0.153809
699.0	8.405636	3.071074	8.107747	2.839827	5.398936	-3.473862	-0.387207	0.210938	0.106201
700.0	9.107417	3.863133	9.402526	2.513209	5.08371	-3.666682	-0.375244	0.179443	0.060791
701.0	9.364084	3.194302	8.93716	2.310724	4.697933	-3.904109	-0.325439	0.128418	0.024414
702.0	14.156283	5.072832	10.862606	2.73668	3.984196	-4.083679	-0.232178	0.081299	0.041992
703.0	20.697378	8.1103	13.933322	2.248416	3.974487	-4.391173	-0.152832	0.061035	0.135498
704.0	19.910143	7.970567	12.07893	1.064924	4.071589	-4.688573	-0.125	0.081055	0.248291
705.0	20.930741	7.641784	11.052086	0.499999	3.736793	-4.845202	-0.167236	0.107666	0.33252
706.0	24.765765	7.164489	10.347061	-0.390153	3.435495	-4.856235	-0.25	0.106689	0.373535
707.0	28.923441	6.454694	9.478713	-1.202636	3.375477	-4.728005	-0.313965	0.074219	0.367188
708.0	33.988752	5.681794	8.227588	-2.226751	3.417105	-4.553944	-0.354004	0.035889	0.339111
709.0	38.145461	3.580188	4.404063	-3.416912	3.780517	-4.277453	-0.378662	-0.004395	0.291504
710.0	36.761361	-0.018416	-1.642867	-4.208877	4.258425	-3.939515	-0.393066	-0.023438	0.250488
711.0	33.373121	-5.408807	-6.690605	-4.66215	4.294352	-3.675506	-0.409912	-0.044189	0.200684
712.0	30.704128	-14.446049	-13.082931	-4.629177	4.220004	-3.574506	-0.415771	-0.060791	0.155273
713.0	26.611931	-22.171249	-22.128552	-1.367369	3.876277	-3.715505	-0.420166	-0.064697	0.12915
714.0	25.063646	-18.259659	-24.144663	3.822338	2.411189	-3.948423	-0.419678	-0.075195	0.107666
715.0	25.124417	-10.047827	-21.646801	5.20916	1.429308	-3.67665	-0.419434	-0.081787	0.105469
716.0	24.125371	-3.097893	-20.615385	3.647345	0.549443	-2.576115	-0.421631	-0.08374	0.094727
717.0	24.462273	0.543145	-17.089247	0.959068	-0.805655	-0.902027	-0.430664	-0.077393	0.098877
718.0	25.178988	-2.26909	-13.962689	-2.251026	-1.424118	0.698628	-0.433105	-0.071045	0.103271
719.0	25.128581	-6.578726	-12.208486	-2.792778	-1.910648	1.64299	-0.436035	-0.047607	0.120361
720.0	8.771794	-10.194183	9.697884	-0.885419	0.012493	2.566833	-0.447754	-0.02417	0.137695
721.0	-8.731016	1.693308	42.073639	7.703787	-2.131752	2.719474	-0.45752	0.003906	0.124512
722.0	-19.258583	48.162361	-4.732048	-2.737347	1.988119	3.0916	-0.47583	0.025391	0.128662
723.0	4.39344	-12.900569	-3.743334	-16.347337	-12.864764	3.137648	-0.482422	0.026611	0.189209
724.0	53.994642	-22.958823	-11.669939	5.670167	-3.055235	-1.760357	-0.487305	0.043457	0.210938
725.0	4.445142	17.747203	31.553908	6.64202	-3.563424	-0.333239	-0.479248	0.060547	0.234619
726.0	21.588856	-4.998055	15.180731	-9.804776	-4.256877	1.924716	-0.485352	0.049316	0.25415
727.0	8.154537	-21.130263	-14.343889	0.271764	-2.984825	0.912306	-0.481689	0.070557	0.280029
728.0	17.177608	17.850421	10.019804	11.461393	-3.153671	-0.288937	-0.480469	0.096191	0.297363
729.0	11.68198	24.658008	25.044875	-3.760784	-2.74243	1.341207	-0.482178	0.087158	0.319092
730.0	13.804472	-8.871365	-2.783304	-6.429753	-2.274225	1.324972	-0.486572	0.086914	0.34082
731.0	13.463706	-4.753716	0.530366	4.572853	-2.297338	0.607106	-0.474609	0.11499	0.344971
732.0	17.193937	18.279523	18.353461	3.925659	-0.637849	0.525933	-0.477051	0.123291	0.355713
733.0	8.771026	5.889505	11.232993	-4.986881	-0.847794	1.15719	-0.480957	0.114746	0.351318
734.0	7.203162	-5.605635	-0.74898	-2.456922	-0.253795	0.813421	-0.481201	0.118896	0.366699
735.0	8.370428	0.846781	5.492055	2.732745	-0.444394	0.386432	-0.479492	0.131836	0.37085
736.0	8.000688	7.682644	12.190552	0.269202	-0.086687	0.372044	-0.481689	0.131836	0.368652
737.0	7.371453	1.199358	5.760382	-2.005778	-0.158716	0.427997	-0.479492	0.129639	0.373047
738.0	6.684263	0.180324	4.64329	0.233761	-0.063778	0.328272	-0.479736	0.135986	0.375244
739.0	6.729024	4.55039	8.360607	0.420564	-0.030778	0.306919	-0.481934	0.138184	0.373047
740.0	6.422552	2.709448	6.905571	-1.020208	-0.109084	0.36161	-0.479492	0.135986	0.377441
741.0	6.366552	0.845607	5.408177	-0.486235	-0.128265	0.353664	-0.479736	0.140137	0.383789
742.0	5.994458	2.507324	6.541532	-0.041513	-0.199225	0.391842	-0.479736	0.142334	0.388184
743.0	5.805511	3.104697	6.770417	-0.630885	-0.28589	0.548912	-0.479736	0.139893	0.394775
744.0	6.376335	2.931508	5.939633	-0.958712	-0.325941	0.778442	-0.473389	0.146484	0.390381
745.0	7.112177	3.626783	6.467056	-0.889151	-0.32876	0.846128	-0.471191	0.14209	0.394775
746.0	8.044327	3.134145	7.178137	-1.315353	-0.362504	0.850587	-0.462402	0.144287	0.394775
747.0	7.392702	2.780774	5.831792	-1.045415	-0.19482	0.797217	-0.452393	0.166016	0.379395
748.0	8.244707	3.185766	7.050814	-0.756748	-0.173092	0.747984	-0.469238	0.204834	0.374756
749.0	8.217101	1.248023	6.360472	-1.190634	-0.102344	0.666566	-0.491211	0.210938	0.39209
750.0	8.66664	0.144077	5.688968	-0.599742	0.046341	0.567906	-0.497314	0.199951	0.409424
751.0	7.317009	0.2598	7.283507	-0.326347	0.034596	0.400624	-0.499023	0.187012	0.413818
752.0	7.468957	0.030054	7.213712	-0.455244	-0.051831	0.299919	-0.48999	0.182617	0.416016
753.0	7.314274	1.657671	6.974186	0.014917	-0.056095	0.317528	-0.492188	0.182617	0.418213
754.0	7.084198	2.83748	7.900346	-0.335362	-0.155778	0.398224	-0.48584	0.187012	0.42041
755.0	7.169806	1.727661	7.310959	-0.750007	-0.295057	0.490409	-0.48999	0.180664	0.416016
756.0	7.042715	0.187019	6.954443	-0.693223	-0.392621	0.502891	-0.490234	0.188965	0.422607
757.0	7.234247	0.24455	6.98682	-0.331482	-0.504235	0.48762	-0.488037	0.184814	0.422607
758.0	6.754235	0.55359	8.486469	-0.317379	-0.60897	0.450118	-0.483643	0.188965	0.427002
759.0	6.197353	-1.830836	8.127031	-0.595253	-1.084942	0.294055	-0.479736	0.195313	0.43335
760.0	6.686779	-0.482029	8.456257	0.368597	-1.320883	0.194281	-0.481689	0.193359	0.43335
761.0	6.321146	0.420191	9.424015	0.150659	-1.764532	0.138368	-0.470947	0.19751	0.439941
762.0	6.618192	-1.320472	8.323248	-0.070176	-2.237444	0.030781	-0.466553	0.19751	0.435547
763.0	6.576052	-1.18706	8.610963	0.611621	-2.578161	-0.084128	-0.460205	0.199707	0.444336
764.0	5.930068	-0.263734	8.965625	0.781373	-3.088765	-0.195115	-0.455811	0.20166	0.455078
765.0	5.330429	0.167856	9.138123	0.799768	-3.731067	-0.192269	-0.44043	0.199463	0.470215
766.0	4.30988	0.518973	9.259689	0.940727	-4.324071	-0.008668	-0.432129	0.207764	0.483154
767.0	3.059326	0.938432	9.374422	1.079078	-4.993236	0.319645	-0.415039	0.216309	0.487549
768.0	2.623578	1.40246	9.278039	0.891603	-5.929074	0.832594	-0.4021	0.222656	0.511475
769.0	1.743987	1.748392	10.04771	1.146634	-6.512649	1.099886	-0.382813	0.229004	0.522217
770.0	0.203854	4.200454	7.538103	1.818781	-7.206883	1.534534	-0.364014	0.252441	0.539551
771.0	-0.110135	4.859798	7.991484	1.767545	-8.975136	1.588408	-0.338623	0.271729	0.559082
772.0	12.944148	2.863591	5.521596	-0.278564	-11.440449	1.788958	-0.303955	0.277832	0.591553
773.0	33.954264	5.508366	6.397975	1.276173	-11.262751	2.239168	-0.272461	0.305908	0.600098
774.0	36.966415	8.808073	3.282849	0.913825	-10.784996	2.747276	-0.237793	0.310303	0.602295
775.0	37.378658	8.274137	4.866402	-0.109579	-9.82773	3.326669	-0.196289	0.30835	0.589355
776.0	36.781022	13.672639	9.904041	2.495454	-8.905027	3.932631	-0.152832	0.309082	0.54834
777.0	34.885243	17.574705	20.609818	1.597092	-6.481415	3.84046	-0.120117	0.303467	0.504883
778.0	32.375912	13.663603	42.294212	1.44326	-3.431298	2.038879	-0.08252	0.282715	0.450928
779.0	23.05182	17.737181	32.357985	1.258114	0.810006	0.821368	-0.048584	0.251221	0.39917
780.0	10.302853	20.790567	29.144641	0.478596	2.817835	0.369832	0.010986	0.226074	0.366943
781.0	-0.983621	11.806453	20.47475	-1.227617	3.126282	0.923534	0.074951	0.208984	0.382324
782.0	2.166955	6.119882	17.761062	-0.208664	3.257314	0.994107	0.151123	0.20874	0.416992
783.0	4.24899	4.437225	16.337506	0.801932	3.949077	0.697701	0.187744	0.223145	0.488525
784.0	5.75972	3.561192	14.226494	1.581243	4.667695	0.228169	0.181885	0.264893	0.577148
785.0	6.5006	3.978726	12.162555	2.398319	5.473527	-0.295177	0.121338	0.317383	0.650635
786.0	6.166948	5.616398	10.903745	2.661305	6.190253	-0.728409	0.019775	0.359375	0.704346
787.0	5.41764	5.001864	9.345876	2.18508	6.739582	-1.073285	-0.10791	0.395264	0.719238
788.0	4.053155	4.036131	7.547167	2.043467	7.010701	-1.412037	-0.230469	0.409912	0.701416
789.0	3.296418	3.462049	6.293459	1.956017	6.961372	-1.770934	-0.352783	0.418701	0.660156
790.0	3.24921	3.58913	5.597882	1.878206	6.745994	-2.08702	-0.456787	0.404053	0.594971
791.0	4.664155	3.90467	6.053667	1.654606	6.495074	-2.389854	-0.543213	0.383301	0.516846
792.0	6.483406	3.89549	6.478379	1.313046	6.344456	-2.65732	-0.613525	0.338623	0.454102
793.0	7.30852	3.457493	6.841826	1.007222	6.3328	-2.920258	-0.664307	0.296631	0.378418
794.0	8.274423	2.615166	6.929119	0.890883	6.206013	-3.168548	-0.708252	0.243652	0.304932
795.0	8.719529	2.906015	7.401428	1.038021	6.066652	-3.401855	-0.732422	0.190918	0.222656
796.0	9.997586	2.457114	7.990824	1.170788	5.559913	-3.477162	-0.735352	0.148926	0.14502
797.0	11.466676	4.119515	8.256782	1.768495	5.149734	-3.596834	-0.715576	0.083252	0.075928
798.0	16.811956	7.5099	9.532832	2.076392	4.526678	-3.713565	-0.668701	0.049561	0.026367
799.0	23.673322	11.421339	10.725211	1.540989	4.505873	-3.902727	-0.617188	0.015869	-0.001709
800.0	24.345841	12.409677	9.361475	0.070532	4.547644	-3.993163	-0.582275	0.007568	-0.023193
801.0	26.324234	10.252383	7.74432	-1.024393	4.316879	-4.037839	-0.549072	-0.004883	-0.040283
802.0	29.927425	7.393674	7.265519	-1.775614	4.032565	-4.197998	-0.526611	-0.021973	-0.051025
803.0	36.512853	3.82041	6.534111	-2.212954	4.085043	-4.685226	-0.51123	-0.028076	-0.066162
804.0	38.784515	-0.225228	3.26201	-2.242643	4.583339	-5.326021	-0.493164	-0.047119	-0.083496
805.0	36.109973	-1.939465	-2.588111	-1.554255	4.877139	-5.780439	-0.481445	-0.066162	-0.107178
806.0	32.049249	-1.804222	-5.624501	-1.37235	4.706035	-5.949081	-0.469727	-0.091553	-0.133057
807.0	29.426033	-6.112669	-9.284135	-2.700462	4.208871	-5.733645	-0.456055	-0.110596	-0.154541
808.0	28.388258	-14.407019	-17.17706	-2.652187	3.508165	-5.36829	-0.442383	-0.127441	-0.178223
809.0	28.958085	-17.855833	-22.565765	0.298081	2.446514	-4.546929	-0.432861	-0.146484	-0.188965
810.0	27.616753	-15.407458	-22.368449	2.210218	1.733545	-3.071097	-0.436523	-0.163818	-0.186768
811.0	25.452925	-13.531602	-22.364158	1.553696	0.78046	-1.152768	-0.434326	-0.166016	-0.182373
812.0	26.532217	-10.427183	-19.628157	1.5554	-0.43298	0.644806	-0.436768	-0.155273	-0.18042
813.0	29.055696	-6.149645	-12.075	0.690282	-0.717513	1.885379	-0.446045	-0.140381	-0.16748
814.0	29.561453	-5.440827	-7.900817	-0.793179	-0.576716	2.408962	-0.453369	-0.121094	-0.171875
815.0	13.819751	-7.782008	6.557588	-0.374781	0.952069	3.263956	-0.454346	-0.097656	-0.156738
816.0	-25.707004	4.470415	16.489864	4.727164	-0.630697	4.374405	-0.459229	-0.084473	-0.169922
817.0	-17.825687	47.557536	-6.083716	2.021255	-2.790568	4.29449	-0.486572	-0.046387	-0.126709
818.0	39.577376	-2.377958	13.939352	-14.128618	-11.210338	3.010818	-0.509521	-0.019043	-0.087891
819.0	18.291031	-13.467467	-11.613221	1.649833	-2.472375	-0.76191	-0.511719	-0.017334	-0.066162
820.0	16.200758	12.379846	17.039838	4.872582	-5.699721	-1.116232	-0.515625	-0.024414	-0.027344
821.0	17.615778	-1.988014	16.566504	-6.590301	-4.443344	1.74395	-0.522705	-0.007568	-0.001221
822.0	17.240102	-21.753447	-5.439319	-2.836253	-4.002906	1.237098	-0.522949	-0.001221	0.018066
823.0	15.554356	6.499211	1.80139	9.503477	-3.227939	0.279336	-0.523438	0.01123	0.04834
824.0	16.311199	28.642954	25.322773	0.688373	-2.916859	1.044216	-0.521484	0.019531	0.067871
825.0	23.980053	1.663825	6.552743	-6.130183	-2.733169	1.95838	-0.521729	0.028076	0.078613
826.0	12.364306	-3.083248	1.400192	0.139462	-0.417244	1.438546	-0.52002	0.038818	0.080811
827.0	7.757496	3.858886	10.873564	0.873664	-0.61931	0.971847	-0.524658	0.047119	0.091553
828.0	9.684497	3.201518	7.536726	-1.77773	-0.257201	0.878744	-0.526855	0.049316	0.09375
829.0	7.887625	0.190956	5.48614	-0.925577	-0.190548	0.702003	-0.525146	0.057861	0.09375
830.0	8.229363	0.932001	7.493204	-0.243449	-0.146884	0.505275	-0.5271	0.055664	0.091553
831.0	7.498584	1.021337	7.001185	-0.450637	-0.105003	0.345392	-0.523193	0.064209	0.0979
832.0	7.579254	0.802535	6.900881	-0.194266	-0.155897	0.222365	-0.523193	0.064209	0.0979
833.0	7.17244	1.164743	7.035339	-0.082719	-0.150892	0.14192	-0.520996	0.064209	0.100098
834.0	7.242696	1.301979	6.993742	-0.107803	-0.163058	0.080104	-0.520996	0.064209	0.102295
835.0	7.172506	0.745053	6.839931	-0.192317	-0.16257	-0.004286	-0.525391	0.064209	0.111084
836.0	7.019346	0.532771	6.674531	-0.042332	-0.175339	-0.110787	-0.520752	0.059814	0.111084
837.0	6.934319	1.160883	6.754416	0.08676	-0.177539	-0.197356	-0.518555	0.061768	0.119629
838.0	6.561397	1.794021	6.685717	0.025956	-0.22174	-0.226342	-0.518311	0.053223	0.117676
839.0	6.576111	2.26459	6.529868	-0.006079	-0.293503	-0.200347	-0.511719	0.053223	0.119873
840.0	6.585573	2.605164	6.627517	-0.076582	-0.350359	-0.124305	-0.504883	0.04248	0.117676
841.0	6.855669	3.003499	6.588593	-0.152523	-0.368413	-0.016897	-0.489746	0.044922	0.104736
842.0	7.05573	3.843145	5.967033	-0.181152	-0.368068	0.113677	-0.491211	0.07959	0.089355
843.0	6.861641	4.835586	5.794147	-0.222962	-0.335616	0.318093	-0.51416	0.111816	0.086914
844.0	7.15078	4.995222	6.121991	-0.498601	-0.287254	0.520262	-0.540283	0.111328	0.11084
845.0	7.577601	3.999923	6.187284	-0.791324	-0.261531	0.672842	-0.535156	0.098145	0.134766
846.0	8.203165	2.477179	5.842549	-0.953207	-0.207767	0.711899	-0.537109	0.087402	0.13916
847.0	7.986819	0.173145	6.894665	-0.970544	-0.193066	0.56642	-0.534668	0.085205	0.134766
848.0	8.164346	-0.71818	5.918341	-0.567822	-0.179477	0.372679	-0.530273	0.083008	0.136963
849.0	7.607503	1.432466	6.962067	0.152435	-0.096126	0.303631	-0.52832	0.087402	0.13916
850.0	7.281286	2.670542	7.806862	-0.288879	-0.186434	0.336879	-0.519775	0.091797	0.13916
851.0	7.304723	1.256559	7.30937	-0.678981	-0.304587	0.384306	-0.526367	0.09375	0.136963
852.0	7.243934	0.151765	6.694362	-0.381426	-0.411771	0.34499	-0.521729	0.087402	0.143311
853.0	6.996524	0.82078	8.260819	-0.012091	-0.549869	0.282141	-0.526123	0.089355	0.143311
854.0	6.513786	0.412216	8.368749	-0.246511	-0.969512	0.202654	-0.521729	0.089355	0.1521
855.0	6.929673	0.807351	8.188597	0.118324	-1.316187	0.190241	-0.521729	0.089355	0.156494
856.0	6.665682	0.988496	8.603882	0.12508	-1.722359	0.222072	-0.522217	0.0979	0.162842
857.0	7.237902	-0.193486	8.407805	-0.004664	-2.169328	0.219651	-0.513184	0.095459	0.180176
858.0	6.627995	-0.836569	8.356124	0.373928	-2.477103	0.183566	-0.517822	0.099609	0.19751
859.0	5.189539	-0.187997	8.671649	0.85713	-3.063437	0.087954	-0.509033	0.097168	0.210693
860.0	4.887907	0.451753	9.428885	0.996916	-3.770835	0.048887	-0.502686	0.103271	0.243164
861.0	4.167913	0.609975	9.403262	0.987444	-4.405559	0.263469	-0.502686	0.105225	0.264648
862.0	3.224972	0.811214	9.271218	1.13453	-5.194122	0.649765	-0.487549	0.109131	0.290771
863.0	2.623728	1.354213	8.906365	1.459605	-5.930466	0.817799	-0.468506	0.125732	0.331787
864.0	1.383379	2.349298	9.149245	1.837601	-6.540827	0.817274	-0.446777	0.134033	0.37085
865.0	0.68525	3.961342	9.215939	1.868692	-7.628381	0.704745	-0.421143	0.146484	0.409912
866.0	3.029523	3.274479	7.904145	0.912318	-9.072444	0.806054	-0.388428	0.145996	0.459717
867.0	11.479586	-0.334487	3.075429	-0.070664	-11.123309	1.202562	-0.34082	0.158447	0.509766
868.0	30.07207	4.838615	3.344229	3.419473	-11.378414	1.371595	-0.289795	0.190186	0.552979
869.0	37.202195	10.984526	4.163801	1.898326	-10.968475	1.981476	-0.231201	0.198486	0.594238
870.0	36.349493	5.379898	5.287342	-0.212958	-10.119132	2.386957	-0.17749	0.215576	0.622314
871.0	34.022871	7.189067	4.555518	3.618054	-9.07491	2.401444	-0.139404	0.245605	0.641846
872.0	41.45825	16.257295	18.805103	4.956716	-6.56224	2.506368	-0.108154	0.286621	0.641602
873.0	30.412413	13.457519	43.206429	2.911926	-3.068573	1.369072	-0.097656	0.295166	0.645996
874.0	24.305021	14.278305	32.31671	2.205356	1.24679	1.28931	-0.114014	0.325195	0.641357
875.0	11.695362	19.21349	30.301387	1.602941	3.418692	1.333268	-0.137939	0.324951	0.645752
876.0	-1.029238	9.416167	18.66698	-0.502639	3.92928	1.986747	-0.156006	0.338135	0.630371
877.0	1.97062	5.447051	14.965996	1.222962	3.747527	2.111666	-0.178467	0.357422	0.625977
878.0	5.20712	7.049089	15.015518	1.947942	4.439564	1.754418	-0.203613	0.385498	0.606201
879.0	5.707142	6.302174	12.538615	1.974531	5.095462	1.277138	-0.230469	0.402832	0.58667
880.0	6.089058	7.490802	11.055975	2.392928	5.795047	0.769146	-0.266357	0.431152	0.566895
881.0	5.998354	7.818975	10.049495	1.962896	6.426697	0.390054	-0.304199	0.448486	0.53418
882.0	4.757457	6.054371	8.113684	1.529796	6.866649	0.04856	-0.344238	0.470215	0.503662
883.0	3.163677	4.656511	6.542955	1.522345	6.990421	-0.311825	-0.386475	0.48999	0.471191
884.0	2.890954	4.144179	5.709005	1.579983	6.810811	-0.75561	-0.439209	0.503174	0.42749
885.0	3.939181	3.964592	5.729385	1.540164	6.682301	-1.251273	-0.485596	0.516602	0.375488
886.0	5.425536	3.315156	6.083948	1.502995	6.495431	-1.789046	-0.524658	0.510986	0.310303
887.0	7.67982	2.878832	6.550414	1.619753	6.45679	-2.35372	-0.567871	0.494385	0.249756
888.0	8.081019	2.885638	6.927422	1.645782	6.556698	-2.884232	-0.601807	0.469238	0.191162
889.0	7.887778	2.37878	6.695461	1.588728	6.49203	-3.32511	-0.631836	0.452881	0.132813
890.0	7.747976	2.047336	6.425284	1.595274	6.223601	-3.728461	-0.661133	0.421143	0.078613
891.0	7.946848	1.499998	6.688836	1.791931	5.616307	-3.844691	-0.68457	0.404541	0.022217
892.0	9.737739	2.318377	7.440595	2.260067	4.979583	-3.958686	-0.700684	0.368652	-0.033936
893.0	13.160015	5.099669	8.872635	2.569907	4.221547	-3.959709	-0.712402	0.330566	-0.085693
894.0	22.394708	8.561827	12.669999	2.332775	3.890292	-4.040714	-0.724121	0.294678	-0.124512
895.0	22.992827	8.857397	11.80299	0.849552	4.269659	-4.18589	-0.722168	0.243652	-0.171875
896.0	22.383814	6.642031	9.59837	0.322856	4.049494	-4.314314	-0.711914	0.203125	-0.199951
897.0	24.624612	5.860913	9.164163	-0.080365	3.663813	-4.434441	-0.712646	0.162598	-0.221436
898.0	28.883331	4.979401	7.581429	-0.623045	3.451298	-4.548763	-0.711426	0.126465	-0.247314
899.0	33.647496	4.620141	6.763876	-1.079242	3.503659	-4.646801	-0.699219	0.092285	-0.275146
900.0	37.444008	3.086634	4.094561	-2.121657	3.847057	-4.720552	-0.68042	0.05835	-0.30542
901.0	35.51905	0.322852	-1.670483	-2.938037	4.317211	-4.729183	-0.666504	0.035156	-0.333496
902.0	32.881729	-2.805818	-7.291861	-3.371893	4.403129	-4.583533	-0.641602	0.007813	-0.370117
903.0	29.428112	-7.575293	-13.159517	-3.409557	4.394568	-4.462859	-0.625488	-0.017578	-0.393799
904.0	26.235014	-13.024285	-17.726186	-2.2749	3.767741	-4.235245	-0.609619	-0.036377	-0.424072
905.0	24.943868	-19.037044	-22.051471	-0.750155	2.720086	-4.058145	-0.595215	-0.072754	-0.436768
906.0	23.011102	-17.733956	-25.54108	2.734623	1.65625	-3.869581	-0.580322	-0.11792	-0.440918
907.0	22.516387	-7.468628	-21.717447	4.953612	0.19778	-3.049089	-0.578857	-0.158936	-0.425537
908.0	23.654974	1.710812	-15.766951	2.78343	-0.842562	-1.239768	-0.580322	-0.174072	-0.416748
909.0	25.186385	2.031252	-10.615606	-1.309884	-1.579007	0.766536	-0.594238	-0.152588	-0.414795
910.0	18.917025	-8.205933	0.782322	-3.59387	-2.185422	3.214779	-0.619629	-0.116455	-0.399658
911.0	-15.378673	-7.262043	-7.474905	-0.945907	-0.694714	3.821034	-0.628662	-0.103516	-0.399902
912.0	-7.240077	14.079472	7.325799	6.172255	-6.476678	3.89957	-0.674561	-0.093994	-0.332764
913.0	50.382238	13.397596	20.144097	-5.728048	-6.356289	2.879962	-0.694092	-0.044678	-0.320068
914.0	5.749878	-8.80274	1.849557	-4.53938	-3.688846	1.334856	-0.720459	-0.032471	-0.28125
915.0	26.788458	-6.697552	6.681226	1.874305	-4.959659	0.594619	-0.73584	-0.026367	-0.246582
916.0	15.884002	-1.768634	14.135051	-0.072902	-3.550466	1.382952	-0.742676	-0.020508	-0.218262
917.0	13.136924	-1.204431	2.169177	0.754711	-3.42661	0.887763	-0.755859	-0.014404	-0.186035
918.0	14.351174	10.242773	8.836316	3.123251	-3.18227	0.516841	-0.764404	-0.014893	-0.162109
919.0	13.074985	10.856094	11.187972	-0.716155	-2.877851	1.038128	-0.775879	-0.002441	-0.134033
920.0	22.122328	3.192262	8.845894	-0.915358	-2.838116	1.444538	-0.776123	0.005859	-0.110107
921.0	15.422857	4.049659	9.469296	-0.346074	-0.743361	1.182593	-0.776611	0.018799	-0.105957
922.0	6.932048	1.596632	6.314252	-1.359691	-0.436521	0.902695	-0.776855	0.029297	-0.097412
923.0	8.444242	2.357651	5.648893	-0.230242	-0.362388	0.715716	-0.779297	0.033691	-0.095215
924.0	8.535551	3.573648	8.283714	-0.634861	-0.166265	0.605404	-0.777344	0.042236	-0.095215
925.0	8.075624	0.755398	6.398926	-1.050581	-0.095926	0.477007	-0.775146	0.042236	-0.097412
926.0	7.185121	1.674137	5.911072	-0.018929	-0.051237	0.332386	-0.781982	0.048584	-0.088867
927.0	7.199279	3.278983	7.513431	-0.202614	-0.054504	0.292983	-0.777588	0.048584	-0.09082
928.0	7.275931	1.981961	6.414672	-0.548276	-0.052134	0.298757	-0.778076	0.059326	-0.088867
929.0	6.750773	2.395628	6.394617	-0.127572	-0.014392	0.306976	-0.775635	0.055176	-0.09082
930.0	7.093183	2.754511	7.212296	-0.424283	-0.023187	0.335366	-0.780518	0.068115	-0.091064
931.0	6.832225	1.36891	6.2717	-0.677999	-0.046237	0.362972	-0.784668	0.063721	-0.084473
932.0	6.98507	1.369318	6.43914	-0.388488	-0.011247	0.417046	-0.782715	0.070068	-0.088867
933.0	6.692865	2.318872	6.657285	-0.515304	-0.035645	0.497405	-0.771973	0.070068	-0.084473
934.0	6.854187	2.57844	6.443725	-0.679062	-0.087169	0.501485	-0.776367	0.074219	-0.078125
935.0	6.794328	2.609534	6.367232	-0.62227	-0.12569	0.482484	-0.77417	0.070068	-0.075928
936.0	7.177645	3.011669	6.83209	-0.531888	-0.145131	0.500181	-0.77002	0.078613	-0.084473
937.0	7.499148	2.465024	6.852585	-0.72711	-0.121322	0.495064	-0.753174	0.093994	-0.093262
938.0	7.390883	2.05923	6.383507	-0.573954	-0.037242	0.506455	-0.754395	0.12207	-0.108643
939.0	7.413121	1.976819	6.55732	-0.537422	-0.028483	0.501078	-0.772461	0.141357	-0.102295
940.0	8.006424	1.555501	6.050388	-0.571942	-0.005425	0.47758	-0.790283	0.151855	-0.089355
941.0	7.598323	0.340886	7.123899	-0.569999	0.004417	0.367025	-0.794189	0.136475	-0.071777
942.0	7.163703	0.260605	6.755326	-0.248625	0.001627	0.301731	-0.787354	0.132324	-0.06958
943.0	7.372891	2.239318	7.311714	-0.025805	-0.019945	0.310517	-0.7854	0.134521	-0.071777
944.0	6.94696	2.366642	7.630729	-0.478305	-0.113868	0.384618	-0.781006	0.134521	-0.06958
945.0	7.088409	1.71261	7.190967	-0.587014	-0.224773	0.435715	-0.781006	0.134277	-0.063232
946.0	7.029292	1.185631	7.464268	-0.592358	-0.329866	0.460235	-0.78125	0.140869	-0.067627
947.0	7.224542	0.651096	6.986	-0.606477	-0.452473	0.472509	-0.78125	0.142822	-0.058838
948.0	6.999963	0.605889	7.134237	-0.387838	-0.534621	0.48755	-0.776855	0.142822	-0.054443
949.0	6.458161	-0.229763	9.052254	-0.546054	-0.741149	0.429974	-0.779297	0.14917	-0.05249
950.0	6.634228	-1.367238	7.498663	-0.268571	-1.114836	0.329743	-0.790039	0.148926	-0.039307
951.0	6.440921	-0.217246	8.892084	0.263003	-1.39976	0.231364	-0.783936	0.155273	-0.026367
952.0	6.365109	-0.651675	9.124692	-0.049279	-1.837974	0.127363	-0.785889	0.155029	-0.009033
953.0	6.51576	-1.920077	8.339926	0.156676	-2.271538	-0.02372	-0.788086	0.154785	0.010498
954.0	6.424641	-1.106691	8.686112	0.7344	-2.668533	-0.15162	-0.794189	0.147949	0.031982
955.0	5.871828	0.007018	9.080545	0.838837	-3.201267	-0.232015	-0.7854	0.143311	0.060303
956.0	5.030468	0.458916	9.029136	0.795146	-3.823109	-0.161348	-0.787354	0.140625	0.099365
957.0	3.906053	1.037918	8.882717	1.011016	-4.430242	0.046254	-0.787598	0.148926	0.131836
958.0	3.13697	1.647548	9.108256	1.048645	-5.213333	0.51469	-0.787842	0.156738	0.183838
959.0	3.704383	2.605525	9.037111	0.943148	-5.916112	1.001415	-0.774902	0.162598	0.23584
960.0	1.89796	2.30974	10.138104	0.833142	-6.296063	1.447328	-0.755859	0.179199	0.290039
961.0	0.017219	3.90128	6.664151	1.348728	-7.11291	1.900663	-0.741211	0.197754	0.352783
962.0	0.801759	4.30872	7.647733	1.62671	-8.857374	1.870866	-0.706787	0.218262	0.432861
963.0	14.562667	4.074216	6.773404	0.323467	-10.964482	2.066425	-0.661621	0.232178	0.519531
964.0	30.855028	6.290523	4.104085	1.028618	-10.497099	2.714298	-0.612305	0.259521	0.58667
965.0	36.321452	7.638331	3.804408	0.311729	-10.598353	3.321324	-0.543213	0.278076	0.656006
966.0	38.170393	7.442754	4.17866	0.139187	-9.196537	3.778619	-0.481201	0.309814	0.710205
967.0	35.503582	13.251053	8.971445	2.60763	-8.136517	4.32167	-0.41748	0.350586	0.742676
968.0	39.585808	16.955649	20.582138	1.66569	-6.072499	3.964045	-0.375	0.378418	0.757813
969.0	28.152628	16.194433	40.129446	1.760307	-2.269255	2.220857	-0.35791	0.387207	0.76416
970.0	22.345626	19.378221	29.982157	0.604773	0.883352	0.95171	-0.360107	0.38501	0.762207
971.0	6.243551	19.364238	23.986999	0.093771	2.467031	0.522673	-0.381348	0.376221	0.762207
972.0	-1.418949	12.868458	18.295391	-1.239965	2.480814	1.008018	-0.394043	0.363525	0.749023
973.0	2.700401	6.937715	15.762481	-0.665645	2.614376	0.995031	-0.406738	0.357178	0.744873
974.0	4.150859	5.097309	14.717394	0.517092	3.241239	0.67421	-0.439697	0.359375	0.71875
975.0	5.866702	4.420046	13.833995	1.259395	3.974963	0.215969	-0.461426	0.359619	0.697021
976.0	6.366708	4.720096	12.186731	1.979461	4.802272	-0.22338	-0.498779	0.364258	0.668701
977.0	6.126625	5.755223	11.167462	2.189979	5.560475	-0.497376	-0.540039	0.362305	0.634033
978.0	6.074646	4.628367	9.715154	1.874562	6.146827	-0.734117	-0.579102	0.356689	0.571045
979.0	4.656015	3.048448	7.82078	1.867178	6.602246	-0.998671	-0.624756	0.350586	0.523438
980.0	3.622285	2.342223	6.512485	2.111999	6.701746	-1.329302	-0.659424	0.342773	0.467041
981.0	2.947669	2.170727	5.605171	2.219622	6.632481	-1.638902	-0.691406	0.323975	0.40625
982.0	3.476756	2.079031	5.623778	2.239541	6.38545	-1.94486	-0.714844	0.303223	0.343506
983.0	5.232745	1.956951	5.949417	2.215593	6.213042	-2.250589	-0.735596	0.276123	0.285156
984.0	6.625166	2.025318	6.794986	2.205204	6.149016	-2.537414	-0.743164	0.242188	0.235352
985.0	7.660103	1.668061	7.286493	2.091712	6.146545	-2.777638	-0.752686	0.206299	0.181396
986.0	7.864404	1.492408	7.209857	2.149191	6.041876	-3.022318	-0.755859	0.174805	0.133789
987.0	7.9317	1.394299	8.487847	2.151427	5.748489	-3.078826	-0.763672	0.147461	0.086426
988.0	8.788305	0.586745	8.458917	2.302989	5.359133	-3.169554	-0.756104	0.120117	0.041016
989.0	9.660958	2.065323	9.08325	2.90586	4.763885	-3.315161	-0.759521	0.090576	-0.002197
990.0	15.731152	4.586417	11.626215	3.073168	4.027017	-3.60173	-0.751953	0.060791	-0.034668
991.0	21.384141	7.199464	12.349994	2.718309	3.995716	-4.090326	-0.748535	0.029297	-0.075684
992.0	21.069827	9.269274	11.730269	1.797856	3.884695	-4.522833	-0.73584	-0.017578	-0.10791
993.0	23.013446	7.683365	10.400502	0.541634	3.43188	-4.855831	-0.727783	-0.060303	-0.131348
994.0	26.875995	6.031313	9.178725	0.031795	2.959354	-5.266307	-0.708984	-0.098633	-0.157227
995.0	33.445065	5.81736	8.679376	-0.498015	2.729594	-5.715514	-0.687744	-0.143311	-0.178711
996.0	40.270918	4.833739	6.79534	-1.368429	2.97194	-6.084998	-0.671143	-0.181641	-0.213135
997.0	41.503466	2.07931	1.467752	-2.239635	3.619124	-6.239432	-0.638916	-0.228271	-0.245361
998.0	38.050139	-1.922962	-3.682249	-2.794785	4.041666	-6.169667	-0.611328	-0.26416	-0.286377
999.0	34.684774	-9.478986	-10.582603	-3.61423	4.259603	-5.986879	-0.573486	-0.291504	-0.33374
1000.0	27.655736	-19.805445	-19.749971	-2.280686	4.19326	-5.641668	-0.537354	-0.323242	-0.357422
1001.0	25.049738	-22.198722	-27.431362	2.15096	2.728176	-4.696687	-0.511963	-0.359619	-0.357178
1002.0	26.087783	-16.241095	-24.074707	4.736767	1.252116	-2.934856	-0.497803	-0.39209	-0.346191
1003.0	27.624354	-10.445391	-20.556846	3.3478	0.475949	-0.93194	-0.490479	-0.407227	-0.333008
1004.0	27.757289	-7.24029	-17.538781	1.744484	-0.04409	0.752729	-0.49707	-0.405273	-0.330811
1005.0	27.924426	-4.127982	-12.500979	0.558548	-0.322851	1.85345	-0.512939	-0.392334	-0.324463
1006.0	28.034053	-1.312413	-6.988445	-0.669752	-0.394821	2.309852	-0.524414	-0.375244	-0.324707
1007.0	9.661986	-1.822327	11.158043	-0.848391	1.226017	3.236113	-0.53833	-0.35376	-0.32251
1008.0	-12.3303	23.341902	26.475664	6.634656	-0.320877	4.581015	-0.547363	-0.345215	-0.326904
1009.0	-32.596567	46.929039	11.386613	-10.832913	0.845976	5.508888	-0.591064	-0.23291	-0.368652
1010.0	15.617523	-32.541846	-15.777305	-22.468741	-12.177424	3.629043	-0.640869	-0.177734	-0.330078
1011.0	36.328849	-27.517809	-18.600994	9.869447	-1.880542	-0.524995	-0.643799	-0.214844	-0.286621
1012.0	6.386873	28.360563	34.06449	7.580696	-4.668967	-1.148634	-0.665039	-0.224121	-0.245361
1013.0	17.934104	-2.327056	16.049411	-12.408077	-5.176704	1.326487	-0.684082	-0.185547	-0.243408
1014.0	14.190929	-37.114855	-12.036569	-4.200878	-3.939492	1.02916	-0.692871	-0.179688	-0.202393
1015.0	14.801123	-1.525169	0.53472	12.814957	-3.316556	0.350102	-0.700684	-0.199707	-0.150146
1016.0	14.751457	39.015147	25.784731	4.789948	-2.571934	0.370482	-0.70752	-0.191406	-0.126465
1017.0	20.490422	9.121362	11.23068	-8.449243	-4.220941	2.212998	-0.719238	-0.165771	-0.115723
1018.0	17.890049	-7.063542	-3.069207	-2.55333	-1.194771	1.686292	-0.724121	-0.155273	-0.10498
1019.0	6.960508	-0.566933	7.825373	2.614652	-0.975223	1.097945	-0.726563	-0.146973	-0.092041
1020.0	11.148047	6.691233	12.35108	-0.094982	-0.478024	0.799019	-0.726807	-0.138184	-0.094238
1021.0	8.193265	1.377181	6.714313	-2.352506	-0.417114	0.726984	-0.733643	-0.129883	-0.081299
1022.0	7.985775	-1.120338	4.464718	-0.594534	-0.222775	0.486181	-0.731445	-0.129883	-0.083496
1023.0	7.524841	2.853998	7.14209	0.547153	-0.202648	0.378122	-0.731934	-0.121338	-0.081299
1024.0	7.389008	3.287846	7.97349	-0.694382	-0.214992	0.382433	-0.736328	-0.119141	-0.083496
1025.0	7.56306	0.365715	6.233058	-0.919084	-0.259401	0.33213	-0.740967	-0.110596	-0.077148
1026.0	7.633082	-0.068991	6.483507	-0.152542	-0.203487	0.173012	-0.736572	-0.112793	-0.076904
1027.0	7.414454	0.810929	7.115369	-0.021059	-0.201174	0.030321	-0.736816	-0.108398	-0.074951
1028.0	7.270186	0.940317	6.68342	-0.050648	-0.224597	-0.072778	-0.736328	-0.116943	-0.072754
1029.0	7.122812	1.489894	6.573852	0.11622	-0.227252	-0.136658	-0.729736	-0.117188	-0.066162
1030.0	6.957748	2.22246	6.495397	0.119207	-0.260231	-0.143209	-0.731934	-0.119385	-0.05542
1031.0	6.997718	2.677293	6.405824	0.079912	-0.280544	-0.092232	-0.729736	-0.121582	-0.061768
1032.0	7.005917	3.182295	6.409675	0.07031	-0.259943	0.008597	-0.729248	-0.130127	-0.057373
1033.0	6.782377	4.06577	6.192914	-0.035949	-0.222265	0.164798	-0.720947	-0.121338	-0.061768
1034.0	6.735385	4.763475	6.120979	-0.304762	-0.163817	0.373349	-0.708252	-0.114746	-0.079102
1035.0	6.977222	4.712122	6.007623	-0.606148	-0.146969	0.574353	-0.713867	-0.080078	-0.094482
1036.0	7.557544	3.966676	6.280923	-0.789561	-0.097714	0.721595	-0.743164	-0.054443	-0.090332
1037.0	8.004676	2.465779	5.82421	-1.011993	-0.028275	0.747945	-0.756348	-0.050293	-0.075195
1038.0	7.90422	0.973076	6.422907	-0.726631	-0.025942	0.659033	-0.753662	-0.065674	-0.062012
1039.0	7.763514	-0.239976	6.689343	-0.716721	-0.036973	0.492622	-0.753662	-0.063477	-0.064209
1040.0	7.534648	0.024811	6.409536	-0.230453	-0.055315	0.351175	-0.751221	-0.067871	-0.057861
1041.0	7.434534	2.392426	7.346717	0.143043	-0.063938	0.359768	-0.749268	-0.063477	-0.060059
1042.0	7.206588	2.129296	7.971632	-0.667646	-0.171305	0.384165	-0.74707	-0.063477	-0.055664
1043.0	7.407076	0.217971	6.519032	-0.779561	-0.27406	0.374966	-0.749512	-0.059082	-0.060059
1044.0	7.240717	-0.331475	6.687246	-0.270414	-0.323116	0.294699	-0.751465	-0.061523	-0.05127
1045.0	7.229091	0.993666	7.122904	0.128173	-0.448095	0.230119	-0.74707	-0.061523	-0.05127
1046.0	6.56752	0.600123	8.901923	-0.237223	-0.709823	0.179084	-0.75415	-0.050781	-0.040527
1047.0	7.009501	0.29884	7.487125	-0.076694	-1.034944	0.134643	-0.747314	-0.057373	-0.036133
1048.0	6.890974	0.981292	8.054779	0.204319	-1.286998	0.119217	-0.75415	-0.051025	-0.029785
1049.0	6.905096	0.449602	8.218877	-0.054137	-1.661935	0.113709	-0.753906	-0.053467	-0.010254
1050.0	7.262946	-0.713195	7.760692	0.085747	-1.99361	0.067399	-0.753906	-0.051514	0.009277
1051.0	6.547344	-0.526846	7.89383	0.626169	-2.28431	-0.003739	-0.758057	-0.056152	0.026611
1052.0	5.732262	0.279199	8.420689	0.905441	-2.829904	-0.086658	-0.753662	-0.056396	0.057129
1053.0	5.268244	0.997256	8.778084	1.061705	-3.434321	-0.081813	-0.760254	-0.054688	0.085205
1054.0	4.77982	1.165675	9.00778	1.001959	-4.041974	0.122411	-0.762207	-0.057373	0.126465
1055.0	4.049445	1.261315	8.492219	0.979053	-4.675681	0.476961	-0.755859	-0.051514	0.165283
1056.0	3.696928	1.440565	8.431991	1.207576	-5.350665	0.665487	-0.749512	-0.043457	0.213135
1057.0	2.739703	1.085013	9.147305	1.337487	-5.883435	0.593968	-0.736572	-0.037842	0.265137
1058.0	2.009182	3.703107	7.322754	2.006149	-6.574127	0.441437	-0.728027	-0.031982	0.323486
1059.0	4.355196	5.686009	9.219501	1.623789	-7.652482	0.555371	-0.708496	-0.022217	0.386475
1060.0	6.873395	0.803526	8.341653	-0.708697	-9.077736	0.856818	-0.675781	-0.020996	0.462402
1061.0	19.134092	0.342144	1.371592	1.287155	-10.354514	0.873261	-0.632813	-0.000244	0.531738
1062.0	32.161591	6.873986	0.430085	3.071139	-10.26851	1.16957	-0.58374	0.029053	0.609619
1063.0	37.832883	9.877009	8.167339	1.703961	-9.556094	1.712043	-0.538574	0.045654	0.674561
1064.0	27.973702	6.062224	5.544101	1.939666	-8.383722	1.794374	-0.489502	0.073242	0.719971
1065.0	32.583411	12.520405	6.85852	5.374483	-7.465971	1.984317	-0.443604	0.128662	0.756836
1066.0	33.352264	20.692411	26.768741	5.206936	-4.636854	2.042241	-0.416748	0.16748	0.767334
1067.0	22.461158	17.86548	38.620444	2.080231	-1.930741	1.548702	-0.41333	0.188965	0.767334
1068.0	17.173275	16.807985	28.329286	1.757271	1.579079	1.328534	-0.423096	0.212646	0.756348
1069.0	4.974069	16.942679	24.860297	0.528824	2.935177	1.563592	-0.438721	0.22168	0.732422
1070.0	0.049933	8.703435	17.190181	-0.204944	3.141038	2.241048	-0.462891	0.228027	0.719238
1071.0	4.396652	6.107923	15.789262	1.049512	3.462352	2.279227	-0.474854	0.25415	0.693115
1072.0	5.89885	5.909881	14.500771	1.590071	4.28562	1.927355	-0.503906	0.276123	0.662598
1073.0	6.625229	5.961329	12.565989	2.088916	5.065747	1.451494	-0.537842	0.304443	0.629883
1074.0	5.651804	6.972509	10.859127	2.366827	5.831024	0.970052	-0.5625	0.319824	0.59082
1075.0	4.771203	6.814843	9.506993	2.112862	6.303327	0.6471	-0.598145	0.339844	0.538574
1076.0	4.183336	5.658899	7.687211	1.90657	6.61976	0.389717	-0.62915	0.351318	0.475586
1077.0	3.996619	5.45641	6.779391	2.013893	6.697397	0.06853	-0.656006	0.364746	0.421387
1078.0	4.257127	5.159359	6.546132	1.750047	6.678356	-0.314616	-0.688965	0.367432	0.371582
1079.0	4.247549	4.029851	5.914387	1.578885	6.567642	-0.761037	-0.701904	0.364014	0.308594
1080.0	4.974928	2.79322	6.095268	1.631014	6.39124	-1.280512	-0.72583	0.360596	0.247803
1081.0	5.81758	1.871303	6.244011	1.882085	6.257437	-1.879531	-0.736084	0.339844	0.182861
1082.0	6.336639	1.627998	6.492472	2.219637	6.135862	-2.452815	-0.746338	0.318848	0.135254
1083.0	6.960289	1.88914	7.033756	2.459484	5.897501	-2.895995	-0.749756	0.291748	0.081299
1084.0	8.219452	2.481564	7.305122	2.595809	5.577136	-3.225509	-0.755371	0.266602	0.029297
1085.0	9.016394	3.59323	8.477685	2.576999	5.205911	-3.376833	-0.762939	0.234863	-0.013672
1086.0	9.590962	3.542082	8.165638	2.37024	4.699247	-3.482169	-0.769043	0.222412	-0.057129
1087.0	13.775406	5.170263	10.165325	2.483857	3.957522	-3.629585	-0.772461	0.193115	-0.108887
1088.0	20.838839	6.732256	11.553038	2.149866	3.741543	-3.930371	-0.780029	0.161377	-0.1521
1089.0	21.608917	9.160934	11.582557	1.605897	3.872501	-4.2133	-0.78125	0.13623	-0.199707
1090.0	22.37917	9.167821	11.305405	0.24729	3.684144	-4.310669	-0.780518	0.113281	-0.253906
1091.0	24.227394	5.772213	9.955795	-0.767123	3.422554	-4.396847	-0.781738	0.083984	-0.307861
1092.0	28.158507	3.029516	9.597418	-1.204705	3.256805	-4.625803	-0.762939	0.04834	-0.368408
1093.0	33.041102	0.952922	8.347594	-1.375664	3.413319	-5.070088	-0.735596	0.014648	-0.430908
1094.0	36.378864	0.76739	5.072749	-1.291425	3.868536	-5.415244	-0.690918	-0.023193	-0.480469
1095.0	35.454256	1.721811	1.16927	-1.809274	4.408933	-5.449795	-0.637695	-0.045898	-0.525879
1096.0	32.61879	-1.26288	-3.870379	-3.302517	4.572268	-5.200516	-0.587402	-0.053955	-0.5625
1097.0	28.189386	-8.865578	-10.520134	-4.596346	4.54931	-4.916341	-0.533203	-0.048828	-0.592773
1098.0	24.317528	-18.93628	-17.328065	-4.030496	4.112515	-4.673125	-0.492188	-0.041992	-0.618896
1099.0	22.77287	-25.958202	-26.093364	-0.211341	2.932128	-4.638684	-0.460449	-0.075928	-0.633789
1100.0	20.604695	-18.048268	-25.852564	6.538469	1.522451	-4.420591	-0.427246	-0.14502	-0.620361
1101.0	21.379388	-3.696969	-17.441333	7.424867	-0.088237	-3.324052	-0.414795	-0.187988	-0.613525
1102.0	22.013065	3.856195	-11.872369	2.252833	-0.641845	-0.76478	-0.410889	-0.177246	-0.60498
1103.0	22.943162	-1.166986	-11.390454	-3.290692	-1.677013	1.574015	-0.416748	-0.134277	-0.607422
1104.0	24.912014	-9.378761	-11.370088	-3.809965	-1.750884	2.797296	-0.422852	-0.091309	-0.607666
1105.0	11.038613	-8.930869	5.676138	-1.066296	-2.091465	4.418756	-0.441406	-0.059082	-0.60791
1106.0	-10.223009	3.665597	20.390555	4.078205	-0.286349	4.713875	-0.437256	-0.054688	-0.612061
1107.0	-2.75186	24.871525	2.982116	-2.828618	-5.004521	4.377642	-0.477051	0.02002	-0.582275
1108.0	35.793787	-11.080444	6.541696	-12.035629	-7.012253	3.251358	-0.501709	0.090576	-0.552246
1109.0	13.953999	-16.272615	-3.837579	2.946885	-3.335119	-0.096005	-0.517578	0.055908	-0.54126
1110.0	22.485411	10.925962	18.877894	5.677412	-4.414665	-0.646509	-0.530518	0.049072	-0.521729
1111.0	17.251243	0.345829	17.533301	-5.812789	-3.752206	1.712725	-0.545654	0.104736	-0.506836
1112.0	10.928771	-16.725137	-5.650987	-2.302421	-3.04882	1.10603	-0.5625	0.09375	-0.487305
1113.0	13.1963	6.882325	3.289137	8.511984	-3.045888	0.186299	-0.569824	0.059082	-0.478516
1114.0	11.550109	25.071267	21.473082	0.542861	-2.521054	1.039506	-0.575439	0.088867	-0.457031
1115.0	16.380379	0.575032	6.467924	-6.182283	-3.129169	1.736089	-0.585205	0.12085	-0.437744
1116.0	21.35724	-4.719731	2.121171	0.297732	-1.364345	1.311183	-0.585449	0.125244	-0.437744
1117.0	6.920599	5.413692	10.045649	2.221919	-0.008322	0.857568	-0.587646	0.125	-0.43335
1118.0	9.089923	5.358002	10.713879	-2.043864	-0.502268	0.928286	-0.583984	0.144287	-0.42041
1119.0	8.461737	-0.920806	4.256744	-1.953538	0.121138	0.779802	-0.584473	0.155029	-0.420654
1120.0	7.884864	0.144611	6.065916	0.097162	0.031244	0.54156	-0.582275	0.159424	-0.424805
1121.0	7.249485	3.327356	7.602109	-0.076051	0.139116	0.47903	-0.578369	0.165771	-0.422852
1122.0	7.400918	2.112994	6.942431	-0.76558	0.067318	0.479738	-0.582764	0.172363	-0.422852
1123.0	7.29539	0.728651	6.349014	-0.485663	0.080667	0.436682	-0.578369	0.170166	-0.425049
1124.0	7.063924	1.227815	6.790108	-0.117369	0.052574	0.394179	-0.581055	0.180908	-0.427246
1125.0	7.066918	1.476808	7.019906	-0.251501	0.013052	0.376355	-0.581055	0.180908	-0.41626
1126.0	7.223746	0.83224	6.718107	-0.30642	-0.03782	0.346231	-0.576904	0.187256	-0.418457
1127.0	6.987956	0.947396	6.592816	-0.106768	-0.032556	0.290957	-0.581543	0.193848	-0.418457
1128.0	6.802887	1.516879	6.865087	-0.057761	-0.065667	0.256813	-0.581543	0.19165	-0.416504
1129.0	6.921396	1.447544	6.755739	-0.188838	-0.13338	0.250946	-0.57251	0.187256	-0.412109
1130.0	6.901712	1.49994	6.780369	-0.130498	-0.116456	0.232301	-0.57251	0.187256	-0.414307
1131.0	6.900006	2.016399	6.915142	-0.176422	-0.109148	0.267128	-0.570557	0.19165	-0.418457
1132.0	6.697572	2.326421	6.747726	-0.318045	-0.091996	0.296647	-0.558105	0.204834	-0.431641
1133.0	6.775421	2.224901	6.724749	-0.451666	-0.101922	0.325189	-0.556396	0.219971	-0.44043
1134.0	7.218595	2.390821	6.607902	-0.451237	-0.0928	0.361799	-0.570557	0.247803	-0.438232
1135.0	7.251062	2.432563	6.312005	-0.516799	-0.022007	0.394244	-0.586182	0.256348	-0.434082
1136.0	7.844275	2.779333	6.516455	-0.472705	0.020499	0.422602	-0.586182	0.256104	-0.414551
1137.0	7.547171	0.740491	7.251087	-0.956737	0.023329	0.360168	-0.590332	0.253906	-0.414551
1138.0	7.399447	-0.755811	6.028926	-0.575366	0.024582	0.279309	-0.585938	0.251709	-0.407959
1139.0	7.230362	0.994796	7.166954	0.140426	0.087581	0.219395	-0.581055	0.240967	-0.407959
1140.0	6.918208	2.581464	8.04459	-0.188737	-0.04219	0.276136	-0.581543	0.251709	-0.407959
1141.0	7.158764	1.513207	7.147505	-0.707777	-0.171354	0.339815	-0.581787	0.258057	-0.406006
1142.0	7.204032	1.380036	6.99597	-0.355976	-0.191188	0.409431	-0.577637	0.260254	-0.403809
1143.0	6.855691	1.387917	7.843503	-0.530306	-0.310067	0.465738	-0.582031	0.264404	-0.401611
1144.0	7.131932	0.058875	7.129583	-0.767632	-0.481332	0.457048	-0.578125	0.277344	-0.397217
1145.0	6.868088	-0.501355	7.459414	-0.499197	-0.611265	0.397198	-0.58252	0.275146	-0.388672
1146.0	6.089119	-1.838723	9.464184	-0.737448	-0.892089	0.25362	-0.589111	0.279297	-0.38208
1147.0	6.644723	-1.405529	7.66669	0.326269	-1.234094	0.186416	-0.587158	0.283447	-0.375732
1148.0	6.218741	0.650775	9.603709	0.486571	-1.588466	0.139922	-0.5979	0.28125	-0.369141
1149.0	6.271606	-0.302696	9.341311	-0.044515	-2.091445	0.099587	-0.599609	0.274414	-0.349609
1150.0	6.38678	-1.387954	8.577687	0.306636	-2.521715	-0.011815	-0.608643	0.280762	-0.334473
1151.0	6.138067	-0.740669	9.108092	0.683503	-2.958981	-0.147636	-0.619141	0.271729	-0.317139
1152.0	5.397927	0.301733	8.888147	0.897841	-3.537045	-0.196068	-0.618896	0.26709	-0.29541
1153.0	4.702485	1.517707	9.163669	1.029187	-4.228306	-0.069452	-0.629639	0.264404	-0.258545
1154.0	4.241558	1.575361	9.238907	0.795935	-4.808377	0.288938	-0.63623	0.268311	-0.223877
1155.0	2.902567	1.461986	8.766191	0.941823	-5.447607	0.713034	-0.644775	0.263428	-0.185059
1156.0	2.670124	1.868856	8.365976	0.781132	-6.210372	1.309766	-0.64502	0.273682	-0.150391
1157.0	2.414904	1.841581	9.793749	0.734909	-6.908127	1.729609	-0.641113	0.285889	-0.102783
1158.0	1.326507	1.499275	4.957411	0.446608	-7.544438	2.30656	-0.632813	0.30249	-0.052979
1159.0	6.179102	2.371901	-0.163681	0.811216	-9.669886	2.647409	-0.626709	0.31665	0.01416
1160.0	27.506983	9.512349	8.917618	1.127649	-11.561506	3.436792	-0.599365	0.34375	0.083496
1161.0	36.328242	11.53786	14.576378	-0.807384	-9.389048	3.494592	-0.571533	0.362793	0.131104
1162.0	28.105415	2.174852	-0.264557	-3.004472	-9.726634	3.511875	-0.531006	0.383545	0.198242
1163.0	37.568284	7.252534	4.419643	2.608956	-8.328665	3.877006	-0.488281	0.406738	0.230713
1164.0	36.190756	16.91198	13.061662	2.387669	-6.62619	3.99712	-0.441406	0.434814	0.250244
1165.0	29.887186	17.573096	32.721747	2.000202	-4.240129	2.58983	-0.391846	0.449951	0.254639
1166.0	27.490829	21.964859	37.002957	-0.192995	-0.161943	1.138175	-0.363281	0.443604	0.243896
1167.0	11.147799	17.829447	25.248697	-0.876812	2.073578	0.254177	-0.324463	0.452637	0.235107
1168.0	-2.202064	12.244172	18.868789	-1.524936	2.667306	0.565576	-0.285156	0.448486	0.226563
1169.0	2.167747	6.943116	15.24939	-0.855339	2.345717	0.815793	-0.252441	0.442383	0.218018
1170.0	4.749925	6.702383	14.733848	0.527626	3.132488	0.567776	-0.222168	0.451172	0.207031
1171.0	5.824249	7.787094	14.380055	0.835081	3.859393	0.204405	-0.182861	0.445068	0.196289
1172.0	6.194673	8.013599	12.892439	1.025345	4.711837	-0.16393	-0.154541	0.445313	0.192139
1173.0	6.544585	8.58525	11.92098	0.933677	5.488241	-0.469511	-0.119385	0.436768	0.192139
1174.0	6.286481	7.771758	10.49513	0.571292	6.205639	-0.785997	-0.095215	0.432373	0.205322
1175.0	5.156038	6.299848	8.46106	0.374321	6.709781	-1.124367	-0.07959	0.421143	0.23999
1176.0	4.380993	5.72975	6.78303	0.47776	6.89089	-1.480045	-0.070313	0.410156	0.270508
1177.0	4.144236	5.587638	5.79259	0.478329	6.894756	-1.834808	-0.07666	0.409424	0.311523
1178.0	5.59965	4.631379	5.619559	0.424508	6.711674	-2.20239	-0.098633	0.413086	0.348389
1179.0	6.727393	4.329089	5.117828	0.663814	6.798006	-2.701105	-0.131592	0.425537	0.380859
1180.0	4.505193	3.893203	4.493738	0.606338	6.684692	-3.178166	-0.175537	0.435547	0.41333
1181.0	4.134179	3.050266	3.218013	0.78045	6.103295	-3.510258	-0.25	0.450195	0.423828
1182.0	5.749495	4.315694	3.851531	1.509064	5.291499	-3.807058	-0.329102	0.465088	0.417236
1183.0	9.94403	7.608522	6.358207	1.788139	4.673523	-4.134342	-0.414063	0.465088	0.388916
1184.0	13.100559	10.28125	7.633392	1.299322	4.348378	-4.328892	-0.489502	0.443848	0.356201
1185.0	16.479765	12.228804	9.034843	0.793274	4.095648	-4.425467	-0.555664	0.409668	0.317383
1186.0	20.304833	12.859417	9.48845	0.076473	4.08558	-4.62083	-0.623779	0.366699	0.289307
1187.0	20.408439	13.653871	7.303019	-0.276246	4.087856	-4.893042	-0.719727	0.31543	0.24585
1188.0	20.617594	16.724077	5.538927	-0.647472	3.702883	-5.059538	-0.816895	0.230225	0.159424
1189.0	24.245901	18.239975	4.396492	-1.909122	3.21197	-5.079172	-0.891357	0.12207	0.02124
1190.0	28.239221	16.667967	2.807394	-2.951232	3.045863	-5.185756	-0.889404	0.01001	-0.129883
1191.0	33.837957	14.733509	3.247222	-3.528684	3.18343	-5.612922	-0.824951	-0.088867	-0.268066
1192.0	35.510342	12.39806	0.796816	-3.809588	3.68713	-6.269532	-0.733154	-0.160645	-0.352051
1193.0	32.217661	9.631346	-2.349103	-4.157561	3.945105	-6.631927	-0.644531	-0.202637	-0.401611
1194.0	28.522347	5.830378	-6.676429	-4.640513	3.721283	-6.612094	-0.571777	-0.225342	-0.44458
1195.0	25.821593	1.675082	-10.803358	-4.247771	3.317278	-6.260363	-0.508301	-0.235596	-0.463867
1196.0	24.579959	-1.075656	-12.163466	-2.775691	2.736879	-5.882414	-0.468506	-0.256592	-0.483398
1197.0	25.423026	-2.901395	-11.245679	-1.783099	2.053726	-5.546086	-0.42627	-0.275879	-0.489746
1198.0	24.770525	-6.508516	-13.18251	-1.384981	1.533948	-5.414236	-0.395264	-0.290771	-0.489502
1199.0	23.153928	-9.649295	-17.372441	0.223114	0.942212	-5.411946	-0.370605	-0.310059	-0.48291
1200.0	22.344894	-6.650052	-18.236865	2.632352	-0.010542	-5.125839	-0.349365	-0.351318	-0.45874
1201.0	24.426904	0.76386	-14.925765	2.801711	-0.834364	-4.181484	-0.339844	-0.37085	-0.443604
1202.0	22.994138	5.674724	-11.685962	0.191085	-0.982598	-2.317194	-0.330811	-0.379395	-0.441162
1203.0	21.128382	2.736394	-9.41242	-3.737668	-1.554516	-0.165052	-0.34082	-0.342773	-0.447998
1204.0	25.228353	-5.57567	-7.482862	-5.378908	-1.832546	1.226376	-0.357666	-0.306152	-0.456787
1205.0	19.751466	-26.012817	12.131311	-5.906828	-0.465818	2.002782	-0.36792	-0.262939	-0.472168
1206.0	-16.912282	-34.604125	-17.524265	0.439045	-0.515791	1.004397	-0.361816	-0.306152	-0.450439
1207.0	-16.457355	19.006749	-12.920702	16.316959	-5.224796	1.241012	-0.407715	-0.355225	-0.346191
1208.0	51.760334	52.208313	39.750615	3.500513	-11.113214	2.187888	-0.445068	-0.342773	-0.318115
1209.0	6.299041	13.224001	-4.391345	-10.415008	-2.045195	0.561482	-0.464111	-0.303955	-0.329102
1210.0	10.658984	-16.182968	-8.389837	-1.244151	-6.997689	1.011208	-0.489746	-0.311035	-0.288086
1211.0	23.473962	6.40318	12.328446	6.316921	-4.21611	0.688018	-0.504639	-0.318115	-0.244629
1212.0	16.704057	7.604639	15.668978	-2.411188	-4.790641	0.890906	-0.518311	-0.305664	-0.225342
1213.0	17.07123	-1.464689	1.289619	-0.644094	-3.493862	0.488816	-0.522461	-0.303955	-0.194824
1214.0	22.909134	9.861145	12.088878	3.141668	-4.274445	0.771579	-0.537842	-0.302246	-0.156006
1215.0	29.584085	11.970017	16.939767	-2.082893	-0.829888	1.014779	-0.540527	-0.29126	-0.175537
1216.0	1.33321	0.612798	1.510031	-3.137399	0.829384	0.817163	-0.540771	-0.280518	-0.184326
1217.0	7.662371	-1.018843	3.334651	0.305111	-1.392841	0.58527	-0.547607	-0.276367	-0.171143
1218.0	11.068631	5.0933	9.386713	0.660233	0.35079	0.426999	-0.543213	-0.276367	-0.164795
1219.0	5.547556	4.312946	6.368004	-1.144306	-0.092362	0.466525	-0.550049	-0.267822	-0.171387
1220.0	8.599008	2.745652	6.038686	-0.461382	0.11169	0.443056	-0.545898	-0.26123	-0.171387
1221.0	6.493596	4.027792	7.261265	-0.339657	0.18759	0.43335	-0.548096	-0.26123	-0.177734
1222.0	6.915005	3.772619	6.47003	-0.797198	0.062871	0.434646	-0.550537	-0.256836	-0.177734
1223.0	6.074288	2.903893	5.378326	-0.733899	-0.088669	0.539775	-0.550537	-0.252686	-0.175781
1224.0	7.267278	2.390017	6.462201	-0.684963	-0.23107	0.617173	-0.557373	-0.246094	-0.182129
1225.0	7.208671	1.753721	6.223131	-0.776075	-0.219645	0.634737	-0.562012	-0.237549	-0.175781
1226.0	7.235935	1.487308	6.477019	-0.600432	-0.248714	0.615783	-0.560059	-0.235596	-0.171387
1227.0	7.223402	1.790342	6.797902	-0.556714	-0.246873	0.586139	-0.558105	-0.231201	-0.171387
1228.0	7.424848	1.960788	6.624028	-0.604458	-0.232093	0.556422	-0.5625	-0.226807	-0.171631
1229.0	7.369492	1.679614	6.604801	-0.648142	-0.224283	0.528314	-0.560547	-0.222656	-0.173584
1230.0	7.655745	1.117471	6.715993	-0.645766	-0.227015	0.454844	-0.565186	-0.213867	-0.173828
1231.0	7.682375	0.971501	6.428823	-0.496865	-0.191505	0.352061	-0.562744	-0.218262	-0.171631
1232.0	7.515557	1.591499	6.534222	-0.313163	-0.159294	0.30169	-0.561035	-0.20752	-0.173828
1233.0	7.379974	1.814624	6.741924	-0.379726	-0.149825	0.285399	-0.569824	-0.205322	-0.178223
1234.0	7.400305	1.591377	6.540323	-0.379357	-0.152422	0.268315	-0.561279	-0.200928	-0.18457
1235.0	7.47561	1.785179	6.513959	-0.295707	-0.119906	0.249853	-0.568115	-0.194336	-0.188965
1236.0	7.437529	1.404552	6.691336	-0.388643	-0.135971	0.220473	-0.572998	-0.183594	-0.191162
1237.0	7.453685	1.48932	6.277403	-0.229997	-0.115328	0.192264	-0.577637	-0.175049	-0.191406
1238.0	7.511317	2.170001	6.582388	-0.183887	-0.078734	0.199786	-0.582031	-0.170898	-0.18042
1239.0	7.425396	1.697997	6.600846	-0.321909	-0.071505	0.220791	-0.586182	-0.175293	-0.171875
1240.0	7.277605	1.391491	6.469062	-0.216373	-0.068862	0.226304	-0.579834	-0.17334	-0.165283
1241.0	7.267689	2.427466	6.962586	-0.127286	-0.062499	0.272738	-0.586182	-0.179688	-0.165283
1242.0	7.208981	2.206033	6.931463	-0.397744	-0.098676	0.349647	-0.586182	-0.175537	-0.165283
1243.0	7.273883	2.026452	6.581375	-0.362799	-0.114653	0.406601	-0.582031	-0.175293	-0.171875
1244.0	7.271806	2.442656	6.777215	-0.355438	-0.129642	0.496472	-0.586426	-0.17334	-0.163086
1245.0	7.260923	2.835194	6.806783	-0.468972	-0.152052	0.616982	-0.58667	-0.166748	-0.165283
1246.0	7.082848	2.572812	7.474233	-0.736453	-0.233622	0.729955	-0.586914	-0.158203	-0.171875
1247.0	6.719526	-1.229721	8.137296	-1.35025	-0.500635	0.704153	-0.591553	-0.149658	-0.171875
1248.0	7.034125	-2.7932	6.82911	-0.149114	-0.701288	0.514279	-0.595947	-0.147705	-0.158936
1249.0	6.294115	-0.475852	9.288981	0.196192	-1.030539	0.360678	-0.598145	-0.151855	-0.154541
1250.0	6.188464	-1.896086	8.92135	-0.113267	-1.593068	0.189083	-0.600342	-0.147949	-0.141602
1251.0	5.847084	-1.960091	9.503078	0.533371	-2.122402	-0.006108	-0.606934	-0.148193	-0.124268
1252.0	5.312426	-1.212973	10.483761	0.699246	-2.89001	-0.211459	-0.61084	-0.155029	-0.100342
1253.0	4.337699	-2.318301	11.158577	0.755591	-3.798904	-0.443485	-0.615234	-0.155273	-0.072266
1254.0	3.093235	-3.547946	12.142059	1.251564	-4.91147	-0.789885	-0.621094	-0.166748	-0.033203
1255.0	1.670823	-0.645027	11.092298	2.394758	-5.907983	-0.844412	-0.622803	-0.176025	0.020996
1256.0	2.819037	11.457693	9.33577	4.687737	-6.161357	0.12103	-0.622803	-0.174561	0.072998
1257.0	2.228664	17.900706	14.949635	1.497656	-7.11961	1.830252	-0.630127	-0.147461	0.137939
1258.0	6.734348	14.238363	8.389262	-3.201575	-8.644033	3.800393	-0.624756	-0.120361	0.196289
1259.0	20.81004	11.193112	7.727559	-5.122985	-9.572279	5.268731	-0.612549	-0.091064	0.26123
1260.0	40.186182	7.90813	12.799988	-6.578488	-8.949652	5.27429	-0.604492	-0.072266	0.311035
1261.0	33.935898	1.185266	1.746926	-5.986325	-6.444451	3.926341	-0.594238	-0.05127	0.352051
1262.0	25.838826	12.770386	5.21405	-1.523423	-5.060043	2.757725	-0.577637	-0.030273	0.391113
1263.0	14.386837	22.820686	27.88277	-4.407198	-3.356237	2.299183	-0.564453	-0.030518	0.408447
1264.0	4.026106	15.926976	22.134326	-8.452018	-2.443694	1.021237	-0.54834	-0.054199	0.419434
1265.0	10.553514	7.417397	16.72372	-6.606006	-0.25395	-0.38071	-0.543457	-0.067139	0.421631
1266.0	4.049732	9.526904	15.968186	-5.105219	0.714309	-0.353181	-0.538574	-0.082031	0.419434
1267.0	5.916219	10.702001	16.038182	-5.065034	1.662749	0.286547	-0.546875	-0.092773	0.408691
1268.0	4.487739	10.078169	14.425704	-5.144626	2.777754	0.770374	-0.548828	-0.096924	0.402344
1269.0	3.101268	10.269441	12.582158	-4.811937	3.688494	0.872138	-0.559814	-0.094727	0.382568
1270.0	2.468978	12.051049	9.74707	-4.282549	4.34663	0.627528	-0.568604	-0.094482	0.367432
1271.0	1.506605	16.684908	7.848615	-3.888425	4.811875	0.198933	-0.57959	-0.092041	0.352295
1272.0	1.822421	21.116237	6.851716	-4.507602	5.053292	-0.353051	-0.601318	-0.098389	0.328369
1273.0	3.011811	22.334955	4.490378	-5.425082	5.001601	-1.047612	-0.624756	-0.111084	0.30249
1274.0	4.822911	22.108415	3.32686	-6.057833	5.150316	-1.83616	-0.648193	-0.125732	0.272217
1275.0	4.434994	20.524846	1.166132	-6.438874	5.069263	-2.595812	-0.677734	-0.151123	0.230957
1276.0	4.914456	18.771862	0.128026	-6.110971	4.847799	-3.31474	-0.700684	-0.182861	0.185547
1277.0	5.763627	18.915911	-0.044095	-5.412374	4.499312	-3.84224	-0.709961	-0.225098	0.131592
1278.0	7.295891	21.579051	0.139935	-4.984373	4.253416	-4.131962	-0.712646	-0.269531	0.079834
1279.0	10.211822	22.4006	1.822463	-5.518942	3.885196	-4.269998	-0.713135	-0.316406	0.030273
1280.0	11.108362	21.753627	1.457834	-5.21492	4.109303	-4.249814	-0.700439	-0.36499	-0.030273
1281.0	12.147018	20.746204	2.301531	-5.434468	4.200694	-4.243114	-0.683594	-0.409424	-0.079834
1282.0	12.533545	18.132621	1.694109	-4.695227	4.298013	-4.284965	-0.64502	-0.455566	-0.142334
1283.0	12.370718	18.422925	2.128135	-3.773171	4.365081	-4.32232	-0.606689	-0.495605	-0.194092
1284.0	12.387548	19.446202	1.821307	-3.129954	4.330633	-4.275185	-0.550537	-0.542236	-0.228516
1285.0	12.849665	20.785454	1.775403	-2.745647	4.218456	-4.236199	-0.490479	-0.576172	-0.249756
1286.0	13.345052	21.831275	1.450669	-2.611709	4.056175	-4.319893	-0.427734	-0.623047	-0.269043
1287.0	13.153458	22.030295	0.539745	-2.728623	3.776366	-4.53742	-0.371826	-0.661377	-0.270752
1288.0	12.603595	21.740282	-0.352223	-2.887521	3.267048	-4.841654	-0.311523	-0.695801	-0.268311
1289.0	13.160299	20.718337	-0.98867	-3.142469	2.568957	-5.250738	-0.266846	-0.72583	-0.250732
1290.0	14.297337	19.866027	-1.693662	-3.217795	1.826643	-5.705088	-0.231201	-0.747314	-0.239746
1291.0	16.184368	19.442059	-1.432511	-3.424865	1.073647	-6.069939	-0.206787	-0.758057	-0.246338
1292.0	18.879377	13.32885	1.382523	-4.391761	0.414905	-6.452091	-0.182617	-0.766113	-0.272217
1293.0	22.411318	4.327732	-2.267127	-4.174408	0.08384	-7.067019	-0.156006	-0.780518	-0.317627
1294.0	24.881269	5.272282	-5.25448	-0.52701	0.187552	-7.319993	-0.120361	-0.801514	-0.339111
1295.0	25.951983	14.540389	-1.54996	0.223242	0.182568	-7.04222	-0.070068	-0.811768	-0.371338
1296.0	25.037512	13.756224	-5.695421	-2.799949	0.156417	-6.225573	-0.016357	-0.799805	-0.434326
1297.0	23.651345	8.13209	-10.754509	-3.481054	0.108323	-5.388727	0.037598	-0.786133	-0.484131
1298.0	23.512709	3.17478	-12.242983	-3.544945	-0.010447	-4.729725	0.077637	-0.757324	-0.536133
1299.0	22.713217	-2.371186	-15.220726	-2.616379	-0.051344	-4.26024	0.124512	-0.733154	-0.557861
1300.0	21.820744	-3.388132	-15.254061	0.017189	-0.172066	-3.850397	0.161621	-0.73291	-0.568604
1301.0	22.185196	2.608119	-10.559619	1.525452	-0.242753	-3.157683	0.187744	-0.732666	-0.566406
1302.0	20.272347	6.58319	-6.731754	0.230878	-0.02854	-1.933389	0.209229	-0.726074	-0.575195
1303.0	17.678247	4.66486	-4.286729	-2.035035	-0.072886	-0.448314	0.215088	-0.708496	-0.599121
1304.0	16.395651	-3.180918	-1.002684	-3.346908	0.145859	0.726636	0.211914	-0.684326	-0.629639
1305.0	12.074521	-31.650812	-3.850436	-6.424153	-0.603657	1.756748	0.21582	-0.679932	-0.648926
1306.0	-12.585217	-4.522128	-10.396984	13.586625	1.961795	1.440754	0.205322	-0.791016	-0.538086
1307.0	-1.541424	40.44964	19.449027	10.049017	-6.605605	2.074598	0.15625	-0.817383	-0.511963
1308.0	20.932159	31.916472	6.806773	-5.612899	-1.911434	1.229262	0.145996	-0.780029	-0.574951
1309.0	2.871769	3.175299	-5.131824	-4.323556	-3.120856	0.331007	0.123535	-0.764893	-0.594482
1310.0	15.518315	-4.946212	7.969039	0.907411	-4.202343	0.316265	0.101807	-0.76709	-0.588135
1311.0	13.014047	6.532337	9.04549	1.774845	-2.488554	0.269461	0.08667	-0.769531	-0.581543
1312.0	13.072089	5.301639	8.889255	-0.884358	-2.600479	0.269437	0.067139	-0.767334	-0.58374
1313.0	11.206509	2.545265	5.399261	-0.115485	-2.153847	0.090316	0.056152	-0.767334	-0.585938
1314.0	11.744513	7.097969	7.474934	0.490829	-2.111782	-0.022029	0.042969	-0.763184	-0.57959
1315.0	15.639826	6.214139	12.461847	-0.659424	-1.616465	0.362517	0.03418	-0.758789	-0.586182
1316.0	12.482603	-0.165224	9.271965	-1.537479	-0.542289	0.799054	0.031494	-0.75	-0.599121
1317.0	6.141689	3.469692	2.131057	0.309147	0.036794	0.535175	0.020752	-0.752441	-0.581787
1318.0	7.166865	7.206938	8.77848	0.283264	-0.692019	0.627486	0.011963	-0.752441	-0.590576
1319.0	8.165089	3.918554	6.831808	-1.062955	-0.099111	0.588646	0.013916	-0.741699	-0.597168
1320.0	6.912359	2.728907	4.972316	-0.278313	-0.206129	0.551898	0.005127	-0.739502	-0.599365
1321.0	7.078833	5.027177	7.189344	-0.106217	-0.144621	0.550837	0.002686	-0.733154	-0.594971
1322.0	7.063483	3.292753	6.38	-0.695049	-0.092386	0.553831	-0.00415	-0.726563	-0.60376
1323.0	6.707702	2.641246	6.136011	-0.36542	-0.093932	0.53575	-0.008789	-0.722168	-0.601563
1324.0	6.72311	3.02464	6.757967	-0.403752	-0.145337	0.533636	-0.015381	-0.719971	-0.605957
