Acquisition frequency: 100 Hz
PacketCounter	Acc_X	Acc_Y	Acc_Z	Gyr_X	Gyr_Y	Gyr_Z	Mag_X	Mag_Y	Mag_Z
0.0	9.622957	0.524543	2.715803	0.095884	0.006253	0.044216	-0.493652	0.10083	-0.651855
1.0	9.648837	0.565729	2.748731	0.09042	0.010819	0.044891	-0.493408	0.096436	-0.651611
2.0	9.57611	0.570557	2.743254	0.092843	0.011769	0.047537	-0.491455	0.10083	-0.647217
3.0	9.564571	0.593437	2.811592	0.088949	0.008158	0.047073	-0.491455	0.098633	-0.647217
4.0	9.560611	0.582897	2.752664	0.083743	0.005589	0.049006	-0.498047	0.098633	-0.649414
5.0	9.549672	0.563045	2.766474	0.076565	0.014696	0.050651	-0.493408	0.096436	-0.651611
6.0	9.53858	0.54309	2.780791	0.077864	0.015315	0.050141	-0.493652	0.10083	-0.644775
7.0	9.503284	0.565428	2.740206	0.077309	0.013452	0.046643	-0.487061	0.105225	-0.647461
8.0	9.492366	0.545784	2.753829	0.08413	0.002023	0.050357	-0.491455	0.103027	-0.654297
9.0	9.545509	0.565776	2.736165	0.083821	-0.006985	0.048134	-0.49585	0.096436	-0.646973
10.0	9.573034	0.521548	2.658359	0.086833	-0.010905	0.046658	-0.498047	0.098633	-0.647217
11.0	9.595215	0.575094	2.657704	0.087881	-0.001471	0.04676	-0.49585	0.098633	-0.649414
12.0	9.604264	0.52636	2.693854	0.090465	0.003133	0.049543	-0.486816	0.098633	-0.640137
13.0	9.564611	0.60393	2.67455	0.089322	0.006136	0.050156	-0.486572	0.094238	-0.64917
14.0	9.595698	0.589295	2.683893	0.085657	-0.004598	0.051007	-0.497803	0.094238	-0.644531
15.0	9.591387	0.642015	2.705555	0.084117	0.001893	0.050188	-0.490967	0.092041	-0.651611
16.0	9.607143	0.643789	2.723086	0.073367	-0.010466	0.05384	-0.49585	0.10083	-0.647217
17.0	9.614479	0.670348	2.676487	0.068842	-0.005109	0.048794	-0.493408	0.096436	-0.649414
18.0	9.596916	0.642079	2.761581	0.060623	-0.00372	0.052203	-0.49585	0.098633	-0.644775
19.0	9.536074	0.620325	2.687092	0.055198	-0.004154	0.047203	-0.493408	0.096436	-0.649414
20.0	9.540683	0.605083	2.71839	0.05051	-0.002444	0.042026	-0.493652	0.10083	-0.651855
21.0	9.529702	0.607136	2.758671	0.037396	0.002767	0.033312	-0.489258	0.10083	-0.654053
22.0	9.428191	0.527639	2.79836	0.031187	0.009312	0.025447	-0.489258	0.10083	-0.642578
23.0	9.412726	0.522015	2.780599	0.02239	0.007866	0.011026	-0.498047	0.096436	-0.646973
24.0	9.329029	0.490791	2.76132	0.017543	0.00256	0.001954	-0.489014	0.094238	-0.646973
25.0	9.333314	0.436325	2.739713	0.012261	0.008159	-0.013506	-0.49585	0.098633	-0.654053
26.0	9.321922	0.442821	2.780524	0.010979	-0.000897	-0.022444	-0.498291	0.10083	-0.644775
27.0	9.363715	0.428983	2.750029	0.007383	0.005211	-0.03319	-0.486572	0.094238	-0.653809
28.0	9.387103	0.391263	2.806577	0.004297	0.020594	-0.04543	-0.498047	0.098633	-0.656494
29.0	9.43651	0.397711	2.895651	0.002054	0.018214	-0.053615	-0.493408	0.094238	-0.651611
30.0	9.50162	0.366359	2.948833	0.00133	0.012693	-0.057214	-0.489014	0.098633	-0.649414
31.0	9.584388	0.424607	2.996589	-0.005745	0.009384	-0.056312	-0.491211	0.094238	-0.646973
32.0	9.702182	0.436628	3.059688	-0.032521	0.020615	-0.060938	-0.493408	0.094238	-0.646973
33.0	9.757711	0.493985	3.131462	-0.044383	0.036544	-0.058841	-0.486816	0.096436	-0.640137
34.0	9.801871	0.533289	3.217654	-0.068459	0.035855	-0.052682	-0.493652	0.10083	-0.647217
35.0	9.833135	0.629692	3.234926	-0.096606	0.029612	-0.045184	-0.486816	0.096436	-0.644775
36.0	9.911303	0.652754	3.199637	-0.127996	0.032703	-0.039466	-0.497803	0.094238	-0.646973
37.0	9.87926	0.64218	3.167708	-0.158373	0.050261	-0.028009	-0.489014	0.094238	-0.651611
38.0	9.774522	0.615947	3.103837	-0.17416	0.062529	-0.026377	-0.486816	0.096436	-0.649414
39.0	9.70542	0.521797	3.027731	-0.192632	0.05907	-0.022772	-0.493652	0.098633	-0.651855
40.0	9.621268	0.422704	2.932694	-0.19267	0.062344	-0.019078	-0.493652	0.10083	-0.644775
41.0	9.542152	0.268642	2.81471	-0.18279	0.063082	-0.015936	-0.491455	0.098633	-0.649414
42.0	9.514919	0.200877	2.761273	-0.168043	0.062415	-0.011231	-0.489014	0.098633	-0.644775
43.0	9.461623	0.111613	2.701876	-0.144103	0.057095	-0.006884	-0.489258	0.103027	-0.647217
44.0	9.432325	0.163864	2.620295	-0.117123	0.04624	-0.005852	-0.487061	0.103027	-0.651855
45.0	9.385699	0.148257	2.568745	-0.088696	0.041362	-0.003219	-0.486816	0.10083	-0.651855
46.0	9.364553	0.196862	2.576862	-0.064194	0.03626	0.002787	-0.487061	0.103027	-0.647217
47.0	9.328469	0.241368	2.565609	-0.045235	0.02543	0.001707	-0.489258	0.105225	-0.649658
48.0	9.391563	0.301086	2.56527	-0.028484	0.009846	0.003019	-0.493896	0.103027	-0.656494
49.0	9.404879	0.382007	2.504049	-0.020645	0.012	-0.001774	-0.487305	0.109619	-0.654541
50.0	9.399121	0.457609	2.555549	-0.020802	0.00835	-0.001938	-0.491699	0.107422	-0.649658
51.0	9.436273	0.49675	2.548577	-0.015135	0.00241	-0.008153	-0.491699	0.105225	-0.654297
52.0	9.477506	0.52331	2.573149	-0.020001	0.003822	-0.00971	-0.491699	0.105225	-0.64502
53.0	9.508174	0.511763	2.583229	-0.021251	-0.001818	-0.014939	-0.491455	0.10083	-0.651855
54.0	9.538899	0.500355	2.593078	-0.018836	-0.000858	-0.012259	-0.491699	0.105225	-0.649658
55.0	9.580724	0.506523	2.589735	-0.018052	-0.003716	-0.01813	-0.484863	0.103027	-0.651855
56.0	9.573567	0.477235	2.634836	-0.020211	0.007619	-0.014774	-0.493896	0.107422	-0.654297
57.0	9.562367	0.460716	2.648215	-0.016385	-0.003234	-0.013389	-0.489502	0.107422	-0.6521
58.0	9.539872	0.447739	2.701109	-0.009395	-0.012648	-0.011384	-0.496094	0.105225	-0.649658
59.0	9.571499	0.415348	2.682156	-0.002268	-0.016746	-0.00731	-0.491455	0.10083	-0.651855
60.0	9.621802	0.395172	2.741133	0.002334	-0.009353	-0.005101	-0.491699	0.105225	-0.647461
61.0	9.627151	0.340764	2.716938	0.008331	-0.012107	-0.002286	-0.491455	0.103027	-0.651855
62.0	9.647149	0.311788	2.738793	0.017837	-0.009457	-0.002331	-0.496094	0.107422	-0.649658
63.0	9.642748	0.346464	2.7338	0.01872	-0.003665	-0.002324	-0.487305	0.107422	-0.654297
64.0	9.665415	0.361162	2.679881	0.023932	-0.001111	-0.004249	-0.486816	0.10083	-0.644775
65.0	9.657454	0.373684	2.779413	0.022611	-8.3e-05	-0.001866	-0.482666	0.107422	-0.6521
66.0	9.622163	0.420759	2.764875	0.021918	-0.005563	-0.005516	-0.489258	0.103027	-0.649658
67.0	9.648031	0.464491	2.797105	0.018565	-0.007317	-0.002491	-0.491455	0.10083	-0.647217
68.0	9.628426	0.494773	2.773599	0.013852	-0.002259	-0.003884	-0.491699	0.107422	-0.649658
69.0	9.571502	0.485659	2.757935	0.009925	-0.002506	-0.000535	-0.491699	0.107422	-0.649658
70.0	9.56768	0.499115	2.725158	0.006336	-0.01823	-0.005449	-0.491699	0.105225	-0.6521
71.0	9.568125	0.499517	2.723521	0.005554	-0.01537	0.000421	-0.486816	0.10083	-0.651855
72.0	9.543243	0.435723	2.661975	0.00569	-0.010052	0.002487	-0.491699	0.107422	-0.642822
73.0	9.536561	0.405272	2.705929	0.009409	-0.00845	0.004684	-0.489258	0.10083	-0.651855
74.0	9.548832	0.38046	2.637079	0.018014	-0.009927	0.006531	-0.493652	0.10083	-0.647217
75.0	9.545456	0.372244	2.577008	0.026772	-0.007756	0.008538	-0.489258	0.103027	-0.64502
76.0	9.602619	0.381852	2.591709	0.037562	-0.002804	0.0099	-0.493896	0.103027	-0.654297
77.0	9.59171	0.364745	2.604297	0.046929	-0.005481	0.007774	-0.491455	0.10083	-0.649414
78.0	9.622277	0.374165	2.640544	0.063407	-0.010589	0.011616	-0.496094	0.103027	-0.651855
79.0	9.660771	0.3719	2.576854	0.071624	-0.010263	0.010125	-0.489258	0.103027	-0.649658
80.0	9.649986	0.355466	2.588906	0.077948	-0.0074	0.011336	-0.491455	0.103027	-0.649658
81.0	9.665323	0.361097	2.606715	0.087622	-0.002796	0.009507	-0.491455	0.103027	-0.656494
82.0	9.66081	0.396188	2.60188	0.09261	0.00277	0.014992	-0.49585	0.098633	-0.642334
83.0	9.645526	0.392829	2.583546	0.096844	0.010284	0.011921	-0.489014	0.094238	-0.653809
84.0	9.643908	0.457826	2.666157	0.099603	0.015183	0.011077	-0.49585	0.10083	-0.630859
85.0	9.623759	0.488894	2.644268	0.101231	0.021421	0.008968	-0.487061	0.103027	-0.64502
86.0	9.62316	0.490618	2.646128	0.098936	0.027433	0.010212	-0.489014	0.098633	-0.651855
87.0	9.617862	0.52618	2.643918	0.097386	0.033911	0.009387	-0.489014	0.096436	-0.654053
88.0	9.564054	0.505524	2.663392	0.090086	0.036014	0.007039	-0.493652	0.10083	-0.649414
89.0	9.551588	0.511223	2.706797	0.088033	0.034901	0.009573	-0.491699	0.105225	-0.654297
90.0	9.562346	0.508524	2.668947	0.087144	0.029094	0.009588	-0.491455	0.098633	-0.651855
91.0	9.546495	0.505309	2.652664	0.085283	0.028276	0.00848	-0.489014	0.096436	-0.649414
92.0	9.541273	0.540719	2.650088	0.084726	0.028089	0.006883	-0.486816	0.098633	-0.651855
93.0	9.602475	0.496905	2.645654	0.083198	0.032888	0.004155	-0.491211	0.094238	-0.653809
94.0	9.612204	0.537408	2.662171	0.087106	0.034758	0.002665	-0.489014	0.098633	-0.651855
95.0	9.642374	0.506045	2.648737	0.082159	0.04693	-9.6e-05	-0.486572	0.094238	-0.65625
96.0	9.629956	0.491148	2.666394	0.086048	0.050478	0.000297	-0.489014	0.098633	-0.656494
97.0	9.643726	0.498105	2.689341	0.081581	0.048403	0.000171	-0.484131	0.089844	-0.653809
98.0	9.599449	0.53836	2.750746	0.084759	0.048128	-0.001141	-0.491211	0.094238	-0.65625
99.0	9.572039	0.51896	2.749236	0.081857	0.037879	-0.002308	-0.491211	0.094238	-0.653809
100.0	9.55606	0.516695	2.733334	0.082688	0.027549	-0.00318	-0.48877	0.092041	-0.651611
101.0	9.561873	0.56991	2.717318	0.077763	0.034011	0.000893	-0.490967	0.092041	-0.651611
102.0	9.587786	0.572278	2.69827	0.072193	0.031592	-0.002375	-0.486572	0.092041	-0.651611
103.0	9.563873	0.561627	2.755172	0.066671	0.041258	0.003881	-0.484375	0.092041	-0.651611
104.0	9.547201	0.579695	2.766715	0.059993	0.034479	0.00622	-0.486816	0.096436	-0.660889
105.0	9.546381	0.580731	2.769325	0.055945	0.027264	0.005697	-0.484375	0.094238	-0.65625
106.0	9.539092	0.530594	2.789899	0.049087	0.018536	0.009813	-0.484375	0.096436	-0.654053
107.0	9.523619	0.526075	2.772739	0.046478	0.017284	0.010795	-0.493408	0.092041	-0.653809
108.0	9.515916	0.497088	2.819511	0.039979	0.012475	0.011381	-0.486572	0.094238	-0.653809
109.0	9.469965	0.504234	2.791325	0.035538	0.008734	0.009405	-0.484131	0.089844	-0.656006
110.0	9.52665	0.514266	2.807533	0.033109	0.009441	0.008621	-0.484375	0.092041	-0.65625
111.0	9.484698	0.509417	2.810869	0.029658	-0.000965	0.005939	-0.486816	0.098633	-0.649414
112.0	9.469743	0.504577	2.792016	0.025721	-0.001142	0.009298	-0.490967	0.089844	-0.660645
113.0	9.500008	0.51457	2.828464	0.028084	-0.012262	0.002465	-0.486816	0.096436	-0.649414
114.0	9.496627	0.52714	2.794736	0.02589	-0.018665	0.003046	-0.486572	0.092041	-0.658447
115.0	9.539059	0.532487	2.78965	0.027564	-0.019819	0.005895	-0.484131	0.089844	-0.64917
116.0	9.554687	0.537631	2.806177	0.025709	-0.020623	0.004812	-0.486572	0.092041	-0.653809
117.0	9.555305	0.537716	2.804056	0.025506	-0.020886	0.008457	-0.484375	0.092041	-0.64917
118.0	9.571056	0.542728	2.820216	0.022963	-0.027208	0.003819	-0.484131	0.085449	-0.653564
119.0	9.567265	0.576935	2.812541	0.021604	-0.018767	0.001174	-0.482178	0.094238	-0.65625
120.0	9.568984	0.533548	2.757065	0.012633	-0.01947	0.004752	-0.493408	0.092041	-0.653809
121.0	9.580038	0.572396	2.768693	0.016884	-0.012009	0.001593	-0.49585	0.096436	-0.658691
122.0	9.637789	0.560696	2.756419	0.012716	-0.005068	0.00359	-0.486572	0.089844	-0.658447
123.0	9.625636	0.58736	2.822911	0.015144	-0.005779	0.004367	-0.486572	0.089844	-0.64917
124.0	9.585127	0.538835	2.771806	0.017594	-0.008185	0.003269	-0.486572	0.089844	-0.653809
125.0	9.597018	0.534234	2.730926	0.021092	-0.001165	0.00218	-0.486572	0.092041	-0.653809
126.0	9.581347	0.551555	2.739174	0.013413	0.004434	-0.001626	-0.490967	0.089844	-0.658447
127.0	9.573212	0.544952	2.812459	0.01073	0.01395	-0.0019	-0.490967	0.092041	-0.653809
128.0	9.557788	0.540267	2.795086	0.011653	0.01236	0.003022	-0.489014	0.096436	-0.649414
129.0	9.572552	0.545364	2.814622	0.012247	0.009152	0.000847	-0.481689	0.085449	-0.653564
130.0	9.534267	0.528496	2.850883	0.010349	0.011738	0.003517	-0.490967	0.092041	-0.653809
131.0	9.529495	0.562375	2.846555	0.011102	0.012177	0.001445	-0.48877	0.092041	-0.658447
132.0	9.513548	0.579218	2.855778	0.009596	0.011299	0.005589	-0.495605	0.092041	-0.65625
133.0	9.513222	0.579114	2.856882	0.009225	0.013068	0.00224	-0.48877	0.089844	-0.658447
134.0	9.4748	0.56192	2.893566	0.006	0.016729	0.00728	-0.490967	0.089844	-0.653809
135.0	9.486195	0.556685	2.854614	0.004188	0.012539	0.002455	-0.486328	0.085449	-0.653564
136.0	9.485855	0.556624	2.855755	-0.001951	0.011648	-0.00048	-0.493408	0.092041	-0.65625
137.0	9.505024	0.52778	2.880767	0.00105	0.009423	1e-06	-0.486572	0.094238	-0.658447
138.0	9.550174	0.573714	2.800583	0.002927	0.00853	-0.000795	-0.490967	0.089844	-0.656006
139.0	9.558778	0.506167	2.812319	0.002905	0.010224	0.001078	-0.488525	0.087646	-0.651367
140.0	9.542931	0.523165	2.821155	0.006501	0.004793	-0.000612	-0.490967	0.092041	-0.65625
141.0	9.554012	0.540361	2.80795	0.012661	0.003989	0.000449	-0.486572	0.089844	-0.658447
142.0	9.569456	0.523937	2.800384	0.012451	0.009403	-0.002801	-0.48877	0.089844	-0.656006
143.0	9.622255	0.546295	2.784569	0.015406	0.010567	0.001426	-0.486572	0.094238	-0.653809
144.0	9.580109	0.541461	2.788592	0.018935	0.010218	0.005355	-0.488525	0.087646	-0.653564
145.0	9.591666	0.536699	2.749185	0.019139	0.010473	0.001706	-0.482178	0.094238	-0.653809
146.0	9.602551	0.553965	2.736679	0.019298	0.014116	0.001803	-0.493408	0.092041	-0.651611
147.0	9.590843	0.53736	2.751927	0.023325	0.023006	0.00415	-0.486328	0.087646	-0.651367
148.0	9.573919	0.576516	2.788932	0.024812	0.025572	0.001874	-0.48877	0.089844	-0.656006
149.0	9.558847	0.550355	2.745881	0.02559	0.024311	-0.002072	-0.484375	0.092041	-0.651611
150.0	9.557518	0.57302	2.774808	0.024261	0.025385	0.000293	-0.484375	0.092041	-0.64917
151.0	9.541762	0.568737	2.758658	0.023871	0.028844	-0.00119	-0.489014	0.094238	-0.658447
152.0	9.514113	0.569576	2.782788	0.025017	0.025815	-0.001785	-0.490967	0.089844	-0.653809
153.0	9.552864	0.54372	2.696382	0.022089	0.02295	-0.007885	-0.481689	0.085449	-0.653564
154.0	9.52083	0.57869	2.714801	0.021467	0.027852	-0.003852	-0.488525	0.085449	-0.651367
155.0	9.512502	0.550864	2.763295	0.025905	0.031582	-0.001904	-0.484131	0.089844	-0.656006
156.0	9.511707	0.551875	2.765829	0.026345	0.024728	-0.004162	-0.489014	0.094238	-0.65625
157.0	9.541719	0.540957	2.778367	0.02655	0.01932	-0.000902	-0.486572	0.094238	-0.653809
158.0	9.537553	0.553493	2.747555	0.024902	0.013112	0.001283	-0.488525	0.087646	-0.653564
159.0	9.548484	0.570937	2.734951	0.027902	0.010886	0.001771	-0.484131	0.087646	-0.653564
160.0	9.578736	0.559564	2.746779	0.023182	0.017647	0.002158	-0.484131	0.089844	-0.656006
161.0	9.551332	0.559795	2.77002	0.022945	0.019094	0.007672	-0.486572	0.092041	-0.653809
162.0	9.56586	0.564771	2.790134	0.020934	0.014649	0.006505	-0.484131	0.087646	-0.658203
163.0	9.55499	0.525906	2.778235	0.020775	0.011005	0.006417	-0.484131	0.087646	-0.653564
164.0	9.550297	0.559561	2.773633	0.020748	0.012702	0.008283	-0.486572	0.094238	-0.660889
165.0	9.519338	0.571383	2.764168	0.020387	0.01446	0.004926	-0.484131	0.085449	-0.658203
166.0	9.538371	0.542822	2.789476	0.022106	0.00992	0.004049	-0.493164	0.087646	-0.653564
167.0	9.549375	0.559732	2.776772	0.022626	0.011802	0.007488	-0.484375	0.092041	-0.651611
168.0	9.568442	0.531196	2.801948	0.02529	0.009636	0.002758	-0.484131	0.089844	-0.658447
169.0	9.537618	0.543322	2.791954	0.024346	0.00726	0.006611	-0.488525	0.085449	-0.656006
170.0	9.564381	0.54333	2.770984	0.026957	0.00849	0.005612	-0.486572	0.089844	-0.656006
171.0	9.537284	0.543701	2.793022	0.024945	0.004046	0.004452	-0.484131	0.085449	-0.660645
172.0	9.536521	0.565942	2.819678	0.025332	0.000589	0.005942	-0.486572	0.089844	-0.658447
173.0	9.54853	0.560876	2.779443	0.02849	0.002003	0.006517	-0.481689	0.083252	-0.655762
174.0	9.532861	0.577952	2.787365	0.0216	0.000684	0.005653	-0.48877	0.092041	-0.653809
175.0	9.548484	0.561253	2.779527	0.020121	0.003766	0.001011	-0.486572	0.092041	-0.65625
176.0	9.521488	0.561785	2.801177	0.024785	0.000398	0.004363	-0.486572	0.089844	-0.658447
177.0	9.548412	0.561917	2.779638	0.023092	0.003238	0.003367	-0.483887	0.083252	-0.653564
178.0	9.537084	0.545462	2.793362	0.02609	0.00101	0.003861	-0.490967	0.089844	-0.658447
179.0	9.568361	0.5119	2.777631	0.024398	0.003849	0.002864	-0.486328	0.085449	-0.651367
180.0	9.57515	0.562913	2.758574	0.026437	0.006589	0.002152	-0.490967	0.092041	-0.651611
181.0	9.568037	0.512873	2.778569	0.025864	0.008102	0.00244	-0.481934	0.087646	-0.653564
182.0	9.55144	0.55217	2.813654	0.028048	0.008849	0.008733	-0.48877	0.089844	-0.658447
183.0	9.581855	0.540421	2.824986	0.027529	0.006958	0.005295	-0.484131	0.089844	-0.658447
184.0	9.577304	0.574532	2.819757	0.03014	0.008183	0.004292	-0.486572	0.092041	-0.653809
185.0	9.591959	0.580082	2.839236	0.029728	0.013336	0.004654	-0.48877	0.089844	-0.660645
186.0	9.596649	0.524526	2.819853	0.030434	0.017162	0.0063	-0.486572	0.092041	-0.658447
187.0	9.62644	0.58683	2.748136	0.030809	0.021037	0.002724	-0.481689	0.083252	-0.6604
188.0	9.629345	0.575623	2.782835	0.023069	0.031734	0.004447	-0.486328	0.087646	-0.658203
189.0	9.601398	0.576052	2.80766	0.01966	0.039112	0.004304	-0.486328	0.085449	-0.651367
190.0	9.588311	0.581522	2.851236	0.016886	0.034244	0.005229	-0.481689	0.083252	-0.6604
191.0	9.572454	0.576321	2.835816	0.018737	0.035042	0.006298	-0.484131	0.087646	-0.651367
192.0	9.533954	0.537798	2.847679	0.016369	0.032348	0.001789	-0.486328	0.083252	-0.6604
193.0	9.517403	0.554988	2.858385	0.020454	0.030495	0.005435	-0.481934	0.089844	-0.656006
194.0	9.516582	0.555078	2.8611	0.021027	0.028978	0.005147	-0.486328	0.083252	-0.653564
195.0	9.478286	0.516653	2.872176	0.023318	0.022921	0.004004	-0.48877	0.087646	-0.656006
196.0	9.488211	0.555748	2.886958	0.022555	0.022496	0.006076	-0.484131	0.089844	-0.658447
197.0	9.522513	0.510281	2.90561	0.0237	0.019467	0.005505	-0.484131	0.089844	-0.646729
198.0	9.487168	0.555988	2.890337	0.022232	0.015216	0.005935	-0.481934	0.087646	-0.656006
199.0	9.518058	0.521951	2.876345	0.020513	0.019756	0.006785	-0.486328	0.083252	-0.665039
200.0	9.501927	0.538797	2.885629	0.016431	0.014285	0.008217	-0.484131	0.087646	-0.656006
201.0	9.501604	0.538574	2.886736	0.021306	0.011152	0.007939	-0.490723	0.085449	-0.660645
202.0	9.528376	0.538103	2.866229	0.021306	0.011151	0.007937	-0.486328	0.087646	-0.660645
203.0	9.53239	0.504225	2.873177	0.018883	0.011864	0.007146	-0.48877	0.089844	-0.656006
204.0	9.500728	0.538058	2.889714	0.015696	0.012157	0.008429	-0.488525	0.083252	-0.655762
205.0	9.530861	0.525928	2.902011	0.0179	0.018527	0.007773	-0.484375	0.092041	-0.65625
206.0	9.546111	0.508779	2.895706	0.013495	0.0131	0.003989	-0.481934	0.089844	-0.653809
207.0	9.503934	0.503791	2.899358	0.016105	0.007003	0.00808	-0.484131	0.085449	-0.660645
208.0	9.525695	0.559061	2.899016	0.017382	0.009316	0.009434	-0.481689	0.085449	-0.656006
209.0	9.514039	0.542078	2.91365	0.015153	0.011963	0.00685	-0.481934	0.087646	-0.656006
210.0	9.529444	0.524817	2.906862	0.012568	0.00904	0.005996	-0.483887	0.078857	-0.651123
211.0	9.497861	0.558722	2.923075	0.012568	0.00904	0.005995	-0.486328	0.083252	-0.662842
212.0	9.50988	0.552802	2.883738	0.006223	0.007928	0.006706	-0.484131	0.087646	-0.660645
213.0	9.513147	0.541035	2.916754	0.005712	0.006033	0.003279	-0.484131	0.085449	-0.658203
214.0	9.506852	0.54133	2.826501	0.002085	0.013185	0.006758	-0.484131	0.089844	-0.656006
215.0	9.497845	0.534903	2.899758	0.004752	0.003682	0.007145	-0.479736	0.087646	-0.658203
216.0	9.505744	0.562545	2.853996	-0.00379	0.003515	0.003417	-0.484131	0.089844	-0.653809
217.0	9.490846	0.556861	2.835611	-0.002676	0.002191	0.004709	-0.484131	0.085449	-0.651367
218.0	9.509932	0.5279	2.860441	-0.002646	0.000487	0.002855	-0.486328	0.087646	-0.656006
219.0	9.532733	0.560869	2.833151	-0.003218	0.002001	0.003136	-0.481934	0.087646	-0.656006
220.0	9.537005	0.526815	2.83919	-0.003923	-0.001825	0.001502	-0.482178	0.092041	-0.65625
221.0	9.559765	0.559808	2.812044	-0.003627	0.007152	0.003479	-0.493164	0.087646	-0.658203
222.0	9.563902	0.525667	2.81855	-0.00564	0.002717	0.002345	-0.477539	0.089844	-0.656006
223.0	9.536734	0.525869	2.840276	0.000164	0.003637	6.2e-05	-0.484131	0.087646	-0.656006
224.0	9.548126	0.54241	2.826665	-0.003924	-0.001826	0.001501	-0.481689	0.085449	-0.653564
225.0	9.536692	0.525545	2.840476	0.000705	0.003826	0.001635	-0.481934	0.089844	-0.653809
226.0	9.537466	0.503085	2.814334	-0.001338	0.001095	0.002354	-0.481689	0.083252	-0.662842
227.0	9.52091	0.542235	2.848616	-0.001144	0.003028	0.000562	-0.481934	0.087646	-0.658203
228.0	9.52089	0.54204	2.84872	-0.002074	-0.001027	0.002574	-0.484131	0.085449	-0.651367
229.0	9.554876	0.518218	2.891985	-0.002299	-0.001256	0.00622	-0.479736	0.087646	-0.665283
230.0	9.536669	0.524148	2.84081	-0.003157	-0.001407	-0.000572	-0.484131	0.087646	-0.660645
231.0	9.536701	0.523954	2.840741	-0.000225	-0.000229	0.003646	-0.481934	0.087646	-0.656006
232.0	9.535896	0.545859	2.867101	-0.000225	-0.000229	0.003646	-0.481934	0.087646	-0.653564
233.0	9.566437	0.53355	2.878046	-0.005262	-0.00073	0.003855	-0.484375	0.092041	-0.660889
234.0	9.551659	0.527927	2.859244	-0.005232	-0.002434	0.002001	-0.481934	0.087646	-0.658203
235.0	9.563083	0.544302	2.845575	-0.006181	0.002527	0.000771	-0.488525	0.083252	-0.655762
236.0	9.548159	0.538707	2.82726	-0.00567	0.00442	0.004198	-0.486328	0.087646	-0.658203
237.0	9.567179	0.509668	2.852247	-0.008797	0.00131	0.001771	-0.481689	0.083252	-0.655762
238.0	9.536583	0.521236	2.841634	-0.007866	0.005366	-0.000239	-0.481934	0.089844	-0.660645
239.0	9.537361	0.498683	2.815473	-0.011383	-0.001611	0.000916	-0.483887	0.083252	-0.653564
240.0	9.525178	0.50392	2.855395	-0.001503	-0.002542	0.002291	-0.47998	0.094238	-0.658447
241.0	9.525176	0.503707	2.855439	-0.004873	0.003135	0.000271	-0.481934	0.087646	-0.660645
242.0	9.544193	0.475113	2.880334	-0.001113	0.001325	-0.001292	-0.482178	0.092041	-0.653809
243.0	9.512838	0.509217	2.895828	0.000542	0.000189	0.001573	-0.479736	0.087646	-0.656006
244.0	9.513722	0.48684	2.869278	0.000377	-0.003447	0.00151	-0.479736	0.087646	-0.658203
245.0	9.516387	0.497411	2.927825	0.001655	-0.001136	0.002865	-0.479736	0.087646	-0.660645
246.0	9.513056	0.508818	2.895184	-0.002014	-0.004434	-0.001136	-0.484131	0.087646	-0.660645
247.0	9.541145	0.486034	2.84682	-0.000554	-0.007504	0.00352	-0.484131	0.089844	-0.658447
248.0	9.540524	0.50788	2.872608	0.000724	-0.005192	0.004874	-0.481934	0.087646	-0.656006
249.0	9.570277	0.517967	2.909785	0.0037	0.001595	0.002146	-0.482178	0.092041	-0.65625
250.0	9.556293	0.490359	2.864621	0.000919	-0.003259	0.003083	-0.482178	0.092041	-0.651611
251.0	9.56775	0.506741	2.850854	0.000512	0.001892	0.003427	-0.481689	0.081055	-0.657959
252.0	9.582491	0.511608	2.869927	-0.001745	0.006245	0.002699	-0.479736	0.087646	-0.653564
253.0	9.544667	0.472825	2.879139	-0.003023	0.003934	0.001344	-0.479492	0.083252	-0.6604
254.0	9.567392	0.505904	2.852204	0.000677	0.005528	0.00349	-0.484131	0.087646	-0.662842
255.0	9.525321	0.500837	2.85546	-0.003595	0.005448	0.001626	-0.481934	0.089844	-0.658447
256.0	9.540891	0.483417	2.848114	0.001053	0.002081	0.005	-0.490723	0.085449	-0.656006
257.0	9.498147	0.500615	2.87726	0.001113	-0.001325	0.001292	-0.479736	0.089844	-0.651367
258.0	9.50964	0.517216	2.863361	0.001685	-0.002839	0.00101	-0.481934	0.089844	-0.656006
259.0	9.525388	0.500032	2.855379	0.002226	-0.00265	0.002583	-0.482178	0.092041	-0.65625
260.0	9.499155	0.478071	2.850294	0.00185	0.000797	0.001073	-0.484131	0.087646	-0.660645
261.0	9.499128	0.478064	2.850387	0.003158	0.001406	0.000573	-0.481934	0.089844	-0.660645
262.0	9.53044	0.44387	2.834995	0.002963	-0.000528	0.002365	-0.484375	0.094238	-0.65625
263.0	9.541804	0.460633	2.821504	0.007819	0.005353	-0.001145	-0.484131	0.089844	-0.660645
264.0	9.54433	0.471595	2.880457	0.006151	-0.000825	0.001083	-0.486328	0.087646	-0.656006
265.0	9.578679	0.521684	2.839137	0.009143	-0.003056	0.001594	-0.483887	0.083252	-0.655762
266.0	9.571605	0.471436	2.858387	0.007865	-0.005368	0.000239	-0.486572	0.089844	-0.660645
267.0	9.556103	0.488644	2.865548	0.008407	-0.005179	0.001812	-0.484375	0.094238	-0.65625
268.0	9.567718	0.505353	2.851207	0.00767	-0.007302	0.002031	-0.484131	0.089844	-0.656006
269.0	9.556407	0.488648	2.864532	0.008542	0.000161	0.003727	-0.48877	0.092041	-0.660889
270.0	9.575523	0.459965	2.889089	0.007806	-0.001962	0.003946	-0.486328	0.087646	-0.656006
271.0	9.556553	0.488463	2.864078	0.015836	-0.003695	0.004247	-0.484375	0.094238	-0.653809
272.0	9.530351	0.466626	2.858874	0.012272	5.1e-05	0.004017	-0.479736	0.089844	-0.658447
273.0	9.545217	0.471584	2.877519	0.013897	0.000619	0.008734	-0.479492	0.085449	-0.658203
274.0	9.514753	0.483174	2.866477	0.015235	-0.000478	0.00638	-0.48877	0.092041	-0.663086
275.0	9.499115	0.500179	2.874139	0.01543	0.001454	0.004587	-0.484131	0.087646	-0.656006
276.0	9.511353	0.494566	2.834045	0.016001	-6.1e-05	0.004305	-0.484131	0.089844	-0.653809
277.0	9.526253	0.499682	2.852553	0.012076	-0.001884	0.005808	-0.482178	0.092041	-0.65625
278.0	9.537761	0.516087	2.838619	0.013926	-0.001087	0.006878	-0.486572	0.089844	-0.658447
279.0	9.52556	0.521468	2.878638	0.010934	0.001145	0.006367	-0.484131	0.089844	-0.663086
280.0	9.537858	0.515682	2.838367	0.015834	-0.003701	0.004244	-0.481934	0.089844	-0.658447
281.0	9.534595	0.526933	2.805494	0.014302	-0.004535	0.00839	-0.481934	0.089844	-0.658447
282.0	9.522524	0.532391	2.845076	0.014526	-0.004309	0.004744	-0.479736	0.092041	-0.65625
283.0	9.54898	0.554169	2.849453	0.011368	-0.005713	0.004174	-0.490967	0.087646	-0.660645
284.0	9.549944	0.531649	2.822565	0.01003	-0.004615	0.006527	-0.479736	0.089844	-0.656006
285.0	9.56497	0.536611	2.840691	0.007638	-0.005602	0.003884	-0.481934	0.089844	-0.663086
286.0	9.550294	0.531419	2.821424	0.010283	-0.006094	0.001029	-0.486572	0.092041	-0.65625
287.0	9.535621	0.526211	2.802141	0.002059	-0.006287	0.002526	-0.486572	0.092041	-0.660889
288.0	9.549935	0.553469	2.846386	0.004284	-0.008937	0.005109	-0.486572	0.092041	-0.653809
289.0	9.547554	0.542363	2.786781	0.004508	-0.008711	0.001463	-0.481934	0.089844	-0.658447
290.0	9.528331	0.4978	2.845934	0.004703	-0.00678	-0.00033	-0.486572	0.089844	-0.653809
291.0	9.50952	0.526435	2.820331	0.003228	-0.011023	0.000113	-0.486572	0.092041	-0.65625
292.0	9.517466	0.481389	2.857757	0.003228	-0.011024	0.000113	-0.486572	0.092041	-0.658447
293.0	9.51352	0.515171	2.850815	0.005246	-0.00659	0.00124	-0.484131	0.087646	-0.658203
294.0	9.529407	0.498049	2.842286	0.00377	-0.010834	0.001684	-0.484375	0.094238	-0.65625
295.0	9.529648	0.498282	2.841436	0.004926	-0.006555	-0.003977	-0.484131	0.089844	-0.663086
296.0	9.529849	0.498578	2.840711	0.005816	-0.008106	0.00096	-0.481934	0.089844	-0.656006
297.0	9.545745	0.481625	2.83211	0.008265	-0.010531	-0.000104	-0.486572	0.092041	-0.653809
298.0	9.557488	0.498502	2.817222	0.008836	-0.012047	-0.000384	-0.484375	0.092041	-0.651611
299.0	9.599733	0.503486	2.81329	0.008265	-0.010532	-0.000104	-0.486328	0.087646	-0.656006
300.0	9.585109	0.498567	2.793725	0.010311	-0.007804	-0.00083	-0.48877	0.089844	-0.651367
301.0	9.558225	0.499442	2.814554	0.010478	-0.004166	-0.000773	-0.490967	0.092041	-0.65625
302.0	9.585409	0.499293	2.792567	0.015321	-0.005605	0.000803	-0.484375	0.092041	-0.64917
303.0	9.596927	0.516184	2.778393	0.01361	-0.001057	0.001643	-0.490967	0.092041	-0.660889
304.0	9.542845	0.517391	2.821241	0.01489	0.001255	0.002991	-0.481934	0.087646	-0.653564
305.0	9.584752	0.522309	2.818452	0.014347	0.001064	0.001419	-0.486572	0.089844	-0.656006
306.0	9.558461	0.500692	2.813531	0.017882	-0.000981	0.003498	-0.486572	0.092041	-0.658447
307.0	9.569195	0.539777	2.825822	0.016574	-0.001587	0.004001	-0.486572	0.089844	-0.658447
308.0	9.527373	0.535263	2.828253	0.017171	-0.004811	0.00187	-0.486572	0.092041	-0.653809
309.0	9.516015	0.518896	2.841796	0.01489	0.001253	0.002987	-0.484131	0.089844	-0.653809
310.0	9.530939	0.524483	2.860228	0.015514	-0.003679	-0.000994	-0.486572	0.092041	-0.658447
311.0	9.499826	0.559085	2.875036	0.012134	-0.005304	0.002088	-0.48877	0.087646	-0.656006
312.0	9.516442	0.519802	2.8402	0.016836	-0.012089	0.001758	-0.481934	0.087646	-0.656006
313.0	9.516009	0.542463	2.865422	0.013274	-0.008338	0.001528	-0.486328	0.085449	-0.653564
314.0	9.55542	0.536306	2.803081	0.012704	-0.006822	0.001807	-0.490967	0.089844	-0.653809
315.0	9.528595	0.537179	2.823772	0.014038	-0.007926	-0.000548	-0.484131	0.085449	-0.658203
316.0	9.552363	0.548312	2.769084	0.01216	-0.007015	0.000235	-0.493164	0.089844	-0.651367
317.0	9.594372	0.553228	2.765903	0.006889	0.001288	0.000844	-0.486328	0.087646	-0.658203
318.0	9.595021	0.531199	2.73983	0.007303	0.003437	-0.004598	-0.484131	0.085449	-0.646729
319.0	9.57933	0.548643	2.747671	0.007432	0.00148	0.002414	-0.48877	0.089844	-0.639893
320.0	9.571366	0.520801	2.794011	0.001308	0.000605	-0.000505	-0.48877	0.092041	-0.658447
321.0	9.541535	0.510404	2.756917	0.005775	0.002612	-0.000448	-0.486572	0.089844	-0.660645
322.0	9.567787	0.532536	2.761844	0.005801	0.000903	-0.002298	-0.490967	0.092041	-0.653809
323.0	9.529339	0.516785	2.797076	0.004299	-0.001631	3e-06	-0.486328	0.087646	-0.656006
324.0	9.540869	0.533629	2.782809	0.003615	-0.007171	-0.00347	-0.489014	0.094238	-0.658447
325.0	9.503304	0.495507	2.79126	0.009713	-0.004587	0.001298	-0.484131	0.089844	-0.656006
326.0	9.514859	0.512381	2.776895	0.006774	-0.00577	-0.002909	-0.482178	0.094238	-0.646973
327.0	9.519199	0.47925	2.782523	0.007538	-0.005358	-0.004985	-0.484375	0.092041	-0.653809
328.0	9.515109	0.513374	2.775852	0.007291	-0.003868	0.00051	-0.486572	0.089844	-0.656006
329.0	9.527381	0.507821	2.735234	0.009195	-0.00649	-0.002123	-0.484131	0.087646	-0.656006
330.0	9.560803	0.507346	2.804364	0.007835	-0.003675	0.00208	-0.482178	0.092041	-0.653809
331.0	9.572355	0.523975	2.790025	0.006554	-0.00599	0.000736	-0.488525	0.085449	-0.658203
332.0	9.556951	0.541204	2.796913	0.008238	-0.008831	0.001749	-0.486328	0.087646	-0.656006
333.0	9.576989	0.490515	2.794729	0.00601	-0.006183	-0.000834	-0.490967	0.087646	-0.656006
334.0	9.572983	0.524347	2.787798	0.010089	-0.008034	0.002813	-0.486328	0.085449	-0.653564
335.0	9.577446	0.490601	2.793145	0.003201	-0.009321	0.001973	-0.486572	0.094238	-0.653809
336.0	9.562805	0.485157	2.773666	0.009326	-0.008446	0.004888	-0.490967	0.089844	-0.653809
337.0	9.574335	0.501659	2.759391	0.00931	0.000567	0.001624	-0.486328	0.085449	-0.658203
338.0	9.547382	0.502308	2.780649	0.010257	-0.004396	0.002864	-0.486572	0.092041	-0.651611
339.0	9.562459	0.507526	2.79868	0.010063	-0.006325	0.00466	-0.48877	0.087646	-0.656006
340.0	9.574703	0.501575	2.75813	0.010995	-0.002275	0.002636	-0.484375	0.092041	-0.653809
341.0	9.547762	0.502191	2.779365	0.007265	-0.00216	0.002356	-0.48877	0.089844	-0.658447
342.0	9.558504	0.541267	2.79159	0.01304	0.00045	0.001902	-0.495605	0.092041	-0.653809
343.0	9.551266	0.49119	2.81178	0.010048	0.002687	0.001394	-0.490723	0.085449	-0.658203
344.0	9.52933	0.508345	2.72834	0.00724	-0.000449	0.004204	-0.486328	0.087646	-0.658203
345.0	9.559133	0.518988	2.765575	0.009504	0.002493	-0.000176	-0.479492	0.085449	-0.660645
346.0	9.562618	0.507792	2.798089	0.00724	-0.000449	0.004204	-0.490967	0.089844	-0.653809
347.0	9.559806	0.496494	2.739455	0.008741	0.002082	0.0019	-0.486572	0.089844	-0.653809
348.0	9.554812	0.552607	2.759765	0.005724	0.006031	0.00324	-0.48877	0.089844	-0.653809
349.0	9.585147	0.540692	2.771374	0.005918	0.007958	0.001442	-0.493164	0.085449	-0.651367
350.0	9.573551	0.524229	2.785869	0.004636	0.005643	0.0001	-0.488525	0.087646	-0.648926
351.0	9.582014	0.529534	2.713868	0.00145	0.005953	0.001391	-0.481934	0.089844	-0.656006
352.0	9.573206	0.524103	2.787078	0.002732	0.008268	0.002732	-0.484375	0.094238	-0.658447
353.0	9.572978	0.523921	2.787896	0.000311	0.008988	0.001946	-0.486328	0.085449	-0.658203
354.0	9.542256	0.535643	2.777661	-0.000971	0.006673	0.000605	-0.484131	0.089844	-0.656006
355.0	9.542753	0.513043	2.752205	0.000311	0.008988	0.001946	-0.486328	0.083252	-0.651123
356.0	9.545944	0.501708	2.785691	-6.4e-05	0.012432	0.000425	-0.484131	0.087646	-0.653564
357.0	9.542133	0.512916	2.75438	-0.001916	0.011635	-0.000639	-0.490723	0.085449	-0.656006
358.0	9.557422	0.495868	2.747873	0.001269	0.011324	-0.001929	-0.490723	0.085449	-0.656006
359.0	9.525774	0.530304	2.764521	-0.00158	0.01891	-0.000542	-0.486328	0.083252	-0.653564
360.0	9.570689	0.523941	2.795742	0.000894	0.014767	-0.003451	-0.484375	0.092041	-0.651611
361.0	9.556185	0.496256	2.752102	-0.002111	0.009706	0.001158	-0.484375	0.092041	-0.658447
362.0	9.539615	0.535759	2.786693	-0.000971	0.006672	0.000603	-0.491211	0.094238	-0.658447
363.0	9.528012	0.519097	2.801166	-0.00228	0.006069	0.001109	-0.486572	0.089844	-0.653809
364.0	9.566307	0.534816	2.766525	-0.002849	0.007586	0.001386	-0.484375	0.094238	-0.651611
365.0	9.578254	0.528824	2.727249	-0.000776	0.008599	-0.001196	-0.486328	0.085449	-0.656006
366.0	9.573468	0.489819	2.806887	-0.003962	0.008909	9.2e-05	-0.484375	0.092041	-0.651611
367.0	9.566314	0.512139	2.742899	-0.004532	0.010425	0.000369	-0.490967	0.087646	-0.656006
368.0	9.569389	0.500874	2.776637	-0.00044	0.015873	-0.001099	-0.48877	0.089844	-0.656006
369.0	9.569016	0.500679	2.777957	-0.001596	0.011609	0.004573	-0.484131	0.089844	-0.653809
370.0	9.580045	0.517085	2.765556	0.001607	0.018595	-0.001834	-0.47998	0.094238	-0.65625
371.0	9.553233	0.495417	2.762481	0.002719	0.017271	-0.000541	-0.486572	0.092041	-0.65625
372.0	9.556182	0.48431	2.796547	0.00514	0.016551	0.000247	-0.484375	0.092041	-0.651611
373.0	9.548122	0.529396	2.759393	0.006448	0.017153	-0.000258	-0.484131	0.089844	-0.658447
374.0	9.566639	0.501169	2.786045	0.005308	0.020186	0.000293	-0.486572	0.089844	-0.656006
375.0	9.553971	0.507248	2.82757	0.005542	0.011396	-7.8e-05	-0.48877	0.089844	-0.658447
376.0	9.523946	0.496792	2.791359	0.005542	0.011395	-7.9e-05	-0.486328	0.085449	-0.653564
377.0	9.511381	0.502698	2.832519	0.004747	0.012696	0.003842	-0.486572	0.092041	-0.658447
378.0	9.549639	0.518432	2.798287	0.004037	0.008866	0.002225	-0.481934	0.089844	-0.656006
379.0	9.564238	0.523686	2.817778	0.005345	0.009469	0.00172	-0.484375	0.092041	-0.658447
380.0	9.552434	0.507126	2.83278	0.002523	0.015341	0.001252	-0.484375	0.094238	-0.65625
381.0	9.537206	0.501808	2.815442	0.003663	0.012307	0.0007	-0.48877	0.092041	-0.653809
382.0	9.575378	0.517735	2.781551	0.003832	0.015943	0.000746	-0.484131	0.089844	-0.660645
383.0	9.555985	0.546006	2.757989	-0.003253	0.012735	0.001698	-0.48877	0.089844	-0.658447
384.0	9.562346	0.523543	2.82422	-0.001718	0.013552	-0.002453	-0.490967	0.087646	-0.653564
385.0	9.547133	0.518172	2.806871	-0.001404	0.01353	0.002763	-0.486572	0.089844	-0.658447
386.0	9.535281	0.501344	2.822039	-0.003823	0.01425	0.001971	-0.48877	0.087646	-0.656006
387.0	9.49293	0.496393	2.826185	-0.000665	0.015649	0.002533	-0.484131	0.089844	-0.665283
388.0	9.533709	0.523367	2.850872	0.001616	0.009583	0.001433	-0.48877	0.087646	-0.660645
389.0	9.53757	0.489604	2.858163	0.002355	0.011702	0.001203	-0.486328	0.087646	-0.648926
390.0	9.529748	0.534466	2.820496	0.002355	0.011702	0.001203	-0.48877	0.087646	-0.658203
391.0	9.505674	0.523779	2.875312	0.000307	0.00898	0.001936	-0.484375	0.092041	-0.65625
392.0	9.54916	0.483359	2.820593	0.001111	-0.001323	0.001296	-0.490967	0.092041	-0.651611
393.0	9.529263	0.534221	2.822181	-0.000774	0.008592	-0.001206	-0.484131	0.089844	-0.656006
394.0	9.532355	0.523095	2.855448	0.001646	0.007872	-0.000414	-0.484375	0.092041	-0.65625
395.0	9.562686	0.511324	2.86698	0.001309	0.000603	-0.000504	-0.486572	0.092041	-0.651611
396.0	9.574981	0.505457	2.827018	0.001309	0.000603	-0.000504	-0.482178	0.092041	-0.65625
397.0	9.528771	0.534591	2.823772	-0.000203	0.007076	-0.001481	-0.484131	0.089844	-0.653809
398.0	9.546793	0.528692	2.87531	-0.001879	0.000914	0.000778	-0.486572	0.092041	-0.653809
399.0	9.546752	0.528756	2.875435	0.003927	0.001808	-0.001512	-0.484375	0.092041	-0.65625
400.0	9.520414	0.506955	2.870704	0.002389	0.00099	0.002638	-0.48877	0.089844	-0.651367
401.0	9.535945	0.489696	2.863565	0.000337	0.007269	9e-05	-0.481689	0.085449	-0.656006
402.0	9.505332	0.501501	2.852966	0.006286	0.004507	0.002971	-0.486572	0.092041	-0.653809
403.0	9.520091	0.506708	2.871818	0.008537	0.000152	0.003719	-0.479736	0.089844	-0.658447
404.0	9.531556	0.523079	2.858116	0.007396	0.003185	0.004267	-0.484131	0.089844	-0.656006
405.0	9.565255	0.499929	2.901996	0.010585	0.002873	0.002985	-0.484131	0.087646	-0.656006
406.0	9.500962	0.534906	2.84745	0.011894	0.003475	0.002481	-0.486328	0.087646	-0.656006
407.0	9.547036	0.505961	2.851125	0.008567	-0.001558	0.001874	-0.484131	0.087646	-0.651367
408.0	9.558494	0.522539	2.837412	0.011324	0.004991	0.002754	-0.486572	0.094238	-0.65625
409.0	9.54766	0.483677	2.825613	0.009103	0.007635	0.00016	-0.482178	0.092041	-0.660889
410.0	9.543346	0.517622	2.819822	0.014512	0.004678	0.001472	-0.482178	0.092041	-0.658447
411.0	9.543211	0.517828	2.820241	0.012633	0.005592	0.002249	-0.484375	0.092041	-0.65625
412.0	9.557912	0.523273	2.839237	0.014313	0.002753	0.003272	-0.486572	0.092041	-0.65625
413.0	9.543098	0.518035	2.820585	0.014144	-0.000882	0.003229	-0.481934	0.089844	-0.660645
414.0	9.566891	0.528494	2.766905	0.008135	0.005302	0.004033	-0.477539	0.089844	-0.656006
415.0	9.530535	0.523931	2.861364	0.007764	0.008742	0.002505	-0.482178	0.094238	-0.665527
416.0	9.541897	0.540496	2.847983	0.012464	0.001955	0.002205	-0.484131	0.087646	-0.648926
417.0	9.538604	0.551763	2.815439	0.008566	-0.00156	0.001874	-0.486328	0.087646	-0.660645
418.0	9.543557	0.495662	2.795682	0.007626	0.003396	0.000618	-0.484375	0.094238	-0.65625
419.0	9.557307	0.523595	2.841215	0.007933	0.012375	0.002544	-0.484375	0.092041	-0.663086
420.0	9.527442	0.513091	2.804741	0.010984	0.006716	-0.000623	-0.47998	0.096436	-0.65625
421.0	9.55436	0.512652	2.78416	0.010383	0.009943	0.001493	-0.484131	0.089844	-0.658447
422.0	9.526916	0.513612	2.806432	0.008734	0.011069	-0.001376	-0.481934	0.089844	-0.658447
423.0	9.542288	0.496675	2.799831	0.01522	0.008501	0.003079	-0.486572	0.092041	-0.660889
424.0	9.526437	0.514185	2.807952	0.010444	0.006519	-0.002194	-0.484375	0.094238	-0.658447
425.0	9.549261	0.547462	2.780893	0.009643	0.007824	0.001723	-0.484375	0.094238	-0.651611
426.0	9.551444	0.559002	2.840339	0.010382	0.009941	0.00149	-0.484131	0.089844	-0.656006
427.0	9.556204	0.502993	2.821305	0.009674	0.006112	-0.00012	-0.484375	0.092041	-0.65625
428.0	9.566659	0.542333	2.834222	0.010413	0.008229	-0.000353	-0.490967	0.087646	-0.653564
429.0	9.540142	0.520671	2.830084	0.008333	0.007222	0.002226	-0.484131	0.085449	-0.656006
430.0	9.539883	0.521007	2.830896	0.007657	0.010675	-0.004522	-0.484131	0.085449	-0.658203
431.0	9.554406	0.52681	2.850361	0.011522	0.006907	0.000945	-0.481934	0.089844	-0.656006
432.0	9.543494	0.487975	2.838917	0.005545	0.011381	-0.000101	-0.484375	0.092041	-0.646973
433.0	9.542333	0.510722	2.865982	0.008534	0.009143	0.000421	-0.484375	0.092041	-0.653809
434.0	9.554458	0.50484	2.826884	0.006115	0.009863	-0.000373	-0.484131	0.087646	-0.658203
435.0	9.527013	0.505838	2.849033	0.007995	0.008947	-0.001149	-0.484131	0.089844	-0.651367
436.0	9.553961	0.50536	2.82847	0.007794	0.007026	0.000654	-0.484375	0.092041	-0.65625
437.0	9.565294	0.521922	2.81526	0.008332	0.007221	0.002225	-0.486328	0.087646	-0.660645
438.0	9.537974	0.522848	2.836982	0.010815	0.003076	-0.000663	-0.484131	0.085449	-0.648926
439.0	9.557636	0.472323	2.836293	0.010244	0.004592	-0.000393	-0.486572	0.094238	-0.653809
440.0	9.5418	0.489681	2.844311	0.007762	0.008737	0.002494	-0.481934	0.087646	-0.656006
441.0	9.525998	0.506818	2.852249	0.011119	0.003063	0.004552	-0.479736	0.092041	-0.65625
442.0	9.580209	0.505176	2.810257	0.010148	0.009728	0.005128	-0.486572	0.092041	-0.658447
443.0	9.5526	0.505523	2.833033	0.007434	0.022655	0.008355	-0.491211	0.096436	-0.654053
444.0	9.581376	0.515478	2.873062	0.00398	0.033464	0.011813	-0.484131	0.087646	-0.656006
445.0	9.641991	0.468039	2.873408	-0.005417	0.047033	0.012376	-0.484131	0.087646	-0.656006
446.0	9.775219	0.390357	2.858723	-0.009163	0.079026	0.016536	-0.482178	0.092041	-0.660889
447.0	9.880302	0.312616	2.868653	-0.03101	0.111807	0.020778	-0.484131	0.085449	-0.660645
448.0	10.023804	0.227413	2.822486	-0.050243	0.174421	0.015884	-0.482178	0.092041	-0.660889
449.0	10.055522	0.223905	3.004182	-0.068986	0.229892	0.017633	-0.482178	0.092041	-0.663086
450.0	9.980789	0.345145	3.076371	-0.08624	0.227568	0.011801	-0.477295	0.087646	-0.662842
451.0	9.959516	0.453573	3.045639	-0.11335	0.185419	0.0034	-0.475098	0.087646	-0.669922
452.0	10.055114	0.480556	2.883344	-0.148482	0.185827	-0.004261	-0.482178	0.092041	-0.663086
453.0	10.067234	0.413971	2.845453	-0.190147	0.23269	-0.002836	-0.477783	0.096436	-0.66333
454.0	9.887052	0.328073	2.930894	-0.230833	0.262132	-0.000635	-0.473145	0.096436	-0.670166
455.0	9.743023	0.268459	2.949454	-0.25665	0.252264	-0.00542	-0.473145	0.096436	-0.667969
456.0	9.682471	0.174062	2.818999	-0.27191	0.245237	-0.007153	-0.475586	0.098633	-0.665771
457.0	9.590236	0.147514	2.788462	-0.283948	0.268192	-0.016343	-0.471191	0.098633	-0.665771
458.0	9.481093	0.053075	2.882213	-0.306334	0.270546	-0.025829	-0.468994	0.10083	-0.668213
459.0	9.357583	-0.046339	2.954896	-0.318837	0.252624	-0.037987	-0.468994	0.101074	-0.67749
460.0	9.278187	-0.054369	2.906694	-0.328026	0.211454	-0.050415	-0.467041	0.107666	-0.666016
461.0	9.278224	0.003837	2.874399	-0.332533	0.19356	-0.0603	-0.468994	0.105469	-0.670654
462.0	9.196594	0.03186	2.816321	-0.348379	0.183028	-0.072814	-0.467041	0.107666	-0.673096
463.0	9.131548	0.053369	2.808802	-0.361299	0.17195	-0.082951	-0.464844	0.109863	-0.677734
464.0	9.072911	0.020178	2.77818	-0.374969	0.151819	-0.09674	-0.462402	0.109863	-0.675293
465.0	9.078863	-0.08784	2.657168	-0.379604	0.153701	-0.116585	-0.464844	0.109863	-0.673096
466.0	9.077075	-0.226758	2.671499	-0.370726	0.156294	-0.132511	-0.464844	0.114258	-0.670898
467.0	9.161524	-0.255984	2.629702	-0.361218	0.159513	-0.155698	-0.467041	0.109863	-0.675293
468.0	9.250156	-0.316188	2.593691	-0.346277	0.175783	-0.176744	-0.464844	0.112061	-0.675537
469.0	9.37464	-0.320993	2.522639	-0.320903	0.202505	-0.204601	-0.464844	0.114258	-0.677979
470.0	9.531682	-0.351376	2.590191	-0.301234	0.237698	-0.242387	-0.456055	0.118652	-0.682617
471.0	9.672397	-0.368486	2.610099	-0.269902	0.272891	-0.27726	-0.458252	0.118652	-0.689697
472.0	9.795468	-0.250707	2.707249	-0.246128	0.300876	-0.307993	-0.455811	0.112061	-0.677734
473.0	9.819384	-0.13888	2.695453	-0.222764	0.294891	-0.334806	-0.460449	0.112061	-0.687012
474.0	9.850676	0.027976	2.665926	-0.197664	0.257751	-0.358278	-0.455811	0.114258	-0.680176
475.0	10.038804	0.189732	2.680671	-0.193202	0.256322	-0.367549	-0.451416	0.112061	-0.687012
476.0	10.081931	0.364706	2.671812	-0.188126	0.270562	-0.363932	-0.448975	0.109863	-0.684814
477.0	10.099385	0.589894	2.819472	-0.213712	0.289656	-0.36012	-0.448975	0.107666	-0.69165
478.0	9.92154	0.693693	2.796892	-0.205603	0.324559	-0.349593	-0.446777	0.112061	-0.684814
479.0	9.914429	0.781233	2.873106	-0.192144	0.302097	-0.346953	-0.446777	0.107666	-0.693848
480.0	10.187785	0.983406	2.950316	-0.149493	0.348992	-0.347676	-0.442383	0.112061	-0.689453
481.0	10.280146	1.293789	3.127595	-0.100493	0.453517	-0.335699	-0.442383	0.112061	-0.69165
482.0	9.909031	1.3165	3.433996	-0.029992	0.566835	-0.325483	-0.4375	0.105469	-0.703125
483.0	9.405906	1.180652	3.624013	0.092188	0.652098	-0.312617	-0.4375	0.105469	-0.700684
484.0	8.738038	1.20541	3.90575	0.218697	0.72301	-0.285886	-0.430664	0.101074	-0.698242
485.0	7.937263	1.173685	4.067775	0.325653	0.775046	-0.194971	-0.423828	0.101318	-0.705322
486.0	6.93575	1.050709	3.979727	0.412533	0.754479	-0.012924	-0.423828	0.101318	-0.70752
487.0	5.764756	0.781216	3.633073	0.511135	0.705279	0.290277	-0.416504	0.088135	-0.71167
488.0	5.28164	0.307242	3.265789	0.613574	0.542211	0.666861	-0.416748	0.092529	-0.716553
489.0	4.954463	0.091647	2.914252	0.731865	0.587955	1.049543	-0.412354	0.092529	-0.723633
490.0	6.169765	-0.29937	2.872086	0.724466	0.634379	1.331555	-0.405762	0.099121	-0.726074
491.0	8.154727	-0.064576	3.143373	0.790587	0.736616	1.528888	-0.401367	0.099121	-0.721436
492.0	9.284707	0.274998	3.228737	0.887614	0.824249	1.646007	-0.396729	0.101318	-0.72168
493.0	10.460353	-0.564768	3.626286	0.794892	0.645641	1.628193	-0.389893	0.099121	-0.733154
494.0	11.953139	-1.952429	3.729849	0.706639	0.256776	1.402331	-0.396973	0.105713	-0.72876
495.0	13.209722	-2.058316	3.582837	0.859163	-0.099507	0.963571	-0.396973	0.103516	-0.726318
496.0	14.449543	-0.419152	3.508327	0.959085	-0.579675	0.430401	-0.401123	0.094727	-0.728271
497.0	15.219631	1.292623	1.984958	0.855647	-0.743611	-0.064655	-0.398682	0.090332	-0.723389
498.0	13.354686	3.216932	0.123892	0.748089	-0.218977	-0.257141	-0.405273	0.088135	-0.72583
499.0	11.617392	3.493023	0.827746	0.472468	0.5231	-0.228265	-0.395752	0.077148	-0.725342
500.0	10.255273	2.209255	2.424812	0.352913	0.89244	-0.201482	-0.38916	0.079346	-0.72998
501.0	9.079579	1.875234	3.470631	0.382056	0.65952	-0.19557	-0.380127	0.079346	-0.723145
502.0	9.189826	1.373525	3.123914	0.310342	0.265106	-0.215018	-0.38208	0.072754	-0.732178
503.0	9.374125	1.367063	2.441686	0.35116	0.199511	-0.270945	-0.386719	0.072754	-0.732178
504.0	9.220224	1.311709	2.421212	0.239587	0.276859	-0.323527	-0.381836	0.066162	-0.731934
505.0	8.65146	1.130626	2.638069	0.167841	0.27359	-0.39989	-0.375	0.061768	-0.736328
506.0	8.273067	1.098368	2.815764	0.09202	0.108848	-0.468161	-0.379639	0.063965	-0.727051
507.0	8.263733	1.067758	2.668416	0.043552	-0.077838	-0.545643	-0.379395	0.057373	-0.733887
508.0	8.270024	1.400948	2.306797	0.019971	-0.203424	-0.588169	-0.381348	0.055176	-0.726807
509.0	8.495729	1.635336	1.966203	-0.047812	-0.198	-0.576999	-0.385986	0.055176	-0.729248
510.0	8.821895	1.508011	1.858024	-0.129906	-0.113138	-0.534763	-0.381348	0.052979	-0.731445
511.0	8.911234	1.480842	1.969402	-0.163722	0.015913	-0.469025	-0.381104	0.048584	-0.729004
512.0	8.840863	1.305399	2.01901	-0.223052	0.099116	-0.409213	-0.381348	0.052979	-0.726807
513.0	8.70291	1.200938	2.202104	-0.267001	0.180657	-0.340189	-0.374512	0.052979	-0.726807
514.0	8.338524	0.906217	2.335429	-0.315513	0.201203	-0.271089	-0.374756	0.055176	-0.731445
515.0	7.888044	0.774362	2.401294	-0.327937	0.15033	-0.220935	-0.374756	0.055176	-0.729248
516.0	7.516349	0.598976	2.346339	-0.375738	0.083182	-0.185545	-0.374756	0.05957	-0.729248
517.0	7.366688	0.34959	2.333199	-0.386337	-0.009504	-0.162447	-0.376953	0.055176	-0.726807
518.0	7.758495	0.229862	2.447524	-0.372877	-0.128808	-0.168496	-0.372559	0.05957	-0.722412
519.0	8.331467	0.357552	2.444126	-0.339288	-0.216609	-0.176539	-0.372314	0.055176	-0.722168
520.0	8.924894	0.468235	2.175792	-0.327921	-0.209144	-0.208385	-0.375	0.061768	-0.724854
521.0	9.178849	0.82868	2.385561	-0.326841	-0.120634	-0.221736	-0.376953	0.055176	-0.722168
522.0	9.473954	1.042193	2.790742	-0.335206	-0.13925	-0.248754	-0.372803	0.061768	-0.713135
523.0	9.821777	1.243406	2.770213	-0.347974	-0.233179	-0.283412	-0.379395	0.061768	-0.717773
524.0	10.052749	1.647337	2.492686	-0.355482	-0.274091	-0.307094	-0.375	0.061768	-0.710938
525.0	10.311832	2.006266	2.384526	-0.395333	-0.240865	-0.31896	-0.377197	0.063965	-0.715576
526.0	10.180985	1.921744	2.27066	-0.396256	-0.177702	-0.351825	-0.377441	0.066162	-0.70874
527.0	10.16246	2.227878	2.504453	-0.389401	-0.175337	-0.377407	-0.377197	0.061768	-0.708496
528.0	10.364081	1.956041	2.525523	-0.431043	-0.190569	-0.405606	-0.377441	0.070557	-0.704102
529.0	10.614485	1.655043	2.697319	-0.390041	-0.200179	-0.446963	-0.377441	0.066162	-0.70874
530.0	11.130112	1.665244	2.467493	-0.319627	-0.277918	-0.475788	-0.379639	0.066162	-0.70874
531.0	11.675178	2.119093	2.152549	-0.262607	-0.277325	-0.460816	-0.377441	0.066162	-0.70166
532.0	12.043332	2.473461	2.014747	-0.232604	-0.250702	-0.412924	-0.372559	0.057373	-0.701416
533.0	12.279133	2.183892	2.091307	-0.230687	-0.290484	-0.36116	-0.379639	0.063965	-0.703857
534.0	12.401225	1.782804	1.962506	-0.208547	-0.424658	-0.331287	-0.379639	0.063965	-0.697021
535.0	12.480904	1.573801	1.444687	-0.226154	-0.546972	-0.303577	-0.381592	0.061768	-0.699219
536.0	12.833605	1.158047	0.873109	-0.250274	-0.635807	-0.267146	-0.385986	0.05957	-0.689941
538.0	13.627022	0.947948	0.428404	-0.239608	-0.684292	-0.203628	-0.38623	0.063965	-0.687744
540.0	13.975271	0.839822	0.074736	-0.205734	-0.334216	-0.080298	-0.393066	0.066162	-0.685547
541.0	14.111201	1.084214	2.7418	0.029092	0.69044	0.054763	-0.377197	0.063965	-0.685303
542.0	12.402425	-0.43594	5.488879	0.069371	1.123218	0.111271	-0.377197	0.061768	-0.685303
543.0	10.103963	-1.689341	5.363527	0.071681	0.486185	0.072447	-0.372559	0.061768	-0.692139
544.0	9.156454	-0.506398	5.853756	0.297747	0.154169	0.064666	-0.377197	0.061768	-0.685303
545.0	8.014684	0.324583	7.157635	0.334789	0.142181	0.118218	-0.370361	0.05957	-0.692139
546.0	6.616004	0.716592	7.88174	0.351809	-0.053411	0.183042	-0.370361	0.061768	-0.689941
547.0	6.318433	0.109789	7.92318	0.262328	-0.342627	0.212534	-0.372559	0.05957	-0.692139
548.0	6.160668	0.232025	6.792335	0.359161	-0.498793	0.184448	-0.372314	0.055176	-0.687256
549.0	6.310124	1.164098	5.889044	0.365333	-0.441439	0.126596	-0.37207	0.048584	-0.682373
550.0	6.850483	1.541494	5.868398	0.2795	-0.255639	0.013739	-0.37207	0.048584	-0.689453
551.0	7.613702	1.554705	6.232234	0.252596	-0.15052	-0.126854	-0.374512	0.050781	-0.691895
552.0	8.529191	1.903394	6.326152	0.287245	-0.157256	-0.328439	-0.376709	0.050781	-0.680176
553.0	9.665676	2.663661	6.167121	0.287709	-0.175817	-0.467718	-0.376709	0.048584	-0.687012
554.0	10.230635	2.870796	5.567825	0.17933	-0.131099	-0.528805	-0.374023	0.041748	-0.675293
555.0	9.510264	2.946305	5.058424	0.136252	0.017693	-0.541252	-0.374023	0.039551	-0.68457
556.0	9.438772	3.891894	5.680514	0.061057	-0.148994	-0.340338	-0.373779	0.035156	-0.677246
557.0	9.663481	3.091066	4.711122	-0.275378	-0.237562	-0.162513	-0.376465	0.041748	-0.679932
558.0	9.745998	3.133088	4.492431	-0.327397	-0.253992	0.008409	-0.374268	0.046387	-0.684814
559.0	8.780419	2.119434	3.634054	-0.554738	-0.162245	0.092893	-0.378906	0.04834	-0.670898
560.0	8.268125	1.614045	3.672687	-0.580756	-0.099268	0.063088	-0.37207	0.046387	-0.675537
561.0	7.59982	1.107133	3.364273	-0.704717	-0.061249	0.02322	-0.37915	0.055176	-0.682617
562.0	7.905428	0.649846	3.280495	-0.718623	-0.174589	-0.004404	-0.372559	0.057373	-0.678223
563.0	7.667203	-0.134224	2.606745	-0.761615	-0.174289	-0.009431	-0.372559	0.061768	-0.682861
564.0	7.182201	-0.479265	2.274842	-0.668437	-0.044793	-0.023988	-0.372803	0.066162	-0.680908
565.0	6.828402	-0.725608	2.278559	-0.610795	0.005546	-0.014673	-0.370605	0.066162	-0.685547
566.0	6.442674	-0.934968	2.202073	-0.437182	-0.072507	0.026078	-0.375244	0.070557	-0.680908
567.0	6.560122	-1.011025	2.195376	-0.260066	-0.246087	0.10679	-0.368652	0.072754	-0.678711
568.0	6.898294	-0.978884	1.99191	-0.13294	-0.418685	0.178445	-0.377686	0.072754	-0.671875
569.0	7.370389	-0.740109	1.676758	0.008415	-0.442965	0.253915	-0.373047	0.070557	-0.680908
570.0	7.606301	-0.55556	1.633258	0.091291	-0.302134	0.317316	-0.379883	0.072754	-0.674072
571.0	7.71589	-0.304559	1.802419	0.157482	-0.190106	0.392667	-0.377686	0.072754	-0.671875
572.0	7.418595	-0.199619	1.764065	0.222212	-0.163853	0.428305	-0.37793	0.079346	-0.674316
573.0	7.645756	0.252754	1.694879	0.307321	-0.296049	0.418261	-0.373047	0.072754	-0.676514
574.0	7.931121	0.586405	1.579979	0.335881	-0.396137	0.40114	-0.384521	0.074951	-0.674072
575.0	8.321704	0.925786	1.359293	0.377713	-0.431912	0.361489	-0.384277	0.070557	-0.669434
576.0	8.675436	1.144853	1.215973	0.323462	-0.419432	0.325934	-0.384521	0.079346	-0.665039
577.0	8.854479	0.906292	1.063855	0.297112	-0.369505	0.285673	-0.391113	0.070313	-0.664795
578.0	9.093515	0.682188	1.286847	0.335705	-0.384965	0.22634	-0.386719	0.072754	-0.660156
579.0	9.196631	0.450271	1.211079	0.344004	-0.433194	0.162364	-0.388916	0.072754	-0.669434
580.0	9.225849	0.311126	1.099818	0.384003	-0.404	0.11956	-0.384277	0.072754	-0.664795
581.0	9.454723	0.324306	1.390993	0.42741	-0.334172	0.087232	-0.386719	0.072754	-0.664795
582.0	10.053948	0.609605	1.963098	0.460144	-0.372461	0.091458	-0.393311	0.068115	-0.659912
583.0	11.064932	0.947849	2.287535	0.460709	-0.508136	0.136924	-0.390869	0.068115	-0.650635
584.0	12.045177	1.057904	2.251622	0.420751	-0.542574	0.201485	-0.390869	0.063721	-0.655273
585.0	12.658403	1.101672	1.96232	0.36491	-0.427843	0.297229	-0.397705	0.065918	-0.650635
586.0	13.969331	1.003957	2.013163	0.300481	-0.435876	0.348902	-0.397461	0.061523	-0.650391
587.0	14.025717	0.852428	1.399066	0.225742	-0.328118	0.373503	-0.393066	0.068115	-0.650635
588.0	14.575636	0.697812	1.264672	0.198487	-0.356519	0.393192	-0.397705	0.068115	-0.650635
589.0	14.691196	0.584207	0.772663	0.191933	-0.397758	0.390324	-0.395264	0.063721	-0.655273
590.0	14.703323	0.578781	-0.025789	0.272195	-0.411644	0.363585	-0.395508	0.07251	-0.641602
591.0	14.515818	0.921612	-0.491702	0.35672	-0.285708	0.324272	-0.399902	0.068115	-0.655273
592.0	13.642311	1.152287	-0.40074	0.346294	0.124249	0.295024	-0.397705	0.070313	-0.660156
593.0	13.397396	-0.037103	2.668033	0.346521	0.962792	0.34511	-0.391113	0.070313	-0.655518
594.0	12.103507	0.255388	6.631279	0.691648	1.375467	0.419441	-0.384277	0.070557	-0.662354
595.0	10.055289	2.46356	8.377793	0.778524	0.711689	0.475667	-0.381836	0.068359	-0.662354
596.0	9.533058	3.493299	7.681341	0.506055	0.256552	0.56416	-0.386475	0.070557	-0.671631
597.0	8.621905	3.563441	6.954121	0.155124	0.18567	0.693593	-0.37793	0.079346	-0.669678
598.0	6.854289	2.731431	6.460644	-0.080133	0.261767	0.72066	-0.373291	0.074951	-0.669434
599.0	5.676375	2.189672	6.719995	-0.224867	0.248225	0.713004	-0.37793	0.08374	-0.672119
600.0	5.934697	0.816002	6.09389	-0.367914	-0.004464	0.684365	-0.378418	0.092529	-0.670166
601.0	6.517583	-0.069097	4.837231	-0.253149	-0.024281	0.677625	-0.376221	0.096924	-0.672607
602.0	7.244587	-0.219686	4.929276	-0.167814	0.120119	0.663448	-0.374268	0.101318	-0.672852
603.0	8.076919	-0.720589	5.129195	-0.21474	0.15537	0.657392	-0.372314	0.10791	-0.673096
604.0	8.98214	-1.192759	5.326644	-0.129941	0.203872	0.668477	-0.365479	0.110352	-0.673096
605.0	9.854802	-1.350092	5.500889	-0.056291	0.324527	0.732184	-0.365723	0.112549	-0.675537
606.0	11.037189	-1.800517	5.073011	0.014691	0.256739	0.745722	-0.370361	0.119141	-0.675781
607.0	10.995106	-1.759447	4.360526	0.159948	0.299282	0.671277	-0.366211	0.123535	-0.682861
608.0	10.083397	-1.73561	3.847559	0.190472	0.33843	0.51835	-0.365967	0.119141	-0.675781
609.0	9.438384	-1.595735	3.882175	0.27007	0.203496	0.291402	-0.361328	0.114746	-0.694336
610.0	8.879698	-1.045005	3.516739	0.365345	0.014509	0.053372	-0.36377	0.121338	-0.682861
611.0	8.220586	-0.204768	3.026907	0.356662	-0.015945	-0.084318	-0.363525	0.116943	-0.682617
612.0	7.949962	0.696329	2.733436	0.369153	0.076164	-0.146189	-0.356934	0.119141	-0.685059
613.0	7.511563	1.36786	2.552287	0.337128	0.276028	-0.173808	-0.356689	0.114746	-0.685059
614.0	7.421279	1.811737	2.883658	0.313845	0.329162	-0.224175	-0.356934	0.116943	-0.691895
615.0	7.127996	2.114315	2.842532	0.273264	0.337076	-0.257002	-0.354736	0.121338	-0.685303
616.0	7.387326	1.979177	2.955784	0.17021	0.247592	-0.29801	-0.358887	0.110352	-0.680176
617.0	7.477308	1.45968	2.800906	0.073129	0.169188	-0.378899	-0.352295	0.114746	-0.682617
618.0	7.252764	1.632147	2.617138	0.068286	0.132572	-0.439954	-0.356689	0.110352	-0.684814
619.0	7.057493	1.537681	2.422775	-0.061363	0.126593	-0.476584	-0.358887	0.112549	-0.689453
620.0	7.020967	0.902937	2.388185	-0.115301	0.092158	-0.527669	-0.349854	0.108154	-0.69165
621.0	7.018544	0.872061	2.409188	-0.115007	0.038079	-0.585662	-0.354492	0.114746	-0.691895
622.0	7.155008	0.769728	2.294621	-0.203076	-0.061413	-0.613175	-0.350098	0.114746	-0.691895
623.0	7.65324	0.654189	2.060586	-0.232335	-0.15948	-0.635272	-0.361084	0.110352	-0.684814
624.0	8.20102	0.666611	1.783689	-0.271884	-0.234433	-0.634818	-0.354492	0.114746	-0.685059
625.0	8.708353	0.721733	1.277429	-0.331129	-0.241488	-0.613523	-0.356689	0.114746	-0.689697
626.0	8.885892	0.714882	1.09878	-0.405812	-0.156013	-0.567274	-0.352295	0.112549	-0.694092
627.0	8.687781	0.568923	1.213328	-0.492295	-0.081103	-0.516725	-0.356934	0.121338	-0.6875
628.0	8.335905	0.037219	1.295433	-0.58746	-0.120521	-0.483031	-0.359375	0.121338	-0.682861
629.0	8.23693	-0.052786	1.350761	-0.573662	-0.234906	-0.448075	-0.359375	0.123535	-0.685303
630.0	8.194413	-0.09135	1.196998	-0.631736	-0.29563	-0.4157	-0.359375	0.125732	-0.680664
631.0	8.292193	0.44248	1.098277	-0.582296	-0.194457	-0.350361	-0.359619	0.130127	-0.678467
632.0	8.88853	1.052729	1.708585	-0.552275	-0.077649	-0.254366	-0.362061	0.134521	-0.680908
633.0	9.644591	1.177992	2.227354	-0.513916	0.001365	-0.187834	-0.357666	0.136719	-0.678711
634.0	10.92094	1.32146	2.905536	-0.412706	-0.055179	-0.173992	-0.355469	0.141113	-0.686035
635.0	11.771287	1.638796	3.073144	-0.312168	0.009945	-0.088116	-0.360107	0.141113	-0.678955
636.0	12.486544	1.465588	3.216219	-0.27177	0.032476	0.032134	-0.358154	0.149902	-0.674561
637.0	13.298386	0.352674	3.310986	-0.235958	-0.037217	0.08819	-0.360352	0.149902	-0.679199
638.0	14.034442	-0.741943	2.892756	-0.21454	-0.214383	0.026295	-0.358398	0.154297	-0.679443
639.0	14.272958	-1.089017	1.917337	-0.160785	-0.296127	-0.074438	-0.358154	0.1521	-0.672363
640.0	14.156772	-0.758814	1.52406	-0.125174	-0.233492	-0.146989	-0.362793	0.1521	-0.677002
641.0	13.221502	-0.400826	1.299267	-0.126168	-0.087309	-0.152777	-0.367432	0.156494	-0.674805
642.0	12.372414	0.111353	1.356964	-0.194672	0.035952	-0.144292	-0.363281	0.163086	-0.668213
643.0	12.163077	0.948222	2.941471	-0.171433	0.402344	-0.160185	-0.35376	0.154297	-0.674805
644.0	11.768323	1.89776	5.815798	0.079352	0.920221	-0.175518	-0.354004	0.161133	-0.67749
645.0	10.580872	1.652047	7.45212	0.09242	0.825501	-0.214708	-0.349365	0.152344	-0.684082
646.0	9.320341	1.701787	8.490545	0.356721	0.548782	-0.378624	-0.349609	0.158936	-0.681885
647.0	8.13992	1.764783	8.380907	0.303757	0.004825	-0.534851	-0.349365	0.156738	-0.688721
648.0	7.975434	1.197916	8.514017	0.228585	-0.244726	-0.635636	-0.349365	0.154541	-0.684082
649.0	6.937142	0.799598	8.153545	0.174507	-0.364956	-0.645538	-0.354004	0.156738	-0.681885
650.0	6.760461	0.075574	7.482096	0.044013	-0.548145	-0.605405	-0.351563	0.152344	-0.681641
651.0	7.085472	-0.296406	6.242985	0.036071	-0.491867	-0.549791	-0.364746	0.147705	-0.676758
652.0	6.779774	0.099313	5.167981	0.03635	-0.201518	-0.490421	-0.360352	0.145508	-0.676758
653.0	6.97071	0.270204	5.15344	-0.032853	0.134321	-0.451761	-0.362549	0.145508	-0.679199
654.0	7.764963	0.627742	6.138793	0.098167	0.294149	-0.403077	-0.362549	0.145508	-0.674561
655.0	8.480693	0.834528	6.769411	0.164828	0.031686	-0.370208	-0.360107	0.141113	-0.676514
656.0	11.31207	1.132537	6.591507	0.354438	-0.668466	-0.354401	-0.366699	0.138916	-0.674316
657.0	13.476117	2.361073	4.820455	0.346022	-0.975703	-0.316391	-0.373779	0.145508	-0.669922
658.0	13.518902	3.086453	2.709546	0.107201	-0.579248	-0.228217	-0.369141	0.141113	-0.667236
659.0	12.94178	2.988823	2.761896	-0.157173	-0.009257	-0.122229	-0.373779	0.143311	-0.669678
660.0	10.081867	2.033751	3.102454	-0.30613	0.243561	-0.048058	-0.369385	0.145508	-0.674561
661.0	7.637468	1.35279	3.256484	-0.296028	0.143432	-0.001392	-0.373779	0.143311	-0.672119
662.0	7.960858	0.616914	3.439225	-0.313719	-0.295876	0.021122	-0.376221	0.149902	-0.669922
663.0	7.437518	-0.009754	2.260772	-0.321203	-0.345366	0.040424	-0.376465	0.154297	-0.672363
664.0	7.810221	-0.752851	1.723383	-0.365901	-0.248058	-0.035347	-0.378662	0.154297	-0.667725
665.0	8.19421	-0.439207	1.875695	-0.208713	-0.050307	-0.000414	-0.371582	0.149902	-0.667725
666.0	7.791931	-0.304141	2.070787	-0.222083	-0.048791	0.098045	-0.374023	0.154297	-0.665527
667.0	7.593932	-0.756576	1.778407	-0.16729	-0.105452	0.15924	-0.376465	0.158691	-0.665771
668.0	7.222052	-0.347822	1.778617	0.010261	-0.180881	0.219932	-0.378906	0.160889	-0.67041
669.0	6.779414	-0.155107	1.492229	0.030605	-0.247411	0.257162	-0.37915	0.16748	-0.666016
670.0	6.965078	-0.009615	1.240998	0.147394	-0.354835	0.275474	-0.381348	0.165283	-0.670654
671.0	7.346316	0.387003	0.989607	0.234832	-0.403224	0.280654	-0.385742	0.165283	-0.668213
672.0	7.321408	0.633252	0.512341	0.252719	-0.258284	0.292074	-0.381348	0.165283	-0.668213
673.0	7.174909	0.707157	0.362219	0.264187	-0.079595	0.272852	-0.381348	0.165283	-0.668213
674.0	7.062349	0.693825	0.407104	0.27604	0.020754	0.23142	-0.381348	0.16748	-0.663574
675.0	7.201293	0.726897	0.540553	0.29427	-0.01224	0.183806	-0.381104	0.160889	-0.667969
676.0	7.38515	0.806371	0.441111	0.339754	-0.087864	0.148176	-0.385742	0.165283	-0.661133
677.0	7.569857	0.868072	0.216669	0.385717	-0.165426	0.121251	-0.378906	0.160889	-0.672607
678.0	7.821558	0.708565	-0.026051	0.414913	-0.174225	0.096913	-0.385986	0.16748	-0.666016
679.0	7.87236	0.329663	-0.08621	0.436152	-0.0664	0.060282	-0.381104	0.160889	-0.665771
680.0	8.279275	0.116811	0.33147	0.51483	0.000703	0.041852	-0.383301	0.158691	-0.67041
681.0	8.512878	-0.06637	0.87335	0.532456	0.069578	0.053656	-0.380859	0.154297	-0.677002
682.0	9.318934	-0.232562	1.497972	0.622405	0.001282	0.056688	-0.385254	0.149902	-0.667725
683.0	10.762368	1.006622	2.290891	0.745862	-0.16646	0.091888	-0.378418	0.149902	-0.669922
684.0	11.331823	1.481512	2.358341	0.547114	-0.090255	0.206312	-0.380615	0.145508	-0.66748
685.0	10.946428	1.046889	2.30704	0.444891	0.133861	0.29372	-0.380615	0.145508	-0.672119
686.0	11.563683	1.123364	3.236136	0.298059	0.005606	0.353188	-0.380615	0.145508	-0.674561
687.0	12.676053	0.958202	3.07095	0.120594	-0.416014	0.40001	-0.385498	0.156494	-0.672607
688.0	14.039034	1.118453	1.732523	0.051377	-0.80799	0.409116	-0.389893	0.156494	-0.670166
689.0	15.714713	1.502504	0.461634	0.003424	-0.841286	0.420478	-0.392334	0.156494	-0.66333
690.0	16.077666	1.285124	-0.571657	-0.045062	-0.540612	0.40051	-0.396729	0.158691	-0.667969
691.0	15.449339	0.885697	-1.014948	-0.020216	-0.161104	0.332168	-0.389893	0.156494	-0.665527
692.0	15.437277	0.326037	0.591224	0.029338	0.412527	0.280674	-0.385498	0.158691	-0.665771
693.0	16.320044	0.468688	4.806593	0.347665	1.242273	0.344692	-0.383301	0.158691	-0.67041
694.0	14.356991	3.203138	7.827992	0.536277	1.075751	0.507084	-0.376465	0.158691	-0.677246
695.0	12.083836	3.707579	8.773225	0.254185	0.453263	0.73307	-0.374268	0.156494	-0.679443
696.0	10.258984	3.473358	7.75754	-0.092613	0.004605	0.884431	-0.376953	0.165283	-0.682129
697.0	8.295795	2.679116	6.202329	-0.312913	0.158169	0.911983	-0.374756	0.169678	-0.689209
698.0	5.679269	2.05837	6.521361	-0.460314	0.540903	0.827038	-0.370605	0.178711	-0.685059
699.0	3.838581	1.131582	6.740563	-0.50144	0.348195	0.716374	-0.368408	0.180908	-0.692139
700.0	4.387341	0.190141	5.815705	-0.363661	0.043631	0.640743	-0.37085	0.1875	-0.678223
701.0	5.695395	-0.561285	5.356682	-0.256725	-0.022882	0.588013	-0.371094	0.1875	-0.687744
702.0	7.232165	-0.827618	5.923332	-0.190262	0.044055	0.546365	-0.369141	0.196289	-0.690186
703.0	8.967157	-1.016401	6.163514	-0.125701	-0.072858	0.545258	-0.364746	0.198486	-0.685791
704.0	10.642651	0.017625	5.602173	0.144893	-0.293055	0.564524	-0.371338	0.198486	-0.681152
705.0	13.109088	0.128931	5.101416	0.108271	-0.279383	0.631739	-0.364502	0.196289	-0.685547
706.0	14.187258	-1.15132	4.2383	0.151229	0.082768	0.645456	-0.369385	0.202881	-0.685791
707.0	13.162583	-1.494333	3.574272	0.288635	0.470815	0.577529	-0.360107	0.198486	-0.69043
708.0	11.50151	-1.716658	3.447329	0.330411	0.657878	0.405475	-0.360352	0.202881	-0.688232
709.0	9.938781	-1.683512	3.738322	0.402961	0.512284	0.179802	-0.362549	0.202881	-0.704346
710.0	8.108412	-0.864318	3.215233	0.520874	0.391262	0.043249	-0.35791	0.196289	-0.697266
711.0	6.8334	0.0814	3.038272	0.529853	0.387333	0.030406	-0.359863	0.194092	-0.701904
712.0	6.584136	0.455805	3.048814	0.516311	0.298193	0.029809	-0.352783	0.185303	-0.706055
713.0	6.699285	1.004635	2.897351	0.5918	0.162926	0.024531	-0.355225	0.185303	-0.703857
714.0	6.733399	1.565753	2.575574	0.57557	0.102457	0.005014	-0.357422	0.185303	-0.706055
715.0	6.771588	1.635876	2.285079	0.465148	0.124794	-0.060919	-0.352783	0.180908	-0.712891
716.0	7.037304	1.593229	2.234981	0.369832	0.18236	-0.085437	-0.357178	0.180908	-0.710693
717.0	6.828841	1.360691	2.211529	0.246819	0.244713	-0.143195	-0.357178	0.178711	-0.708252
718.0	6.118566	1.310046	2.067738	0.208743	0.381461	-0.206153	-0.352539	0.178711	-0.710449
719.0	6.434454	1.433443	2.654342	0.120776	0.304979	-0.269591	-0.3479	0.172119	-0.714844
720.0	6.06854	1.296233	2.321829	0.059809	0.287338	-0.32401	-0.345459	0.169922	-0.719482
721.0	6.028238	1.401518	2.182001	0.026941	0.273677	-0.373042	-0.350098	0.172119	-0.717285
722.0	6.402684	1.354045	2.19686	-0.090103	0.169543	-0.424209	-0.350098	0.174316	-0.721924
723.0	6.631644	1.299495	1.915369	-0.164805	0.030044	-0.46944	-0.345215	0.16333	-0.719238
724.0	7.346605	1.385313	1.772406	-0.27321	-0.16302	-0.495472	-0.343262	0.172119	-0.719482
725.0	8.074311	1.564715	1.463899	-0.381464	-0.259526	-0.500267	-0.352295	0.172119	-0.719482
726.0	8.669137	1.760734	1.298673	-0.512242	-0.247637	-0.473838	-0.350098	0.169922	-0.714844
727.0	8.87518	1.789275	1.358822	-0.68241	-0.217887	-0.44403	-0.352539	0.174316	-0.719727
728.0	8.707258	1.773181	1.143908	-0.779941	-0.183144	-0.403855	-0.354736	0.176514	-0.712891
729.0	8.838851	2.134845	1.502253	-0.87819	-0.152857	-0.316494	-0.361572	0.174316	-0.717285
730.0	9.056535	1.875432	1.494642	-0.981849	-0.073477	-0.209618	-0.35498	0.183105	-0.715332
731.0	9.486935	2.048939	1.834722	-0.95724	0.010962	-0.102629	-0.355225	0.189697	-0.715576
732.0	10.520692	1.917254	2.418903	-0.971097	0.000332	-0.01612	-0.360107	0.198486	-0.711182
733.0	11.645938	1.408161	2.905637	-0.940453	-0.01285	0.000576	-0.355957	0.203125	-0.718506
734.0	11.944237	1.024161	3.040558	-0.815265	0.025651	0.012031	-0.360596	0.211914	-0.71167
735.0	12.268031	0.383471	3.084068	-0.770499	-0.112932	0.003378	-0.358398	0.211914	-0.707031
736.0	12.873824	-1.039184	2.512721	-0.706552	-0.293058	-0.078335	-0.365479	0.218506	-0.707275
737.0	13.072263	-1.960812	2.020818	-0.523792	-0.408976	-0.246702	-0.367432	0.213867	-0.709473
738.0	13.015892	-2.025476	1.453904	-0.44437	-0.452488	-0.410247	-0.370117	0.220459	-0.705078
739.0	12.898673	-1.47417	1.164691	-0.367606	-0.426456	-0.493344	-0.370117	0.222656	-0.705078
740.0	12.374638	-0.744543	0.76758	-0.337145	-0.352964	-0.517793	-0.374268	0.213867	-0.695557
741.0	12.237129	0.249434	0.878515	-0.296871	-0.151156	-0.509633	-0.383545	0.218262	-0.702637
742.0	13.357973	1.088762	3.707988	-0.059536	0.756914	-0.455301	-0.374512	0.218262	-0.707275
743.0	12.0769	0.159272	5.750107	0.081055	1.115472	-0.420511	-0.369629	0.207275	-0.716309
744.0	11.166739	-0.419678	7.584894	0.449484	0.859129	-0.534699	-0.369629	0.209473	-0.716309
745.0	9.632261	-0.273718	8.770452	0.671402	0.516434	-0.800002	-0.36499	0.205078	-0.723145
746.0	8.639377	-1.333997	8.582471	0.601251	-0.203238	-0.987627	-0.369141	0.194092	-0.722656
747.0	7.652906	-0.962792	8.369214	0.737829	-0.440949	-1.032189	-0.37793	0.191895	-0.729492
748.0	6.193315	-0.569706	7.372958	0.631481	-0.506367	-0.968585	-0.379883	0.185303	-0.722412
749.0	6.350009	0.022946	6.559561	0.661229	-0.549631	-0.887701	-0.381592	0.172119	-0.714844
750.0	6.771727	1.470324	5.838902	0.629047	-0.296365	-0.784722	-0.383789	0.167725	-0.719482
751.0	6.911992	2.081556	5.564914	0.40799	0.137777	-0.662404	-0.383545	0.160889	-0.719238
752.0	7.265633	2.386365	6.275015	0.376149	0.33508	-0.572147	-0.380859	0.154297	-0.723633
753.0	7.156163	2.363487	6.851294	0.343266	0.349918	-0.529243	-0.385254	0.1521	-0.71875
754.0	10.353953	2.746186	7.539043	0.490395	-0.384382	-0.515997	-0.38501	0.145508	-0.723145
755.0	12.619538	3.582931	6.306992	0.448292	-0.772993	-0.454881	-0.387451	0.145508	-0.720947
756.0	14.149903	4.236214	4.457616	0.241132	-0.927201	-0.383087	-0.396484	0.147705	-0.714111
757.0	14.252939	4.071748	3.105759	-0.114726	-0.53396	-0.303412	-0.403076	0.143311	-0.713867
758.0	11.870937	3.058419	2.58717	-0.324203	0.133332	-0.183682	-0.398682	0.145508	-0.716309
759.0	8.847709	2.032289	3.351824	-0.440134	0.455476	-0.086284	-0.398682	0.147705	-0.716309
760.0	7.874208	1.197271	4.316809	-0.4351	0.034597	-0.038239	-0.396484	0.147705	-0.714111
761.0	8.002928	0.456759	3.275525	-0.394714	-0.438715	-0.011595	-0.40332	0.1521	-0.714111
762.0	7.572724	-0.137728	1.597658	-0.361083	-0.301083	0.038932	-0.406006	0.158691	-0.716797
763.0	8.335673	-0.775813	1.638901	-0.342059	-0.092789	0.065405	-0.401367	0.156494	-0.714355
764.0	8.316344	-0.751658	1.852775	-0.215704	0.087745	0.060689	-0.405762	0.156494	-0.714355
765.0	7.715803	-0.87137	1.78529	-0.170345	0.181076	0.096855	-0.403564	0.158691	-0.712158
766.0	7.795074	-0.848163	2.092698	-0.000841	0.039441	0.152606	-0.403809	0.163086	-0.7146
767.0	7.589267	-0.458922	1.88653	0.138414	-0.087555	0.254173	-0.405762	0.154297	-0.716553
768.0	7.028456	-0.380673	1.283503	0.24695	-0.112875	0.335558	-0.403809	0.163086	-0.7146
769.0	6.591872	-0.325252	1.125943	0.34923	0.002878	0.398772	-0.403809	0.163086	-0.721436
770.0	6.559207	-0.048603	1.237478	0.455546	0.069801	0.445003	-0.408203	0.158691	-0.723633
771.0	6.563293	0.269403	1.341753	0.53657	0.069577	0.478071	-0.406006	0.158691	-0.723633
772.0	6.478054	0.532053	1.246855	0.617193	0.03649	0.490919	-0.401123	0.154297	-0.716553
773.0	6.730212	0.761655	1.01697	0.666836	-0.008537	0.482892	-0.40332	0.1521	-0.714111
774.0	7.127576	0.8504	0.944172	0.67622	-0.035712	0.463277	-0.407715	0.149902	-0.720947
775.0	7.447054	0.73008	0.808151	0.703186	-0.056245	0.428062	-0.40332	0.147705	-0.725586
776.0	7.80741	0.800469	0.853614	0.733003	-0.107886	0.375763	-0.407715	0.145508	-0.720947
777.0	8.00763	0.782152	0.69768	0.741249	-0.132466	0.315643	-0.407471	0.138916	-0.716064
778.0	7.972727	0.651381	0.686585	0.780005	-0.137463	0.252556	-0.405029	0.134521	-0.720459
779.0	7.994876	0.448605	0.759079	0.79463	-0.116823	0.168115	-0.406982	0.130127	-0.720215
780.0	8.199169	0.197426	0.915278	0.85624	-0.064015	0.073539	-0.406738	0.125488	-0.715576
781.0	9.279183	0.529421	1.449822	0.922715	-0.080216	0.027866	-0.411133	0.123291	-0.722412
782.0	10.96089	1.361102	2.196401	0.940033	-0.122889	0.075383	-0.41333	0.116699	-0.719727
783.0	11.539671	1.519259	2.167838	0.854484	-0.038398	0.155439	-0.410645	0.110107	-0.714844
784.0	12.077059	1.572255	2.536954	0.768384	0.038403	0.202151	-0.412842	0.105713	-0.719482
785.0	12.894927	2.288927	3.219427	0.643003	-0.033948	0.261204	-0.417236	0.103516	-0.719238
786.0	14.089088	2.654879	3.163455	0.337982	-0.33554	0.361328	-0.415039	0.105713	-0.719482
787.0	14.859228	2.421691	1.738016	0.097936	-0.470276	0.438442	-0.419434	0.101318	-0.719238
788.0	15.237725	2.6224	0.568034	0.035409	-0.365123	0.487962	-0.41748	0.110107	-0.714844
789.0	14.833004	2.472636	-0.287181	-0.019844	-0.145897	0.482751	-0.419678	0.10791	-0.712402
790.0	13.575369	1.850301	-0.891763	0.028735	0.152426	0.393351	-0.424072	0.105713	-0.72168
791.0	12.256457	1.423069	-0.514608	-0.005242	0.385836	0.261918	-0.41748	0.110107	-0.719482
792.0	12.735191	-0.058593	3.071524	-0.113046	0.939224	0.213345	-0.410645	0.110107	-0.721924
793.0	12.40057	-1.059999	7.499632	0.338105	1.597053	0.34401	-0.403809	0.103516	-0.723877
794.0	10.140158	1.527382	9.886379	0.673587	0.388868	0.438396	-0.406006	0.105713	-0.726318
795.0	8.949595	2.307121	8.39924	0.376022	-0.186849	0.64877	-0.410645	0.105713	-0.724121
796.0	8.976665	3.721607	6.919723	0.022998	-0.303883	0.871026	-0.410889	0.112305	-0.729004
797.0	7.385692	3.744126	7.031903	-0.34084	-0.049045	1.013569	-0.415283	0.112305	-0.729004
798.0	4.856896	2.288302	6.141745	-0.536169	0.060349	0.989362	-0.41333	0.116699	-0.726807
799.0	4.689544	1.590227	5.793291	-0.613857	0.00024	0.889421	-0.40918	0.125488	-0.724854
800.0	6.022242	0.28858	5.408286	-0.622642	0.055181	0.7981	-0.409424	0.134521	-0.725098
801.0	7.895987	0.092403	6.201334	-0.437314	0.135822	0.678817	-0.413818	0.129883	-0.722656
802.0	9.454756	0.032126	6.92675	-0.413403	0.167791	0.638027	-0.414063	0.138916	-0.727539
803.0	11.106421	0.812732	6.540032	-0.194021	-0.042518	0.65691	-0.414307	0.143311	-0.718506
804.0	13.45844	1.637006	5.79898	-0.127911	-0.0546	0.757697	-0.412109	0.145508	-0.725586
805.0	15.54627	-0.158362	5.010171	-0.298969	0.043188	0.777546	-0.414551	0.149902	-0.730225
806.0	14.476811	-2.602116	3.785544	-0.237858	0.469758	0.562075	-0.407959	0.1521	-0.723389
807.0	11.855248	-3.480131	3.719604	-0.121474	0.642471	0.233496	-0.410156	0.154297	-0.73291
808.0	9.62761	-2.662467	3.882669	0.074284	0.382193	-0.042707	-0.407715	0.149902	-0.734863
809.0	6.860623	-0.879228	3.265278	0.24748	0.34502	-0.107285	-0.405518	0.147705	-0.732666
810.0	7.039188	-0.376462	3.404766	0.163644	0.095194	-0.127407	-0.407715	0.149902	-0.728027
811.0	7.120871	0.134573	2.733806	0.286181	0.075136	-0.190097	-0.407227	0.134521	-0.736816
812.0	6.68034	1.557863	2.470985	0.335571	0.160702	-0.211595	-0.405273	0.141113	-0.737061
813.0	6.833796	1.83372	2.467973	0.148626	0.150821	-0.259828	-0.411621	0.130127	-0.734131
814.0	7.076168	1.923938	2.490694	0.132738	0.153896	-0.318185	-0.407227	0.134521	-0.734375
815.0	6.568783	2.011398	2.466508	0.077682	0.24069	-0.358525	-0.404785	0.132324	-0.734375
816.0	6.502724	1.972549	2.444218	-0.026281	0.120643	-0.451252	-0.407227	0.136719	-0.741455
817.0	6.377211	2.05096	2.146492	-0.119058	0.134954	-0.50954	-0.406982	0.12793	-0.736572
818.0	6.218051	1.641444	2.034167	-0.264981	0.152328	-0.56771	-0.406982	0.12793	-0.734131
819.0	6.049923	1.184842	2.069683	-0.318116	0.151432	-0.642711	-0.411377	0.125732	-0.73877
820.0	6.068875	0.992982	2.041657	-0.39847	0.0772	-0.701345	-0.411377	0.123535	-0.738525
821.0	6.132167	0.686053	1.712012	-0.508279	0.041659	-0.722722	-0.404541	0.121338	-0.743164
822.0	6.760085	0.601132	1.626272	-0.564681	-0.033147	-0.717962	-0.41333	0.116699	-0.736084
823.0	7.637423	0.639861	1.416965	-0.606514	-0.183899	-0.693001	-0.417725	0.118896	-0.731445
824.0	8.212419	0.9187	1.084527	-0.643624	-0.281741	-0.615149	-0.415283	0.110107	-0.731201
825.0	8.426683	1.223716	0.834574	-0.686256	-0.263208	-0.514226	-0.411377	0.123291	-0.736328
826.0	8.551655	1.505152	1.051546	-0.771357	-0.291244	-0.411085	-0.417969	0.123291	-0.733887
827.0	8.46049	1.308719	0.830242	-0.867908	-0.321644	-0.317929	-0.427002	0.123291	-0.731689
828.0	8.233488	1.440573	0.967685	-0.893226	-0.286734	-0.216027	-0.422852	0.129883	-0.731934
829.0	8.187301	1.350289	1.202051	-0.951089	-0.256111	-0.102024	-0.422852	0.129883	-0.727295
830.0	8.9867	1.193173	1.751436	-0.937045	-0.25418	0.001516	-0.42749	0.136475	-0.725098
831.0	9.99429	0.958259	2.232107	-0.87164	-0.174871	0.069989	-0.425293	0.138672	-0.716064
832.0	10.753946	0.252841	2.307717	-0.811726	-0.070854	0.095904	-0.436768	0.140869	-0.720703
833.0	11.381411	0.195379	2.733709	-0.583461	0.10366	0.100401	-0.432373	0.140869	-0.727539
834.0	12.103239	0.033058	3.216131	-0.468584	0.042268	0.079749	-0.432373	0.143066	-0.727783
835.0	12.798473	-0.992465	2.727653	-0.344106	-0.293303	-0.039511	-0.436768	0.143066	-0.725342
836.0	13.975038	-1.26102	2.010365	-0.151572	-0.646845	-0.251892	-0.441406	0.145264	-0.723145
837.0	14.59234	-0.97574	0.940069	-0.130285	-0.691632	-0.408647	-0.443359	0.138672	-0.720703
838.0	14.573649	-0.517758	0.282787	-0.115634	-0.486707	-0.452762	-0.452393	0.136475	-0.720459
839.0	14.026921	0.3157	0.186162	-0.085632	-0.221385	-0.427419	-0.452148	0.13208	-0.71582
840.0	13.182864	0.951701	0.073444	-0.126581	-0.06355	-0.366548	-0.454346	0.13208	-0.71582
841.0	13.140849	1.826146	1.447368	-0.057313	0.407962	-0.31116	-0.452148	0.129883	-0.727295
842.0	13.172179	1.88881	4.90632	0.197525	1.287386	-0.267263	-0.445313	0.127686	-0.734131
843.0	11.870182	0.528842	6.948376	0.26092	1.257044	-0.272169	-0.433838	0.123291	-0.738525
844.0	10.096573	-0.465479	8.887123	0.641913	0.964234	-0.436541	-0.431396	0.118896	-0.738525
845.0	7.923636	-1.110693	8.87863	0.63606	0.148588	-0.654456	-0.435303	0.105713	-0.742676
846.0	7.726518	-0.897682	8.237134	0.685829	-0.491621	-0.808325	-0.444336	0.103516	-0.740234
847.0	6.629041	-0.124753	7.772973	0.582166	-0.50405	-0.772366	-0.444092	0.09668	-0.735352
848.0	5.884392	-0.269064	6.515386	0.436925	-0.616547	-0.678199	-0.45459	0.081299	-0.734619
849.0	6.674891	0.495732	6.355414	0.484911	-0.572415	-0.621457	-0.456787	0.076904	-0.734619
850.0	6.792264	1.516406	5.572734	0.364404	-0.353128	-0.550929	-0.456543	0.074707	-0.729736
851.0	7.316429	1.713202	4.837523	0.210572	0.006818	-0.481358	-0.45874	0.07251	-0.732178
852.0	7.798254	1.651705	5.342026	0.135768	0.378739	-0.460059	-0.453857	0.063721	-0.734131
853.0	8.72256	1.790294	6.440092	0.199938	0.396925	-0.456634	-0.45166	0.063721	-0.734131
854.0	9.778711	1.705552	6.881828	0.215135	0.080285	-0.496685	-0.458252	0.057129	-0.731445
855.0	12.874787	2.281112	6.639449	0.350565	-0.549537	-0.53554	-0.462402	0.05249	-0.733643
856.0	13.092839	3.495399	4.554095	0.194395	-0.636681	-0.449644	-0.460205	0.050293	-0.726563
857.0	13.206977	3.341864	3.21574	-0.091779	-0.392605	-0.279929	-0.462158	0.043701	-0.72876
858.0	12.06126	2.452408	3.182346	-0.362098	0.033119	-0.125782	-0.462402	0.05249	-0.733643
859.0	10.573077	2.346784	3.513994	-0.41841	-0.012336	0.024467	-0.467041	0.050293	-0.731201
860.0	8.998581	0.953531	2.879213	-0.586792	-0.03771	0.112526	-0.464844	0.054688	-0.729004
861.0	8.919782	0.223097	2.689852	-0.48671	-0.119658	0.109701	-0.469482	0.059082	-0.731689
862.0	8.732926	-0.312382	2.127895	-0.543233	-0.054808	0.123397	-0.471924	0.061279	-0.731689
863.0	7.943222	-0.619032	1.449648	-0.469084	0.229874	0.127395	-0.463135	0.065918	-0.729492
864.0	7.897391	-0.324009	2.219873	-0.38808	0.282923	0.159338	-0.465088	0.063721	-0.729492
865.0	7.369234	-0.536615	2.197171	-0.326515	0.197914	0.203622	-0.463135	0.068115	-0.731934
866.0	7.065354	-0.572709	2.075943	-0.224367	0.002177	0.21218	-0.463379	0.074707	-0.727539
867.0	7.006288	-0.53042	1.786386	-0.108573	-0.085736	0.23449	-0.465576	0.070313	-0.727295
868.0	6.42078	-0.316911	1.253013	0.006049	0.032854	0.257392	-0.465576	0.070313	-0.743652
869.0	6.336376	0.085626	1.393267	0.130115	0.067558	0.293903	-0.465576	0.07251	-0.734375
870.0	6.724578	0.373832	1.766455	0.185211	0.009892	0.335358	-0.469971	0.07251	-0.736816
871.0	6.826731	0.344269	1.607485	0.218966	-0.020704	0.370546	-0.470215	0.076904	-0.732178
872.0	6.769929	0.310797	1.313327	0.288084	0.013099	0.369626	-0.46582	0.076904	-0.736816
873.0	6.867172	0.385106	1.247307	0.319107	0.013681	0.357458	-0.474365	0.065674	-0.736572
874.0	7.091639	0.314865	1.138034	0.362287	-0.042495	0.327723	-0.472168	0.065918	-0.736572
875.0	7.579949	0.537691	1.083466	0.439085	-0.159449	0.290287	-0.476807	0.07251	-0.736816
876.0	7.932764	0.708458	0.791531	0.457684	-0.245711	0.248039	-0.474121	0.063477	-0.734131
877.0	8.179639	0.757723	0.607113	0.466532	-0.247282	0.208089	-0.47876	0.063477	-0.73877
878.0	8.305122	0.52442	0.541386	0.474822	-0.191911	0.177483	-0.480957	0.065674	-0.734131
879.0	8.372189	0.163247	0.754801	0.512694	-0.108102	0.119375	-0.476074	0.054688	-0.733643
880.0	8.158465	-0.248925	0.858308	0.541849	0.03937	0.066115	-0.48291	0.05249	-0.73584
881.0	9.480091	-0.082064	1.604158	0.659565	-0.018313	0.036017	-0.480469	0.050293	-0.733643
882.0	10.650734	0.43802	2.083724	0.712728	0.057949	0.05844	-0.482422	0.045898	-0.742676
883.0	11.821334	0.824116	2.732866	0.700035	-0.018598	0.075519	-0.480225	0.043701	-0.740234
884.0	12.386411	0.916666	2.88023	0.641667	-0.098751	0.076929	-0.486572	0.034912	-0.737549
885.0	13.125674	1.45531	3.030058	0.491424	-0.298064	0.108059	-0.486572	0.032715	-0.73291
886.0	14.244952	1.740845	2.454753	0.233889	-0.557082	0.18713	-0.493408	0.034912	-0.73291
887.0	14.652203	1.926236	0.979316	0.052506	-0.546002	0.265747	-0.498047	0.039307	-0.728516
888.0	14.672295	2.276918	0.044707	0.005295	-0.415271	0.330276	-0.502441	0.039063	-0.728516
889.0	14.221755	2.194881	-0.670834	-0.028136	-0.265842	0.369749	-0.504883	0.039063	-0.728516
890.0	13.560658	1.659219	-0.66455	-0.022174	0.051767	0.369953	-0.502686	0.041504	-0.733154
891.0	14.299519	0.683544	3.16728	-0.033053	0.992378	0.40072	-0.500488	0.045898	-0.735596
892.0	12.947904	1.327436	7.538678	0.211571	1.385636	0.518626	-0.491455	0.045898	-0.738037
893.0	11.279543	1.393639	9.570666	0.227691	0.548686	0.695157	-0.484863	0.048096	-0.747314
894.0	9.989653	1.060256	8.292292	0.148952	-0.071458	0.876633	-0.489746	0.059082	-0.747803
895.0	9.121608	1.588968	7.011282	0.018011	-0.132533	0.984924	-0.492188	0.061279	-0.750244
896.0	7.37375	2.818832	7.410409	-0.033517	0.138688	1.032362	-0.494629	0.065674	-0.74585
897.0	4.837286	1.611121	6.765879	-0.317401	0.101112	1.008146	-0.488037	0.072266	-0.750732
898.0	4.930016	0.319704	6.015276	-0.234434	-0.167245	0.906214	-0.497314	0.07666	-0.739258
899.0	6.513009	-0.659234	6.074629	-0.222159	-0.053507	0.851703	-0.495117	0.081055	-0.748535
900.0	7.771211	-0.655127	6.520939	-0.142339	0.068995	0.780721	-0.495605	0.087891	-0.751221
901.0	9.249909	0.812103	6.288691	0.041384	-0.199823	0.690281	-0.49585	0.094482	-0.742188
902.0	11.661089	1.451157	5.185388	0.051983	-0.38881	0.70064	-0.504883	0.098633	-0.746826
903.0	13.901955	0.620176	4.781201	0.000875	-0.262107	0.708938	-0.502686	0.098633	-0.742188
904.0	13.423256	-0.466013	4.273836	0.04334	0.289323	0.66773	-0.498535	0.105469	-0.751953
905.0	12.722103	-1.516271	4.30451	0.030335	0.396033	0.416488	-0.498291	0.103271	-0.749512
906.0	11.447752	-2.033642	3.68293	0.163882	0.308443	0.093562	-0.498291	0.103271	-0.74707
907.0	9.999086	-0.747076	3.149346	0.298653	0.210275	-0.123221	-0.491455	0.09668	-0.751465
908.0	8.05315	0.36897	2.748301	0.290558	0.349187	-0.139425	-0.49585	0.098877	-0.753906
909.0	7.768003	0.738919	2.997284	0.235131	0.186736	-0.113431	-0.49585	0.098877	-0.749268
910.0	7.057524	0.897747	2.585686	0.261638	0.254096	-0.111711	-0.498291	0.098877	-0.756348
911.0	6.253249	1.400165	2.481817	0.271651	0.27518	-0.086377	-0.491211	0.094482	-0.756104
912.0	6.489896	1.757918	2.737085	0.205079	0.10507	-0.093389	-0.493652	0.09668	-0.756104
913.0	6.920069	1.491305	2.564771	0.082683	-0.059351	-0.155466	-0.500244	0.094482	-0.758301
914.0	7.473604	1.336053	2.232059	0.083556	-0.134487	-0.240273	-0.49585	0.094482	-0.758301
915.0	7.819443	1.743849	2.065557	0.048982	-0.072379	-0.304411	-0.500244	0.092285	-0.756104
916.0	6.938087	1.629032	1.539691	-0.073517	0.228547	-0.306616	-0.491211	0.090088	-0.760498
917.0	6.649403	1.364446	1.887007	-0.149538	0.37874	-0.323483	-0.493408	0.092285	-0.760742
918.0	6.198271	0.937088	2.341873	-0.242512	0.391314	-0.358952	-0.489014	0.092285	-0.762939
919.0	6.214083	0.76185	2.433871	-0.244345	0.142531	-0.420274	-0.486572	0.092285	-0.767578
920.0	6.86621	0.891406	2.151908	-0.297647	-0.057221	-0.46138	-0.493408	0.090088	-0.762939
921.0	7.289042	0.671474	1.520564	-0.365765	-0.078323	-0.452215	-0.493164	0.087891	-0.760498
922.0	7.886341	0.614583	1.302574	-0.403515	-0.064592	-0.435578	-0.49585	0.094482	-0.758301
923.0	8.290944	0.505173	1.269715	-0.446032	-0.070256	-0.401326	-0.498047	0.094482	-0.758301
924.0	8.565919	0.610583	1.138033	-0.489236	-0.076353	-0.359859	-0.493652	0.098877	-0.760986
925.0	8.675698	0.825244	1.15269	-0.539033	-0.04868	-0.307406	-0.498291	0.101074	-0.760986
926.0	8.546136	1.009095	1.226266	-0.610946	-0.002608	-0.255586	-0.496094	0.101074	-0.758545
927.0	8.129026	1.071774	1.387994	-0.66958	0.025967	-0.182467	-0.496094	0.103271	-0.758789
928.0	7.676914	1.205788	1.613213	-0.690956	-0.010529	-0.097005	-0.503174	0.112061	-0.763672
929.0	7.992182	1.322512	1.972287	-0.741901	-0.14234	-0.012068	-0.496582	0.114258	-0.763672
930.0	9.075717	1.264701	2.230109	-0.70759	-0.169803	0.07376	-0.501465	0.12085	-0.763916
931.0	10.103588	0.722149	2.439107	-0.697795	-0.074266	0.112485	-0.496826	0.123047	-0.766357
932.0	10.87511	0.302272	2.614934	-0.586604	0.116212	0.123675	-0.50415	0.131836	-0.759766
933.0	11.079773	0.464472	3.082264	-0.426081	0.281926	0.164782	-0.497314	0.131836	-0.759766
934.0	12.057087	-0.300377	3.330863	-0.345783	0.101979	0.119156	-0.497314	0.134033	-0.764404
935.0	13.108499	-0.82348	2.927341	-0.099861	-0.239405	-0.049003	-0.506348	0.131836	-0.759766
936.0	13.808892	-0.931812	1.968764	-0.017871	-0.497496	-0.218344	-0.50415	0.134033	-0.755127
937.0	14.22065	-1.303161	0.984357	-0.028967	-0.519637	-0.382124	-0.508789	0.13623	-0.757568
938.0	14.057456	-0.792077	0.686781	0.053097	-0.359861	-0.452414	-0.512939	0.131836	-0.750488
939.0	13.379892	0.114296	0.339517	0.008467	-0.192503	-0.426888	-0.512939	0.127441	-0.750244
940.0	12.713978	0.959204	0.106471	-0.100571	-0.049779	-0.399204	-0.515381	0.134033	-0.75293
941.0	13.185736	1.936293	1.851756	-0.065105	0.449046	-0.362739	-0.508545	0.129639	-0.755127
942.0	12.783685	2.467688	5.119115	0.238062	1.231506	-0.329764	-0.506104	0.125244	-0.76416
943.0	11.69331	1.850226	6.918639	0.150189	0.926245	-0.340719	-0.501465	0.125244	-0.768799
944.0	10.429458	1.352567	8.178507	0.510017	0.73459	-0.493655	-0.494629	0.123047	-0.768799
945.0	8.736515	0.369161	8.440012	0.31632	0.210572	-0.647612	-0.499023	0.116455	-0.768555
946.0	7.9422	-1.782641	8.576198	0.235755	-0.154583	-0.799666	-0.498779	0.109863	-0.770508
947.0	5.770166	-1.451082	8.510366	0.393149	-0.404756	-0.866325	-0.50293	0.105469	-0.76123
948.0	5.147972	-1.264136	6.723755	0.291951	-0.80198	-0.836141	-0.51416	0.10083	-0.763184
949.0	6.167602	-0.663094	5.104417	0.415303	-0.738219	-0.815137	-0.509277	0.094238	-0.758301
950.0	6.557989	0.510088	4.774622	0.37602	-0.312202	-0.749345	-0.515869	0.092041	-0.760742
951.0	6.639296	0.771233	5.044988	0.296145	0.183782	-0.652268	-0.518066	0.087646	-0.758057
952.0	7.046638	1.24584	5.9505	0.40038	0.532612	-0.605331	-0.508789	0.083252	-0.764893
953.0	7.064621	1.699595	6.787922	0.39511	0.516703	-0.544316	-0.508545	0.07666	-0.762451
954.0	9.094549	1.133832	7.213697	0.391737	-0.020461	-0.549792	-0.512939	0.070068	-0.757568
955.0	12.049226	2.445451	7.182091	0.564438	-0.737573	-0.522129	-0.519287	0.061279	-0.75708
956.0	14.291948	3.628558	5.27169	0.410399	-1.137407	-0.459777	-0.530762	0.067871	-0.752686
957.0	15.054567	3.880217	3.194291	0.074625	-0.946048	-0.316808	-0.530273	0.054443	-0.745361
958.0	13.039973	3.297852	1.958483	-0.171115	-0.165184	-0.16105	-0.523926	0.065674	-0.745605
959.0	10.788382	2.645178	2.683167	-0.319655	0.243267	-0.046325	-0.52832	0.065674	-0.745605
960.0	8.711048	1.773522	3.090336	-0.318993	0.18097	0.009992	-0.52832	0.063477	-0.750244
961.0	8.213041	0.629062	3.126053	-0.324425	-0.122763	0.057652	-0.528564	0.072266	-0.741211
962.0	8.512422	-0.122112	2.370323	-0.222018	-0.297333	0.088161	-0.5354	0.072266	-0.74585
963.0	8.642225	-0.651232	1.457655	-0.203796	-0.104005	0.113111	-0.526611	0.07666	-0.746094
964.0	8.779744	-0.777297	1.46587	-0.072348	0.160096	0.129732	-0.529297	0.085449	-0.746338
965.0	8.574387	-0.971807	1.754824	-0.005141	0.280257	0.163701	-0.533447	0.078857	-0.743896
966.0	7.931655	-0.902083	1.786982	0.167892	0.262097	0.265916	-0.533691	0.085449	-0.750977
967.0	7.037164	-0.727197	1.795773	0.316475	0.229715	0.366742	-0.529053	0.083252	-0.741699
968.0	6.51761	-0.623318	1.780872	0.455837	0.132801	0.446323	-0.529297	0.085449	-0.748779
969.0	6.021128	-0.413746	1.644785	0.572002	0.1046	0.497673	-0.531494	0.083252	-0.744141
970.0	6.096963	-0.25803	1.499133	0.640344	0.040012	0.533512	-0.529297	0.085449	-0.741699
971.0	6.388181	0.068552	1.384366	0.702051	0.050316	0.543522	-0.531494	0.085449	-0.746338
972.0	6.444255	0.344744	1.109316	0.740191	0.111078	0.522029	-0.529053	0.081055	-0.743896
973.0	6.469059	0.673633	0.991474	0.813276	0.094184	0.468791	-0.526855	0.083252	-0.744141
974.0	6.702287	0.980803	0.917006	0.85222	0.017943	0.408946	-0.533447	0.081055	-0.741699
975.0	6.894706	1.216759	0.923673	0.876467	-0.050976	0.353101	-0.535645	0.07666	-0.746094
976.0	7.030792	1.367642	0.9026	0.909264	-0.13884	0.316084	-0.535645	0.078857	-0.746094
977.0	7.098126	1.319147	0.846906	0.874863	-0.246764	0.276361	-0.533203	0.072266	-0.743652
978.0	7.211047	0.951321	0.728999	0.836658	-0.305103	0.226072	-0.535645	0.074219	-0.741455
979.0	7.264031	0.508657	0.692303	0.806844	-0.260454	0.161318	-0.541992	0.067627	-0.741211
980.0	7.7887	0.146379	0.664609	0.840451	-0.240899	0.063097	-0.541504	0.056641	-0.738281
981.0	9.198233	0.721475	1.465869	0.86552	-0.275455	0.038528	-0.543945	0.056641	-0.736084
982.0	10.113248	1.200669	1.63517	0.809763	-0.200004	0.070097	-0.543457	0.050049	-0.733398
983.0	11.08302	1.672817	2.287535	0.773608	-0.15086	0.107646	-0.548096	0.047852	-0.731201
984.0	11.661795	2.193315	2.623271	0.618522	-0.119042	0.149814	-0.54834	0.054443	-0.729004
985.0	12.912387	2.745838	2.96869	0.42712	-0.320783	0.211789	-0.550293	0.047852	-0.72876
986.0	14.246858	2.744231	2.554441	0.105743	-0.535006	0.28387	-0.552979	0.058838	-0.722168
987.0	15.395648	2.349696	1.14043	-0.10393	-0.569752	0.335228	-0.55957	0.054443	-0.719727
988.0	16.001443	2.035161	0.106391	-0.219	-0.438877	0.377639	-0.564209	0.058838	-0.715332
989.0	15.478865	1.380236	-0.802041	-0.192558	-0.207156	0.363028	-0.562256	0.06543	-0.715576
990.0	14.393657	0.800521	-1.009038	-0.106703	0.077637	0.293808	-0.562256	0.069824	-0.710938
991.0	13.877384	-0.117799	1.021883	-0.040096	0.504823	0.241533	-0.560059	0.06543	-0.722412
992.0	13.986773	-0.844503	5.141452	0.103847	1.191674	0.301198	-0.555664	0.072021	-0.725098
993.0	12.029853	1.43181	7.385967	0.424512	0.581966	0.438558	-0.557861	0.072021	-0.725098
994.0	12.448709	1.998921	7.846335	0.264385	-0.167745	0.617643	-0.557861	0.072021	-0.718018
995.0	11.091613	2.184646	6.57805	-0.000401	-0.189756	0.801412	-0.555908	0.078613	-0.720703
996.0	9.097696	2.696515	6.483689	-0.178412	0.034589	0.886735	-0.560791	0.087402	-0.720947
997.0	6.70361	3.07093	6.903528	-0.367043	0.158959	0.872436	-0.554443	0.098389	-0.714355
998.0	4.94308	1.748436	6.047418	-0.518824	0.02256	0.808373	-0.557129	0.107178	-0.714844
999.0	5.058567	0.682933	5.33701	-0.483801	-0.100018	0.711546	-0.55957	0.109375	-0.72168
1000.0	6.412339	-0.234356	4.929443	-0.379292	-0.034991	0.643186	-0.55957	0.11377	-0.712646
1001.0	7.932854	-0.09257	6.252049	-0.309841	0.244594	0.569393	-0.562256	0.120361	-0.717529
1002.0	8.52325	0.170726	6.243427	-0.262189	0.182823	0.507417	-0.553467	0.127197	-0.717773
1003.0	10.787868	1.187745	5.866321	-0.048263	-0.159593	0.494067	-0.560303	0.129395	-0.715576
1004.0	14.052115	1.345609	5.41631	-0.140418	-0.241966	0.572292	-0.560547	0.138184	-0.708984
1005.0	15.34546	0.048353	4.623784	-0.167598	0.208614	0.63722	-0.556396	0.142578	-0.718262
1006.0	13.625285	-1.06924	3.994668	-0.138074	0.710778	0.581768	-0.560791	0.142578	-0.718262
1007.0	11.351953	-1.951817	4.132939	-0.082536	0.78831	0.367668	-0.554199	0.146973	-0.725586
1008.0	9.705473	-1.774962	4.534232	0.070711	0.458939	0.141194	-0.549805	0.146973	-0.725586
1009.0	8.576707	-0.866842	3.728991	0.153495	0.128072	-0.045382	-0.553955	0.142578	-0.7229
1010.0	7.824426	0.213861	2.975255	0.15764	0.095024	-0.096423	-0.551758	0.140381	-0.725342
1011.0	7.358837	0.864285	2.59984	0.095824	0.183487	-0.086981	-0.551514	0.138184	-0.727539
1012.0	7.302817	1.108074	2.502684	0.075469	0.194483	-0.101954	-0.54248	0.135986	-0.727295
1013.0	7.58367	1.731467	2.678773	0.082296	0.107207	-0.139999	-0.549316	0.138184	-0.725098
1014.0	7.629718	2.075218	2.202596	-0.0188	0.05761	-0.192323	-0.551758	0.140381	-0.725342
1015.0	8.013457	2.069525	1.94728	-0.150326	0.057273	-0.244869	-0.544922	0.138184	-0.725098
1016.0	7.455795	1.734639	1.521772	-0.240845	0.285994	-0.276456	-0.549561	0.140381	-0.7229
1017.0	7.256852	1.594576	1.751747	-0.290252	0.355492	-0.327711	-0.54248	0.133789	-0.722656
1018.0	6.818929	1.304122	1.836339	-0.398681	0.426785	-0.377311	-0.544922	0.138184	-0.727539
1019.0	6.399709	0.891144	1.821038	-0.437543	0.398158	-0.452588	-0.549316	0.138184	-0.725098
1020.0	6.351974	0.806841	1.912414	-0.469904	0.277778	-0.539719	-0.544922	0.142578	-0.732178
1021.0	6.536879	0.63015	1.829032	-0.533523	0.137551	-0.593838	-0.549316	0.138184	-0.734375
1022.0	6.588213	0.391307	1.547649	-0.573394	0.069614	-0.617951	-0.542236	0.131592	-0.731934
1023.0	6.954716	0.37877	1.270779	-0.612669	0.01448	-0.618631	-0.551758	0.140381	-0.734619
1024.0	7.482795	0.30467	1.147748	-0.656383	-0.059345	-0.591264	-0.547119	0.138184	-0.732178
1025.0	7.917743	0.180873	0.917024	-0.698754	-0.136024	-0.545406	-0.551758	0.140381	-0.72998
1026.0	8.379402	0.278197	0.805359	-0.74526	-0.157081	-0.492507	-0.551514	0.138184	-0.720459
1027.0	8.355342	0.584465	0.691551	-0.799519	-0.081749	-0.419422	-0.549561	0.144775	-0.723145
1028.0	8.13732	0.661315	0.889471	-0.850809	-0.052553	-0.332495	-0.551758	0.144775	-0.718506
1029.0	7.757479	0.797604	1.150561	-0.863028	-0.056248	-0.233371	-0.552002	0.146973	-0.725586
1030.0	7.942899	0.938964	1.346758	-0.836989	-0.112284	-0.12338	-0.554443	0.153564	-0.721191
1031.0	9.25394	0.727362	1.741813	-0.818504	-0.235094	-0.048942	-0.557129	0.160156	-0.721436
1032.0	9.436711	0.593349	1.677251	-0.745245	0.040349	0.031382	-0.554688	0.160156	-0.718994
1033.0	10.436436	-0.106801	2.656859	-0.697313	0.165045	0.030638	-0.557129	0.164551	-0.721436
1034.0	10.214769	-0.25086	3.264246	-0.49339	0.316619	0.033375	-0.55957	0.166748	-0.726318
1035.0	10.675197	-0.448386	3.652976	-0.333099	0.178471	0.036484	-0.552979	0.168945	-0.717041
1036.0	12.191868	-1.105138	3.696183	-0.174392	-0.060558	-0.046245	-0.55957	0.166748	-0.723877
1037.0	13.131663	-1.048843	3.043487	0.025602	-0.300334	-0.180845	-0.561768	0.166748	-0.72168
1038.0	14.063673	-0.849552	1.995959	0.019525	-0.513818	-0.316559	-0.563965	0.164551	-0.721436
1039.0	14.361379	-0.303671	1.189182	0.037964	-0.445893	-0.391706	-0.570557	0.162354	-0.721436
1040.0	13.93291	0.469469	0.719067	-0.032548	-0.278737	-0.380104	-0.577393	0.160156	-0.716553
1041.0	13.369472	1.120046	0.550285	-0.056955	-0.140572	-0.348641	-0.568359	0.160156	-0.718994
1042.0	12.833584	1.755049	0.690659	-0.117697	0.011804	-0.32625	-0.565918	0.155762	-0.721191
1043.0	13.103043	2.62863	2.625607	0.056305	0.543321	-0.314498	-0.565674	0.153564	-0.723389
1044.0	12.511867	2.08867	4.746954	0.111238	0.859459	-0.338266	-0.568115	0.155762	-0.72583
1045.0	11.986127	0.911085	5.929434	0.195792	0.73606	-0.426383	-0.561279	0.151367	-0.730225
1046.0	9.761366	0.898985	7.261974	0.499778	0.698524	-0.552466	-0.560791	0.142578	-0.739258
1047.0	8.149939	0.31347	7.434441	0.309333	0.116561	-0.664628	-0.562744	0.133789	-0.741211
1048.0	7.324069	-0.324719	7.751487	0.342152	-0.254383	-0.746751	-0.564941	0.131592	-0.73877
1049.0	6.137971	-0.221574	7.741413	0.324314	-0.431891	-0.756789	-0.562256	0.120605	-0.733887
1050.0	5.401031	-0.507645	6.458639	0.273619	-0.66925	-0.720587	-0.572998	0.109375	-0.726318
1051.0	5.993295	-0.127494	5.570776	0.33214	-0.704059	-0.692923	-0.575439	0.111572	-0.731201
1052.0	6.53686	1.084952	4.713422	0.319686	-0.456539	-0.662948	-0.57959	0.107178	-0.723877
1053.0	7.115457	1.369088	4.709511	0.173906	-0.002072	-0.559456	-0.579102	0.093994	-0.72583
1054.0	7.240885	1.609254	5.42004	0.20435	0.465082	-0.495143	-0.576904	0.091797	-0.728027
1055.0	7.727582	1.431272	6.291286	0.138678	0.458471	-0.455119	-0.581299	0.091797	-0.732666
1056.0	9.463476	1.154229	6.630473	0.191598	-0.007353	-0.47333	-0.57666	0.0896	-0.734863
1057.0	12.767305	2.68382	6.591267	0.347195	-0.624554	-0.478146	-0.585449	0.080811	-0.727539
1058.0	14.401403	4.049304	4.759845	0.149447	-0.889192	-0.389069	-0.585205	0.076172	-0.7229
1059.0	14.769115	4.191443	2.994055	-0.169715	-0.640025	-0.229257	-0.5896	0.073975	-0.722656
1060.0	13.07752	3.434054	2.540424	-0.451434	-0.000594	-0.075517	-0.587646	0.078369	-0.7229
1061.0	10.355816	2.399644	2.899903	-0.588986	0.24666	0.023307	-0.587402	0.076172	-0.7229
1062.0	8.253539	1.273253	3.283795	-0.649844	0.16426	0.072535	-0.583252	0.085205	-0.725586
1063.0	7.640473	0.300866	3.198817	-0.597345	-0.134509	0.100459	-0.592285	0.084961	-0.718506
1064.0	7.097471	-0.696984	2.493752	-0.59784	-0.228859	0.136668	-0.590088	0.087402	-0.723145
1065.0	8.187847	-1.195141	2.224358	-0.449594	-0.365049	0.135405	-0.595215	0.098389	-0.723633
1066.0	8.898564	-0.892403	1.92417	-0.378195	-0.310264	0.157392	-0.593018	0.100586	-0.728271
1067.0	9.418517	-0.87998	1.54889	-0.285952	-0.290109	0.216708	-0.599365	0.09375	-0.71875
1068.0	9.144436	-0.774707	1.400343	-0.201799	-0.028883	0.303298	-0.602051	0.100342	-0.721436
1069.0	7.606123	-1.055632	1.339041	-0.153949	0.298659	0.37571	-0.595459	0.10498	-0.726318
1070.0	6.611943	-1.259483	1.989636	0.023206	0.288255	0.387973	-0.5979	0.109375	-0.726318
1071.0	6.266333	-0.9001	2.265096	0.164926	-0.003724	0.375089	-0.593018	0.102783	-0.723877
1072.0	6.454644	-0.623145	1.594713	0.26981	-0.20058	0.351567	-0.593262	0.109375	-0.719482
1073.0	7.010493	-0.200426	1.13484	0.366731	-0.197043	0.32812	-0.599854	0.107178	-0.726318
1074.0	6.993712	-0.071151	0.90326	0.406684	-0.043732	0.30724	-0.599854	0.107178	-0.728516
1075.0	6.764491	0.180432	1.006809	0.506789	0.009129	0.284095	-0.597656	0.10498	-0.728516
1076.0	6.899083	0.409744	1.103849	0.538652	-0.108878	0.267299	-0.599854	0.10498	-0.730957
1077.0	7.396773	0.584412	0.976922	0.596989	-0.295101	0.254618	-0.597168	0.093994	-0.730469
1078.0	7.817776	0.847995	0.670566	0.649352	-0.375284	0.268832	-0.604004	0.095947	-0.723633
1079.0	7.982577	0.822448	0.332364	0.659998	-0.31603	0.266435	-0.606201	0.09375	-0.72583
1080.0	7.804939	0.620078	0.415111	0.693586	-0.167438	0.241646	-0.608398	0.091553	-0.728027
1081.0	7.180867	0.043598	0.734198	0.681211	-0.026146	0.195635	-0.60376	0.091553	-0.728027
1082.0	7.643743	-0.597587	0.912496	0.772285	-0.036353	0.116687	-0.610107	0.080566	-0.72998
1083.0	9.31632	-0.392653	1.873924	0.82191	-0.08179	0.072624	-0.612061	0.073975	-0.720459
1084.0	10.36416	0.163876	1.920215	0.911893	0.031173	0.073167	-0.614258	0.071777	-0.725098
1085.0	11.203097	0.884786	2.539981	0.890706	0.045631	0.10285	-0.611816	0.065186	-0.729492
1086.0	11.02961	0.918648	2.600353	0.785194	0.156054	0.119809	-0.609375	0.060791	-0.726807
1087.0	12.450515	1.617961	3.285724	0.713451	-0.16116	0.136955	-0.611572	0.060791	-0.726807
1088.0	13.733752	1.955908	2.363572	0.374943	-0.488	0.166011	-0.613525	0.052002	-0.726563
1089.0	14.688938	1.880666	0.551255	0.217147	-0.56471	0.21581	-0.618164	0.054199	-0.724365
1090.0	15.562935	2.170251	-0.160949	0.147225	-0.425785	0.286031	-0.624756	0.053955	-0.721924
1091.0	14.799693	1.685827	-1.223018	0.108056	-0.194952	0.329862	-0.622803	0.058594	-0.729004
1092.0	13.732506	1.070786	-1.515258	0.205976	0.059226	0.327549	-0.620361	0.056152	-0.722168
1093.0	13.64792	0.265707	0.28197	0.217897	0.480791	0.328678	-0.620361	0.056396	-0.731445
1094.0	14.375128	-0.934325	4.677274	0.37326	1.473241	0.445504	-0.608887	0.049805	-0.738037
1095.0	11.919657	1.311161	7.526382	0.883045	1.114653	0.601338	-0.611328	0.052002	-0.745117
1096.0	11.866108	2.071118	9.150902	0.661615	0.035185	0.765838	-0.606689	0.049805	-0.747314
1097.0	11.161238	1.903376	7.390288	0.308771	-0.293093	0.929017	-0.606689	0.052002	-0.740479
1098.0	9.606997	2.61936	6.26524	0.167063	-0.106229	1.008292	-0.61377	0.056396	-0.745361
1099.0	6.964374	3.085083	6.633216	-0.055009	0.274469	0.978161	-0.611816	0.062988	-0.747803
1100.0	4.711258	1.901629	6.678347	-0.237783	0.200866	0.897528	-0.618896	0.073975	-0.743652
1101.0	4.676313	0.74911	5.891061	-0.207853	-0.114423	0.84018	-0.614502	0.076172	-0.746094
1102.0	6.262846	-0.489231	5.495239	-0.135277	-0.035294	0.827313	-0.610352	0.084961	-0.746338
1103.0	7.036083	-0.817832	6.060661	0.0053	0.33381	0.801489	-0.608154	0.084961	-0.755615
1104.0	7.953037	0.785246	6.167757	0.20434	0.172015	0.725265	-0.61499	0.087158	-0.753418
1105.0	10.03387	1.732721	5.375252	0.201647	0.01189	0.749771	-0.608154	0.087158	-0.755859
1106.0	13.086211	1.038261	5.450135	0.101511	-0.021961	0.845708	-0.612793	0.091553	-0.751221
1107.0	14.614239	-0.424316	5.255208	0.12828	0.191834	0.852847	-0.61084	0.096191	-0.756104
1108.0	13.356092	-1.155564	4.472629	0.208497	0.462631	0.748346	-0.611084	0.100586	-0.760986
1109.0	12.321319	-2.130455	4.232779	0.178352	0.394683	0.454854	-0.608643	0.098389	-0.760742
1110.0	11.409414	-1.709413	4.046676	0.35716	0.143316	0.087203	-0.608398	0.093994	-0.767578
1111.0	9.814611	-0.108282	3.100605	0.370592	0.042632	-0.108581	-0.606201	0.091797	-0.760498
1112.0	7.794964	0.995675	2.663487	0.341827	0.284963	-0.09582	-0.603516	0.085205	-0.764893
1113.0	8.240715	1.093508	3.292176	0.261311	0.082387	-0.122149	-0.605713	0.080566	-0.762451
1114.0	7.926133	1.429977	2.708853	0.309286	0.059549	-0.161146	-0.603271	0.076416	-0.769287
1115.0	7.540725	2.150864	2.227583	0.27427	0.11575	-0.168873	-0.603516	0.080811	-0.762451
1116.0	8.032674	2.296666	2.504387	0.125961	0.097336	-0.214995	-0.605225	0.071777	-0.769043
1117.0	7.852162	2.055291	2.262443	0.015378	0.1619	-0.248666	-0.605469	0.073975	-0.769287
1118.0	7.68958	1.877862	2.244869	-0.052513	0.156171	-0.294421	-0.602783	0.065186	-0.77124
1119.0	7.170454	1.829375	2.101126	-0.106657	0.222502	-0.30583	-0.600586	0.065186	-0.778076
1120.0	6.740686	1.573202	2.100099	-0.21706	0.298826	-0.332181	-0.602783	0.065186	-0.775879
1121.0	6.258214	1.217781	2.242604	-0.281355	0.342756	-0.363288	-0.60498	0.060791	-0.775635
1122.0	6.28385	0.99252	2.553058	-0.318025	0.20514	-0.417543	-0.602539	0.058594	-0.780273
1123.0	6.616218	0.935198	2.369246	-0.36103	-0.006431	-0.48337	-0.602539	0.058594	-0.780273
1124.0	7.064674	0.861206	1.940167	-0.423602	-0.133157	-0.533836	-0.606934	0.054199	-0.780029
1125.0	7.333859	0.736866	1.566524	-0.505429	-0.161581	-0.540076	-0.609131	0.056396	-0.782471
1126.0	7.571654	0.726945	1.299205	-0.551802	-0.181237	-0.52242	-0.606689	0.049805	-0.782227
1127.0	7.777177	0.840974	1.230545	-0.576551	-0.201157	-0.494085	-0.604736	0.056396	-0.775391
1128.0	8.117349	1.059905	1.181005	-0.579119	-0.173618	-0.446567	-0.606934	0.054199	-0.784668
1129.0	8.298643	1.126527	1.37317	-0.60194	-0.117086	-0.39032	-0.611328	0.054199	-0.777832
1130.0	8.225477	0.926567	1.378169	-0.671263	-0.101021	-0.314542	-0.609375	0.058594	-0.773193
1131.0	8.110488	0.945885	1.364439	-0.698677	-0.075707	-0.23778	-0.608887	0.049805	-0.775146
1132.0	8.160032	1.079457	1.535778	-0.681188	-0.053234	-0.146671	-0.614014	0.065186	-0.778076
1133.0	8.60403	1.048973	1.820336	-0.702219	-0.034525	-0.068433	-0.614014	0.060791	-0.778076
1134.0	8.951534	0.726006	1.899434	-0.670643	0.055376	-0.010027	-0.611816	0.065186	-0.778076
1135.0	9.25106	0.533133	2.412832	-0.630377	0.200676	0.025259	-0.618652	0.067383	-0.780518
1136.0	10.077235	0.064587	3.0374	-0.512313	0.128422	-0.026135	-0.612061	0.071777	-0.782959
1137.0	10.202472	0.276443	3.225061	-0.313194	0.028624	-0.077719	-0.616455	0.065186	-0.778076
1138.0	11.483548	-0.002078	3.282195	-0.250598	-0.192984	-0.15137	-0.614258	0.067383	-0.775879
1139.0	12.097338	-0.428053	2.831467	-0.135758	-0.243124	-0.234629	-0.614258	0.067383	-0.77832
1140.0	12.553142	-0.589221	2.407266	-0.074886	-0.304922	-0.325622	-0.623047	0.065186	-0.77124
1141.0	12.935574	-0.32774	2.051775	-0.047399	-0.350604	-0.390426	-0.623047	0.062988	-0.773438
1142.0	12.897408	0.140999	1.493837	-0.066521	-0.371674	-0.422109	-0.627441	0.058594	-0.773193
1143.0	12.575526	1.039818	1.031844	-0.055355	-0.348204	-0.413205	-0.62915	0.049805	-0.768311
1144.0	12.063707	1.864984	0.515697	-0.151868	-0.292695	-0.406785	-0.62915	0.047607	-0.76123
1145.0	11.717613	2.455023	0.376751	-0.254145	-0.126913	-0.384661	-0.626709	0.04541	-0.772705
1146.0	12.267424	3.058703	2.570186	-0.155157	0.450829	-0.360798	-0.633545	0.042969	-0.770264
1147.0	11.947849	2.476599	5.117428	-0.072208	0.897686	-0.351892	-0.626709	0.04541	-0.779785
1148.0	11.090876	0.823542	6.520304	-0.087004	0.743269	-0.385212	-0.613037	0.041016	-0.774902
1149.0	9.526436	0.059645	7.22767	0.176463	0.497171	-0.528875	-0.619629	0.032227	-0.783936
1150.0	8.685852	-0.601201	7.45913	0.071135	0.030929	-0.684192	-0.612305	0.02124	-0.783447
1151.0	7.609683	-0.911335	7.479999	0.153886	-0.233858	-0.810955	-0.614502	0.019043	-0.781006
1152.0	6.387226	-0.814661	7.52159	0.101039	-0.428676	-0.824506	-0.621094	0.014404	-0.773926
1153.0	5.953391	-1.332443	6.10298	0.073659	-0.635617	-0.810423	-0.627441	0.005615	-0.77124
1154.0	6.859723	-0.666789	5.193287	0.191989	-0.601339	-0.795203	-0.627197	0.001221	-0.766357
1155.0	8.058586	0.171458	4.967757	0.173992	-0.301903	-0.744826	-0.626953	-0.007568	-0.775391
1156.0	8.602683	0.549707	5.238165	0.19637	0.15234	-0.656452	-0.62207	-0.016357	-0.775146
1157.0	9.715537	0.498153	6.039481	0.154725	0.268451	-0.565415	-0.621826	-0.022949	-0.770264
1158.0	9.837757	0.427532	6.143311	0.193933	0.235391	-0.52352	-0.624023	-0.025146	-0.774902
1159.0	10.709427	0.857127	6.202002	0.246845	-0.02449	-0.560447	-0.621338	-0.031738	-0.774658
1160.0	12.909981	2.026547	6.12413	0.279037	-0.529099	-0.573839	-0.623535	-0.036133	-0.776611
1161.0	14.022222	3.14193	4.570191	0.138553	-0.690772	-0.452958	-0.630371	-0.036377	-0.765137
1162.0	13.599735	3.165343	3.131711	-0.137086	-0.386951	-0.303237	-0.62793	-0.040771	-0.762695
1163.0	11.660105	2.572032	3.030258	-0.3054	0.097416	-0.156167	-0.632324	-0.042969	-0.76709
1164.0	9.739351	1.910976	3.660733	-0.398757	0.095143	-0.041171	-0.632568	-0.036377	-0.762695
1165.0	9.545864	0.980287	3.455601	-0.401024	-0.252911	0.020535	-0.634766	-0.036377	-0.760498
1166.0	8.729546	0.122007	2.283776	-0.361113	-0.241711	0.061459	-0.630371	-0.03418	-0.762939
1167.0	9.007505	-0.541374	2.204877	-0.285204	-0.248942	0.106545	-0.634766	-0.03418	-0.760498
1168.0	8.835665	-1.241599	1.924647	-0.22006	-0.1704	0.103445	-0.637451	-0.027588	-0.758545
1169.0	8.730323	-1.031039	1.802025	-0.053467	-0.121297	0.114527	-0.632813	-0.027588	-0.756104
1170.0	8.028991	-0.841315	1.813506	0.010093	-0.011284	0.176831	-0.637207	-0.029785	-0.758301
1171.0	7.938398	-0.839722	1.805832	0.157564	-0.084618	0.234233	-0.637207	-0.029785	-0.758301
1172.0	7.663632	-0.509245	1.670759	0.277968	-0.090606	0.270209	-0.641602	-0.031982	-0.758301
1173.0	6.878675	-0.252636	1.370802	0.365985	-0.008042	0.300878	-0.639404	-0.031982	-0.758301
1174.0	6.747407	-0.185504	1.371286	0.446274	0.024993	0.315587	-0.648438	-0.031982	-0.758301
1175.0	6.847543	-0.097125	1.480784	0.502459	0.033012	0.307976	-0.634521	-0.040771	-0.758057
1176.0	6.655808	0.017812	1.286042	0.566455	0.103302	0.277355	-0.636963	-0.038574	-0.758057
1177.0	6.617026	0.220555	1.295857	0.62783	0.110619	0.242059	-0.636719	-0.042969	-0.753174
1178.0	6.735269	0.407342	1.192224	0.68042	0.03193	0.187724	-0.634277	-0.047363	-0.755371
1179.0	6.884512	0.652303	1.00098	0.740114	-0.072824	0.126051	-0.634277	-0.051758	-0.755127
1180.0	7.214842	0.79842	0.901835	0.765742	-0.161284	0.070705	-0.645264	-0.053955	-0.757324
1181.0	7.394194	0.864394	0.915308	0.790952	-0.189623	0.004181	-0.638184	-0.062744	-0.754883
1182.0	7.275733	0.918337	0.93344	0.802276	-0.177628	-0.054812	-0.642334	-0.06958	-0.745361
1183.0	7.128743	0.806548	0.95484	0.765943	-0.193312	-0.115886	-0.644531	-0.076172	-0.747314
1184.0	7.396879	0.579211	0.8788	0.757627	-0.179796	-0.172189	-0.644287	-0.078369	-0.744873
1185.0	8.127451	0.850679	1.066243	0.779885	-0.096072	-0.220335	-0.648682	-0.084961	-0.742432
1186.0	10.003025	1.668284	1.547008	0.80709	-0.090073	-0.214105	-0.648193	-0.09375	-0.744385
1187.0	10.057621	2.156073	2.259295	0.585853	0.097162	-0.142566	-0.648193	-0.095947	-0.735107
1188.0	9.776422	1.763632	2.39665	0.561335	0.200881	-0.114521	-0.641113	-0.100342	-0.744141
1189.0	11.147084	2.834223	3.956568	0.455379	0.025624	-0.056733	-0.645264	-0.109131	-0.741455
1190.0	11.20904	2.499093	3.339967	0.068855	-0.106738	0.037602	-0.641113	-0.102539	-0.746338
1191.0	12.010039	2.064948	2.751976	-0.026434	-0.220116	0.098231	-0.645752	-0.100342	-0.737061
1192.0	12.636525	1.740541	2.231985	-0.243847	-0.180557	0.17197	-0.641113	-0.104736	-0.732422
1193.0	12.794509	1.072065	1.623821	-0.280594	-0.126777	0.202001	-0.652588	-0.098145	-0.732666
1194.0	12.570476	0.629073	1.269262	-0.237138	-0.100212	0.171879	-0.650391	-0.095947	-0.732666
1195.0	12.283504	-0.123562	1.097621	-0.203486	-0.085027	0.090908	-0.652588	-0.095947	-0.732666
1196.0	13.19209	-1.152903	2.630395	-0.12044	0.17691	0.008403	-0.648193	-0.095947	-0.739746
1197.0	13.271885	-1.621083	5.009264	-0.011696	0.685026	0.010349	-0.648193	-0.095947	-0.737305
1198.0	12.191478	-0.570943	5.499842	0.183932	0.391744	0.049441	-0.645508	-0.102539	-0.744141
1199.0	12.711018	0.821066	6.536157	0.327394	0.10002	0.133601	-0.645508	-0.104736	-0.737061
1200.0	11.448009	1.387833	6.491832	-0.006969	0.037317	0.270557	-0.643555	-0.095947	-0.744385
1201.0	9.700902	1.566472	6.245718	-0.153667	-0.14566	0.302755	-0.650391	-0.09375	-0.737305
1202.0	8.248522	2.164709	5.990886	-0.424555	-0.110724	0.311856	-0.648438	-0.091553	-0.742188
1203.0	6.646046	2.541322	5.381094	-0.641499	0.054047	0.317816	-0.644287	-0.082764	-0.740234
1204.0	5.875535	2.294943	5.372333	-0.794715	0.134355	0.337374	-0.639648	-0.080566	-0.730957
1205.0	6.43236	1.656057	5.534903	-0.78907	0.017194	0.311199	-0.642334	-0.06958	-0.745361
1206.0	7.399239	1.373267	5.328051	-0.740503	-0.016506	0.237191	-0.649658	-0.060791	-0.750244
1207.0	8.060763	2.094903	5.460903	-0.656305	0.176433	0.173553	-0.651855	-0.058594	-0.748047
1208.0	8.790448	2.181782	5.54799	-0.744142	0.283892	0.159432	-0.643066	-0.051758	-0.748291
1209.0	10.473692	2.032165	5.98269	-0.702259	0.069073	0.162016	-0.643066	-0.051758	-0.750488
1210.0	12.958225	2.02867	6.303102	-0.735859	-0.263098	0.122482	-0.645508	-0.047363	-0.746094
1211.0	14.51119	1.812545	5.159013	-0.8066	-0.405297	0.068782	-0.647949	-0.045166	-0.748535
1212.0	13.8221	1.353647	3.514396	-1.03018	-0.092047	-0.023271	-0.650635	-0.03418	-0.748779
1213.0	11.482585	0.864847	3.749647	-1.195148	0.413279	-0.19514	-0.641846	-0.031982	-0.762939
1214.0	9.136492	1.292017	5.074375	-1.227954	0.266766	-0.370812	-0.641846	-0.029785	-0.758301
1215.0	8.235725	1.985038	4.51179	-1.196412	-0.187848	-0.444209	-0.644531	-0.020996	-0.74707
1216.0	8.40637	2.772384	3.528757	-1.231403	-0.259681	-0.46777	-0.644531	-0.016602	-0.751953
1217.0	8.61975	3.140229	3.443268	-1.368169	-0.132591	-0.480785	-0.642578	-0.012207	-0.756592
1218.0	8.118544	3.208182	3.410082	-1.474689	0.011364	-0.462951	-0.642578	-0.01001	-0.754395
1219.0	7.996305	3.116239	3.624239	-1.57102	-0.070609	-0.469868	-0.638428	-0.003174	-0.75
1220.0	8.341352	2.804472	3.336965	-1.638002	-0.192866	-0.503303	-0.643311	0.005615	-0.757324
1221.0	8.156526	2.617225	2.803901	-1.704578	-0.133333	-0.54668	-0.645752	0.012207	-0.750488
1222.0	8.007792	2.107462	2.713182	-1.829426	-0.041902	-0.599893	-0.645996	0.020996	-0.762451
1223.0	7.74324	1.657705	2.836486	-1.894342	-0.008949	-0.666845	-0.645996	0.020996	-0.753174
1224.0	7.69286	1.131773	2.65702	-1.966726	-0.09417	-0.741829	-0.648682	0.027588	-0.753418
1225.0	7.888164	0.9152	2.426676	-2.01671	-0.141563	-0.807113	-0.646729	0.036377	-0.753906
1226.0	8.236997	0.626751	2.220309	-2.117422	-0.12439	-0.86219	-0.64917	0.042969	-0.742432
1227.0	8.689488	0.61178	2.061097	-2.186809	-0.121915	-0.897044	-0.642578	0.047363	-0.751953
1228.0	9.092116	0.456896	1.843948	-2.264435	-0.112677	-0.902413	-0.649658	0.053955	-0.752197
1229.0	9.424948	0.262306	1.741189	-2.323558	-0.069969	-0.888605	-0.643311	0.060547	-0.745361
1230.0	9.533157	-0.273758	1.725186	-2.398624	-0.008191	-0.869816	-0.647949	0.069336	-0.750488
1231.0	9.292406	-0.520026	1.807832	-2.412496	0.037714	-0.858228	-0.643799	0.076172	-0.743652
1232.0	9.05999	-0.591453	2.064989	-2.427018	0.063101	-0.849108	-0.646484	0.087158	-0.746338
1233.0	8.616927	-0.810501	2.270075	-2.421716	0.114819	-0.820556	-0.646973	0.098145	-0.749268
1234.0	8.209282	-0.875231	2.60663	-2.385486	0.095372	-0.80107	-0.647461	0.109131	-0.744873
1235.0	7.796402	-0.790394	2.870858	-2.289023	0.018745	-0.771877	-0.645264	0.111328	-0.754395
1236.0	7.50864	-0.260499	3.02762	-2.176663	-0.1204	-0.732608	-0.650146	0.122314	-0.745361
1237.0	7.445104	0.127877	3.017013	-2.140463	-0.241937	-0.673049	-0.648193	0.128906	-0.743408
1238.0	7.883005	0.288807	3.02799	-2.108896	-0.310702	-0.598135	-0.64624	0.137695	-0.739014
1239.0	8.799353	0.058557	2.942654	-2.107959	-0.344487	-0.55259	-0.644287	0.146729	-0.741699
1240.0	9.452802	-0.009287	2.91269	-2.039828	-0.277201	-0.505001	-0.64917	0.153076	-0.730225
1241.0	10.12075	-0.557479	2.938574	-1.979088	-0.259306	-0.522701	-0.654053	0.159668	-0.730469
1242.0	9.872968	0.023913	2.818888	-1.815582	-0.254391	-0.516042	-0.651855	0.166504	-0.723877
1243.0	10.310881	0.328193	2.59728	-1.81054	-0.328381	-0.494204	-0.661133	0.172852	-0.719482
1244.0	11.01597	0.767899	2.587616	-1.778554	-0.354116	-0.471955	-0.658936	0.175049	-0.710205
1245.0	11.635471	0.808135	2.421242	-1.870291	-0.414027	-0.449244	-0.661621	0.184082	-0.710449
1246.0	12.330048	0.904491	2.199495	-1.981439	-0.41018	-0.418922	-0.662109	0.192871	-0.713135
1247.0	12.487572	1.436597	1.980626	-2.109254	-0.298563	-0.373523	-0.668945	0.199463	-0.704102
1248.0	12.191123	2.10308	2.034269	-2.261204	-0.150176	-0.300993	-0.665039	0.210449	-0.692871
1249.0	12.279668	2.81782	3.933648	-2.344451	0.179096	-0.213801	-0.669922	0.221436	-0.695557
1250.0	12.014409	2.432426	5.403811	-2.461216	0.601283	-0.154559	-0.661377	0.232422	-0.698486
1251.0	10.923657	0.903618	5.485977	-2.586588	0.966427	-0.191439	-0.650635	0.243652	-0.701172
1252.0	8.959392	-1.072305	6.852581	-2.609465	1.08041	-0.392294	-0.65332	0.256836	-0.70166
1253.0	7.418934	-2.124665	8.958506	-2.563518	0.59658	-0.710168	-0.651367	0.263428	-0.697266
1254.0	7.18038	-1.511458	8.605669	-2.539875	-0.159169	-1.010029	-0.64917	0.265625	-0.695068
1255.0	7.383402	-0.146573	7.017941	-2.685081	-0.391968	-1.185869	-0.654053	0.274414	-0.681396
1256.0	7.100704	-0.120592	6.156797	-2.902075	-0.145557	-1.299235	-0.658691	0.281006	-0.674561
1257.0	6.651865	0.932034	6.583621	-2.869377	0.018986	-1.431724	-0.661133	0.2854	-0.670166
1258.0	7.123387	1.542614	5.97938	-2.969871	-0.01474	-1.54116	-0.663574	0.289795	-0.665771
1259.0	8.262632	1.448361	4.657586	-3.036606	-0.04455	-1.61389	-0.670654	0.296387	-0.661377
1260.0	9.229995	1.534043	4.493005	-3.046299	-0.075863	-1.640059	-0.673096	0.298584	-0.654297
1261.0	10.229628	2.296887	4.511292	-3.043512	-0.313666	-1.623061	-0.67749	0.29834	-0.635742
1262.0	11.274888	2.922442	4.077464	-3.213423	-0.615568	-1.503042	-0.68457	0.309326	-0.62915
1263.0	11.859181	2.81612	2.937237	-3.340424	-0.611356	-1.327954	-0.687012	0.309326	-0.615234
1264.0	11.975902	2.28927	2.819807	-3.530312	-0.561941	-1.095905	-0.691895	0.320313	-0.599365
1265.0	12.596439	0.795691	2.482423	-3.612635	-0.687561	-0.917284	-0.703613	0.331299	-0.58374
1266.0	12.182116	-0.628393	1.314128	-3.660827	-0.481217	-0.823781	-0.695068	0.344482	-0.570068
1267.0	11.356774	-1.473529	1.01862	-3.62113	-0.091999	-0.780595	-0.70874	0.348877	-0.568115
1268.0	9.68838	-2.412066	1.586306	-3.59987	0.227967	-0.800611	-0.706787	0.353271	-0.558838
1269.0	8.653226	-2.438813	2.474652	-3.405983	0.044997	-0.855688	-0.704834	0.362061	-0.550049
1270.0	8.277553	-1.906599	2.433281	-3.30575	-0.307744	-0.876628	-0.714111	0.368652	-0.536133
1271.0	8.176909	-1.53821	1.81273	-3.248189	-0.464604	-0.867369	-0.711914	0.375244	-0.520264
1272.0	8.237834	-1.202767	1.472273	-3.126693	-0.548304	-0.848365	-0.72583	0.379639	-0.506348
1273.0	8.565577	-0.919247	1.278751	-3.034785	-0.60927	-0.822064	-0.728027	0.383789	-0.497314
1274.0	8.543392	-0.768966	0.891919	-2.967269	-0.511945	-0.771089	-0.734863	0.385986	-0.48584
1275.0	8.606268	-0.702456	0.834213	-2.900274	-0.38382	-0.74535	-0.730713	0.390381	-0.469727
1276.0	8.775773	-0.670139	0.950784	-2.847108	-0.299113	-0.700245	-0.737549	0.392578	-0.465088
1277.0	9.254031	-0.648574	1.017368	-2.775851	-0.27527	-0.667011	-0.735352	0.394775	-0.453613
1278.0	9.679301	-0.827827	0.810045	-2.753317	-0.196892	-0.635524	-0.744629	0.403564	-0.442383
1279.0	9.579574	-1.160727	0.524491	-2.710578	0.010455	-0.643286	-0.744629	0.401367	-0.435303
1280.0	9.494767	-1.500623	0.850189	-2.666006	0.207162	-0.674412	-0.744629	0.405762	-0.430664
1281.0	9.10841	-1.892729	1.302647	-2.60951	0.248031	-0.733323	-0.747314	0.412354	-0.42627
1282.0	8.976009	-1.86974	1.527054	-2.531766	0.123681	-0.805405	-0.751465	0.403564	-0.414551
1283.0	8.962494	-1.980586	1.176012	-2.482658	0.02333	-0.884248	-0.751709	0.412354	-0.410156
1284.0	9.048243	-1.950583	1.086154	-2.397982	0.016299	-0.960244	-0.758301	0.407715	-0.395996
1285.0	9.018322	-1.9196	1.092762	-2.336345	0.03304	-1.017092	-0.760498	0.405518	-0.386719
1286.0	8.849748	-1.837276	1.133019	-2.23178	0.054014	-1.068816	-0.76709	0.401123	-0.384277
1287.0	8.782064	-1.672949	1.243354	-2.134808	0.059331	-1.106959	-0.762451	0.396729	-0.376953
1288.0	8.902569	-1.490331	1.405551	-2.033596	0.060651	-1.144442	-0.771484	0.396729	-0.376953
1289.0	9.216044	-1.122917	1.673082	-1.925902	0.008625	-1.156401	-0.775635	0.390137	-0.37207
1290.0	9.590566	-0.987396	1.731887	-1.868936	-0.107179	-1.142015	-0.775391	0.385498	-0.362793
1291.0	10.40764	-0.79756	1.690559	-1.797467	-0.171866	-1.116021	-0.781982	0.378906	-0.362305
1292.0	10.78944	-0.822909	1.424879	-1.768719	-0.111927	-1.086999	-0.78418	0.376709	-0.348389
1293.0	11.176503	-0.921587	1.541193	-1.720131	-0.065736	-1.053799	-0.785889	0.365723	-0.350342
1294.0	11.697597	-1.186725	1.748384	-1.671192	-0.093356	-1.023195	-0.792725	0.36792	-0.341064
1295.0	12.053641	-1.522564	1.623611	-1.575652	-0.146051	-1.005279	-0.796875	0.356689	-0.329102
1296.0	12.342732	-1.728206	1.386187	-1.484946	-0.171469	-0.995954	-0.799072	0.358887	-0.33374
1297.0	12.3642	-1.892827	0.992595	-1.380551	-0.175966	-0.979762	-0.808105	0.358887	-0.326904
1298.0	11.977302	-1.923707	0.543951	-1.276804	-0.120582	-0.957779	-0.812256	0.3479	-0.319336
1299.0	11.216183	-1.968051	0.532262	-1.099318	-0.00935	-0.942186	-0.814209	0.339111	-0.321533
1300.0	10.624246	-2.212881	1.747315	-0.932128	0.187332	-0.916851	-0.809326	0.33252	-0.31665
1301.0	10.269656	-3.352392	4.637633	-0.932723	0.511865	-0.806285	-0.813965	0.334717	-0.325928
1302.0	9.524356	-3.700643	6.322173	-0.76083	0.409585	-0.681972	-0.813721	0.330322	-0.325684
1303.0	8.934321	-1.508375	6.557786	-0.511338	-0.027719	-0.597737	-0.822754	0.330078	-0.323486
1304.0	8.482286	0.385728	5.740354	-0.866155	-0.115203	-0.464115	-0.818115	0.327881	-0.321045
1305.0	7.745369	0.630566	5.478078	-1.154169	-0.012731	-0.375315	-0.824463	0.319092	-0.320801
1306.0	6.963558	1.698258	6.202381	-1.295599	-0.123387	-0.330947	-0.829346	0.325684	-0.313965
1307.0	7.01308	1.985513	5.428589	-1.536925	-0.425176	-0.273063	-0.82251	0.325684	-0.30249
1308.0	8.033186	2.179365	4.827823	-1.65659	-0.427204	-0.23395	-0.831787	0.332275	-0.291016
1309.0	8.092425	2.202278	4.304776	-1.769321	-0.162564	-0.242638	-0.824951	0.327881	-0.293213
1310.0	7.757305	2.188745	4.439753	-1.860402	0.03366	-0.302315	-0.82959	0.332275	-0.281738
1311.0	8.045255	1.857319	4.886649	-1.946375	0.076109	-0.396253	-0.838623	0.332275	-0.283936
1312.0	9.29508	1.323291	5.369044	-1.999138	-0.026173	-0.516627	-0.84082	0.334473	-0.272461
1313.0	12.155353	0.601733	5.707417	-1.933355	-0.426211	-0.742383	-0.838135	0.323486	-0.269775
1314.0	13.470906	0.656525	4.538338	-1.911099	-0.473317	-0.934688	-0.842529	0.31665	-0.257813
1315.0	13.391897	0.776063	3.32764	-2.098325	-0.114601	-1.023158	-0.84668	0.312256	-0.255371
1316.0	12.48344	0.565336	3.690044	-2.234775	0.165242	-1.126385	-0.848633	0.303467	-0.24585
1317.0	10.853461	0.845604	4.081025	-2.243878	0.071863	-1.189856	-0.848145	0.29248	-0.243164
1318.0	10.139533	0.790837	3.45562	-2.282654	-0.122669	-1.184915	-0.856934	0.287842	-0.23584
1319.0	9.750287	0.579524	2.977219	-2.243334	-0.074593	-1.153642	-0.859131	0.28125	-0.22876
1320.0	9.518051	0.381303	2.988903	-2.202362	-0.037102	-1.135957	-0.865479	0.274658	-0.230713
1321.0	9.347568	0.52719	3.018237	-2.137356	-0.047307	-1.113073	-0.869629	0.263672	-0.221191
1322.0	9.429098	0.633809	3.031235	-2.167941	-0.129329	-1.106098	-0.878418	0.259033	-0.220947
1323.0	9.560291	0.735364	2.91824	-2.143041	-0.211563	-1.110637	-0.875732	0.250244	-0.211426
1324.0	9.455696	0.866983	2.626739	-2.196899	-0.217285	-1.138078	-0.884521	0.241455	-0.204102
1325.0	8.904271	0.783625	2.247186	-2.258256	-0.116891	-1.148375	-0.884277	0.234863	-0.196777
1326.0	8.40627	0.587484	2.373124	-2.272307	-0.050595	-1.193518	-0.888184	0.221436	-0.196289
1327.0	8.062917	0.561572	2.481057	-2.230797	-0.115225	-1.23352	-0.890137	0.212646	-0.188965
1328.0	8.041436	0.664676	2.267202	-2.188233	-0.233692	-1.260666	-0.889648	0.203857	-0.186279
1329.0	8.42935	0.551612	2.023039	-2.136163	-0.302086	-1.279247	-0.895996	0.190674	-0.178955
1330.0	8.845904	0.164901	1.736932	-2.105776	-0.312031	-1.294392	-0.897705	0.181641	-0.166992
1331.0	9.202005	-0.148923	1.623622	-2.044275	-0.293159	-1.311131	-0.89502	0.170654	-0.164307
1332.0	9.335389	-0.538536	1.520385	-1.982258	-0.253944	-1.295475	-0.90332	0.153076	-0.158936
