Acquisition frequency: 100 Hz
PacketCounter	Acc_X	Acc_Y	Acc_Z	Gyr_X	Gyr_Y	Gyr_Z	Mag_X	Mag_Y	Mag_Z
0.0	7.358685	1.313419	6.896304	-0.011674	-0.008858	-0.010304	-0.637695	-0.058838	-0.152344
1.0	7.361573	1.300287	6.916037	-0.009343	-0.011693	-0.013517	-0.64209	-0.056641	-0.152344
2.0	7.34645	1.282038	6.846361	-0.003272	-0.007586	-0.012863	-0.635254	-0.060791	-0.152344
3.0	7.376835	1.316507	6.86441	-0.005698	-0.007884	-0.015719	-0.64209	-0.054443	-0.154785
4.0	7.347677	1.285414	6.905188	-0.006535	-0.005957	-0.015178	-0.639648	-0.061035	-0.152344
5.0	7.345584	1.29955	6.884409	-0.005835	-0.007977	-0.01955	-0.641846	-0.061035	-0.154541
6.0	7.315847	1.266772	6.865361	-0.00658	-0.007522	-0.018214	-0.642334	-0.052246	-0.152588
7.0	7.333541	1.271251	6.894473	-0.011337	-0.009591	-0.023132	-0.639893	-0.054443	-0.152588
8.0	7.30373	1.23876	6.875467	-0.007833	-0.005872	-0.029164	-0.637695	-0.056641	-0.150146
9.0	7.372444	1.250987	6.873603	-0.005736	-0.01865	-0.029312	-0.635498	-0.058838	-0.147949
10.0	7.368707	1.281785	6.891856	0.002716	-0.004475	-0.036531	-0.639893	-0.058838	-0.152344
11.0	7.385223	1.286584	6.861368	0.005659	-0.003245	-0.039639	-0.635498	-0.058838	-0.152344
12.0	7.380761	1.318263	6.880197	0.005708	-0.001677	-0.036606	-0.639648	-0.061035	-0.156982
13.0	7.401246	1.410281	6.877109	0.005432	0.002745	-0.038992	-0.637695	-0.058838	-0.150146
14.0	7.385369	1.396614	6.868142	0.006831	0.007919	-0.037185	-0.644287	-0.058838	-0.154541
15.0	7.394631	1.442546	6.837201	-0.001944	0.005795	-0.024831	-0.639893	-0.056641	-0.150146
16.0	7.383675	1.400516	6.869169	-0.00978	0.007002	-0.025198	-0.639648	-0.061035	-0.147705
17.0	7.40218	1.389676	6.859909	-0.013144	0.003369	-0.015334	-0.641846	-0.061035	-0.147705
18.0	7.382349	1.401668	6.870359	-0.004848	0.010733	-0.013411	-0.641846	-0.061035	-0.150146
19.0	7.381336	1.402403	6.871298	0.006941	0.015091	-0.004545	-0.64624	-0.061035	-0.154541
20.0	7.361003	1.414485	6.882254	0.003854	0.01837	7e-06	-0.637695	-0.058838	-0.152344
21.0	7.364341	1.385578	6.864188	-0.009439	0.00818	0.006789	-0.633301	-0.056641	-0.152344
22.0	7.351257	1.354344	6.876013	-0.004824	0.010164	0.007878	-0.639893	-0.058838	-0.152344
23.0	7.369723	1.342159	6.867081	0.003617	0.013019	0.008357	-0.64209	-0.056641	-0.156982
24.0	7.392659	1.303732	6.899101	0.008088	0.019514	0.010892	-0.640137	-0.052246	-0.152588
25.0	7.352433	1.325176	6.86031	0.019473	0.023601	0.008266	-0.637451	-0.061035	-0.152344
26.0	7.359507	1.384227	6.869642	0.013641	0.018103	0.012233	-0.639893	-0.054443	-0.150146
27.0	7.36255	1.355704	6.851831	0.013591	0.021143	0.014473	-0.635742	-0.054443	-0.150146
28.0	7.39131	1.388915	6.871774	0.004535	0.018834	0.019158	-0.639893	-0.056641	-0.150146
29.0	7.371099	1.398911	6.882989	-0.003915	0.020587	0.023951	-0.635498	-0.056641	-0.152344
30.0	7.352756	1.392479	6.855015	-0.026399	0.01934	0.023879	-0.639893	-0.058838	-0.156982
31.0	7.360848	1.333016	6.878371	-0.042224	0.014939	0.03227	-0.644287	-0.058838	-0.152344
32.0	7.356129	1.355893	6.899108	-0.049868	0.013211	0.033479	-0.637939	-0.054443	-0.150146
33.0	7.29394	1.181743	6.856512	-0.067848	0.009273	0.025377	-0.633301	-0.056641	-0.152344
34.0	7.273335	1.088254	6.920182	-0.075382	-0.003125	0.016817	-0.633301	-0.056641	-0.152344
35.0	7.286625	0.999309	6.923061	-0.061171	-0.002501	0.00199	-0.639893	-0.058838	-0.147705
36.0	7.320359	1.002049	6.923409	-0.028258	0.011381	-0.016782	-0.637939	-0.054443	-0.150146
37.0	7.329524	1.046381	6.893271	-0.002586	0.014598	-0.033412	-0.639893	-0.056641	-0.152344
38.0	7.302262	1.103161	6.903055	0.013723	0.018382	-0.050788	-0.637695	-0.056641	-0.150146
39.0	7.328136	1.155259	6.902472	0.015238	0.012891	-0.058747	-0.628906	-0.056396	-0.150146
40.0	7.33244	1.233258	6.891176	0.025712	0.015787	-0.066892	-0.633545	-0.054443	-0.152588
41.0	7.389876	1.305937	6.869593	0.032898	0.013564	-0.06439	-0.639893	-0.054443	-0.156982
42.0	7.389413	1.413254	6.877523	0.028576	0.023117	-0.065522	-0.641846	-0.061035	-0.152344
43.0	7.340187	1.381774	6.830218	0.013692	0.015295	-0.056898	-0.637695	-0.056641	-0.156982
44.0	7.360566	1.363192	6.90136	-0.005365	0.007894	-0.056129	-0.637451	-0.061035	-0.152344
45.0	7.376072	1.368939	6.871945	0.004832	0.010036	-0.050644	-0.635498	-0.058838	-0.152344
46.0	7.371814	1.386374	6.852827	0.011281	0.025778	-0.046172	-0.635742	-0.054443	-0.154785
47.0	7.350272	1.401909	6.864228	0.008308	0.022983	-0.046115	-0.64209	-0.056641	-0.152344
48.0	7.38493	1.397212	6.885481	-0.00881	0.011879	-0.038761	-0.635498	-0.058838	-0.154785
49.0	7.368664	1.382111	6.877254	-0.014198	0.014934	-0.033245	-0.635742	-0.054443	-0.156982
50.0	7.375086	1.442454	6.886833	-0.001787	0.020332	-0.026476	-0.64209	-0.056641	-0.152344
51.0	7.37061	1.457456	6.868405	0.002632	0.031434	-0.018644	-0.639893	-0.054443	-0.159424
52.0	7.356235	1.4278	6.881269	-0.015932	0.018172	-0.010866	-0.637695	-0.058838	-0.152344
53.0	7.340333	1.40972	6.873258	-0.033239	0.010002	-0.005109	-0.641846	-0.061035	-0.154541
54.0	7.357769	1.297817	6.917618	-0.025532	0.014885	-0.000232	-0.635742	-0.052246	-0.156982
55.0	7.33038	1.349693	6.9278	-0.011145	0.02337	0.000154	-0.637451	-0.061035	-0.154541
56.0	7.315772	1.317074	6.881048	-0.004498	0.03157	0.000944	-0.64209	-0.056641	-0.156982
57.0	7.341333	1.363421	6.881568	-0.014663	0.019619	0.006175	-0.639893	-0.054443	-0.150146
58.0	7.335715	1.390052	6.902296	-0.020682	0.017046	0.008534	-0.637695	-0.058838	-0.152344
59.0	7.341591	1.345997	6.904908	-0.025075	0.013659	0.012055	-0.635254	-0.062988	-0.154541
60.0	7.313533	1.296007	6.907689	-0.027361	0.013445	0.01302	-0.639893	-0.056641	-0.15918
61.0	7.307323	1.221071	6.920784	-0.027775	0.006427	0.014492	-0.633545	-0.054443	-0.156982
62.0	7.348693	1.281184	6.87006	-0.012634	0.014459	0.013558	-0.635498	-0.056641	-0.156982
63.0	7.296732	1.272012	6.901656	-0.014467	0.016674	0.007764	-0.635498	-0.058838	-0.150146
64.0	7.329913	1.276199	6.902599	-0.015211	0.010974	0.000771	-0.633057	-0.062988	-0.15918
65.0	7.31691	1.24438	6.91425	-0.020178	0.005077	0.007213	-0.635498	-0.058838	-0.152344
66.0	7.32077	1.214781	6.895922	-0.013128	0.012591	-0.004823	-0.635498	-0.058838	-0.156982
67.0	7.349439	1.248505	6.915903	-0.003102	0.013087	-0.006183	-0.635742	-0.054443	-0.152588
68.0	7.299491	1.226441	6.907719	-0.003309	0.014488	-0.010812	-0.633545	-0.052246	-0.154785
69.0	7.325848	1.274236	6.907276	-0.006223	0.008651	-0.013007	-0.637939	-0.054443	-0.156982
70.0	7.312429	1.244958	6.918886	-0.003592	0.011223	-0.024565	-0.637695	-0.058838	-0.156982
71.0	7.343157	1.265244	6.899217	-0.005008	0.010639	-0.021102	-0.637695	-0.058838	-0.154785
72.0	7.344396	1.253218	6.920406	-0.002808	0.012336	-0.022861	-0.637695	-0.058838	-0.154785
73.0	7.317194	1.305987	6.870034	-0.010387	0.007542	-0.023924	-0.639893	-0.056641	-0.154785
74.0	7.337995	1.282298	6.881278	-0.011164	0.006435	-0.025631	-0.633301	-0.056641	-0.152344
75.0	7.342609	1.355506	6.870242	-0.008342	0.013755	-0.024231	-0.639893	-0.056641	-0.154785
76.0	7.331208	1.313052	6.902429	-0.005182	0.013605	-0.022695	-0.639893	-0.056641	-0.152344
77.0	7.327752	1.327463	6.883152	-0.013603	0.010733	-0.023219	-0.635498	-0.058838	-0.156982
78.0	7.341606	1.344914	6.893527	-0.017998	0.007338	-0.019706	-0.64209	-0.056641	-0.15918
79.0	7.309044	1.325946	6.914866	-0.01873	0.009338	-0.015329	-0.637695	-0.056641	-0.154785
80.0	7.344477	1.316672	6.876099	-0.014151	0.009779	-0.017256	-0.635742	-0.054443	-0.159424
81.0	7.343682	1.31826	6.936794	-0.016327	0.009634	-0.012457	-0.633301	-0.056641	-0.156982
82.0	7.294105	1.295145	6.928362	-0.023969	0.007867	-0.011278	-0.635498	-0.058838	-0.154785
83.0	7.35678	1.332606	6.888428	-0.017171	0.011561	-0.011917	-0.635742	-0.052246	-0.152588
84.0	7.323938	1.313191	6.910116	-0.014931	0.016366	-0.007587	-0.637695	-0.056641	-0.161621
85.0	7.322846	1.312532	6.911399	-0.020969	0.012231	-0.008287	-0.633545	-0.054443	-0.150146
86.0	7.338907	1.313762	6.882599	-0.020967	0.012233	-0.008288	-0.64209	-0.054443	-0.156982
87.0	7.32098	1.310671	6.913728	-0.022388	0.011641	-0.004825	-0.639893	-0.054443	-0.154785
88.0	7.339403	1.298394	6.905171	-0.013879	0.013038	-0.0035	-0.637695	-0.056641	-0.154785
89.0	7.309168	1.26343	6.887078	-0.023736	0.008018	-0.003615	-0.637939	-0.052246	-0.154785
90.0	7.337988	1.296061	6.907113	-0.020671	0.009347	-0.002868	-0.639893	-0.056641	-0.156982
91.0	7.322328	1.278284	6.898692	-0.00937	0.016513	-0.00317	-0.637939	-0.052246	-0.150146
92.0	7.299583	1.302642	6.889376	-0.006126	0.01488	-0.000836	-0.637939	-0.052246	-0.159424
93.0	7.322707	1.263842	6.921175	-0.017533	0.007647	-0.004375	-0.633545	-0.054443	-0.152588
94.0	7.305477	1.258857	6.89183	-0.030939	-0.0027	-0.001532	-0.637939	-0.052246	-0.152588
95.0	7.246443	1.191242	6.913642	-0.014413	0.004397	-0.008922	-0.637695	-0.056641	-0.156982
96.0	7.312027	1.215786	6.893438	-0.001621	0.000818	-0.001167	-0.637939	-0.054443	-0.154785
97.0	7.290074	1.240914	6.883151	0.003352	0.006743	-0.007593	-0.640137	-0.052246	-0.154785
98.0	7.319628	1.274978	6.902169	-0.012774	-0.012407	-0.005378	-0.633057	-0.060791	-0.154541
99.0	7.332717	1.305039	6.890851	-0.014592	-0.010174	-0.011176	-0.635742	-0.052246	-0.156982
100.0	7.342183	1.25017	6.911759	-0.001854	-0.000863	-0.011888	-0.631104	-0.056396	-0.15918
101.0	7.33978	1.264284	6.891492	-0.002611	-0.000421	-0.010553	-0.633057	-0.060791	-0.154541
102.0	7.337702	1.279185	6.930759	-0.016877	-0.010396	-0.010217	-0.638184	-0.047852	-0.154785
103.0	7.37705	1.256306	6.910689	-0.015271	-0.01276	-0.012096	-0.633545	-0.054443	-0.156982
104.0	7.343263	1.251027	6.910457	-0.001188	0.00018	-0.014016	-0.631104	-0.056641	-0.152344
105.0	7.304374	1.273386	6.870101	0.001858	-3.9e-05	-0.016312	-0.637939	-0.054443	-0.152588
106.0	7.309139	1.247508	6.910268	-0.005433	-0.009284	-0.01502	-0.631348	-0.054443	-0.152588
107.0	7.360836	1.255681	6.879462	-0.016039	-0.013865	-0.013808	-0.639893	-0.056641	-0.150146
108.0	7.373846	1.286386	6.868078	-0.006962	-0.009945	-0.015397	-0.640137	-0.050049	-0.152588
109.0	7.354406	1.298582	6.877725	0.002373	0.007061	-0.013932	-0.639893	-0.056641	-0.154785
110.0	7.33933	1.282487	6.868374	-0.006535	-0.001367	-0.013808	-0.642578	-0.045654	-0.155029
111.0	7.337021	1.297398	6.907889	-0.020383	-0.004316	-0.01493	-0.639893	-0.056641	-0.156982
112.0	7.381255	1.346898	6.876718	-0.007774	-0.004929	-0.008762	-0.639893	-0.056641	-0.150146
113.0	7.354003	1.299838	6.877918	-0.002959	0.007059	-0.010675	-0.640137	-0.052246	-0.161621
114.0	7.382878	1.334219	6.897569	-0.001139	0.004823	-0.004878	-0.639893	-0.058838	-0.154785
115.0	7.360923	1.358937	6.887337	-0.005531	0.001412	-0.001374	-0.644043	-0.061035	-0.150146
116.0	7.353095	1.299788	6.878899	-0.010197	0.002446	-0.000245	-0.640137	-0.050049	-0.157227
117.0	7.355229	1.285529	6.899498	-0.010182	0.003991	0.002802	-0.642334	-0.050049	-0.154785
118.0	7.371816	1.28704	6.870134	-0.004244	0.009612	0.002722	-0.637939	-0.052246	-0.156982
119.0	7.371235	1.286536	6.870851	-0.000229	0.009081	0.006767	-0.637939	-0.054443	-0.159424
120.0	7.341774	1.352722	6.86031	0.00877	0.016029	0.007438	-0.639893	-0.058838	-0.152344
121.0	7.36494	1.314295	6.892008	0.000454	0.011668	0.007686	-0.640137	-0.050049	-0.152588
122.0	7.349714	1.296283	6.883172	-0.008514	0.007811	0.013108	-0.637939	-0.052246	-0.150146
123.0	7.366394	1.298077	6.913688	-0.012331	0.006925	0.013691	-0.640137	-0.052246	-0.152588
124.0	7.370543	1.268139	6.895227	-0.003225	0.013935	0.018202	-0.635742	-0.050049	-0.154785
125.0	7.333439	1.274378	6.876171	-0.005617	0.013651	0.015322	-0.640137	-0.050049	-0.154785
126.0	7.366968	1.278376	6.876949	-0.006012	0.008163	0.019822	-0.638184	-0.045654	-0.155029
127.0	7.339586	1.228993	6.87861	-0.012222	0.006994	0.017525	-0.637939	-0.052246	-0.159424
128.0	7.360876	1.202315	6.889855	-0.010886	0.009077	0.013271	-0.638184	-0.047852	-0.150391
129.0	7.353502	1.24247	6.889697	-0.003827	0.008324	0.015024	-0.640137	-0.052246	-0.154785
130.0	7.338248	1.224311	6.880872	-0.003339	0.012331	0.011315	-0.640137	-0.052246	-0.152588
131.0	7.320485	1.221033	6.911741	-0.007262	0.011385	0.008058	-0.640381	-0.045654	-0.150391
132.0	7.341734	1.193753	6.863184	-0.013977	0.004665	0.006421	-0.638184	-0.047852	-0.150391
133.0	7.331384	1.148354	6.894472	-0.01943	0.003056	0.002787	-0.633789	-0.047852	-0.154785
134.0	7.360654	1.179981	6.854369	-0.009523	0.003501	-0.002379	-0.637939	-0.050049	-0.150391
135.0	7.336078	1.219351	6.884066	-0.005394	0.011358	-0.00825	-0.640137	-0.052246	-0.154785
136.0	7.330459	1.247952	6.904378	0.000727	0.014009	-0.006741	-0.637939	-0.050049	-0.154785
137.0	7.346527	1.250472	6.875474	-0.00777	0.01262	-0.008084	-0.637939	-0.052246	-0.154785
138.0	7.375093	1.284128	6.895701	-0.012166	0.009212	-0.004588	-0.635986	-0.047852	-0.152588
139.0	7.369004	1.211333	6.907896	-0.018285	0.006562	-0.006099	-0.635742	-0.050049	-0.152588
140.0	7.346663	1.235455	6.898248	-0.013872	0.011517	-0.006548	-0.635986	-0.047852	-0.154785
141.0	7.370393	1.29621	6.878347	0.0022	0.019247	-0.001057	-0.642578	-0.045654	-0.157227
142.0	7.388264	1.284964	6.870249	0.000523	0.02464	0.003077	-0.642334	-0.050049	-0.159424
143.0	7.335791	1.27646	6.901704	-0.01537	0.013945	-0.000836	-0.637939	-0.050049	-0.152588
144.0	7.359078	1.235417	6.873745	-0.027402	0.008766	0.003812	-0.635986	-0.047852	-0.145752
145.0	7.367415	1.178748	6.895975	-0.014786	0.016474	-0.003752	-0.638184	-0.047852	-0.157227
146.0	7.385982	1.267719	6.89603	0.007984	0.029379	0.000347	-0.640381	-0.047852	-0.152588
147.0	7.33535	1.245219	6.888349	-0.004238	0.025625	0.000362	-0.637939	-0.054443	-0.147949
148.0	7.351172	1.247463	6.919635	-0.028942	0.006564	0.000373	-0.638184	-0.047852	-0.154785
149.0	7.379415	1.177637	6.872144	-0.03369	0.009091	0.0007	-0.637939	-0.050049	-0.154785
150.0	7.32236	1.196308	6.922908	-0.015116	0.023962	-0.00387	-0.638184	-0.045654	-0.145752
151.0	7.310664	1.150773	6.895711	-0.012168	0.023687	-0.009998	-0.638184	-0.047852	-0.152588
152.0	7.302242	1.192171	6.896521	-0.018792	0.015484	-0.010863	-0.640137	-0.050049	-0.152588
153.0	7.320649	1.180345	6.88798	-0.020828	0.009267	-0.010588	-0.642334	-0.050049	-0.152588
154.0	7.341428	1.15516	6.89946	-0.016338	0.011198	-0.013286	-0.640381	-0.047852	-0.154785
155.0	7.335714	1.183457	6.91989	-0.012619	0.012028	-0.017698	-0.640381	-0.047852	-0.152588
156.0	7.300689	1.17831	6.920771	-0.011012	0.009665	-0.019577	-0.642578	-0.047852	-0.152588
157.0	7.346588	1.214758	6.910935	-0.016678	0.001132	-0.014103	-0.640137	-0.050049	-0.157227
158.0	7.367951	1.189444	6.862151	-0.008733	0.008351	-0.02358	-0.635986	-0.045654	-0.157227
159.0	7.345265	1.216289	6.912073	-0.0117	0.005543	-0.023554	-0.640381	-0.047852	-0.154785
160.0	7.327469	1.214955	6.942425	-0.009323	0.004283	-0.023718	-0.635742	-0.050049	-0.154785
161.0	7.363567	1.206999	6.903233	-0.016962	0.000971	-0.025626	-0.638184	-0.045654	-0.152588
162.0	7.331385	1.188605	6.923595	-0.013912	0.00076	-0.027914	-0.638184	-0.045654	-0.155029
163.0	7.348009	1.192377	6.894069	-0.007983	0.004846	-0.031019	-0.633545	-0.052246	-0.154785
164.0	7.347741	1.294556	6.902851	0.000513	0.007779	-0.026606	-0.635742	-0.052246	-0.156982
165.0	7.351713	1.268243	6.883966	-0.000917	0.007169	-0.023149	-0.635742	-0.052246	-0.154785
166.0	7.333956	1.266944	6.914248	-0.021619	0.000471	-0.027569	-0.642578	-0.047852	-0.157227
167.0	7.338807	1.238793	6.894778	-0.027093	-0.009508	-0.01747	-0.640381	-0.045654	-0.152588
168.0	7.34809	1.183801	6.915701	-0.009311	0.004298	-0.023725	-0.638184	-0.047852	-0.157227
169.0	7.357289	1.229369	6.885796	0.006637	0.013522	-0.018977	-0.640381	-0.047852	-0.154785
170.0	7.334659	1.255568	6.876033	-0.007014	0.006063	-0.021629	-0.640381	-0.047852	-0.150391
171.0	7.351142	1.259718	6.906236	-0.017433	-0.003042	-0.021938	-0.637939	-0.050049	-0.150391
172.0	7.358107	1.218555	6.907024	-0.014467	-0.000226	-0.021963	-0.633545	-0.050049	-0.159424
173.0	7.355324	1.233067	6.887234	-0.003959	0.007397	-0.020865	-0.635986	-0.047852	-0.152588
174.0	7.339818	1.217678	6.878165	0.001966	0.011492	-0.023966	-0.633789	-0.047852	-0.157227
175.0	7.334133	1.247212	6.898233	-0.008445	0.003919	-0.021226	-0.635986	-0.047852	-0.152588
176.0	7.333737	1.247741	6.898559	-0.018269	0.000418	-0.018347	-0.642334	-0.050049	-0.157227
177.0	7.355003	1.223643	6.909429	-0.007006	0.006074	-0.021634	-0.640381	-0.045654	-0.161865
178.0	7.352044	1.238303	6.889796	-0.004626	0.006352	-0.018744	-0.640381	-0.045654	-0.157227
179.0	7.353693	1.225632	6.910472	-0.008438	0.005459	-0.018176	-0.640625	-0.04126	-0.155029
180.0	7.338682	1.209299	6.901052	-0.013687	0.000879	-0.020255	-0.640381	-0.045654	-0.152588
181.0	7.35279	1.227004	6.911189	-0.007674	0.005027	-0.019512	-0.640381	-0.045654	-0.155029
182.0	7.337626	1.210986	6.901879	-0.008525	0.005416	-0.02202	-0.640381	-0.047852	-0.157227
183.0	7.334821	1.225597	6.882089	-0.005205	0.002285	-0.018887	-0.635742	-0.052246	-0.154785
184.0	7.33685	1.212808	6.902385	-0.014354	-0.001704	-0.021189	-0.638184	-0.045654	-0.157227
185.0	7.353864	1.215846	6.872627	-0.01359	-0.000604	-0.019471	-0.63623	-0.04126	-0.155029
186.0	7.353468	1.216737	6.872893	-0.00462	0.004832	-0.021802	-0.638184	-0.047852	-0.159424
187.0	7.316204	1.22657	6.912836	-0.004618	0.004833	-0.021803	-0.633545	-0.052246	-0.150146
188.0	7.347216	1.248095	6.952758	-0.009682	-0.002724	-0.022307	-0.640625	-0.04126	-0.152832
189.0	7.349757	1.234657	6.913052	-0.010532	-0.002333	-0.024816	-0.640381	-0.047852	-0.159424
190.0	7.334969	1.218816	6.903326	-0.006811	0.001586	-0.023119	-0.640137	-0.050049	-0.152588
191.0	7.344436	1.264363	6.873043	-0.000622	0.002762	-0.020795	-0.637939	-0.050049	-0.150391
192.0	7.346257	1.252167	6.893462	-0.002999	0.004018	-0.020633	-0.640381	-0.047852	-0.157227
193.0	7.333713	1.222448	6.904017	-0.017477	-0.001543	-0.022755	-0.635986	-0.047852	-0.157227
194.0	7.399229	1.248635	6.884177	-0.012049	-0.001463	-0.022151	-0.642334	-0.052246	-0.152588
195.0	7.335817	1.209707	6.864676	-0.003088	0.005512	-0.021424	-0.644531	-0.050049	-0.154785
196.0	7.330187	1.239069	6.884613	-0.00461	0.004847	-0.021809	-0.633545	-0.050049	-0.159424
197.0	7.349287	1.229127	6.875159	-0.01052	-0.000794	-0.02177	-0.637939	-0.050049	-0.150391
198.0	7.35369	1.202903	6.915545	-0.009846	0.000264	-0.023895	-0.637939	-0.052246	-0.150146
199.0	7.331353	1.228845	6.905388	-0.000797	0.005754	-0.022377	-0.637939	-0.054443	-0.154785
200.0	7.347862	1.233029	6.875984	-0.000795	0.005755	-0.022378	-0.638184	-0.047852	-0.152588
201.0	7.361787	1.251421	6.886149	-0.009932	0.001755	-0.024687	-0.635742	-0.050049	-0.154785
202.0	7.356331	1.280518	6.905903	-0.00908	0.001365	-0.022179	-0.640381	-0.045654	-0.155029
203.0	7.343771	1.250997	6.916475	-0.004511	0.003368	-0.021025	-0.633545	-0.050049	-0.154785
204.0	7.358144	1.268304	6.866802	-0.008319	0.002465	-0.02046	-0.640381	-0.047852	-0.152588
205.0	7.326081	1.249644	6.887071	-0.007553	0.002036	-0.021796	-0.638184	-0.045654	-0.152588
206.0	7.364701	1.228599	6.867989	-0.01459	0.002776	-0.023578	-0.640137	-0.050049	-0.150391
207.0	7.346957	1.226743	6.89828	-0.006894	0.006153	-0.017808	-0.642578	-0.043457	-0.155029
208.0	7.338765	1.269399	6.898289	-0.005546	0.008273	-0.022058	-0.640137	-0.050049	-0.147949
209.0	7.357431	1.25964	6.889305	-0.004788	0.009372	-0.020338	-0.638184	-0.047852	-0.152588
210.0	7.37111	1.277756	6.899759	-0.010016	0.004783	-0.022428	-0.633545	-0.052246	-0.150146
211.0	7.341713	1.244355	6.880511	-0.014497	0.002817	-0.019739	-0.642334	-0.050049	-0.154785
212.0	7.380203	1.223087	6.861659	-0.010116	0.007801	-0.02016	-0.637939	-0.052246	-0.152588
213.0	7.374347	1.251851	6.881848	-0.010022	0.006313	-0.019372	-0.633301	-0.056641	-0.154785
214.0	7.35393	1.263879	6.892266	-0.002589	0.01111	-0.022079	-0.646729	-0.050049	-0.154785
215.0	7.352928	1.264982	6.893132	-0.009449	0.010391	-0.019229	-0.637939	-0.054443	-0.150146
216.0	7.332416	1.276655	6.9037	-0.013337	0.009449	-0.022513	-0.639893	-0.056641	-0.156982
217.0	7.356275	1.238507	6.875236	-0.010108	0.007808	-0.020165	-0.638184	-0.047852	-0.159424
218.0	7.369773	1.256505	6.885898	-0.005637	0.011305	-0.019795	-0.640137	-0.050049	-0.152588
219.0	7.32039	1.234229	6.876768	-0.007923	0.011065	-0.018846	-0.635986	-0.047852	-0.154785
220.0	7.345898	1.282682	6.877234	-0.014004	0.008391	-0.020393	-0.640137	-0.050049	-0.152588
221.0	7.338258	1.224479	6.868693	-0.013156	0.007998	-0.017883	-0.633545	-0.052246	-0.159424
222.0	7.35424	1.228256	6.899453	-0.013922	0.008426	-0.016548	-0.631836	-0.043457	-0.155029
223.0	7.331415	1.253288	6.889864	-0.009439	0.010403	-0.019235	-0.640137	-0.050049	-0.150391
224.0	7.332912	1.240425	6.910767	-0.010097	0.007818	-0.020171	-0.637939	-0.052246	-0.156982
225.0	7.334494	1.227571	6.931577	-0.010096	0.007819	-0.020172	-0.640137	-0.052246	-0.147949
226.0	7.363005	1.261579	6.892209	-0.014576	0.005843	-0.017487	-0.638184	-0.047852	-0.154785
227.0	7.348013	1.245044	6.882886	-0.010752	0.005236	-0.02111	-0.637939	-0.050049	-0.159424
228.0	7.347265	1.245919	6.883526	-0.007053	0.009163	-0.019399	-0.640381	-0.045654	-0.155029
229.0	7.360904	1.263819	6.894042	-0.009904	0.004842	-0.0186	-0.644775	-0.047852	-0.157227
230.0	7.345954	1.247215	6.884691	-0.014571	0.005846	-0.017491	-0.639893	-0.056641	-0.152344
231.0	7.333374	1.217011	6.895447	-0.014628	0.004299	-0.024402	-0.635986	-0.047852	-0.152588
232.0	7.3643	1.237777	6.876096	-0.007706	0.006583	-0.020338	-0.640137	-0.052246	-0.154785
233.0	7.346331	1.235923	6.906506	-0.009317	0.007406	-0.021515	-0.642334	-0.050049	-0.152588
234.0	7.331306	1.219851	6.897144	-0.009203	0.004396	-0.023789	-0.640137	-0.052246	-0.150146
235.0	7.376537	1.258122	6.887666	-0.007008	0.006135	-0.025526	-0.633545	-0.050049	-0.147949
236.0	7.341893	1.253142	6.887945	-0.007681	0.005069	-0.023403	-0.635742	-0.050049	-0.152588
237.0	7.361021	1.243411	6.87859	-0.01289	0.000473	-0.025507	-0.637939	-0.050049	-0.157227
238.0	7.331463	1.210819	6.918801	-0.012982	0.001968	-0.026296	-0.642334	-0.052246	-0.154785
239.0	7.359955	1.245938	6.879273	-0.003269	0.007036	-0.029939	-0.640137	-0.050049	-0.154785
240.0	7.375766	1.251286	6.909907	-0.005648	0.008283	-0.02978	-0.633545	-0.050049	-0.150391
241.0	7.336223	1.273956	6.870026	-0.008493	0.003959	-0.028985	-0.639893	-0.054443	-0.150146
242.0	7.30948	1.227445	6.870603	-0.014561	0.001277	-0.030543	-0.640137	-0.050049	-0.157227
243.0	7.359567	1.238826	6.901169	-0.005431	0.00379	-0.031272	-0.642334	-0.052246	-0.152588
244.0	7.353383	1.268895	6.92127	-0.000295	0.00837	-0.033018	-0.637695	-0.058838	-0.150146
245.0	7.36434	1.301817	6.911681	-0.002415	0.006654	-0.027434	-0.635742	-0.050049	-0.157227
246.0	7.346813	1.300144	6.882207	-0.005542	0.006805	-0.029001	-0.640137	-0.052246	-0.154785
247.0	7.346094	1.301565	6.882705	-0.013053	0.00347	-0.027099	-0.635742	-0.052246	-0.147949
248.0	7.353456	1.261041	6.88347	-0.016735	-0.000459	-0.028819	-0.640137	-0.052246	-0.154785
249.0	7.38193	1.295884	6.843985	-0.005493	0.00835	-0.022089	-0.637939	-0.050049	-0.154785
250.0	7.349486	1.277237	6.864565	-0.001783	0.010768	-0.023435	-0.640137	-0.050049	-0.150391
251.0	7.351084	1.264779	6.885318	-0.010715	0.005262	-0.021136	-0.640137	-0.050049	-0.152588
252.0	7.352922	1.251876	6.905897	-0.016101	0.003647	-0.024822	-0.642578	-0.047852	-0.154785
253.0	7.352765	1.252274	6.846701	-0.008615	0.008505	-0.02366	-0.642578	-0.047852	-0.154785
254.0	7.365537	1.271118	6.917195	-0.004742	0.009452	-0.020365	-0.637939	-0.052246	-0.154785
255.0	7.36276	1.28554	6.83806	-0.006324	0.008761	-0.024609	-0.642334	-0.052246	-0.156982
256.0	7.341683	1.297927	6.908186	-0.011545	0.00567	-0.023657	-0.640137	-0.052246	-0.154785
257.0	7.36369	1.273919	6.859379	-0.008446	0.007036	-0.019024	-0.635742	-0.050049	-0.154785
258.0	7.379561	1.278445	6.890074	-0.005481	0.008366	-0.022096	-0.640137	-0.050049	-0.152588
259.0	7.350301	1.245058	6.870861	-0.010828	0.008278	-0.018867	-0.644287	-0.056641	-0.152344
260.0	7.344086	1.273567	6.891163	-0.011473	0.005693	-0.019808	-0.639893	-0.054443	-0.152588
261.0	7.34326	1.27432	6.891904	-0.007891	0.011122	-0.018873	-0.644287	-0.054443	-0.152344
262.0	7.362009	1.264488	6.883091	-0.010146	0.009357	-0.020994	-0.644531	-0.050049	-0.152588
263.0	7.35567	1.293254	6.903458	-0.003798	0.00757	-0.017068	-0.640381	-0.047852	-0.154785
264.0	7.338314	1.290363	6.874057	-0.013786	0.006952	-0.0158	-0.637939	-0.052246	-0.152588
265.0	7.345589	1.249087	6.875167	-0.012271	0.007627	-0.01541	-0.637695	-0.056641	-0.150146
266.0	7.339274	1.277426	6.895574	-0.009304	0.00896	-0.018481	-0.644287	-0.054443	-0.147949
267.0	7.358171	1.267425	6.886654	-0.008466	0.008559	-0.015965	-0.637939	-0.050049	-0.150391
268.0	7.323498	1.261445	6.887061	-0.009979	0.007886	-0.016358	-0.639893	-0.054443	-0.152588
269.0	7.356881	1.268305	6.88787	-0.014232	0.001379	-0.015173	-0.635742	-0.052246	-0.154785
270.0	7.358778	1.25519	6.908421	-0.007752	0.008131	-0.021158	-0.637939	-0.050049	-0.147949
271.0	7.335755	1.280288	6.898788	-0.007723	0.009655	-0.014237	-0.637939	-0.054443	-0.147949
272.0	7.354621	1.270383	6.889899	-0.00701	0.009225	-0.01943	-0.640137	-0.050049	-0.150391
273.0	7.334784	1.281397	6.840443	-0.011453	0.005708	-0.019821	-0.642334	-0.052246	-0.152588
274.0	7.336566	1.268254	6.861122	-0.011487	0.007217	-0.016754	-0.631348	-0.054443	-0.154785
275.0	7.352407	1.272299	6.891909	-0.006946	0.009242	-0.015577	-0.64209	-0.054443	-0.152588
276.0	7.354022	1.259289	6.912738	-0.009293	0.008973	-0.018488	-0.635742	-0.052246	-0.159424
277.0	7.331033	1.284179	6.903082	-0.011483	0.00722	-0.016757	-0.637939	-0.054443	-0.156982
278.0	7.35259	1.260013	6.914129	-0.015223	0.006299	-0.012351	-0.635742	-0.054443	-0.154785
279.0	7.355035	1.246097	6.875105	-0.011578	0.008718	-0.017545	-0.640137	-0.052246	-0.150146
280.0	7.36276	1.291684	6.905561	-0.005332	0.008427	-0.014399	-0.639893	-0.056641	-0.15918
281.0	7.34776	1.275215	6.896325	-0.009384	0.010475	-0.019278	-0.635742	-0.050049	-0.154785
282.0	7.364257	1.27887	6.86736	-0.014502	0.005875	-0.017548	-0.639893	-0.054443	-0.154785
283.0	7.329641	1.272571	6.867721	-0.012348	0.009138	-0.016211	-0.640137	-0.052246	-0.152588
284.0	7.351001	1.248766	6.878934	-0.008547	0.010074	-0.016761	-0.637939	-0.052246	-0.156982
285.0	7.344493	1.277191	6.899438	-0.010794	0.00831	-0.018888	-0.644531	-0.050049	-0.150391
286.0	7.330346	1.260027	6.830342	-0.016881	0.007115	-0.017396	-0.64209	-0.054443	-0.156982
287.0	7.345635	1.264096	6.920773	-0.015869	0.002204	-0.020231	-0.640137	-0.052246	-0.156982
288.0	7.344904	1.264913	6.9214	-0.000944	0.011953	-0.017861	-0.639893	-0.056641	-0.150146
289.0	7.344628	1.265691	6.862482	-0.004743	0.011017	-0.017313	-0.640137	-0.052246	-0.156982
290.0	7.343087	1.266699	6.923001	-0.013714	0.005468	-0.018894	-0.640137	-0.050049	-0.154785
291.0	7.377081	1.273349	6.864211	-0.015266	0.006297	-0.01622	-0.640137	-0.050049	-0.147949
292.0	7.34166	1.267409	6.924384	-0.007028	0.01076	-0.016371	-0.644287	-0.056641	-0.154785
293.0	7.355615	1.2851	6.875454	-0.006154	0.00885	-0.016923	-0.639893	-0.054443	-0.156982
294.0	7.323375	1.265455	6.895841	-0.009272	0.008997	-0.0185	-0.639893	-0.054443	-0.156982
295.0	7.356643	1.272634	6.896795	-0.015023	0.001802	-0.017722	-0.637939	-0.050049	-0.154785
296.0	7.36185	1.245293	6.877535	-0.008342	0.007094	-0.015195	-0.637939	-0.052246	-0.150146
297.0	7.333026	1.298118	6.887634	-0.003959	0.010616	-0.018653	-0.642334	-0.052246	-0.154785
298.0	7.360139	1.247078	6.879044	-0.006149	0.008856	-0.016925	-0.642334	-0.050049	-0.157227
299.0	7.353689	1.275426	6.899429	-0.01136	0.005743	-0.015989	-0.635742	-0.054443	-0.152588
300.0	7.350605	1.289483	6.87999	-0.012136	0.006157	-0.014651	-0.635742	-0.050049	-0.154785
301.0	7.354738	1.26239	6.920848	-0.009407	0.012005	-0.016219	-0.637939	-0.050049	-0.157227
302.0	7.337322	1.259408	6.891586	-0.007603	0.008188	-0.013465	-0.640137	-0.052246	-0.152588
303.0	7.356398	1.249477	6.882608	-0.009164	0.007509	-0.01772	-0.637939	-0.052246	-0.154785
304.0	7.35241	1.263889	6.923048	-0.017588	0.006038	-0.01915	-0.64209	-0.054443	-0.156982
305.0	7.332792	1.274496	6.873502	-0.008236	0.005604	-0.014415	-0.642334	-0.052246	-0.154785
306.0	7.329612	1.288902	6.854104	-0.006142	0.008867	-0.016929	-0.637939	-0.054443	-0.152588
307.0	7.339619	1.234276	6.875072	-0.012958	0.006572	-0.017178	-0.637939	-0.052246	-0.154785
308.0	7.333278	1.262383	6.895345	-0.011983	0.003165	-0.016944	-0.637939	-0.052246	-0.154785
309.0	7.360696	1.297402	6.916133	-0.006918	0.009282	-0.015592	-0.639893	-0.054443	-0.156982
310.0	7.331714	1.263604	6.896784	-0.008621	0.011604	-0.017561	-0.64209	-0.054443	-0.152588
311.0	7.362269	1.284684	6.877989	-0.011346	0.005754	-0.015998	-0.638184	-0.045654	-0.152588
312.0	7.350211	1.253939	6.888405	-0.013535	0.00399	-0.014272	-0.635742	-0.050049	-0.152588
313.0	7.369359	1.243893	6.87941	-0.010858	0.009843	-0.019695	-0.637939	-0.054443	-0.159424
314.0	7.342799	1.282752	6.909662	-0.00925	0.009023	-0.018513	-0.64209	-0.056641	-0.154785
315.0	7.331285	1.2523	6.860532	-0.009249	0.009024	-0.018513	-0.635742	-0.050049	-0.159424
316.0	7.378356	1.277018	6.871838	-0.010658	0.006848	-0.018126	-0.635742	-0.050049	-0.154785
317.0	7.332157	1.239827	6.882032	-0.012459	0.010671	-0.020882	-0.635742	-0.054443	-0.150146
318.0	7.345154	1.257916	6.893073	-0.007055	0.010796	-0.020242	-0.639893	-0.056641	-0.156982
319.0	7.341832	1.272611	6.873783	-0.00676	0.006298	-0.017885	-0.633545	-0.052246	-0.154785
320.0	7.33778	1.287049	6.914194	-0.013721	0.006993	-0.015852	-0.642334	-0.050049	-0.154785
321.0	7.362673	1.249566	6.885538	-0.007051	0.0108	-0.020243	-0.631592	-0.045654	-0.157227
322.0	7.339369	1.274656	6.876034	-0.007732	0.009711	-0.018121	-0.637939	-0.050049	-0.157227
323.0	7.354957	1.278901	6.906976	-0.009239	0.009034	-0.01852	-0.637939	-0.050049	-0.154785
324.0	7.356629	1.265695	6.927747	-0.013033	0.008088	-0.01798	-0.637939	-0.054443	-0.152588
325.0	7.370624	1.283455	6.878932	-0.009334	0.010537	-0.019307	-0.644287	-0.054443	-0.161621
326.0	7.338374	1.263556	6.899259	-0.009235	0.009038	-0.018522	-0.637939	-0.052246	-0.154785
327.0	7.351414	1.281408	6.910283	-0.014732	0.010414	-0.019953	-0.640381	-0.047852	-0.161621
328.0	7.342605	1.236911	6.881075	-0.011324	0.005769	-0.016014	-0.642334	-0.052246	-0.156982
329.0	7.353368	1.268454	6.871888	-0.012245	0.007686	-0.019323	-0.637939	-0.050049	-0.152588
330.0	7.335145	1.265832	6.902275	-0.009273	0.009051	-0.022386	-0.642334	-0.050049	-0.157227
331.0	7.354123	1.256286	6.893448	-0.008503	0.010131	-0.016788	-0.642334	-0.052246	-0.154785
332.0	7.350835	1.270666	6.874189	-0.012142	0.006188	-0.018541	-0.635986	-0.047852	-0.152588
333.0	7.352628	1.257501	6.894821	-0.011458	0.007284	-0.020665	-0.633545	-0.054443	-0.154785
334.0	7.349406	1.272191	6.875435	-0.008288	0.005649	-0.022157	-0.640381	-0.047852	-0.157227
335.0	7.351093	1.259312	6.896127	-0.009323	0.010552	-0.019314	-0.633545	-0.050049	-0.152588
336.0	7.330303	1.270446	6.90657	-0.009947	0.007966	-0.020268	-0.64209	-0.056641	-0.152344
337.0	7.347113	1.274546	6.877449	-0.016496	0.001163	-0.022038	-0.644287	-0.054443	-0.156982
338.0	7.349197	1.261263	6.897791	-0.012759	0.003608	-0.0195	-0.633545	-0.052246	-0.156982
339.0	7.376225	1.29684	6.918825	-0.002455	0.011378	-0.022129	-0.64209	-0.054443	-0.159424
340.0	7.358752	1.294704	6.889526	-0.004742	0.011106	-0.021193	-0.635742	-0.054443	-0.161621
341.0	7.338081	1.305804	6.899825	-0.015042	0.003336	-0.018566	-0.635742	-0.050049	-0.154785
342.0	7.36248	1.268185	6.930669	-0.014417	0.005924	-0.017613	-0.644531	-0.050049	-0.152588
343.0	7.328965	1.261553	6.870995	-0.010683	0.00837	-0.015073	-0.635742	-0.050049	-0.147949
344.0	7.361904	1.269278	6.872355	-0.003917	0.010696	-0.01867	-0.639893	-0.054443	-0.156982
345.0	7.323847	1.276872	6.912231	-0.010422	0.003877	-0.016582	-0.635986	-0.047852	-0.152588
346.0	7.374537	1.287797	6.883673	-0.012808	0.005105	-0.016431	-0.635742	-0.050049	-0.154785
347.0	7.342595	1.267404	6.903694	-0.009896	0.007968	-0.016414	-0.640137	-0.052246	-0.147949
348.0	7.373152	1.288767	6.884976	-0.008291	0.007147	-0.015228	-0.639893	-0.054443	-0.150146
349.0	7.341176	1.268672	6.90497	-0.005219	0.007019	-0.017503	-0.640137	-0.052246	-0.154785
350.0	7.374192	1.276358	6.906268	-0.014605	0.008936	-0.019191	-0.638184	-0.047852	-0.157227
351.0	7.339679	1.269679	6.906376	-0.006649	0.006312	-0.01018	-0.642334	-0.052246	-0.154785
352.0	7.322497	1.266793	6.876924	-0.010126	0.010994	-0.02185	-0.637695	-0.056641	-0.150146
353.0	7.375437	1.264103	6.868641	-0.013583	0.005514	-0.015099	-0.642578	-0.047852	-0.157227
354.0	7.320009	1.267555	6.938099	-0.011393	0.007295	-0.016821	-0.642334	-0.052246	-0.154785
355.0	7.354161	1.275235	6.879538	-0.005178	0.007011	-0.013643	-0.642334	-0.050049	-0.154785
356.0	7.333445	1.286102	6.889874	-0.009987	0.009481	-0.017204	-0.640137	-0.052246	-0.154785
357.0	7.335173	1.272706	6.910605	-0.012174	0.007701	-0.015485	-0.637939	-0.050049	-0.150391
358.0	7.374548	1.252395	6.891876	-0.013378	0.002511	-0.013534	-0.637939	-0.050049	-0.159424
359.0	7.356537	1.249093	6.922038	-0.011487	0.008804	-0.017609	-0.64209	-0.054443	-0.156982
360.0	7.33065	1.287731	6.892544	-0.00691	0.009362	-0.01948	-0.637695	-0.056641	-0.147949
361.0	7.338552	1.247056	6.8933	-0.009783	0.006479	-0.015638	-0.639893	-0.054443	-0.150146
362.0	7.349201	1.278601	6.884212	-0.01439	0.005942	-0.017633	-0.639893	-0.054443	-0.150146
363.0	7.337313	1.247947	6.894459	-0.009713	0.004997	-0.01872	-0.633545	-0.054443	-0.156982
364.0	7.347853	1.279938	6.885402	-0.006906	0.009368	-0.019483	-0.639893	-0.054443	-0.159424
365.0	7.352128	1.25303	6.926009	-0.010596	0.006905	-0.018168	-0.642334	-0.052246	-0.154785
366.0	7.330079	1.277785	6.856469	-0.011997	0.004721	-0.017788	-0.635742	-0.052246	-0.154785
367.0	7.354656	1.240492	6.887133	-0.010325	0.002415	-0.019681	-0.644531	-0.052246	-0.156982
368.0	7.314086	1.261665	6.906904	-0.009907	0.008012	-0.020292	-0.635742	-0.052246	-0.152588
369.0	7.347145	1.269584	6.908164	-0.008204	0.005685	-0.018321	-0.642334	-0.050049	-0.157227
370.0	7.346556	1.270213	6.908674	-0.011993	0.004724	-0.017791	-0.640381	-0.047852	-0.159424
371.0	7.383326	1.264301	6.870065	-0.011406	0.007334	-0.020699	-0.635742	-0.050049	-0.159424
372.0	7.328884	1.267985	6.879651	-0.010488	0.005408	-0.017389	-0.642578	-0.047852	-0.159424
373.0	7.344577	1.271926	6.910464	-0.012875	0.006633	-0.017239	-0.637939	-0.050049	-0.157227
374.0	7.361479	1.275903	6.881421	-0.014175	0.002942	-0.016077	-0.642334	-0.050049	-0.154785
375.0	7.329768	1.255332	6.90114	-0.009699	0.005012	-0.018729	-0.629395	-0.050049	-0.150391
376.0	7.360285	1.277124	6.882471	-0.009898	0.008024	-0.020298	-0.639893	-0.054443	-0.154785
377.0	7.328394	1.256727	6.902346	-0.011984	0.004732	-0.017797	-0.631348	-0.052246	-0.154785
378.0	7.356519	1.292165	6.863616	-0.012697	0.003652	-0.019542	-0.639893	-0.056641	-0.154785
379.0	7.364714	1.251585	6.864127	-0.007506	0.006806	-0.02045	-0.633545	-0.052246	-0.152588
380.0	7.360249	1.266266	6.904616	-0.004503	0.008171	-0.01964	-0.637939	-0.054443	-0.154785
381.0	7.334341	1.305205	6.875018	-0.007504	0.006808	-0.020452	-0.640137	-0.050049	-0.152588
382.0	7.336414	1.291781	6.895382	-0.020167	0.000218	-0.017706	-0.637939	-0.054443	-0.161621
383.0	7.375992	1.271905	6.876536	-0.006688	0.006387	-0.017925	-0.637939	-0.052246	-0.154785
384.0	7.324012	1.261993	6.906034	-0.005314	0.008603	-0.02217	-0.644287	-0.054443	-0.156982
385.0	7.340692	1.266728	6.877127	-0.007473	0.006786	-0.016587	-0.637939	-0.050049	-0.154785
386.0	7.322621	1.263559	6.907223	-0.011973	0.00474	-0.017805	-0.64209	-0.054443	-0.156982
387.0	7.356967	1.271687	6.84862	-0.009684	0.005026	-0.018739	-0.640137	-0.052246	-0.154785
388.0	7.355134	1.272251	6.908965	-0.003683	0.007758	-0.017116	-0.640137	-0.050049	-0.152588
389.0	7.335679	1.283609	6.859258	-0.005691	0.002983	-0.017701	-0.633545	-0.052246	-0.150146
390.0	7.351421	1.287866	6.88994	-0.005156	0.007048	-0.013655	-0.638184	-0.047852	-0.154785
391.0	7.353527	1.27454	6.910253	-0.012476	0.00065	-0.017988	-0.637939	-0.054443	-0.159424
392.0	7.370619	1.27895	6.880989	-0.002665	0.004322	-0.013021	-0.635742	-0.050049	-0.154785
393.0	7.35347	1.276667	6.851449	0.006614	0.015557	-0.01584	-0.637939	-0.052246	-0.150146
394.0	7.321471	1.256473	6.87137	-0.007239	0.00375	-0.011157	-0.633545	-0.052246	-0.154785
395.0	7.354759	1.264285	6.872469	-0.008074	0.004207	-0.017555	-0.644531	-0.052246	-0.156982
396.0	7.367846	1.282546	6.883289	0.001734	0.007881	-0.012587	-0.635742	-0.050049	-0.152588
397.0	7.359935	1.238875	6.853403	0.003515	0.004075	-0.013698	-0.639893	-0.054443	-0.159424
398.0	7.33303	1.277737	6.883261	0.000393	0.004246	-0.019164	-0.635742	-0.050049	-0.157227
399.0	7.352749	1.268639	6.873817	-0.009265	-0.000996	-0.015614	-0.642334	-0.052246	-0.154785
400.0	7.354926	1.255287	6.89407	-0.008252	0.007192	-0.015257	-0.635498	-0.058594	-0.15918
401.0	7.337902	1.252646	6.864471	-0.000677	0.009136	-0.016308	-0.64209	-0.054443	-0.154785
402.0	7.344394	1.298467	6.895442	-0.004463	0.008165	-0.015783	-0.646484	-0.054443	-0.152344
403.0	7.363808	1.289129	6.88638	-0.008856	0.004607	-0.016221	-0.640137	-0.050049	-0.157227
404.0	7.383366	1.279627	6.877201	-0.010354	0.003924	-0.016629	-0.64209	-0.054443	-0.147949
405.0	7.346398	1.287004	6.8571	-0.004482	0.008201	-0.019654	-0.633545	-0.052246	-0.154785
406.0	7.328182	1.28405	6.887248	-0.005148	0.007057	-0.013662	-0.644287	-0.054443	-0.154785
407.0	7.361265	1.291773	6.888603	-0.012822	0.006618	-0.013397	-0.635742	-0.050049	-0.150391
408.0	7.349657	1.26061	6.898716	-0.013428	0.004032	-0.014361	-0.642334	-0.050049	-0.154785
409.0	7.332851	1.257447	6.868989	-0.012051	0.006259	-0.018607	-0.635742	-0.052246	-0.154785
410.0	7.348282	1.261574	6.900005	-0.00695	0.0109	-0.016421	-0.639893	-0.056641	-0.150146
411.0	7.33107	1.258918	6.870621	-0.004661	0.011191	-0.017353	-0.631592	-0.050049	-0.154785
412.0	7.343799	1.277042	6.881824	-0.011441	0.008848	-0.017647	-0.64209	-0.058838	-0.147705
413.0	7.340411	1.291377	6.862687	-0.014435	0.00748	-0.018464	-0.642334	-0.052246	-0.152588
414.0	7.364913	1.254052	6.893619	-0.008341	0.008713	-0.016048	-0.637939	-0.054443	-0.147949
415.0	7.327637	1.261395	6.873827	-0.007065	0.012451	-0.021078	-0.633789	-0.047852	-0.150391
416.0	7.357954	1.283303	6.855442	-0.009614	0.004977	-0.011022	-0.640381	-0.047852	-0.157227
417.0	7.342538	1.265647	6.905372	-0.017321	0.004606	-0.018502	-0.640137	-0.050049	-0.152588
418.0	7.361989	1.255996	6.896388	-0.013637	0.007093	-0.019808	-0.640137	-0.052246	-0.154785
419.0	7.358658	1.270556	6.877154	-0.005946	0.007502	-0.016198	-0.642334	-0.050049	-0.154785
420.0	7.317659	1.291278	6.897079	-0.009144	0.00915	-0.018583	-0.635742	-0.054443	-0.150146
421.0	7.368166	1.303061	6.869034	-0.01501	0.004864	-0.015567	-0.635498	-0.056641	-0.152344
422.0	7.322853	1.264739	6.87831	-0.013544	0.005628	-0.0229	-0.637939	-0.054443	-0.152588
423.0	7.376099	1.262814	6.869989	-0.008026	0.004197	-0.013704	-0.640137	-0.050049	-0.154785
424.0	7.337762	1.269445	6.90975	-0.009243	0.010665	-0.019369	-0.637939	-0.054443	-0.152588
425.0	7.334343	1.284072	6.890595	-0.008933	0.006139	-0.017021	-0.633545	-0.050049	-0.157227
426.0	7.336373	1.270674	6.910999	-0.01342	0.004084	-0.01825	-0.640137	-0.052246	-0.152588
427.0	7.370866	1.278885	6.852525	-0.015003	0.004868	-0.015572	-0.633545	-0.052246	-0.154785
428.0	7.339131	1.257818	6.872236	-0.009825	0.008044	-0.016465	-0.637939	-0.052246	-0.154785
429.0	7.354568	1.261992	6.903208	-0.00824	0.007262	-0.019145	-0.642334	-0.052246	-0.152588
430.0	7.344739	1.303783	6.903963	-0.013504	0.005556	-0.015165	-0.639893	-0.056641	-0.152344
431.0	7.353286	1.262864	6.904413	-0.012021	0.006285	-0.018628	-0.637939	-0.050049	-0.152588
432.0	7.356527	1.250066	6.865151	-0.009029	0.007658	-0.017808	-0.640137	-0.052246	-0.152588
433.0	7.329076	1.288094	6.895447	-0.008235	0.007268	-0.019148	-0.640137	-0.052246	-0.152588
434.0	7.368595	1.269021	6.876895	-0.009027	0.00766	-0.017809	-0.637939	-0.052246	-0.154785
435.0	7.343715	1.292898	6.927134	-0.012912	0.00819	-0.018074	-0.642334	-0.052246	-0.154785
436.0	7.364414	1.284048	6.858494	-0.012117	0.007801	-0.019415	-0.633789	-0.047852	-0.150391
437.0	7.319053	1.24569	6.867799	-0.011311	0.007368	-0.016883	-0.639893	-0.054443	-0.154785
438.0	7.365487	1.271244	6.879813	-0.009125	0.009176	-0.018594	-0.635742	-0.050049	-0.161621
439.0	7.347224	1.267771	6.909966	-0.011206	0.00586	-0.016102	-0.635742	-0.052246	-0.150146
440.0	7.327753	1.278627	6.860449	-0.010607	0.008447	-0.015134	-0.642334	-0.052246	-0.152588
441.0	7.365925	1.258729	6.901754	-0.013605	0.007121	-0.019831	-0.637939	-0.052246	-0.147949
442.0	7.328815	1.265756	6.881781	-0.009121	0.009182	-0.018597	-0.639893	-0.056641	-0.154785
443.0	7.359099	1.287904	6.863475	-0.012004	0.006299	-0.018639	-0.64209	-0.054443	-0.154785
444.0	7.410864	1.285576	6.91514	-0.0143	0.00605	-0.021586	-0.635742	-0.052246	-0.145752
445.0	7.463752	1.283983	6.907292	-0.0201	0.011984	-0.029268	-0.635742	-0.050049	-0.150391
446.0	7.448552	1.268253	6.89834	-0.000214	0.025158	-0.035345	-0.631348	-0.052246	-0.150146
447.0	7.446803	1.25551	6.980824	-0.027834	0.046496	-0.040201	-0.641846	-0.063232	-0.156738
448.0	7.42077	1.135304	6.872551	-0.058057	0.027055	-0.040125	-0.638184	-0.045654	-0.157227
449.0	7.34131	0.915143	6.941817	-0.077061	0.057531	-0.079736	-0.644287	-0.054443	-0.150146
450.0	7.295906	1.022945	6.935909	-0.029188	0.033058	-0.06325	-0.633545	-0.054443	-0.154785
451.0	7.323949	1.122087	6.911865	-0.01225	0.067165	-0.107795	-0.633545	-0.052246	-0.156982
452.0	7.28224	1.206569	6.946275	-0.02938	0.048291	-0.103455	-0.631348	-0.054443	-0.152588
453.0	7.340987	1.095367	6.949156	-0.074393	0.01055	-0.123282	-0.637939	-0.054443	-0.156982
454.0	7.365048	1.222673	6.883887	-0.054005	0.027945	-0.129147	-0.639893	-0.054443	-0.154785
455.0	7.343284	1.299415	6.908406	0.023336	0.077315	-0.127503	-0.633057	-0.060791	-0.156982
456.0	7.283371	1.311697	6.921311	-0.001317	0.046554	-0.138648	-0.639893	-0.056641	-0.15918
457.0	7.354201	1.596018	6.989676	-0.075441	0.006753	-0.114549	-0.633301	-0.058594	-0.154785
458.0	7.57666	1.410646	6.857335	0.005652	0.077478	-0.111447	-0.633057	-0.065186	-0.163574
459.0	7.209809	1.43497	6.892948	0.00459	0.082523	-0.116367	-0.637451	-0.062988	-0.156982
460.0	7.308025	1.596692	6.903843	-0.022794	0.065067	-0.07367	-0.635498	-0.056641	-0.15918
461.0	7.250518	1.441336	6.954442	-0.071209	0.044769	-0.086579	-0.635254	-0.060791	-0.163818
462.0	7.194277	1.371904	6.915364	-0.064577	0.026625	-0.068736	-0.637451	-0.060791	-0.161377
463.0	7.153871	1.234619	6.914762	-0.022914	0.036365	-0.077318	-0.635498	-0.058594	-0.163818
464.0	7.296618	1.287979	6.991928	-0.011202	0.01306	-0.073708	-0.628662	-0.062988	-0.163818
465.0	7.371847	1.34005	6.986771	-0.025784	0.023299	-0.07447	-0.633057	-0.060791	-0.161377
466.0	7.2615	1.276727	6.955396	0.03665	0.063052	-0.075212	-0.633057	-0.060791	-0.163818
467.0	7.256219	1.21263	6.967783	0.04381	0.051059	-0.085139	-0.639648	-0.062988	-0.163574
468.0	7.284289	1.227732	7.031028	0.001673	0.018613	-0.087263	-0.630615	-0.06958	-0.158936
469.0	7.304695	1.139239	7.051554	0.015424	0.022354	-0.105225	-0.633057	-0.065186	-0.166016
470.0	7.947641	1.303916	7.344789	-0.009398	-0.01789	-0.083196	-0.637451	-0.060791	-0.163818
471.0	8.191872	1.545471	7.268847	-0.026577	0.055706	-0.078944	-0.637451	-0.062988	-0.168213
472.0	7.729176	1.534721	7.085428	0.224135	0.278228	-0.064866	-0.630859	-0.065186	-0.163574
473.0	7.439544	1.711751	7.008191	0.366238	0.377451	-0.047583	-0.628662	-0.065186	-0.172852
474.0	6.991758	1.819461	6.842617	0.257163	0.327649	-0.03561	-0.628418	-0.067383	-0.177246
475.0	6.93187	1.924771	6.866805	0.114669	0.208967	0.002412	-0.636963	-0.071777	-0.174805
476.0	7.63434	2.146459	7.210519	-0.108187	0.084195	0.056189	-0.624268	-0.062988	-0.175049
477.0	8.246834	2.194612	7.370354	-0.26049	0.091936	0.101327	-0.630859	-0.062988	-0.175049
478.0	8.005435	1.839855	7.216405	-0.105866	0.310766	0.096585	-0.624268	-0.062988	-0.181885
479.0	7.745122	1.631038	6.866423	0.176256	0.550811	0.103401	-0.62207	-0.065186	-0.186523
480.0	6.144095	1.573576	6.767118	0.253329	0.664751	0.030936	-0.622314	-0.060791	-0.188721
481.0	6.896093	2.252846	6.914198	0.095412	0.454202	0.183235	-0.620117	-0.058594	-0.195801
482.0	6.377994	1.997613	6.706878	-0.28675	0.304722	0.088853	-0.620361	-0.056396	-0.193359
483.0	6.462809	1.17586	6.797101	-0.479707	0.158529	0.157476	-0.61792	-0.058594	-0.197998
484.0	6.913875	0.817383	7.150224	-0.678483	0.113038	0.135489	-0.618408	-0.047607	-0.196045
485.0	6.613983	0.260226	6.707475	-0.208047	0.347851	0.135309	-0.618164	-0.056396	-0.204834
486.0	5.989152	1.685816	6.817312	0.180864	0.439847	0.166181	-0.618652	-0.043213	-0.200684
487.0	5.96973	1.201382	7.288231	-0.540118	0.181807	0.062138	-0.618408	-0.047607	-0.198242
488.0	6.242629	-0.084352	7.201611	-0.674552	0.114457	0.125158	-0.616211	-0.049805	-0.202637
489.0	6.446482	0.513248	7.376028	0.038768	0.094836	0.081939	-0.614502	-0.041016	-0.202881
490.0	7.069745	1.319348	7.590063	-0.042391	0.03892	0.059374	-0.616455	-0.04541	-0.202881
491.0	6.971454	0.703793	7.464829	-0.270898	0.000707	0.039931	-0.622803	-0.047607	-0.200439
492.0	7.014075	0.277024	7.464716	-0.14382	-0.013421	-0.00322	-0.614258	-0.04541	-0.200439
493.0	7.143327	0.828744	7.375327	0.076764	0.002819	-0.035687	-0.612061	-0.047607	-0.202881
494.0	6.95573	1.182849	7.37118	0.034739	-0.005801	-0.046475	-0.616211	-0.047607	-0.202881
495.0	6.989244	0.730097	7.396566	-0.056469	-0.029513	-0.072681	-0.610107	-0.041016	-0.20752
496.0	6.901946	0.615585	7.312771	0.074018	-0.022679	-0.094867	-0.607422	-0.051758	-0.207275
497.0	6.911649	0.893096	7.320132	0.126105	-0.032202	-0.124361	-0.609375	-0.054199	-0.197998
498.0	6.862532	0.928634	7.242547	0.110681	-0.048676	-0.136464	-0.611328	-0.062744	-0.209229
499.0	6.751189	1.081466	7.162219	0.162698	-0.063011	-0.15204	-0.611084	-0.069336	-0.206787
500.0	7.00258	1.567424	7.320404	0.173511	-0.08226	-0.13888	-0.608154	-0.08252	-0.213379
501.0	7.21415	1.694723	7.283301	0.091292	-0.067467	-0.110749	-0.614258	-0.093262	-0.210938
502.0	6.895025	1.688686	7.140583	0.078476	-0.058927	-0.084835	-0.626953	-0.100098	-0.204102
503.0	6.658353	1.5368	7.070816	0.006711	-0.089438	-0.060135	-0.637939	-0.102295	-0.194824
504.0	6.464888	1.215558	6.998369	-0.029785	-0.132719	-0.056933	-0.640381	-0.095703	-0.183594
505.0	6.209995	1.022904	6.901492	-0.002428	-0.201194	-0.055765	-0.64502	-0.089355	-0.186035
506.0	6.798225	1.104041	7.282014	-0.031112	-0.277474	-0.057762	-0.647461	-0.082764	-0.181641
507.0	7.430852	1.304082	7.224922	0.038951	-0.232221	-0.055705	-0.645752	-0.073975	-0.174805
508.0	6.576283	1.564157	7.053219	0.110895	-0.220685	-0.044196	-0.639404	-0.067383	-0.177246
509.0	6.079018	0.889538	6.871346	-0.105481	-0.31989	-0.048017	-0.637451	-0.065186	-0.177246
510.0	6.152819	0.42244	6.779157	-0.034264	-0.414413	-0.079477	-0.639404	-0.065186	-0.175049
511.0	6.25741	0.623729	6.790891	0.099861	-0.49544	-0.1387	-0.633057	-0.062988	-0.168213
512.0	6.302456	0.914885	6.953189	0.069328	-0.622981	-0.183603	-0.641357	-0.071777	-0.165771
513.0	7.802055	1.29609	7.59972	-0.167388	-0.695814	-0.219623	-0.643555	-0.073975	-0.167969
514.0	7.519981	1.177129	7.263563	-0.222165	-0.639618	-0.236961	-0.641602	-0.067627	-0.149902
515.0	7.352023	1.483372	7.410714	-0.219197	-0.633849	-0.225471	-0.641357	-0.073975	-0.1521
516.0	8.054251	1.085473	7.224225	-0.409193	-0.595709	-0.245557	-0.636963	-0.076172	-0.142822
517.0	8.124906	1.343767	7.161414	-0.155792	-0.322188	-0.231175	-0.641357	-0.071777	-0.147461
518.0	8.348023	2.051593	7.039722	0.333364	0.033072	-0.106392	-0.645752	-0.074219	-0.143066
519.0	7.689613	2.308834	7.005894	0.444955	0.231002	-0.056325	-0.643311	-0.076172	-0.145264
520.0	7.815451	2.705643	6.895919	0.213065	0.090715	0.080457	-0.647949	-0.074219	-0.147461
521.0	6.66077	2.071682	6.927787	-0.227492	-0.108652	0.061205	-0.647949	-0.069824	-0.147705
522.0	7.411322	1.303565	6.868344	-0.494848	-0.400258	0.067099	-0.643311	-0.076172	-0.142822
523.0	7.516477	0.365387	6.897029	-0.560261	-0.488389	-0.045582	-0.647949	-0.072021	-0.149902
524.0	7.927242	0.304975	6.95973	-0.333132	-0.361812	-0.077019	-0.652344	-0.072021	-0.13623
525.0	8.020576	0.745738	7.013502	0.087837	-0.079801	-0.132031	-0.645752	-0.072021	-0.143066
526.0	7.641604	1.108269	7.083801	0.365373	0.119373	-0.166483	-0.649902	-0.078369	-0.142822
527.0	7.070502	1.02805	7.343617	0.283329	0.017425	-0.207884	-0.649902	-0.078613	-0.140625
528.0	6.626131	0.71004	8.106466	-0.122297	-0.489432	-0.351412	-0.649658	-0.082764	-0.140625
529.0	6.657731	1.558198	9.348638	-0.292753	-0.762833	-0.113098	-0.656494	-0.076416	-0.131592
530.0	6.914386	0.671781	8.751416	-0.165156	-1.091631	-0.297349	-0.651855	-0.083008	-0.12915
531.0	7.047248	1.337464	8.498958	0.216458	-1.216858	-0.160484	-0.658203	-0.087402	-0.115234
532.0	7.090432	2.825962	8.472814	0.669162	-1.281553	-0.030698	-0.6604	-0.087402	-0.11084
533.0	6.734049	3.432577	8.352601	0.63179	-1.560112	0.142441	-0.669189	-0.083008	-0.099365
534.0	6.419129	3.624798	8.24795	0.190001	-2.13837	0.360541	-0.669189	-0.085205	-0.081055
535.0	5.882265	2.971076	8.218068	-0.399973	-2.826585	0.47623	-0.671875	-0.074463	-0.074463
536.0	5.436135	2.066906	8.170363	-0.536928	-3.420111	0.498601	-0.678467	-0.072266	-0.042725
537.0	5.429728	1.528849	8.096953	-0.210982	-3.761644	0.474019	-0.685059	-0.07251	-0.026611
538.0	5.394458	1.500592	7.950507	0.221549	-3.919686	0.40498	-0.694092	-0.063965	-0.001709
539.0	5.009754	1.94754	7.679039	0.669322	-4.126516	0.350122	-0.698486	-0.063965	0.027832
540.0	4.178968	1.914914	6.997397	1.143187	-4.645844	0.442816	-0.696289	-0.063965	0.062012
541.0	3.660873	2.540555	6.758051	1.384945	-5.232521	0.728223	-0.709961	-0.051025	0.098145
542.0	4.518124	3.10483	6.524243	1.079878	-6.124236	1.355082	-0.718994	-0.040283	0.134521
543.0	5.970792	3.362936	5.705544	0.474123	-7.202335	2.095967	-0.711182	-0.022949	0.195801
544.0	9.112164	3.095146	4.493582	-0.226991	-8.175593	2.6569	-0.716553	0.00293	0.243164
545.0	18.381695	3.854129	5.306545	-1.524407	-8.442101	3.276022	-0.706543	0.020508	0.292725
546.0	25.001471	2.056924	4.114059	-1.645319	-7.913366	3.757529	-0.697021	0.051025	0.340088
547.0	35.232387	4.345325	7.778481	-2.507234	-7.477056	4.005768	-0.680664	0.077148	0.378174
548.0	28.213711	0.584882	9.256114	-4.639736	-7.502896	3.711603	-0.654785	0.081543	0.414551
549.0	27.400101	-2.56061	10.886838	-5.976803	-7.121032	2.701413	-0.626465	0.081787	0.435059
550.0	30.404018	-8.893088	11.629036	-6.47397	-5.872586	1.77027	-0.599609	0.071045	0.444336
551.0	19.569312	-12.389859	15.859335	-4.056363	-3.980585	0.495974	-0.573242	0.066895	0.428467
552.0	23.092685	-4.054655	37.471114	-4.621754	-2.280924	-0.645889	-0.548584	0.047363	0.387939
553.0	20.993446	-9.850261	35.147339	-4.818228	0.712145	-1.770198	-0.523926	0.032471	0.344727
554.0	5.579667	-8.281077	26.21299	1.526418	3.614458	-2.514681	-0.496094	0.043701	0.271729
555.0	1.804545	2.806362	23.97501	3.928951	4.641212	-2.764691	-0.448242	0.046387	0.207764
556.0	0.785852	6.822488	20.561172	-0.43391	4.2241	-2.819719	-0.395996	0.05127	0.152832
557.0	1.34595	2.148009	17.689985	-6.08327	3.452498	-2.696208	-0.328369	0.049561	0.10498
558.0	1.89769	-5.859988	14.047477	-7.553991	3.634765	-2.611265	-0.239746	0.069824	0.088379
559.0	1.693083	-11.516992	11.444737	-3.433758	4.680117	-2.869252	-0.142334	0.083496	0.081299
560.0	0.899123	-8.386838	10.432702	1.746078	5.639959	-2.660048	-0.038574	0.101563	0.11499
561.0	0.683829	-2.325786	10.583395	3.622304	5.822957	-2.381296	0.046387	0.108398	0.178467
562.0	2.13258	3.232038	11.179935	2.761067	5.705031	-2.03862	0.096191	0.113037	0.27417
563.0	3.592361	5.921359	10.739479	0.483859	5.535832	-1.393724	0.108154	0.09082	0.381592
564.0	4.730339	4.456402	10.213376	-1.59835	5.47353	-0.801356	0.075195	0.05127	0.478271
565.0	5.775671	1.594	9.169288	-2.087067	5.65923	-0.234953	0.005371	0.002441	0.547607
566.0	5.790058	0.200811	8.212188	-1.4949	5.942656	0.128974	-0.082031	-0.041748	0.580566
567.0	7.003639	0.818775	8.422154	-1.093851	5.943714	0.41171	-0.156982	-0.072754	0.581055
568.0	9.08628	1.06621	8.82781	-1.479344	5.736413	0.577591	-0.247559	-0.099609	0.568115
569.0	11.033138	0.78733	8.641625	-1.521277	5.690597	0.749364	-0.324951	-0.124023	0.536865
570.0	10.973305	1.370962	8.318823	-1.033436	5.715864	0.982971	-0.391846	-0.139648	0.482422
571.0	12.221471	1.490735	8.531358	-1.327625	5.284306	1.198895	-0.443604	-0.155029	0.423584
572.0	15.670978	0.425786	9.307435	-2.291826	4.65205	1.375509	-0.47583	-0.163818	0.362305
573.0	17.095907	-2.571157	8.253918	-2.581173	4.36533	1.563767	-0.501953	-0.166016	0.293945
574.0	15.942328	-5.120486	6.264243	-1.386748	4.053097	1.770397	-0.517578	-0.157227	0.236816
575.0	17.020514	-4.274937	5.498203	0.540744	3.644974	2.001377	-0.531006	-0.148438	0.193359
576.0	21.83613	-1.27039	6.075063	1.317173	3.105348	2.363188	-0.533936	-0.133057	0.1521
577.0	27.722877	0.289799	5.798491	0.263622	2.819547	2.828524	-0.539063	-0.117676	0.12207
578.0	31.096477	-0.528484	4.187031	-0.52936	2.833204	3.160496	-0.543701	-0.108887	0.081055
579.0	35.434329	0.662603	2.377067	0.529419	3.494767	3.535602	-0.54248	-0.089111	0.044189
580.0	39.036061	3.372531	0.356366	1.706114	4.631077	4.36841	-0.543701	-0.060791	0.00708
581.0	36.422926	4.918879	-2.476595	1.80192	5.671956	4.971711	-0.53833	-0.036621	-0.043457
582.0	30.949843	3.398855	-6.811903	1.129222	6.136129	4.082966	-0.52832	-0.014648	-0.096436
583.0	27.058735	0.683437	-10.526177	1.015799	6.094685	3.33326	-0.515625	-0.005615	-0.133057
584.0	23.256682	-1.572945	-13.823352	2.256272	6.077706	2.739305	-0.494141	-0.000977	-0.178711
585.0	21.50739	-2.371156	-16.980777	4.449355	5.886211	1.833589	-0.476563	-0.005127	-0.206055
586.0	20.782174	0.181942	-18.099202	6.967607	5.841026	0.850602	-0.458008	-0.029053	-0.239746
587.0	19.688045	5.202838	-17.394071	8.147502	5.577843	0.056188	-0.437012	-0.059326	-0.257568
588.0	16.638536	8.826899	-16.840731	5.25393	2.822833	-0.907241	-0.434082	-0.074707	-0.263916
589.0	16.762467	8.146517	-14.454876	-1.841138	-1.534	-1.415262	-0.436523	-0.068115	-0.252686
590.0	19.859367	2.882286	-9.666772	-7.18395	-5.408349	-1.391622	-0.463623	-0.050781	-0.234863
591.0	20.444523	0.935811	-5.603822	-9.316601	-7.595934	-1.516735	-0.481689	-0.035889	-0.203125
592.0	11.395148	10.535277	26.769936	-13.309444	-6.466002	-2.802315	-0.491455	-0.011963	-0.19458
593.0	-25.952568	-20.526029	5.926187	-8.910058	-2.682163	-5.468058	-0.502686	-0.053467	-0.182373
594.0	18.667971	-33.051161	-10.084366	10.761749	-2.98076	-9.64128	-0.509033	-0.105957	-0.153809
595.0	31.368398	-2.443429	15.8822	10.023771	-2.388081	2.265623	-0.52417	-0.106201	-0.128906
596.0	16.385447	4.593761	8.101808	4.740668	-2.744316	7.055892	-0.541016	-0.073486	-0.108887
597.0	13.488491	11.535653	9.4939	2.519337	-2.834939	5.986288	-0.541992	-0.051758	-0.095703
598.0	11.334994	12.164951	7.878646	1.460508	-2.110993	0.634319	-0.550537	-0.053955	-0.082031
599.0	10.184383	10.497418	7.061606	1.017297	-1.777087	-0.621335	-0.557129	-0.054199	-0.068359
600.0	10.756866	8.632066	7.783893	0.00757	-1.883691	0.505868	-0.559326	-0.052002	-0.054688
601.0	12.081382	1.40399	10.15643	-3.278705	-2.261885	-0.163815	-0.55957	-0.049805	-0.050049
602.0	11.463817	-3.582799	7.895107	-3.317052	-1.602482	0.489888	-0.559814	-0.04541	-0.041016
603.0	10.991864	-2.107954	7.651851	1.417533	-0.847325	0.239392	-0.568359	-0.04541	-0.03418
604.0	15.467504	0.803172	11.508265	0.719046	-0.415672	-0.08379	-0.566406	-0.043213	-0.031982
605.0	7.228844	0.849531	8.114412	0.078465	-0.367852	-0.57733	-0.561768	-0.047607	-0.027344
606.0	6.591191	0.809867	7.939307	0.041742	-0.302959	-0.033419	-0.563965	-0.049805	-0.018066
607.0	7.456127	-0.671326	8.094851	-0.649713	-0.310929	-0.082629	-0.566162	-0.047607	-0.025146
608.0	6.834181	-0.452708	7.567043	0.192123	-0.205517	-0.136787	-0.565918	-0.049805	-0.018066
609.0	6.480684	0.756552	7.790721	0.287198	-0.19873	-0.173155	-0.563721	-0.052002	-0.018066
610.0	6.504351	0.442955	7.606586	-0.091371	-0.243997	-0.187831	-0.563721	-0.054199	-0.015869
611.0	6.397361	0.372658	7.492426	0.103264	-0.239122	-0.21179	-0.570313	-0.052002	-0.015869
612.0	6.106989	0.714334	7.393508	0.142269	-0.265214	-0.228481	-0.568115	-0.052002	-0.015869
613.0	6.262535	0.624657	7.39518	0.04205	-0.319341	-0.227391	-0.565674	-0.058594	-0.001953
614.0	6.527857	0.667065	7.404591	0.100964	-0.341288	-0.217044	-0.567871	-0.056396	-0.009033
615.0	6.272929	0.802876	7.345957	0.129633	-0.370925	-0.203711	-0.570068	-0.056396	0.000244
616.0	6.152473	0.645588	7.310018	0.038117	-0.435332	-0.191141	-0.565918	-0.054199	0.002441
617.0	6.019689	0.516354	7.203597	0.044181	-0.503222	-0.198212	-0.565918	-0.052246	0.009277
618.0	5.981318	0.228588	7.171061	0.060218	-0.58899	-0.219321	-0.566406	-0.043457	0.015869
619.0	5.67319	0.063602	6.914233	0.094974	-0.69492	-0.271798	-0.555664	-0.036865	0.013428
620.0	5.425235	0.037998	6.79816	0.209826	-0.868342	-0.345929	-0.524658	-0.047607	0.002197
621.0	5.168748	-0.884308	6.80301	-0.021746	-1.11279	-0.499718	-0.506592	-0.108398	-0.008057
622.0	7.727686	-1.113928	7.441325	-0.18382	-1.378008	-0.641575	-0.551758	-0.176514	0.016113
623.0	9.444448	0.317162	7.961881	0.180306	-1.399738	-0.601647	-0.5979	-0.166016	0.054688
624.0	8.45367	1.347974	8.029936	0.121465	-1.27401	-0.519264	-0.601807	-0.128906	0.070068
625.0	9.499199	1.934581	7.684798	-0.436065	-0.977963	-0.487167	-0.591797	-0.109131	0.06958
626.0	8.369282	0.617685	7.398485	-0.305763	-0.364967	-0.66887	-0.578613	-0.106934	0.064941
627.0	8.981584	0.392582	7.049422	0.227061	-0.09705	-0.614278	-0.57666	-0.104736	0.067139
628.0	8.289157	1.629991	7.056243	0.83347	0.402145	-0.505027	-0.574219	-0.111328	0.05835
629.0	7.755661	2.270957	7.738297	0.830062	0.48084	-0.503204	-0.569824	-0.113525	0.060547
630.0	6.100049	-0.00677	7.754041	-0.048261	-0.130133	-0.873429	-0.57373	-0.12207	0.05835
631.0	7.168168	0.507044	7.87004	-0.351953	-0.800615	-0.721265	-0.569092	-0.126465	0.062988
632.0	7.679537	3.678691	8.685512	0.335958	-0.722421	-0.425127	-0.567139	-0.124268	0.067627
633.0	7.14929	4.252394	8.474806	0.961606	-0.360108	-0.315532	-0.564697	-0.126465	0.072266
634.0	6.201765	4.214511	8.438095	0.895565	-0.7341	-0.150421	-0.566895	-0.128662	0.074463
635.0	6.142601	4.828286	8.33513	0.340808	-1.525773	0.200758	-0.575684	-0.126709	0.092773
636.0	6.471671	5.0366	8.322564	-0.252505	-2.240318	0.488037	-0.571289	-0.126709	0.108643
637.0	6.748499	4.313512	8.376065	-0.627818	-2.791837	0.721295	-0.571533	-0.120117	0.115479
638.0	6.385088	3.005184	8.437256	-0.794353	-3.173499	0.901022	-0.567627	-0.109131	0.140137
639.0	5.733697	2.419972	8.408136	-0.545663	-3.548012	1.033669	-0.570068	-0.102783	0.160645
640.0	4.802399	2.174764	8.361348	-0.098298	-3.892694	1.122959	-0.568115	-0.100586	0.187988
641.0	3.81818	2.513485	8.738912	0.221816	-4.417591	1.037928	-0.561768	-0.093994	0.215088
642.0	2.64486	2.056389	8.674475	0.161826	-5.09982	0.941581	-0.560059	-0.085449	0.251465
643.0	3.892641	2.409842	8.98409	0.099219	-5.655003	1.682436	-0.547607	-0.070313	0.2854
644.0	3.389202	3.137479	9.520103	-0.094648	-6.318402	2.548747	-0.541992	-0.050537	0.319092
645.0	5.225727	2.699114	8.855328	-0.053112	-6.906958	3.514176	-0.527588	-0.028809	0.359619
646.0	4.328119	2.677276	7.619236	1.449598	-7.755614	3.968353	-0.50293	0.001709	0.411377
647.0	13.938707	2.001326	5.533982	1.429036	-9.100477	4.812604	-0.478027	0.034668	0.465576
648.0	28.04687	3.092715	7.442477	-1.832065	-10.7007	4.581525	-0.43457	0.034668	0.52002
649.0	40.412366	0.355648	8.506659	-5.99824	-11.222639	3.831568	-0.383789	0.021729	0.577393
650.0	36.091011	-6.661621	10.13873	-5.74731	-10.20928	2.23819	-0.350342	0.004395	0.609619
651.0	36.872491	-13.49572	15.479268	-3.546294	-7.886755	0.75146	-0.319336	-0.006348	0.621094
652.0	33.014177	-13.849041	31.367306	0.206238	-4.386418	-0.534752	-0.306152	-0.006348	0.639404
653.0	18.101514	4.627083	42.011283	4.462715	-0.799271	-1.874924	-0.304688	0.006836	0.629883
654.0	18.045005	16.486973	44.409017	2.18033	2.003298	-2.585503	-0.325928	-0.00415	0.623291
655.0	4.04644	7.077063	29.699863	-4.266912	2.738968	-2.742105	-0.336914	-0.047852	0.587646
656.0	0.682201	-2.497002	21.762699	-5.608516	2.955609	-2.968232	-0.345947	-0.093506	0.559082
657.0	5.266461	-6.682481	18.334381	-4.518358	3.800001	-3.167509	-0.357422	-0.130615	0.525635
658.0	5.324247	-8.727457	15.831943	-3.208212	4.762707	-3.320312	-0.371338	-0.161133	0.489746
659.0	4.668356	-9.444804	13.83468	-2.197107	5.456614	-3.391607	-0.36792	-0.187256	0.460693
660.0	4.503955	-9.055173	12.06183	-0.974188	6.06769	-3.382949	-0.366699	-0.213379	0.424561
661.0	4.077805	-6.601601	10.591686	0.468783	6.5637	-3.276017	-0.370605	-0.226563	0.397461
662.0	3.926964	-3.352754	9.701813	1.223556	6.880432	-3.014547	-0.376465	-0.239502	0.372803
663.0	4.597689	0.039948	8.799376	1.149027	7.043743	-2.474057	-0.378174	-0.250488	0.354736
664.0	4.448298	2.122772	7.727519	0.648702	7.20459	-1.828051	-0.390381	-0.272217	0.327881
665.0	3.918878	2.934645	6.873874	-0.378858	7.119523	-1.165438	-0.394531	-0.272217	0.29834
666.0	4.158475	3.039599	5.900952	-1.61275	6.831535	-0.509151	-0.407471	-0.278809	0.259521
667.0	4.307089	2.19981	5.453777	-2.544718	6.373481	0.04329	-0.418457	-0.278809	0.234619
668.0	5.792271	1.52793	6.422468	-2.898027	5.851804	0.432286	-0.434082	-0.27002	0.204834
669.0	9.429917	1.247872	8.099606	-3.09707	5.403574	0.693616	-0.443115	-0.259033	0.161377
670.0	11.823983	0.686903	8.726168	-2.73824	5.332227	0.882767	-0.454346	-0.252441	0.11792
671.0	13.583939	1.324988	10.031756	-2.011416	5.247092	1.045615	-0.431885	-0.219482	0.053467
672.0	15.913023	1.165862	11.207644	-2.426542	4.96224	1.173467	-0.37085	-0.173096	0.013672
673.0	18.835527	-1.185897	11.2083	-2.978142	4.732734	1.335069	-0.286133	-0.11377	0.032959
674.0	20.469364	-3.932144	10.084756	-2.325796	4.710935	1.500265	-0.216553	-0.058838	0.104736
675.0	21.96267	-3.925728	8.977691	-0.476522	4.994681	1.718254	-0.198242	-0.030762	0.204346
676.0	23.062951	-1.24801	8.399669	0.720631	5.154338	1.931303	-0.229736	-0.011475	0.276855
677.0	25.490144	1.32174	8.047892	0.679577	5.0275	2.171653	-0.282715	0.005615	0.31543
678.0	29.699711	2.784698	7.427296	0.313245	5.038572	2.42821	-0.340332	0.024902	0.317383
679.0	31.565311	2.569017	5.138669	0.598891	5.483027	2.585848	-0.387207	0.046387	0.296387
680.0	29.726238	1.94623	1.77631	1.476806	5.913747	2.642539	-0.425049	0.065918	0.257324
681.0	26.084398	0.97527	-1.794194	2.368671	5.981461	2.887004	-0.457031	0.098633	0.206787
682.0	23.473204	1.460009	-4.82859	3.229701	5.521366	2.945985	-0.483887	0.11377	0.158447
683.0	24.522414	2.754077	-8.741585	4.22813	5.217824	2.447607	-0.497803	0.131348	0.110352
684.0	24.17082	3.589561	-12.378488	4.679747	5.256291	1.708508	-0.50708	0.144531	0.05542
685.0	22.845654	4.100833	-15.684701	5.158376	6.098184	0.899277	-0.518311	0.15332	-0.001709
686.0	20.841305	4.864401	-16.467926	5.832767	5.710789	0.090742	-0.5271	0.151123	-0.051758
687.0	17.642947	5.018199	-16.531019	2.948956	2.673396	-0.210959	-0.536133	0.157715	-0.067871
688.0	17.644178	2.287805	-13.908053	-2.632424	-2.101283	-0.130116	-0.549805	0.170654	-0.059082
689.0	19.878292	-0.494286	-9.848844	-5.75129	-6.124527	-0.083191	-0.574463	0.187988	-0.020508
690.0	24.234184	1.820425	-6.13393	-6.134131	-7.471671	-0.617095	-0.590088	0.194336	0.022705
691.0	20.52213	11.45374	-2.954436	-3.970893	-2.939136	-1.601222	-0.610352	0.207275	0.042969
692.0	-4.899829	3.158431	8.421379	2.483406	-1.77625	-1.144898	-0.636475	0.207031	0.029297
693.0	-24.409599	-15.216615	3.4585	0.78416	1.055187	-10.032147	-0.684326	0.158691	0.052979
694.0	44.054929	-22.113358	-0.995966	2.405892	-14.772135	-3.589166	-0.687256	0.175781	0.18042
695.0	42.140312	2.220872	23.218497	-12.164754	-8.512053	8.320913	-0.678955	0.230225	0.243164
696.0	21.056493	-10.376507	5.841719	0.826678	-4.695263	4.160353	-0.680176	0.260742	0.262939
697.0	15.492411	2.767634	8.868415	12.479342	-1.192946	0.891064	-0.677734	0.300049	0.239502
698.0	12.038679	14.940594	8.32655	10.380634	0.061862	2.603995	-0.675293	0.345947	0.220215
699.0	9.774573	14.588191	6.307733	5.06089	1.48015	2.811204	-0.678955	0.380859	0.219727
700.0	8.141112	9.344756	8.787875	-0.213554	-2.439615	-0.44762	-0.678711	0.374268	0.262939
701.0	11.838611	4.824287	9.598688	-6.371102	-6.256318	-0.411959	-0.663086	0.365479	0.347412
702.0	29.03447	6.772333	13.991893	-13.380165	-4.92883	0.267292	-0.669678	0.319336	0.398682
703.0	6.17396	-16.643682	2.987744	-4.537114	-1.524697	-1.285863	-0.667236	0.314941	0.405518
704.0	9.853335	-6.327487	6.154264	7.35173	0.439517	-0.52791	-0.670654	0.339111	0.377686
705.0	8.262889	5.201341	9.631075	7.271798	0.632142	-0.258425	-0.669434	0.363281	0.358887
706.0	7.432927	7.581493	7.973468	1.93252	1.273792	0.362088	-0.678223	0.363037	0.358887
707.0	4.288261	3.982859	6.501448	-0.873389	-0.862313	-0.678326	-0.668945	0.3479	0.379883
708.0	8.147418	4.896151	8.803783	-3.33092	-2.223555	-0.249652	-0.664063	0.339111	0.395996
709.0	7.520176	-1.38378	6.805176	-3.8434	-0.69866	-0.113619	-0.665771	0.328125	0.414307
710.0	7.979672	-3.132672	6.266212	-0.191039	-0.249504	-0.224237	-0.670166	0.328125	0.412109
711.0	7.282504	0.35918	7.21157	2.341904	0.185763	-0.276216	-0.663818	0.33252	0.402832
712.0	6.822405	3.764524	7.584634	1.778547	0.066956	-0.220947	-0.668213	0.336914	0.411865
713.0	6.586435	3.780083	7.220936	-0.159239	-0.311797	-0.091361	-0.668457	0.341309	0.41626
714.0	6.215797	1.473599	7.369575	-1.191816	-0.477765	-0.194736	-0.67041	0.336914	0.42334
715.0	7.299135	-0.403294	6.982467	-0.763899	-0.458714	-0.204849	-0.661377	0.330322	0.430176
716.0	6.441431	-0.434033	6.720134	0.366379	-0.354139	-0.262817	-0.659424	0.334717	0.432373
717.0	6.389384	0.890369	6.869955	0.750644	-0.429215	-0.27422	-0.659912	0.345459	0.441406
718.0	6.060992	1.565834	7.059173	0.284528	-0.682139	-0.254828	-0.644775	0.3479	0.436768
719.0	7.218136	1.032032	7.35219	-0.439883	-1.034632	-0.292705	-0.622314	0.330566	0.430176
720.0	7.446354	-0.469634	7.5638	-1.061226	-1.238273	-0.468402	-0.621338	0.262939	0.427002
721.0	8.048133	-0.710553	7.35089	-1.049194	-1.182587	-0.434093	-0.658691	0.216797	0.464355
722.0	8.934385	-0.153085	7.532265	-0.650886	-0.715186	-0.381376	-0.675293	0.24707	0.498047
723.0	9.139777	0.151009	6.961296	0.098435	0.035802	-0.498664	-0.665283	0.27124	0.502197
724.0	9.383286	3.036802	6.890409	1.331726	0.737118	-0.23878	-0.67041	0.28418	0.48584
725.0	7.200398	3.132019	7.097078	1.385486	1.259798	-0.311713	-0.668701	0.297363	0.471924
726.0	6.049413	1.78382	7.170747	0.547279	0.470847	-0.65576	-0.664307	0.295166	0.474365
727.0	6.181453	0.810859	7.649667	-0.713428	-0.55761	-0.593577	-0.65918	0.280029	0.483643
728.0	6.781677	0.494208	7.757406	-1.129839	-1.112475	-0.62454	-0.658936	0.273438	0.495117
729.0	7.811004	0.878287	7.802712	-0.332051	-0.978486	-0.632046	-0.656494	0.266846	0.499756
730.0	7.743837	3.438768	9.0609	0.984828	-0.254971	-0.224303	-0.653809	0.258057	0.5
731.0	6.336349	3.240563	8.458403	1.427851	-0.177823	-0.404243	-0.656494	0.266846	0.49292
732.0	5.892927	3.708048	8.410749	0.983115	-0.802258	-0.241907	-0.647705	0.266846	0.490723
733.0	6.036678	4.651448	8.244648	0.329944	-1.641997	0.076105	-0.638916	0.264648	0.506836
734.0	6.466519	4.651086	8.128796	-0.220166	-2.275323	0.262756	-0.643311	0.264648	0.506836
735.0	6.708566	4.161229	8.096687	-0.390917	-2.669428	0.475844	-0.634766	0.266846	0.5271
736.0	6.703501	3.991845	8.348216	-0.275388	-2.913071	0.725739	-0.626221	0.27124	0.529297
737.0	5.974961	3.813176	8.513414	-0.113565	-3.236178	0.856622	-0.61084	0.271484	0.552246
738.0	4.992899	3.389651	8.838622	-0.16058	-3.775731	1.025038	-0.602295	0.275879	0.565674
739.0	2.791022	1.711671	9.274337	-0.378389	-4.596798	0.937126	-0.589844	0.286621	0.588379
740.0	2.284606	0.135976	9.27552	-0.417487	-5.698936	0.763496	-0.572266	0.288818	0.613281
741.0	2.10948	0.0447	9.015677	0.09004	-6.414142	0.621101	-0.557617	0.299805	0.638184
742.0	0.909964	-0.132316	8.335721	1.488718	-7.122084	0.336507	-0.536621	0.31958	0.665039
743.0	2.940841	1.945863	8.35414	2.159186	-7.735916	1.414499	-0.51123	0.337158	0.698975
744.0	4.057052	1.788654	5.711661	1.473169	-9.055394	2.103354	-0.470947	0.363525	0.732422
745.0	11.073805	2.32905	4.365184	0.630927	-11.464091	2.435849	-0.415527	0.39209	0.781982
746.0	25.019421	3.503385	3.44789	-2.053964	-11.983596	2.766459	-0.365234	0.385742	0.832275
747.0	38.999991	-0.800202	3.890584	-2.680958	-11.828169	1.994877	-0.316406	0.368408	0.866699
748.0	34.29295	-5.82101	4.977813	-1.416268	-11.128978	0.433438	-0.274414	0.355713	0.869141
749.0	37.362928	-5.83259	7.567223	0.477588	-9.311654	-0.518346	-0.25415	0.342773	0.837402
750.0	44.398495	-2.164494	19.168502	0.557952	-6.232876	-0.56754	-0.248779	0.318848	0.799316
751.0	35.610815	8.113471	36.934453	-0.485011	-2.314188	0.070515	-0.254395	0.299316	0.733398
752.0	24.77195	4.423054	38.387592	-3.686744	-0.385382	-0.95139	-0.249512	0.240723	0.677734
753.0	26.176046	-8.929781	32.199037	-7.810032	2.268825	-1.686677	-0.234131	0.188477	0.603516
754.0	5.556934	-15.859799	18.833302	-0.506245	4.095069	-2.872614	-0.207764	0.182373	0.553467
755.0	2.801562	-5.638751	18.133884	3.798713	4.902511	-3.004528	-0.161865	0.18042	0.532959
756.0	3.963486	1.92854	16.48346	2.097075	4.784209	-2.752019	-0.124023	0.165283	0.537598
757.0	4.06555	3.384348	14.390293	-1.155569	4.71672	-2.324711	-0.108887	0.119629	0.586426
758.0	4.188183	0.327943	12.109756	-3.370602	4.85394	-1.965295	-0.119141	0.056152	0.617432
759.0	4.239784	-3.287604	10.211697	-3.44183	5.286665	-1.819909	-0.15332	-0.011963	0.648438
760.0	3.794668	-4.611965	8.854962	-2.044936	5.837202	-1.763899	-0.197998	-0.082031	0.656494
761.0	3.045204	-3.406535	8.16029	-0.546268	6.248905	-1.608412	-0.245605	-0.143311	0.644287
762.0	2.908965	-1.629339	7.849564	-0.128735	6.296624	-1.368743	-0.292969	-0.204834	0.620361
763.0	4.456924	0.439516	7.874821	-0.581691	6.276948	-0.933971	-0.340332	-0.268311	0.589844
764.0	5.662323	1.711038	7.768033	-0.853681	6.43742	-0.451957	-0.37915	-0.322998	0.542969
765.0	6.372248	2.811544	7.687627	-1.065154	6.617388	0.049337	-0.403564	-0.366699	0.489258
766.0	6.383537	3.149117	7.129337	-1.566848	6.698067	0.466896	-0.430664	-0.39502	0.435059
767.0	6.13933	2.771257	6.635252	-2.095798	6.569085	0.810458	-0.440674	-0.412354	0.376221
768.0	7.83756	2.266967	6.345262	-2.362134	6.239237	1.050481	-0.462158	-0.421143	0.337646
769.0	8.351318	2.174553	6.673886	-2.357319	5.927664	1.249919	-0.492432	-0.425537	0.299072
770.0	11.727472	3.306322	7.772964	-2.354811	5.535891	1.571567	-0.509766	-0.427734	0.249023
771.0	14.609255	2.883664	9.222381	-3.060182	5.212622	1.783431	-0.530029	-0.412598	0.203125
772.0	18.54711	0.576697	10.563556	-4.024069	4.86997	1.697386	-0.548584	-0.388428	0.154785
773.0	20.924532	-1.966653	10.126061	-3.716115	4.939162	1.786297	-0.561035	-0.353516	0.108643
774.0	22.630813	-2.627381	9.517164	-1.756009	5.240928	2.023077	-0.569336	-0.316406	0.066895
775.0	24.341576	-1.32736	9.281129	-0.688528	5.388937	2.464329	-0.583984	-0.281494	0.027344
776.0	26.385096	-0.748162	8.349244	-1.102171	5.356745	2.997211	-0.579346	-0.237793	-0.012207
777.0	28.659797	-1.397446	6.879561	-1.22745	5.327875	3.427763	-0.579346	-0.191895	-0.047363
778.0	31.459413	-0.019761	5.370745	-0.052445	5.657789	3.693796	-0.572266	-0.156738	-0.084473
779.0	32.477374	2.469528	2.849513	1.490218	6.150306	4.081266	-0.567139	-0.121582	-0.10791
780.0	30.393992	4.603537	-0.450749	2.248372	6.242298	4.496803	-0.55542	-0.091064	-0.149658
781.0	27.346734	5.378037	-4.106744	2.028731	5.963695	4.135855	-0.543945	-0.058105	-0.182129
782.0	27.922048	4.731981	-7.77308	1.326424	5.345069	3.256441	-0.533691	-0.044922	-0.200684
783.0	28.198409	2.456357	-12.648075	1.59907	4.954907	2.312708	-0.516602	-0.031494	-0.230469
784.0	27.108987	3.232266	-17.365789	3.703904	5.269567	1.209298	-0.498779	-0.042236	-0.250977
785.0	26.43064	5.511731	-20.745162	6.916638	6.708656	0.34634	-0.480713	-0.055176	-0.282471
786.0	23.715726	6.529296	-20.117841	7.699145	7.214318	-0.545731	-0.451416	-0.079102	-0.295898
787.0	17.383511	6.096284	-21.434043	2.951013	2.103278	-1.699545	-0.453369	-0.081299	-0.30249
788.0	18.768578	0.836674	-16.600111	-4.870881	-4.22085	-0.944839	-0.478027	-0.066162	-0.275391
789.0	23.935438	-0.839783	-9.595226	-8.07256	-8.857674	0.187318	-0.518799	-0.031494	-0.228271
790.0	28.063705	1.513954	-4.147927	-8.844533	-8.969198	0.13502	-0.539551	-0.01001	-0.196777
791.0	6.856885	8.980738	18.99602	-8.055872	-1.214723	-1.843354	-0.539795	-0.005615	-0.185547
792.0	-22.065456	-2.826874	42.957316	-7.704526	-4.120931	-3.082636	-0.554688	-0.012207	-0.173828
793.0	-16.825142	-49.290922	-35.27377	6.892239	-1.342403	-13.029068	-0.554199	-0.121582	-0.133057
794.0	48.791072	6.660348	22.489272	21.475154	-6.328969	-0.636668	-0.574707	-0.0979	-0.087891
795.0	33.631298	5.90151	2.878087	2.076019	-0.836298	15.66334	-0.5896	-0.012695	-0.071289
796.0	-0.858756	14.604392	7.35902	2.822909	-5.915929	8.053056	-0.601563	0.010986	-0.021729
797.0	16.277826	16.726672	7.815368	-1.265812	-4.748189	-1.736554	-0.605469	0.002197	0.005859
798.0	8.543461	4.934103	3.220392	-0.287493	-3.301195	-1.073204	-0.607666	0.002197	0.035645
799.0	19.329109	9.639158	9.450331	0.996192	-4.519921	1.632018	-0.612305	0.010742	0.060547
800.0	19.481222	1.329413	13.733979	-5.092997	-3.362084	0.238052	-0.612305	0.010742	0.090088
801.0	24.830285	-9.172955	8.690185	-6.214028	-1.698643	-1.133405	-0.609619	-0.002441	0.099365
802.0	13.176195	-5.304263	6.592272	4.069392	-0.529508	-1.663807	-0.611328	-0.01123	0.099609
803.0	8.762834	5.245239	10.035965	6.289013	-0.09815	-0.403564	-0.609375	-0.009033	0.106445
804.0	7.638666	6.131223	7.608698	1.104257	0.900221	-0.538682	-0.615479	-0.015625	0.102051
805.0	6.017389	2.940012	6.553914	-1.153566	-1.295974	-1.010999	-0.608643	-0.022217	0.108887
806.0	9.332295	2.498025	8.696281	-2.731173	-1.96192	0.037133	-0.608643	-0.024414	0.129395
807.0	8.890668	-2.479058	6.578928	-1.49204	-0.23434	-0.305135	-0.610596	-0.028809	0.125
808.0	7.978103	0.346779	7.34827	1.647453	-0.036132	-0.314704	-0.610596	-0.026611	0.125
809.0	7.358859	3.732881	7.444317	0.972589	0.22794	-0.163191	-0.610596	-0.026611	0.127197
810.0	6.244121	2.350027	6.862691	-0.309635	-0.33039	-0.39106	-0.606201	-0.028809	0.127197
811.0	7.393493	0.803226	7.422299	-0.934959	-0.359543	-0.247018	-0.608154	-0.035156	0.129639
812.0	6.932188	-0.313925	7.004346	0.022019	-0.153766	-0.310175	-0.610107	-0.037354	0.129883
813.0	6.629108	1.081082	7.188773	0.494364	-0.104554	-0.335191	-0.604004	-0.031006	0.134277
814.0	6.513273	1.003476	7.163195	-0.079434	-0.263438	-0.368374	-0.608398	-0.031006	0.141113
815.0	6.377672	0.042335	6.994719	-0.102877	-0.327998	-0.417003	-0.608398	-0.028809	0.140869
816.0	6.073664	-0.016676	6.921502	0.274497	-0.402574	-0.503042	-0.605957	-0.033203	0.150146
817.0	6.323547	0.695187	7.046638	0.255691	-0.554454	-0.534754	-0.589111	-0.019775	0.140869
818.0	6.342798	0.372762	7.026335	0.025395	-0.662097	-0.63023	-0.564453	-0.034912	0.125
819.0	7.242482	0.549103	7.227957	0.008362	-0.786521	-0.613378	-0.545898	-0.106934	0.105957
820.0	9.140501	2.340866	7.60178	0.029114	-0.464885	-0.270124	-0.606445	-0.170654	0.13916
821.0	7.372067	-0.037962	6.931659	-0.351283	-0.133428	-0.761032	-0.627686	-0.131592	0.163574
822.0	8.433607	1.79741	7.35985	-0.002448	-0.193345	-0.320013	-0.625	-0.098877	0.16748
823.0	7.989612	1.879199	7.048401	0.215947	0.132674	-0.380433	-0.614746	-0.083496	0.167236
824.0	8.813811	2.648006	6.956065	0.448269	0.242569	-0.334735	-0.614746	-0.083496	0.157959
825.0	7.618057	2.379861	6.809822	0.24307	0.459188	-0.258193	-0.610596	-0.076904	0.155518
826.0	6.586853	0.227268	7.600885	-0.10885	0.047718	-0.561367	-0.605957	-0.081055	0.155762
827.0	6.752508	-0.393065	7.675229	-0.51557	-0.449993	-0.5647	-0.60791	-0.089844	0.1604
828.0	7.445608	0.635008	7.912042	0.103963	-0.406075	-0.518432	-0.607666	-0.092041	0.158203
829.0	7.306355	1.731492	7.913584	1.04249	-0.015687	-0.657855	-0.601074	-0.094238	0.162842
830.0	7.168762	3.467941	7.963639	1.621347	0.107901	-0.624235	-0.601074	-0.094238	0.162842
831.0	6.040606	5.621884	8.696819	1.380738	-0.157288	-0.210866	-0.601074	-0.094238	0.167236
832.0	5.706254	5.53319	8.200323	0.574125	-0.962611	-0.081327	-0.601318	-0.087646	0.17627
833.0	5.800878	4.796744	8.22408	-0.381231	-1.913279	0.231668	-0.601074	-0.092041	0.187744
834.0	6.569207	4.481445	8.320158	-0.652815	-2.458923	0.523607	-0.599121	-0.087891	0.203613
835.0	6.662413	3.852896	8.600392	-0.405504	-2.600457	0.734612	-0.597168	-0.083496	0.224121
836.0	6.512329	3.592503	8.853415	-0.127071	-2.814243	0.962362	-0.599609	-0.076904	0.244385
837.0	5.486482	3.096867	9.099955	-0.231764	-3.324765	1.080164	-0.591553	-0.066162	0.257813
838.0	4.23742	2.154257	9.344881	-0.496353	-4.096824	1.028088	-0.583008	-0.05957	0.291992
839.0	2.789485	0.896971	9.311914	-0.548521	-4.929902	0.862631	-0.574463	-0.055176	0.32373
840.0	2.402592	0.218559	8.921326	-0.032803	-5.672809	0.690297	-0.565918	-0.052979	0.369385
841.0	2.516568	0.636504	8.539094	0.916377	-6.196324	0.495543	-0.551025	-0.040039	0.40332
842.0	1.298118	1.761709	8.417912	1.941257	-6.842345	0.60058	-0.528076	-0.020264	0.45752
843.0	2.900434	2.575521	7.664283	1.74578	-7.492558	1.735306	-0.496094	-0.000488	0.502686
844.0	4.731923	2.894887	5.707819	1.087516	-9.185467	2.715421	-0.45752	0.014893	0.568359
845.0	11.797256	3.709897	4.253058	0.247504	-11.31555	3.678861	-0.401855	0.039063	0.620361
846.0	22.536735	2.708705	3.288564	-1.879714	-11.063199	3.682582	-0.347656	0.041504	0.681641
847.0	39.444801	-0.864271	4.776012	-2.826488	-11.436706	2.801132	-0.279541	0.035156	0.729492
848.0	34.451247	-4.672512	5.091686	-2.065209	-10.589146	1.461104	-0.216309	0.031006	0.761475
849.0	35.140747	-5.991534	8.666701	-0.275721	-8.974178	0.38341	-0.172607	0.033447	0.78418
850.0	38.542897	-4.020855	19.284229	-0.496353	-6.39413	-0.286334	-0.139648	0.024902	0.800293
851.0	31.241393	5.934767	35.812687	-0.072175	-2.905944	-0.68842	-0.131348	0.035889	0.809082
852.0	19.667609	10.487013	36.976081	-0.647478	-0.669957	-1.682235	-0.13916	0.013916	0.816406
853.0	23.075451	3.678813	35.507623	-6.668866	1.176422	-2.448644	-0.147461	-0.042725	0.812988
854.0	8.546403	-9.534239	21.752586	-5.0049	2.97741	-3.097672	-0.176758	-0.069092	0.809082
855.0	4.859388	-6.205697	19.083345	-0.403142	3.819038	-3.68644	-0.209229	-0.078125	0.811523
856.0	5.621597	-0.792398	16.901609	-1.008111	4.099597	-3.682815	-0.232422	-0.093506	0.800537
857.0	5.933808	-0.234748	14.497053	-3.051846	4.160702	-3.374976	-0.263672	-0.128662	0.798828
858.0	5.678587	-2.666973	12.144738	-3.926559	4.538055	-2.981905	-0.303711	-0.157227	0.774414
859.0	5.883718	-4.420889	10.657665	-3.37413	5.108293	-2.617458	-0.34375	-0.190186	0.763672
860.0	5.658674	-4.167986	9.902621	-2.580757	5.641946	-2.252099	-0.385986	-0.220947	0.741699
861.0	5.135304	-3.259146	9.219467	-2.089223	5.937528	-1.817845	-0.4375	-0.238525	0.707764
862.0	4.975282	-2.597529	8.531082	-1.793829	6.107264	-1.262746	-0.489014	-0.258545	0.669434
863.0	6.155301	-1.026714	8.211069	-1.554896	6.270893	-0.635211	-0.538086	-0.280518	0.624512
864.0	6.195468	0.987523	7.744528	-1.107286	6.557051	-0.052968	-0.585449	-0.293701	0.570068
865.0	5.573133	3.021462	7.11325	-0.923878	6.721746	0.469538	-0.631348	-0.291748	0.494873
866.0	4.682764	4.486689	6.431904	-1.509926	6.588163	0.905472	-0.664307	-0.291748	0.419678
867.0	5.093403	5.19064	6.686785	-2.727264	6.08896	1.317068	-0.690918	-0.278564	0.353516
868.0	8.543992	4.313038	7.583327	-3.669549	5.599546	1.579098	-0.710693	-0.27417	0.301025
869.0	10.193296	3.395225	8.298526	-3.487753	5.521125	1.678651	-0.719238	-0.280762	0.232666
870.0	11.874982	4.011912	8.646375	-2.660935	5.549293	1.828503	-0.730713	-0.269775	0.170898
871.0	13.246371	4.090027	9.075022	-2.984472	5.208088	1.93437	-0.733154	-0.260742	0.109131
872.0	16.763176	1.881011	10.007847	-3.689016	4.769896	1.977795	-0.729248	-0.251953	0.056641
873.0	19.674327	-0.690962	9.91209	-3.21629	4.670506	2.081187	-0.734131	-0.23877	0.001709
874.0	22.062247	-1.170124	9.727907	-1.514118	4.851168	2.294827	-0.721924	-0.223145	-0.044189
875.0	24.358441	1.100434	9.469845	0.028192	5.165576	2.684274	-0.716064	-0.205566	-0.092529
876.0	25.408028	3.062859	8.212254	0.270904	5.269387	3.291409	-0.715088	-0.181396	-0.131592
877.0	26.98346	3.137616	6.236805	-0.017625	5.166401	3.88103	-0.703125	-0.157227	-0.177734
878.0	29.98255	1.888766	3.859083	0.13866	5.109329	4.260397	-0.687012	-0.126465	-0.219482
879.0	32.93444	1.307548	1.125396	1.13553	5.281113	4.337231	-0.681152	-0.108887	-0.251709
880.0	34.104194	1.876197	-2.134373	2.377441	5.517215	4.273323	-0.6604	-0.089111	-0.29541
881.0	32.604509	3.168591	-5.600226	3.390776	5.788673	3.699539	-0.634521	-0.077881	-0.338867
882.0	29.884201	5.100269	-10.060702	4.316264	5.872833	2.936395	-0.605957	-0.086426	-0.361572
883.0	29.79874	9.358852	-14.007869	5.138321	6.600266	2.652222	-0.572754	-0.096924	-0.411621
884.0	27.55565	7.350375	-19.144975	5.30489	8.2686	1.486731	-0.526123	-0.116211	-0.449951
885.0	21.482852	5.04358	-21.787773	5.310202	7.570386	-0.059203	-0.48999	-0.139893	-0.476807
886.0	17.932688	5.008277	-22.116539	2.538144	3.799705	-0.282282	-0.476563	-0.148438	-0.483643
887.0	17.332737	0.615495	-19.213795	-3.818527	-1.187648	0.43407	-0.493164	-0.118164	-0.479492
888.0	20.938475	-2.185219	-13.091746	-6.928666	-5.770711	0.762504	-0.532227	-0.076904	-0.455322
889.0	24.71744	2.505276	-8.096681	-6.823435	-7.869283	1.166902	-0.568604	-0.044434	-0.414795
890.0	18.803553	13.418168	6.115958	-4.95484	-4.140511	1.23284	-0.578125	-0.022705	-0.408447
891.0	-49.793321	-9.138089	12.482347	-4.856872	-0.253125	-8.480708	-0.588623	-0.083984	-0.407227
892.0	32.105928	-34.225468	-21.383921	6.742752	-8.271081	-10.953048	-0.626465	-0.163086	-0.312256
893.0	49.29306	10.619084	27.420608	1.636791	-7.995931	6.018233	-0.663818	-0.106689	-0.28125
894.0	12.821515	-0.3137	5.852273	2.861106	-5.541745	9.610113	-0.691895	-0.06543	-0.243408
895.0	16.815251	13.122829	9.843676	6.62657	-3.091833	3.698397	-0.700195	-0.072021	-0.218262
896.0	13.525667	14.825513	6.95955	3.791655	-1.61687	-1.689964	-0.70166	-0.091797	-0.206299
897.0	11.959534	6.357562	7.286807	0.187837	-2.697363	-1.515725	-0.7146	-0.093994	-0.174316
898.0	15.245139	1.924294	10.396422	-5.004643	-5.753826	0.387416	-0.726074	-0.081055	-0.138184
899.0	31.395868	-4.996651	12.74754	-9.431627	-2.299713	-0.190222	-0.728271	-0.081299	-0.131348
900.0	12.255026	-10.125252	5.837105	2.311201	-0.570053	-1.449167	-0.727539	-0.098633	-0.126465
901.0	7.272453	1.878356	10.168132	8.042325	0.104577	-0.609212	-0.727051	-0.107422	-0.117188
902.0	9.185627	7.23044	7.878702	2.73107	1.026121	-0.257115	-0.724365	-0.116211	-0.121582
903.0	4.467807	3.639271	6.256687	-0.775764	-0.632246	-0.732917	-0.730713	-0.120605	-0.110107
904.0	8.229609	2.942949	8.647536	-2.664186	-2.215687	-0.376529	-0.735107	-0.122803	-0.103271
905.0	9.005423	-2.3709	7.437157	-2.790257	-0.385247	-0.336311	-0.733398	-0.114014	-0.101074
906.0	7.959748	-2.528623	6.620032	1.348609	-0.028568	-0.498294	-0.726074	-0.127197	-0.10083
907.0	7.099074	2.842725	7.94914	2.173175	0.118175	-0.358459	-0.732666	-0.129395	-0.098389
908.0	5.890442	3.013366	7.069055	0.115451	-0.124499	-0.24838	-0.728027	-0.133789	-0.09375
909.0	7.562921	1.238314	7.5352	-0.900262	-0.413941	-0.415368	-0.734619	-0.133789	-0.086914
910.0	7.010607	-0.056219	6.940906	0.116929	-0.186164	-0.381492	-0.729736	-0.142334	-0.084473
911.0	6.764755	1.993456	7.251723	0.783502	-0.148786	-0.308884	-0.727539	-0.142334	-0.084473
912.0	6.562596	2.155881	7.105954	0.081973	-0.30481	-0.24994	-0.731934	-0.146729	-0.082275
913.0	6.45597	0.729484	6.868241	-0.072751	-0.377351	-0.293612	-0.733887	-0.146973	-0.077637
914.0	6.223195	0.76018	6.80381	0.198367	-0.454483	-0.304348	-0.736084	-0.14917	-0.068359
915.0	6.418547	1.190465	6.91666	0.095321	-0.611806	-0.338763	-0.731934	-0.146973	-0.068604
916.0	6.422109	1.230279	7.326752	-0.228374	-0.790841	-0.377352	-0.716553	-0.144531	-0.063965
917.0	7.283126	-0.000615	7.154497	-0.485742	-0.908117	-0.522465	-0.705566	-0.151123	-0.068359
918.0	8.172774	0.502578	7.622084	-0.413728	-0.807306	-0.311841	-0.68457	-0.181396	-0.088379
919.0	7.916809	-0.200332	7.457659	-0.25026	-0.357383	-0.481744	-0.700439	-0.262207	-0.089111
920.0	8.011968	-0.086558	7.455534	0.093633	-0.052438	-0.567555	-0.750732	-0.260498	-0.045654
921.0	8.107769	0.756643	7.262746	0.314383	0.231613	-0.510467	-0.756836	-0.221191	-0.044189
922.0	8.583188	2.587708	6.793608	0.618656	0.383377	-0.419858	-0.748779	-0.203857	-0.042236
923.0	8.043219	4.177518	6.947618	0.701165	0.659393	-0.21296	-0.740479	-0.197266	-0.051514
924.0	6.732945	2.767059	6.851894	0.159245	0.414059	-0.403974	-0.742676	-0.195068	-0.049316
925.0	6.852007	1.361991	7.69256	-0.758105	-0.200541	-0.31115	-0.734131	-0.194824	-0.05835
926.0	6.150571	-1.217361	7.652638	-0.981388	-0.619874	-0.675584	-0.73584	-0.201416	-0.053711
927.0	7.715765	-0.283084	8.021066	-0.212524	-0.571945	-0.56399	-0.737549	-0.212402	-0.046631
928.0	7.529963	0.473929	7.927277	0.902962	0.01242	-0.68583	-0.733154	-0.216797	-0.046631
929.0	6.970542	1.972445	7.824154	1.652901	0.318487	-0.756461	-0.730957	-0.216797	-0.044434
930.0	6.354137	5.084252	8.804387	1.636662	0.122405	-0.381719	-0.730225	-0.229736	-0.044189
931.0	5.483583	5.217189	8.352128	0.855461	-0.625277	-0.295174	-0.732666	-0.225586	-0.032715
932.0	5.66421	4.599362	8.394559	-0.168064	-1.588002	-0.09775	-0.736816	-0.227783	-0.028076
933.0	6.413949	4.226519	8.27948	-0.560416	-2.261426	0.143774	-0.737061	-0.223389	-0.005371
934.0	7.04039	4.431882	8.393786	-0.158052	-2.294091	0.41897	-0.745605	-0.22583	0.010498
935.0	6.668092	4.506069	8.309625	0.34022	-2.239962	0.657233	-0.739746	-0.214844	0.030762
936.0	6.143561	4.695908	8.422712	0.285645	-2.619985	0.945936	-0.742188	-0.206055	0.055664
937.0	5.47926	4.745457	8.472944	-0.149941	-3.424709	1.187966	-0.744873	-0.195313	0.083008
938.0	4.338109	3.74934	8.931535	-0.633362	-4.172911	1.242764	-0.747314	-0.188965	0.121582
939.0	2.985867	1.459079	9.124067	-0.866819	-5.066963	1.039367	-0.745605	-0.180176	0.15332
940.0	1.697698	-0.569854	9.156549	-0.727428	-5.828411	0.8714	-0.737061	-0.173828	0.210205
941.0	1.512176	0.699502	8.986419	0.669454	-6.473276	0.73649	-0.730957	-0.167236	0.266846
942.0	0.913451	1.226779	8.681521	2.108576	-6.955386	0.571307	-0.722412	-0.158691	0.325928
943.0	2.272669	1.850946	7.381507	2.02889	-7.509127	1.706125	-0.704102	-0.132568	0.391602
944.0	4.292219	2.474194	5.111922	1.461598	-9.20484	2.824039	-0.676758	-0.108643	0.475342
945.0	13.5059	3.014244	3.536363	0.570112	-11.669334	4.098405	-0.62793	-0.077881	0.554443
946.0	25.25136	2.772359	4.790761	-3.201914	-11.343658	3.741193	-0.579834	-0.082275	0.63208
947.0	39.306932	-2.518494	4.284294	-3.268103	-11.545736	2.137194	-0.516357	-0.086426	0.691162
948.0	34.425754	-7.946192	4.57584	-1.287514	-10.417713	0.86994	-0.457275	-0.090332	0.750488
949.0	38.492894	-6.929606	9.625485	0.65284	-8.46	-0.32137	-0.411377	-0.090332	0.786865
950.0	44.297387	0.890167	27.42836	0.07298	-4.766061	-0.786407	-0.384766	-0.103271	0.798584
951.0	27.180595	9.133939	38.365754	0.652218	-0.828989	-0.983167	-0.382813	-0.098877	0.800781
952.0	16.0234	10.019141	36.002516	-1.500818	0.427971	-2.112021	-0.378662	-0.137939	0.787842
953.0	16.40863	-1.051403	29.543449	-7.904186	1.679825	-2.457202	-0.384033	-0.214355	0.755127
954.0	5.736966	-13.268581	18.315039	-5.025219	2.859023	-3.035393	-0.395508	-0.251465	0.730957
955.0	4.499293	-10.336381	17.083354	-0.632926	3.730324	-3.150208	-0.403564	-0.264648	0.717529
956.0	5.664938	-5.553609	15.925183	-0.888236	4.033295	-2.845686	-0.415771	-0.288574	0.692871
957.0	5.060151	-6.339128	13.807533	-2.198298	4.173102	-2.555662	-0.427002	-0.327881	0.654785
958.0	4.982668	-7.749235	11.911088	-1.514056	4.772314	-2.174871	-0.448242	-0.341064	0.62793
959.0	4.750273	-5.817866	11.073562	-0.089427	5.42269	-1.911441	-0.467285	-0.354248	0.603027
960.0	4.515869	-2.964517	10.607507	0.293363	5.821959	-1.610338	-0.481934	-0.365234	0.57373
961.0	4.622506	-0.955851	10.078966	-0.171737	6.091061	-1.141994	-0.507568	-0.380371	0.530762
962.0	5.632713	-0.123291	9.293214	-0.835819	6.310054	-0.577351	-0.533203	-0.393555	0.499023
963.0	6.310096	-0.09691	8.391859	-1.198355	6.578085	-0.07357	-0.561035	-0.404541	0.44458
964.0	6.205392	0.193384	7.449393	-1.115006	6.840558	0.337675	-0.582764	-0.406738	0.385498
965.0	6.208681	0.972467	6.777002	-0.963025	6.952624	0.64252	-0.600342	-0.402344	0.330566
966.0	5.845677	1.730914	6.345457	-1.049657	6.897732	0.845231	-0.615967	-0.393555	0.273438
967.0	6.904333	3.003594	6.648908	-1.292325	6.60904	1.003972	-0.619385	-0.367432	0.234375
968.0	8.867699	3.370169	6.754815	-1.883155	6.258876	1.124391	-0.63501	-0.36084	0.188477
969.0	9.302285	3.274826	6.943208	-2.341865	5.871238	1.271038	-0.652588	-0.354248	0.145264
970.0	11.350767	3.29848	7.778745	-2.593253	5.426145	1.448317	-0.66626	-0.345459	0.097168
971.0	14.347611	1.841875	9.635474	-3.272049	4.890736	1.493323	-0.672852	-0.341064	0.053711
972.0	19.656195	-0.465238	11.568961	-3.988876	4.583051	1.483256	-0.680176	-0.327881	0.001221
973.0	21.190032	-4.114721	10.508946	-3.13666	4.768139	1.530053	-0.678467	-0.314697	-0.051514
974.0	21.14968	-4.930059	9.013128	-1.067259	4.930147	1.696703	-0.679443	-0.294922	-0.099854
975.0	21.488846	-2.534622	8.070992	0.136481	4.810765	2.069943	-0.666748	-0.285889	-0.136475
976.0	24.262056	0.245004	7.60467	0.088435	4.480072	2.558256	-0.667725	-0.261963	-0.168945
977.0	29.153778	1.895981	7.376308	-0.457805	4.309139	3.006623	-0.662354	-0.23999	-0.212646
978.0	34.556448	2.712578	6.255634	-0.27597	4.655526	3.216528	-0.654297	-0.220215	-0.251709
979.0	35.705578	3.860901	3.849565	0.741628	5.52176	3.339758	-0.638184	-0.19165	-0.291016
980.0	32.804543	4.41171	-0.673027	1.79089	6.101207	4.283848	-0.615234	-0.167236	-0.33252
981.0	27.533861	5.88741	-4.499374	2.75953	6.258707	4.033982	-0.596436	-0.154053	-0.369385
982.0	26.903606	5.422924	-9.079408	2.723484	6.044085	2.906312	-0.568115	-0.151611	-0.403564
983.0	25.991443	2.564833	-14.993067	2.561659	6.203476	2.072308	-0.539551	-0.157715	-0.437744
984.0	24.091131	2.708974	-19.359979	4.68008	6.443375	1.150327	-0.501465	-0.177246	-0.460205
985.0	22.179064	5.655574	-20.903576	7.236883	7.054892	0.507219	-0.460449	-0.216064	-0.477783
986.0	18.494639	7.931574	-20.916455	6.259103	5.140434	-0.488025	-0.441895	-0.242188	-0.486328
987.0	16.828454	7.362587	-20.639946	-0.197367	0.085394	-0.803053	-0.453613	-0.227051	-0.481934
988.0	19.610675	3.427412	-12.695777	-6.082618	-5.427739	-0.118141	-0.485352	-0.196533	-0.471191
989.0	25.425773	2.789232	-7.634602	-7.790988	-7.682619	0.251675	-0.528564	-0.159912	-0.451416
990.0	16.522434	9.802136	1.722521	-7.283419	-5.857247	-0.977398	-0.55127	-0.135986	-0.431396
991.0	-6.887726	7.012618	16.979366	-4.442908	-2.966488	-1.659446	-0.560059	-0.134033	-0.435791
992.0	-24.930122	-20.558555	-2.49237	-1.176152	-1.692327	-10.678865	-0.560791	-0.217041	-0.400146
993.0	41.396243	-15.90511	1.172728	10.072078	-10.65197	-6.077398	-0.611328	-0.256836	-0.314941
994.0	37.63019	3.363341	15.90977	-1.574237	-4.651446	7.80954	-0.651123	-0.193848	-0.286377
995.0	17.442528	4.375054	9.28261	3.105479	-5.349743	7.71766	-0.678711	-0.165771	-0.248291
996.0	14.218936	11.411765	8.262363	5.564608	-2.680506	1.154106	-0.686279	-0.192139	-0.218018
997.0	10.388283	8.730116	7.699617	1.825098	-1.923	-2.590894	-0.691895	-0.209473	-0.199463
998.0	9.74588	1.628111	5.840596	-1.119534	-3.67867	-1.56481	-0.700439	-0.214111	-0.169678
999.0	18.766259	3.526714	10.624211	-2.890012	-3.914415	0.484077	-0.709717	-0.201172	-0.158691
1000.0	26.341097	0.07265	16.172517	-1.248871	-2.211432	0.203077	-0.705322	-0.201172	-0.135742
1001.0	8.246838	-5.364325	3.853734	0.084567	-0.71353	-1.388198	-0.711182	-0.216309	-0.126465
1002.0	10.45556	2.931767	8.145537	3.077484	-0.432992	-0.361216	-0.712891	-0.227295	-0.119385
1003.0	8.55932	5.396067	7.768628	1.566894	-0.234968	0.081503	-0.715332	-0.225342	-0.110352
1004.0	7.375712	3.085148	7.567423	-1.323851	-0.979208	-0.64486	-0.712891	-0.227295	-0.117188
1005.0	9.244201	0.189084	7.514572	-1.39777	-0.354502	-0.329386	-0.710693	-0.227295	-0.119385
1006.0	8.595019	0.662699	7.320336	0.778234	-0.102592	-0.305024	-0.712646	-0.231689	-0.105469
1007.0	7.843532	3.903011	7.522907	0.765409	-0.030832	-0.169436	-0.710449	-0.236084	-0.110107
1008.0	7.454979	2.954535	7.433696	-0.473977	-0.059403	-0.050088	-0.710205	-0.238281	-0.105469
1009.0	7.473843	0.822412	7.194557	-0.431227	-0.010049	-0.010476	-0.710449	-0.233887	-0.10791
1010.0	7.181037	1.560867	7.261902	0.195727	0.066246	0.012592	-0.710449	-0.236084	-0.105469
1011.0	6.863991	2.177349	7.213659	-0.037971	0.039677	0.051726	-0.710693	-0.231689	-0.105713
1012.0	6.797304	1.421955	7.134776	-0.241522	0.007993	0.089514	-0.714844	-0.231689	-0.103271
1013.0	6.610509	1.079337	7.120376	-0.148062	0.001959	0.097524	-0.70874	-0.2229	-0.110352
1014.0	6.548177	0.805341	7.104095	-0.203093	-0.040482	0.084435	-0.710938	-0.225342	-0.098877
1015.0	6.265935	0.234175	7.097461	-0.279573	-0.097054	0.044147	-0.710938	-0.225098	-0.103516
1016.0	5.968562	-0.16177	7.010469	-0.196515	-0.169979	-0.030205	-0.713379	-0.216553	-0.094482
1017.0	5.330494	-0.219853	6.751755	-0.034387	-0.293111	-0.131415	-0.706787	-0.216553	-0.094482
1018.0	4.919639	-0.30235	6.509187	-0.026293	-0.499062	-0.270954	-0.694092	-0.212158	-0.090088
1019.0	5.063745	-0.473788	6.686722	-0.057201	-0.744883	-0.456702	-0.68042	-0.225098	-0.105713
1020.0	7.256215	-0.457131	7.598258	-0.168167	-1.035064	-0.622406	-0.671631	-0.275146	-0.118408
1021.0	8.196199	-0.508816	8.003143	-0.506083	-1.083814	-0.731705	-0.699951	-0.325439	-0.105957
1022.0	7.591986	-0.494208	7.725967	-0.406424	-1.006327	-0.720206	-0.730469	-0.321533	-0.060547
1023.0	9.399009	1.492809	7.657252	-0.228611	-0.598342	-0.427459	-0.736328	-0.288818	-0.056641
1024.0	8.700012	2.643732	7.450708	0.497756	0.292629	-0.278078	-0.728027	-0.280029	-0.054443
1025.0	7.571346	1.837986	7.082312	0.744021	0.586069	-0.484129	-0.72168	-0.277832	-0.059082
1026.0	7.359376	1.817568	6.999775	0.45069	0.248368	-0.386716	-0.719482	-0.277832	-0.059082
1027.0	8.403027	1.980377	6.708485	-0.151429	-0.006054	-0.23128	-0.715088	-0.275635	-0.063721
1028.0	7.378467	1.508367	7.279274	-0.183157	-0.099242	-0.462151	-0.713135	-0.273438	-0.061523
1029.0	7.230158	0.359978	7.440222	-0.209371	-0.156497	-0.514208	-0.712646	-0.281982	-0.065918
1030.0	7.101955	0.427408	7.874144	0.072698	-0.225349	-0.545628	-0.714355	-0.295166	-0.061035
1031.0	7.263933	1.082099	7.801929	0.586154	-0.14202	-0.564759	-0.705566	-0.292969	-0.061035
1032.0	6.838047	2.049089	7.917284	1.00616	-0.04522	-0.561575	-0.707764	-0.295166	-0.058838
1033.0	6.477785	4.348272	8.919782	1.171974	-0.356869	-0.43652	-0.709473	-0.303955	-0.051758
1034.0	6.175829	4.424906	8.374822	0.700828	-0.645944	-0.115363	-0.713867	-0.306152	-0.040283
1035.0	5.938836	4.30205	8.528337	0.148109	-1.47594	-0.008797	-0.714111	-0.299561	-0.033691
1036.0	6.349957	4.279979	8.486153	-0.20968	-2.13757	0.279644	-0.718506	-0.299805	-0.015381
1037.0	6.681932	4.439286	8.672373	-0.101859	-2.383608	0.548184	-0.718506	-0.297607	0.00293
1038.0	6.333945	3.905881	8.763916	0.000322	-2.652727	0.766022	-0.732178	-0.284668	0.030029
1039.0	6.009491	3.621915	8.924043	-0.165506	-3.219814	0.994405	-0.723877	-0.275879	0.057129
1040.0	5.316282	2.97926	9.017981	-0.468463	-3.866948	1.044871	-0.741455	-0.273926	0.079834
1041.0	3.888846	1.594183	9.068652	-0.603714	-4.569849	0.895419	-0.735352	-0.260986	0.122803
1042.0	2.481594	0.140706	9.329651	-0.439952	-5.287941	0.742391	-0.733154	-0.260986	0.163818
1043.0	1.983581	0.868185	9.498859	0.289625	-6.086033	0.608236	-0.731445	-0.250244	0.218506
1044.0	0.694286	0.943632	9.304784	1.366394	-6.670692	0.35951	-0.723145	-0.243652	0.279785
1045.0	1.599948	0.587022	7.634893	1.953847	-7.447903	0.676658	-0.708496	-0.228516	0.350098
1046.0	3.158554	2.3247	6.319212	1.516457	-8.624045	1.932442	-0.694092	-0.208984	0.422607
1047.0	9.278311	3.643883	4.397015	1.040336	-10.543785	3.290749	-0.658203	-0.180664	0.510986
1048.0	19.596802	3.8203	4.734788	-1.723441	-11.747019	3.560642	-0.617188	-0.169678	0.588135
1049.0	32.254416	-1.440691	2.927063	-2.721028	-11.467691	2.258985	-0.5625	-0.173828	0.6521
1050.0	35.905841	-3.714721	5.450247	-1.923794	-10.87235	1.274657	-0.503662	-0.173584	0.722656
1051.0	33.095044	-8.030535	6.727024	0.16811	-9.545896	-0.235307	-0.446777	-0.175537	0.768066
1052.0	39.478618	-4.707892	13.715776	1.213644	-6.92252	-0.800108	-0.409912	-0.171143	0.802246
1053.0	38.60131	8.31009	34.106544	1.262443	-2.891508	-0.604598	-0.397705	-0.155762	0.808838
1054.0	21.353236	16.865806	39.075905	0.038342	-0.510275	-1.214829	-0.396729	-0.17749	0.806885
1055.0	23.342537	7.729731	38.175158	-8.102254	1.127351	-1.896566	-0.405762	-0.266846	0.769775
1056.0	9.408859	-12.15562	21.410443	-9.092605	2.691621	-2.596092	-0.414307	-0.319336	0.736816
1057.0	2.675153	-14.841381	17.451259	-1.684043	3.781126	-3.610477	-0.42627	-0.341064	0.718994
1058.0	4.300349	-6.217923	16.756243	0.667478	4.383323	-3.094833	-0.443359	-0.354248	0.69873
1059.0	5.145161	-2.357666	14.983789	-1.007701	4.444431	-2.742968	-0.459717	-0.376221	0.669434
1060.0	5.373703	-3.55861	12.857823	-2.520762	4.723766	-2.154521	-0.473633	-0.404541	0.640381
1061.0	5.401505	-4.720552	11.057638	-1.878576	5.321776	-1.683701	-0.500977	-0.428711	0.606934
1062.0	5.180002	-3.552237	10.506729	-1.168831	5.813259	-1.296768	-0.524658	-0.4375	0.568359
1063.0	5.189355	-2.136814	9.923143	-1.173195	6.142558	-0.855674	-0.55249	-0.446289	0.53418
1064.0	4.826862	-1.712346	9.029855	-1.313519	6.341887	-0.395757	-0.577881	-0.463867	0.484619
1065.0	5.333108	-1.212664	8.382225	-1.237183	6.504542	0.034608	-0.608398	-0.468262	0.441406
1066.0	5.820852	0.232865	7.85808	-0.833042	6.71191	0.397715	-0.634521	-0.466064	0.391113
1067.0	6.131556	1.907996	7.468226	-0.607735	6.812643	0.722839	-0.658936	-0.457275	0.331787
1068.0	5.882233	3.127256	7.11736	-0.955803	6.744753	0.924747	-0.672852	-0.439941	0.28125
1069.0	6.802083	3.983805	7.347919	-1.723485	6.392603	1.167491	-0.695313	-0.426758	0.233154
1070.0	9.656105	3.834591	7.537827	-2.513687	6.036407	1.205003	-0.715576	-0.409424	0.194092
1071.0	9.790043	2.875122	7.401296	-2.525223	5.830712	1.218341	-0.727051	-0.400635	0.150635
1072.0	11.310071	3.638404	7.933776	-2.421632	5.535798	1.434613	-0.744873	-0.391846	0.10498
1073.0	13.868289	2.169663	9.298394	-3.433263	4.968393	1.660552	-0.756836	-0.367676	0.056641
1074.0	18.532219	-1.466661	10.726021	-4.421464	4.554762	1.832312	-0.768311	-0.354736	0.008545
1075.0	20.769151	-5.407321	9.874717	-3.383388	4.607487	1.985666	-0.782471	-0.332764	-0.02832
1076.0	21.5508	-6.088599	9.004696	-0.811372	4.793564	2.159536	-0.803223	-0.306641	-0.05835
1077.0	23.712668	-2.976804	8.975339	0.562572	4.783359	2.449582	-0.821533	-0.287109	-0.088379
1078.0	26.381735	-0.258109	8.130177	0.533453	4.710537	2.838575	-0.844482	-0.260986	-0.125488
1079.0	29.811777	0.989128	6.938489	0.42064	4.760226	3.202179	-0.872314	-0.226074	-0.166992
1080.0	33.577806	2.291658	5.016833	0.925159	5.104237	3.383325	-0.900635	-0.177979	-0.227295
1081.0	34.520003	3.012608	2.05646	1.78941	5.809574	3.772639	-0.907471	-0.123535	-0.289795
1082.0	32.134374	4.249361	-2.100061	2.773417	6.07409	4.541381	-0.909424	-0.077393	-0.365967
1083.0	27.84009	4.756664	-6.197102	3.350287	6.139698	3.96903	-0.891846	-0.03125	-0.453369
1084.0	27.842087	4.522639	-10.473817	3.095951	5.883997	3.084828	-0.867188	0.001953	-0.536133
1085.0	27.515209	4.911087	-14.261828	2.978799	6.15412	2.78229	-0.824707	0.02417	-0.614258
1086.0	26.292359	4.590413	-19.40745	4.735414	7.023451	1.947779	-0.769531	0.009521	-0.691406
1087.0	22.919326	5.018638	-20.976928	6.561991	8.005885	1.008467	-0.709229	-0.022705	-0.772949
1088.0	17.467402	5.101498	-21.232908	5.313558	5.790022	-0.291748	-0.67749	-0.046387	-0.820313
1089.0	15.409382	2.819044	-21.780804	-0.551104	0.377148	-0.759183	-0.691895	-0.015869	-0.823242
1090.0	18.892333	-0.017551	-14.145278	-4.63286	-5.768778	0.076005	-0.76416	0.035889	-0.790039
1091.0	26.949197	5.910585	-7.097102	-6.568731	-8.671994	1.020857	-0.852539	0.109375	-0.731934
1092.0	19.972979	15.624538	4.122834	-9.133744	-5.827206	-0.704673	-0.896729	0.174561	-0.701416
1093.0	-5.928515	11.576868	20.738732	-6.942408	-3.267437	-1.769619	-0.933105	0.204834	-0.688232
1094.0	-34.533655	-25.289693	-5.506491	-3.778553	-1.1997	-12.162907	-1.001221	0.069092	-0.669434
1095.0	42.296681	-22.258871	-2.558449	10.924534	-10.261829	-8.965809	-1.09375	-0.003906	-0.570068
1096.0	41.174027	2.350918	16.750911	-1.056055	-4.632909	8.370565	-1.145508	0.128906	-0.531494
1097.0	15.749779	1.366686	8.144924	2.531603	-5.837779	8.748215	-1.174805	0.200684	-0.485107
1098.0	13.955622	10.265917	8.952354	5.692212	-3.247287	2.691623	-1.207275	0.193848	-0.459717
1099.0	11.411641	9.704952	7.10285	2.355026	-2.257552	-1.40311	-1.232666	0.176025	-0.438965
1100.0	10.964356	4.688723	6.196834	-0.401758	-3.651334	-0.986791	-1.27002	0.179932	-0.377441
1101.0	19.800573	4.216277	12.704186	-3.749549	-4.008418	0.77577	-1.291504	0.221191	-0.334961
1102.0	26.775356	-7.091041	9.813804	-6.287341	-1.90937	-0.727608	-1.308594	0.2146	-0.305176
1103.0	12.461979	-6.89621	6.992671	2.206109	-0.784362	-1.46065	-1.312012	0.192627	-0.306885
1104.0	7.41866	1.763785	8.951499	6.884617	-0.285044	-0.602703	-1.312744	0.162109	-0.303955
1105.0	9.789177	7.823139	8.529395	2.240656	0.156314	-0.215053	-1.316895	0.157715	-0.310791
1106.0	5.15219	2.857681	5.96087	-1.577891	-0.920928	-0.548614	-1.323486	0.159912	-0.288086
1107.0	10.972502	2.077119	8.913605	-2.631137	-1.160862	-0.267574	-1.334717	0.16626	-0.272217
1108.0	8.192196	-2.157279	6.560688	-0.956887	-0.39866	-0.246343	-1.328369	0.168457	-0.272217
1109.0	7.897556	0.709525	7.306454	1.525781	-0.034928	-0.229705	-1.332275	0.159668	-0.274414
1110.0	6.983151	3.50775	7.507889	0.782313	-0.096394	-0.101996	-1.32959	0.150879	-0.262695
1111.0	7.094024	1.930143	7.331196	-0.836796	-0.261401	-0.099377	-1.338867	0.159668	-0.262939
1112.0	7.325667	0.02803	6.992326	-0.442124	-0.184522	-0.08941	-1.338867	0.161865	-0.272217
1113.0	7.644163	1.368902	7.169702	0.445332	-0.054924	-0.077636	-1.338623	0.155273	-0.262939
1114.0	7.288005	2.143574	7.213553	0.065116	-0.059934	-0.00899	-1.338379	0.153076	-0.258301
1115.0	7.194059	0.968608	7.17713	-0.332193	-0.087362	0.036504	-1.336426	0.155273	-0.253662
1116.0	6.975547	0.22374	7.073425	-0.125164	-0.081146	0.030068	-1.341064	0.164063	-0.249268
1117.0	6.644804	0.470125	7.043195	0.05681	-0.112629	0.002987	-1.341064	0.164063	-0.256104
1118.0	6.561892	0.753569	7.051916	-0.023027	-0.217563	-0.012571	-1.343262	0.161865	-0.24707
1119.0	6.627332	0.522776	6.940534	-0.108447	-0.333531	-0.021732	-1.336914	0.164063	-0.24707
1120.0	6.254524	0.007346	6.929951	-0.148271	-0.478085	-0.080697	-1.341553	0.17041	-0.23584
1121.0	6.281156	-0.462846	6.961268	-0.213692	-0.657026	-0.20271	-1.330566	0.170654	-0.238037
1122.0	6.89891	-0.500887	7.145231	-0.24089	-0.811238	-0.334743	-1.324951	0.144531	-0.242188
1123.0	7.353509	-1.107216	6.787862	-0.244431	-0.860485	-0.424913	-1.336426	0.10498	-0.234619
1124.0	8.049737	-0.146586	7.19485	0.017606	-0.806414	-0.355079	-1.370117	0.080811	-0.208984
1125.0	8.271021	0.682814	7.393343	0.044606	-0.558954	-0.273902	-1.383789	0.095947	-0.181885
1126.0	8.675433	1.33412	7.047406	0.282906	-0.191481	-0.278469	-1.380371	0.115479	-0.18457
1127.0	8.346642	1.511839	6.951919	0.54761	0.208919	-0.210709	-1.378662	0.124268	-0.187012
1128.0	7.474435	1.14425	6.741828	0.473249	0.216931	-0.2623	-1.374023	0.119873	-0.18457
1129.0	7.325452	1.178904	6.853053	0.141756	-0.051818	-0.217651	-1.376465	0.124268	-0.189209
1130.0	7.658992	1.637227	6.993915	-0.067927	-0.248508	-0.147044	-1.378662	0.124268	-0.189209
1131.0	7.805362	1.151344	6.983196	-0.154628	-0.249128	-0.179296	-1.374268	0.12207	-0.182373
1132.0	7.413621	0.556105	7.595429	-0.164792	-0.231431	-0.229732	-1.378418	0.119873	-0.182373
1133.0	7.463672	-0.334999	7.353179	-0.168601	-0.369689	-0.35779	-1.380371	0.115479	-0.177734
1134.0	7.374387	0.143269	7.702501	0.144658	-0.329521	-0.314446	-1.37793	0.111084	-0.170898
1135.0	7.589602	2.533354	8.368274	0.71632	-0.34427	-0.196919	-1.380371	0.113281	-0.179932
1136.0	6.915968	2.90632	8.051801	0.74002	-0.294627	-0.0598	-1.37793	0.108887	-0.175293
1137.0	6.488641	2.931411	8.167239	0.429644	-0.8757	-0.061892	-1.380371	0.115479	-0.159424
1138.0	6.452956	2.976026	8.233927	-0.153997	-1.596868	0.111321	-1.38916	0.115479	-0.136719
1139.0	6.93619	3.034412	8.368765	-0.433631	-2.104791	0.25616	-1.395996	0.124023	-0.098145
1140.0	6.958765	2.283734	8.397815	-0.445329	-2.41658	0.330765	-1.398438	0.130371	-0.073242
1141.0	6.647556	1.94194	8.718418	-0.396196	-2.739082	0.451733	-1.407715	0.141113	-0.032227
1142.0	6.07684	1.514833	8.72695	-0.328658	-3.140188	0.533656	-1.416748	0.149658	0.010742
1143.0	5.006306	1.015326	8.82528	-0.292583	-3.630347	0.573447	-1.421631	0.1604	0.060791
1144.0	3.961792	0.800062	8.583516	0.028647	-4.267285	0.439338	-1.428711	0.17334	0.126709
1145.0	4.106107	1.294775	8.574317	0.419144	-4.908815	0.425896	-1.437988	0.184082	0.194824
1146.0	3.275381	2.364806	8.878999	0.725778	-5.506665	0.573208	-1.443115	0.201416	0.265137
1147.0	2.738611	2.981348	9.046981	1.099153	-5.976968	0.88195	-1.446533	0.229492	0.355713
1148.0	2.790801	2.318	8.18397	0.553417	-6.692301	1.771781	-1.441895	0.270752	0.455078
1149.0	4.09051	2.368204	5.98207	0.544786	-8.368428	2.461939	-1.42627	0.314209	0.584229
1150.0	9.958247	1.537856	5.766598	-0.59245	-9.922253	2.777201	-1.391357	0.364258	0.731201
1151.0	16.53808	-1.057428	5.250064	-2.763801	-10.974868	1.88266	-1.343994	0.375	0.890625
1152.0	32.479329	-3.31717	4.42705	-2.503312	-11.464797	1.352006	-1.276367	0.377197	1.038574
1153.0	30.663964	-6.756073	2.886642	-0.959601	-10.306674	0.303233	-1.200195	0.384033	1.147705
1154.0	29.724971	-7.290344	6.248126	0.655701	-9.255383	-1.148777	-1.134766	0.379883	1.209229
1155.0	34.784181	-5.058132	11.775041	1.091954	-7.00974	-1.533015	-1.084473	0.37793	1.234375
1156.0	36.297641	2.878498	28.033849	-0.086459	-3.754502	-1.1536	-1.066162	0.358398	1.214111
1157.0	25.302921	11.568871	38.146649	-0.784302	-1.029339	-1.23145	-1.075439	0.323486	1.162354
1158.0	24.814052	5.71303	38.6588	-5.945385	0.994684	-1.956513	-1.105469	0.212158	1.0896
1159.0	14.911894	-12.123081	24.307401	-7.824978	3.254592	-2.48328	-1.130127	0.131592	0.977051
1160.0	3.728355	-15.326796	16.465543	-0.630085	4.522333	-3.47602	-1.155273	0.10791	0.847656
1161.0	3.006086	-6.125281	15.299263	1.652881	5.008218	-3.816734	-1.145752	0.09082	0.70459
1162.0	3.337623	-2.213111	13.090453	-0.504904	4.907047	-3.598463	-1.102783	0.056396	0.570557
1163.0	3.916234	-3.599879	10.894224	-2.098686	4.98246	-3.072145	-1.041016	0.039551	0.468262
1164.0	5.11977	-4.401834	9.816699	-1.570577	5.472711	-2.603839	-0.942383	0.025146	0.393311
1165.0	5.500957	-3.519688	9.348999	-1.324733	5.884172	-2.208763	-0.843994	0.021484	0.377197
1166.0	5.511032	-3.137681	8.75501	-1.516308	6.158349	-1.759626	-0.791016	0.006592	0.409424
1167.0	5.090458	-3.171276	8.103306	-1.352375	6.402937	-1.284506	-0.796143	-0.021973	0.44873
1168.0	5.648043	-1.642557	7.727174	-1.024302	6.635326	-0.819838	-0.849121	-0.05957	0.45874
1169.0	5.7864	0.611031	7.245178	-0.759071	6.861401	-0.359485	-0.913086	-0.092529	0.422852
1170.0	5.335156	2.298103	6.403326	-0.915633	6.912749	0.101264	-0.966553	-0.114502	0.359619
1171.0	4.208296	3.10647	5.524956	-1.364409	6.741448	0.489204	-0.999268	-0.116699	0.282227
1172.0	4.621707	3.930224	5.775335	-2.057969	6.19877	0.787979	-1.022949	-0.121094	0.220703
1173.0	8.256422	4.485503	7.05163	-3.26193	5.518168	0.905845	-1.057129	-0.138672	0.166504
1174.0	11.056198	3.601935	7.450858	-3.864939	5.183661	0.936722	-1.106445	-0.158447	0.093994
1175.0	12.218355	3.492983	7.919114	-2.863453	5.156504	0.830954	-1.151367	-0.175781	-0.014893
1176.0	13.745076	6.140453	9.620542	-2.208707	4.963811	0.670481	-1.151367	-0.177734	-0.163086
1177.0	18.22685	7.935652	11.606064	-3.127452	4.61288	0.694941	-1.084473	-0.161621	-0.304688
1178.0	21.125767	4.993204	11.568051	-4.469787	4.466824	0.898281	-0.977295	-0.121338	-0.401367
1179.0	21.940831	0.137119	9.751023	-4.494579	4.432262	1.083692	-0.849365	-0.103027	-0.452148
1180.0	22.429248	-1.247251	7.828972	-2.51966	4.566549	1.263291	-0.756104	-0.09375	-0.459229
1181.0	23.791475	2.673428	7.532054	-0.399585	4.724857	1.594205	-0.675293	-0.095215	-0.454834
1182.0	27.335092	7.206874	7.340389	-0.284096	4.739057	2.119954	-0.614258	-0.097168	-0.445557
1183.0	28.793853	7.597057	4.998487	-1.131668	4.733583	3.60602	-0.567139	-0.072754	-0.448486
1184.0	28.739336	7.674116	2.226043	-0.89863	4.858982	4.053474	-0.528809	-0.057373	-0.444336
1185.0	27.561368	7.263652	-1.353023	0.254483	5.203083	2.867365	-0.487549	-0.04834	-0.442139
1186.0	25.098631	6.888505	-5.00121	1.227975	5.210789	2.430957	-0.468018	-0.050293	-0.442139
1187.0	24.74467	7.851289	-8.445689	2.078018	5.195558	2.496666	-0.4375	-0.047852	-0.460449
1188.0	25.384223	10.904464	-11.348861	2.701687	5.748006	2.853967	-0.402344	-0.052002	-0.476318
1189.0	22.919495	10.053296	-15.01391	3.385837	7.288235	1.61307	-0.364502	-0.069336	-0.485352
1190.0	18.124524	7.407012	-17.252219	3.977281	6.673544	-0.113865	-0.335449	-0.086426	-0.498535
1191.0	14.692207	6.645127	-18.782874	1.237146	3.055926	-0.771996	-0.324463	-0.086426	-0.500977
1192.0	14.566131	2.352796	-17.16239	-3.132933	-1.543289	-0.309932	-0.347168	-0.071289	-0.487549
1193.0	18.489708	2.557082	-11.791827	-3.869264	-5.245659	0.44908	-0.374268	-0.047607	-0.462891
1194.0	22.379262	8.499814	-7.588034	-3.833141	-5.983773	0.638324	-0.40332	-0.030273	-0.438232
1195.0	8.978567	7.363159	-1.683158	-5.130549	-4.437507	-1.97217	-0.420898	-0.02832	-0.40625
1196.0	-16.689411	5.858244	18.305796	-5.119836	-5.660945	-5.140092	-0.446777	-0.032959	-0.383301
1197.0	-16.155894	-15.59079	-1.816404	-0.802572	-6.125955	-10.420238	-0.467773	-0.103027	-0.343262
1198.0	44.77352	1.186054	1.137454	10.870146	-5.45056	-4.906209	-0.484619	-0.162109	-0.287354
1199.0	23.405473	11.500472	11.136454	10.32091	-3.157443	4.741153	-0.504639	-0.153564	-0.26001
1200.0	12.562992	10.724691	7.1994	3.328908	-1.41521	5.709704	-0.517822	-0.151611	-0.237305
1201.0	13.006484	11.042169	9.114937	-0.047491	-5.707967	0.30828	-0.531006	-0.149658	-0.203125
1202.0	15.261503	4.420763	6.163764	-4.961432	-6.575175	-2.494601	-0.544189	-0.149658	-0.173584
1203.0	21.335423	-4.560514	11.129421	-6.313645	-3.476602	0.164297	-0.548584	-0.145508	-0.159912
1204.0	28.347402	-7.713323	13.392479	0.134584	-2.541232	-0.912124	-0.552246	-0.163086	-0.148193
1205.0	4.008257	-4.299562	2.236475	5.069832	-1.185572	-2.489861	-0.544922	-0.18042	-0.120361
1206.0	17.250845	12.683426	11.802705	4.706912	-0.262138	-0.387586	-0.549072	-0.187012	-0.122559
1207.0	7.172062	5.711421	5.566496	0.880699	0.86241	-0.144952	-0.543701	-0.206543	-0.115479
1208.0	8.725889	6.944069	7.216021	-0.963571	-1.45556	-1.529339	-0.550293	-0.208984	-0.11084
1209.0	8.330944	2.948788	6.722303	-2.601036	-1.631114	-0.51263	-0.543701	-0.20874	-0.104004
1210.0	9.375712	1.406401	7.213057	-1.610357	-1.339016	-0.331759	-0.547852	-0.215332	-0.099365
1211.0	9.122769	1.03591	7.094951	0.080099	0.006341	-0.449895	-0.554443	-0.213379	-0.110596
1212.0	8.258646	2.780956	7.123534	1.405509	0.870522	-0.278869	-0.54541	-0.217529	-0.108398
1213.0	6.680771	4.21302	6.67014	1.280258	0.740468	-0.318799	-0.54541	-0.219727	-0.105957
1214.0	6.430418	4.428394	6.537799	0.067815	-0.029601	-0.125706	-0.545166	-0.221924	-0.101318
1215.0	6.963825	3.179493	6.781737	-0.870619	-0.693146	0.069504	-0.552002	-0.217773	-0.099121
1216.0	7.61644	2.041375	6.949633	-0.739112	-0.582097	0.124841	-0.549805	-0.219727	-0.094727
1217.0	7.708918	1.885979	7.033617	0.05314	-0.082977	0.187068	-0.549805	-0.219727	-0.099121
1218.0	7.222058	2.355381	6.832037	0.503302	0.216378	0.233426	-0.547607	-0.215576	-0.094727
1219.0	6.813982	2.539818	6.61028	0.195372	-0.003672	0.289702	-0.547852	-0.213379	-0.092529
1220.0	7.111968	1.996767	6.713288	-0.303267	-0.343618	0.353849	-0.554688	-0.206787	-0.090332
1221.0	7.506223	1.123732	6.799505	-0.41435	-0.411747	0.355146	-0.54834	-0.202393	-0.088135
1222.0	7.678891	0.599707	6.8552	-0.234711	-0.284782	0.301272	-0.561523	-0.200195	-0.083496
1223.0	7.67729	0.342561	6.866691	-0.040481	-0.144326	0.211289	-0.553223	-0.191406	-0.08374
1224.0	7.603489	0.516035	6.844131	0.094547	-0.061842	0.140872	-0.555908	-0.180664	-0.079346
1225.0	7.532163	0.923652	6.882631	0.131785	-0.000211	0.085181	-0.553711	-0.180664	-0.081787
1226.0	7.322565	0.684672	6.852839	-0.021229	-0.053604	-0.006153	-0.534668	-0.165283	-0.084229
1227.0	7.560129	0.909915	6.805258	-0.089954	-0.109322	-0.043807	-0.512695	-0.171631	-0.106934
1228.0	7.525195	0.827774	6.761306	-0.009214	-0.044477	-0.195668	-0.499268	-0.228027	-0.133301
1229.0	7.489748	0.715858	6.873818	-0.043998	-0.052796	-0.323389	-0.529541	-0.280762	-0.116211
1230.0	7.497716	0.897718	6.808488	-0.104257	-0.075358	-0.409829	-0.56665	-0.278809	-0.088867
1231.0	7.554766	0.976005	6.873017	-0.127823	-0.034238	-0.456963	-0.574219	-0.254883	-0.075684
1232.0	7.571897	1.600317	6.785995	-0.007389	0.060778	-0.402277	-0.570801	-0.237549	-0.078369
1233.0	7.386083	2.142355	6.688661	0.096793	0.161305	-0.372384	-0.566406	-0.235352	-0.083008
1234.0	7.190406	2.483753	6.692738	0.025111	0.10464	-0.299124	-0.5625	-0.224365	-0.085449
1235.0	7.158659	2.388343	6.787232	-0.127065	-0.012627	-0.225706	-0.560303	-0.22876	-0.089844
1236.0	7.240658	1.856109	6.920897	-0.166213	-0.077964	-0.178983	-0.553955	-0.224121	-0.092285
1237.0	7.337822	1.5259	6.907068	-0.027246	-0.088686	-0.198258	-0.556152	-0.224365	-0.090088
1238.0	7.397635	1.98342	6.965829	0.234435	-0.015965	-0.149742	-0.553711	-0.228516	-0.094482
1239.0	7.311605	2.479355	6.862029	0.388253	-0.016883	-0.106723	-0.557861	-0.230713	-0.087646
1240.0	7.221702	2.689107	6.875013	0.349577	-0.112692	-0.016418	-0.551514	-0.230713	-0.080811
1241.0	7.295612	2.506052	6.863229	0.227618	-0.293897	0.026394	-0.553711	-0.226318	-0.083008
1242.0	7.347709	2.020705	6.768926	0.297299	-0.328264	0.112362	-0.553467	-0.230713	-0.078369
1243.0	7.593263	2.967007	6.828481	0.744244	-0.410506	0.205473	-0.557861	-0.230957	-0.071533
1244.0	6.958268	4.815121	7.899633	0.659557	-0.209348	0.536923	-0.555908	-0.226563	-0.071777
1245.0	6.716103	4.114722	7.50004	0.259662	-0.810348	0.560143	-0.556396	-0.217773	-0.060547
1246.0	7.197548	4.213769	7.369638	0.101475	-1.15111	1.000333	-0.561035	-0.211182	-0.05835
1247.0	7.478002	4.493095	7.239961	0.362592	-1.221752	1.168649	-0.568115	-0.200439	-0.047119
1248.0	7.70291	4.817525	7.108924	0.57466	-1.329325	1.347638	-0.572754	-0.193848	-0.026855
1249.0	7.707047	5.437612	7.799454	0.226053	-1.521258	1.598239	-0.573486	-0.176514	-0.020264
1250.0	7.322103	5.953046	9.352094	-0.562682	-1.88629	1.821907	-0.574219	-0.15918	-0.002441
1251.0	9.235518	5.45701	11.017465	-1.625094	-1.662073	2.356654	-0.583984	-0.137451	-0.000488
1252.0	7.81709	6.862397	10.559573	-0.765257	-0.99975	3.042012	-0.589355	-0.113525	0.010498
1253.0	7.947793	11.57589	12.366907	-1.433514	-0.403973	3.579624	-0.59082	-0.082764	0.014404
1254.0	6.401203	13.212773	12.299165	-4.80495	-0.885767	3.252714	-0.590088	-0.050049	0.020508
1255.0	6.071524	12.02643	11.218992	-8.446786	-1.903996	2.56551	-0.595703	-0.019775	0.03833
1256.0	9.287253	10.931735	10.397549	-10.805447	-2.071717	2.21843	-0.597168	0.010742	0.060547
1257.0	9.342543	8.491375	8.999384	-12.424105	-1.731517	1.223069	-0.595703	0.02832	0.071533
1258.0	6.951083	4.495854	14.131998	-15.232761	-1.249062	-0.127053	-0.591064	0.023926	0.092041
1259.0	6.161554	-4.437748	12.558409	-18.73729	-0.617603	-3.8537	-0.594238	-0.004639	0.106201
1260.0	10.196472	-16.635329	11.766401	-9.919552	1.247098	-7.854546	-0.59375	-0.063477	0.105225
1261.0	3.449799	-1.83275	13.062069	6.358366	2.456719	-10.437627	-0.589111	-0.120117	0.11084
1262.0	4.331942	16.668708	17.474462	7.119051	1.971442	-11.035965	-0.577393	-0.187744	0.123535
1263.0	6.54182	9.908996	9.617654	-2.432928	3.982715	-10.187192	-0.561768	-0.242188	0.11084
1264.0	-1.830707	-0.620253	4.662072	-7.38945	-0.324253	-12.53236	-0.538818	-0.318359	0.101074
1265.0	3.726016	-0.520381	5.367249	-10.486001	-4.390119	-13.653594	-0.502197	-0.401123	0.088867
1266.0	11.729575	-4.432332	8.669778	-14.365753	-1.210383	-8.523274	-0.480713	-0.446777	0.041992
1267.0	5.097489	-12.432069	2.251389	-4.83768	0.986647	-7.104588	-0.469971	-0.488037	0.040527
1268.0	0.651049	-2.332251	7.38357	2.417598	1.995049	-6.393264	-0.44873	-0.525146	0.057129
1269.0	-0.209266	3.510045	8.039336	0.171643	1.483851	-5.082003	-0.441162	-0.55127	0.041748
1270.0	-1.797012	4.253889	6.84531	-3.695019	0.906635	-3.573248	-0.442139	-0.577393	0.01709
1271.0	-1.931645	5.493651	7.104958	-5.243146	-0.857205	-2.920148	-0.441162	-0.596924	-0.009766
1272.0	1.956042	9.304061	11.048349	-7.422685	-1.93923	-2.229842	-0.449219	-0.612061	-0.066406
1273.0	3.90065	7.163285	10.646671	-9.340328	-0.270075	-2.326116	-0.446777	-0.620605	-0.12793
1274.0	4.614442	4.29771	10.773712	-6.404794	0.47856	-2.182293	-0.437744	-0.624756	-0.171143
1275.0	3.756499	7.507491	11.815461	-3.625769	1.215299	-2.056644	-0.434814	-0.644287	-0.214111
1276.0	3.567112	9.989901	11.949435	-3.756447	1.338911	-1.533236	-0.420166	-0.631104	-0.262207
1277.0	3.105818	11.119266	11.174509	-4.85164	1.187361	-0.996742	-0.409424	-0.628662	-0.310059
1278.0	3.053636	10.507954	10.291802	-5.106674	1.284516	-1.584754	-0.390137	-0.619629	-0.369629
1279.0	2.938257	10.400172	9.709983	-4.45476	1.343426	-1.638094	-0.357666	-0.612793	-0.413086
1280.0	2.539341	11.144298	9.036171	-3.8812	1.309691	-1.676086	-0.332031	-0.601807	-0.440674
1281.0	1.860327	11.469767	8.289281	-3.750855	1.037615	-1.644158	-0.302002	-0.590576	-0.470459
1282.0	2.271453	11.885447	7.867872	-3.706355	0.750254	-1.774605	-0.262939	-0.585938	-0.491211
1283.0	3.18566	12.594011	7.646905	-3.571143	0.487375	-2.015286	-0.230225	-0.585693	-0.509521
1284.0	5.911444	13.894505	8.243192	-3.551119	0.281241	-1.985263	-0.189209	-0.578857	-0.520996
1285.0	10.661011	15.633612	9.530363	-3.984597	0.331409	-1.705719	-0.163086	-0.574219	-0.537109
1286.0	13.427065	16.025387	9.576414	-4.401017	0.753467	-1.799926	-0.12207	-0.565186	-0.551025
1287.0	13.186952	14.270256	7.736796	-4.325799	1.360246	-1.875272	-0.087402	-0.562744	-0.560303
1288.0	11.796853	11.54896	5.089279	-4.020487	1.636758	-1.928255	-0.063721	-0.553711	-0.56958
1289.0	12.770714	9.918015	3.027411	-3.370575	1.605035	-2.097068	-0.037598	-0.553711	-0.574219
1290.0	14.875392	9.996357	1.230296	-2.320411	1.655931	-2.17687	-0.017822	-0.555664	-0.571777
1291.0	15.70319	9.387743	-1.081665	-1.519961	1.871528	-1.884297	0.002197	-0.566406	-0.571533
1292.0	15.256047	8.676524	-3.414821	-1.138952	1.951539	-1.737202	0.026611	-0.572754	-0.571533
1293.0	12.841009	6.262514	-5.698209	-0.533183	2.161852	-2.056612	0.046631	-0.585938	-0.564453
1294.0	12.951035	6.190426	-6.139876	0.634308	1.841527	-1.606762	0.056152	-0.601074	-0.552734
1295.0	14.243412	8.817104	-5.458494	1.064143	1.266164	-0.885262	0.063477	-0.616455	-0.543457
1296.0	14.529922	10.722042	-5.020657	0.487462	0.768808	-0.835126	0.07251	-0.627197	-0.540771
1297.0	14.4265	10.303992	-4.741137	-0.396445	0.130635	-0.809177	0.077393	-0.635986	-0.540771
1298.0	14.455232	9.535672	-4.15327	-1.021555	-0.529985	-0.387934	0.072754	-0.631592	-0.542969
1299.0	2.418302	14.770412	2.338433	-1.109715	-0.319101	-0.513338	0.081299	-0.627197	-0.547852
1300.0	0.777166	8.480681	16.127995	-3.828749	-2.168159	-0.601228	0.085938	-0.585449	-0.594238
1301.0	-17.49179	-4.498588	16.42883	-11.713724	-4.257297	-4.486318	0.084717	-0.506836	-0.659424
1302.0	15.737349	-22.927939	0.653621	-7.794748	-3.48133	-5.758339	0.08667	-0.502441	-0.670898
1303.0	16.539621	-14.743514	5.093654	9.30732	-0.275884	-1.123075	0.094971	-0.592041	-0.589355
1304.0	9.438844	4.314364	6.308464	14.853275	0.750749	0.730515	0.088379	-0.69043	-0.496338
1305.0	14.711543	18.602821	9.600496	9.218199	2.34613	5.10122	0.062256	-0.736572	-0.445313
1306.0	-0.132981	9.418915	5.966238	2.426475	2.297316	2.707021	0.067383	-0.751953	-0.419922
1307.0	4.268399	5.681832	7.225406	-1.100805	-3.481213	-2.366112	0.060303	-0.743164	-0.445068
1308.0	7.512289	4.691728	6.157534	-5.817838	-5.954365	-1.065019	0.032715	-0.712646	-0.500488
1309.0	14.818034	3.202207	11.00679	-8.366511	-2.998338	0.530995	0.026611	-0.67334	-0.549072
1310.0	7.681139	-10.635008	4.323522	-2.802256	-1.427908	-0.20047	0.020508	-0.684326	-0.537354
1311.0	9.619103	-2.873708	6.468323	5.216959	-0.639427	-0.495565	0.020508	-0.728027	-0.48877
1312.0	9.84451	7.177157	9.478458	5.717073	-0.491021	0.135019	0.015137	-0.758789	-0.456299
