Acquisition frequency: 100 Hz
PacketCounter	Acc_X	Acc_Y	Acc_Z	Gyr_X	Gyr_Y	Gyr_Z	Mag_X	Mag_Y	Mag_Z
0.0	9.607061	-0.370326	2.895468	0.032974	0.060054	-0.009986	-0.492676	0.129395	-0.662109
1.0	9.543864	-0.37432	2.947444	0.031284	0.057203	-0.013229	-0.488525	0.138428	-0.655518
2.0	9.575446	-0.365005	2.958999	0.028913	0.048818	-0.007581	-0.490723	0.13623	-0.662354
3.0	9.604255	-0.322013	2.945424	0.024446	0.056085	-0.009961	-0.48584	0.131836	-0.659912
4.0	9.578763	-0.383977	2.962277	0.02113	0.054977	-0.013638	-0.483643	0.131836	-0.662354
5.0	9.564299	-0.33756	2.982005	0.013636	0.053508	-0.009033	-0.483643	0.131836	-0.666992
6.0	9.554494	-0.356539	2.960579	0.016349	0.054122	-0.011015	-0.483643	0.134033	-0.662354
7.0	9.530877	-0.376123	3.010801	0.012265	0.048229	-0.009169	-0.488037	0.129639	-0.662109
8.0	9.547897	-0.365412	3.002431	0.015291	0.046415	-0.008038	-0.488281	0.131836	-0.669189
9.0	9.538418	-0.384439	2.980073	0.013845	0.041875	-0.01154	-0.483398	0.127441	-0.659668
10.0	9.561958	-0.395905	2.964495	0.015908	0.052135	-0.009939	-0.490479	0.133789	-0.657715
11.0	9.577097	-0.427707	2.923184	0.021151	0.059654	-0.010832	-0.481445	0.134033	-0.657715
12.0	9.562309	-0.381168	2.943709	0.024333	0.066908	-0.011084	-0.483643	0.131836	-0.659912
13.0	9.573404	-0.424288	2.935753	0.025298	0.064833	-0.00931	-0.483887	0.134033	-0.669434
14.0	9.583458	-0.390783	2.936431	0.02506	0.066524	-0.009055	-0.479248	0.131836	-0.669189
15.0	9.555051	-0.419156	2.928968	0.027655	0.0627	-0.006838	-0.479248	0.13623	-0.662354
16.0	9.513752	-0.402752	2.935358	0.031145	0.057536	-0.006212	-0.490479	0.134033	-0.659912
17.0	9.567771	-0.375332	2.993612	0.033506	0.055389	-0.003737	-0.481445	0.134033	-0.664795
18.0	9.537203	-0.37255	3.051321	0.029383	0.054861	-0.002465	-0.48584	0.131836	-0.666992
19.0	9.521044	-0.369498	3.036978	0.027788	0.051244	-0.00234	-0.483643	0.131836	-0.664551
20.0	9.590684	-0.418807	3.014308	0.021342	0.047495	-0.002978	-0.476807	0.129639	-0.664551
21.0	9.640803	-0.400474	3.012832	0.019303	0.047796	-0.012708	-0.481445	0.134033	-0.664795
22.0	9.676488	-0.379436	2.991692	0.016409	0.044059	-0.020278	-0.481445	0.131836	-0.669189
23.0	9.695344	-0.321844	2.925095	0.012329	0.034081	-0.031599	-0.490234	0.129395	-0.659912
24.0	9.674766	-0.248509	2.858512	0.004974	0.037607	-0.041591	-0.479248	0.131836	-0.673828
25.0	9.628999	-0.161628	2.812159	-0.006736	0.042274	-0.050063	-0.479248	0.13623	-0.669434
26.0	9.577517	-0.13167	2.856496	-0.023048	0.053825	-0.0436	-0.476807	0.129639	-0.669189
27.0	9.566718	-0.071842	2.843872	-0.040987	0.063064	-0.050752	-0.48584	0.131836	-0.669189
28.0	9.542287	-0.089723	2.895321	-0.068602	0.07072	-0.045718	-0.479492	0.138428	-0.660156
29.0	9.58908	-0.158716	2.919955	-0.087035	0.072752	-0.044236	-0.481445	0.134033	-0.666992
30.0	9.577709	-0.222927	2.957633	-0.103241	0.07414	-0.047017	-0.479248	0.131836	-0.664551
31.0	9.587356	-0.31174	3.007905	-0.107437	0.079027	-0.046329	-0.48584	0.129639	-0.662109
32.0	9.536249	-0.361551	3.045854	-0.109104	0.076202	-0.04959	-0.481445	0.134033	-0.669434
33.0	9.581576	-0.476608	3.127381	-0.109318	0.067919	-0.051589	-0.476807	0.131836	-0.664551
34.0	9.588967	-0.531112	3.151318	-0.09624	0.069197	-0.053316	-0.479248	0.13623	-0.666992
35.0	9.572153	-0.6523	3.277041	-0.082065	0.062213	-0.049336	-0.481689	0.13623	-0.671631
36.0	9.510993	-0.690893	3.351328	-0.061938	0.037835	-0.044497	-0.477051	0.134033	-0.666992
37.0	9.510556	-0.811168	3.40145	-0.040342	0.0126	-0.035585	-0.477051	0.13623	-0.664795
38.0	9.510564	-0.809234	3.401888	-0.013769	0.001214	-0.024428	-0.479248	0.131836	-0.666992
39.0	9.432863	-0.854756	3.393855	0.016918	0.014893	-0.014159	-0.481445	0.134033	-0.664795
40.0	9.389131	-0.807534	3.46259	0.051181	0.027243	0.002931	-0.479248	0.134033	-0.671631
41.0	9.316222	-0.756588	3.493074	0.082225	0.033102	0.016859	-0.481689	0.138428	-0.667236
42.0	9.286952	-0.708556	3.491761	0.110897	0.036533	0.025487	-0.474854	0.13623	-0.662354
43.0	9.276102	-0.650849	3.478208	0.131974	0.03923	0.035278	-0.479004	0.129639	-0.671387
44.0	9.260131	-0.647668	3.463149	0.153283	0.040271	0.044811	-0.481445	0.134033	-0.666992
45.0	9.251574	-0.623933	3.475294	0.173978	0.046232	0.048115	-0.479248	0.131836	-0.664551
46.0	9.284521	-0.568999	3.429921	0.191032	0.039025	0.04655	-0.479248	0.131836	-0.671631
47.0	9.29573	-0.532662	3.337954	0.200674	0.044061	0.050921	-0.481689	0.13623	-0.664795
48.0	9.359696	-0.515017	3.357626	0.206027	0.050812	0.046416	-0.476807	0.127441	-0.671387
49.0	9.355363	-0.478716	3.338002	0.210817	0.051084	0.047195	-0.474609	0.129639	-0.666748
50.0	9.423633	-0.449432	3.32554	0.208893	0.049992	0.04418	-0.474609	0.129639	-0.671387
51.0	9.463543	-0.416829	3.273219	0.205444	0.044507	0.044675	-0.474365	0.125244	-0.673584
52.0	9.527754	-0.398557	3.292381	0.20022	0.042965	0.034583	-0.479004	0.129639	-0.669189
53.0	9.521735	-0.32836	3.245519	0.192609	0.03764	0.032959	-0.472168	0.125244	-0.668945
54.0	9.485339	-0.299651	3.216544	0.176718	0.03192	0.030456	-0.474121	0.12085	-0.668945
55.0	9.488798	-0.286229	3.187232	0.164571	0.023986	0.031184	-0.479004	0.125244	-0.673584
56.0	9.408739	-0.254312	3.189026	0.150466	0.025582	0.027683	-0.47876	0.12085	-0.671143
57.0	9.42211	-0.253798	3.21147	0.132731	0.023231	0.024955	-0.474365	0.123047	-0.678223
58.0	9.367581	-0.235828	3.193392	0.116676	0.018404	0.026085	-0.469727	0.12085	-0.675781
59.0	9.387995	-0.25878	3.208158	0.102257	0.007145	0.024951	-0.469727	0.12085	-0.673584
60.0	9.425142	-0.239561	3.183502	0.082439	0.005183	0.019473	-0.474121	0.12085	-0.678223
61.0	9.452542	-0.285733	3.190843	0.069172	0.000217	0.022035	-0.476563	0.12085	-0.673584
62.0	9.480892	-0.28859	3.230636	0.059503	-0.000114	0.020436	-0.476318	0.118652	-0.671143
63.0	9.476514	-0.299237	3.26283	0.049211	-0.010854	0.018077	-0.480957	0.12085	-0.668945
64.0	9.458319	-0.308575	3.274091	0.0371	-0.02356	0.016114	-0.474365	0.123047	-0.668945
65.0	9.474606	-0.387276	3.284974	0.029776	-0.030703	0.014308	-0.474121	0.12085	-0.675781
66.0	9.418515	-0.458877	3.287905	0.033263	-0.031179	0.017774	-0.478516	0.116455	-0.670898
67.0	9.398761	-0.511937	3.355837	0.039995	-0.049183	0.013997	-0.476563	0.12085	-0.668945
68.0	9.355505	-0.55131	3.350397	0.055286	-0.059804	0.019718	-0.474121	0.12085	-0.671143
69.0	9.342207	-0.593331	3.292655	0.062117	-0.063317	0.01377	-0.476318	0.114258	-0.675537
70.0	9.401329	-0.642251	3.242528	0.072684	-0.059621	0.016516	-0.471924	0.118652	-0.671143
71.0	9.406353	-0.674851	3.172701	0.090382	-0.05247	0.02192	-0.476318	0.116455	-0.670898
72.0	9.405645	-0.717345	3.227471	0.108069	-0.049994	0.024588	-0.474121	0.12085	-0.671143
73.0	9.376569	-0.756631	3.242402	0.127444	-0.064691	0.026317	-0.476318	0.118652	-0.67334
74.0	9.377736	-0.798604	3.203822	0.145681	-0.091071	0.025051	-0.476318	0.118652	-0.675781
75.0	9.343424	-0.814006	3.221637	0.17865	-0.109174	0.031349	-0.480713	0.114014	-0.66626
76.0	9.363774	-0.845085	3.257769	0.203578	-0.139382	0.034515	-0.474121	0.116455	-0.668701
77.0	9.352606	-0.884232	3.193942	0.236676	-0.158351	0.037183	-0.48291	0.114014	-0.663818
78.0	9.336146	-0.85474	3.258434	0.263605	-0.173376	0.04445	-0.480713	0.116211	-0.66626
79.0	9.349493	-0.828661	3.269869	0.289811	-0.18327	0.052359	-0.485107	0.114014	-0.661621
80.0	9.32132	-0.75482	3.253119	0.314899	-0.195396	0.062716	-0.478271	0.111816	-0.66626
81.0	9.285512	-0.702768	3.209318	0.338537	-0.212092	0.069672	-0.478516	0.116455	-0.668701
82.0	9.297391	-0.647052	3.098652	0.353763	-0.223415	0.082095	-0.482666	0.109619	-0.661377
83.0	9.41633	-0.547664	3.031559	0.362651	-0.208084	0.08948	-0.489258	0.105225	-0.666016
84.0	9.514726	-0.499692	3.039032	0.365879	-0.181526	0.099578	-0.487061	0.105225	-0.666016
85.0	9.576805	-0.427974	3.014933	0.369513	-0.157701	0.10583	-0.489502	0.107422	-0.658936
86.0	9.564786	-0.390642	3.045739	0.361687	-0.157006	0.110641	-0.486816	0.098633	-0.656494
87.0	9.633063	-0.379939	3.16745	0.35769	-0.169481	0.113215	-0.491699	0.105225	-0.668213
88.0	9.607784	-0.419168	3.173134	0.356404	-0.197369	0.116096	-0.493896	0.105225	-0.666016
89.0	9.61752	-0.332834	3.123429	0.353237	-0.227033	0.109121	-0.493408	0.094238	-0.660889
90.0	9.610369	-0.291883	3.021938	0.347037	-0.233292	0.115235	-0.500244	0.096436	-0.66333
91.0	9.677912	-0.21407	2.956568	0.337901	-0.206428	0.108456	-0.493408	0.096436	-0.658691
92.0	9.728708	-0.17642	2.935807	0.31517	-0.164779	0.109588	-0.493408	0.096436	-0.66333
93.0	9.782011	-0.130755	2.884267	0.304181	-0.144767	0.100668	-0.497803	0.092041	-0.658447
94.0	9.852482	-0.039762	2.883712	0.284342	-0.109131	0.096934	-0.497803	0.092041	-0.663086
95.0	9.852483	-0.009908	2.846205	0.261007	-0.07856	0.090599	-0.500244	0.094238	-0.65625
96.0	9.902761	-0.004137	2.863817	0.234797	-0.058082	0.08115	-0.497559	0.085449	-0.658203
97.0	9.889195	-0.043294	2.777317	0.212782	-0.03769	0.073728	-0.5	0.087646	-0.651367
98.0	9.874984	-0.04429	2.755132	0.193655	-0.023785	0.064921	-0.5	0.092041	-0.658447
99.0	9.863017	-0.114449	2.700572	0.1801	-0.009942	0.058817	-0.502441	0.092041	-0.660889
100.0	9.820351	-0.145318	2.672117	0.166197	0.017234	0.044369	-0.497803	0.089844	-0.658447
101.0	9.777231	-0.137142	2.707643	0.154979	0.023782	0.041652	-0.504395	0.087646	-0.660645
102.0	9.74651	-0.136369	2.671588	0.14962	0.021578	0.031797	-0.497559	0.085449	-0.658203
103.0	9.78832	-0.143554	2.640997	0.138314	0.028637	0.02567	-0.497803	0.092041	-0.658447
104.0	9.753969	-0.149673	2.639785	0.129405	0.044328	0.020352	-0.5	0.087646	-0.658203
105.0	9.670923	-0.12379	2.677483	0.122176	0.051886	0.012845	-0.502197	0.089844	-0.663086
106.0	9.639592	-0.12158	2.643875	0.114455	0.046901	0.008284	-0.499756	0.085449	-0.658203
107.0	9.586679	-0.134133	2.657637	0.104498	0.043323	0.00457	-0.497803	0.089844	-0.663086
108.0	9.513113	-0.162431	2.594455	0.091564	0.041411	-0.00034	-0.497559	0.083252	-0.653564
109.0	9.521176	-0.136601	2.622272	0.088249	0.040015	-0.003902	-0.497559	0.083252	-0.6604
110.0	9.537669	-0.203591	2.61287	0.072577	0.04338	-0.011058	-0.497559	0.087646	-0.658203
111.0	9.560805	-0.21642	2.598418	0.069059	0.043652	-0.014461	-0.493164	0.089844	-0.653809
112.0	9.535623	-0.197284	2.620807	0.065901	0.029966	-0.016398	-0.493164	0.085449	-0.662842
113.0	9.552742	-0.263509	2.609592	0.056345	0.011738	-0.025603	-0.495361	0.087646	-0.660645
114.0	9.561891	-0.275655	2.572625	0.063893	0.006727	-0.022674	-0.49292	0.081055	-0.657959
115.0	9.591804	-0.271721	2.611531	0.059032	-0.004128	-0.021562	-0.499756	0.085449	-0.658203
116.0	9.57125	-0.244944	2.595968	0.055261	-0.012788	-0.023016	-0.497559	0.083252	-0.6604
117.0	9.583356	-0.248285	2.647032	0.050935	-0.028171	-0.025766	-0.497314	0.081055	-0.65332
118.0	9.547563	-0.259337	2.672516	0.044046	-0.039292	-0.02396	-0.499756	0.083252	-0.658203
119.0	9.53949	-0.239865	2.706403	0.036212	-0.048482	-0.024039	-0.499756	0.083252	-0.658203
120.0	9.537755	-0.283471	2.673637	0.027755	-0.052636	-0.023653	-0.497314	0.081055	-0.655762
121.0	9.556714	-0.310788	2.717356	0.023918	-0.049541	-0.023341	-0.497559	0.083252	-0.658203
122.0	9.588077	-0.307891	2.751322	0.018885	-0.047476	-0.016895	-0.497314	0.081055	-0.657959
123.0	9.528551	-0.304298	2.794189	0.014835	-0.048658	-0.022488	-0.497314	0.078857	-0.657959
124.0	9.566921	-0.28726	2.759811	0.002367	-0.070391	-0.021567	-0.50415	0.083008	-0.658203
125.0	9.571686	-0.355089	2.720645	-0.005751	-0.072099	-0.025784	-0.502197	0.085449	-0.660645
126.0	9.625367	-0.377395	2.64282	-0.008511	-0.066809	-0.028043	-0.501953	0.081055	-0.662598
127.0	9.66632	-0.390694	2.63744	-0.010181	-0.053383	-0.026813	-0.501709	0.076416	-0.660156
128.0	9.719308	-0.373169	2.623175	-0.008863	-0.042279	-0.031349	-0.499756	0.081055	-0.655762
129.0	9.732723	-0.379587	2.547918	-0.013641	-0.031324	-0.026851	-0.50415	0.083008	-0.658203
130.0	9.790993	-0.385329	2.531487	-0.016908	-0.016895	-0.033103	-0.501953	0.083252	-0.6604
131.0	9.773227	-0.390392	2.54435	-0.021388	-0.013422	-0.024449	-0.506592	0.083008	-0.655762
132.0	9.776398	-0.418831	2.572355	-0.0233	-0.009562	-0.02822	-0.497559	0.083252	-0.653564
133.0	9.749872	-0.370381	2.560523	-0.024284	-0.018206	-0.028305	-0.504395	0.089844	-0.651367
134.0	9.731832	-0.413409	2.63589	-0.023538	-0.018455	-0.026266	-0.50415	0.078613	-0.651123
135.0	9.699443	-0.381497	2.566397	-0.026958	-0.018728	-0.026251	-0.497559	0.083252	-0.653564
136.0	9.672639	-0.371131	2.61702	-0.02781	-0.017309	-0.024731	-0.50415	0.078613	-0.655762
137.0	9.633879	-0.354015	2.614891	-0.030482	-0.017836	-0.022675	-0.504395	0.085205	-0.656006
138.0	9.616125	-0.320751	2.689396	-0.036563	-0.013352	-0.0215	-0.50415	0.078613	-0.651123
139.0	9.619676	-0.273001	2.716077	-0.041372	-0.013631	-0.022159	-0.501953	0.083008	-0.653564
140.0	9.589928	-0.233132	2.737889	-0.05003	-0.016124	-0.021593	-0.502197	0.089844	-0.658447
141.0	9.572246	-0.239708	2.750513	-0.052497	-0.018961	-0.026662	-0.504395	0.085205	-0.653564
142.0	9.578962	-0.261836	2.743634	-0.062451	-0.027899	-0.029442	-0.50415	0.078613	-0.6604
143.0	9.591982	-0.269121	2.669165	-0.073143	-0.025998	-0.036043	-0.508789	0.085205	-0.656006
144.0	9.610771	-0.299186	2.590979	-0.075911	-0.010127	-0.040058	-0.497559	0.085449	-0.662842
145.0	9.635209	-0.273621	2.63325	-0.081679	0.00212	-0.044369	-0.504395	0.087646	-0.653564
146.0	9.641361	-0.294539	2.628503	-0.087571	-0.000969	-0.049428	-0.506348	0.078613	-0.655762
147.0	9.686986	-0.292631	2.56136	-0.083194	0.002686	-0.048453	-0.502197	0.087646	-0.653564
148.0	9.708325	-0.313081	2.575614	-0.08235	-0.003989	-0.049104	-0.50415	0.083008	-0.653564
149.0	9.696427	-0.341296	2.584897	-0.081394	-0.000614	-0.048108	-0.506836	0.0896	-0.64917
150.0	9.68762	-0.323249	2.622162	-0.080432	-0.013113	-0.044486	-0.5	0.089844	-0.64917
151.0	9.694194	-0.344207	2.615989	-0.074237	-0.012807	-0.043157	-0.502197	0.085205	-0.648926
152.0	9.649321	-0.380792	2.619377	-0.074131	-0.013326	-0.039757	-0.50415	0.080811	-0.651123
153.0	9.634733	-0.379032	2.598498	-0.068144	-0.016642	-0.037394	-0.506592	0.087402	-0.653564
154.0	9.61717	-0.385018	2.610924	-0.065791	-0.018565	-0.03485	-0.501953	0.080811	-0.651123
155.0	9.608502	-0.368125	2.64764	-0.057988	-0.008764	-0.027772	-0.504395	0.085205	-0.653564
156.0	9.572694	-0.38254	2.674762	-0.052947	-0.02073	-0.025556	-0.506592	0.087402	-0.653564
157.0	9.582538	-0.358413	2.695808	-0.054531	-0.034926	-0.023477	-0.506592	0.083008	-0.651123
158.0	9.574612	-0.380901	2.668122	-0.044147	-0.039917	-0.019267	-0.499756	0.083252	-0.651123
159.0	9.566634	-0.365024	2.702423	-0.039858	-0.040447	-0.013846	-0.508789	0.085205	-0.648926
160.0	9.564934	-0.411222	2.669514	-0.033107	-0.044048	-0.009455	-0.502197	0.085205	-0.651367
161.0	9.596256	-0.37257	2.64111	-0.029355	-0.045982	-0.006242	-0.508789	0.085205	-0.653564
162.0	9.582209	-0.334308	2.680017	-0.018229	-0.040672	-0.00172	-0.506836	0.091797	-0.64917
163.0	9.58335	-0.334872	2.675864	-0.015532	-0.044829	0.004051	-0.506592	0.085205	-0.648926
164.0	9.59081	-0.32021	2.728597	-0.006856	-0.0529	0.005196	-0.502197	0.087646	-0.648926
165.0	9.577161	-0.320994	2.70392	-0.000631	-0.063189	0.008226	-0.502197	0.087646	-0.648926
166.0	9.594177	-0.321807	2.716545	0.002592	-0.071806	0.010082	-0.508789	0.083008	-0.646484
167.0	9.616992	-0.30725	2.661688	0.006133	-0.072064	0.013457	-0.506592	0.087402	-0.648926
168.0	9.628026	-0.285227	2.678612	0.00913	-0.073719	0.014624	-0.506592	0.085205	-0.651123
169.0	9.645195	-0.286408	2.69068	0.013092	-0.072031	0.016801	-0.509033	0.0896	-0.64917
170.0	9.614149	-0.2566	2.7413	0.014871	-0.075934	0.010154	-0.509033	0.0896	-0.64917
171.0	9.618989	-0.249433	2.700324	0.010478	-0.079536	0.009172	-0.510986	0.085205	-0.648926
172.0	9.639108	-0.242349	2.678249	0.011021	-0.078123	0.011375	-0.508789	0.085205	-0.651123
173.0	9.695075	-0.219483	2.627616	0.011716	-0.068399	0.004722	-0.513428	0.0896	-0.651367
174.0	9.681886	-0.180973	2.664853	0.007299	-0.056164	0.001179	-0.513428	0.085205	-0.646484
175.0	9.722743	-0.196139	2.659177	0.004712	-0.052549	-0.001182	-0.509033	0.087402	-0.646729
176.0	9.714773	-0.21916	2.63054	-0.000959	-0.046146	-0.001132	-0.51123	0.087402	-0.651367
177.0	9.75181	-0.203424	2.597424	-0.002372	-0.035587	-0.00351	-0.509277	0.093994	-0.646973
178.0	9.75861	-0.226338	2.589831	-0.000867	-0.020295	-0.002011	-0.513428	0.0896	-0.64209
179.0	9.762521	-0.257149	2.616838	-0.003745	-0.013895	-0.000626	-0.509033	0.091797	-0.639893
180.0	9.723435	-0.241829	2.61611	-0.009753	-0.010564	-0.002946	-0.510986	0.085205	-0.644287
181.0	9.699633	-0.226326	2.634704	-0.007522	-0.00668	-0.004675	-0.513428	0.085205	-0.648926
182.0	9.639343	-0.264982	2.619873	-0.010928	-0.01751	-0.002928	-0.506836	0.091797	-0.644531
183.0	9.68529	-0.303341	2.612786	-0.013089	-0.017238	-0.005626	-0.51123	0.0896	-0.646729
184.0	9.689129	-0.333992	2.64018	-0.007311	-0.008347	-0.004846	-0.510986	0.085205	-0.639648
185.0	9.649797	-0.318568	2.640409	-0.008035	0.003057	-0.001614	-0.513428	0.0896	-0.64209
186.0	9.689084	-0.333852	2.640364	-0.003013	0.006942	-0.002013	-0.509033	0.087402	-0.646729
187.0	9.695602	-0.318268	2.698539	0.006409	0.009164	-0.000587	-0.51123	0.087402	-0.644287
188.0	9.667954	-0.271953	2.689803	0.004187	4e-06	0.001995	-0.51123	0.087402	-0.644287
189.0	9.637165	-0.271965	2.652	0.005235	0.002218	-0.000569	-0.513672	0.091797	-0.646729
190.0	9.6278	-0.295061	2.628379	0.008792	0.001949	0.002794	-0.513428	0.087402	-0.644287
191.0	9.603663	-0.279829	2.648197	0.00634	0.00501	0.003839	-0.513428	0.0896	-0.646729
192.0	9.597471	-0.257007	2.653485	0.011505	0.003075	0.007696	-0.506836	0.091797	-0.64917
193.0	9.573495	-0.241978	2.672705	0.010204	-0.008603	0.005169	-0.51123	0.0896	-0.637451
194.0	9.583331	-0.296324	2.695445	0.008186	-0.014154	0.006727	-0.51123	0.0896	-0.646729
195.0	9.547902	-0.312348	2.722811	0.013019	-0.024429	0.009065	-0.51123	0.0896	-0.646729
196.0	9.590726	-0.320392	2.685719	0.010114	-0.039713	0.006901	-0.517822	0.085205	-0.644287
197.0	9.63624	-0.320633	2.614485	0.013109	-0.036099	0.007203	-0.510986	0.085205	-0.648926
198.0	9.666848	-0.282057	2.587303	0.011348	-0.023336	0.001596	-0.509033	0.087402	-0.64209
199.0	9.682824	-0.281598	2.604157	0.015048	-0.020576	-0.003044	-0.515625	0.087402	-0.644287
200.0	9.686734	-0.234312	2.63067	0.017571	-0.02476	-0.007661	-0.51123	0.0896	-0.644531
201.0	9.693498	-0.255967	2.623327	0.015693	-0.027281	-0.0141	-0.506836	0.0896	-0.644531
202.0	9.693265	-0.215631	2.558276	0.009903	-0.030893	-0.015726	-0.513428	0.0896	-0.646729
203.0	9.757506	-0.244537	2.535141	0.010114	-0.032557	-0.015897	-0.515381	0.083008	-0.63501
204.0	9.742706	-0.242979	2.513946	0.005753	-0.014493	-0.013318	-0.508789	0.085205	-0.644287
205.0	9.736891	-0.218587	2.517965	0.007827	-0.00309	-0.008768	-0.51123	0.0896	-0.644531
206.0	9.707241	-0.256343	2.542013	0.005387	-0.005303	-0.006863	-0.513672	0.093994	-0.644531
207.0	9.665475	-0.248005	2.575735	0.003149	-0.003911	-0.005987	-0.518066	0.0896	-0.64209
208.0	9.640851	-0.270598	2.532437	0.002391	-0.008914	-0.00716	-0.511475	0.091797	-0.64209
209.0	9.625559	-0.270275	2.513014	-0.001184	-0.001669	-0.000833	-0.509033	0.091797	-0.64209
210.0	9.634063	-0.285542	2.47477	-0.003572	0.005537	-0.004216	-0.517822	0.083008	-0.641846
211.0	9.631349	-0.293031	2.509268	0.000951	0.013881	-0.000714	-0.520508	0.093994	-0.644531
212.0	9.636742	-0.239048	2.505802	-0.000731	0.016671	0.002365	-0.513428	0.087402	-0.639648
213.0	9.648398	-0.285851	2.497898	-0.001857	0.020858	0.007645	-0.517822	0.087402	-0.63501
214.0	9.663346	-0.286675	2.518561	-0.002476	0.015313	0.009873	-0.513672	0.091797	-0.639893
215.0	9.650842	-0.241365	2.529579	-0.003447	0.011977	0.008869	-0.517822	0.087402	-0.646729
216.0	9.635146	-0.242462	2.511605	-0.008468	0.008091	0.009276	-0.513428	0.0896	-0.644531
217.0	9.628923	-0.220348	2.516975	-0.012019	0.003083	0.006775	-0.513672	0.093994	-0.646973
218.0	9.593134	-0.236708	2.545892	-0.006898	-0.009976	0.005371	-0.51123	0.0896	-0.646729
219.0	9.587515	-0.214247	2.549029	-0.011829	-0.025533	0.003921	-0.515869	0.0896	-0.646729
220.0	9.627645	-0.229928	2.545708	-0.005673	-0.031105	-0.00091	-0.511475	0.093994	-0.644531
221.0	9.603593	-0.253419	2.500108	-0.014966	-0.028596	0.000222	-0.509033	0.091797	-0.644531
222.0	9.677069	-0.260987	2.501026	-0.013852	-0.027506	-0.005917	-0.513428	0.0896	-0.64917
223.0	9.641885	-0.276348	2.527875	-0.014489	-0.022504	-0.005405	-0.518066	0.0896	-0.64209
224.0	9.684341	-0.283773	2.491468	-0.01449	-0.022502	-0.005405	-0.513672	0.093994	-0.646973
225.0	9.70402	-0.314471	2.536642	-0.01609	-0.026108	-0.005041	-0.518066	0.0896	-0.64209
226.0	9.740387	-0.298855	2.50516	-0.010936	-0.017495	-0.002905	-0.51123	0.087402	-0.639648
227.0	9.75286	-0.344928	2.493992	-0.011301	-0.010012	-0.006988	-0.513428	0.0896	-0.635254
228.0	9.780434	-0.313553	2.502106	-0.011301	-0.010011	-0.006989	-0.518311	0.093994	-0.637695
229.0	9.792676	-0.359337	2.491878	-0.012931	0.002197	-0.009187	-0.518311	0.096191	-0.646973
230.0	9.804462	-0.327898	2.482382	-0.007554	0.003869	-0.006367	-0.51123	0.0896	-0.64209
231.0	9.804263	-0.327677	2.483195	-0.010083	0.01332	-0.002597	-0.518066	0.091797	-0.635254
232.0	9.791978	-0.358705	2.494709	-0.008564	0.023321	-0.000241	-0.513672	0.091797	-0.64209
233.0	9.734027	-0.351504	2.512448	-0.002004	0.026662	0.003415	-0.518066	0.0896	-0.639893
234.0	9.733307	-0.351939	2.515176	-0.007248	0.029719	0.00314	-0.51123	0.091797	-0.637451
235.0	9.699063	-0.360303	2.514278	-0.003706	0.039999	0.004791	-0.522705	0.091797	-0.64209
236.0	9.646836	-0.376704	2.528211	-0.003556	0.034183	0.009043	-0.509033	0.087402	-0.63501
237.0	9.594679	-0.39301	2.541806	0.000565	0.033614	0.00406	-0.513672	0.091797	-0.637451
238.0	9.58532	-0.378221	2.583128	0.002323	0.026131	0.008804	-0.506836	0.093994	-0.639893
239.0	9.535924	-0.386834	2.562111	0.012181	0.019745	0.01073	-0.518311	0.096191	-0.642334
240.0	9.568834	-0.379751	2.567951	0.014011	0.011138	0.011904	-0.51123	0.0896	-0.639893
241.0	9.559062	-0.403716	2.545585	0.017978	0.018086	0.013213	-0.511475	0.096191	-0.637695
242.0	9.601358	-0.45076	2.575948	0.030739	0.026983	0.017308	-0.515625	0.087402	-0.644287
243.0	9.640023	-0.466811	2.578043	0.042823	0.024481	0.017508	-0.513428	0.0896	-0.646729
244.0	9.675987	-0.413304	2.613467	0.051621	0.021163	0.021151	-0.511475	0.093994	-0.642334
245.0	9.720856	-0.452131	2.610213	0.05959	0.017534	0.015791	-0.513428	0.0896	-0.644531
246.0	9.692839	-0.405894	2.602905	0.062378	0.017549	0.017118	-0.511475	0.091797	-0.64209
247.0	9.728328	-0.39037	2.575325	0.065247	0.011161	0.015736	-0.515625	0.087402	-0.644287
248.0	9.714994	-0.305183	2.524055	0.067551	0.013924	0.010429	-0.509033	0.0896	-0.646729
249.0	9.711081	-0.273849	2.497106	0.059859	0.020054	0.011177	-0.515869	0.093994	-0.637695
250.0	9.701006	-0.219335	2.475435	0.0549	0.025593	0.006282	-0.513428	0.0896	-0.644531
251.0	9.682212	-0.226029	2.493332	0.045329	0.039731	-0.001144	-0.51123	0.0896	-0.639893
252.0	9.659914	-0.202107	2.482644	0.039601	0.03144	0.00507	-0.517822	0.087402	-0.644287
253.0	9.559121	-0.224996	2.472487	0.032419	0.027816	0.002779	-0.515869	0.091797	-0.64209
254.0	9.576515	-0.216969	2.460227	0.023768	0.020046	0.004261	-0.508789	0.085205	-0.646484
255.0	9.55211	-0.278554	2.48194	0.015533	0.019486	0.00367	-0.513672	0.091797	-0.646729
256.0	9.587659	-0.263143	2.454469	0.013167	0.01614	0.002007	-0.511475	0.091797	-0.646729
257.0	9.614708	-0.309119	2.465546	0.011222	0.014731	-0.000859	-0.511475	0.091797	-0.644531
258.0	9.605575	-0.292907	2.505579	0.01248	0.020545	-0.004468	-0.513672	0.091797	-0.644531
259.0	9.620484	-0.292048	2.526302	0.003487	0.014971	-0.006223	-0.509033	0.0896	-0.644531
260.0	9.614205	-0.268087	2.531971	0.001971	0.004945	-0.008546	-0.515869	0.091797	-0.653809
261.0	9.608306	-0.321068	2.537251	-0.000519	-0.003148	-0.012738	-0.513672	0.091797	-0.637451
262.0	9.674464	-0.343354	2.484054	-0.000606	0.003266	-0.010043	-0.518066	0.091797	-0.644531
263.0	9.710284	-0.327303	2.455713	-0.001961	0.014419	-0.005486	-0.51123	0.0896	-0.64917
264.0	9.728488	-0.357565	2.505636	-0.00011	0.027522	-0.000799	-0.509033	0.0896	-0.637451
265.0	9.737133	-0.334381	2.531738	0.001419	0.021719	0.004143	-0.513672	0.091797	-0.644531
266.0	9.685321	-0.350443	2.543582	0.004768	0.012581	0.009423	-0.511475	0.093994	-0.644531
267.0	9.685099	-0.351408	2.544294	0.00554	0.001763	0.013205	-0.515869	0.091797	-0.64917
268.0	9.697199	-0.399014	2.534742	0.005125	-0.005452	0.015282	-0.511475	0.093994	-0.639893
269.0	9.636491	-0.362006	2.520287	0.009094	-0.003766	0.017447	-0.509033	0.0896	-0.64209
270.0	9.6966	-0.363674	2.471604	0.013696	-0.001811	0.018243	-0.510986	0.085205	-0.641846
271.0	9.741649	-0.326702	2.466982	0.019515	0.018258	0.024217	-0.511475	0.093994	-0.642334
272.0	9.738777	-0.297118	2.565039	0.01782	0.031619	0.025531	-0.51123	0.0896	-0.637451
273.0	9.729141	-0.283545	2.606409	0.012372	0.031073	0.026266	-0.515869	0.091797	-0.651367
274.0	9.728417	-0.285706	2.608876	0.006251	0.019093	0.023149	-0.509033	0.091797	-0.639893
275.0	9.718553	-0.233633	2.586528	0.001183	0.019872	0.015709	-0.506592	0.087402	-0.646729
276.0	9.702242	-0.274568	2.507255	-0.003715	0.015454	0.019517	-0.509033	0.091797	-0.64209
277.0	9.708126	-0.260574	2.566805	-0.003715	0.031291	0.016888	-0.509033	0.0896	-0.64209
278.0	9.658605	-0.270398	2.54644	-0.008826	0.033825	0.019983	-0.506836	0.094238	-0.651611
279.0	9.711852	-0.249747	2.506166	-0.016848	0.036881	0.018337	-0.51123	0.0896	-0.64209
280.0	9.695475	-0.329329	2.491488	-0.023899	0.043286	0.017686	-0.509033	0.0896	-0.637451
281.0	9.694735	-0.292637	2.557752	-0.025716	0.046631	0.017344	-0.511475	0.096191	-0.644775
282.0	9.663331	-0.333548	2.586483	-0.042185	0.045533	0.016122	-0.51123	0.0896	-0.644531
283.0	9.662222	-0.335954	2.590308	-0.03484	0.036325	0.013041	-0.511475	0.093994	-0.64917
284.0	9.639921	-0.392053	2.579666	-0.040958	0.034912	0.008161	-0.51123	0.091797	-0.639893
285.0	9.621004	-0.324436	2.596889	-0.035816	0.03299	0.012041	-0.506836	0.093994	-0.642334
286.0	9.592719	-0.357431	2.590802	-0.036239	0.03634	0.01237	-0.509277	0.093994	-0.64917
287.0	9.591715	-0.359687	2.594205	-0.04051	0.037479	0.013926	-0.515869	0.0896	-0.644531
288.0	9.62115	-0.362163	2.635712	-0.044996	0.035008	0.016515	-0.506836	0.0896	-0.64917
289.0	9.62309	-0.357177	2.60539	-0.045117	0.035551	0.013112	-0.509277	0.096191	-0.646973
290.0	9.622073	-0.359799	2.608784	-0.045423	0.038369	0.016845	-0.506836	0.0896	-0.646729
291.0	9.630345	-0.339279	2.635703	-0.042133	0.02861	0.01515	-0.511475	0.091797	-0.646729
292.0	9.620427	-0.36482	2.614151	-0.042802	0.022462	0.010408	-0.511475	0.091797	-0.644531
293.0	9.595649	-0.312756	2.572899	-0.039715	0.01966	0.008014	-0.511475	0.091797	-0.64209
294.0	9.604449	-0.291359	2.598052	-0.041876	0.009358	0.007029	-0.504883	0.096436	-0.644775
295.0	9.582924	-0.346994	2.584173	-0.040187	0.001267	0.004825	-0.509277	0.093994	-0.639893
296.0	9.592182	-0.325204	2.607676	-0.03989	-0.006824	0.001946	-0.50708	0.098633	-0.649414
297.0	9.57433	-0.334124	2.620808	-0.037875	-0.017128	0.002971	-0.504883	0.098633	-0.649414
298.0	9.574854	-0.335136	2.618764	-0.035121	-0.023006	-0.001799	-0.509521	0.100586	-0.640137
299.0	9.58444	-0.351272	2.577967	-0.029888	-0.026083	-0.001487	-0.51416	0.102783	-0.642578
300.0	9.630649	-0.313491	2.570378	-0.028924	-0.028024	0.000379	-0.504883	0.10083	-0.644775
301.0	9.62509	-0.368168	2.572704	-0.023676	-0.020526	-0.001022	-0.511719	0.098389	-0.646973
302.0	9.674215	-0.361066	2.594283	-0.018441	-0.023605	-0.000713	-0.513672	0.096191	-0.646973
303.0	9.665592	-0.384442	2.568023	-0.015775	-0.023065	-0.002772	-0.50708	0.098633	-0.646973
304.0	9.699516	-0.376859	2.570518	-0.010533	-0.020858	-0.003318	-0.513916	0.098389	-0.640137
305.0	9.68486	-0.376531	2.549334	-0.005626	-0.021722	-0.006242	-0.513916	0.098389	-0.642334
306.0	9.676534	-0.360641	2.58568	-0.002414	-0.019783	-0.006095	-0.50708	0.096436	-0.651611
307.0	9.655963	-0.336731	2.569167	0.005481	-0.02761	-0.006996	-0.509277	0.096191	-0.646973
308.0	9.686744	-0.374349	2.542492	0.008573	-0.025127	-0.01025	-0.511475	0.096191	-0.644775
309.0	9.681354	-0.350104	2.545256	0.008489	-0.018711	-0.007533	-0.511719	0.102783	-0.640381
310.0	9.694159	-0.356913	2.596344	0.01331	-0.013161	-0.007742	-0.50708	0.098389	-0.637695
311.0	9.673599	-0.371285	2.642932	0.016517	-0.016507	-0.006743	-0.511475	0.096191	-0.642334
312.0	9.674126	-0.370089	2.641169	0.017782	-0.021249	-0.00862	-0.509277	0.098633	-0.644775
313.0	9.671601	-0.337649	2.610464	0.021293	-0.022109	-0.012217	-0.511719	0.103027	-0.64502
314.0	9.654079	-0.343721	2.623014	0.021629	-0.019036	-0.009842	-0.513916	0.098389	-0.646973
315.0	9.663371	-0.357615	2.583114	0.015424	-0.014015	-0.01201	-0.504883	0.10083	-0.644775
316.0	9.636727	-0.348287	2.635176	0.021006	-0.003451	-0.011045	-0.504883	0.096436	-0.644775
317.0	9.633649	-0.31561	2.606395	0.017676	0.000437	-0.015445	-0.509277	0.093994	-0.635254
318.0	9.654943	-0.33685	2.620723	0.017675	0.000438	-0.015445	-0.513672	0.093994	-0.637695
319.0	9.649004	-0.311642	2.625581	0.018521	-0.000961	-0.016981	-0.511475	0.096191	-0.640137
320.0	9.649087	-0.309549	2.625525	0.013705	-0.001229	-0.017623	-0.511475	0.096191	-0.637695
321.0	9.667211	-0.299751	2.611144	0.015311	0.002384	-0.017982	-0.513916	0.100586	-0.644775
322.0	9.691286	-0.313331	2.592142	0.006986	0.002975	-0.015026	-0.513916	0.098389	-0.640137
323.0	9.685147	-0.288362	2.59763	0.009439	0.010471	-0.017779	-0.515869	0.093994	-0.644531
324.0	9.678798	-0.340625	2.60383	0.007323	0.016616	-0.014372	-0.516113	0.096191	-0.642334
325.0	9.711749	-0.331189	2.61008	0.009986	0.017159	-0.016434	-0.509277	0.096191	-0.642334
326.0	9.729332	-0.32168	2.597709	0.008927	0.025517	-0.015591	-0.511475	0.096191	-0.642334
327.0	9.692587	-0.335387	2.628983	0.007322	0.021905	-0.015233	-0.509277	0.098389	-0.642334
328.0	9.676893	-0.333905	2.611769	0.003265	0.016078	-0.01298	-0.513672	0.091797	-0.64209
329.0	9.658022	-0.30173	2.565774	0.00605	0.021366	-0.012501	-0.509277	0.093994	-0.637695
330.0	9.64549	-0.331339	2.577411	0.000811	0.019151	-0.011949	-0.511475	0.096191	-0.642334
331.0	9.663046	-0.322582	2.565114	0.000718	0.025569	-0.00924	-0.509521	0.10083	-0.642578
332.0	9.659573	-0.329523	2.600995	-0.005156	0.023082	-0.007323	-0.504639	0.094238	-0.644531
333.0	9.679869	-0.313479	2.555659	-0.002163	0.031987	-0.007872	-0.511475	0.093994	-0.642334
334.0	9.666919	-0.343694	2.568803	-0.004621	0.040348	-0.007702	-0.500244	0.096436	-0.644775
335.0	9.699209	-0.335366	2.577418	-0.008256	0.04175	-0.007512	-0.509277	0.098389	-0.640137
336.0	9.640631	-0.327217	2.596049	-0.005686	0.043429	-0.006002	-0.507324	0.105225	-0.64502
337.0	9.657693	-0.319199	2.585615	-0.005143	0.039547	-0.002937	-0.51416	0.105225	-0.64502
338.0	9.638642	-0.326663	2.603494	-0.011251	0.032855	-0.00697	-0.509521	0.100586	-0.640137
339.0	9.634753	-0.295451	2.577648	-0.005043	0.027845	-0.004786	-0.511719	0.100586	-0.644775
340.0	9.658183	-0.310499	2.561445	-0.01425	0.034531	-0.008148	-0.513916	0.10083	-0.651855
341.0	9.654344	-0.317992	2.59824	-0.00996	0.033995	-0.002729	-0.509277	0.098633	-0.644775
342.0	9.659575	-0.341028	2.596635	-0.011892	0.032595	-0.005608	-0.509277	0.096436	-0.651611
343.0	9.63446	-0.325286	2.619097	-0.008261	0.036491	-0.006654	-0.50708	0.096436	-0.646973
344.0	9.660878	-0.332598	2.569556	-0.014249	0.029253	-0.007293	-0.504883	0.10083	-0.651855
345.0	9.651012	-0.316871	2.610722	-0.011681	0.03093	-0.005778	-0.511475	0.096191	-0.646973
346.0	9.641163	-0.33973	2.589819	-0.011258	0.032879	-0.006974	-0.502686	0.098633	-0.651855
347.0	9.613092	-0.33168	2.645363	-0.007833	0.027863	-0.006132	-0.511719	0.098389	-0.646973
348.0	9.651745	-0.346592	2.648145	-0.0088	0.029811	-0.008002	-0.502686	0.098633	-0.646973
349.0	9.602669	-0.353797	2.626662	-0.009333	0.023118	-0.00935	-0.50708	0.096436	-0.646973
350.0	9.602093	-0.353246	2.62884	-0.007191	0.022848	-0.006638	-0.504883	0.098633	-0.644775
351.0	9.610694	-0.368171	2.592735	-0.002379	0.023125	-0.005977	-0.50708	0.098633	-0.642334
352.0	9.625259	-0.367658	2.613978	0.002224	0.01978	-0.004289	-0.504883	0.10083	-0.647217
353.0	9.627885	-0.359438	2.582227	0.004045	0.016434	-0.003951	-0.50708	0.098633	-0.646973
354.0	9.606226	-0.374743	2.63151	0.001699	0.013667	0.001334	-0.509277	0.098633	-0.651855
355.0	9.61495	-0.312977	2.594433	0.006942	0.010595	0.00166	-0.505127	0.103027	-0.649658
356.0	9.681457	-0.374493	2.604975	0.009619	0.005848	0.000468	-0.511719	0.098389	-0.646973
357.0	9.66593	-0.335881	2.648767	0.006517	0.008649	0.002855	-0.509277	0.096436	-0.651611
358.0	9.623434	-0.367064	2.620773	0.010048	0.008379	0.006245	-0.509277	0.098633	-0.646973
359.0	9.638345	-0.367266	2.640584	0.011334	0.00363	0.004378	-0.504883	0.098633	-0.649414
360.0	9.659468	-0.351856	2.593406	0.009938	0.008925	0.002842	-0.504883	0.098633	-0.649414
361.0	9.701413	-0.320939	2.62339	0.009292	0.013948	0.003346	-0.50708	0.096191	-0.640137
362.0	9.652607	-0.328869	2.600929	0.008646	0.018972	0.003849	-0.502686	0.098633	-0.654053
363.0	9.633876	-0.336598	2.6172	0.006932	0.021191	-6.2e-05	-0.509277	0.098633	-0.646973
364.0	9.654396	-0.282549	2.633559	0.006614	0.018701	0.004536	-0.502686	0.098633	-0.651855
365.0	9.656842	-0.313639	2.664236	0.00982	0.020652	0.004692	-0.507324	0.10083	-0.649414
366.0	9.653377	-0.282896	2.637255	0.006295	0.015625	0.002161	-0.511719	0.098389	-0.644775
367.0	9.631617	-0.298387	2.686508	0.0079	0.013952	0.00267	-0.506836	0.094238	-0.64917
368.0	9.640503	-0.313798	2.649633	0.007151	0.014224	0.000631	-0.506836	0.094238	-0.64917
369.0	9.615796	-0.298374	2.670029	0.003088	0.013676	0.002003	-0.507324	0.103027	-0.651855
370.0	9.594286	-0.352307	2.657315	0.003403	0.021466	-0.003457	-0.509277	0.098633	-0.654053
371.0	9.630243	-0.336522	2.630546	0.002766	0.015896	-0.001232	-0.511475	0.093994	-0.64917
372.0	9.629779	-0.336056	2.632303	0.004901	0.020338	-0.00635	-0.502686	0.10083	-0.649414
373.0	9.623143	-0.312249	2.639002	0.005649	0.020068	-0.00431	-0.507568	0.107422	-0.647461
374.0	9.647	-0.32703	2.621877	0.007896	0.018668	-0.005163	-0.50708	0.098633	-0.651855
375.0	9.628319	-0.334127	2.637884	0.007469	0.016721	-0.003967	-0.509521	0.10083	-0.649414
376.0	9.661134	-0.325709	2.64458	0.009284	0.018672	-0.004485	-0.505127	0.103027	-0.642578
377.0	9.654939	-0.34064	2.58901	0.008426	0.020076	-0.002957	-0.502686	0.098633	-0.646973
378.0	9.638952	-0.301536	2.63393	0.011204	0.020081	-0.001601	-0.50708	0.096436	-0.646973
379.0	9.61139	-0.332024	2.625859	0.007258	0.013101	-0.002938	-0.509521	0.10083	-0.647217
380.0	9.641044	-0.331361	2.665834	0.013667	0.017006	-0.002619	-0.506836	0.093994	-0.644531
381.0	9.591959	-0.300052	2.705012	0.01143	0.007809	-3.9e-05	-0.511475	0.096436	-0.65625
382.0	9.583412	-0.361598	2.619446	0.015499	0.003059	-0.000543	-0.50708	0.096436	-0.651611
383.0	9.577198	-0.337996	2.6245	0.016888	0.003062	0.000135	-0.504883	0.096436	-0.642334
384.0	9.57391	-0.345283	2.658269	0.016461	0.001114	0.001331	-0.507324	0.10083	-0.651855
385.0	9.573942	-0.344955	2.658195	0.018498	-0.00391	0.001513	-0.509277	0.096191	-0.642334
386.0	9.582856	-0.321489	2.682053	0.018596	0.000849	0.004049	-0.50708	0.098633	-0.649414
387.0	9.616106	-0.313568	2.687097	0.018812	-0.000826	0.003884	-0.509521	0.10083	-0.642578
388.0	9.597892	-0.321052	2.701276	0.018281	-0.002232	0.001678	-0.504883	0.096436	-0.642334
389.0	9.658824	-0.320854	2.653597	0.012829	-0.002784	0.002369	-0.507324	0.10083	-0.649414
390.0	9.679991	-0.34369	2.668132	0.013682	0.001112	-2.6e-05	-0.502686	0.098633	-0.646973
391.0	9.640588	-0.327961	2.667904	0.015287	-0.000561	0.000487	-0.509277	0.098389	-0.642334
392.0	9.673888	-0.319788	2.672794	0.015502	-0.002236	0.000322	-0.509521	0.103027	-0.654297
393.0	9.680032	-0.342593	2.668124	0.01507	0.001116	0.000651	-0.507568	0.107422	-0.64502
394.0	9.704417	-0.357668	2.649207	0.020311	-0.001953	0.000993	-0.50708	0.096436	-0.644775
395.0	9.68318	-0.334168	2.634999	0.021047	0.008378	0.001293	-0.504639	0.092041	-0.651611
396.0	9.69176	-0.310743	2.660039	0.012057	0.013984	0.004687	-0.500244	0.098633	-0.649414
397.0	9.643118	-0.318806	2.637126	0.01505	0.012317	0.00588	-0.50708	0.098633	-0.649414
398.0	9.673244	-0.357623	2.614957	0.01184	0.015662	0.00485	-0.50708	0.098633	-0.649414
399.0	9.657718	-0.357805	2.597611	0.013651	0.022913	0.003457	-0.50708	0.098633	-0.654053
400.0	9.686955	-0.357732	2.638951	0.014273	0.034387	0.00732	-0.502441	0.096436	-0.654053
401.0	9.628389	-0.350253	2.656148	0.012354	0.032976	0.004436	-0.509277	0.098633	-0.644775
402.0	9.664061	-0.335089	2.630763	0.014702	0.031041	0.006993	-0.500488	0.10083	-0.647217
403.0	9.64167	-0.350446	2.681541	0.016205	0.029908	0.004105	-0.511475	0.091797	-0.646729
404.0	9.631517	-0.335031	2.722246	0.014492	0.022121	0.008903	-0.507324	0.10083	-0.649414
405.0	9.655317	-0.350846	2.705518	0.015995	0.020987	0.006016	-0.50708	0.098633	-0.646973
406.0	9.670137	-0.312749	2.664663	0.017478	0.025759	0.009223	-0.504883	0.10083	-0.644775
407.0	9.623311	-0.312976	2.734049	0.01896	0.030532	0.012431	-0.502686	0.098633	-0.656494
408.0	9.629192	-0.298798	2.669702	0.017673	0.024694	0.016031	-0.504883	0.098633	-0.649414
409.0	9.619699	-0.32315	2.648085	0.016716	0.021337	0.015027	-0.504639	0.092041	-0.646729
410.0	9.594614	-0.30863	2.669163	0.016284	0.024695	0.01535	-0.50708	0.096436	-0.654053
411.0	9.554603	-0.294219	2.670841	0.01693	0.019665	0.014865	-0.504883	0.096436	-0.651611
412.0	9.626678	-0.302596	2.678324	0.017694	0.018791	0.009937	-0.502686	0.10083	-0.647217
413.0	9.628865	-0.256713	2.708576	0.008821	0.017962	0.01062	-0.50708	0.096436	-0.651611
414.0	9.567984	-0.218757	2.694905	0.002222	0.015116	0.00349	-0.506836	0.094238	-0.64917
415.0	9.60088	-0.211401	2.701244	-0.00622	0.01093	0.00385	-0.507324	0.10083	-0.649414
416.0	9.606812	-0.235025	2.697284	-0.01827	0.002229	-0.001721	-0.509277	0.096436	-0.651611
417.0	9.58574	-0.212196	2.682618	-0.026377	0.000525	-0.005968	-0.50293	0.105225	-0.649658
418.0	9.585913	-0.212325	2.681992	-0.042063	-0.012074	-0.010502	-0.504883	0.10083	-0.649414
419.0	9.592286	-0.235558	2.676485	-0.046442	-0.0051	-0.013261	-0.509521	0.103027	-0.647217
420.0	9.635283	-0.243397	2.642609	-0.050604	-0.010409	-0.014429	-0.502686	0.103027	-0.649658
421.0	9.641559	-0.266405	2.637454	-0.054988	0.001872	-0.018059	-0.50293	0.105225	-0.649658
422.0	9.659836	-0.258636	2.623403	-0.061521	0.004415	-0.015693	-0.504883	0.096436	-0.646973
423.0	9.662471	-0.289565	2.652678	-0.066765	0.007502	-0.016049	-0.507324	0.10083	-0.649414
424.0	9.650163	-0.32063	2.662656	-0.06794	0.005833	-0.016896	-0.509277	0.098633	-0.646973
425.0	9.641295	-0.344007	2.63893	-0.069115	0.004165	-0.017744	-0.507324	0.105225	-0.649658
426.0	9.684085	-0.351684	2.605822	-0.070599	-0.000587	-0.020965	-0.502686	0.098633	-0.649414
427.0	9.638721	-0.390165	2.61002	-0.066228	0.003059	-0.019952	-0.502686	0.10083	-0.649414
428.0	9.650261	-0.397574	2.662895	-0.059389	0.003621	-0.019951	-0.502441	0.096436	-0.644775
429.0	9.662292	-0.366314	2.653952	-0.049254	0.010894	-0.017237	-0.509521	0.10083	-0.649414
430.0	9.680279	-0.358311	2.64101	-0.041799	0.017615	-0.012481	-0.507568	0.107422	-0.654297
431.0	9.68849	-0.335065	2.667088	-0.031882	0.026561	-0.009594	-0.50293	0.107422	-0.647461
432.0	9.623925	-0.304574	2.687978	-0.028271	0.025742	-0.002786	-0.500488	0.10083	-0.654053
433.0	9.60488	-0.235977	2.704072	-0.036395	0.014029	0.001639	-0.505127	0.105225	-0.647217
434.0	9.57129	-0.244885	2.700047	-0.037566	0.012355	0.000788	-0.505127	0.105225	-0.647217
435.0	9.592822	-0.230656	2.653065	-0.048684	0.00232	0.004012	-0.50708	0.098633	-0.651855
436.0	9.592759	-0.232395	2.653138	-0.058306	0.001781	0.002637	-0.50708	0.098633	-0.651855
437.0	9.611081	-0.226209	2.638884	-0.071751	-0.001553	-0.004527	-0.507324	0.103027	-0.649658
438.0	9.550908	-0.266126	2.623083	-0.073973	-0.006016	-0.009805	-0.509521	0.105225	-0.6521
439.0	9.617641	-0.251321	2.63247	-0.077365	-0.012151	-0.015938	-0.500488	0.103027	-0.649658
440.0	9.578917	-0.313593	2.629879	-0.072857	-0.020252	-0.016791	-0.507324	0.103027	-0.642578
441.0	9.597375	-0.345043	2.674983	-0.080959	-0.032516	-0.019371	-0.503174	0.109619	-0.649902
442.0	9.641158	-0.352613	2.638293	-0.06791	-0.037001	-0.017154	-0.500977	0.111816	-0.642822
443.0	9.678229	-0.376174	2.668243	-0.07498	-0.03585	-0.016992	-0.509766	0.107422	-0.64502
444.0	9.639306	-0.400476	2.726121	-0.066652	-0.035859	-0.012904	-0.507568	0.109619	-0.649902
445.0	9.661335	-0.424361	2.737207	-0.07417	-0.026044	-0.013226	-0.507568	0.109619	-0.649902
446.0	9.671514	-0.440204	2.696384	-0.080081	-0.01791	-0.013038	-0.498535	0.107422	-0.64502
447.0	9.67731	-0.426316	2.752615	-0.088783	-0.004452	-0.01504	-0.505371	0.109619	-0.647461
448.0	9.756934	-0.495593	2.690159	-0.094807	0.009568	-0.019075	-0.503174	0.109619	-0.645264
449.0	9.747035	-0.481377	2.729773	-0.100309	0.024982	-0.020886	-0.505371	0.109619	-0.649902
450.0	9.774842	-0.526551	2.617396	-0.099403	0.044292	-0.022326	-0.505371	0.109619	-0.647461
451.0	9.761394	-0.558006	2.631428	-0.08397	0.069125	-0.019118	-0.507813	0.114014	-0.640625
452.0	9.747466	-0.58954	2.647139	-0.08252	0.079201	-0.016681	-0.505371	0.109619	-0.6521
453.0	9.705848	-0.575142	2.654722	-0.072214	0.090612	-0.007921	-0.500732	0.107422	-0.647461
454.0	9.691338	-0.607909	2.672083	-0.064789	0.092503	0.004692	-0.505371	0.114014	-0.647705
455.0	9.643258	-0.572203	2.685026	-0.058602	0.082661	0.014675	-0.505127	0.107422	-0.647461
456.0	9.668277	-0.621727	2.701756	-0.05852	0.082106	0.018069	-0.503418	0.116211	-0.650146
457.0	9.677912	-0.594175	2.701035	-0.052171	0.091856	0.024623	-0.503174	0.109619	-0.649902
458.0	9.716734	-0.567703	2.740729	-0.0495	0.113672	0.029726	-0.498779	0.114014	-0.649902
459.0	9.752192	-0.510111	2.754716	-0.048751	0.13946	0.031111	-0.496338	0.111816	-0.652344
460.0	9.8177	-0.413734	2.748281	-0.054103	0.153797	0.036117	-0.500977	0.114014	-0.652344
461.0	9.767338	-0.380241	2.768963	-0.066361	0.178367	0.029081	-0.498779	0.114014	-0.647705
462.0	9.771547	-0.245058	2.751998	-0.054899	0.196321	0.030999	-0.499023	0.120605	-0.650146
463.0	9.741319	-0.31212	2.788882	-0.088804	0.211819	0.027089	-0.505615	0.114014	-0.663818
464.0	9.751027	-0.465801	2.915823	-0.076277	0.200718	0.017563	-0.496582	0.118408	-0.654785
465.0	9.630995	-0.337472	2.900358	-0.064598	0.180306	0.011186	-0.492188	0.118408	-0.654785
466.0	9.673488	-0.498567	2.756727	-0.07104	0.176516	0.010722	-0.496826	0.125	-0.662109
467.0	9.647815	-0.471849	2.850245	-0.046816	0.176802	0.000462	-0.494385	0.120605	-0.659424
468.0	9.528712	-0.418353	2.831232	-0.036346	0.181316	-0.000389	-0.492188	0.120605	-0.657227
469.0	9.465575	-0.411407	2.860727	-0.022161	0.179146	-0.010941	-0.496582	0.118408	-0.657227
470.0	9.437661	-0.427849	2.9237	-0.019409	0.168485	-0.007957	-0.494385	0.118408	-0.654785
471.0	9.356208	-0.428219	2.96447	-0.008999	0.152757	-0.012384	-0.491943	0.116211	-0.656982
472.0	9.310919	-0.457468	2.946609	0.001741	0.134127	-0.01019	-0.487793	0.120605	-0.661865
473.0	9.290484	-0.346795	2.913563	0.017212	0.137759	-0.013807	-0.48999	0.120605	-0.657227
474.0	9.371945	-0.476065	2.921731	0.014263	0.133573	-0.010847	-0.478516	0.118652	-0.666504
475.0	9.369742	-0.428554	2.964098	0.034523	0.12732	-0.015471	-0.487549	0.116211	-0.661621
476.0	9.449493	-0.448131	2.945456	0.041383	0.117149	-0.013741	-0.483154	0.118408	-0.666504
477.0	9.543854	-0.467493	2.945901	0.054063	0.10591	-0.023127	-0.48999	0.120605	-0.666504
478.0	9.559294	-0.378145	2.944983	0.071183	0.107248	-0.022774	-0.487549	0.116211	-0.66626
479.0	9.557805	-0.328215	2.984779	0.072321	0.093456	-0.022875	-0.487549	0.114014	-0.668701
480.0	9.572846	-0.361238	2.949935	0.079625	0.075113	-0.024066	-0.485352	0.118408	-0.666504
481.0	9.564477	-0.333604	2.961822	0.086049	0.062946	-0.021134	-0.487549	0.116211	-0.668701
482.0	9.529808	-0.337015	2.961097	0.090442	0.055281	-0.014973	-0.485107	0.114014	-0.65918
483.0	9.468873	-0.371615	2.947793	0.098947	0.042802	-0.00926	-0.485107	0.114014	-0.647705
484.0	9.455315	-0.399263	2.960173	0.105416	0.034833	-0.000323	-0.489746	0.116211	-0.67334
485.0	9.449673	-0.40457	2.996574	0.117113	0.024328	0.005658	-0.48291	0.109619	-0.673096
486.0	9.444363	-0.409924	3.031874	0.122388	0.010493	0.007741	-0.48291	0.114014	-0.670898
487.0	9.4189	-0.392146	3.050858	0.131586	-0.002251	0.01554	-0.485107	0.111816	-0.663818
488.0	9.426663	-0.366775	3.075655	0.139132	-0.007327	0.018574	-0.480713	0.114014	-0.66626
489.0	9.44576	-0.356375	3.061956	0.147377	-0.012685	0.023667	-0.487549	0.114014	-0.663818
490.0	9.400401	-0.315607	3.063721	0.149175	-0.020816	0.021466	-0.485107	0.111816	-0.661621
491.0	9.419855	-0.304985	3.04888	0.153479	-0.021892	0.020018	-0.489258	0.105225	-0.666016
492.0	9.39188	-0.224824	3.008158	0.148434	-0.020406	0.019389	-0.484863	0.107422	-0.666016
493.0	9.457022	-0.175787	2.990266	0.13339	-0.037546	0.020921	-0.489258	0.105225	-0.666016
494.0	9.531864	-0.135141	3.024444	0.121264	-0.039735	0.017762	-0.487305	0.111816	-0.668457
495.0	9.558329	-0.14832	3.002701	0.112086	-0.043071	0.01246	-0.489258	0.105225	-0.663574
496.0	9.600565	-0.115228	3.029087	0.096532	-0.055724	0.007554	-0.480469	0.109619	-0.668457
497.0	9.659219	-0.16657	2.982831	0.085742	-0.067548	3.5e-05	-0.484863	0.105225	-0.663574
498.0	9.628236	-0.171796	2.969978	0.072691	-0.067801	-0.004997	-0.487305	0.111816	-0.663818
499.0	9.627078	-0.184495	2.905849	0.059641	-0.068062	-0.010024	-0.487305	0.109619	-0.670654
500.0	9.630742	-0.212075	2.928557	0.051271	-0.061029	-0.025353	-0.489502	0.105225	-0.67749
501.0	9.593411	-0.269882	2.921249	0.044822	-0.053694	-0.030947	-0.493896	0.107422	-0.658936
502.0	9.555547	-0.250162	2.914779	0.03677	-0.044675	-0.037087	-0.484863	0.105225	-0.663574
503.0	9.5633	-0.268474	2.906215	0.031	-0.042429	-0.04316	-0.489258	0.103027	-0.661133
504.0	9.569164	-0.255658	2.868963	0.022516	-0.040744	-0.047238	-0.487061	0.105225	-0.656738
505.0	9.589105	-0.242884	2.85195	0.012492	-0.033125	-0.045921	-0.489502	0.107422	-0.666016
506.0	9.635824	-0.276404	2.846713	0.007434	-0.021008	-0.048272	-0.494141	0.109619	-0.656738
507.0	9.613327	-0.287328	2.891504	-0.008288	-0.02243	-0.047871	-0.489502	0.107422	-0.663574
508.0	9.628401	-0.282864	2.909039	-0.012856	-0.024406	-0.048797	-0.491455	0.103027	-0.661133
509.0	9.61696	-0.309541	2.915681	-0.017654	-0.02469	-0.049563	-0.491699	0.107422	-0.663574
510.0	9.63022	-0.274497	2.903814	-0.026287	-0.032586	-0.048327	-0.489258	0.103027	-0.661133
511.0	9.560915	-0.294469	2.921247	-0.029916	-0.036526	-0.047357	-0.491455	0.103027	-0.663574
512.0	9.595222	-0.282768	2.923569	-0.035172	-0.043575	-0.049469	-0.491699	0.105225	-0.658936
513.0	9.544916	-0.295062	2.926675	-0.037449	-0.042156	-0.048664	-0.498291	0.105225	-0.654297
514.0	9.546292	-0.2916	2.92253	-0.036742	-0.042419	-0.046611	-0.493896	0.107422	-0.661377
515.0	9.566333	-0.280598	2.90483	-0.039636	-0.041844	-0.041048	-0.493896	0.107422	-0.666016
516.0	9.563214	-0.285779	2.934347	-0.047404	-0.035656	-0.040514	-0.491455	0.10083	-0.661133
517.0	9.556596	-0.306709	2.906333	-0.049169	-0.03818	-0.036626	-0.498535	0.107422	-0.661377
518.0	9.586384	-0.304493	2.942366	-0.05352	-0.031703	-0.036031	-0.493896	0.105225	-0.658936
519.0	9.610351	-0.28707	2.892352	-0.056642	-0.029447	-0.030302	-0.498291	0.103027	-0.668213
520.0	9.611196	-0.286077	2.889641	-0.058186	-0.02353	-0.024891	-0.491699	0.107422	-0.661377
521.0	9.649084	-0.269482	2.860531	-0.060247	-0.013672	-0.022554	-0.496338	0.111816	-0.661621
522.0	9.63091	-0.27731	2.87256	-0.067038	-0.014811	-0.01926	-0.489014	0.098633	-0.656494
523.0	9.612682	-0.285629	2.884737	-0.066309	-0.010299	-0.014658	-0.491699	0.105225	-0.663574
524.0	9.645912	-0.278008	2.890055	-0.07276	-0.003543	-0.016805	-0.494141	0.109619	-0.656738
525.0	9.652566	-0.30172	2.884946	-0.073177	-0.000723	-0.013069	-0.493896	0.105225	-0.661377
526.0	9.613022	-0.2878	2.883388	-0.077965	0.003779	-0.011273	-0.491943	0.111816	-0.661621
527.0	9.619473	-0.311964	2.878892	-0.074782	0.005772	-0.011052	-0.496094	0.105225	-0.668213
528.0	9.637977	-0.305089	2.865641	-0.077492	0.00521	-0.009057	-0.489258	0.105225	-0.663574
529.0	9.60828	-0.299622	2.917836	-0.076389	0.012267	-0.009029	-0.491699	0.109619	-0.65918
530.0	9.651699	-0.30763	2.887222	-0.077148	0.017925	-0.011925	-0.496338	0.111816	-0.656982
531.0	9.631326	-0.23949	2.903756	-0.070619	0.030912	-0.013321	-0.491943	0.111816	-0.670898
532.0	9.656512	-0.208602	2.918828	-0.069076	0.055487	-0.023951	-0.496582	0.114014	-0.661621
533.0	9.684257	-0.162011	2.994595	-0.07213	0.088234	-0.033773	-0.494141	0.111816	-0.661621
534.0	9.702244	-0.183637	3.019021	-0.081294	0.110012	-0.043393	-0.491943	0.114014	-0.65918
535.0	9.827184	-0.163309	2.998238	-0.07659	0.131862	-0.05634	-0.487549	0.114014	-0.661621
536.0	9.851581	-0.088812	2.961639	-0.077552	0.149493	-0.0677	-0.489502	0.109619	-0.65918
537.0	10.043789	0.061101	2.806672	-0.069348	0.16574	-0.076335	-0.491699	0.109619	-0.661377
538.0	10.20981	0.254525	2.914114	-0.062578	0.212542	-0.090804	-0.487305	0.107422	-0.658936
539.0	10.155471	0.208439	2.88042	-0.058011	0.224914	-0.098502	-0.489502	0.109619	-0.666016
540.0	10.146103	0.156975	2.813591	-0.02576	0.182793	-0.099729	-0.482666	0.107422	-0.668457
541.0	10.053541	0.081201	2.743349	-0.016497	0.165958	-0.097918	-0.484863	0.103027	-0.668213
542.0	9.889782	0.03741	2.542401	0.017734	0.139609	-0.098781	-0.487305	0.109619	-0.673096
543.0	9.739077	0.046133	2.479947	0.0573	0.129397	-0.099229	-0.487305	0.107422	-0.661377
544.0	9.691194	-0.00285	2.345617	0.093185	0.144634	-0.097068	-0.480469	0.105225	-0.672852
545.0	9.62391	0.007146	2.405871	0.137349	0.189469	-0.099322	-0.478271	0.107422	-0.673096
546.0	9.601864	0.072603	2.527226	0.160574	0.244481	-0.100239	-0.482422	0.10083	-0.675049
547.0	9.571502	0.116049	2.626563	0.191183	0.252912	-0.100255	-0.487061	0.105225	-0.666016
548.0	9.593491	0.247972	2.629217	0.213156	0.240095	-0.103261	-0.478027	0.103027	-0.67041
549.0	9.587011	0.309899	2.679243	0.241607	0.206042	-0.101271	-0.477783	0.098633	-0.675049
550.0	9.575595	0.41072	2.787738	0.265798	0.168271	-0.100363	-0.473145	0.094238	-0.677246
551.0	9.532934	0.512052	2.706786	0.294016	0.12204	-0.098727	-0.475342	0.092041	-0.677002
552.0	9.644269	0.595067	2.695721	0.319097	0.101651	-0.096016	-0.477783	0.094238	-0.672607
553.0	9.673038	0.721623	2.591446	0.343052	0.120793	-0.088918	-0.475342	0.094238	-0.677246
554.0	9.531747	0.726005	2.576083	0.363927	0.130871	-0.070983	-0.4729	0.089844	-0.674561
555.0	9.442848	0.699113	2.526709	0.3772	0.130957	-0.04999	-0.472656	0.083252	-0.678955
556.0	9.273084	0.72778	2.441038	0.362086	0.12489	-0.02052	-0.4729	0.085449	-0.676758
557.0	9.140936	0.751732	2.271432	0.335359	0.130003	0.018643	-0.4729	0.087646	-0.681641
558.0	9.092418	0.842798	2.132372	0.285072	0.15232	0.065579	-0.466064	0.087646	-0.681641
559.0	9.027415	0.906161	2.096313	0.240837	0.20192	0.121778	-0.470459	0.083252	-0.681396
560.0	9.012817	0.882974	2.180966	0.187202	0.239525	0.181482	-0.466064	0.085449	-0.676758
561.0	9.075573	0.855562	2.246728	0.12956	0.258884	0.232573	-0.466064	0.085449	-0.681396
562.0	9.211758	0.723242	2.271298	0.077843	0.269741	0.264366	-0.463867	0.087891	-0.686279
563.0	9.412416	0.604621	2.312452	0.044748	0.260857	0.278479	-0.466064	0.085449	-0.686035
564.0	9.671645	0.494291	2.402398	0.016295	0.243245	0.272647	-0.457275	0.092285	-0.690918
565.0	9.879983	0.306545	2.556641	-0.024759	0.223856	0.257942	-0.455078	0.090088	-0.688721
566.0	10.101041	0.089162	2.760103	-0.062965	0.200144	0.238815	-0.457031	0.087891	-0.686279
567.0	10.287492	-0.094442	2.837156	-0.10987	0.178648	0.222284	-0.457275	0.092285	-0.684082
568.0	10.531766	-0.204845	3.045896	-0.168072	0.149041	0.205348	-0.452881	0.094482	-0.688721
569.0	10.586971	-0.420048	3.232026	-0.251925	0.164542	0.188154	-0.45752	0.09668	-0.691162
570.0	10.410875	-0.536558	3.503149	-0.366427	0.194817	0.159792	-0.450928	0.098877	-0.686523
571.0	9.724899	-0.905286	3.782443	-0.492937	0.234591	0.122573	-0.453369	0.107666	-0.693848
572.0	8.814657	-1.091375	3.960945	-0.578865	0.22244	0.06244	-0.448975	0.107666	-0.687012
573.0	7.776473	-1.091354	3.891962	-0.650778	0.162824	-0.04363	-0.453613	0.112061	-0.69165
574.0	6.850631	-1.100029	3.487836	-0.758951	0.062672	-0.189237	-0.451416	0.114258	-0.689453
575.0	6.376508	-1.230694	2.829821	-0.816493	0.068572	-0.383566	-0.45166	0.118652	-0.691895
576.0	6.496354	-1.091168	2.474903	-0.780401	0.38792	-0.598081	-0.442627	0.118652	-0.687256
577.0	7.118254	-0.650536	2.845824	-0.754143	0.955352	-0.783786	-0.436035	0.123291	-0.696777
578.0	7.179365	-0.412925	3.386582	-0.725872	1.47186	-0.945441	-0.433594	0.121094	-0.703613
579.0	7.907212	-0.020022	4.233958	-0.631684	1.51574	-1.060259	-0.431152	0.116699	-0.708252
580.0	9.584305	0.196145	4.366397	-0.564667	1.34645	-1.05422	-0.41748	0.112305	-0.712646
581.0	12.785195	1.018351	3.656218	-0.446939	0.955674	-0.908811	-0.415283	0.114502	-0.715088
582.0	15.570714	1.923542	2.755371	-0.6087	0.599076	-0.679472	-0.411133	0.118896	-0.719971
583.0	16.209579	2.288827	2.148311	-0.760389	0.392565	-0.405887	-0.406494	0.116699	-0.717529
584.0	13.484479	1.614961	2.818013	-0.911863	0.458822	-0.184719	-0.406738	0.125488	-0.722412
585.0	11.048789	-0.105621	3.230905	-1.046389	0.079241	-0.019553	-0.406982	0.132324	-0.71582
586.0	10.894506	-0.914402	2.279456	-0.962116	-0.219313	0.106473	-0.405029	0.138916	-0.720703
587.0	9.968088	-1.475505	1.825119	-0.937454	-0.055714	0.216381	-0.407471	0.141113	-0.723145
588.0	9.527598	-1.734665	2.409525	-0.800362	0.091341	0.258512	-0.40332	0.149902	-0.71167
589.0	9.077505	-1.385353	2.718994	-0.724243	0.157006	0.256825	-0.40332	0.1521	-0.716553
590.0	8.851583	-1.522147	2.467714	-0.717828	0.110692	0.238114	-0.401367	0.160889	-0.716797
591.0	8.877775	-1.79725	2.016859	-0.65576	0.121135	0.227523	-0.406006	0.160889	-0.712158
592.0	8.77215	-1.50972	1.910626	-0.525295	0.242288	0.241483	-0.399414	0.165283	-0.7146
593.0	8.303648	-1.291335	2.048409	-0.476082	0.333508	0.269402	-0.397461	0.171875	-0.712646
594.0	7.874293	-1.252662	2.204082	-0.40696	0.297094	0.311009	-0.395264	0.174072	-0.715088
595.0	7.889026	-1.272316	2.289906	-0.349811	0.179571	0.344858	-0.395264	0.17627	-0.710449
596.0	7.978423	-1.456037	2.012285	-0.293031	0.115694	0.377473	-0.390869	0.178467	-0.712891
597.0	8.202443	-1.662957	1.881527	-0.203953	0.098095	0.40555	-0.391113	0.180664	-0.708252
598.0	8.364285	-1.837601	1.923979	-0.129413	0.14595	0.41898	-0.391357	0.1875	-0.708496
599.0	8.376233	-1.814948	2.122706	0.005379	0.132395	0.407066	-0.384277	0.183105	-0.712891
600.0	8.426732	-1.67665	2.260787	0.085304	0.038096	0.380406	-0.388916	0.185303	-0.713135
601.0	8.602193	-1.7149	2.063029	0.157039	-0.05273	0.351438	-0.391113	0.185303	-0.708496
602.0	8.689561	-1.576691	1.983129	0.268249	-0.075223	0.328045	-0.382324	0.1875	-0.706299
603.0	8.781333	-1.416479	1.931293	0.345587	-0.073986	0.311123	-0.38208	0.183105	-0.712891
604.0	8.848483	-0.970141	1.791353	0.443686	-0.079107	0.311502	-0.386475	0.178711	-0.710449
605.0	8.94179	-0.621979	1.734736	0.448863	-0.049661	0.32555	-0.38208	0.185303	-0.710693
606.0	9.252349	-0.547697	1.757616	0.433544	-0.025775	0.349106	-0.377686	0.183105	-0.710693
607.0	9.592579	-0.582658	1.810708	0.41569	0.026553	0.385036	-0.388672	0.178711	-0.712891
608.0	9.808186	-0.70726	2.026846	0.386531	0.044636	0.422227	-0.379639	0.176514	-0.710449
609.0	9.868927	-0.896927	2.092444	0.356552	0.01472	0.451526	-0.379639	0.178711	-0.710449
610.0	10.152071	-1.073929	2.156836	0.319993	-0.054862	0.475136	-0.375	0.176514	-0.715088
611.0	10.207537	-1.443953	2.169422	0.331552	-0.079827	0.487954	-0.377197	0.174316	-0.701172
612.0	10.293013	-1.668716	2.263326	0.352981	-0.123817	0.49008	-0.372803	0.174316	-0.703369
613.0	10.383677	-1.902876	2.297275	0.374688	-0.134925	0.494061	-0.377197	0.176514	-0.705811
614.0	10.419705	-2.152029	2.329553	0.390948	-0.126227	0.498779	-0.375	0.176514	-0.708008
615.0	10.673922	-2.415586	2.146425	0.389305	-0.113514	0.496568	-0.374756	0.169922	-0.705566
616.0	11.08703	-2.620489	2.005846	0.397416	-0.040721	0.490737	-0.372803	0.174316	-0.703369
617.0	11.767355	-2.796558	1.937987	0.414007	0.042062	0.473693	-0.372314	0.165527	-0.703125
618.0	12.493022	-2.820175	1.929562	0.430504	0.123388	0.454186	-0.370117	0.167725	-0.703125
619.0	13.002418	-2.565521	1.928314	0.489168	0.171665	0.409006	-0.372559	0.169922	-0.703125
620.0	13.151875	-2.092224	2.040977	0.470742	0.128384	0.357743	-0.363281	0.165527	-0.705322
621.0	13.296756	-1.934412	2.304353	0.399416	0.034768	0.302031	-0.365479	0.165527	-0.705322
622.0	13.346531	-1.809698	2.873732	0.376788	0.02958	0.257207	-0.363281	0.165527	-0.700684
623.0	13.419237	-1.160854	3.691202	0.322294	-0.018847	0.237447	-0.365479	0.16333	-0.698242
624.0	13.116563	-0.294589	3.987739	0.221143	-0.1479	0.24335	-0.360596	0.154541	-0.709717
625.0	12.509466	0.550116	3.729722	0.08114	-0.363684	0.231515	-0.365479	0.16333	-0.700684
626.0	12.065653	0.730806	3.37725	-0.106149	-0.433627	0.20086	-0.363037	0.158936	-0.693604
627.0	11.164117	-0.088577	2.777861	-0.216508	-0.397183	0.140974	-0.365479	0.163086	-0.682129
628.0	10.59604	-1.24968	2.668642	-0.149807	-0.35156	0.048591	-0.365479	0.16333	-0.691406
629.0	10.16389	-1.487431	3.623731	0.041292	-0.348419	-0.058779	-0.37207	0.160889	-0.693604
630.0	9.502067	-1.888212	4.1937	0.165533	-0.356348	-0.131823	-0.367676	0.160889	-0.691406
631.0	8.888144	-2.116824	5.045738	0.450502	-0.216252	-0.119155	-0.37207	0.158691	-0.688965
632.0	7.513843	-2.283753	6.449222	0.622327	0.028851	-0.039376	-0.369629	0.1521	-0.693359
633.0	6.565059	-2.840487	7.203185	0.680562	0.033528	0.08823	-0.371826	0.149902	-0.693115
634.0	6.431376	-3.33349	6.785056	0.702606	0.059283	0.245787	-0.366943	0.143311	-0.688232
635.0	6.687091	-2.884317	6.375662	0.68615	0.156026	0.394333	-0.369385	0.145508	-0.693115
636.0	7.400397	-2.015613	5.924537	0.558811	0.24996	0.525685	-0.35791	0.143311	-0.692871
637.0	8.656442	-1.191915	5.529313	0.468317	0.322295	0.590828	-0.362549	0.143311	-0.692871
638.0	10.099496	-0.580114	5.747607	0.42573	0.34743	0.56594	-0.353027	0.136719	-0.681152
639.0	11.006334	-0.398653	5.997055	0.365729	0.396903	0.477146	-0.35791	0.143311	-0.702148
640.0	10.951383	-0.253898	5.903987	0.416168	0.429457	0.353385	-0.35083	0.136963	-0.701904
641.0	9.977971	0.359151	5.757116	0.475139	0.369715	0.198591	-0.348633	0.134766	-0.704346
642.0	9.590983	0.180969	5.358578	0.367403	0.272234	0.075083	-0.348389	0.132568	-0.706543
643.0	9.548225	-0.697904	4.73157	0.346215	0.133507	-0.051574	-0.348145	0.125732	-0.703857
644.0	9.080397	-1.440379	4.553287	0.432037	0.060155	-0.174177	-0.348145	0.123535	-0.701416
645.0	7.650216	-0.954754	4.120985	0.564286	0.12095	-0.23883	-0.341309	0.123779	-0.708496
646.0	6.829804	-0.529209	3.718716	0.497242	0.095526	-0.26307	-0.3479	0.116943	-0.710693
647.0	6.62589	-0.506834	3.282958	0.506626	0.105422	-0.270532	-0.347656	0.114746	-0.712891
648.0	6.588263	-0.305796	3.311634	0.535435	0.11519	-0.265635	-0.343262	0.112549	-0.703369
649.0	6.669244	-0.253452	3.0934	0.514713	0.112934	-0.264687	-0.343018	0.105957	-0.703125
650.0	6.789125	0.028097	2.911211	0.533917	0.113458	-0.278014	-0.340576	0.101563	-0.705322
651.0	6.924247	0.284763	2.744428	0.405283	0.051748	-0.309317	-0.342529	0.099365	-0.709961
652.0	7.116525	0.628597	2.869998	0.502198	0.098596	-0.338663	-0.340088	0.090576	-0.700195
653.0	7.101867	0.819866	2.821492	0.380953	0.073984	-0.377232	-0.337891	0.094971	-0.709717
654.0	7.073026	0.894504	2.914415	0.299833	0.073169	-0.407437	-0.335449	0.088379	-0.707275
655.0	7.099057	1.154264	3.057752	0.209772	0.06904	-0.434617	-0.335449	0.090576	-0.709717
656.0	7.00768	0.99598	2.700823	-0.00153	0.001745	-0.457213	-0.333008	0.083984	-0.707031
657.0	7.098389	1.163535	2.867094	-0.073816	-0.038777	-0.475432	-0.342041	0.081787	-0.699951
658.0	7.277888	1.138473	2.861097	-0.25428	-0.147396	-0.499768	-0.335205	0.083984	-0.70459
659.0	7.346167	0.86077	2.506563	-0.375143	-0.217669	-0.534556	-0.342285	0.090576	-0.704834
660.0	7.722033	0.768944	2.671748	-0.475639	-0.289809	-0.549471	-0.337402	0.083984	-0.702393
661.0	7.997797	0.302462	2.487076	-0.627942	-0.25376	-0.548845	-0.342041	0.086182	-0.707031
662.0	8.250653	0.233919	2.570598	-0.684786	-0.245289	-0.527573	-0.339844	0.086182	-0.700195
663.0	8.474632	0.160776	2.582458	-0.820992	-0.330399	-0.492897	-0.342285	0.090576	-0.697998
664.0	8.86726	0.21519	2.314467	-0.925182	-0.423008	-0.455925	-0.340088	0.094971	-0.688965
665.0	8.979669	0.191822	2.230155	-1.024699	-0.400757	-0.424601	-0.344727	0.097168	-0.693604
666.0	9.161878	-0.027392	2.384461	-1.071418	-0.333719	-0.400211	-0.347412	0.105957	-0.687012
667.0	9.548383	-0.16617	2.548227	-1.046508	-0.29409	-0.3897	-0.343018	0.108154	-0.687012
668.0	10.51842	-0.439019	2.853368	-1.022785	-0.304089	-0.390002	-0.345215	0.110352	-0.687012
669.0	11.573377	-0.801443	2.939193	-0.941745	-0.320973	-0.405116	-0.349854	0.112549	-0.689453
670.0	12.514543	-0.755791	2.920494	-0.830411	-0.333282	-0.422598	-0.350342	0.123535	-0.682861
671.0	13.35147	-0.820856	2.696461	-0.759994	-0.345681	-0.432813	-0.354736	0.119141	-0.68042
672.0	13.909042	-0.906086	2.580374	-0.604235	-0.3306	-0.443414	-0.350586	0.130127	-0.680908
673.0	14.290142	-1.10665	2.408303	-0.550614	-0.335538	-0.439018	-0.352539	0.123535	-0.678223
674.0	14.249826	-1.151211	1.996752	-0.483513	-0.254077	-0.406989	-0.352783	0.130127	-0.673828
675.0	13.865054	-0.871183	1.739445	-0.466582	-0.16464	-0.332683	-0.35498	0.12793	-0.678467
676.0	13.396907	-0.719049	1.533232	-0.540632	-0.062683	-0.212605	-0.357666	0.134521	-0.67627
677.0	12.863734	-0.937487	3.822771	-0.479695	0.254116	-0.094758	-0.346191	0.134521	-0.671631
678.0	12.39965	-1.509479	7.444273	-0.425398	0.291964	-0.040562	-0.351074	0.138916	-0.674316
679.0	12.407569	-2.439023	7.044979	-0.515801	-0.083661	-0.061934	-0.348877	0.141113	-0.671875
680.0	11.347692	-1.806344	5.560431	-0.152156	-0.142175	-0.136381	-0.351318	0.145508	-0.669922
681.0	9.10625	-0.485637	7.26569	-0.007993	-0.10189	-0.168553	-0.351074	0.143311	-0.672119
682.0	7.733572	-0.970953	7.910991	-0.233228	-0.343496	-0.198472	-0.355713	0.145508	-0.665283
683.0	7.172761	-0.85928	7.206667	-0.030629	-0.370594	-0.25428	-0.351318	0.147705	-0.66748
684.0	6.202674	-0.026911	7.223496	-0.014459	-0.270128	-0.302003	-0.355713	0.147705	-0.674561
685.0	5.940714	-0.085508	6.519539	-0.036694	-0.215361	-0.324972	-0.362305	0.143311	-0.669678
686.0	6.583129	0.18131	5.936712	0.090807	-0.030769	-0.353205	-0.355713	0.145508	-0.66748
687.0	7.58941	0.306925	5.846383	0.131227	0.17451	-0.37098	-0.35791	0.141113	-0.674316
688.0	8.921713	0.310943	5.831575	0.213677	0.301226	-0.392305	-0.353516	0.143311	-0.669678
689.0	9.813214	0.200307	5.922072	0.214795	0.469724	-0.38947	-0.344238	0.138916	-0.676514
690.0	10.835319	0.064691	6.150478	0.281341	0.498188	-0.366328	-0.351074	0.141113	-0.674316
691.0	11.425129	0.372176	6.140687	0.321844	0.465983	-0.329047	-0.3396	0.13916	-0.678955
692.0	11.430986	0.385099	6.279313	0.228476	0.386384	-0.238148	-0.34668	0.143311	-0.674316
693.0	11.712939	0.511081	5.858632	0.11086	0.163231	-0.176719	-0.344238	0.141113	-0.676758
694.0	11.42081	1.187963	4.812413	0.006742	0.096952	-0.114943	-0.344238	0.138916	-0.676514
695.0	10.001285	1.101843	4.032157	-0.172676	0.094656	-0.050161	-0.342041	0.143555	-0.678955
696.0	7.599852	0.587813	4.171371	-0.140996	0.181158	-0.010584	-0.339844	0.143555	-0.683594
697.0	6.304786	0.149212	3.774456	-0.19704	0.112358	-0.002512	-0.337646	0.145752	-0.676758
698.0	5.95441	-0.619116	2.934801	-0.193838	0.139423	0.002071	-0.335938	0.154541	-0.679443
699.0	5.760291	-0.985432	2.912797	-0.100353	0.262862	0.00078	-0.337891	0.147949	-0.679199
700.0	5.743514	-1.539927	3.065878	-0.131988	0.213051	0.033786	-0.333496	0.154541	-0.679443
701.0	6.471064	-2.283622	2.747724	-0.049662	-0.092004	0.09294	-0.338135	0.154541	-0.688721
702.0	6.924604	-2.552883	2.664376	0.090384	-0.143529	0.175877	-0.33374	0.156738	-0.681885
703.0	6.399063	-2.742262	2.556515	0.207799	-0.114468	0.274459	-0.338135	0.156738	-0.684082
704.0	5.996799	-2.642966	2.458454	0.376018	-0.228454	0.349244	-0.340332	0.156738	-0.679443
705.0	5.834703	-2.172308	2.311102	0.513594	-0.321455	0.409708	-0.338135	0.158936	-0.677246
706.0	5.878983	-1.933041	2.098167	0.617699	-0.420712	0.453434	-0.346924	0.152344	-0.670166
707.0	6.018715	-1.616308	2.026185	0.752346	-0.498824	0.487671	-0.340332	0.154541	-0.677246
708.0	5.937347	-1.350393	1.921515	0.872326	-0.639424	0.51394	-0.347168	0.154541	-0.670166
709.0	5.867677	-0.644158	1.979018	1.012892	-0.865699	0.525849	-0.348877	0.145508	-0.674561
710.0	6.15724	-0.037162	1.683362	1.051736	-1.018239	0.526404	-0.35791	0.145508	-0.66748
711.0	6.591128	0.278067	1.449064	1.057065	-1.02756	0.512046	-0.360352	0.145508	-0.660645
712.0	7.096746	0.294198	1.214855	1.023027	-0.936184	0.482837	-0.360352	0.145508	-0.660645
713.0	7.799896	-0.084079	0.889668	0.935993	-0.811394	0.437853	-0.362549	0.145508	-0.660645
714.0	8.468659	-0.218252	1.010868	0.952725	-0.625945	0.382511	-0.364502	0.141113	-0.65332
715.0	9.16238	-0.287576	1.122826	0.922722	-0.500818	0.319972	-0.362061	0.136719	-0.65332
716.0	10.169888	-0.269869	0.818873	0.933388	-0.406609	0.269657	-0.368896	0.138916	-0.650879
717.0	11.173156	0.291871	0.960712	0.996089	-0.253153	0.244974	-0.37085	0.132324	-0.650635
718.0	12.264504	0.66909	1.655202	0.894881	-0.180502	0.275071	-0.368652	0.132324	-0.653076
719.0	13.521399	0.807206	2.16753	0.731312	-0.212725	0.332795	-0.364258	0.132324	-0.648438
720.0	14.500551	0.873249	2.10532	0.557711	-0.160268	0.406106	-0.366455	0.132324	-0.648438
721.0	15.16075	0.986594	2.008951	0.493904	-0.152979	0.468563	-0.364258	0.132324	-0.655518
722.0	15.83412	1.111375	2.131497	0.36876	-0.164729	0.508746	-0.368896	0.134521	-0.648438
723.0	15.687139	0.453377	1.973849	0.245916	-0.130105	0.478938	-0.375488	0.134521	-0.650879
724.0	15.103146	-0.176581	1.775264	0.270865	-0.125774	0.387562	-0.364502	0.141113	-0.65332
725.0	14.637249	-0.466241	1.52058	0.31065	-0.059189	0.241901	-0.364502	0.141113	-0.644043
726.0	14.318362	-0.579497	2.109063	0.388713	0.144524	0.107614	-0.364502	0.136719	-0.65332
727.0	14.196298	-1.08282	5.519554	0.335767	0.559174	0.084464	-0.362305	0.138916	-0.6604
728.0	11.95708	-0.339249	9.190765	0.556184	0.594523	0.162475	-0.362305	0.138916	-0.662598
729.0	11.308612	1.970218	9.332627	0.494265	-0.297674	0.162566	-0.360107	0.141113	-0.657959
730.0	12.296795	1.969131	6.048681	-0.020792	-0.432806	0.17383	-0.360107	0.143311	-0.658203
731.0	8.689672	0.931514	6.393307	0.06682	0.09578	0.193231	-0.359863	0.138916	-0.651123
732.0	6.231915	1.365307	6.973555	-0.004811	-0.127339	0.162394	-0.360352	0.145508	-0.653564
733.0	6.412599	0.273556	4.767325	-0.202184	-0.161708	0.172943	-0.360596	0.1521	-0.65625
734.0	6.203935	-0.399014	4.736922	-0.050842	0.123333	0.205163	-0.35376	0.1521	-0.658447
735.0	6.491936	-0.770443	5.502991	-0.186217	0.107833	0.262385	-0.35376	0.149902	-0.656006
736.0	8.035806	-1.06992	5.33369	-0.313867	0.119821	0.319759	-0.358398	0.154297	-0.65625
737.0	9.82528	-1.499048	5.632198	-0.455137	0.485558	0.384299	-0.345215	0.165527	-0.6521
738.0	11.045612	-1.713951	5.86235	-0.438458	0.615259	0.355127	-0.349854	0.167725	-0.654297
739.0	13.475006	-1.202757	5.694798	-0.316632	0.577706	0.265495	-0.343018	0.167725	-0.661377
740.0	15.191702	-1.474262	5.306365	-0.287898	0.653915	0.111923	-0.33667	0.174316	-0.664063
741.0	13.567576	-1.415242	5.091122	-0.016772	0.741583	-0.054724	-0.33667	0.174316	-0.668701
742.0	10.874034	-1.645263	4.74888	0.052888	0.574969	-0.145944	-0.329834	0.172119	-0.670898
743.0	9.955084	-2.262133	4.317181	0.155805	0.191196	-0.230581	-0.329834	0.174316	-0.668701
744.0	9.046603	-1.979571	3.748358	0.354418	0.080918	-0.29021	-0.332031	0.174316	-0.677979
745.0	7.357772	-1.189664	3.288678	0.427332	0.115152	-0.308166	-0.332031	0.172119	-0.673096
746.0	6.038237	-0.501381	2.866564	0.444271	0.120028	-0.313939	-0.333984	0.167725	-0.670654
747.0	5.564977	0.209903	2.712038	0.431688	0.132039	-0.312915	-0.32959	0.165527	-0.672852
748.0	5.347957	0.71152	2.445774	0.342514	0.179008	-0.311526	-0.322754	0.16333	-0.679688
749.0	4.508765	1.254852	2.495008	0.312661	0.305451	-0.300826	-0.326904	0.154541	-0.679443
750.0	4.526448	1.612001	2.828561	0.180409	0.229037	-0.307977	-0.320313	0.16333	-0.686768
751.0	4.917785	1.923808	2.674952	0.100078	0.146939	-0.347897	-0.32251	0.158936	-0.681885
752.0	5.079074	1.996077	2.555712	-0.135106	0.156856	-0.389866	-0.320313	0.158936	-0.684326
753.0	5.12085	1.50055	2.129678	-0.285879	0.146382	-0.43842	-0.32251	0.161133	-0.686768
754.0	5.235266	1.538467	2.324871	-0.311653	0.238834	-0.482441	-0.324707	0.158936	-0.679688
755.0	5.492619	1.352686	2.658374	-0.473398	0.321302	-0.521736	-0.320313	0.158936	-0.679688
756.0	5.904762	1.016648	2.560604	-0.549499	0.292259	-0.545531	-0.318115	0.16333	-0.686768
757.0	6.40274	0.91482	2.427167	-0.648395	0.158496	-0.540732	-0.318359	0.169922	-0.682373
758.0	6.669875	0.649572	2.227835	-0.793699	0.001881	-0.526005	-0.318359	0.167725	-0.682373
759.0	7.044829	0.585996	2.113794	-0.879405	-0.208519	-0.498466	-0.321045	0.178955	-0.682617
760.0	7.648256	0.713983	1.825539	-0.994017	-0.417667	-0.462294	-0.327881	0.180908	-0.682861
761.0	8.436499	0.492184	1.130426	-1.092681	-0.588314	-0.424878	-0.330078	0.180908	-0.675781
762.0	9.277086	0.428484	0.819823	-1.09885	-0.704558	-0.375816	-0.330322	0.1875	-0.683105
763.0	9.600877	0.592289	0.693476	-1.109453	-0.607024	-0.333079	-0.334961	0.1875	-0.673828
764.0	9.9682	0.455251	0.755926	-1.077614	-0.403135	-0.271876	-0.333008	0.19873	-0.671875
765.0	11.048707	0.437188	1.434286	-0.966145	-0.253723	-0.20659	-0.333252	0.203125	-0.671875
766.0	11.921378	-0.378536	2.154138	-0.9732	-0.153383	-0.124879	-0.338135	0.209717	-0.669922
767.0	12.70217	-1.565211	2.630358	-0.849589	-0.165198	-0.055807	-0.338135	0.214111	-0.670166
768.0	13.333587	-1.782119	2.793563	-0.611595	-0.221189	-0.002354	-0.34082	0.220703	-0.667969
769.0	14.016837	-1.827505	2.211523	-0.499486	-0.351561	0.011898	-0.34082	0.2229	-0.667969
770.0	14.62558	-1.647042	1.244107	-0.298985	-0.327185	-0.007574	-0.347412	0.220703	-0.66333
771.0	14.563942	-0.873511	1.182772	-0.147662	-0.132617	-0.045016	-0.343018	0.2229	-0.658691
772.0	13.714625	-0.355707	1.263297	-0.213084	-0.001051	-0.043849	-0.34082	0.225098	-0.656494
773.0	12.555518	-0.506496	1.296675	-0.332274	0.144374	-0.029454	-0.338623	0.2229	-0.67041
774.0	11.588332	-0.671861	4.772478	-0.257484	0.391472	-0.051197	-0.338867	0.229492	-0.666016
775.0	11.112158	-1.110334	9.860159	-0.341379	0.241387	-0.126925	-0.334229	0.227295	-0.666016
776.0	12.284572	-2.325487	8.675762	-0.332308	-0.230277	-0.213662	-0.341553	0.238281	-0.66626
777.0	12.083104	-1.871812	7.216312	0.223013	-0.12211	-0.336793	-0.345459	0.227295	-0.666016
778.0	9.938161	-1.396735	9.051331	0.225465	-0.071113	-0.465051	-0.343018	0.2229	-0.672607
779.0	8.346861	-2.388972	9.10005	0.055677	-0.339777	-0.563608	-0.349609	0.218262	-0.665527
780.0	7.437986	-1.282772	6.71456	0.33557	-0.429646	-0.623079	-0.354492	0.224854	-0.665771
781.0	7.063231	0.123823	6.134479	0.339351	-0.322761	-0.600593	-0.354004	0.213867	-0.660645
782.0	7.682571	0.728713	5.302933	0.353027	-0.180313	-0.56498	-0.358398	0.213867	-0.665283
783.0	8.674644	1.192649	5.386364	0.337117	0.160615	-0.536694	-0.355957	0.209473	-0.66748
784.0	9.804369	1.924239	6.140842	0.251224	0.416436	-0.508647	-0.35376	0.209473	-0.674561
785.0	11.05724	2.167268	6.640335	0.093442	0.581243	-0.497671	-0.35376	0.207275	-0.679199
786.0	12.929562	1.969027	6.878911	-0.013832	0.433915	-0.460996	-0.355957	0.207275	-0.679199
787.0	14.138891	1.47763	6.013847	-0.235027	0.245543	-0.423061	-0.351318	0.200684	-0.678955
788.0	13.649165	1.941655	4.879784	-0.136347	0.24132	-0.365506	-0.353516	0.200684	-0.676514
789.0	11.576143	2.355498	4.515944	-0.364492	0.251422	-0.248055	-0.35376	0.205078	-0.678955
790.0	10.243305	1.374121	3.646836	-0.535937	0.069919	-0.154371	-0.351563	0.207275	-0.676758
791.0	8.067478	0.74977	3.527286	-0.497132	0.220197	-0.087752	-0.347168	0.214111	-0.690918
792.0	5.688015	-0.019891	3.402257	-0.538361	0.24818	-0.054987	-0.351807	0.218506	-0.684082
793.0	5.098889	-0.802646	2.670483	-0.582396	0.15142	-0.048702	-0.345215	0.218506	-0.684082
794.0	5.172061	-1.907439	2.166742	-0.586917	0.113524	-0.024074	-0.349609	0.218506	-0.677246
795.0	5.63704	-2.440144	2.30861	-0.465277	0.003802	-0.013013	-0.352295	0.225098	-0.682129
796.0	6.295571	-2.297491	2.351122	-0.277019	-0.097727	0.049986	-0.352295	0.227295	-0.68457
797.0	6.868302	-2.286267	2.319407	-0.256411	-0.320342	0.12704	-0.349854	0.225098	-0.679688
798.0	6.776703	-2.614296	2.083011	-0.192493	-0.370842	0.214072	-0.350342	0.236084	-0.680176
799.0	5.960277	-2.573668	1.60044	0.070187	-0.265229	0.294895	-0.356689	0.225098	-0.682129
800.0	5.142805	-2.099475	1.567423	0.325454	-0.207323	0.35772	-0.356934	0.229492	-0.68457
801.0	5.031576	-1.936008	1.543746	0.281712	-0.2933	0.396924	-0.359131	0.227051	-0.675293
802.0	5.533641	-1.923983	1.466433	0.33796	-0.337416	0.41722	-0.358887	0.224854	-0.679688
803.0	5.969743	-1.574329	1.323875	0.518401	-0.247814	0.429811	-0.361328	0.227051	-0.679932
804.0	6.389105	-1.053571	1.308393	0.647339	-0.265615	0.461771	-0.359131	0.227295	-0.679932
805.0	6.936383	-0.93767	1.02949	0.694022	-0.364855	0.464343	-0.361328	0.224854	-0.682129
806.0	7.345857	-0.944911	0.567131	0.829392	-0.360069	0.44151	-0.363037	0.216064	-0.679443
807.0	7.727394	-0.700209	0.437703	0.963437	-0.271738	0.422654	-0.363037	0.216064	-0.688721
808.0	7.898768	-0.831232	0.578225	1.004991	-0.199256	0.395884	-0.36084	0.216064	-0.686279
809.0	8.381589	-0.66088	0.962616	1.155418	-0.161517	0.381895	-0.360596	0.209473	-0.683838
810.0	9.071771	-0.510122	1.30426	1.153201	-0.167474	0.359072	-0.367188	0.207275	-0.686035
811.0	9.97194	-0.839452	1.665867	1.133914	-0.204414	0.347795	-0.362305	0.198486	-0.678711
812.0	11.1364	-1.084237	1.922789	1.181327	-0.16643	0.348051	-0.362305	0.198486	-0.692627
813.0	12.270766	-0.845363	2.18512	1.195697	-0.075331	0.358164	-0.361816	0.185303	-0.689941
814.0	13.4233	-0.28668	2.733826	1.153945	-0.064454	0.406768	-0.362061	0.1875	-0.697021
815.0	14.479901	0.470116	2.851307	0.991737	-0.173817	0.453379	-0.37085	0.183105	-0.698975
816.0	15.499944	1.499378	2.570491	0.863248	-0.266099	0.493713	-0.368652	0.183105	-0.696777
817.0	15.690936	2.41278	1.734252	0.583624	-0.201048	0.525933	-0.366211	0.180908	-0.696777
818.0	14.693221	2.365315	1.066092	0.387786	-0.073596	0.50529	-0.368652	0.183105	-0.703613
819.0	13.499783	2.085645	0.271328	0.2711	0.043638	0.390715	-0.373047	0.180908	-0.703613
820.0	12.687843	1.714453	0.625271	0.105364	0.240773	0.23703	-0.368164	0.176514	-0.694092
821.0	13.414172	-0.102813	5.818969	-0.284349	0.822064	0.223871	-0.352783	0.183105	-0.701416
822.0	12.333907	-1.884962	11.786118	-0.014275	0.858176	0.384174	-0.355225	0.189697	-0.703857
823.0	12.607194	1.840106	11.694758	0.32723	-0.333195	0.369858	-0.362061	0.1875	-0.703857
824.0	15.359547	2.824716	6.866281	-0.59009	-0.649894	0.415977	-0.359863	0.191895	-0.699463
825.0	10.321225	1.27386	6.586538	-0.434033	0.184054	0.496163	-0.355469	0.196289	-0.706543
826.0	5.886534	2.463274	8.132824	-0.333761	-0.062224	0.404511	-0.362793	0.205078	-0.711426
827.0	5.755784	0.939634	5.012611	-0.749309	-0.283677	0.31255	-0.36499	0.205078	-0.702148
828.0	6.175255	-0.922786	3.95287	-0.581292	0.069448	0.227283	-0.363037	0.21167	-0.697754
829.0	6.889381	-0.999278	5.093679	-0.539191	0.40301	0.222163	-0.358398	0.211914	-0.707031
830.0	8.61761	-1.51933	6.286955	-0.726812	0.567702	0.262179	-0.349609	0.218506	-0.707275
831.0	10.783619	-2.588456	7.486405	-0.77511	0.748119	0.290357	-0.354492	0.2229	-0.709961
832.0	13.795156	-2.679822	7.622657	-0.573819	0.687167	0.286941	-0.350098	0.229492	-0.712402
833.0	16.629477	-1.878199	6.684678	-0.349517	0.510859	0.211231	-0.3479	0.227295	-0.709961
834.0	16.314057	-2.041782	5.285106	-0.260284	0.476973	0.075901	-0.338867	0.227295	-0.709961
835.0	12.1492	-2.754473	4.888176	0.038163	0.586895	-0.03974	-0.341309	0.231689	-0.717041
836.0	9.942239	-2.600665	5.338442	0.211847	0.137836	-0.125473	-0.345459	0.227295	-0.72168
837.0	8.626105	-2.4938	4.106034	0.385271	-0.020727	-0.137267	-0.345459	0.225098	-0.712158
838.0	7.183007	-1.663684	3.392624	0.499256	-0.008032	-0.129744	-0.343262	0.225098	-0.723877
839.0	6.035224	-0.69882	2.925365	0.487178	0.032866	-0.118453	-0.345215	0.216309	-0.714355
840.0	5.977514	0.041191	2.589742	0.459328	-0.001549	-0.114719	-0.347168	0.214111	-0.71875
841.0	5.723858	0.677725	2.41724	0.416609	0.121179	-0.09736	-0.344971	0.209717	-0.723389
842.0	5.264377	1.187621	2.585228	0.356026	0.156626	-0.106357	-0.342773	0.211914	-0.71875
843.0	5.148122	1.314445	2.87365	0.240447	0.160988	-0.123204	-0.344727	0.20752	-0.720947
844.0	5.36254	1.670055	2.436122	0.176443	0.047659	-0.172543	-0.344971	0.209717	-0.728027
845.0	5.491576	2.105246	2.403706	0.066833	-0.038733	-0.230491	-0.347168	0.209717	-0.71875
846.0	5.170843	1.662666	2.090043	-0.173851	-0.025988	-0.285258	-0.349365	0.209717	-0.730225
847.0	4.832321	1.35371	1.673304	-0.247014	-0.013099	-0.324413	-0.346924	0.205322	-0.720703
848.0	4.77332	1.38593	1.59558	-0.355614	0.027221	-0.353582	-0.349365	0.20752	-0.730225
849.0	4.897706	1.24493	1.479505	-0.543967	0.083353	-0.371597	-0.349365	0.209717	-0.728027
850.0	5.277719	1.069638	1.590243	-0.713958	0.201863	-0.358933	-0.349365	0.209717	-0.723389
851.0	5.772533	0.710586	1.420984	-0.821543	0.228301	-0.330614	-0.349609	0.214111	-0.723389
852.0	6.901409	0.570093	1.73268	-0.895629	0.11928	-0.3183	-0.349854	0.2229	-0.721436
853.0	7.713154	0.697718	1.545632	-0.980195	0.059523	-0.294036	-0.349854	0.2229	-0.716797
854.0	8.204837	0.475521	1.642016	-1.067062	-0.045614	-0.255861	-0.350342	0.231689	-0.719482
855.0	8.723356	0.44039	1.85035	-1.105903	-0.256175	-0.22462	-0.354736	0.233887	-0.714844
856.0	8.853888	0.612766	1.535054	-1.176004	-0.467705	-0.211597	-0.364258	0.242676	-0.706055
857.0	8.917777	0.320112	1.48136	-1.310282	-0.566577	-0.200378	-0.364258	0.244873	-0.710693
858.0	8.982095	-0.212381	1.660046	-1.280063	-0.501657	-0.185229	-0.366943	0.255859	-0.704102
859.0	9.295221	-0.776798	2.366141	-1.236746	-0.39371	-0.176576	-0.371582	0.258057	-0.692627
860.0	9.892453	-1.674439	2.595093	-1.143551	-0.330087	-0.18155	-0.371826	0.266846	-0.69751
861.0	10.85158	-1.787853	2.207887	-0.788023	-0.29157	-0.215332	-0.376465	0.266846	-0.702148
862.0	12.195491	-1.195866	1.911079	-0.539536	-0.222334	-0.263117	-0.383301	0.269043	-0.695313
863.0	13.478609	-1.21009	1.806961	-0.319098	-0.081591	-0.305634	-0.380859	0.266846	-0.692871
864.0	14.518897	-1.293831	2.020458	-0.110243	-0.068989	-0.351281	-0.380859	0.266846	-0.692871
865.0	15.388713	-1.485397	1.803909	-0.123671	-0.190755	-0.395948	-0.387451	0.258057	-0.687988
866.0	15.347248	-1.193707	0.912394	-0.105532	-0.147998	-0.377523	-0.391846	0.257813	-0.692627
867.0	14.513734	-0.480559	0.489063	-0.103688	-0.030766	-0.275527	-0.387451	0.260254	-0.69043
868.0	13.787403	-0.085378	2.426181	-0.155014	0.160591	-0.179391	-0.389648	0.260254	-0.692627
869.0	13.271528	-0.763371	7.425018	-0.181059	0.531175	-0.138077	-0.382568	0.253662	-0.690186
870.0	13.304014	-2.440971	9.678792	-0.312438	0.177447	-0.196823	-0.394043	0.257813	-0.692627
871.0	13.092627	-2.853126	6.918943	0.173287	-0.187386	-0.318019	-0.391846	0.255615	-0.690186
872.0	10.58587	-1.076452	7.589619	0.617602	-0.091734	-0.455148	-0.395752	0.244629	-0.692139
873.0	7.989009	-2.010675	9.577807	0.147124	-0.358976	-0.543048	-0.405029	0.246826	-0.692139
874.0	7.195486	-3.026845	7.210964	0.321375	-0.525039	-0.610662	-0.404785	0.240234	-0.689453
875.0	5.742153	-1.107303	6.247539	0.525282	-0.432417	-0.613224	-0.408936	0.233643	-0.687012
876.0	5.564199	-0.311336	5.277567	0.392384	-0.357129	-0.561382	-0.417725	0.227051	-0.693604
877.0	6.723485	0.497286	4.617924	0.508469	-0.051697	-0.528403	-0.412842	0.218018	-0.688721
878.0	8.213184	1.369798	5.249754	0.549097	0.367465	-0.538457	-0.414795	0.211426	-0.693115
879.0	9.66521	1.582537	6.325809	0.463444	0.663726	-0.539435	-0.407715	0.204834	-0.695313
880.0	10.899769	1.101406	6.963574	0.331191	0.631298	-0.548591	-0.412354	0.207031	-0.699951
881.0	12.747516	0.757903	6.507093	0.251356	0.387538	-0.579099	-0.409424	0.189453	-0.706299
882.0	14.429104	1.253359	5.822946	0.234294	0.270493	-0.574968	-0.411865	0.193848	-0.704102
883.0	14.110454	2.250334	5.095545	0.156799	0.149707	-0.497968	-0.411621	0.187256	-0.708496
884.0	12.075581	2.75398	4.259672	-0.091894	0.080605	-0.356879	-0.413818	0.189453	-0.70166
885.0	10.233292	2.301594	3.476078	-0.314421	-0.025224	-0.240165	-0.411377	0.185059	-0.703857
886.0	8.33627	1.290583	3.40478	-0.367121	0.081489	-0.154667	-0.411621	0.187256	-0.701416
887.0	6.573605	0.365881	3.168025	-0.449524	0.099864	-0.094536	-0.41626	0.189453	-0.703857
888.0	5.741239	-0.622588	2.603841	-0.517357	0.11715	-0.06612	-0.416504	0.196045	-0.704102
889.0	5.622572	-1.541067	2.12364	-0.472331	0.120519	-0.044966	-0.418457	0.19165	-0.70166
890.0	5.805355	-2.208942	1.915668	-0.367697	0.001263	-0.010722	-0.418457	0.19165	-0.704102
891.0	6.541965	-2.470931	2.205893	-0.185031	-0.124523	0.059604	-0.420654	0.189453	-0.70166
892.0	7.209677	-2.391582	2.224506	-0.123551	-0.317616	0.131726	-0.418701	0.196045	-0.699463
893.0	6.921661	-2.652957	1.656448	0.070394	-0.338807	0.230671	-0.42334	0.198242	-0.697266
894.0	5.866358	-2.725239	1.298169	0.219983	-0.258754	0.314676	-0.425293	0.19165	-0.694824
895.0	5.372104	-2.215727	1.310914	0.413361	-0.322534	0.382048	-0.431885	0.187256	-0.696777
896.0	5.16307	-2.339337	1.280566	0.408717	-0.325653	0.43433	-0.434082	0.187256	-0.692139
897.0	5.414389	-2.238803	1.235381	0.570685	-0.340745	0.459099	-0.431885	0.189453	-0.697021
898.0	5.766276	-1.584994	1.197817	0.75876	-0.296762	0.478088	-0.436279	0.185059	-0.696777
899.0	6.010648	-1.205076	0.873514	0.864856	-0.313095	0.492028	-0.437988	0.173828	-0.703369
900.0	6.443002	-0.824095	0.798115	0.994978	-0.374391	0.491087	-0.440674	0.18042	-0.694336
901.0	6.846461	-0.598753	0.729618	1.092235	-0.425934	0.472203	-0.44458	0.165039	-0.691406
902.0	7.261715	-0.571971	0.703303	1.164615	-0.468573	0.450424	-0.453613	0.167236	-0.700684
903.0	7.593138	-0.644962	0.612778	1.248837	-0.417486	0.431288	-0.446533	0.160645	-0.702881
904.0	8.456124	-0.44249	1.016763	1.315331	-0.363329	0.404284	-0.453125	0.15625	-0.691162
905.0	9.360786	-0.687881	1.382577	1.255747	-0.198028	0.379207	-0.450439	0.143066	-0.706787
906.0	10.232878	-1.02188	1.934394	1.285549	-0.072781	0.348085	-0.456787	0.136475	-0.699707
907.0	11.004588	-0.854854	2.512793	1.340239	0.094315	0.326072	-0.454346	0.129883	-0.706299
908.0	11.567742	-0.194561	2.556744	1.349626	0.126692	0.317671	-0.454102	0.125488	-0.710693
909.0	13.161141	0.747428	2.644527	1.150554	-0.05847	0.31082	-0.456055	0.114258	-0.705811
910.0	15.034713	1.716912	2.255513	0.873021	-0.06512	0.347054	-0.456055	0.114258	-0.708008
911.0	16.204289	2.645895	1.908938	0.644514	-0.039427	0.390018	-0.460205	0.107666	-0.696289
912.0	16.489804	3.115144	1.019996	0.340247	0.033788	0.432853	-0.460205	0.109863	-0.705566
913.0	16.126426	2.863688	-0.027343	0.192125	0.140129	0.43174	-0.460205	0.109863	-0.719482
914.0	15.452968	2.285369	0.13223	0.004185	0.44901	0.375409	-0.455811	0.112061	-0.710205
915.0	15.598781	0.99228	3.024456	-0.339551	0.852492	0.303408	-0.448975	0.109863	-0.721924
916.0	15.299169	0.438135	8.313164	-0.393236	1.23125	0.314548	-0.453857	0.118896	-0.722168
917.0	13.53992	2.482954	10.806565	-0.225145	0.432383	0.316299	-0.45166	0.121094	-0.719971
918.0	14.829198	2.365599	7.898908	-0.848962	-0.591392	0.308735	-0.451904	0.125488	-0.724854
919.0	12.061473	-0.230861	5.730251	-0.840131	-0.165072	0.339521	-0.456543	0.129883	-0.715576
920.0	7.752266	0.853624	7.247961	-0.342297	0.039241	0.222893	-0.461182	0.13208	-0.718018
921.0	6.675496	0.279095	6.10584	-0.6434	-0.095	0.136103	-0.45459	0.138672	-0.720703
922.0	6.280141	-1.114345	4.856935	-0.396352	0.08071	0.111086	-0.459229	0.140869	-0.720703
923.0	5.906266	-1.227318	5.438498	-0.307661	0.312678	0.148813	-0.461426	0.136475	-0.713623
924.0	6.442687	-1.754659	5.557661	-0.510558	0.420567	0.248565	-0.455078	0.147461	-0.720947
925.0	8.320926	-2.154447	6.315185	-0.566383	0.68065	0.398378	-0.455078	0.147461	-0.725586
926.0	9.99499	-2.156779	6.635856	-0.573569	0.746313	0.492636	-0.446289	0.154053	-0.723389
927.0	13.172138	-1.222419	6.256235	-0.42428	0.656932	0.468912	-0.448486	0.151855	-0.72583
928.0	16.304816	-0.994117	6.308679	-0.384022	0.785993	0.401411	-0.439697	0.158691	-0.737549
929.0	15.600182	-1.38722	6.019274	-0.269329	0.838495	0.252585	-0.437744	0.163086	-0.735352
930.0	12.026798	-1.92272	5.047481	-0.053743	0.593156	0.058719	-0.437744	0.163086	-0.73999
931.0	10.355604	-2.002288	4.809414	0.131478	0.210731	-0.066644	-0.439697	0.158691	-0.73999
932.0	8.999997	-2.108141	4.208758	0.330594	0.126549	-0.132767	-0.437744	0.165283	-0.740234
933.0	6.847327	-1.260007	3.79237	0.484686	0.159222	-0.131733	-0.439697	0.15625	-0.739746
934.0	5.751722	-0.274252	3.200011	0.511309	0.087198	-0.120058	-0.443848	0.147461	-0.751221
935.0	5.449152	0.434058	2.638066	0.417941	0.122737	-0.101842	-0.432373	0.143066	-0.743896
936.0	5.308415	0.669335	2.437918	0.338609	0.232458	-0.080378	-0.436768	0.138672	-0.750732
937.0	4.88804	1.21169	2.579603	0.334588	0.373046	-0.05835	-0.438965	0.138672	-0.748535
938.0	4.592302	1.276709	2.913216	0.156045	0.428254	-0.039882	-0.432373	0.141113	-0.757813
939.0	4.879701	1.499775	2.70889	0.128154	0.302229	-0.067937	-0.429688	0.134277	-0.755371
940.0	4.88161	1.892703	2.512585	-0.0586	0.248333	-0.101543	-0.432373	0.143311	-0.753174
941.0	4.859104	1.707746	2.151157	-0.222426	0.11742	-0.159951	-0.434326	0.136475	-0.75293
942.0	5.040369	1.890461	2.195645	-0.265331	0.068153	-0.232861	-0.439209	0.143066	-0.760254
943.0	4.986599	1.668294	2.071902	-0.482258	0.130951	-0.282302	-0.441406	0.140869	-0.750977
944.0	4.742208	1.777816	1.932554	-0.510458	0.1359	-0.338517	-0.434814	0.145508	-0.760254
945.0	5.211891	1.672994	2.114453	-0.710214	0.05922	-0.377945	-0.439209	0.145264	-0.753418
946.0	5.680542	1.064706	2.024379	-0.872215	-0.056121	-0.404955	-0.437012	0.145508	-0.755615
947.0	5.941659	0.889305	1.891897	-0.96187	-0.146733	-0.409982	-0.437256	0.1521	-0.755859
948.0	6.384828	0.658116	1.819517	-1.062179	-0.32713	-0.421443	-0.441895	0.154297	-0.751465
949.0	7.182658	0.562506	1.489201	-1.13328	-0.544661	-0.424976	-0.441895	0.158691	-0.744629
950.0	7.936037	0.581027	1.080554	-1.202259	-0.64645	-0.410606	-0.451172	0.160645	-0.737793
951.0	8.518865	0.414831	1.077443	-1.348919	-0.631963	-0.386372	-0.458252	0.169434	-0.735596
952.0	9.067835	0.285747	1.196222	-1.345636	-0.633195	-0.353222	-0.45874	0.180664	-0.740723
953.0	9.907933	0.082075	1.564206	-1.366475	-0.511878	-0.313824	-0.463135	0.178223	-0.724365
954.0	10.751407	-1.010698	2.039572	-1.32666	-0.323815	-0.260743	-0.467773	0.182617	-0.724609
955.0	11.801696	-1.890085	2.231009	-1.118898	-0.239782	-0.22652	-0.470215	0.189209	-0.727051
956.0	12.819797	-2.363619	2.267305	-0.826693	-0.229528	-0.197187	-0.470459	0.193604	-0.722656
957.0	13.941768	-2.623142	2.170338	-0.578859	-0.284962	-0.189786	-0.4729	0.197998	-0.720459
958.0	14.931907	-3.14704	1.490407	-0.350091	-0.313802	-0.205701	-0.477295	0.197998	-0.725098
959.0	15.462996	-3.015097	0.745442	-0.132394	-0.27243	-0.240278	-0.474854	0.193604	-0.720215
960.0	14.856568	-2.361767	0.460787	-0.009322	-0.051349	-0.228126	-0.479492	0.195801	-0.718018
961.0	13.724869	-1.718539	0.652054	0.018999	0.035108	-0.164934	-0.481445	0.189209	-0.717773
962.0	12.827728	-0.849089	0.794641	0.071422	0.123176	-0.078188	-0.479492	0.195801	-0.722656
963.0	12.861652	-0.217542	4.196449	0.174403	0.480316	-0.027647	-0.479248	0.189209	-0.724854
964.0	12.124345	-0.844962	9.230212	0.185978	0.521787	-0.063347	-0.479492	0.191406	-0.729492
965.0	12.385677	-1.613702	8.770547	0.277138	-0.038599	-0.134724	-0.479004	0.182617	-0.731445
966.0	11.670923	-1.271094	7.571978	0.630579	-0.086644	-0.228754	-0.479004	0.182617	-0.726807
967.0	8.967545	-1.728143	9.490587	0.592832	-0.140892	-0.320514	-0.480713	0.169434	-0.726318
968.0	7.916934	-3.27473	8.772079	0.468186	-0.446279	-0.427214	-0.48999	0.173828	-0.719482
969.0	6.887692	-2.222488	6.788235	0.81381	-0.398383	-0.468294	-0.482666	0.160645	-0.723633
970.0	6.359688	-0.405814	6.379371	0.764628	-0.321673	-0.473714	-0.491699	0.1604	-0.721436
971.0	7.364956	0.075591	5.766902	0.727181	-0.107542	-0.440347	-0.489014	0.149414	-0.720947
972.0	8.675048	1.151191	5.957152	0.848383	0.230667	-0.448348	-0.490967	0.14502	-0.727783
973.0	10.064795	1.908708	6.573138	0.712169	0.446569	-0.425549	-0.49292	0.138428	-0.725098
974.0	11.651215	1.770622	7.072913	0.551205	0.573413	-0.383628	-0.486084	0.134033	-0.729736
975.0	13.855041	1.907204	7.633493	0.486019	0.499441	-0.362414	-0.481689	0.134033	-0.734375
976.0	15.270865	2.040494	6.963879	0.307994	0.305972	-0.32816	-0.481201	0.127441	-0.734131
977.0	14.747132	2.529095	5.647826	0.207361	0.163456	-0.288138	-0.481201	0.125244	-0.731689
978.0	12.282099	2.945546	4.779336	-0.015573	0.148249	-0.196964	-0.481445	0.129639	-0.73877
979.0	9.976372	1.929638	4.418523	-0.177786	0.087304	-0.109556	-0.481201	0.123047	-0.731689
980.0	8.04463	0.980838	4.121672	-0.221954	0.102168	-0.055995	-0.477051	0.131836	-0.739014
981.0	6.884232	0.072328	3.245102	-0.313941	0.088711	-0.025845	-0.479248	0.131836	-0.739014
982.0	5.922566	-0.879312	2.56042	-0.301592	0.168623	-0.009698	-0.474854	0.136475	-0.746094
983.0	5.274467	-1.555004	2.312902	-0.201522	0.237324	-0.004367	-0.477051	0.131836	-0.741211
984.0	5.400406	-2.095725	2.413616	-0.141398	0.131927	0.015949	-0.474854	0.136475	-0.741455
985.0	6.380979	-2.354115	2.593378	-0.075694	-0.061014	0.055839	-0.477051	0.13623	-0.739014
986.0	7.060457	-2.426471	2.347498	0.05045	-0.176335	0.132751	-0.484131	0.140625	-0.734619
987.0	6.8706	-2.521916	2.135292	0.164972	-0.18393	0.232816	-0.475098	0.138672	-0.732178
988.0	6.096339	-2.35729	1.863341	0.343108	-0.157016	0.290772	-0.477539	0.143066	-0.739258
989.0	5.240793	-2.165791	1.69713	0.455816	-0.199072	0.345326	-0.488281	0.131836	-0.734375
990.0	5.051207	-2.006093	1.800465	0.503045	-0.25517	0.378328	-0.486084	0.134033	-0.731934
991.0	5.032132	-1.867042	1.581623	0.612903	-0.29153	0.401477	-0.488281	0.131836	-0.734375
992.0	5.252277	-1.148108	1.332572	0.789541	-0.299638	0.411437	-0.490479	0.131836	-0.734375
993.0	5.477084	-0.638778	1.159714	0.801163	-0.299464	0.430206	-0.490479	0.129639	-0.731934
994.0	6.067338	-0.314183	0.965579	0.860575	-0.392616	0.426881	-0.492432	0.125244	-0.727051
995.0	6.53217	0.148947	0.715064	0.924025	-0.433799	0.420216	-0.499268	0.127441	-0.729492
996.0	6.916741	0.295144	0.679959	0.887971	-0.455863	0.398401	-0.49707	0.125244	-0.724609
997.0	7.426826	0.254433	0.600156	0.88926	-0.426184	0.371781	-0.499268	0.123047	-0.722412
998.0	7.532723	0.326448	0.703454	0.933855	-0.319805	0.33321	-0.501221	0.116455	-0.722168
999.0	7.826284	0.51179	1.029193	0.908087	-0.399295	0.277759	-0.505371	0.111816	-0.719482
1000.0	8.834033	0.397287	0.695197	0.811524	-0.441701	0.220149	-0.503174	0.111816	-0.717285
1001.0	9.90617	0.073439	0.853278	0.757329	-0.236595	0.170269	-0.505371	0.107422	-0.72168
1002.0	10.608004	-0.273983	2.017296	0.755681	0.037729	0.143641	-0.507324	0.103027	-0.7146
1003.0	11.228556	-0.118869	3.065922	0.766973	0.055161	0.130929	-0.502686	0.098633	-0.718994
1004.0	12.345624	0.277571	3.166948	0.657148	-0.130289	0.139788	-0.509277	0.096436	-0.714355
1005.0	14.067983	0.976698	2.515254	0.506664	-0.287217	0.168551	-0.50708	0.096436	-0.714355
1006.0	15.71557	1.740797	1.970597	0.313326	-0.218146	0.251288	-0.509277	0.096436	-0.711914
1007.0	16.372809	1.617733	1.56438	0.030166	-0.13103	0.333816	-0.50708	0.098633	-0.716797
1008.0	15.351582	1.038732	0.45072	-0.052268	-0.090931	0.375723	-0.509521	0.10083	-0.7146
1009.0	14.182195	0.672512	-0.14777	-0.054818	-0.061443	0.353764	-0.516357	0.10083	-0.705322
1010.0	13.297517	0.323868	-0.632816	0.001297	-0.000974	0.274642	-0.516357	0.105225	-0.709961
1011.0	13.165496	-0.105243	1.151242	-0.017662	0.115876	0.201455	-0.507568	0.109619	-0.707764
1012.0	13.99192	-2.357463	7.188466	-0.254079	0.813592	0.317032	-0.507813	0.114014	-0.721924
1013.0	11.467948	-3.600113	11.312411	0.165988	0.650141	0.521627	-0.498779	0.111816	-0.708008
1014.0	13.074084	0.398841	11.107978	0.394215	-0.652354	0.553325	-0.510498	0.122803	-0.717773
1015.0	14.644936	2.108218	7.158978	-0.204095	-0.570797	0.754181	-0.501221	0.12085	-0.708252
1016.0	10.117203	3.480021	8.556326	0.051425	-0.040777	0.900282	-0.506348	0.131836	-0.706299
1017.0	6.433504	4.899867	9.151149	-0.407872	-0.369428	0.892707	-0.513184	0.13623	-0.713379
1018.0	5.440026	1.896292	5.170668	-0.980775	-0.487364	0.812397	-0.51123	0.14502	-0.70459
1019.0	5.586635	0.019816	4.697324	-0.844861	-0.08388	0.68202	-0.511963	0.162598	-0.695801
1020.0	6.027689	-0.529739	5.269505	-0.921141	0.268941	0.529746	-0.509766	0.164795	-0.700684
1021.0	8.220894	-0.750359	5.692468	-0.895408	0.581912	0.435085	-0.505615	0.173584	-0.705566
1022.0	10.904092	-0.976092	7.372023	-0.913613	0.975479	0.417965	-0.499268	0.18457	-0.703613
1023.0	12.668608	-1.099447	7.534154	-0.764538	0.956421	0.32094	-0.492432	0.182617	-0.703613
1024.0	15.896716	-1.452578	6.535895	-0.641999	0.687408	0.16786	-0.488037	0.184814	-0.712891
1025.0	16.716238	-3.307333	5.308472	-0.489407	0.717031	-0.012687	-0.483643	0.184814	-0.712891
1026.0	13.260316	-4.212601	5.363274	-0.111675	0.579856	-0.219249	-0.479492	0.193604	-0.710938
1027.0	10.556207	-3.58156	5.024187	0.127138	0.157044	-0.336999	-0.488281	0.191406	-0.713135
1028.0	8.818074	-2.912504	4.179066	0.287277	0.031701	-0.354836	-0.488281	0.189209	-0.708496
1029.0	7.634543	-1.901271	3.430972	0.372493	0.020107	-0.312988	-0.481445	0.184814	-0.712891
1030.0	6.970224	-0.979532	2.878471	0.359707	0.072847	-0.264376	-0.48584	0.182617	-0.710693
1031.0	6.845567	-0.326524	2.596076	0.321948	0.106741	-0.234792	-0.490234	0.182617	-0.708252
1032.0	6.476528	0.199091	2.538343	0.311452	0.234212	-0.232505	-0.483398	0.182617	-0.715332
1033.0	6.186572	0.692563	2.65921	0.287647	0.289076	-0.239943	-0.480957	0.173828	-0.712646
1034.0	6.396256	1.257913	2.514917	0.270228	0.212753	-0.284582	-0.47876	0.176025	-0.719727
1035.0	6.333319	1.948012	2.436477	0.226453	0.280532	-0.367816	-0.480713	0.169434	-0.714844
1036.0	5.922012	2.281205	2.054908	0.04218	0.333593	-0.452886	-0.478516	0.171631	-0.721924
1037.0	5.490085	2.43357	1.997489	-0.090394	0.355986	-0.527005	-0.480469	0.165039	-0.721436
1038.0	5.324284	2.41475	2.046616	-0.259967	0.339075	-0.589635	-0.485352	0.169434	-0.72168
1039.0	5.235413	2.440714	2.108437	-0.388015	0.28752	-0.631846	-0.480713	0.167236	-0.7146
1040.0	5.057549	2.073523	2.005333	-0.607658	0.255851	-0.632071	-0.47168	0.169434	-0.719482
1041.0	5.235205	1.57661	1.903962	-0.726746	0.165458	-0.591836	-0.480713	0.169434	-0.717041
1042.0	5.541462	1.243996	1.807726	-0.858322	-0.003324	-0.543951	-0.476318	0.173828	-0.712646
1043.0	5.781486	0.570309	1.573054	-1.031737	-0.162645	-0.482472	-0.47876	0.178223	-0.712646
1044.0	6.069623	0.332692	1.294764	-1.093182	-0.349307	-0.411022	-0.483398	0.182617	-0.708252
1045.0	6.510828	0.444398	1.228167	-1.200841	-0.476367	-0.355208	-0.492676	0.187012	-0.706055
1046.0	7.126442	-0.134086	0.843624	-1.33594	-0.550036	-0.306021	-0.495361	0.197998	-0.701904
1047.0	7.630611	-0.179376	0.403367	-1.308651	-0.582441	-0.2616	-0.497559	0.195801	-0.687744
1048.0	8.313705	-0.327856	0.35113	-1.389035	-0.584501	-0.232596	-0.498291	0.211182	-0.688477
1049.0	9.112193	-0.959391	0.561305	-1.338734	-0.508075	-0.193072	-0.502686	0.211182	-0.681396
1050.0	9.92358	-1.372051	1.31251	-1.10729	-0.292017	-0.156823	-0.505615	0.226563	-0.684326
1051.0	10.432801	-1.820178	2.051066	-0.902926	-0.141475	-0.139275	-0.51001	0.224365	-0.679688
1052.0	11.194996	-2.343001	2.409291	-0.648528	-0.120378	-0.128028	-0.510498	0.237549	-0.673096
1053.0	12.247787	-2.443368	2.341969	-0.341164	-0.223904	-0.148569	-0.508057	0.230957	-0.670654
1054.0	13.579266	-2.211684	1.89878	-0.157296	-0.31031	-0.195265	-0.508057	0.235352	-0.668457
1055.0	14.951577	-2.273411	1.449564	-0.108818	-0.285687	-0.255231	-0.519043	0.226318	-0.66333
1056.0	15.631022	-2.085441	0.931925	-0.00432	-0.18035	-0.286671	-0.512451	0.22876	-0.658936
1057.0	15.095966	-1.045273	0.910938	0.057122	5.3e-05	-0.257528	-0.512207	0.226563	-0.661133
1058.0	14.356111	-0.080627	0.878654	0.02656	0.04194	-0.160119	-0.512451	0.22876	-0.663574
1059.0	13.53543	1.000295	1.285291	0.077641	0.114377	-0.033671	-0.516846	0.226318	-0.658691
1060.0	13.012192	1.670538	4.901106	0.01425	0.346027	0.050404	-0.51709	0.233154	-0.663574
1061.0	11.667873	0.583528	8.567955	-0.236494	0.287907	0.065162	-0.51709	0.230957	-0.668213
1062.0	11.94274	-1.228536	7.268266	-0.182796	-0.21668	-0.050854	-0.512451	0.233154	-0.663574
1063.0	11.092152	-1.214987	6.681644	0.280703	-0.183854	-0.227477	-0.519287	0.23291	-0.658936
1064.0	8.128462	-2.048616	9.003995	0.223689	-0.170029	-0.388607	-0.521484	0.228516	-0.658936
1065.0	7.17312	-3.643297	8.482077	0.266746	-0.437448	-0.547825	-0.52124	0.224121	-0.658691
1066.0	6.371963	-2.601178	6.941191	0.625566	-0.356054	-0.642868	-0.525635	0.221924	-0.658691
1067.0	5.631026	-1.261568	6.377768	0.647362	-0.374188	-0.651704	-0.527344	0.210938	-0.653564
1068.0	6.886775	-0.521958	5.400668	0.707772	-0.216524	-0.620943	-0.531738	0.204346	-0.650879
1069.0	8.319664	0.388079	5.347012	0.763751	0.195205	-0.58149	-0.533691	0.199951	-0.666992
1070.0	9.366104	1.175855	5.847737	0.699568	0.394806	-0.528439	-0.53125	0.193359	-0.659912
1071.0	10.928028	1.88365	6.372261	0.519917	0.455598	-0.449679	-0.52417	0.18457	-0.659668
1072.0	13.05243	1.965338	6.580189	0.356243	0.485039	-0.364183	-0.526855	0.193359	-0.666748
1073.0	14.732768	2.30566	6.363427	0.370592	0.398607	-0.297703	-0.523926	0.182373	-0.671143
1074.0	16.0596	3.395837	5.553053	0.151134	0.043126	-0.25188	-0.52417	0.186768	-0.666504
1075.0	14.002433	3.730783	4.087556	-0.161066	0.052434	-0.166911	-0.526367	0.182373	-0.661865
1076.0	10.007901	2.30279	4.018095	-0.329067	0.060611	-0.12676	-0.528809	0.188965	-0.666748
1077.0	8.672134	1.433293	4.195231	-0.426238	-0.073605	-0.077012	-0.526367	0.186768	-0.664307
1078.0	7.033043	0.100547	2.920085	-0.504696	0.045574	-0.02067	-0.529053	0.195557	-0.664551
1079.0	5.792126	-0.827383	2.716672	-0.45217	0.188608	-0.006601	-0.526611	0.191162	-0.666748
1080.0	5.740449	-1.455066	2.397105	-0.416575	0.177821	0.021691	-0.529297	0.199951	-0.664795
1081.0	6.316241	-2.372507	1.913815	-0.436032	0.008051	0.071255	-0.524658	0.199951	-0.664795
1082.0	7.223627	-2.905336	2.114262	-0.243934	-0.038408	0.131318	-0.524902	0.204346	-0.669678
1083.0	7.580528	-2.80333	2.518693	-0.081647	-0.107865	0.201144	-0.524902	0.206543	-0.6604
1084.0	7.156323	-3.157554	2.09106	-0.059572	-0.205975	0.272203	-0.525146	0.20874	-0.658203
1085.0	6.596699	-3.015706	1.561658	0.27512	-0.281752	0.357169	-0.527344	0.20874	-0.658203
1086.0	6.18822	-2.564144	1.613649	0.375414	-0.23899	0.440859	-0.527344	0.210938	-0.66748
1087.0	5.547992	-2.647653	1.392997	0.437389	-0.191282	0.501853	-0.527344	0.210938	-0.662842
1088.0	5.634627	-2.249957	1.691791	0.655929	-0.277912	0.526714	-0.530029	0.217529	-0.658447
1089.0	5.960237	-1.753097	1.67174	0.717342	-0.323383	0.546462	-0.529785	0.210938	-0.658203
1090.0	6.168358	-1.187695	1.087029	0.871107	-0.37552	0.542917	-0.532227	0.217529	-0.660889
1091.0	6.35039	-0.3131	0.771837	0.984207	-0.429383	0.537664	-0.536377	0.206543	-0.6604
1092.0	6.754133	0.056219	0.610916	0.943621	-0.507329	0.524131	-0.538818	0.210938	-0.656006
1093.0	6.943888	0.075845	0.660059	0.956287	-0.506679	0.478844	-0.536377	0.206543	-0.65332
1094.0	6.981821	0.240373	0.776053	1.037752	-0.505015	0.430571	-0.536377	0.206543	-0.655762
1095.0	7.126257	0.275786	0.706319	1.011015	-0.461711	0.386711	-0.542725	0.199951	-0.655518
1096.0	7.780991	0.006576	0.421104	0.939082	-0.461963	0.327816	-0.542969	0.202148	-0.655518
1097.0	8.699698	-0.260902	0.167411	0.911177	-0.317874	0.272242	-0.544678	0.193115	-0.657471
1098.0	9.350107	-0.488174	0.871828	0.91693	-0.035661	0.216884	-0.542725	0.197754	-0.659912
1099.0	10.001984	-0.450274	2.236546	0.885601	0.180608	0.188622	-0.542236	0.186523	-0.664307
1100.0	10.878935	-0.324405	3.077834	0.812772	0.259786	0.171802	-0.535889	0.195557	-0.669189
1101.0	12.277963	0.467141	3.036399	0.732839	0.127861	0.138608	-0.540039	0.186523	-0.671143
1102.0	14.243418	1.84724	2.655126	0.502749	0.014619	0.146827	-0.529053	0.193359	-0.669189
1103.0	16.348838	2.675881	2.429189	0.11693	-0.118431	0.192421	-0.537842	0.186768	-0.671143
1104.0	16.833697	2.697474	1.683862	-0.188625	-0.066142	0.25762	-0.542725	0.197754	-0.666992
1105.0	15.388468	1.805757	0.46698	-0.310344	0.000687	0.280649	-0.533691	0.199951	-0.669434
1106.0	13.749925	0.914898	0.114699	-0.253722	0.051813	0.222336	-0.536133	0.204346	-0.671875
1107.0	12.868596	0.206925	-0.397605	-0.268807	0.110484	0.109638	-0.533936	0.202148	-0.678711
1108.0	12.965525	-0.519202	0.565674	-0.329606	0.337443	0.011865	-0.529541	0.206543	-0.676514
1109.0	13.137298	-2.990976	5.644264	-0.518431	1.030438	0.096576	-0.525391	0.217529	-0.690918
1110.0	10.637464	-4.757728	10.238901	-0.099191	0.845854	0.271913	-0.523193	0.215332	-0.693115
1111.0	11.78364	-1.481095	10.213919	0.252392	-0.526925	0.336023	-0.522949	0.213135	-0.693115
1112.0	13.775458	0.218214	6.059612	-0.155347	-0.585599	0.470759	-0.530029	0.217529	-0.686279
1113.0	9.985843	1.139015	6.979365	0.105975	0.202012	0.607221	-0.525635	0.219727	-0.697998
1114.0	6.170669	3.017053	9.344461	-0.023874	-0.167149	0.629066	-0.530518	0.230957	-0.696045
1115.0	6.060784	1.304529	5.413483	-0.601254	-0.61558	0.609001	-0.52832	0.230957	-0.693848
1116.0	6.640779	0.022791	4.282437	-0.480525	-0.223655	0.525321	-0.52417	0.239746	-0.694092
1117.0	6.824042	-0.654003	5.124437	-0.708476	0.195638	0.47823	-0.526611	0.246338	-0.6875
1118.0	8.313522	-1.046563	5.754487	-0.744976	0.392822	0.416399	-0.517822	0.25293	-0.692383
1119.0	10.591898	-0.940798	6.713936	-0.743537	0.702154	0.415047	-0.522461	0.25293	-0.699219
1120.0	12.876675	-0.211665	6.710461	-0.645342	0.692449	0.325846	-0.511719	0.266113	-0.699707
1121.0	15.746572	-0.398373	5.563935	-0.63793	0.564581	0.191189	-0.509521	0.266357	-0.706787
1122.0	16.606615	-1.783488	4.929509	-0.501159	0.676498	0.022812	-0.502686	0.266357	-0.711426
1123.0	14.050543	-2.814391	5.087094	-0.256421	0.579188	-0.163645	-0.50708	0.261963	-0.718262
1124.0	11.485651	-2.946389	4.56218	-0.061074	0.256599	-0.266648	-0.505127	0.268555	-0.713867
1125.0	9.713047	-2.435266	3.821225	0.123879	0.144601	-0.298916	-0.506836	0.257568	-0.718018
1126.0	8.827087	-1.762193	3.314967	0.183638	0.096467	-0.291326	-0.502686	0.26416	-0.720459
1127.0	7.865354	-0.705053	2.694292	0.242468	0.169042	-0.260887	-0.504639	0.257568	-0.727295
1128.0	7.594079	0.11127	2.641808	0.139571	0.174216	-0.243917	-0.506592	0.253174	-0.720215
1129.0	7.239486	0.337256	2.558079	0.034412	0.209568	-0.258564	-0.499756	0.248779	-0.731689
1130.0	6.816241	0.791017	2.522751	0.009091	0.261292	-0.278145	-0.502197	0.253174	-0.729492
1131.0	6.459628	1.203802	2.531531	-0.045965	0.316668	-0.321329	-0.499512	0.244385	-0.740723
1132.0	6.138656	1.61489	2.348846	-0.115325	0.333453	-0.374471	-0.506348	0.244385	-0.731445
1133.0	6.085175	2.087849	2.264047	-0.189124	0.257233	-0.449126	-0.501709	0.244385	-0.740723
1134.0	5.744075	2.355957	2.000842	-0.388203	0.266849	-0.534371	-0.50415	0.244385	-0.743164
1135.0	5.721967	2.055812	1.821331	-0.516461	0.22747	-0.607758	-0.503906	0.237793	-0.754395
1136.0	5.58405	2.058415	1.774948	-0.585609	0.301493	-0.650356	-0.501709	0.244385	-0.75
1137.0	5.370906	1.563467	1.842664	-0.755964	0.348245	-0.663965	-0.499512	0.23999	-0.752197
1138.0	5.405056	0.998969	1.849818	-0.831838	0.298911	-0.645305	-0.50415	0.246582	-0.75708
1139.0	5.634347	0.527608	1.605092	-0.974821	0.20939	-0.604677	-0.50415	0.246582	-0.752441
1140.0	5.904215	0.00012	1.521739	-1.08198	0.082479	-0.542586	-0.499756	0.250977	-0.754883
1141.0	6.346354	-0.275094	1.398184	-1.188405	-0.076127	-0.477188	-0.502197	0.253174	-0.752686
1142.0	7.031895	-0.320826	1.531126	-1.294568	-0.242232	-0.418159	-0.50708	0.261963	-0.748291
1143.0	7.509949	-0.415592	1.258454	-1.3685	-0.363435	-0.357672	-0.513916	0.266357	-0.746094
1144.0	7.883342	-0.357277	1.157701	-1.387285	-0.461901	-0.308814	-0.516602	0.272949	-0.739502
1145.0	8.319519	-0.2809	1.071562	-1.421357	-0.498645	-0.272079	-0.516602	0.275146	-0.739502
1146.0	8.95038	-0.478211	1.119216	-1.443123	-0.486577	-0.229905	-0.521729	0.28833	-0.733154
1147.0	9.427759	-0.891851	1.28342	-1.316552	-0.334868	-0.189619	-0.521729	0.290527	-0.730713
1148.0	9.538528	-1.291724	1.901911	-1.137646	-0.16574	-0.145352	-0.528809	0.299316	-0.726563
1149.0	9.902885	-1.718982	2.456287	-0.905511	-0.113977	-0.111519	-0.526611	0.299316	-0.731201
1150.0	10.40589	-2.029293	2.629158	-0.623818	-0.114076	-0.094473	-0.529053	0.305908	-0.724365
1151.0	11.4349	-1.937322	2.398501	-0.380701	-0.255782	-0.101819	-0.533691	0.305908	-0.733643
1152.0	12.458158	-1.915703	1.799577	-0.261962	-0.316123	-0.138187	-0.529297	0.3125	-0.731689
1153.0	13.633766	-1.722252	1.501382	-0.174306	-0.315129	-0.185528	-0.537842	0.301514	-0.729004
1154.0	14.167974	-1.160626	1.488001	-0.149655	-0.225045	-0.186083	-0.538086	0.308105	-0.733887
1155.0	14.243953	-0.612734	2.295039	-0.164516	-0.081329	-0.156655	-0.54248	0.303711	-0.73584
1156.0	14.176797	-0.300018	4.330515	-0.074534	-0.008886	-0.144584	-0.544922	0.308105	-0.738525
1157.0	14.447979	-0.619395	5.906533	-0.104904	-0.003421	-0.127629	-0.544678	0.299316	-0.738037
1158.0	14.342519	-1.660415	5.82039	-0.027206	0.007727	-0.121243	-0.549072	0.299316	-0.740479
1159.0	12.811982	-1.203036	7.086492	0.396626	-0.00558	-0.188755	-0.548584	0.285889	-0.744629
1160.0	10.284411	-0.678078	8.741204	0.460354	-0.322614	-0.292591	-0.55542	0.285889	-0.742188
1161.0	9.458196	-1.24304	7.132855	0.408409	-0.670188	-0.435456	-0.55957	0.2771	-0.739502
1162.0	8.45213	-2.05372	6.808721	0.438026	-0.439362	-0.522033	-0.566162	0.2771	-0.737305
1163.0	6.847503	-1.754713	6.797899	0.67219	-0.342397	-0.560529	-0.570068	0.261719	-0.741455
1164.0	6.022945	-0.894079	5.304652	0.71826	-0.477692	-0.546484	-0.569824	0.254883	-0.731689
1165.0	6.691477	0.201682	4.249173	0.68034	-0.422161	-0.522644	-0.576172	0.246094	-0.745361
1166.0	8.430098	1.184641	4.276172	0.53389	0.000567	-0.495901	-0.576172	0.243896	-0.745361
1167.0	9.65467	1.582843	5.385598	0.425079	0.484188	-0.4526	-0.573486	0.230713	-0.751709
1168.0	10.387442	1.828796	6.059203	0.34643	0.617875	-0.4123	-0.573242	0.228516	-0.75415
1169.0	12.396862	1.965704	6.076965	0.188607	0.468093	-0.361328	-0.573242	0.228516	-0.768066
1170.0	14.211187	1.638848	5.727097	0.014739	0.380841	-0.286673	-0.572998	0.221924	-0.765381
1171.0	14.314837	1.818566	5.704399	-0.019552	0.264822	-0.267383	-0.572754	0.215332	-0.772217
1172.0	12.96028	2.228427	4.815253	-0.197577	0.068815	-0.230866	-0.572998	0.219727	-0.77002
1173.0	11.016466	1.709366	4.005789	-0.35352	-0.045903	-0.172772	-0.572754	0.215332	-0.765137
1174.0	8.883958	0.86098	4.297682	-0.380872	-0.061179	-0.11829	-0.579834	0.219727	-0.767578
1175.0	7.481907	-0.041711	3.798725	-0.468735	-0.099468	-0.064813	-0.577637	0.221924	-0.765381
1176.0	6.766496	-0.866745	3.038189	-0.415497	-0.082988	-0.037234	-0.579834	0.224121	-0.765381
1177.0	5.786922	-1.489568	2.696969	-0.389203	0.086217	-0.001853	-0.582031	0.221924	-0.767822
1178.0	6.016701	-2.016427	2.463251	-0.29766	-0.023974	0.0414	-0.579834	0.224121	-0.760742
1179.0	6.845923	-2.300513	2.241412	-0.215771	-0.206958	0.109472	-0.584473	0.224121	-0.763184
1180.0	7.489998	-2.372253	2.179334	-0.128356	-0.320124	0.189251	-0.589111	0.228516	-0.760986
1181.0	7.211213	-2.411738	2.100528	0.035788	-0.285461	0.288516	-0.591064	0.221924	-0.765381
1182.0	6.73799	-2.091883	1.841123	0.212155	-0.361722	0.380098	-0.589111	0.226318	-0.760986
1183.0	6.492986	-1.853488	1.540149	0.282637	-0.426956	0.466469	-0.5979	0.224121	-0.760742
1184.0	6.473679	-1.695705	1.257786	0.391197	-0.393188	0.527696	-0.600098	0.224121	-0.760742
1185.0	6.473592	-1.439415	1.242749	0.462695	-0.297902	0.546619	-0.598145	0.226318	-0.758545
1186.0	6.760617	-1.144669	1.36937	0.513721	-0.233196	0.539373	-0.5979	0.221924	-0.758545
1187.0	6.951194	-0.911703	1.26001	0.575533	-0.20784	0.502917	-0.602051	0.215332	-0.755859
1188.0	7.337686	-0.774559	1.09491	0.608087	-0.247772	0.438876	-0.602295	0.221924	-0.758301
1189.0	7.729436	-0.640233	0.714428	0.692292	-0.266019	0.371668	-0.604492	0.219727	-0.758301
1190.0	8.04959	-0.487801	0.498791	0.768008	-0.258484	0.30525	-0.606445	0.212891	-0.758057
1191.0	8.160261	-0.431897	0.472068	0.885821	-0.27809	0.254236	-0.608398	0.201904	-0.762207
1192.0	8.041348	-0.095281	0.652771	0.997146	-0.321555	0.218325	-0.610596	0.201904	-0.76001
1193.0	8.153106	-0.000615	0.43726	1.037879	-0.429413	0.208035	-0.616943	0.190918	-0.757324
1194.0	8.670548	-0.135177	0.035573	1.032853	-0.420437	0.219463	-0.612061	0.184326	-0.75708
1195.0	9.264988	-0.368511	0.177125	1.068388	-0.217514	0.243518	-0.616455	0.179932	-0.761475
1196.0	9.425547	-0.525893	0.978601	1.081188	0.056062	0.287258	-0.616455	0.177734	-0.759033
1197.0	9.492585	-0.481324	1.871983	1.092994	0.154218	0.31762	-0.618164	0.168945	-0.768066
1198.0	9.831038	-0.060622	2.408498	1.061535	0.076224	0.335624	-0.618164	0.168945	-0.770264
1199.0	10.604445	0.100932	2.591344	0.913451	-0.029093	0.343218	-0.624756	0.162109	-0.7771
1200.0	11.170514	-0.134793	2.244087	0.745467	-0.138314	0.340257	-0.624512	0.155518	-0.769775
1201.0	12.017425	-0.372933	1.60258	0.611279	-0.212238	0.350841	-0.620117	0.157715	-0.772217
1202.0	12.778173	-0.599213	1.04288	0.560281	-0.233077	0.374107	-0.624512	0.157715	-0.774658
1203.0	12.978102	-0.610392	0.726195	0.616249	-0.239034	0.394721	-0.633301	0.148926	-0.771973
1204.0	12.780052	-0.507482	0.565034	0.636728	-0.328451	0.404796	-0.631104	0.148926	-0.776611
1205.0	13.028163	-0.756101	0.830638	0.612664	-0.291986	0.402637	-0.633301	0.148926	-0.769531
1206.0	13.789854	-1.363925	3.194309	0.545188	0.211245	0.475402	-0.626221	0.144531	-0.776367
1207.0	13.629438	-1.722249	6.000463	0.567441	0.799902	0.639332	-0.628418	0.137939	-0.783203
1208.0	13.412167	0.443128	9.335322	0.909845	0.513924	0.770057	-0.624023	0.144531	-0.781006
1209.0	14.094064	2.926494	10.664573	0.563389	-0.416517	0.919078	-0.624023	0.144531	-0.781006
1210.0	12.580437	2.287501	6.79692	0.29322	-0.908035	1.118699	-0.631104	0.151123	-0.776611
1211.0	10.137831	1.455763	6.761703	0.358412	-0.483702	1.118609	-0.637939	0.155518	-0.774414
1212.0	7.790675	0.458354	6.722527	0.510208	-0.200182	0.996278	-0.635742	0.15332	-0.772217
1213.0	7.390585	-0.671224	5.735528	0.645986	-0.072381	0.838778	-0.640137	0.151123	-0.779053
1214.0	7.781592	-0.742237	6.450837	0.776359	0.261214	0.717335	-0.628906	0.15332	-0.781494
1215.0	8.34883	-1.171499	6.962014	0.738567	0.748059	0.758473	-0.626709	0.15332	-0.792969
1216.0	9.35269	-0.330841	6.585913	1.016618	0.894314	0.74467	-0.624268	0.148926	-0.795166
1217.0	12.160555	-0.126469	6.376174	0.911523	0.734956	0.715196	-0.617432	0.144775	-0.797363
1218.0	15.775602	-1.430204	5.814954	1.022141	0.67459	0.659288	-0.612793	0.142578	-0.799561
1219.0	16.121718	-2.603404	6.141424	1.221228	0.79889	0.521166	-0.610107	0.131592	-0.813232
1220.0	14.060766	-3.73043	5.647928	1.43591	0.467732	0.369122	-0.607666	0.131592	-0.810791
1221.0	12.411024	-3.009452	4.388748	1.780055	0.10595	0.270789	-0.609131	0.111572	-0.814697
1222.0	11.135007	-1.621149	3.538115	1.909716	0.017075	0.233458	-0.606689	0.107178	-0.814453
1223.0	9.851528	-0.761214	3.238972	2.03998	0.041702	0.253187	-0.605957	0.087402	-0.816162
1224.0	8.971982	0.239858	3.009178	2.07994	-0.000443	0.273279	-0.612305	0.076416	-0.822754
1225.0	8.56821	0.925408	2.461675	2.027383	-0.005505	0.298637	-0.607178	0.058838	-0.82666
1226.0	8.281317	1.537007	2.088534	2.003878	0.105182	0.312056	-0.609131	0.052246	-0.824219
1227.0	7.769112	1.809145	2.168333	1.910022	0.274113	0.339336	-0.604248	0.041016	-0.819092
1228.0	7.327201	1.954471	2.370544	1.788398	0.396701	0.341944	-0.603516	0.025635	-0.83252
1229.0	6.954891	2.165501	2.514686	1.6733	0.433717	0.338472	-0.607666	0.014648	-0.82959
1230.0	7.012456	2.028209	2.617699	1.479554	0.389671	0.309438	-0.60083	0.012451	-0.832031
1231.0	6.936659	2.186064	2.39508	1.429155	0.348692	0.268996	-0.600098	-0.00293	-0.835938
1232.0	6.856105	2.554329	2.539569	1.29937	0.360498	0.236146	-0.595459	-0.005127	-0.838135
1233.0	6.828284	2.638642	2.324786	1.100925	0.310699	0.210809	-0.594971	-0.018311	-0.833008
1234.0	6.648172	2.688882	2.454395	0.956816	0.353069	0.200846	-0.596924	-0.024902	-0.837402
1235.0	6.380955	2.469236	2.202769	0.818482	0.238404	0.207056	-0.594727	-0.024902	-0.839844
1236.0	6.917698	2.114063	2.091108	0.685562	0.067025	0.199532	-0.59668	-0.031494	-0.8396
1237.0	7.483686	1.711954	1.702394	0.538868	-0.095728	0.205979	-0.596436	-0.03833	-0.832275
1238.0	7.668262	1.467203	1.454972	0.447221	-0.10685	0.22285	-0.598633	-0.03833	-0.827637
1239.0	7.659304	1.641638	1.520587	0.426313	-0.054626	0.259721	-0.607666	-0.040527	-0.832275
1240.0	7.580901	1.782524	1.611422	0.360996	-0.065602	0.289325	-0.605713	-0.033936	-0.83252
1241.0	7.433505	1.841283	1.587895	0.344917	-0.133088	0.327451	-0.600586	-0.044922	-0.825195
1242.0	7.47707	1.732511	1.748067	0.282246	-0.283768	0.376283	-0.607178	-0.049316	-0.824951
1243.0	7.437164	1.324113	1.58741	0.206667	-0.399325	0.448023	-0.611816	-0.047119	-0.822754
1244.0	7.677106	1.118459	1.538121	0.213564	-0.463247	0.514209	-0.616455	-0.042725	-0.822998
1245.0	8.175213	0.739214	2.171578	0.134013	-0.450356	0.596072	-0.62085	-0.044922	-0.820557
1246.0	8.363617	-0.182202	2.309702	0.055648	-0.461296	0.674796	-0.623291	-0.042725	-0.808838
1247.0	9.248322	-0.499574	2.340328	0.14284	-0.457976	0.716487	-0.632568	-0.033936	-0.806885
1248.0	9.887254	-0.31802	2.434894	0.308523	-0.351502	0.729898	-0.630615	-0.029541	-0.807129
1249.0	10.35658	0.189468	2.781074	0.497466	-0.30682	0.720737	-0.636963	-0.040771	-0.802002
1250.0	10.738534	0.705164	3.063082	0.590148	-0.384578	0.680376	-0.644043	-0.029785	-0.804688
1251.0	11.34797	0.512313	2.928019	0.556219	-0.462585	0.640809	-0.64624	-0.03418	-0.792969
1252.0	11.402594	-0.169083	2.859874	0.552618	-0.430529	0.6291	-0.650635	-0.036377	-0.790527
1253.0	11.112636	-0.50329	2.798461	0.481247	-0.47198	0.63906	-0.657471	-0.031982	-0.783691
1254.0	10.999009	-0.447031	2.402634	0.421003	-0.46638	0.6629	-0.657471	-0.031982	-0.781494
1255.0	10.893437	0.09324	3.986733	0.481978	-0.252832	0.665014	-0.664063	-0.036377	-0.779053
1256.0	10.473885	0.760187	5.583986	0.515396	-0.150008	0.61498	-0.657471	-0.031982	-0.772217
1257.0	10.085328	0.748707	5.424831	0.455278	-0.256614	0.526868	-0.668701	-0.03418	-0.774414
1258.0	9.303636	0.521833	5.536713	0.494391	-0.434185	0.353312	-0.668213	-0.043213	-0.76709
1259.0	8.529991	0.240273	6.245379	0.594472	-0.332235	0.156941	-0.675049	-0.043213	-0.764893
1260.0	8.303598	-0.002754	6.98054	0.748842	-0.025813	-0.004698	-0.668213	-0.045166	-0.771729
1261.0	7.792653	-0.341025	7.385835	0.982496	0.32862	-0.124164	-0.665527	-0.056396	-0.766602
1262.0	7.631622	-1.07838	8.009221	1.282074	0.279983	-0.196862	-0.665283	-0.062988	-0.75708
1263.0	8.691621	-2.061882	7.420787	1.487413	0.243628	-0.227996	-0.664551	-0.078369	-0.763428
1264.0	9.246688	-3.317229	6.404963	1.631808	0.282168	-0.207781	-0.661865	-0.09375	-0.762939
1265.0	10.281363	-3.469104	5.988214	1.958581	0.310066	-0.110283	-0.661133	-0.109131	-0.755371
1266.0	11.604372	-2.475172	5.989927	2.149663	0.350284	0.076388	-0.658447	-0.118164	-0.757324
1267.0	11.715491	-1.844398	5.425004	2.181188	0.22109	0.307344	-0.657715	-0.135742	-0.754395
1268.0	12.212745	-1.085803	5.300861	2.185492	0.130193	0.530369	-0.666748	-0.135742	-0.747314
1269.0	14.254329	0.388677	4.874456	2.13404	-0.045721	0.709718	-0.664307	-0.144531	-0.742432
1270.0	13.504228	0.442719	3.809222	1.951131	0.09534	0.807308	-0.664063	-0.148926	-0.73291
1271.0	11.373876	-0.626725	4.26538	1.9079	0.081289	0.80527	-0.665527	-0.166748	-0.720703
1272.0	10.58042	-1.717211	3.986958	1.935945	-0.072981	0.754633	-0.669922	-0.168945	-0.727539
1273.0	9.953587	-2.377123	3.436535	2.107094	-0.111299	0.719287	-0.671875	-0.175537	-0.722656
1274.0	9.029645	-2.468181	3.419431	2.31815	-0.019623	0.714794	-0.669434	-0.179932	-0.715576
1275.0	8.955152	-2.259286	3.416596	2.505812	-0.057654	0.745943	-0.68042	-0.188721	-0.703613
1276.0	9.663588	-2.010916	3.245511	2.65522	-0.111102	0.850066	-0.680176	-0.193359	-0.69873
1277.0	10.063191	-2.037064	2.992622	2.767543	-0.06705	0.983587	-0.681885	-0.206543	-0.688965
1278.0	9.688409	-2.102616	2.966548	2.942979	-0.03381	1.135374	-0.688477	-0.215332	-0.681885
1279.0	9.571485	-2.241293	2.617005	3.081377	-0.153359	1.280226	-0.694824	-0.219727	-0.674561
1280.0	9.356971	-2.220053	2.10778	3.251965	-0.257322	1.400447	-0.697021	-0.224365	-0.656006
1281.0	9.068422	-1.930381	1.758604	3.398446	-0.320836	1.494761	-0.705811	-0.230957	-0.644043
1282.0	9.216113	-1.692362	1.427962	3.479548	-0.401237	1.555732	-0.705322	-0.241943	-0.634277
1283.0	9.322692	-1.27997	1.038387	3.595288	-0.394731	1.593986	-0.714111	-0.244385	-0.615723
1284.0	9.165281	-0.638823	1.078213	3.678297	-0.353342	1.62227	-0.725342	-0.246582	-0.599365
1285.0	9.091915	-0.133984	1.312695	3.704332	-0.33596	1.630212	-0.727295	-0.253174	-0.575928
1286.0	9.148791	0.201395	1.304175	3.708047	-0.304071	1.62221	-0.733887	-0.255615	-0.568848
1287.0	9.277288	0.611108	1.455416	3.714963	-0.298931	1.595015	-0.738281	-0.26001	-0.54541
1288.0	9.266459	1.028965	1.55006	3.683872	-0.29644	1.55972	-0.747314	-0.257813	-0.543213
1289.0	9.098299	1.326437	1.440842	3.623386	-0.373249	1.503681	-0.747314	-0.257813	-0.524658
1290.0	8.985644	1.673433	1.222402	3.558476	-0.420978	1.440196	-0.758545	-0.262451	-0.508057
1291.0	8.847607	1.772409	1.064387	3.442049	-0.420968	1.375156	-0.765137	-0.262451	-0.489502
1292.0	8.83	1.973046	1.10434	3.345494	-0.39432	1.304464	-0.767334	-0.262451	-0.482666
1293.0	8.815013	1.932596	1.183598	3.209399	-0.299791	1.254887	-0.776367	-0.264648	-0.466309
1294.0	8.751735	2.08405	1.527049	3.125807	-0.214247	1.197043	-0.776611	-0.260254	-0.457031
1295.0	8.839659	2.169411	1.823719	3.007533	-0.202373	1.151179	-0.783447	-0.258301	-0.443359
1296.0	8.951068	2.015248	2.210227	2.888983	-0.254169	1.121014	-0.783447	-0.256104	-0.429443
1297.0	8.943591	1.639522	2.277447	2.733991	-0.312762	1.100119	-0.78125	-0.256104	-0.420166
1298.0	8.866771	0.987255	2.300838	2.558031	-0.356887	1.072774	-0.790283	-0.251709	-0.41333
1299.0	8.79707	0.374337	2.213638	2.406988	-0.412591	1.044297	-0.792725	-0.249512	-0.394775
1300.0	8.833802	-0.027732	2.088425	2.309427	-0.467494	1.002431	-0.792969	-0.240723	-0.385986
1301.0	9.033738	-0.091829	1.840017	2.234116	-0.516096	0.935804	-0.802002	-0.24292	-0.376465
1302.0	9.177587	0.078057	1.774192	2.157634	-0.529331	0.852003	-0.797607	-0.236328	-0.362793
1303.0	9.289677	0.233392	1.641198	2.080272	-0.53177	0.720602	-0.802246	-0.236328	-0.358154
1304.0	9.587944	0.316209	1.413291	2.028828	-0.508278	0.55797	-0.804443	-0.234375	-0.348877
1305.0	10.074793	0.175068	1.253171	2.030371	-0.453364	0.377751	-0.806641	-0.234375	-0.334961
1306.0	10.846828	-0.051675	2.014211	2.076288	-0.323274	0.232202	-0.804443	-0.234375	-0.323486
1307.0	11.356655	0.00253	3.169667	2.21901	-0.277306	0.148863	-0.804199	-0.23877	-0.313965
1308.0	12.193883	0.297491	4.756929	2.251974	-0.26624	0.150334	-0.804199	-0.23877	-0.311523
1309.0	12.787413	0.91584	5.863368	2.350241	-0.291441	0.194026	-0.811035	-0.23877	-0.29541
1310.0	13.322455	1.832685	5.696263	2.346374	-0.388689	0.221486	-0.801758	-0.243164	-0.285889
1311.0	13.432726	1.638572	4.982994	2.230706	-0.333734	0.29944	-0.804199	-0.23877	-0.281494
1312.0	12.24672	0.925455	5.724618	2.33334	-0.172498	0.410845	-0.804199	-0.240967	-0.271973
1313.0	10.808119	0.155758	6.278068	2.447033	-0.184882	0.515941	-0.804443	-0.236572	-0.262939
1314.0	10.039599	-0.644249	5.779863	2.61571	-0.25045	0.598406	-0.804199	-0.23877	-0.253662
1315.0	9.211173	-0.957823	5.384803	2.794009	-0.209118	0.70049	-0.809082	-0.232422	-0.244629
1316.0	8.65203	-1.262754	5.858656	2.830397	-0.089302	0.848058	-0.807129	-0.223389	-0.242432
1317.0	8.14787	-1.399643	5.690533	2.895882	-0.063152	1.018443	-0.807373	-0.216797	-0.219482
1318.0	8.617533	-0.654926	4.887933	2.91331	-0.078388	1.137766	-0.807617	-0.210205	-0.224365
1319.0	9.181333	-0.672081	4.204368	2.762772	0.07071	1.242714	-0.8125	-0.199219	-0.213135
1320.0	9.79807	-0.476705	4.374677	2.806439	0.104952	1.277705	-0.812744	-0.194824	-0.213379
1321.0	10.84451	-0.015419	4.40455	2.765386	0.10072	1.252008	-0.820068	-0.183838	-0.213867
1322.0	11.815051	-0.23298	4.111418	2.675473	0.071041	1.167801	-0.820557	-0.168457	-0.205078
1323.0	12.467968	0.037473	3.689797	2.826386	-0.026997	1.032773	-0.827393	-0.16626	-0.193604
