Acquisition frequency: 100 Hz
PacketCounter	Acc_X	Acc_Y	Acc_Z	Gyr_X	Gyr_Y	Gyr_Z	Mag_X	Mag_Y	Mag_Z
0.0	9.500959	-2.270494	-0.771326	0.026709	0.008038	-0.007074	-0.640625	0.342285	-0.423828
1.0	9.512263	-2.244127	-0.790082	0.032717	0.006191	-0.009724	-0.647217	0.335693	-0.421387
2.0	9.501448	-2.269338	-0.768707	0.024941	0.006741	-0.007296	-0.645264	0.340088	-0.423828
3.0	9.49937	-2.263035	-0.791317	0.027406	0.002317	-0.010374	-0.649658	0.337891	-0.423584
4.0	9.48626	-2.282399	-0.793911	0.026394	0.004162	-0.010127	-0.651855	0.337891	-0.421387
5.0	9.477284	-2.243183	-0.808177	0.026742	0.001303	-0.011775	-0.649414	0.335693	-0.423584
6.0	9.500166	-2.26051	-0.78897	0.025986	-0.001838	-0.012241	-0.649658	0.340088	-0.416748
7.0	9.500442	-2.259501	-0.788531	0.027092	-0.00156	-0.013425	-0.647461	0.340088	-0.426025
8.0	9.500691	-2.258519	-0.788349	0.027929	-0.007678	-0.011814	-0.647217	0.335693	-0.423584
9.0	9.480543	-2.245271	-0.783318	0.028829	-0.004944	-0.006453	-0.647461	0.342285	-0.421631
10.0	9.451666	-2.263384	-0.734699	0.033764	-0.013802	-0.012606	-0.645264	0.340088	-0.423828
11.0	9.503451	-2.262057	-0.765395	0.029439	-0.0128	-0.008815	-0.654053	0.335449	-0.426025
12.0	9.485597	-2.254316	-0.737418	0.030893	-0.015383	-0.011644	-0.64502	0.337891	-0.421387
13.0	9.485648	-2.253727	-0.738565	0.027317	-0.022622	-0.005301	-0.654053	0.339844	-0.419189
14.0	9.516925	-2.240205	-0.765429	0.02488	-0.024924	-0.00691	-0.647217	0.335693	-0.426025
15.0	9.514515	-2.234122	-0.791325	0.014919	-0.031647	-0.006781	-0.649414	0.335693	-0.426025
16.0	9.534792	-2.24567	-0.799627	0.007719	-0.04314	-0.017209	-0.649414	0.335693	-0.421387
17.0	9.586361	-2.24359	-0.834406	0.009844	-0.056115	-0.016562	-0.649658	0.337891	-0.423584
18.0	9.588612	-2.247363	-0.817134	0.00881	-0.081278	-0.02267	-0.651611	0.335449	-0.418945
19.0	9.529686	-2.228762	-0.866262	0.018097	-0.102611	-0.030585	-0.653809	0.333252	-0.428223
20.0	9.515208	-2.176185	-0.938956	0.030272	-0.122412	-0.039505	-0.647461	0.340088	-0.419189
21.0	9.607084	-2.196748	-0.990722	0.036948	-0.127577	-0.051374	-0.651855	0.340088	-0.421387
22.0	9.695383	-2.140867	-1.126469	0.020079	-0.139549	-0.064509	-0.649414	0.333252	-0.416504
23.0	9.784865	-2.15309	-1.203333	0.020955	-0.125055	-0.078594	-0.651611	0.331055	-0.421143
24.0	9.787348	-2.198973	-1.075272	0.041197	-0.103103	-0.082721	-0.651611	0.335449	-0.414307
25.0	9.590786	-2.163201	-1.005748	0.044783	-0.105262	-0.075609	-0.654053	0.339844	-0.412109
26.0	9.488623	-2.158618	-0.953253	0.028879	-0.099195	-0.057542	-0.658447	0.333252	-0.414307
27.0	9.184743	-2.052583	-0.904256	0.009604	-0.096072	-0.034941	-0.654053	0.337646	-0.412109
28.0	8.921863	-2.06022	-0.883596	-0.006515	-0.056003	0.006718	-0.651611	0.331055	-0.414063
29.0	8.600851	-2.473442	-0.69053	0.050193	0.045516	0.070242	-0.660889	0.339844	-0.416748
30.0	9.245678	-2.30328	-0.765687	0.032681	0.083904	0.091765	-0.649658	0.340088	-0.419189
31.0	9.502839	-2.511013	-0.756361	0.05681	0.083116	0.073188	-0.65625	0.335449	-0.411865
32.0	9.569998	-2.48528	-0.672818	0.058823	0.057243	0.04217	-0.651611	0.335449	-0.418945
33.0	9.643077	-2.286506	-0.75374	0.014884	0.060971	0.010093	-0.651611	0.331055	-0.418701
34.0	9.525111	-2.121405	-0.924766	-0.036586	0.042068	-0.010411	-0.651855	0.335449	-0.421387
35.0	9.409333	-2.188716	-0.748093	-0.079241	0.058847	-0.012119	-0.647217	0.335693	-0.416748
36.0	9.25735	-2.257986	-0.592953	-0.084217	0.063464	-0.016492	-0.651855	0.337646	-0.416748
37.0	9.443266	-2.374672	-0.61275	-0.052208	0.025346	-0.012995	-0.65625	0.335449	-0.416504
38.0	9.492485	-2.366903	-0.667316	-0.032204	-0.011106	-0.015564	-0.647217	0.333252	-0.409668
39.0	9.561863	-2.371639	-0.728989	-0.019899	-0.024514	-0.014896	-0.658691	0.337646	-0.416748
40.0	9.620418	-2.402193	-0.770659	-0.010779	-0.023058	-0.014598	-0.651611	0.335449	-0.418945
41.0	9.618764	-2.378851	-0.71723	0.000971	-0.021782	-0.019261	-0.653809	0.333252	-0.411865
42.0	9.579104	-2.437918	-0.7292	0.021692	-0.027974	-0.014995	-0.651611	0.335449	-0.416748
43.0	9.676417	-2.471837	-0.725465	0.032151	-0.040166	-0.020384	-0.653809	0.333252	-0.414307
44.0	9.581942	-2.542549	-0.81104	0.059261	-0.05578	-0.013717	-0.658447	0.333252	-0.423584
45.0	9.335321	-2.487651	-0.877938	0.054822	-0.095111	-0.018214	-0.653809	0.333252	-0.421143
46.0	9.43237	-2.521874	-0.876096	0.087177	-0.036509	-0.019454	-0.647217	0.335449	-0.409668
47.0	9.559352	-2.371131	-0.855599	0.106184	-0.012261	-0.028254	-0.649414	0.335693	-0.423584
48.0	9.479721	-2.254828	-0.869847	0.117686	-0.021767	-0.040736	-0.649414	0.333252	-0.402588
49.0	9.422874	-2.30566	-0.850753	0.135188	-0.044619	-0.041451	-0.65625	0.333252	-0.423584
50.0	9.427002	-2.291925	-0.748396	0.147785	-0.036034	-0.035252	-0.651611	0.333252	-0.409668
51.0	9.345294	-2.256645	-0.806509	0.153171	-0.023333	-0.03101	-0.660645	0.335449	-0.416504
52.0	9.452568	-2.281688	-0.899164	0.154634	-0.032844	-0.02621	-0.65625	0.335449	-0.421387
53.0	9.549342	-2.229281	-0.873098	0.165612	-0.03245	-0.037346	-0.658203	0.331055	-0.418701
54.0	9.60848	-2.305516	-0.796415	0.19274	-0.050179	-0.047257	-0.649414	0.333252	-0.411865
55.0	9.694393	-2.340133	-0.713482	0.20732	-0.038364	-0.054381	-0.658203	0.331055	-0.416504
56.0	9.554241	-2.225105	-0.849288	0.214985	-0.063598	-0.061701	-0.660645	0.333252	-0.418945
57.0	9.405307	-2.101116	-0.808422	0.225948	-0.08361	-0.049698	-0.658203	0.328857	-0.41626
58.0	9.403546	-2.138785	-0.718906	0.225712	-0.074246	-0.046108	-0.655762	0.32666	-0.414063
59.0	9.328556	-2.137027	-0.787111	0.222256	-0.061283	-0.043271	-0.655762	0.32666	-0.41626
60.0	9.434022	-2.139199	-0.826097	0.215534	-0.051401	-0.04332	-0.653564	0.32666	-0.41626
61.0	9.509269	-2.090852	-0.875372	0.215245	-0.037465	-0.049045	-0.655762	0.322266	-0.423096
62.0	9.61784	-2.097345	-0.888323	0.220105	-0.021608	-0.050828	-0.656006	0.328857	-0.411621
63.0	9.652355	-2.086159	-0.887867	0.222546	-0.014914	-0.058787	-0.657959	0.322266	-0.418457
64.0	9.679701	-2.041874	-0.879696	0.229914	-0.0148	-0.053998	-0.655762	0.324463	-0.413818
65.0	9.637107	-2.008814	-0.890497	0.215729	-0.011659	-0.056139	-0.657715	0.315674	-0.42041
66.0	9.573879	-2.025723	-0.859306	0.212252	-0.02787	-0.055846	-0.657959	0.322266	-0.418457
67.0	9.548656	-2.000506	-0.900804	0.203594	-0.032482	-0.057741	-0.657959	0.320068	-0.413818
68.0	9.5057	-2.029758	-0.876465	0.192329	-0.04578	-0.055727	-0.660156	0.322266	-0.413818
69.0	9.426278	-2.062571	-0.874539	0.185812	-0.056452	-0.05464	-0.662354	0.320068	-0.418457
70.0	9.470589	-2.088374	-0.862356	0.179617	-0.067741	-0.056097	-0.659912	0.315674	-0.418213
71.0	9.370759	-2.170702	-0.81925	0.172788	-0.084593	-0.05698	-0.65332	0.317871	-0.418213
72.0	9.329284	-2.285967	-0.815741	0.162207	-0.103681	-0.060562	-0.659668	0.311279	-0.408691
73.0	9.314074	-2.359554	-0.809586	0.17119	-0.124642	-0.070812	-0.655518	0.315674	-0.418213
74.0	9.213049	-2.460774	-0.848276	0.182523	-0.131798	-0.074467	-0.657715	0.315674	-0.415771
75.0	9.285058	-2.468075	-0.892065	0.203238	-0.133561	-0.080119	-0.664307	0.311279	-0.41333
76.0	9.432638	-2.5168	-1.002503	0.230644	-0.136262	-0.087291	-0.664063	0.306885	-0.415527
77.0	9.457033	-2.52755	-0.989912	0.26077	-0.132498	-0.087602	-0.659912	0.313477	-0.418213
78.0	9.614427	-2.444359	-1.027978	0.286115	-0.126797	-0.086435	-0.664307	0.311279	-0.411133
79.0	9.667083	-2.356674	-1.026497	0.298629	-0.12702	-0.084535	-0.664307	0.311279	-0.42041
80.0	9.615161	-2.228544	-1.07953	0.298688	-0.122582	-0.079361	-0.664063	0.306885	-0.410889
81.0	9.59303	-2.124971	-1.066111	0.291708	-0.12334	-0.074621	-0.664063	0.309082	-0.410889
82.0	9.538338	-2.055734	-1.103221	0.270582	-0.10303	-0.067072	-0.668701	0.309082	-0.41333
83.0	9.477989	-2.041421	-1.147392	0.263229	-0.104892	-0.053671	-0.670898	0.306885	-0.408691
84.0	9.429433	-1.981496	-1.136089	0.251302	-0.09218	-0.047165	-0.661865	0.304688	-0.415527
85.0	9.439469	-1.990487	-1.067208	0.236292	-0.071838	-0.043415	-0.670898	0.306885	-0.415527
86.0	9.465163	-2.057398	-1.156383	0.209522	-0.043828	-0.040921	-0.666016	0.300293	-0.415283
87.0	9.458807	-2.049019	-1.203743	0.190526	-0.032132	-0.041665	-0.670654	0.30249	-0.415283
88.0	9.39673	-2.10143	-1.076386	0.196755	-0.018733	-0.039271	-0.668457	0.30249	-0.415283
89.0	9.381063	-2.124182	-0.950923	0.191428	-0.02302	-0.047127	-0.672852	0.297852	-0.415283
90.0	9.42262	-2.146758	-0.959415	0.193573	-0.048854	-0.042621	-0.668457	0.304688	-0.410889
91.0	9.390538	-2.17953	-1.009888	0.193722	-0.053789	-0.045751	-0.673096	0.306885	-0.41333
92.0	9.438607	-2.202489	-1.120058	0.209168	-0.052079	-0.037531	-0.65918	0.298096	-0.415283
93.0	9.519025	-2.191236	-1.180231	0.218123	-0.052389	-0.03429	-0.674805	0.295654	-0.412842
94.0	9.553356	-2.098345	-1.149002	0.21981	-0.057319	-0.028796	-0.666016	0.295898	-0.415039
95.0	9.565344	-2.050239	-1.096254	0.225764	-0.065624	-0.026292	-0.668213	0.298096	-0.412842
96.0	9.590698	-2.008828	-1.097118	0.222093	-0.07661	-0.022457	-0.668213	0.295898	-0.412842
97.0	9.551278	-2.043652	-1.048842	0.214457	-0.076664	-0.027285	-0.67041	0.295654	-0.412842
98.0	9.535239	-2.088654	-1.130249	0.214589	-0.095017	-0.031757	-0.668213	0.295654	-0.4104
99.0	9.43341	-2.169635	-1.104665	0.211063	-0.099988	-0.033503	-0.677002	0.293457	-0.41748
100.0	9.469929	-2.162899	-1.089938	0.203076	-0.106232	-0.040144	-0.665771	0.293457	-0.4104
101.0	9.44359	-2.174872	-1.043751	0.204533	-0.111249	-0.042092	-0.672607	0.29126	-0.417236
102.0	9.480208	-2.167396	-1.030209	0.20374	-0.116486	-0.041479	-0.672119	0.284668	-0.410156
103.0	9.437176	-2.169059	-0.956286	0.199589	-0.118001	-0.041593	-0.677002	0.29126	-0.407959
104.0	9.457513	-2.179337	-0.967237	0.191962	-0.109196	-0.045516	-0.672363	0.286865	-0.407959
105.0	9.381988	-2.216692	-0.940886	0.188079	-0.106932	-0.04774	-0.676758	0.286865	-0.414795
106.0	9.410259	-2.259804	-0.955934	0.183959	-0.108495	-0.047822	-0.674805	0.29126	-0.4104
107.0	9.386028	-2.242076	-0.981785	0.177489	-0.112631	-0.049261	-0.674561	0.289063	-0.410156
108.0	9.376888	-2.233931	-0.912194	0.178843	-0.119134	-0.045097	-0.674316	0.280273	-0.407715
109.0	9.413914	-2.254089	-0.952451	0.182039	-0.122597	-0.044478	-0.674561	0.284668	-0.410156
110.0	9.431466	-2.234357	-1.060148	0.179294	-0.115352	-0.042562	-0.674561	0.289063	-0.410156
111.0	9.468292	-2.255045	-1.099744	0.173217	-0.108918	-0.041773	-0.678955	0.284668	-0.410156
112.0	9.464164	-2.221732	-1.077932	0.169739	-0.10952	-0.042999	-0.676514	0.282471	-0.407715
113.0	9.484501	-2.231756	-1.088823	0.161186	-0.103588	-0.047068	-0.674316	0.280273	-0.405273
114.0	9.504882	-2.241375	-1.100127	0.163257	-0.116546	-0.050948	-0.677002	0.289063	-0.407959
115.0	9.476346	-2.192399	-1.099592	0.158174	-0.129753	-0.051949	-0.676514	0.282471	-0.407715
116.0	9.50059	-2.20365	-1.089017	0.163569	-0.132961	-0.053927	-0.676758	0.286865	-0.405518
117.0	9.459057	-2.20488	-1.140878	0.17071	-0.13012	-0.053003	-0.681152	0.282471	-0.405273
118.0	9.418347	-2.120913	-1.160743	0.172091	-0.127647	-0.048034	-0.674316	0.282471	-0.403076
119.0	9.479406	-2.155777	-1.18235	0.163702	-0.119425	-0.048161	-0.681152	0.280273	-0.405273
120.0	9.495797	-2.133993	-1.166871	0.155312	-0.12012	-0.049045	-0.676514	0.280273	-0.402832
121.0	9.515787	-2.143907	-1.180143	0.147623	-0.132209	-0.042237	-0.683105	0.275879	-0.407471
122.0	9.569692	-2.059767	-1.168042	0.152427	-0.127523	-0.04227	-0.678711	0.275879	-0.400391
123.0	9.52384	-2.030909	-1.191751	0.144847	-0.120461	-0.040021	-0.678711	0.278076	-0.405273
124.0	9.535395	-1.982184	-1.273841	0.130954	-0.119252	-0.032843	-0.683105	0.275879	-0.405029
125.0	9.542588	-2.013946	-1.285679	0.109143	-0.10055	-0.033556	-0.681152	0.280273	-0.400635
126.0	9.472382	-1.997267	-1.25398	0.09402	-0.084656	-0.032451	-0.683105	0.273682	-0.402588
127.0	9.5125	-1.994434	-1.34151	0.078527	-0.070478	-0.032688	-0.680664	0.273682	-0.397949
128.0	9.553485	-1.961123	-1.376615	0.059322	-0.058853	-0.035344	-0.683105	0.273682	-0.400391
129.0	9.541052	-1.923434	-1.40127	0.040888	-0.052753	-0.036012	-0.685303	0.275879	-0.400391
130.0	9.378749	-2.025243	-1.456824	0.030896	-0.043374	-0.032026	-0.680908	0.275879	-0.395752
131.0	9.626179	-1.917564	-1.548257	0.002918	-0.027933	-0.039909	-0.6875	0.271484	-0.397949
132.0	9.540222	-1.918462	-1.533804	-0.004822	0.003791	-0.03669	-0.683105	0.273682	-0.397949
133.0	9.569725	-1.904407	-1.56253	-0.025754	0.018166	-0.041435	-0.687256	0.269287	-0.397949
134.0	9.521038	-1.927822	-1.578253	-0.050034	0.03474	-0.040778	-0.685303	0.271484	-0.395752
135.0	9.415398	-1.971165	-1.534337	-0.068857	0.043568	-0.042427	-0.689697	0.273682	-0.400391
136.0	9.391986	-2.00787	-1.530001	-0.086347	0.043483	-0.043691	-0.685303	0.271484	-0.402588
137.0	9.356209	-2.065233	-1.524994	-0.098933	0.047934	-0.04494	-0.687256	0.269287	-0.400146
138.0	9.337346	-2.102877	-1.497259	-0.097603	0.040463	-0.050694	-0.685303	0.273682	-0.402588
139.0	9.306084	-2.161111	-1.469379	-0.104714	0.037164	-0.054252	-0.685303	0.271484	-0.400391
140.0	9.319624	-2.163273	-1.521236	-0.102012	0.025194	-0.059251	-0.682861	0.271484	-0.397949
141.0	9.280037	-2.131759	-1.512279	-0.086147	0.012821	-0.057723	-0.682861	0.271484	-0.400391
142.0	9.273235	-2.148249	-1.488704	-0.07165	-0.000909	-0.051218	-0.682861	0.271484	-0.397949
143.0	9.311954	-2.106029	-1.420489	-0.062644	-0.015748	-0.043175	-0.687744	0.275879	-0.400391
144.0	9.345556	-2.092464	-1.428804	-0.062863	-0.019484	-0.041008	-0.685303	0.275879	-0.393555
145.0	9.366577	-2.100174	-1.437296	-0.06131	-0.034919	-0.037495	-0.6875	0.271484	-0.405029
146.0	9.358847	-2.118595	-1.417351	-0.05641	-0.039229	-0.038232	-0.683105	0.273682	-0.397949
147.0	9.334155	-2.099913	-1.441655	-0.044617	-0.04552	-0.045867	-0.685303	0.273682	-0.395752
148.0	9.359434	-2.109159	-1.42751	-0.036962	-0.045577	-0.043925	-0.685059	0.26709	-0.393066
149.0	9.359685	-2.104578	-1.432615	-0.034616	-0.047391	-0.043017	-0.689697	0.273682	-0.393311
150.0	9.343668	-2.089822	-1.409215	-0.03148	-0.050299	-0.039765	-0.6875	0.273682	-0.395752
151.0	9.343798	-2.085665	-1.4145	-0.032481	-0.048527	-0.03955	-0.691895	0.269287	-0.400146
152.0	9.348287	-2.083511	-1.396115	-0.017528	-0.059174	-0.037827	-0.685303	0.271484	-0.395752
153.0	9.414541	-2.118135	-1.392335	-0.006717	-0.060718	-0.038745	-0.692139	0.275879	-0.395752
154.0	9.439082	-2.072392	-1.39946	0.005869	-0.060685	-0.03715	-0.685303	0.271484	-0.393311
155.0	9.431213	-2.091968	-1.380233	0.01609	-0.058814	-0.036474	-0.689697	0.271484	-0.395752
156.0	9.505946	-2.074568	-1.34862	0.017455	-0.058879	-0.035342	-0.6875	0.271484	-0.388672
157.0	9.502081	-2.039942	-1.325725	0.017042	-0.056104	-0.036325	-0.687256	0.264648	-0.390869
158.0	9.555601	-2.039965	-1.34084	0.027848	-0.053221	-0.036858	-0.685059	0.269287	-0.384033
159.0	9.580182	-1.99467	-1.346485	0.039636	-0.047667	-0.037225	-0.691895	0.269287	-0.395508
160.0	9.589438	-1.995449	-1.301714	0.051632	-0.035386	-0.033251	-0.687256	0.269287	-0.395508
161.0	9.605734	-1.917462	-1.301521	0.047682	-0.0328	-0.03274	-0.691895	0.266846	-0.395508
162.0	9.579999	-1.930968	-1.374398	0.046499	-0.025976	-0.029546	-0.687256	0.26709	-0.388428
163.0	9.568833	-1.920031	-1.322773	0.041751	-0.01349	-0.030577	-0.685059	0.269287	-0.390869
164.0	9.569207	-1.917849	-1.323234	0.04589	-0.013725	-0.027162	-0.689697	0.269287	-0.395508
165.0	9.553605	-1.905243	-1.294406	0.041326	-0.001899	-0.030769	-0.689453	0.264648	-0.390869
166.0	9.550383	-1.871208	-1.265513	0.041494	0.006279	-0.032558	-0.69165	0.264648	-0.393066
167.0	9.534318	-1.888083	-1.286988	0.038533	0.011515	-0.031875	-0.696289	0.264648	-0.400146
168.0	9.531379	-1.93988	-1.287992	0.039101	0.016944	-0.032692	-0.689453	0.266846	-0.390869
169.0	9.512316	-1.895166	-1.228729	0.040247	0.023384	-0.034716	-0.689453	0.26709	-0.393066
170.0	9.537818	-1.936322	-1.258065	0.050668	0.027612	-0.030127	-0.69165	0.266846	-0.390869
171.0	9.543332	-1.935665	-1.230459	0.048287	0.029449	-0.031049	-0.689453	0.26709	-0.393066
172.0	9.511453	-1.942284	-1.221231	0.048864	0.026063	-0.032654	-0.684814	0.264893	-0.388428
173.0	9.482577	-1.924636	-1.261016	0.049073	0.023986	-0.029109	-0.693848	0.264648	-0.395508
174.0	9.523857	-1.890783	-1.288228	0.048877	0.024657	-0.026544	-0.687256	0.264893	-0.395508
175.0	9.462077	-1.882839	-1.322287	0.043762	0.029615	-0.023235	-0.689453	0.264648	-0.393066
176.0	9.453745	-1.878362	-1.36677	0.051655	0.023099	-0.018144	-0.689453	0.262451	-0.393066
177.0	9.458471	-1.908923	-1.391162	0.051815	0.026873	-0.020344	-0.687256	0.264893	-0.395508
178.0	9.471357	-1.886654	-1.388495	0.042781	0.029959	-0.016906	-0.689453	0.264893	-0.397705
179.0	9.497392	-1.899038	-1.365288	0.041153	0.036555	-0.021234	-0.689453	0.26709	-0.397705
180.0	9.503716	-1.955153	-1.316061	0.042931	0.033747	-0.019114	-0.687256	0.26709	-0.388428
181.0	9.488364	-1.943176	-1.283388	0.043686	0.034114	-0.022905	-0.693848	0.264648	-0.395508
182.0	9.456375	-1.950641	-1.274062	0.042725	0.027032	-0.023443	-0.687256	0.264648	-0.390869
183.0	9.420207	-1.926404	-1.237528	0.048026	0.024434	-0.022818	-0.694092	0.271484	-0.395752
184.0	9.424074	-1.900565	-1.283548	0.0502	0.015891	-0.026215	-0.687012	0.262451	-0.388428
185.0	9.440926	-1.909691	-1.309822	0.061424	0.010267	-0.020028	-0.696045	0.262451	-0.393066
186.0	9.453598	-1.887322	-1.308407	0.060588	0.015785	-0.022021	-0.691406	0.260254	-0.392822
187.0	9.434482	-1.929912	-1.27985	0.07078	0.013345	-0.021754	-0.689453	0.264893	-0.400146
188.0	9.472409	-1.920865	-1.258816	0.068585	0.014515	-0.025263	-0.689209	0.260254	-0.390625
189.0	9.509084	-1.885869	-1.310898	0.058764	0.011247	-0.031066	-0.696045	0.262451	-0.395264
190.0	9.460696	-1.88207	-1.274944	0.050551	0.005816	-0.032155	-0.687012	0.260498	-0.4021
191.0	9.468698	-1.887558	-1.350139	0.042731	0.002051	-0.031879	-0.691406	0.260254	-0.392822
192.0	9.478199	-1.88807	-1.301298	0.044325	-8.9e-05	-0.027174	-0.687012	0.260254	-0.395264
193.0	9.474249	-1.884561	-1.324633	0.032768	-0.001997	-0.028961	-0.691406	0.260254	-0.404541
194.0	9.401483	-1.923383	-1.288214	0.039285	-0.008402	-0.024974	-0.689209	0.260254	-0.399902
195.0	9.422558	-1.933455	-1.293349	0.036994	-0.019855	-0.026987	-0.693848	0.260254	-0.397461
196.0	9.422592	-1.961847	-1.346055	0.036212	-0.02319	-0.02971	-0.693848	0.264648	-0.400146
197.0	9.406343	-1.979318	-1.370582	0.041307	-0.028099	-0.033013	-0.693848	0.260254	-0.395264
198.0	9.390324	-1.96607	-1.343983	0.045224	-0.030605	-0.033529	-0.687012	0.262451	-0.393066
199.0	9.44111	-1.990034	-1.307205	0.041884	-0.031475	-0.034605	-0.686768	0.253662	-0.39502
200.0	9.435612	-1.93033	-1.355072	0.048738	-0.03476	-0.035415	-0.687012	0.262695	-0.397705
201.0	9.42837	-1.950007	-1.332245	0.042042	-0.032103	-0.037198	-0.691406	0.255859	-0.397461
202.0	9.447851	-1.934057	-1.412171	0.041069	-0.034769	-0.037348	-0.69165	0.262451	-0.397705
203.0	9.485369	-1.923221	-1.396333	0.042822	-0.033137	-0.034861	-0.693604	0.253662	-0.39502
204.0	9.481033	-1.919422	-1.422443	0.043588	-0.029773	-0.032156	-0.687012	0.258057	-0.395264
205.0	9.464977	-1.906364	-1.395827	0.045343	-0.028142	-0.029669	-0.693604	0.253662	-0.392578
206.0	9.530708	-1.885651	-1.408787	0.040389	-0.019473	-0.028594	-0.686768	0.255859	-0.397461
207.0	9.537259	-1.909378	-1.312944	0.041548	-0.021854	-0.031392	-0.69165	0.262451	-0.393066
208.0	9.495742	-1.91376	-1.356181	0.041687	-0.018089	-0.033622	-0.689209	0.258057	-0.399902
209.0	9.512294	-1.92203	-1.385947	0.049376	-0.026832	-0.032434	-0.689209	0.260254	-0.397461
210.0	9.475218	-1.928072	-1.405389	0.059724	-0.022438	-0.027917	-0.691406	0.260254	-0.395264
211.0	9.450117	-1.913082	-1.42552	0.058867	-0.01694	-0.029937	-0.691406	0.258057	-0.392822
212.0	9.457775	-1.888711	-1.451317	0.062774	-0.019418	-0.030464	-0.693604	0.255859	-0.388184
213.0	9.416428	-1.863104	-1.44276	0.061417	-0.016341	-0.025108	-0.693604	0.255859	-0.390381
214.0	9.444803	-1.851294	-1.472751	0.06568	-0.012729	-0.023935	-0.686768	0.255859	-0.392822
215.0	9.437672	-1.872556	-1.447661	0.063402	-0.016749	-0.019056	-0.695801	0.258057	-0.385742
216.0	9.453981	-1.88276	-1.476364	0.068475	-0.014194	-0.015526	-0.691406	0.260254	-0.399902
217.0	9.461453	-1.859899	-1.501268	0.064651	-0.003526	-0.016911	-0.695557	0.251465	-0.39502
218.0	9.487133	-1.872233	-1.480965	0.067567	-0.00427	-0.017223	-0.693604	0.253662	-0.390381
219.0	9.463825	-1.883179	-1.426453	0.070164	-0.00809	-0.012726	-0.697998	0.253662	-0.399658
220.0	9.47592	-1.861344	-1.427253	0.068698	-0.006622	-0.020036	-0.688965	0.253662	-0.390381
221.0	9.43162	-1.890968	-1.419251	0.06145	-0.005033	-0.020579	-0.695557	0.24707	-0.387695
222.0	9.443828	-1.86863	-1.41994	0.063378	-0.004051	-0.020679	-0.695801	0.255859	-0.392822
223.0	9.427757	-1.887625	-1.441422	0.058387	0.001567	-0.026125	-0.693359	0.251465	-0.380859
224.0	9.428487	-1.854896	-1.389293	0.067793	-0.001072	-0.022107	-0.691406	0.258057	-0.395264
225.0	9.436195	-1.8313	-1.413526	0.055434	0.002357	-0.025842	-0.700195	0.251465	-0.39502
226.0	9.466722	-1.843465	-1.368943	0.057224	-0.000401	-0.023699	-0.688721	0.249268	-0.394775
227.0	9.47875	-1.852212	-1.420326	0.0508	0.000115	-0.021872	-0.696045	0.258057	-0.395264
228.0	9.439225	-1.882512	-1.387771	0.048642	0.004243	-0.018882	-0.693359	0.251465	-0.390381
229.0	9.488814	-1.851592	-1.369824	0.043734	0.008451	-0.018164	-0.695557	0.251465	-0.392578
230.0	9.484637	-1.849746	-1.392142	0.043554	0.009133	-0.015594	-0.691406	0.255859	-0.39502
231.0	9.496925	-1.827394	-1.39205	0.042346	0.008509	-0.019309	-0.691162	0.251465	-0.397217
232.0	9.4991	-1.881689	-1.36804	0.040095	0.004481	-0.014395	-0.695557	0.24707	-0.394775
233.0	9.490449	-1.84754	-1.363954	0.036352	0.006287	-0.01646	-0.693359	0.249268	-0.401855
234.0	9.465402	-1.83377	-1.3821	0.034371	0.009736	-0.016046	-0.691162	0.253662	-0.39502
235.0	9.486591	-1.844977	-1.385136	0.034874	0.00563	-0.008856	-0.697754	0.249268	-0.394775
236.0	9.475029	-1.865914	-1.382223	0.027049	0.010574	-0.007834	-0.691162	0.253662	-0.397217
237.0	9.48716	-1.844309	-1.38213	0.023522	0.01473	-0.005981	-0.695557	0.249268	-0.394775
238.0	9.496634	-1.845784	-1.332308	0.018875	0.016868	-0.001666	-0.686523	0.249268	-0.394775
239.0	9.485006	-1.867473	-1.328769	0.017964	0.017212	0.004713	-0.699951	0.24707	-0.392334
240.0	9.496887	-1.878361	-1.379002	0.014786	0.020017	0.001416	-0.693359	0.251465	-0.397217
241.0	9.518056	-1.859284	-1.330451	0.015248	0.020326	0.00893	-0.693359	0.249268	-0.404053
242.0	9.520897	-1.837426	-1.377513	0.017312	0.025042	0.006575	-0.695557	0.249268	-0.394775
243.0	9.504733	-1.858956	-1.39694	0.011246	0.031634	0.010067	-0.700195	0.249268	-0.406494
244.0	9.509567	-1.860828	-1.369605	0.009265	0.035083	0.010476	-0.691162	0.249268	-0.394775
245.0	9.517121	-1.840095	-1.391537	0.009467	0.037453	0.014387	-0.695557	0.249268	-0.399414
246.0	9.542763	-1.854446	-1.368013	0.003824	0.041322	0.018899	-0.688965	0.253662	-0.390381
247.0	9.53845	-1.855606	-1.387875	-0.001644	0.044516	0.020835	-0.699951	0.24707	-0.387695
248.0	9.526791	-1.879026	-1.382107	-0.005315	0.044945	0.024932	-0.688965	0.251465	-0.399658
249.0	9.476149	-1.856154	-1.417427	-0.011484	0.043394	0.030355	-0.693604	0.255859	-0.397461
250.0	9.42712	-1.85701	-1.379405	-0.014416	0.044158	0.030645	-0.691162	0.251465	-0.392578
251.0	9.434382	-1.869939	-1.452103	-0.008407	0.035496	0.042075	-0.691162	0.253662	-0.404297
252.0	9.393951	-1.873504	-1.366847	-0.007046	0.035472	0.043205	-0.691162	0.253662	-0.399658
253.0	9.389104	-1.845123	-1.337042	-0.002337	0.031962	0.045068	-0.693604	0.255859	-0.39502
254.0	9.416996	-1.839265	-1.363785	-0.006259	0.034455	0.045558	-0.693604	0.253662	-0.390381
255.0	9.433018	-1.822994	-1.338032	-0.01117	0.038678	0.046248	-0.695801	0.255859	-0.404297
256.0	9.453526	-1.839138	-1.338921	-0.011562	0.037004	0.0449	-0.688965	0.253662	-0.399658
257.0	9.456343	-1.820143	-1.38493	-0.028785	0.044624	0.041821	-0.691162	0.249268	-0.397217
258.0	9.493409	-1.814976	-1.363257	-0.044939	0.041673	0.037911	-0.689209	0.258057	-0.392822
259.0	9.527359	-1.86407	-1.34335	-0.054254	0.038539	0.039689	-0.691406	0.258057	-0.395264
260.0	9.506289	-1.823238	-1.285859	-0.060694	0.036022	0.035006	-0.686768	0.253662	-0.399658
261.0	9.501709	-1.824784	-1.307827	-0.068271	0.031493	0.032776	-0.693848	0.260254	-0.390625
262.0	9.45988	-1.802789	-1.297886	-0.075851	0.026971	0.030541	-0.691406	0.255859	-0.392822
263.0	9.459806	-1.836005	-1.347365	-0.080019	0.031559	0.027418	-0.698242	0.258057	-0.404541
264.0	9.389682	-1.854932	-1.359124	-0.086768	0.021568	0.027222	-0.691406	0.260254	-0.397461
265.0	9.481492	-1.906037	-1.3278	-0.102995	0.023124	0.023579	-0.691406	0.260254	-0.390625
266.0	9.464963	-1.89534	-1.29958	-0.097353	0.016215	0.012586	-0.687012	0.260254	-0.397461
267.0	9.482412	-1.930494	-1.255182	-0.075838	0.004689	0.010041	-0.691406	0.260254	-0.395264
268.0	9.481399	-1.9375	-1.379765	-0.068971	0.018483	0.007984	-0.691406	0.258057	-0.399902
269.0	9.411516	-1.954798	-1.392053	-0.068229	0.02188	0.010664	-0.689209	0.258057	-0.4021
270.0	9.419258	-1.932966	-1.416208	-0.07572	0.03165	0.019458	-0.687012	0.258057	-0.392822
271.0	9.455505	-1.901608	-1.468872	-0.083262	0.045865	0.028576	-0.691406	0.258057	-0.397461
272.0	9.50807	-1.850897	-1.498178	-0.078162	0.042621	0.037937	-0.687256	0.264893	-0.397705
273.0	9.618639	-1.836311	-1.563808	-0.050698	0.048182	0.046248	-0.693604	0.258057	-0.397461
274.0	9.585758	-1.849583	-1.553739	-0.03973	0.064864	0.054144	-0.685059	0.269287	-0.395508
275.0	9.60727	-1.859833	-1.427485	-0.039502	0.079902	0.056465	-0.696289	0.264648	-0.393066
276.0	9.558844	-1.918436	-1.365093	-0.056696	0.07746	0.058789	-0.689453	0.262451	-0.395264
277.0	9.500578	-1.88802	-1.322821	-0.072624	0.063733	0.057665	-0.689453	0.264893	-0.397705
278.0	9.450822	-1.890611	-1.285242	-0.088184	0.051702	0.057878	-0.689697	0.269287	-0.397949
279.0	9.417663	-1.934851	-1.328512	-0.093984	0.040013	0.05739	-0.687256	0.264893	-0.402344
280.0	9.425465	-1.941752	-1.278319	-0.092113	0.044066	0.063772	-0.687012	0.262695	-0.402344
281.0	9.436961	-1.925171	-1.277097	-0.096634	0.042619	0.058944	-0.689453	0.26709	-0.402344
282.0	9.424216	-1.950543	-1.274134	-0.085664	0.036123	0.055127	-0.687012	0.260254	-0.395264
283.0	9.419492	-1.953277	-1.296041	-0.082625	0.043591	0.052945	-0.689697	0.269287	-0.397949
284.0	9.369515	-1.955513	-1.259829	-0.077019	0.047162	0.05529	-0.685303	0.271484	-0.402588
285.0	9.397803	-1.949404	-1.286133	-0.077054	0.047211	0.055263	-0.685059	0.26709	-0.400146
286.0	9.381168	-1.998721	-1.233476	-0.081783	0.04503	0.059141	-0.687256	0.269287	-0.400146
287.0	9.409213	-1.962054	-1.208226	-0.088141	0.05532	0.052841	-0.687744	0.278076	-0.400635
288.0	9.442116	-2.012813	-1.189044	-0.094553	0.042635	0.053508	-0.689697	0.271484	-0.395752
289.0	9.433027	-1.957694	-1.256554	-0.098856	0.040537	0.046103	-0.678467	0.269287	-0.402588
290.0	9.511055	-1.977758	-1.244775	-0.10295	0.030484	0.048052	-0.683105	0.273682	-0.395752
291.0	9.506289	-1.979643	-1.268622	-0.099164	0.015293	0.049063	-0.682861	0.271484	-0.400391
292.0	9.518038	-1.992157	-1.321683	-0.100537	0.010968	0.047527	-0.682861	0.271484	-0.395752
293.0	9.529747	-2.030039	-1.302421	-0.097379	0.005081	0.044317	-0.692139	0.273682	-0.393311
294.0	9.487473	-2.008509	-1.295687	-0.090863	-0.0044	0.041848	-0.680908	0.278076	-0.393555
295.0	9.482208	-1.979708	-1.270435	-0.083221	-0.008844	0.043457	-0.689941	0.278076	-0.395996
296.0	9.444208	-1.989784	-1.291955	-0.08872	-0.008499	0.038825	-0.683105	0.273682	-0.397949
297.0	9.472217	-1.981957	-1.323461	-0.087006	-0.006854	0.041317	-0.687744	0.275879	-0.400391
298.0	9.479737	-2.017888	-1.329252	-0.096696	0.001206	0.040083	-0.680908	0.275879	-0.402832
299.0	9.507838	-2.036005	-1.287018	-0.093828	0.009327	0.040536	-0.689941	0.275879	-0.395752
300.0	9.482454	-2.08098	-1.286574	-0.089779	0.013581	0.044342	-0.685547	0.278076	-0.393555
301.0	9.498332	-2.150698	-1.294749	-0.079577	0.011048	0.044698	-0.68335	0.282471	-0.393799
302.0	9.443698	-2.120566	-1.234219	-0.065601	0.008013	0.041036	-0.683105	0.278076	-0.395996
303.0	9.409959	-2.132288	-1.229757	-0.05497	0.008569	0.036649	-0.685547	0.278076	-0.388916
304.0	9.421584	-2.114063	-1.231106	-0.044701	-0.002906	0.036268	-0.683105	0.278076	-0.393555
305.0	9.400172	-2.104586	-1.227763	-0.035645	-0.001617	0.033301	-0.687744	0.278076	-0.391357
306.0	9.445147	-2.106973	-1.285197	-0.01637	0.011861	0.025737	-0.674316	0.280273	-0.395996
307.0	9.436971	-2.079278	-1.403895	-0.012924	0.034297	0.026169	-0.68335	0.280273	-0.398193
308.0	9.453789	-2.121906	-1.480063	-0.003194	0.056743	0.027451	-0.68335	0.280273	-0.391357
309.0	9.499724	-2.094645	-1.47869	0.000416	0.087446	0.026063	-0.689941	0.278076	-0.395996
310.0	9.479964	-2.084849	-1.465101	-0.002061	0.107162	0.026602	-0.685547	0.278076	-0.393555
311.0	9.518044	-2.080225	-1.43584	-0.018627	0.109828	0.025314	-0.678711	0.280273	-0.398193
312.0	9.472607	-2.1091	-1.296604	-0.00388	0.095311	0.029402	-0.687744	0.278076	-0.395996
313.0	9.514691	-2.080282	-1.317568	0.005041	0.079437	0.027514	-0.685547	0.282471	-0.395996
314.0	9.448948	-2.10049	-1.300707	0.014687	0.071375	0.028738	-0.685547	0.278076	-0.402832
315.0	9.515446	-2.085942	-1.30309	0.010345	0.072333	0.027813	-0.685547	0.282471	-0.393799
316.0	9.515317	-2.059221	-1.24411	0.007902	0.072778	0.032961	-0.678955	0.282471	-0.405273
317.0	9.548672	-2.053732	-1.241479	0.003532	0.078207	0.032401	-0.677002	0.289063	-0.40332
318.0	9.528366	-2.044472	-1.229567	-0.002803	0.082716	0.031875	-0.678955	0.284668	-0.403076
319.0	9.531992	-2.019506	-1.146078	-0.00772	0.0782	0.031768	-0.680908	0.278076	-0.400635
320.0	9.511138	-2.06602	-1.114023	-0.01379	0.077567	0.028309	-0.681152	0.280273	-0.407471
321.0	9.478344	-2.076924	-1.102461	-0.02418	0.07787	0.023925	-0.676758	0.284668	-0.398438
322.0	9.454287	-2.064621	-1.115795	-0.019976	0.070124	0.020546	-0.681152	0.282471	-0.398438
323.0	9.400413	-2.118334	-1.080025	-0.025622	0.077094	0.012697	-0.678955	0.284668	-0.407715
324.0	9.400938	-2.11923	-1.073684	-0.020654	0.068238	0.011681	-0.676514	0.280273	-0.402832
325.0	9.364613	-2.126738	-1.087234	-0.011939	0.067821	0.007415	-0.678955	0.286865	-0.403076
326.0	9.332038	-2.135778	-1.07709	-0.006718	0.058275	0.003851	-0.68335	0.280273	-0.400635
327.0	9.394562	-2.173057	-1.084023	0.003364	0.057761	0.000758	-0.678955	0.284668	-0.403076
328.0	9.374482	-2.160654	-1.075041	0.011591	0.042867	-0.003392	-0.676758	0.284668	-0.403076
329.0	9.437079	-2.197229	-1.08278	0.022133	0.045481	-0.01123	-0.678955	0.282471	-0.403076
330.0	9.451142	-2.205103	-1.130496	0.023161	0.039227	-0.011796	-0.676514	0.278076	-0.405273
331.0	9.485012	-2.195466	-1.130789	0.034889	0.033461	-0.016633	-0.681152	0.280273	-0.400635
332.0	9.485994	-2.28002	-1.158356	0.049973	0.024053	-0.020697	-0.676758	0.284668	-0.407715
333.0	9.446998	-2.227392	-1.219678	0.054813	0.017291	-0.025243	-0.680908	0.278076	-0.405273
334.0	9.472967	-2.269549	-1.249045	0.05488	0.008333	-0.025968	-0.676758	0.284668	-0.400879
335.0	9.46109	-2.288957	-1.247098	0.052497	-0.000201	-0.021541	-0.678955	0.286865	-0.405518
336.0	9.478145	-2.212293	-1.243998	0.052444	-0.021947	-0.02077	-0.678711	0.280273	-0.402832
337.0	9.43752	-2.130231	-1.258077	0.063351	-0.03251	-0.022207	-0.683105	0.278076	-0.402832
338.0	9.383366	-2.039551	-1.220402	0.06876	-0.032818	-0.017563	-0.681152	0.284668	-0.400879
339.0	9.349234	-2.017715	-1.165786	0.073168	-0.031343	-0.012728	-0.681152	0.284668	-0.400879
340.0	9.294774	-2.069953	-1.137375	0.08501	-0.023338	-0.009048	-0.676514	0.278076	-0.398193
341.0	9.257362	-2.133452	-1.135711	0.099516	-0.010995	-0.002702	-0.68335	0.282471	-0.405273
342.0	9.319392	-2.171449	-1.14598	0.11414	-0.001691	-0.002843	-0.681152	0.282471	-0.403076
343.0	9.41015	-2.169062	-1.131721	0.127597	0.011515	-0.006376	-0.681152	0.280273	-0.409912
344.0	9.501135	-2.166025	-1.1167	0.136981	0.009132	-0.01835	-0.678711	0.280273	-0.405273
345.0	9.575822	-2.095315	-1.094895	0.124848	0.01227	-0.024942	-0.681152	0.282471	-0.405273
346.0	9.611187	-2.059503	-1.168425	0.118118	0.014121	-0.036916	-0.68335	0.280273	-0.407471
347.0	9.601296	-2.052599	-1.236208	0.098376	0.033104	-0.040642	-0.68335	0.280273	-0.402832
348.0	9.542946	-2.017987	-1.343314	0.101199	0.041307	-0.040243	-0.678711	0.278076	-0.407471
349.0	9.49116	-2.097983	-1.358382	0.095011	0.054098	-0.042732	-0.680664	0.273682	-0.402588
350.0	9.462752	-2.16108	-1.301807	0.088618	0.041325	-0.042068	-0.676514	0.278076	-0.405273
351.0	9.458943	-2.181949	-1.248011	0.077988	0.024937	-0.042645	-0.683105	0.273682	-0.402588
352.0	9.459039	-2.148125	-1.19299	0.059026	0.020995	-0.043084	-0.680664	0.273682	-0.407227
353.0	9.496772	-2.137803	-1.170597	0.052288	0.011954	-0.033372	-0.685303	0.275879	-0.409668
354.0	9.49318	-2.047736	-1.162908	0.053786	0.009813	-0.028636	-0.678467	0.273682	-0.412109
355.0	9.513345	-2.0277	-1.113421	0.046954	0.009744	-0.018279	-0.683105	0.275879	-0.407471
356.0	9.542108	-1.986002	-1.088583	0.036967	0.017075	-0.010957	-0.678711	0.278076	-0.407471
357.0	9.537319	-2.0093	-1.037022	0.021088	0.02604	-0.003175	-0.67627	0.273682	-0.412109
358.0	9.455858	-1.990891	-1.070206	0.003509	0.033358	0.002099	-0.674072	0.273682	-0.405029
359.0	9.423078	-1.999911	-1.062343	-0.008933	0.040119	0.004536	-0.680908	0.273682	-0.412109
360.0	9.406199	-1.989477	-1.030743	-0.01338	0.044105	0.01005	-0.676514	0.278076	-0.409912
361.0	9.374687	-2.02939	-1.073742	-0.016593	0.044626	0.002789	-0.683105	0.278076	-0.402832
362.0	9.4426	-2.042709	-1.130254	-0.018489	0.039187	0.002518	-0.678711	0.278076	-0.409912
363.0	9.498639	-2.021125	-1.208087	-0.022543	0.039387	-0.000979	-0.680908	0.278076	-0.409912
364.0	9.551625	-1.993671	-1.161922	-0.022086	0.032108	-0.000265	-0.680908	0.275879	-0.412109
365.0	9.526336	-1.948832	-1.129154	-0.022011	0.016215	-0.005106	-0.683105	0.275879	-0.412109
366.0	9.500968	-1.903643	-1.097536	-0.016751	0.006658	-0.008558	-0.678711	0.278076	-0.409912
367.0	9.447775	-1.843078	-1.111227	-0.023035	-0.000306	-0.013668	-0.683105	0.275879	-0.409668
368.0	9.402151	-1.927008	-1.084897	-0.026392	0.00331	-0.014476	-0.678955	0.282471	-0.409912
369.0	9.464765	-1.962235	-1.096159	-0.033298	0.006732	-0.013851	-0.687744	0.278076	-0.412109
370.0	9.485492	-2.028497	-1.078167	-0.029158	0.00795	-0.016497	-0.676514	0.282471	-0.407715
371.0	9.54781	-2.119421	-1.067133	-0.038981	0.019094	-0.011433	-0.683105	0.275879	-0.412109
372.0	9.584846	-2.110695	-1.046285	-0.040839	0.02055	-0.007493	-0.678955	0.282471	-0.412354
373.0	9.618345	-2.100785	-1.049346	-0.039903	0.023285	-0.007361	-0.67627	0.273682	-0.407471
374.0	9.610271	-2.066563	-1.044723	-0.043364	0.025497	-0.002034	-0.67627	0.275879	-0.409668
375.0	9.589833	-2.053584	-1.039305	-0.046732	0.029127	-0.002847	-0.67627	0.275879	-0.409668
376.0	9.548702	-2.028238	-1.029586	-0.054125	0.039863	-0.002942	-0.685303	0.275879	-0.409668
377.0	9.54563	-2.026196	-1.051153	-0.054581	0.036756	0.001839	-0.680908	0.278076	-0.407471
378.0	9.509498	-2.032929	-1.068104	-0.062138	0.049616	-0.001844	-0.681152	0.280273	-0.416992
379.0	9.469945	-2.038335	-1.108771	-0.052041	0.045665	0.004794	-0.678711	0.278076	-0.402832
380.0	9.450727	-2.112166	-1.131369	-0.049641	0.056667	0.004183	-0.673828	0.269287	-0.418701
381.0	9.438973	-2.133026	-1.126343	-0.046171	0.06139	0.003069	-0.681152	0.280273	-0.409912
382.0	9.453602	-2.142017	-1.173205	-0.051573	0.068607	0.002602	-0.674316	0.282471	-0.407715
383.0	9.475141	-2.153854	-1.171598	-0.051937	0.066933	0.001234	-0.683105	0.278076	-0.412109
384.0	9.437652	-2.130498	-1.135014	-0.041323	0.061592	0.002778	-0.67627	0.275879	-0.409668
385.0	9.468028	-2.119985	-1.15853	-0.026474	0.05294	0.001385	-0.680908	0.275879	-0.409668
386.0	9.475217	-2.123117	-1.106218	-0.012067	0.041134	0.004787	-0.674316	0.278076	-0.409912
387.0	9.496926	-2.079729	-1.127549	-0.009452	0.038601	0.003222	-0.678711	0.280273	-0.414551
388.0	9.521967	-2.037814	-1.125045	-0.003465	0.032427	0.002476	-0.678711	0.275879	-0.409668
389.0	9.508086	-2.028998	-1.070289	0.00065	0.027693	0.00567	-0.678711	0.278076	-0.416748
390.0	9.517244	-2.007136	-1.09226	0.006715	0.023907	0.008833	-0.678711	0.278076	-0.409912
391.0	9.487501	-2.018383	-1.061649	0.008661	0.024859	0.008801	-0.674316	0.282471	-0.409912
392.0	9.517369	-2.009165	-1.087429	0.012776	0.020124	0.011997	-0.676514	0.278076	-0.407471
393.0	9.501689	-2.030128	-1.108674	0.019292	0.026393	0.014602	-0.674561	0.284668	-0.410156
394.0	9.489308	-2.052923	-1.105264	0.02588	0.02815	0.016884	-0.68335	0.280273	-0.414551
395.0	9.484175	-2.022949	-1.07446	0.021495	0.033584	0.016233	-0.676514	0.282471	-0.405273
396.0	9.454279	-2.03515	-1.04289	0.016726	0.031356	0.020049	-0.678711	0.280273	-0.414551
397.0	9.450933	-2.035571	-1.06389	0.013091	0.028776	0.017553	-0.671875	0.278076	-0.412109
398.0	9.470315	-2.078293	-1.140123	0.013956	0.029117	0.013792	-0.678955	0.282471	-0.409912
399.0	9.4587	-2.044979	-1.157842	0.010317	0.033455	0.015516	-0.676514	0.282471	-0.409912
400.0	9.449654	-2.069002	-1.130006	0.016498	0.031101	0.012552	-0.674561	0.284668	-0.410156
401.0	9.468524	-2.052552	-1.079232	0.020076	0.020823	0.016645	-0.678711	0.280273	-0.416992
402.0	9.468422	-2.053939	-1.077494	0.017131	0.007813	0.008416	-0.681152	0.282471	-0.407715
403.0	9.51257	-2.054035	-1.156329	0.020088	0.00698	0.008212	-0.674316	0.280273	-0.412354
404.0	9.482561	-2.065203	-1.127133	0.020689	0.008005	0.007005	-0.669678	0.278076	-0.412109
405.0	9.498125	-2.046592	-1.1022	0.014169	0.008655	0.008615	-0.678711	0.280273	-0.414551
406.0	9.501291	-2.048983	-1.076944	0.012824	0.008728	0.00744	-0.676514	0.282471	-0.409912
407.0	9.462851	-2.026701	-1.045037	0.011357	0.000448	0.00819	-0.67627	0.275879	-0.414307
408.0	9.495937	-2.018655	-1.04851	0.008864	0.004423	0.003602	-0.676514	0.278076	-0.409912
409.0	9.507492	-2.054025	-1.026955	0.009605	0.003329	0.005982	-0.674316	0.280273	-0.407715
410.0	9.524965	-2.065554	-1.053985	0.010541	0.006067	0.006122	-0.676758	0.284668	-0.412354
411.0	9.483424	-2.041364	-1.045881	0.001123	0.013498	0.00211	-0.676514	0.280273	-0.416992
412.0	9.507524	-2.055373	-1.023955	0.00408	0.012663	0.001907	-0.667725	0.282471	-0.416992
413.0	9.498424	-2.078085	-0.998208	0.00509	0.010878	0.001736	-0.678711	0.278076	-0.414551
414.0	9.507705	-2.05569	-1.021633	0.005359	0.010186	-0.000816	-0.674316	0.280273	-0.409912
415.0	9.473354	-2.09331	-1.092411	0.004423	0.007449	-0.000956	-0.674316	0.282471	-0.412354
416.0	9.47672	-2.094635	-1.067206	0.006565	0.012232	-0.003228	-0.671875	0.275879	-0.412109
417.0	9.480071	-2.095961	-1.042084	0.00839	0.004828	-0.001329	-0.676514	0.280273	-0.412354
418.0	9.45935	-2.0836	-1.0381	0.013368	0.00042	-0.001872	-0.676758	0.282471	-0.412354
419.0	9.511437	-2.056623	-0.993681	0.00967	0.002349	-0.004051	-0.672119	0.282471	-0.412354
420.0	9.484273	-2.041275	-1.038328	0.014785	-0.004173	-0.001008	-0.674316	0.282471	-0.414551
421.0	9.487399	-2.043027	-1.014371	0.022178	-0.008026	0.003349	-0.674561	0.284668	-0.419434
422.0	9.541236	-2.047208	-1.021863	0.022102	-0.003499	0.003657	-0.674316	0.280273	-0.409912
423.0	9.495522	-2.0775	-1.017595	0.024121	-0.007069	0.003316	-0.674316	0.278076	-0.414551
424.0	9.504602	-2.055703	-1.041825	0.02726	0.002865	0.005073	-0.674316	0.280273	-0.414551
425.0	9.486906	-2.045664	-1.013672	0.029081	-0.004533	0.006974	-0.672119	0.284668	-0.414795
426.0	9.474312	-2.067638	-1.01308	0.026123	-0.003696	0.007174	-0.671875	0.278076	-0.416748
427.0	9.456565	-2.057518	-0.985549	0.024519	-0.009865	0.004348	-0.681152	0.280273	-0.412354
428.0	9.50063	-2.057773	-1.065963	0.024653	-0.011972	0.007934	-0.676758	0.282471	-0.412354
429.0	9.484722	-2.078353	-1.09026	0.025254	-0.010948	0.006725	-0.676758	0.284668	-0.410156
430.0	9.509279	-2.037227	-1.091735	0.02626	-0.012729	0.006554	-0.678955	0.284668	-0.410156
431.0	9.523347	-2.04765	-1.144087	0.025852	-0.009919	0.005514	-0.676514	0.280273	-0.407715
432.0	9.518022	-2.016142	-1.11771	0.015319	-0.01601	-0.000589	-0.669922	0.282471	-0.405273
433.0	9.545928	-1.975606	-1.095615	0.014309	-0.014223	-0.000421	-0.672119	0.282471	-0.412354
434.0	9.561518	-1.955714	-1.072916	0.00719	-0.011082	-0.007324	-0.669678	0.278076	-0.409912
435.0	9.603931	-1.923966	-1.102203	0.002822	-0.005661	-0.007989	-0.678711	0.278076	-0.409912
436.0	9.676962	-1.908344	-1.062008	0.00288	0.000273	-0.013825	-0.674316	0.282471	-0.414551
437.0	9.700491	-1.97646	-1.019367	0.000456	0.006647	-0.014525	-0.678711	0.280273	-0.412354
438.0	9.687069	-2.025429	-1.093778	-0.001757	0.006391	-0.01194	-0.676758	0.284668	-0.414795
439.0	9.626957	-2.017715	-1.134224	-0.008333	0.004618	-0.014216	-0.676514	0.280273	-0.419189
440.0	9.523999	-2.014248	-1.243392	-0.009409	0.00399	-0.017941	-0.676758	0.282471	-0.414551
441.0	9.557798	-1.921311	-1.365969	-0.002224	-0.000149	-0.02107	-0.685791	0.284668	-0.414795
442.0	9.581978	-1.790138	-1.336936	-0.00372	0.005555	-0.035565	-0.672119	0.282471	-0.414551
443.0	9.803479	-1.690125	-1.384467	-0.00477	0.021334	-0.050663	-0.678711	0.280273	-0.412354
444.0	10.007828	-1.57724	-1.402789	-0.014762	0.037204	-0.069053	-0.669678	0.280273	-0.414551
445.0	10.168914	-1.604838	-1.347911	-0.023763	0.051314	-0.087627	-0.676758	0.286865	-0.407959
446.0	10.243389	-1.635096	-1.280578	-0.023446	0.059185	-0.115827	-0.678711	0.278076	-0.416748
447.0	10.160055	-1.769289	-1.272449	0.021176	0.041836	-0.145429	-0.676514	0.282471	-0.409912
448.0	9.940773	-1.96491	-1.348942	0.09803	0.029114	-0.176358	-0.680908	0.278076	-0.407471
449.0	9.695182	-2.145449	-1.470229	0.162713	0.011041	-0.188392	-0.678711	0.280273	-0.416992
450.0	9.424635	-2.171022	-1.60389	0.182576	0.014138	-0.204368	-0.678711	0.275879	-0.416748
451.0	9.280188	-1.95672	-1.641908	0.216939	0.028325	-0.226698	-0.680664	0.271484	-0.416504
452.0	9.328082	-1.655076	-1.675618	0.260948	0.037086	-0.243739	-0.678467	0.269287	-0.414063
453.0	9.408286	-1.454317	-1.668696	0.317341	0.047807	-0.265217	-0.678467	0.269287	-0.418701
454.0	9.479554	-1.385676	-1.59148	0.371551	0.058873	-0.276755	-0.673584	0.264893	-0.414063
455.0	9.439574	-1.309643	-1.52235	0.399743	0.082164	-0.290146	-0.68042	0.262695	-0.427734
456.0	9.369729	-1.273762	-1.497406	0.416792	0.11847	-0.298631	-0.675781	0.260498	-0.41626
457.0	9.270816	-1.02842	-1.509491	0.424159	0.144952	-0.290953	-0.684814	0.260498	-0.418457
458.0	9.14705	-0.796698	-1.445121	0.427119	0.163483	-0.265929	-0.679932	0.251709	-0.42041
459.0	8.959141	-0.58771	-1.349471	0.406301	0.178824	-0.228394	-0.68457	0.253906	-0.42749
460.0	8.714198	-0.467416	-1.324663	0.37044	0.15779	-0.171401	-0.679932	0.249512	-0.427246
461.0	8.523344	-0.386544	-1.383707	0.2968	0.152192	-0.110067	-0.679932	0.249512	-0.429688
462.0	8.569307	-0.416301	-1.547185	0.194769	0.157308	-0.060279	-0.675293	0.247314	-0.429688
463.0	8.758963	-0.388207	-1.726568	0.107605	0.169741	-0.026047	-0.681885	0.247314	-0.427246
464.0	9.027468	-0.539115	-1.841796	0.072713	0.162091	-0.01189	-0.67749	0.247314	-0.438965
465.0	9.503706	-0.74086	-1.858619	0.088365	0.138623	-0.026296	-0.670898	0.249512	-0.434326
466.0	10.009076	-1.039987	-1.879343	0.118947	0.118185	-0.056484	-0.672607	0.240723	-0.438721
467.0	10.35821	-1.309458	-1.931227	0.166068	0.097716	-0.083821	-0.677246	0.24292	-0.431641
468.0	10.482364	-1.503751	-1.858564	0.18801	0.099572	-0.098959	-0.677246	0.240723	-0.434082
469.0	10.367622	-1.624313	-1.782612	0.212387	0.101201	-0.095408	-0.686279	0.24292	-0.431641
470.0	10.127954	-1.567652	-1.693025	0.243723	0.098743	-0.078567	-0.666016	0.240723	-0.440918
471.0	9.980032	-1.429367	-1.688544	0.265593	0.091109	-0.061378	-0.668213	0.238525	-0.436279
472.0	9.863914	-1.391773	-1.663612	0.262747	0.084137	-0.051585	-0.677246	0.240723	-0.438721
473.0	9.80868	-1.301685	-1.59672	0.266586	0.09971	-0.041561	-0.665771	0.238525	-0.438477
474.0	9.770752	-1.081441	-1.506541	0.274752	0.145995	-0.031073	-0.670654	0.245117	-0.438721
475.0	9.788158	-0.917689	-1.394154	0.27438	0.175088	-0.019355	-0.667969	0.236328	-0.440918
476.0	9.840161	-0.852637	-1.232528	0.256902	0.19918	-0.006834	-0.666016	0.24292	-0.447998
477.0	9.828529	-0.970773	-0.984502	0.231424	0.228448	0.030109	-0.670166	0.234131	-0.443115
478.0	9.934178	-1.128577	-0.743099	0.206048	0.276067	0.084884	-0.663574	0.238525	-0.450195
479.0	10.045563	-1.307472	-0.643027	0.184987	0.333151	0.160733	-0.665771	0.236328	-0.454834
480.0	10.082104	-1.533824	-0.478357	0.185056	0.405947	0.242821	-0.659424	0.24292	-0.457275
481.0	9.95684	-1.813926	-0.215922	0.131934	0.502331	0.321199	-0.661621	0.24292	-0.452637
482.0	9.684116	-2.212641	0.11887	0.001178	0.623586	0.395406	-0.657227	0.247314	-0.464355
483.0	9.192956	-2.479355	0.346601	-0.17119	0.721391	0.460093	-0.655029	0.247314	-0.462158
484.0	8.461214	-2.65261	0.43678	-0.320878	0.798107	0.498318	-0.650879	0.256348	-0.47168
485.0	7.732257	-2.658912	0.464664	-0.407305	0.867178	0.500157	-0.648682	0.258545	-0.471924
486.0	7.069323	-2.446307	-0.231285	-0.4135	0.947378	0.473547	-0.639893	0.265137	-0.479004
487.0	7.125656	-1.674683	-0.383742	-0.356222	0.925053	0.412331	-0.640137	0.267334	-0.486084
488.0	7.608171	-1.177839	0.071103	-0.405921	0.927841	0.255926	-0.635498	0.267334	-0.486084
489.0	8.284882	-1.137866	0.001531	-0.6768	1.004007	0.020516	-0.626709	0.271973	-0.495605
490.0	9.266018	-1.086479	-0.612904	-0.936831	1.129777	-0.18337	-0.626709	0.271973	-0.497803
491.0	10.491269	-1.535167	-1.375797	-0.854688	1.157767	-0.24784	-0.624268	0.269775	-0.50708
492.0	12.037533	-2.46853	-1.642047	-0.591316	0.981806	-0.165932	-0.620117	0.27417	-0.504883
493.0	13.350625	-3.818677	-1.852765	-0.50421	0.746466	0.06975	-0.620117	0.276367	-0.511963
494.0	13.834069	-4.284133	-2.501228	-0.539348	0.466156	0.362523	-0.611572	0.287354	-0.519287
495.0	12.598846	-3.822381	-2.80706	-0.479467	0.298577	0.57091	-0.613525	0.282959	-0.514648
496.0	10.991707	-3.496363	-2.436985	-0.447763	0.247979	0.64637	-0.611816	0.293945	-0.512695
497.0	9.71052	-3.186715	-2.012272	-0.51169	0.32163	0.64574	-0.607422	0.296143	-0.508057
498.0	8.975182	-2.728929	-1.679658	-0.556356	0.416909	0.603631	-0.603027	0.298584	-0.512695
499.0	8.690544	-2.199192	-1.611012	-0.541905	0.482887	0.553332	-0.59668	0.311768	-0.518066
500.0	8.785583	-1.944893	-1.654902	-0.523232	0.514578	0.510364	-0.594482	0.311768	-0.518066
501.0	8.737844	-1.9112	-1.422986	-0.541028	0.498968	0.46406	-0.592529	0.318359	-0.51123
502.0	8.511969	-2.195154	-1.227708	-0.557381	0.444605	0.422184	-0.592529	0.318359	-0.520508
503.0	8.297178	-2.453923	-1.063819	-0.531867	0.38909	0.392417	-0.586182	0.327148	-0.518555
504.0	8.045297	-3.032057	-0.98406	-0.467259	0.353588	0.392533	-0.581787	0.32959	-0.518555
505.0	7.776899	-3.492768	-0.852757	-0.366593	0.333986	0.404078	-0.583984	0.331787	-0.523438
506.0	7.481317	-3.725564	-0.778748	-0.227249	0.327399	0.42853	-0.570557	0.333984	-0.520996
507.0	7.275238	-3.90773	-0.666624	-0.088524	0.313524	0.443416	-0.577637	0.342773	-0.521484
508.0	7.237772	-3.92778	-0.622552	0.009913	0.288095	0.434985	-0.575439	0.342773	-0.519043
509.0	7.536991	-3.800064	-0.510417	0.065425	0.265604	0.421585	-0.573242	0.342773	-0.526123
510.0	7.72503	-3.668858	-0.504701	0.135301	0.235346	0.381087	-0.571045	0.347168	-0.523926
511.0	7.919706	-3.445678	-0.514711	0.211414	0.207905	0.315674	-0.564209	0.340576	-0.52832
512.0	8.018113	-3.282352	-0.636979	0.281574	0.19676	0.247881	-0.559814	0.344971	-0.528564
513.0	8.084784	-3.074677	-0.660269	0.344219	0.188822	0.176053	-0.564453	0.347168	-0.533203
514.0	8.099868	-2.979311	-0.648447	0.385681	0.187692	0.112629	-0.562012	0.342773	-0.532959
515.0	8.013777	-2.90784	-0.771941	0.443572	0.173178	0.052589	-0.564209	0.340576	-0.5354
516.0	8.037539	-2.801495	-0.809536	0.500988	0.143216	0.009375	-0.559326	0.336182	-0.532715
517.0	8.311931	-2.757642	-0.777025	0.571803	0.126076	-0.024446	-0.55957	0.338379	-0.537598
518.0	8.546142	-2.758537	-0.627425	0.617899	0.122685	-0.03207	-0.557129	0.331787	-0.539551
519.0	8.976317	-2.790336	-0.604087	0.65622	0.128474	-0.012388	-0.55249	0.331787	-0.544189
520.0	9.376195	-2.843385	-0.755036	0.684613	0.10699	0.022464	-0.554443	0.325195	-0.546387
521.0	9.566662	-2.851497	-0.85335	0.70025	0.078631	0.046804	-0.552002	0.320801	-0.541504
522.0	9.570936	-2.719591	-1.093016	0.725401	0.042208	0.064548	-0.554443	0.325195	-0.548584
523.0	9.423078	-2.689211	-1.404345	0.732042	0.026248	0.072345	-0.552002	0.318604	-0.543701
524.0	9.166953	-2.75193	-1.557248	0.707236	0.049138	0.086101	-0.542725	0.312012	-0.552734
525.0	9.135541	-3.040283	-1.63519	0.674724	0.080382	0.095609	-0.552002	0.316406	-0.55542
526.0	9.496403	-3.401519	-1.640225	0.654189	0.08451	0.099249	-0.542725	0.314209	-0.550537
527.0	9.996909	-3.849417	-1.822447	0.631296	0.049335	0.095562	-0.546875	0.30542	-0.55249
528.0	10.760608	-4.151403	-2.075412	0.612817	-0.018052	0.070336	-0.544678	0.30542	-0.55957
529.0	11.46259	-4.278064	-2.047905	0.593766	-0.071806	0.036356	-0.540283	0.30542	-0.557129
530.0	11.786919	-4.253272	-2.024186	0.564112	-0.132249	-0.009801	-0.542236	0.301025	-0.559326
531.0	11.690831	-4.1923	-2.083357	0.528751	-0.222701	-0.046181	-0.546631	0.296631	-0.559326
532.0	11.575272	-3.910701	-1.992838	0.423676	-0.289736	-0.075433	-0.542236	0.298828	-0.552246
533.0	11.27299	-3.633571	-2.15717	0.286728	-0.370944	-0.100027	-0.548828	0.294434	-0.547607
534.0	10.932759	-3.384399	-2.45641	0.257311	-0.419833	-0.128769	-0.543945	0.287842	-0.542725
535.0	11.387899	-3.529312	-1.994988	0.37821	-0.348132	-0.156385	-0.546143	0.285645	-0.547119
536.0	13.229666	-3.110237	2.001192	0.511217	-0.087779	-0.104106	-0.543701	0.283447	-0.544678
537.0	14.587558	-3.171161	1.316934	-0.193256	0.298463	-0.012933	-0.543945	0.285645	-0.549561
538.0	15.130558	-2.965232	-1.52922	-0.681333	0.012546	0.020281	-0.539551	0.290039	-0.538086
539.0	14.327382	-2.029369	-0.734159	-0.631824	-0.067968	-0.04842	-0.539551	0.290039	-0.540283
540.0	11.424998	-2.30629	1.817405	-0.360274	-0.242723	-0.109383	-0.5354	0.296631	-0.53833
541.0	10.242472	-2.62846	0.753689	-0.353291	-0.664866	-0.162381	-0.546387	0.294434	-0.53125
542.0	10.05921	-3.436042	1.051595	-0.35552	-0.651452	-0.260867	-0.543945	0.287842	-0.531006
543.0	9.388937	-3.03927	2.753788	0.057604	-0.693912	-0.382883	-0.550781	0.292236	-0.526611
544.0	8.692288	-2.693056	3.54109	0.524353	-0.761255	-0.385028	-0.550537	0.285645	-0.528564
545.0	8.333672	-3.314281	3.125373	0.748787	-0.726402	-0.315188	-0.554688	0.276611	-0.523682
546.0	7.769476	-4.225266	2.517714	0.741809	-0.527186	-0.244254	-0.547852	0.27002	-0.525635
547.0	7.593231	-4.862519	1.973809	0.639118	-0.316556	-0.156237	-0.556641	0.27002	-0.520996
548.0	7.675244	-4.684863	2.02666	0.547377	-0.202326	-0.042871	-0.554443	0.27002	-0.518799
549.0	7.976111	-4.016291	2.284054	0.447986	-0.057232	0.056109	-0.552246	0.27002	-0.525635
550.0	8.551773	-3.362168	2.631321	0.353324	0.114283	0.106293	-0.552002	0.263428	-0.520752
551.0	9.776423	-2.794259	2.949628	0.299994	0.237319	0.070525	-0.554443	0.265625	-0.527832
552.0	11.323303	-2.559681	3.071625	0.314956	0.256717	-0.045841	-0.547363	0.259033	-0.532227
553.0	12.305408	-2.360765	2.675111	0.294891	0.121855	-0.159666	-0.552002	0.263428	-0.534668
554.0	12.075887	-2.060744	1.839863	0.165697	-0.097735	-0.245089	-0.545166	0.26123	-0.534668
555.0	11.364761	-1.539294	1.380249	0.082277	-0.217893	-0.297271	-0.549561	0.256836	-0.529785
556.0	10.470176	-1.406938	1.350904	0.052259	-0.243702	-0.335778	-0.553711	0.252441	-0.527344
557.0	9.589507	-1.430031	1.360707	0.077157	-0.257574	-0.369878	-0.551514	0.252441	-0.529785
558.0	8.782842	-1.686221	1.200095	0.17813	-0.271162	-0.391698	-0.553955	0.256836	-0.527588
559.0	8.14779	-1.827457	0.970826	0.247947	-0.247861	-0.402219	-0.560303	0.24585	-0.5271
560.0	7.600688	-1.80448	0.640613	0.277792	-0.203356	-0.397968	-0.55127	0.243652	-0.529297
561.0	7.334205	-1.788829	0.378215	0.302311	-0.126926	-0.385582	-0.551025	0.237061	-0.524414
562.0	7.090362	-1.732253	0.167856	0.307146	-0.064134	-0.365005	-0.553223	0.239258	-0.522217
563.0	7.207886	-1.642224	0.020708	0.313428	-0.041695	-0.331046	-0.55542	0.234863	-0.529053
564.0	7.467248	-1.492743	-0.027048	0.290976	-0.005414	-0.286478	-0.555176	0.230469	-0.528809
565.0	7.729504	-1.22505	0.037423	0.251007	0.019985	-0.247219	-0.555176	0.228271	-0.526367
566.0	8.039954	-0.794614	0.014196	0.203987	0.044373	-0.225088	-0.552734	0.226074	-0.528809
567.0	8.211061	-0.454056	-0.031113	0.160554	0.042292	-0.219897	-0.555176	0.230469	-0.526611
568.0	8.356303	-0.362774	-0.17712	0.102024	0.011829	-0.226407	-0.557129	0.226074	-0.528809
569.0	8.392407	-0.262842	-0.331204	-0.013629	-0.012099	-0.229084	-0.550293	0.219482	-0.533203
570.0	8.059607	-0.331661	-0.362358	-0.120811	-0.020422	-0.232837	-0.554688	0.219238	-0.523926
571.0	7.789635	-0.310478	-0.20404	-0.202224	-0.015055	-0.231528	-0.552734	0.226074	-0.533447
572.0	7.571083	-0.427741	0.068623	-0.257373	-0.000963	-0.204899	-0.550293	0.223877	-0.531006
573.0	7.499126	-0.757495	0.220412	-0.33886	0.022121	-0.170008	-0.55249	0.22168	-0.530762
574.0	7.375065	-1.154219	0.25132	-0.448575	0.040207	-0.111195	-0.552734	0.223877	-0.531006
575.0	7.60984	-1.210209	0.093012	-0.570825	0.062532	-0.060441	-0.55249	0.22168	-0.530762
576.0	7.636312	-1.271846	-0.295728	-0.703262	0.06775	-0.019307	-0.543701	0.228271	-0.526611
577.0	7.763429	-1.184378	-0.545313	-0.86577	0.081868	0.007987	-0.543945	0.232666	-0.53125
578.0	7.805644	-1.26423	-0.615792	-0.981879	0.093317	0.031973	-0.543945	0.232666	-0.53125
579.0	8.09002	-1.093024	-0.835946	-1.022302	0.116145	0.047747	-0.546387	0.239258	-0.533936
580.0	8.567729	-0.890789	-1.139626	-1.040256	0.151892	0.058062	-0.544434	0.243652	-0.522461
581.0	8.968259	-0.806306	-1.336251	-1.047244	0.203534	0.053067	-0.544434	0.241455	-0.531738
582.0	9.358707	-1.026653	-1.081613	-0.954279	0.18743	0.040993	-0.540283	0.250244	-0.524902
583.0	9.974596	-1.496648	-0.86495	-0.791742	0.143891	0.010902	-0.542236	0.248047	-0.527344
584.0	10.827922	-1.962741	-0.787407	-0.634638	0.142505	-0.020319	-0.535889	0.252441	-0.531982
585.0	11.821292	-2.304541	-0.896707	-0.495262	0.169942	-0.050345	-0.540283	0.254639	-0.532227
586.0	12.709604	-2.688026	-1.106351	-0.420626	0.171832	-0.086201	-0.53833	0.26123	-0.530029
587.0	13.275021	-2.668276	-1.508096	-0.457479	0.092635	-0.120533	-0.536133	0.259033	-0.530029
588.0	13.387658	-2.509896	-2.09352	-0.531359	0.002436	-0.121477	-0.531494	0.261475	-0.527832
589.0	12.936834	-2.408143	-2.360161	-0.503181	-0.125222	-0.074122	-0.538574	0.263428	-0.527832
590.0	12.619713	-2.040438	-2.844956	-0.538849	-0.222832	-0.013433	-0.53418	0.270264	-0.523438
591.0	12.380152	-1.619496	-3.152404	-0.590275	-0.193443	0.045855	-0.531982	0.272461	-0.525879
592.0	12.920937	-1.944481	-1.634624	-0.608497	0.076615	0.07795	-0.531982	0.272461	-0.523438
593.0	13.743932	-3.098618	0.214597	-0.311296	0.279883	0.062105	-0.536377	0.270264	-0.530273
594.0	14.752906	-4.26695	0.394326	0.151213	0.080079	-0.04199	-0.531982	0.270264	-0.530273
595.0	14.217777	-4.749035	0.24484	0.174128	-0.178358	-0.13922	-0.531982	0.272461	-0.523438
596.0	13.294377	-4.869646	1.868474	0.066987	0.012882	-0.17917	-0.529541	0.268066	-0.534912
597.0	11.525423	-3.952519	2.908374	-0.028874	0.065501	-0.1605	-0.536621	0.272461	-0.535156
598.0	10.738451	-3.453425	2.905986	-0.172616	-0.003471	-0.15288	-0.527588	0.274658	-0.532959
599.0	9.919392	-2.90846	3.902251	-0.269139	0.01787	-0.107038	-0.529785	0.272461	-0.535156
600.0	9.036822	-2.648064	3.753399	-0.424587	-0.055377	-0.089317	-0.527832	0.279053	-0.530762
601.0	8.314357	-1.796999	3.102211	-0.586301	-0.023117	-0.071781	-0.530273	0.283447	-0.5354
602.0	8.072751	-1.319985	2.618444	-0.7258	0.11024	-0.077848	-0.528076	0.285645	-0.531006
603.0	8.390987	-1.207174	2.675988	-0.578013	0.25483	-0.120286	-0.528076	0.283447	-0.533203
604.0	8.829698	-1.030649	2.3689	-0.393564	0.378227	-0.197679	-0.523682	0.285645	-0.535645
605.0	9.591155	-1.213136	2.0236	-0.300494	0.486968	-0.272011	-0.52124	0.285645	-0.540283
606.0	10.873991	-1.125352	2.318313	-0.185388	0.608697	-0.313598	-0.516846	0.287842	-0.544922
607.0	12.139742	-1.360898	2.43741	-0.147196	0.616538	-0.317674	-0.521484	0.287842	-0.544922
608.0	12.475078	-1.640597	2.118029	-0.161177	0.562303	-0.246734	-0.521484	0.287842	-0.547363
609.0	12.080093	-2.167231	1.555927	-0.183731	0.406844	-0.151006	-0.51709	0.290039	-0.547363
610.0	11.166385	-2.864692	1.376949	-0.173653	0.270894	-0.042216	-0.512695	0.29248	-0.547363
611.0	10.077269	-2.874172	1.267349	-0.171234	0.128986	0.062462	-0.514893	0.29248	-0.556641
612.0	8.853465	-2.930353	1.15063	-0.147651	0.013177	0.127632	-0.510742	0.30127	-0.550049
613.0	8.127602	-2.748887	0.971892	-0.116664	-0.027739	0.171822	-0.510742	0.303467	-0.547852
614.0	7.462698	-2.552984	0.851226	-0.081177	0.02093	0.203922	-0.506348	0.305664	-0.550293
615.0	6.996226	-2.446174	0.795689	-0.054963	0.083694	0.215494	-0.510742	0.30127	-0.554688
616.0	6.775015	-2.344295	0.817404	-0.031048	0.159002	0.227064	-0.50415	0.305664	-0.55249
617.0	6.818122	-2.179264	0.752235	0.013323	0.211134	0.230949	-0.508789	0.310059	-0.545898
618.0	6.789036	-1.996766	0.660535	0.05467	0.244118	0.224253	-0.504395	0.312256	-0.552734
619.0	6.788178	-2.006395	0.630461	0.121934	0.243322	0.201542	-0.497559	0.312256	-0.557617
620.0	6.711049	-2.144742	0.632024	0.199922	0.25173	0.181068	-0.500244	0.321045	-0.55542
621.0	6.682546	-2.340628	0.661254	0.291185	0.262954	0.161616	-0.502197	0.314453	-0.557617
622.0	6.502357	-2.712891	0.564327	0.394984	0.260345	0.147898	-0.490967	0.314453	-0.566895
623.0	6.497714	-3.151147	0.635215	0.508961	0.25558	0.147252	-0.497803	0.318848	-0.567139
624.0	6.522622	-3.422571	0.82698	0.624245	0.238896	0.137615	-0.486572	0.318848	-0.553223
625.0	6.539612	-3.542059	0.786916	0.75395	0.209691	0.131207	-0.490967	0.314453	-0.569092
626.0	6.683527	-3.479209	0.529596	0.92386	0.142611	0.112513	-0.486328	0.312256	-0.566895
627.0	6.805389	-3.37207	0.222781	1.065119	0.087933	0.09704	-0.490967	0.312256	-0.576172
628.0	6.807302	-2.945723	0.17691	1.053664	-0.02049	0.084762	-0.488281	0.303467	-0.568848
629.0	6.971585	-2.641235	-0.187162	1.042202	-0.091619	0.068611	-0.48584	0.30127	-0.578125
630.0	6.880512	-2.339374	-0.544639	1.099092	-0.179279	0.048868	-0.488037	0.299072	-0.571045
631.0	7.247396	-2.104439	-1.006931	1.219099	-0.308633	0.001415	-0.481201	0.296875	-0.580078
632.0	7.315131	-2.100514	-1.514825	1.321863	-0.423554	-0.065941	-0.483154	0.288086	-0.579834
633.0	7.546709	-2.248349	-1.539836	1.336723	-0.494393	-0.135311	-0.491943	0.281494	-0.577148
634.0	8.128168	-2.346658	-1.212107	1.250834	-0.486436	-0.150087	-0.496338	0.281494	-0.574951
635.0	9.421246	-2.275387	-0.8487	1.091203	-0.422452	-0.136725	-0.494141	0.279297	-0.577148
636.0	10.741699	-2.125993	-0.589265	0.961538	-0.245948	-0.064468	-0.491699	0.2771	-0.577148
637.0	11.82052	-1.894988	-0.282814	0.774647	-0.136836	0.014921	-0.491455	0.270508	-0.581543
638.0	13.333006	-2.033983	-0.32589	0.580521	-0.080611	0.06987	-0.491455	0.272705	-0.576904
639.0	14.076206	-2.346069	-0.798139	0.492197	-0.095981	0.114166	-0.493896	0.272705	-0.576904
640.0	14.010497	-2.355598	-1.529924	0.424628	-0.22084	0.123072	-0.493652	0.268311	-0.57666
641.0	13.425355	-2.31723	-2.036178	0.375608	-0.354666	0.088298	-0.491455	0.268311	-0.57666
642.0	12.745959	-2.244081	-2.392297	0.327814	-0.430036	0.037055	-0.491455	0.268311	-0.574463
643.0	12.057813	-2.502939	-2.861075	0.270429	-0.372251	-0.04112	-0.493896	0.272705	-0.572266
644.0	11.389229	-3.226613	-2.5052	0.239263	-0.301764	-0.128367	-0.493652	0.268311	-0.562744
645.0	11.755168	-3.981459	1.847845	0.67207	-0.178606	-0.158205	-0.498047	0.263916	-0.57666
646.0	13.772715	-3.223859	3.349006	0.703648	-0.199038	-0.065372	-0.495605	0.261719	-0.564941
647.0	16.627627	-5.357057	1.132953	0.22591	0.419795	-0.042553	-0.49585	0.268311	-0.572021
648.0	16.778288	-4.586972	6.045301	0.1283	0.184897	0.09955	-0.489014	0.266113	-0.574463
649.0	15.805341	-3.535789	3.840251	0.134806	-0.621472	0.237486	-0.493408	0.266113	-0.565186
650.0	12.971218	-1.34203	2.406747	0.132922	-0.403204	0.328908	-0.49585	0.268311	-0.558105
651.0	9.417026	-0.135374	4.644959	0.26936	-0.640362	0.280258	-0.493652	0.268311	-0.560547
652.0	7.427749	-0.234401	4.035924	0.54066	-0.645201	0.203616	-0.500244	0.263672	-0.551025
653.0	6.246516	-0.823153	3.222044	0.551902	-0.491528	0.184237	-0.507324	0.270264	-0.560547
654.0	5.807587	-1.968722	2.227452	0.443266	-0.320411	0.172991	-0.495605	0.263672	-0.555664
655.0	6.053342	-2.484716	1.98632	0.401167	-0.117238	0.237201	-0.502441	0.263672	-0.558105
656.0	7.304546	-2.481398	2.641873	0.318808	0.098382	0.3783	-0.500244	0.265869	-0.558105
657.0	9.757179	-2.300599	3.396855	0.108572	0.483461	0.495204	-0.498291	0.272705	-0.560791
658.0	11.551698	-2.891113	3.824666	0.070864	0.575464	0.461396	-0.496094	0.272705	-0.56543
659.0	13.083665	-2.99682	2.144236	0.110971	0.293616	0.301094	-0.489258	0.272705	-0.572266
660.0	14.055122	-3.468145	1.287822	0.140491	0.149496	0.073758	-0.493896	0.274902	-0.567627
661.0	12.913903	-3.620858	1.586978	0.099378	0.080824	-0.125609	-0.493896	0.272705	-0.567627
662.0	10.586833	-2.932112	1.450213	-0.027303	-0.020435	-0.205268	-0.491699	0.274902	-0.567627
663.0	9.811737	-2.05858	1.438105	-0.071344	-0.119097	-0.227989	-0.491455	0.272705	-0.567627
664.0	8.911673	-1.525957	1.094633	-0.068058	-0.159437	-0.204613	-0.491455	0.270508	-0.569824
665.0	7.89797	-1.20512	0.87608	-0.102628	-0.167549	-0.161253	-0.493408	0.266113	-0.562744
666.0	7.305042	-0.934108	0.519501	-0.147323	-0.109228	-0.101284	-0.496094	0.272705	-0.570068
667.0	6.943449	-0.755386	0.368029	-0.193316	-0.043163	-0.080492	-0.500244	0.268311	-0.565186
668.0	6.902163	-0.520617	0.403288	-0.224484	0.00053	-0.0853	-0.498047	0.266113	-0.562744
669.0	6.881372	-0.232693	0.510093	-0.270374	0.040813	-0.123276	-0.493652	0.270508	-0.560547
670.0	7.041796	-0.228064	0.572436	-0.346397	0.081431	-0.166024	-0.49585	0.268311	-0.562744
671.0	7.123306	-0.121655	0.595077	-0.43652	0.122916	-0.202742	-0.498291	0.274902	-0.562988
672.0	7.170784	-0.022113	0.62078	-0.532934	0.162507	-0.232179	-0.493896	0.272705	-0.562988
673.0	7.274895	-0.191813	0.539563	-0.585193	0.19264	-0.257867	-0.494141	0.279297	-0.565674
674.0	7.32753	-0.497554	0.471079	-0.663049	0.202453	-0.259738	-0.500732	0.274902	-0.56543
675.0	7.313098	-0.480937	0.382213	-0.762499	0.184802	-0.252559	-0.498291	0.274902	-0.567627
676.0	7.234846	-0.623808	0.304156	-0.867858	0.177338	-0.24194	-0.498535	0.279297	-0.565674
677.0	7.048344	-0.957694	0.232221	-0.95895	0.166613	-0.214373	-0.493896	0.2771	-0.570068
678.0	6.808822	-1.291037	0.147228	-1.053766	0.151063	-0.166118	-0.496582	0.285889	-0.558838
679.0	6.797003	-1.53231	0.013088	-1.131616	0.146829	-0.115471	-0.492432	0.294678	-0.568359
680.0	6.873391	-1.79911	-0.29209	-1.193573	0.129887	-0.060865	-0.492432	0.294678	-0.559082
681.0	7.045068	-1.94775	-0.629059	-1.270007	0.105306	-0.008253	-0.49707	0.296875	-0.559326
682.0	7.139622	-1.852686	-0.814436	-1.32357	0.101	0.048126	-0.49292	0.305664	-0.554932
683.0	7.345174	-1.430719	-0.801238	-1.383176	0.09223	0.092519	-0.497559	0.310059	-0.552734
684.0	7.805036	-1.124809	-0.877525	-1.335853	0.117822	0.107928	-0.48877	0.318848	-0.553223
685.0	8.546302	-1.064273	-0.921649	-1.260637	0.127209	0.093173	-0.49585	0.323242	-0.548584
686.0	9.466597	-1.470768	-0.510578	-1.099896	0.184894	0.05001	-0.489258	0.325439	-0.553467
687.0	10.581767	-1.99215	-0.157892	-0.921879	0.231783	0.013523	-0.489502	0.334473	-0.555908
688.0	11.802353	-2.932624	0.069018	-0.690076	0.236884	-0.039177	-0.487305	0.334473	-0.555908
689.0	12.653822	-3.97921	-0.210496	-0.42897	0.173072	-0.078177	-0.496338	0.334473	-0.55835
690.0	13.291224	-4.884137	-1.203414	-0.242584	-0.003624	-0.10982	-0.489502	0.334473	-0.553711
691.0	13.106133	-4.884282	-1.97461	-0.13811	-0.125535	-0.11243	-0.493896	0.332031	-0.55127
692.0	12.897216	-4.124042	-2.645602	-0.116156	-0.173506	-0.075024	-0.491699	0.334473	-0.549072
693.0	12.413506	-3.007512	-2.855208	-0.165086	-0.153091	0.006999	-0.491943	0.33667	-0.546875
694.0	11.96492	-2.045217	-3.237867	-0.240869	-0.184617	0.103685	-0.491943	0.33667	-0.551514
695.0	12.003198	-1.181274	-2.061697	-0.461194	-0.153541	0.172112	-0.494141	0.341064	-0.546875
696.0	12.877166	-1.494277	2.658251	-0.997157	0.365459	0.194913	-0.483154	0.343262	-0.547119
697.0	14.391769	-3.414958	4.144666	-0.753078	0.411837	0.130081	-0.487793	0.345459	-0.551758
698.0	18.132933	-4.045268	3.315954	0.12477	0.232077	-0.080382	-0.492188	0.345459	-0.544922
699.0	16.064153	-4.394813	4.871246	-0.204548	-0.215418	-0.368996	-0.48999	0.349854	-0.549561
700.0	14.238693	-3.967216	3.246359	-0.63376	-0.421731	-0.477209	-0.492188	0.347656	-0.549561
701.0	10.38475	-2.722208	3.616769	-0.587573	-0.333368	-0.402299	-0.499023	0.347656	-0.547119
702.0	8.060875	-1.686359	3.84238	-0.741095	-0.364381	-0.286061	-0.49707	0.354248	-0.552002
703.0	7.120481	-1.097279	2.560051	-0.782656	-0.320999	-0.232312	-0.503662	0.352051	-0.544922
704.0	6.640352	-0.688127	1.781337	-0.658	-0.144175	-0.238097	-0.503906	0.356445	-0.53833
705.0	6.91706	-0.643143	1.626838	-0.621867	0.091537	-0.264161	-0.505859	0.351807	-0.542725
706.0	7.895173	-1.273257	2.276084	-0.517487	0.388441	-0.31258	-0.501465	0.352051	-0.535645
707.0	9.677978	-2.286043	3.314295	-0.29415	0.712395	-0.36971	-0.503906	0.356445	-0.542969
708.0	12.719426	-1.762465	4.008113	0.093582	0.850218	-0.405892	-0.499268	0.352051	-0.549805
709.0	14.523863	-1.728248	2.662431	0.16943	0.589467	-0.399725	-0.508545	0.358643	-0.552246
710.0	15.290242	-1.857996	1.443676	0.001335	0.270189	-0.29421	-0.492432	0.354248	-0.556641
711.0	13.55782	-1.551652	1.436753	-0.127803	0.146007	-0.155458	-0.508301	0.354248	-0.554443
712.0	10.932035	-1.435977	1.516038	-0.121737	-0.058341	-0.041605	-0.49707	0.352051	-0.556641
713.0	9.513165	-1.777245	1.465561	-0.09327	-0.23252	0.056081	-0.506104	0.354248	-0.552002
714.0	8.313894	-2.139675	1.157447	-0.030231	-0.281969	0.140466	-0.501465	0.349854	-0.558838
715.0	7.255216	-2.340333	0.765351	0.087283	-0.302036	0.193588	-0.508301	0.352051	-0.549561
716.0	6.750309	-2.631347	0.494557	0.17089	-0.281104	0.221041	-0.503906	0.358643	-0.550049
717.0	6.565267	-2.827073	0.469443	0.211857	-0.214274	0.23261	-0.508545	0.36084	-0.554688
718.0	6.439019	-2.906443	0.568728	0.251209	-0.167199	0.239473	-0.506104	0.354248	-0.556641
719.0	6.408262	-2.918361	0.465246	0.276814	-0.162943	0.233594	-0.50415	0.36084	-0.552246
720.0	6.315295	-2.845118	0.219588	0.333717	-0.171887	0.216969	-0.506348	0.358643	-0.554688
721.0	6.254688	-2.654307	0.18838	0.414412	-0.166222	0.202375	-0.506348	0.363037	-0.557129
722.0	6.228513	-2.659334	0.041688	0.526159	-0.165136	0.176933	-0.506348	0.358643	-0.552246
723.0	6.1889	-2.837014	-0.020938	0.642911	-0.140006	0.161994	-0.510498	0.354248	-0.561279
724.0	6.217331	-2.889344	-0.036366	0.726747	-0.146485	0.147103	-0.506104	0.354248	-0.565918
725.0	6.164282	-2.889783	-0.097566	0.857572	-0.093046	0.138401	-0.510498	0.352051	-0.565918
726.0	5.847199	-2.747521	0.107282	0.975217	-0.106307	0.145294	-0.505859	0.347656	-0.561035
727.0	5.855139	-2.482201	0.147149	1.12335	-0.150008	0.128599	-0.510254	0.343018	-0.563232
728.0	6.048498	-2.38029	0.258511	1.18816	-0.212492	0.093685	-0.512451	0.343018	-0.565674
729.0	6.354509	-2.268012	-0.140272	1.309543	-0.237935	0.06727	-0.516602	0.336426	-0.579346
730.0	6.900418	-2.06277	-0.30324	1.437353	-0.269604	0.032203	-0.511719	0.325439	-0.57666
731.0	7.425415	-1.867914	-0.672652	1.505931	-0.309681	0.002329	-0.518555	0.325439	-0.588135
732.0	7.910139	-1.658012	-1.131092	1.507794	-0.397223	-0.047055	-0.513672	0.318848	-0.578613
733.0	8.264571	-1.472359	-1.515915	1.498539	-0.489444	-0.100044	-0.522461	0.310059	-0.589844
734.0	8.641459	-1.475464	-1.737036	1.48368	-0.53283	-0.130247	-0.522217	0.305664	-0.585205
735.0	9.089223	-1.460028	-1.643285	1.444274	-0.514349	-0.12225	-0.526611	0.303467	-0.5896
736.0	9.494727	-1.455849	-1.061892	1.345113	-0.4186	-0.0528	-0.528564	0.294678	-0.586914
737.0	10.50812	-0.958034	-0.881692	1.120993	-0.306229	0.032622	-0.521484	0.290283	-0.591553
738.0	11.664749	-0.623598	-1.129707	0.830381	-0.149036	0.101032	-0.52832	0.290283	-0.586914
739.0	12.720462	-0.757935	-1.160861	0.518493	0.003731	0.140421	-0.52832	0.29248	-0.589355
740.0	13.784947	-1.169589	-1.401939	0.302239	0.017845	0.16381	-0.530762	0.29248	-0.589355
741.0	13.950227	-1.644763	-1.992555	0.187498	-0.085053	0.178296	-0.521729	0.29248	-0.591553
742.0	13.241852	-2.098084	-2.431013	0.156831	-0.184367	0.170477	-0.528564	0.294678	-0.60083
743.0	12.781961	-2.487288	-2.824346	0.110482	-0.215233	0.126334	-0.530762	0.296875	-0.598633
744.0	12.660562	-3.435267	-1.670612	0.257604	-0.145297	0.058415	-0.530762	0.296875	-0.591797
745.0	14.008867	-2.875696	1.626757	0.495611	0.021902	0.076576	-0.528564	0.294678	-0.591553
746.0	15.909819	-3.357436	-0.030887	-0.05873	0.297538	0.081304	-0.530762	0.294678	-0.60083
747.0	17.339199	-3.341046	2.941243	-0.395057	0.479989	0.11712	-0.528564	0.296875	-0.601074
748.0	16.398833	-3.550818	3.785482	-0.413282	-0.034206	0.265982	-0.521973	0.30127	-0.601318
749.0	14.697575	-3.489696	3.692966	-0.152922	-0.448963	0.391893	-0.531006	0.303467	-0.59668
750.0	12.072404	-2.755366	1.727982	-0.105782	-0.474647	0.46021	-0.533691	0.310059	-0.589844
751.0	9.219445	-2.073022	3.032581	0.144894	-0.482501	0.405572	-0.54248	0.307861	-0.594482
752.0	7.727232	-1.464128	3.369738	0.489708	-0.522158	0.368641	-0.535889	0.307861	-0.589844
753.0	6.789505	-1.336951	3.068771	0.509088	-0.439161	0.344398	-0.540283	0.310059	-0.594482
754.0	6.334586	-1.974816	2.331023	0.42019	-0.283653	0.326601	-0.540283	0.305664	-0.587402
755.0	7.187957	-2.621878	1.816781	0.186063	0.034909	0.368784	-0.533691	0.310059	-0.589844
756.0	7.8012	-3.082451	2.917908	0.127621	0.247314	0.475197	-0.535889	0.312256	-0.590088
757.0	9.535127	-2.953926	2.277608	0.036977	0.368004	0.538921	-0.53418	0.323242	-0.597412
758.0	12.015337	-2.960213	2.228882	-0.009812	0.580332	0.484914	-0.529541	0.318848	-0.597168
759.0	13.514055	-3.315363	2.155511	0.01487	0.416656	0.303093	-0.531982	0.323242	-0.599609
760.0	14.062583	-3.336999	1.470291	0.005133	0.188122	0.073001	-0.527588	0.327637	-0.602295
761.0	12.895485	-3.277954	1.064384	-0.065192	0.111452	-0.113236	-0.529785	0.325439	-0.604492
762.0	11.250859	-2.710716	1.067296	-0.184869	0.052306	-0.195996	-0.529541	0.323242	-0.597412
763.0	10.188897	-1.906878	1.026029	-0.225823	0.038507	-0.218017	-0.527588	0.325439	-0.599854
764.0	9.247758	-1.181646	1.018973	-0.237525	-0.026323	-0.192976	-0.529785	0.327637	-0.597412
765.0	8.173802	-0.591452	0.629491	-0.250513	-0.04126	-0.142594	-0.531982	0.327637	-0.592773
766.0	7.487866	-0.304345	0.580259	-0.264285	9.6e-05	-0.109193	-0.532471	0.334229	-0.588379
767.0	7.004866	-0.206548	0.511387	-0.29496	0.062061	-0.098961	-0.539063	0.332031	-0.593018
768.0	6.666901	-0.198407	0.458908	-0.307124	0.110238	-0.106801	-0.536621	0.329834	-0.590576
769.0	6.544401	-0.200998	0.48876	-0.351276	0.1398	-0.135451	-0.54126	0.332031	-0.595459
770.0	6.580994	-0.342397	0.340987	-0.411092	0.157493	-0.168388	-0.534668	0.334229	-0.593018
771.0	6.661198	-0.440767	0.313573	-0.47388	0.178373	-0.200517	-0.534668	0.336426	-0.588623
772.0	6.727195	-0.474141	0.232038	-0.517856	0.203495	-0.222187	-0.539307	0.338623	-0.593262
773.0	6.798783	-0.516699	0.005531	-0.581359	0.21942	-0.233637	-0.536865	0.336426	-0.586182
774.0	6.856844	-0.651833	-0.041968	-0.645168	0.255631	-0.245217	-0.534668	0.338623	-0.586426
775.0	6.73182	-0.761062	-0.098641	-0.714054	0.270103	-0.246296	-0.541748	0.343018	-0.588867
776.0	6.87692	-1.027893	-0.062592	-0.746813	0.299489	-0.228441	-0.535156	0.347412	-0.584229
777.0	7.043138	-1.283541	-0.200334	-0.808514	0.29864	-0.198643	-0.541992	0.347412	-0.582031
778.0	7.156241	-1.535496	-0.345501	-0.91284	0.293248	-0.137393	-0.5354	0.354004	-0.589111
779.0	7.15726	-1.892757	-0.573054	-1.027757	0.281535	-0.05839	-0.540039	0.358398	-0.584717
780.0	7.216017	-2.088071	-0.664854	-1.201423	0.275738	0.037828	-0.535889	0.36499	-0.582764
781.0	7.386696	-2.129229	-0.637056	-1.294927	0.258864	0.095931	-0.535889	0.36499	-0.571045
782.0	7.274198	-1.925901	-0.554738	-1.353544	0.232586	0.154074	-0.529541	0.376221	-0.57373
783.0	7.87925	-1.720151	-1.08429	-1.401908	0.258921	0.152707	-0.545654	0.382568	-0.569336
784.0	8.03796	-1.498928	-1.068919	-1.387676	0.293786	0.14109	-0.532227	0.389404	-0.562744
785.0	8.368957	-1.465766	-1.043761	-1.288505	0.240015	0.102894	-0.530029	0.391602	-0.562744
786.0	8.953989	-1.804001	-0.824484	-1.159689	0.243182	0.070114	-0.528076	0.398193	-0.562988
787.0	9.776169	-2.176595	-0.592009	-1.005271	0.249748	0.035322	-0.52832	0.402588	-0.556152
788.0	10.143307	-3.105428	-0.166242	-0.784926	0.248625	0.010888	-0.52832	0.402588	-0.560791
789.0	11.188216	-3.990777	-0.603148	-0.503973	0.147477	-0.018583	-0.530518	0.402588	-0.551514
790.0	12.2018	-4.409686	-1.098202	-0.172413	0.158885	-0.0647	-0.528564	0.406982	-0.558594
791.0	12.844403	-4.50289	-1.654994	0.052211	0.144196	-0.089035	-0.525879	0.398193	-0.55835
792.0	12.863322	-4.223776	-2.396282	0.128056	0.115542	-0.089743	-0.52832	0.404785	-0.561035
793.0	12.51893	-3.627133	-2.653301	0.07283	0.055169	-0.052462	-0.530518	0.402588	-0.551514
794.0	12.370827	-2.786587	-2.685914	-0.055966	0.014731	0.025175	-0.52832	0.400391	-0.549072
795.0	12.35676	-1.790211	-3.041354	-0.142507	0.023522	0.112742	-0.537354	0.402588	-0.553955
796.0	13.044656	-1.250863	-0.505072	-0.264457	0.314114	0.184879	-0.526123	0.402588	-0.551514
797.0	13.70273	-2.921354	1.220535	-0.311453	0.480773	0.168266	-0.525879	0.400391	-0.553711
798.0	17.240509	-4.054222	1.391427	0.195462	0.493735	0.006935	-0.525879	0.400391	-0.553711
799.0	16.977724	-4.679699	3.751897	0.447127	0.281488	-0.167942	-0.534912	0.400391	-0.55835
800.0	14.504619	-4.005164	4.504286	0.03734	-0.05331	-0.247785	-0.527832	0.389404	-0.553467
801.0	12.003826	-3.21622	3.316441	-0.218353	-0.247594	-0.309994	-0.534912	0.395996	-0.55127
802.0	9.30482	-2.113948	3.365179	-0.394536	-0.281786	-0.254615	-0.532471	0.393799	-0.553467
803.0	7.956852	-1.395958	3.156939	-0.553712	-0.146117	-0.173496	-0.541504	0.393555	-0.546631
804.0	6.690141	-1.043881	3.4321	-0.659419	-0.050847	-0.136589	-0.543701	0.393555	-0.541992
805.0	6.234177	-0.714163	2.629673	-0.604787	-0.038026	-0.149502	-0.543701	0.393555	-0.537354
806.0	6.620403	-0.614935	2.032754	-0.570068	0.098819	-0.193527	-0.54126	0.38916	-0.534668
807.0	7.390049	-1.111237	2.498027	-0.488773	0.320323	-0.273049	-0.537109	0.395996	-0.537354
808.0	8.72055	-2.189158	2.714976	-0.271016	0.560583	-0.366578	-0.539063	0.391357	-0.539551
809.0	10.894137	-2.100244	3.424881	0.108595	0.801024	-0.437437	-0.543457	0.386963	-0.541748
810.0	12.830773	-1.706481	2.982173	0.27064	0.805469	-0.515558	-0.538818	0.382568	-0.548584
811.0	13.776909	-1.867937	1.945922	0.239138	0.599869	-0.476708	-0.542969	0.375977	-0.555176
812.0	13.822084	-2.061501	1.595566	0.131449	0.395254	-0.378237	-0.540527	0.371582	-0.550293
813.0	12.347722	-2.36563	1.606398	0.020948	0.128753	-0.235155	-0.542725	0.371582	-0.552734
814.0	10.370836	-2.46691	1.374566	0.085087	-0.1013	-0.088634	-0.540771	0.373779	-0.555176
815.0	9.485878	-2.655734	1.354408	0.196852	-0.203823	0.035393	-0.540527	0.367188	-0.550293
816.0	8.622155	-2.491147	0.982638	0.223103	-0.251118	0.106957	-0.545166	0.373779	-0.548096
817.0	7.735697	-2.623469	0.576405	0.27894	-0.26443	0.159239	-0.547119	0.367188	-0.550293
818.0	7.156028	-2.758247	0.65829	0.344978	-0.234418	0.177972	-0.54248	0.362793	-0.550049
819.0	6.776171	-2.894674	0.620556	0.359069	-0.213592	0.177816	-0.555908	0.358398	-0.554443
820.0	6.663439	-2.752831	0.572501	0.348046	-0.166094	0.184799	-0.546875	0.362793	-0.55249
821.0	6.518774	-2.577479	0.428087	0.332113	-0.109024	0.184044	-0.548828	0.354004	-0.549805
822.0	6.617065	-2.51541	0.326294	0.367769	-0.066596	0.179766	-0.553467	0.358398	-0.547607
823.0	6.781951	-2.487222	0.206589	0.427359	-0.043332	0.15814	-0.553467	0.358398	-0.554443
824.0	6.823571	-2.570368	0.163897	0.499307	-0.05221	0.138044	-0.553467	0.354004	-0.547363
825.0	6.632597	-2.67709	0.022911	0.590422	-0.047711	0.124301	-0.557861	0.351807	-0.552002
826.0	6.583381	-2.703227	0.152886	0.664446	-0.061966	0.116135	-0.550781	0.347412	-0.556396
827.0	6.606431	-2.771467	0.095851	0.779531	0.022705	0.126099	-0.55542	0.345215	-0.561035
828.0	6.126658	-2.783391	0.045759	0.906855	0.052054	0.135714	-0.557373	0.338379	-0.560791
829.0	6.234882	-2.939452	0.079741	1.046321	0.020758	0.136462	-0.557373	0.338379	-0.560791
830.0	6.403367	-2.808581	0.011775	1.135338	-0.059258	0.118336	-0.554688	0.32959	-0.562744
831.0	6.795511	-2.707609	-0.211453	1.213905	-0.147101	0.099221	-0.558838	0.322998	-0.56958
832.0	7.012004	-2.53532	-0.506492	1.298596	-0.180384	0.073953	-0.560791	0.314209	-0.566895
833.0	7.255716	-2.217963	-0.781015	1.322768	-0.23967	0.036687	-0.560547	0.309814	-0.56665
834.0	7.422066	-1.978056	-1.001824	1.330441	-0.28439	0.008184	-0.560547	0.307617	-0.571289
835.0	7.664875	-1.787999	-1.150257	1.307938	-0.302205	-0.03243	-0.5625	0.301025	-0.577881
836.0	8.092108	-1.730345	-1.357969	1.26874	-0.306694	-0.072606	-0.562012	0.287842	-0.582031
837.0	8.598922	-1.888927	-1.135882	1.198692	-0.309142	-0.092073	-0.564209	0.283447	-0.57959
838.0	9.81997	-1.483643	-0.490279	1.0565	-0.24082	-0.08876	-0.566406	0.283447	-0.582031
839.0	10.982767	-1.319028	-0.277615	0.871512	-0.049403	-0.057194	-0.577393	0.274414	-0.576904
840.0	12.260939	-0.869471	-0.585294	0.630464	0.037706	-0.003163	-0.568115	0.27002	-0.58374
841.0	13.492695	-0.823754	-0.938796	0.374011	0.055299	0.034883	-0.574951	0.27002	-0.586182
842.0	13.637108	-1.126123	-1.339513	0.207227	-0.028808	0.067199	-0.572266	0.263428	-0.57666
843.0	13.340056	-1.66891	-1.994456	0.054067	-0.163263	0.07479	-0.579346	0.267822	-0.581299
844.0	12.822319	-2.166504	-2.56581	-0.088722	-0.278229	0.054994	-0.577148	0.27002	-0.58374
845.0	12.326907	-2.458264	-2.721759	-0.171589	-0.349575	0.018058	-0.58374	0.265625	-0.585938
846.0	11.565008	-3.222417	-2.474005	-0.123526	-0.470917	-0.042698	-0.579346	0.267822	-0.569824
847.0	12.216916	-4.059424	2.093523	0.622382	-0.515338	-0.047872	-0.583496	0.263428	-0.574219
848.0	14.363358	-2.647317	2.489557	0.555772	-0.460188	0.037655	-0.585449	0.256836	-0.569336
849.0	17.297575	-4.55613	1.938654	0.024202	0.401845	-0.02561	-0.583252	0.254639	-0.576172
850.0	17.468158	-3.521379	5.961095	-0.219423	0.256129	0.104999	-0.585693	0.256836	-0.578613
851.0	15.441017	-3.63362	4.710193	-0.338793	-0.559214	0.261999	-0.585938	0.263428	-0.571777
852.0	12.689566	-2.647039	2.695734	-0.555199	-0.565013	0.435409	-0.592773	0.265625	-0.564941
853.0	10.036097	-1.161279	4.102568	-0.280543	-0.504472	0.468686	-0.595215	0.27002	-0.562744
854.0	7.953355	-1.398517	3.564565	0.060341	-0.537231	0.440223	-0.599609	0.267822	-0.560547
855.0	6.916683	-1.325022	2.954265	0.247957	-0.488462	0.43493	-0.601807	0.267822	-0.562744
856.0	6.067151	-1.941306	2.553788	0.246293	-0.317985	0.378374	-0.604004	0.27002	-0.555908
857.0	6.998104	-1.887988	3.069385	0.106777	0.023573	0.389372	-0.599854	0.274414	-0.55835
858.0	8.159746	-2.478693	3.699001	-0.136466	0.436611	0.4835	-0.597656	0.278809	-0.563232
859.0	9.746826	-2.789332	3.458617	-0.236265	0.447104	0.541343	-0.599854	0.276611	-0.560791
860.0	11.849817	-2.79209	2.385969	-0.200714	0.304058	0.488687	-0.588867	0.281006	-0.567871
861.0	13.559608	-3.527712	1.673671	-0.038091	0.176737	0.280332	-0.593262	0.281006	-0.565674
862.0	14.195793	-4.016658	1.032659	0.031541	0.145793	0.02764	-0.593262	0.278809	-0.567871
863.0	12.39276	-4.215912	0.782839	0.051803	0.199451	-0.163194	-0.591064	0.278809	-0.57251
864.0	10.471447	-3.309051	1.28613	-0.039923	0.182645	-0.224571	-0.597656	0.278809	-0.570068
865.0	9.689497	-2.592159	1.345843	-0.052009	0.164585	-0.243605	-0.597656	0.274414	-0.574707
866.0	8.552582	-1.786172	1.19895	-0.104501	0.107682	-0.221032	-0.597656	0.276611	-0.579346
867.0	7.73339	-1.396103	0.829107	-0.169552	0.070849	-0.183638	-0.602051	0.272217	-0.574463
868.0	7.013801	-0.926796	0.530467	-0.234721	0.084956	-0.143062	-0.599609	0.27002	-0.574463
869.0	6.815912	-0.684256	0.506945	-0.228773	0.179925	-0.116428	-0.602051	0.274414	-0.574707
870.0	6.897965	-0.440419	0.556408	-0.197035	0.240269	-0.111088	-0.602295	0.278809	-0.577148
871.0	6.899234	-0.149331	0.551369	-0.226369	0.237806	-0.130233	-0.599854	0.276611	-0.576904
872.0	7.0346	0.032741	0.53943	-0.293795	0.215221	-0.158858	-0.604248	0.272217	-0.574463
873.0	7.063837	-0.036363	0.365587	-0.346316	0.203956	-0.196809	-0.604248	0.272217	-0.581543
874.0	7.189332	-0.156507	0.324284	-0.387567	0.207871	-0.230665	-0.606689	0.276611	-0.581543
875.0	7.223747	-0.33309	0.279628	-0.428914	0.224431	-0.243066	-0.599854	0.274414	-0.586182
876.0	7.269338	-0.400856	0.204529	-0.482372	0.227308	-0.255283	-0.604248	0.274414	-0.583984
877.0	7.343791	-0.596972	0.210751	-0.532652	0.220017	-0.262248	-0.602051	0.272217	-0.58374
878.0	7.330235	-0.910257	0.138193	-0.575166	0.208854	-0.245455	-0.599854	0.274414	-0.586182
879.0	7.42918	-1.258953	-0.100368	-0.613875	0.19224	-0.21234	-0.599854	0.276611	-0.579346
880.0	7.517948	-1.491711	-0.128521	-0.672242	0.180475	-0.16165	-0.609131	0.281006	-0.57959
881.0	7.556349	-1.805217	-0.384015	-0.786011	0.201031	-0.096037	-0.602539	0.2854	-0.584229
882.0	7.436054	-1.976312	-0.490537	-0.947812	0.217912	-0.028142	-0.600342	0.287598	-0.584473
883.0	7.278472	-1.994452	-0.460676	-1.06635	0.198415	0.036514	-0.602783	0.291992	-0.582275
884.0	7.331771	-1.800396	-0.43953	-1.142261	0.136555	0.078282	-0.605225	0.296387	-0.582275
885.0	7.656139	-1.379081	-0.682334	-1.171316	0.099692	0.088613	-0.609863	0.300781	-0.577881
886.0	7.823923	-1.136138	-1.011261	-1.200542	0.09035	0.085554	-0.603271	0.305176	-0.573486
887.0	8.288496	-1.168664	-1.069925	-1.202177	0.135849	0.05344	-0.599121	0.311768	-0.57373
888.0	8.88993	-1.405548	-0.752807	-1.121434	0.179933	0.032028	-0.603516	0.30957	-0.575928
889.0	9.876141	-1.984553	-0.243536	-0.8977	0.20021	0.011742	-0.601807	0.322998	-0.576416
890.0	10.885181	-2.801206	-0.04794	-0.664024	0.137725	-0.008641	-0.601563	0.318359	-0.571533
891.0	11.963938	-3.686438	-0.271885	-0.378234	0.148052	-0.031965	-0.601807	0.322998	-0.571777
892.0	12.863784	-4.163044	-0.575317	-0.090436	0.129677	-0.061717	-0.601807	0.322998	-0.573975
893.0	13.32669	-4.278461	-1.389559	0.08937	-0.003526	-0.067921	-0.604004	0.320801	-0.578613
894.0	13.162853	-4.058949	-2.206769	0.074806	-0.099188	-0.058697	-0.610596	0.316162	-0.580811
895.0	12.560939	-3.38661	-2.649554	-0.073418	-0.096309	0.002331	-0.612793	0.313965	-0.583008
896.0	11.9068	-2.378882	-2.677648	-0.21945	-0.075374	0.096045	-0.610596	0.320557	-0.571777
897.0	11.777294	-1.274346	-1.797168	-0.313011	-0.007925	0.198971	-0.610596	0.318359	-0.571533
898.0	12.497858	-1.876672	3.093795	-0.643236	0.284671	0.191297	-0.606445	0.325195	-0.574219
899.0	14.049187	-3.768824	1.562421	-0.433442	0.244073	0.110487	-0.608887	0.331787	-0.581299
900.0	17.796295	-4.542675	2.708451	0.334795	0.509303	-0.052132	-0.608643	0.327393	-0.57666
901.0	14.953808	-4.197283	6.156735	0.104794	-0.089746	-0.302296	-0.608643	0.324951	-0.576416
902.0	13.411999	-3.713977	3.382897	-0.519604	-0.428303	-0.416575	-0.613037	0.322754	-0.578613
903.0	11.014925	-3.079709	3.23396	-0.429251	-0.329191	-0.386601	-0.61792	0.329346	-0.57666
904.0	8.191541	-2.060146	4.519719	-0.470129	-0.318339	-0.268671	-0.619873	0.327148	-0.562744
905.0	7.166486	-1.674236	3.011169	-0.622079	-0.351688	-0.160842	-0.622314	0.331543	-0.572021
906.0	6.683365	-1.11598	2.181642	-0.439322	-0.261966	-0.127144	-0.620117	0.329346	-0.567383
907.0	6.928955	-0.614457	1.927701	-0.360809	-0.071832	-0.138061	-0.624512	0.327148	-0.564941
908.0	7.837435	-1.229846	2.014825	-0.28763	0.164241	-0.194792	-0.626709	0.329346	-0.564941
909.0	9.350776	-2.020613	2.803195	-0.128134	0.434889	-0.237936	-0.624756	0.33374	-0.567627
910.0	11.231617	-2.14333	3.550498	0.065371	0.622944	-0.279866	-0.624512	0.324951	-0.571777
911.0	13.004087	-2.169129	2.989189	0.146981	0.527696	-0.291803	-0.619873	0.327148	-0.574219
912.0	14.080644	-2.323093	2.077704	0.191926	0.250851	-0.260127	-0.619873	0.322754	-0.578613
913.0	13.544984	-2.274139	1.793822	0.070593	0.0393	-0.184554	-0.624512	0.329346	-0.57666
914.0	11.650168	-2.092663	1.2204	-0.063281	-0.122076	-0.100916	-0.619873	0.327148	-0.57666
915.0	10.223136	-2.090107	1.212613	-0.009826	-0.203227	-0.053114	-0.62915	0.329346	-0.574219
916.0	9.170629	-2.229105	1.131374	0.051504	-0.233201	-0.00831	-0.626709	0.327148	-0.574219
917.0	8.314002	-2.377286	0.951172	0.12484	-0.255318	0.047697	-0.631348	0.327148	-0.572021
918.0	7.805836	-2.559934	0.661036	0.223067	-0.265737	0.085897	-0.628906	0.324951	-0.567139
919.0	7.438841	-2.782511	0.460965	0.304527	-0.258396	0.110268	-0.631348	0.327148	-0.564941
920.0	7.306687	-2.772832	0.440161	0.324593	-0.240877	0.137023	-0.631348	0.329346	-0.564941
921.0	7.116952	-2.67701	0.253176	0.359389	-0.226429	0.159758	-0.635742	0.329346	-0.574219
922.0	6.935788	-2.608153	0.189617	0.406811	-0.224638	0.180464	-0.640381	0.331543	-0.572021
923.0	6.851008	-2.662128	0.198438	0.459077	-0.219924	0.197597	-0.637939	0.327148	-0.571777
924.0	6.712906	-2.720315	0.056543	0.509842	-0.221523	0.200413	-0.637939	0.327148	-0.564941
925.0	6.526723	-2.811655	-0.065451	0.573663	-0.227863	0.198763	-0.644775	0.327148	-0.56958
926.0	6.534553	-2.760076	-0.17901	0.65263	-0.215958	0.185602	-0.635742	0.329346	-0.567383
927.0	6.458892	-2.794198	-0.131827	0.751026	-0.204186	0.161921	-0.646729	0.322754	-0.576416
928.0	6.487595	-2.69232	-0.038424	0.8433	-0.20147	0.138275	-0.640137	0.322754	-0.569336
929.0	6.473353	-2.576363	-0.069683	0.955904	-0.197831	0.097586	-0.646484	0.316162	-0.571533
930.0	6.42257	-2.483655	-0.204127	1.070517	-0.249698	0.055715	-0.64209	0.316162	-0.566895
931.0	6.403608	-2.474563	-0.242399	1.207886	-0.273519	0.028899	-0.650635	0.304932	-0.571045
932.0	6.534013	-2.424189	-0.487096	1.325371	-0.281167	0.012093	-0.655029	0.304932	-0.573486
933.0	6.830439	-2.459006	-0.525566	1.442795	-0.311132	0.006509	-0.650391	0.296143	-0.577637
934.0	7.217044	-2.21648	-0.363269	1.494606	-0.320545	0.00574	-0.656982	0.296143	-0.577637
935.0	7.454425	-1.932712	-0.564012	1.503438	-0.339188	-0.002852	-0.654297	0.285156	-0.577393
936.0	7.916499	-1.670406	-1.251651	1.501588	-0.362455	-0.025284	-0.654053	0.280762	-0.579346
937.0	8.093612	-1.487711	-1.719767	1.466658	-0.361187	-0.042689	-0.658447	0.276367	-0.579346
938.0	8.423283	-1.187049	-1.532421	1.326389	-0.320672	-0.052085	-0.658447	0.27417	-0.58374
939.0	9.090065	-0.968342	-0.959292	1.099814	-0.203073	-0.037566	-0.667236	0.267578	-0.581299
940.0	9.794582	-0.534136	-0.424324	0.845114	-0.063292	0.015218	-0.662354	0.258789	-0.583252
941.0	10.992866	-0.348818	-0.330994	0.537904	0.03351	0.064603	-0.664795	0.265381	-0.585938
942.0	12.174378	-0.556746	-0.290641	0.281591	0.141623	0.099234	-0.662598	0.265381	-0.585938
943.0	13.089631	-1.446799	-0.825427	0.086422	0.176768	0.13224	-0.667236	0.267578	-0.592773
944.0	13.288079	-2.31471	-1.647291	-0.009054	0.091573	0.145227	-0.662842	0.27417	-0.588379
945.0	12.942751	-2.87313	-2.129554	-0.057049	-0.093133	0.134571	-0.662842	0.271973	-0.586182
946.0	12.57894	-3.044547	-2.571074	-0.056232	-0.207124	0.066824	-0.66748	0.27417	-0.58374
947.0	11.96726	-3.211112	-3.131321	-0.034195	-0.260844	-0.023607	-0.662842	0.27417	-0.586182
948.0	11.466017	-3.987175	-2.717887	0.107041	-0.298757	-0.136862	-0.667236	0.271973	-0.579102
949.0	12.298678	-4.032428	0.724901	0.633878	-0.18704	-0.182479	-0.669678	0.271973	-0.588379
950.0	14.585444	-3.478586	0.140955	0.382923	0.044315	-0.131173	-0.664795	0.265381	-0.590576
951.0	17.347262	-4.405555	1.55101	-0.240759	0.609505	-0.082456	-0.667236	0.269775	-0.590576
952.0	17.672453	-3.950213	3.541645	-0.512418	0.213623	0.051819	-0.66748	0.276367	-0.59082
953.0	16.730821	-3.671664	3.953792	-0.352657	-0.306237	0.209118	-0.669922	0.278564	-0.588623
954.0	13.220144	-2.202062	2.609983	-0.233816	-0.510438	0.360185	-0.670166	0.285156	-0.582031
955.0	10.302585	-1.589361	3.409929	-0.055456	-0.581424	0.379545	-0.670166	0.285156	-0.582031
956.0	8.404142	-1.00658	3.380406	0.248477	-0.460497	0.321521	-0.670166	0.287354	-0.572754
957.0	7.115736	-0.826345	3.609008	0.457279	-0.390785	0.289089	-0.681641	0.291748	-0.575195
958.0	6.241613	-1.477891	2.843522	0.481508	-0.387767	0.268614	-0.675049	0.293945	-0.570557
959.0	6.763962	-1.99365	2.233711	0.40235	-0.246869	0.317742	-0.679688	0.296143	-0.572998
960.0	7.496021	-2.476743	2.354519	0.193109	0.189685	0.422662	-0.672852	0.29834	-0.573242
961.0	8.182331	-2.920132	2.590412	0.128456	0.374617	0.538061	-0.670898	0.304932	-0.578125
962.0	9.426353	-2.856755	2.033689	0.116346	0.397576	0.570196	-0.675293	0.302734	-0.575684
963.0	11.25653	-3.255121	2.103849	0.188096	0.474608	0.466086	-0.666504	0.304932	-0.584961
964.0	12.596443	-3.900961	2.087275	0.281019	0.455246	0.263412	-0.664063	0.304932	-0.580322
965.0	12.921718	-3.898727	1.544548	0.266405	0.346459	0.04578	-0.664063	0.302734	-0.587158
966.0	12.110131	-3.663389	1.30741	0.200046	0.231967	-0.1319	-0.662109	0.307129	-0.584961
967.0	10.719758	-3.045366	1.345457	0.054477	0.12256	-0.208668	-0.666748	0.311523	-0.587646
968.0	9.858788	-2.255587	1.223402	-0.014916	0.108989	-0.234183	-0.666504	0.309326	-0.592041
969.0	8.889203	-1.616411	0.987625	-0.041514	0.103847	-0.216358	-0.664307	0.309326	-0.589844
970.0	8.014266	-1.097987	0.792965	-0.046827	0.096218	-0.186181	-0.662109	0.307129	-0.592041
971.0	7.425584	-0.74378	0.50774	-0.057316	0.106572	-0.164694	-0.659912	0.311523	-0.594482
972.0	7.024326	-0.525246	0.373027	-0.050821	0.166412	-0.137178	-0.662109	0.307129	-0.5896
973.0	6.949657	-0.288509	0.477953	-0.03754	0.224669	-0.13813	-0.657715	0.311523	-0.589844
974.0	6.931686	-0.209258	0.509177	-0.040886	0.239441	-0.146875	-0.653076	0.311768	-0.592285
975.0	6.995326	-0.304718	0.419079	-0.076425	0.238475	-0.175361	-0.659912	0.311768	-0.599121
976.0	7.201366	-0.558236	0.479759	-0.112316	0.231546	-0.207214	-0.655518	0.313965	-0.594727
977.0	7.358795	-0.509112	0.329793	-0.14587	0.247032	-0.231	-0.662109	0.307129	-0.5896
978.0	7.517726	-0.601634	0.173249	-0.196773	0.24489	-0.248594	-0.662109	0.309326	-0.60376
979.0	7.591905	-0.718542	0.111897	-0.27067	0.23509	-0.258363	-0.659668	0.307129	-0.59668
980.0	7.750876	-0.864244	-0.064719	-0.359936	0.23256	-0.250368	-0.659912	0.313965	-0.596924
981.0	7.740929	-1.188753	-0.187235	-0.435918	0.219519	-0.221945	-0.664551	0.311523	-0.60376
982.0	7.822456	-1.452819	-0.288612	-0.51039	0.227576	-0.18419	-0.662598	0.320557	-0.599609
983.0	7.802168	-1.65961	-0.431059	-0.614707	0.246104	-0.136701	-0.6604	0.322754	-0.597168
984.0	7.754865	-1.707263	-0.519734	-0.723505	0.254868	-0.091713	-0.653564	0.322754	-0.594971
985.0	7.636059	-1.686548	-0.622391	-0.812396	0.256961	-0.047922	-0.660645	0.327148	-0.588135
986.0	7.481255	-1.616353	-0.659673	-0.887347	0.260433	0.00036	-0.654053	0.33374	-0.593018
987.0	7.456629	-1.454019	-0.618828	-0.952276	0.244717	0.030717	-0.658691	0.335938	-0.58374
988.0	7.397482	-1.245968	-0.534289	-0.972702	0.207719	0.058	-0.649902	0.344727	-0.581787
989.0	7.3903	-1.239529	-0.681396	-0.991136	0.152617	0.069788	-0.654785	0.351318	-0.584473
990.0	7.666843	-1.14266	-0.856294	-1.016705	0.144978	0.078715	-0.654785	0.353516	-0.584473
991.0	8.255278	-1.371211	-0.965338	-0.992386	0.170973	0.069413	-0.653076	0.364502	-0.587158
992.0	9.291114	-1.71452	-0.56217	-0.832878	0.188	0.039577	-0.653076	0.364502	-0.577881
993.0	10.541658	-2.188717	-0.207856	-0.607507	0.188187	0.001145	-0.646484	0.371094	-0.578125
994.0	11.789775	-2.969261	0.055161	-0.357872	0.220611	-0.043168	-0.650879	0.368896	-0.571045
995.0	12.771121	-3.788093	-0.095736	-0.080796	0.174467	-0.090125	-0.650879	0.368896	-0.580322
996.0	13.3531	-4.338625	-0.633626	0.175595	0.025731	-0.120939	-0.650879	0.368896	-0.573486
997.0	13.43675	-4.586899	-1.775864	0.218439	-0.117032	-0.123206	-0.65332	0.368896	-0.580322
998.0	12.729938	-4.108108	-2.694948	0.08597	-0.127033	-0.071284	-0.653076	0.366699	-0.580322
999.0	11.819063	-3.362351	-2.876028	-0.071389	-0.053573	0.024255	-0.662354	0.371094	-0.573486
1000.0	11.050327	-2.405304	-2.91975	-0.139441	-0.087047	0.12632	-0.653564	0.377686	-0.569092
1001.0	11.206831	-1.554971	-0.848289	-0.249153	0.089193	0.214806	-0.651367	0.379883	-0.566895
1002.0	11.856115	-2.280591	3.734435	-0.480893	0.445038	0.211732	-0.64917	0.377686	-0.564453
1003.0	15.295572	-3.049972	2.326017	-0.08767	0.316599	0.119057	-0.64917	0.382324	-0.566895
1004.0	17.81605	-3.393837	2.773972	0.311217	0.512672	-0.049891	-0.646729	0.37793	-0.571533
1005.0	15.019056	-2.587168	5.602335	-0.202998	0.038708	-0.219203	-0.653809	0.386475	-0.564697
1006.0	13.191699	-2.648292	4.456562	-0.659456	-0.24181	-0.336465	-0.656006	0.38208	-0.564697
1007.0	10.412256	-1.857553	3.93377	-0.520422	-0.27803	-0.318821	-0.654053	0.388672	-0.555664
1008.0	7.746525	-1.2391	4.155446	-0.513073	-0.303945	-0.234385	-0.656006	0.38208	-0.552979
1009.0	6.688708	-1.011712	3.060009	-0.623379	-0.307727	-0.184917	-0.660645	0.388672	-0.551025
1010.0	6.226091	-0.671617	1.944672	-0.426819	-0.17706	-0.183781	-0.6604	0.379883	-0.545898
1011.0	6.413503	-0.635177	1.981661	-0.310971	0.018549	-0.228507	-0.658203	0.384277	-0.539063
1012.0	7.444036	-1.297064	2.242617	-0.183685	0.265908	-0.276371	-0.658203	0.384277	-0.543701
1013.0	8.845535	-2.315498	2.946876	0.022419	0.520558	-0.296928	-0.662842	0.384277	-0.546143
1014.0	11.036879	-3.098526	3.762929	0.247811	0.688733	-0.324425	-0.664795	0.377686	-0.550537
1015.0	13.134764	-2.390636	3.404882	0.398679	0.591584	-0.330652	-0.662598	0.377686	-0.559814
1016.0	13.982238	-2.262316	2.449258	0.343581	0.31346	-0.279127	-0.657959	0.375488	-0.552734
1017.0	13.946966	-2.149991	1.645577	0.15977	0.114909	-0.180563	-0.657959	0.375488	-0.555176
1018.0	12.266129	-1.67879	1.35979	0.016857	0.047624	-0.08395	-0.657959	0.373291	-0.557373
1019.0	10.06275	-1.816659	1.493812	0.035363	-0.078099	-0.009471	-0.6604	0.377686	-0.552979
1020.0	9.271541	-2.29732	1.393131	0.061877	-0.196674	0.070357	-0.657959	0.373291	-0.548096
1021.0	8.445923	-2.578747	1.094656	0.121746	-0.222811	0.133897	-0.666992	0.373291	-0.552734
1022.0	7.593359	-2.637007	0.63079	0.210472	-0.246551	0.158992	-0.664795	0.375488	-0.543457
1023.0	7.153562	-2.897421	0.488686	0.302382	-0.226053	0.160416	-0.666992	0.373291	-0.545654
1024.0	7.088235	-2.994649	0.59874	0.381153	-0.16636	0.164751	-0.664795	0.377686	-0.54126
1025.0	7.038027	-2.837651	0.596824	0.41644	-0.141115	0.165687	-0.671631	0.377686	-0.543457
1026.0	7.002191	-2.678815	0.47389	0.432274	-0.145502	0.153589	-0.664551	0.373291	-0.536377
1027.0	7.053609	-2.623088	0.310685	0.466179	-0.13326	0.158245	-0.666748	0.371094	-0.541016
1028.0	7.1757	-2.617112	0.27924	0.530501	-0.131294	0.150952	-0.669189	0.373291	-0.536377
1029.0	7.04226	-2.663007	0.246964	0.608127	-0.110151	0.15338	-0.675781	0.371094	-0.538574
1030.0	6.972135	-2.832861	0.2762	0.685021	-0.101751	0.168212	-0.675537	0.366699	-0.540771
1031.0	6.939014	-2.916471	0.411088	0.741997	-0.087307	0.187576	-0.673584	0.371094	-0.541016
1032.0	6.818267	-2.943093	0.366855	0.805877	-0.082443	0.205941	-0.671143	0.366699	-0.54541
1033.0	6.722343	-2.87278	0.348702	0.875191	-0.089716	0.204622	-0.673096	0.360107	-0.545166
1034.0	6.790744	-2.611463	0.141615	0.959241	-0.134081	0.182763	-0.670654	0.355713	-0.549805
1035.0	6.869889	-2.1602	-0.155029	1.097284	-0.191438	0.149179	-0.672852	0.353271	-0.547363
1036.0	6.927834	-1.728066	-0.366164	1.225488	-0.257483	0.109651	-0.672852	0.351074	-0.547119
1037.0	7.004461	-1.225899	-0.61885	1.354885	-0.306365	0.074037	-0.672607	0.34668	-0.547119
1038.0	7.141118	-0.953432	-0.637372	1.411565	-0.307799	0.062158	-0.674805	0.344482	-0.558594
1039.0	7.236273	-0.936691	-0.615888	1.37107	-0.315689	0.042509	-0.683594	0.337891	-0.555908
1040.0	7.43438	-1.190835	-0.800535	1.323166	-0.315128	0.017687	-0.68335	0.331299	-0.551025
1041.0	7.816017	-1.371125	-1.150247	1.288268	-0.374131	-0.024953	-0.682861	0.32251	-0.548584
1042.0	8.374868	-1.770535	-1.42859	1.25963	-0.344666	-0.017819	-0.689697	0.324707	-0.553223
1043.0	9.32411	-2.004467	-0.927938	1.150797	-0.31927	-0.009353	-0.693848	0.315918	-0.550537
1044.0	10.268743	-2.22346	-0.204094	0.960182	-0.242991	0.031048	-0.693359	0.304688	-0.554688
1045.0	11.634999	-1.938504	-0.106197	0.665065	-0.118397	0.063211	-0.693604	0.309082	-0.552734
1046.0	13.281009	-1.469522	-0.343315	0.359962	0.024846	0.076277	-0.691406	0.311523	-0.557373
1047.0	14.263217	-1.230968	-0.906022	0.174672	0.06189	0.076241	-0.696045	0.315918	-0.555176
1048.0	14.435365	-1.214291	-1.768794	0.09605	-0.058244	0.066329	-0.691162	0.306885	-0.554932
1049.0	13.811141	-1.519223	-2.419881	0.011716	-0.156418	0.026563	-0.69165	0.313721	-0.555176
1050.0	13.102634	-1.739665	-2.701036	-0.084443	-0.186613	-0.023303	-0.696045	0.313477	-0.548096
1051.0	12.230684	-2.024225	-2.783843	-0.151547	-0.226535	-0.088945	-0.695801	0.309082	-0.55957
1052.0	11.550848	-3.011814	-1.697329	-0.00493	-0.219385	-0.188079	-0.695801	0.304688	-0.547852
1053.0	12.410151	-3.31327	2.290583	0.585457	-0.186445	-0.216302	-0.699951	0.298096	-0.547607
1054.0	14.80039	-3.370208	1.465385	0.419369	-0.081333	-0.217833	-0.699951	0.298096	-0.552246
1055.0	17.106541	-4.397254	2.878459	0.302308	0.556219	-0.219946	-0.695557	0.298096	-0.559082
1056.0	15.658161	-4.252791	5.483498	0.166833	0.00119	-0.085687	-0.702148	0.298096	-0.549805
1057.0	14.180074	-3.39759	4.267444	0.20077	-0.660778	0.103208	-0.70874	0.295898	-0.549805
1058.0	11.869297	-2.238279	3.329159	0.114501	-0.528056	0.316989	-0.704346	0.293701	-0.545166
1059.0	9.167653	-1.716096	3.758173	0.220652	-0.457799	0.395822	-0.713379	0.298096	-0.540527
1060.0	7.242501	-1.393977	3.602224	0.39464	-0.44609	0.431037	-0.708984	0.298096	-0.542969
1061.0	6.292463	-1.110499	3.21818	0.274853	-0.402376	0.472734	-0.711426	0.304688	-0.538574
1062.0	5.811589	-1.567783	2.573693	0.095761	-0.267235	0.461608	-0.713867	0.309082	-0.531738
1063.0	6.555667	-1.880092	2.55682	-0.115471	0.03041	0.484573	-0.707031	0.306885	-0.529297
1064.0	7.867682	-2.148717	3.065383	-0.311693	0.342222	0.554938	-0.713867	0.309082	-0.538574
1065.0	9.508755	-2.182686	3.153517	-0.266269	0.419384	0.589896	-0.709717	0.315674	-0.548096
1066.0	11.690699	-2.732995	2.865532	-0.027489	0.388524	0.521009	-0.705078	0.315674	-0.545898
1067.0	13.267067	-4.027843	2.321486	0.179878	0.284897	0.328734	-0.702881	0.317871	-0.536621
1068.0	13.054388	-5.038218	1.229465	0.172809	0.076047	0.080457	-0.705078	0.315674	-0.550537
1069.0	12.217456	-4.933734	0.605062	0.140436	-0.004671	-0.137076	-0.705078	0.315674	-0.552979
1070.0	10.377593	-4.038391	0.658516	0.164558	0.010409	-0.237919	-0.702881	0.315674	-0.552979
1071.0	9.440012	-3.368025	1.030476	0.26138	0.004954	-0.255892	-0.700439	0.309082	-0.554932
1072.0	8.636899	-2.614213	1.090189	0.290373	0.052133	-0.207164	-0.700195	0.306885	-0.55249
1073.0	7.88201	-1.717664	1.191266	0.228699	0.059598	-0.148925	-0.706787	0.300293	-0.550049
1074.0	7.3426	-1.004631	0.936496	0.146157	0.045366	-0.106933	-0.711182	0.300293	-0.552246
1075.0	6.983308	-0.535366	0.793505	0.068638	0.091733	-0.087618	-0.707031	0.304688	-0.554688
1076.0	6.90275	-0.196071	0.897869	-0.016523	0.157472	-0.115367	-0.711426	0.30249	-0.556885
1077.0	6.959972	0.011779	0.767367	-0.096137	0.183402	-0.159582	-0.708984	0.300293	-0.559326
1078.0	7.188165	0.103105	0.724987	-0.150612	0.16646	-0.210594	-0.711182	0.300293	-0.552246
1079.0	7.51679	-0.058191	0.419699	-0.185114	0.134398	-0.256771	-0.713379	0.293701	-0.561279
1080.0	7.767678	-0.182164	0.176099	-0.230607	0.120551	-0.288873	-0.713379	0.295898	-0.561523
1081.0	7.709174	-0.409521	-0.115613	-0.290893	0.099196	-0.292306	-0.717773	0.295898	-0.563721
1082.0	7.627112	-0.546249	-0.155638	-0.353239	0.094816	-0.29303	-0.718018	0.298096	-0.556885
1083.0	7.560252	-0.80637	-0.19524	-0.429435	0.099044	-0.300955	-0.715576	0.293701	-0.559082
1084.0	7.394866	-1.092968	-0.239566	-0.502654	0.09037	-0.28519	-0.70874	0.291504	-0.561279
1085.0	7.361957	-1.386576	-0.553318	-0.581153	0.07163	-0.259682	-0.720215	0.298096	-0.559082
1086.0	7.481955	-1.582665	-0.779877	-0.639257	0.08294	-0.226013	-0.713379	0.293701	-0.556641
1087.0	7.550091	-1.728107	-0.872834	-0.688766	0.091058	-0.161083	-0.713379	0.298096	-0.552246
1088.0	7.575896	-1.740046	-0.770025	-0.767598	0.154434	-0.082129	-0.713379	0.298096	-0.559082
1089.0	7.783833	-1.48194	-0.326264	-0.883138	0.187822	-0.006198	-0.713623	0.30249	-0.556885
1090.0	7.826318	-1.351604	0.030372	-0.974848	0.223074	0.070948	-0.716064	0.304688	-0.55249
1091.0	8.030164	-1.133029	0.090788	-1.043261	0.22606	0.12043	-0.716064	0.309082	-0.55957
1092.0	8.367628	-1.283059	0.143888	-1.048458	0.220894	0.133831	-0.714111	0.315674	-0.559814
1093.0	8.702151	-1.471647	0.077052	-0.999004	0.23133	0.122317	-0.716309	0.315674	-0.555176
1094.0	9.167157	-1.778572	0.183595	-0.821773	0.21708	0.070989	-0.712158	0.322266	-0.550781
1095.0	9.809986	-2.178173	0.43826	-0.58199	0.178516	0.007662	-0.712158	0.320068	-0.557617
1096.0	10.47789	-2.825784	0.50074	-0.271402	0.138145	-0.058187	-0.709961	0.322266	-0.55542
1097.0	11.279425	-3.134487	0.219137	0.047647	0.048362	-0.129055	-0.716553	0.317871	-0.557617
1098.0	12.067297	-3.557848	-0.419161	0.271785	-0.010912	-0.176219	-0.714111	0.311279	-0.557373
1099.0	12.570632	-3.946641	-1.485254	0.263864	-0.106911	-0.21504	-0.716309	0.313477	-0.562012
1100.0	12.707612	-3.745557	-2.414994	0.102906	-0.142105	-0.193164	-0.718506	0.311279	-0.55957
1101.0	12.29067	-3.247509	-2.721014	-0.090784	-0.135251	-0.089876	-0.716064	0.309082	-0.557129
1102.0	11.948398	-2.112857	-2.799307	-0.259117	-0.123144	0.044568	-0.718506	0.309082	-0.554932
1103.0	12.114896	-1.187803	-1.720562	-0.411183	-0.064838	0.140279	-0.720703	0.311279	-0.552734
1104.0	12.784263	-1.781896	2.097023	-0.614633	0.2381	0.159702	-0.720947	0.317871	-0.550537
1105.0	14.138783	-3.026516	1.587709	-0.405378	0.136659	0.084603	-0.723389	0.320068	-0.552979
1106.0	16.226259	-3.482581	1.864504	0.113163	0.227203	-0.031094	-0.718506	0.311279	-0.557373
1107.0	13.850918	-3.029093	4.698415	-0.131904	-0.063242	-0.151024	-0.725586	0.317871	-0.557617
1108.0	12.339095	-2.766183	3.642141	-0.555393	-0.302578	-0.227548	-0.727539	0.311279	-0.550293
1109.0	10.76527	-2.086074	2.903163	-0.536057	-0.29144	-0.264226	-0.727539	0.311279	-0.548096
1110.0	8.393764	-1.769354	3.821443	-0.532048	-0.192887	-0.248176	-0.729492	0.306885	-0.547852
1111.0	7.168026	-1.8915	3.432696	-0.704987	-0.166345	-0.234444	-0.729736	0.311279	-0.548096
1112.0	6.935775	-1.776513	2.696223	-0.601875	-0.081448	-0.226401	-0.736328	0.304443	-0.540771
1113.0	7.154931	-1.814714	2.583891	-0.538686	0.098507	-0.246301	-0.734375	0.313477	-0.536377
1114.0	8.493251	-1.861041	2.433136	-0.385639	0.271031	-0.290516	-0.729492	0.306885	-0.545654
1115.0	9.783115	-2.030178	2.754009	-0.229033	0.480492	-0.341089	-0.738525	0.304443	-0.54541
1116.0	11.289529	-2.360721	3.010902	-0.138964	0.589034	-0.414535	-0.731689	0.30249	-0.540771
1117.0	12.907406	-2.620185	2.85536	-0.034718	0.541181	-0.430151	-0.733643	0.295898	-0.556641
1118.0	13.168886	-2.679585	2.355243	-0.03033	0.352245	-0.399313	-0.733643	0.293701	-0.559082
1119.0	12.76359	-2.772784	1.960746	-0.080711	0.206812	-0.298016	-0.738037	0.29126	-0.561279
1120.0	11.727596	-2.626369	1.464124	-0.070707	0.051873	-0.178307	-0.737793	0.286865	-0.558838
1121.0	10.883186	-2.5469	1.393423	0.007432	-0.051505	-0.076223	-0.73584	0.293457	-0.552002
1122.0	10.173347	-2.43796	1.082815	0.076995	-0.118645	0.013424	-0.733154	0.282471	-0.551514
1123.0	9.312631	-2.5072	0.787029	0.113652	-0.15333	0.093571	-0.744385	0.284668	-0.553955
1124.0	8.509286	-2.696944	0.628027	0.156716	-0.158773	0.141935	-0.742188	0.282471	-0.549316
1125.0	7.925147	-2.868071	0.570009	0.192588	-0.114735	0.163188	-0.742432	0.286865	-0.554199
1126.0	7.501915	-2.98707	0.556917	0.212954	-0.058398	0.166741	-0.73999	0.286865	-0.561035
1127.0	7.206944	-2.952826	0.405401	0.237237	-0.033694	0.167144	-0.748779	0.280273	-0.551514
1128.0	7.012337	-2.778142	0.282459	0.261216	-0.014738	0.166538	-0.737793	0.289063	-0.554199
1129.0	6.77142	-2.715952	0.261102	0.294337	-0.006823	0.164289	-0.746582	0.280273	-0.553955
1130.0	6.554381	-2.692549	0.319324	0.317301	-0.002709	0.156848	-0.744385	0.282471	-0.558594
1131.0	6.53197	-2.777604	0.159226	0.357347	-0.012719	0.151988	-0.750977	0.275879	-0.560547
1132.0	6.492167	-2.87695	0.270539	0.414195	-0.015359	0.15328	-0.739746	0.278076	-0.551514
1133.0	6.23519	-2.716723	0.342396	0.473329	-0.013461	0.156625	-0.748535	0.275879	-0.560547
1134.0	6.108138	-2.708124	0.489517	0.562774	-0.021937	0.147359	-0.739502	0.271484	-0.565186
1135.0	6.138867	-2.429295	0.382853	0.646532	-0.054491	0.129243	-0.746338	0.273682	-0.55835
1136.0	6.274495	-2.239179	0.192783	0.740518	-0.09093	0.091151	-0.748291	0.269287	-0.562744
1137.0	6.482057	-2.024211	0.17561	0.799408	-0.137993	0.0465	-0.746094	0.26709	-0.567383
1138.0	6.861424	-2.051697	-0.001122	0.863836	-0.194545	-0.000131	-0.750244	0.260498	-0.5625
1139.0	7.156279	-2.03261	-0.194482	0.935625	-0.238129	-0.04571	-0.752441	0.256104	-0.564453
1140.0	7.325407	-2.005087	-0.454605	0.972256	-0.307571	-0.079732	-0.75415	0.24707	-0.557129
1141.0	7.475695	-2.032901	-0.790104	1.035997	-0.416535	-0.114078	-0.756592	0.24707	-0.554932
1142.0	7.637609	-2.181472	-1.088109	1.090918	-0.489151	-0.132378	-0.758545	0.242676	-0.557129
1143.0	8.112054	-2.320577	-1.215859	1.025041	-0.485284	-0.142726	-0.766846	0.227295	-0.554199
1144.0	8.646065	-2.339185	-0.813301	0.899449	-0.389116	-0.118281	-0.757813	0.225098	-0.563477
1145.0	9.469428	-1.988326	-0.304793	0.762561	-0.276042	-0.077879	-0.762451	0.225098	-0.556396
1146.0	10.577863	-1.35449	-0.279133	0.570238	-0.15475	-0.031129	-0.766602	0.220703	-0.553955
1147.0	11.665156	-1.124109	-0.552207	0.362644	-0.042437	0.002836	-0.76416	0.216309	-0.553711
1148.0	12.72563	-1.171331	-0.694455	0.179922	0.00129	0.001832	-0.764648	0.2229	-0.561035
1149.0	13.281777	-1.393558	-1.03821	0.041188	-0.043525	0.001589	-0.768555	0.209717	-0.555908
1150.0	12.962117	-1.880762	-1.50055	-0.057685	-0.155232	-0.001806	-0.763916	0.20752	-0.553467
1151.0	12.617611	-2.348747	-2.134764	-0.116766	-0.305031	-0.032249	-0.770996	0.214111	-0.553711
1152.0	12.200612	-2.826305	-2.581724	-0.092851	-0.335873	-0.066306	-0.773193	0.214111	-0.55127
1153.0	11.538338	-3.74451	-2.430241	-0.01219	-0.308097	-0.115036	-0.772949	0.209473	-0.546631
1154.0	11.781015	-4.508306	0.650894	0.381297	-0.239106	-0.119683	-0.772949	0.209473	-0.546631
1155.0	12.898013	-3.885613	0.355618	0.358162	-0.199064	-0.054547	-0.775146	0.205078	-0.551025
1156.0	14.833576	-5.056578	0.954982	0.065935	0.176904	-0.034135	-0.770508	0.205078	-0.555664
1157.0	15.123983	-4.845853	3.48394	-0.160525	0.019706	0.096585	-0.779541	0.205078	-0.546387
1158.0	15.120125	-4.638824	3.194711	-0.225004	-0.44566	0.25831	-0.781982	0.209473	-0.548828
1159.0	13.251891	-3.127905	2.140612	-0.114033	-0.541719	0.410853	-0.779785	0.209473	-0.546631
1160.0	10.614497	-2.258227	2.874461	0.028051	-0.504691	0.43931	-0.786377	0.207275	-0.534912
1161.0	9.139474	-1.300908	3.445325	0.296394	-0.503668	0.409548	-0.786621	0.21167	-0.541992
1162.0	8.015672	-1.016737	3.9117	0.452906	-0.372321	0.399598	-0.781982	0.21167	-0.530273
1163.0	7.577394	-0.987536	3.247285	0.406375	-0.233394	0.395245	-0.79126	0.216064	-0.535156
1164.0	8.00414	-2.249431	2.541832	0.223704	0.014296	0.39842	-0.789063	0.218262	-0.530518
1165.0	8.362363	-3.131537	2.36741	0.228166	0.074518	0.459847	-0.786865	0.218262	-0.530518
1166.0	9.856415	-3.155505	1.721351	0.361413	0.171498	0.507692	-0.789307	0.224854	-0.537842
1167.0	11.580861	-3.444972	2.389481	0.458459	0.428334	0.470439	-0.777832	0.220459	-0.540039
1168.0	12.657191	-3.868711	2.525539	0.488201	0.423666	0.328933	-0.784912	0.224854	-0.547119
1169.0	13.08647	-3.833233	1.783232	0.460164	0.201903	0.128606	-0.786865	0.220459	-0.542236
1170.0	12.628822	-3.895454	1.59186	0.372338	0.083514	-0.030417	-0.784424	0.21167	-0.546631
1171.0	11.357634	-3.37965	1.422724	0.245269	0.035701	-0.115829	-0.784668	0.216064	-0.551514
1172.0	10.476841	-2.780188	1.235849	0.173491	0.007654	-0.14505	-0.781982	0.209473	-0.544189
1173.0	9.449385	-2.294823	1.191182	0.143981	0.003229	-0.13558	-0.786621	0.213867	-0.549072
1174.0	8.498757	-1.638809	1.101403	0.061162	-0.043925	-0.103948	-0.786621	0.209473	-0.541992
1175.0	7.813177	-0.995252	0.919485	-0.000721	-0.020474	-0.07124	-0.788818	0.21167	-0.546631
1176.0	7.486041	-0.573629	0.730822	-0.033868	0.028987	-0.065957	-0.788818	0.207275	-0.548828
1177.0	7.205	-0.31147	0.73782	-0.03623	0.092088	-0.089143	-0.788818	0.209473	-0.55127
1178.0	7.128171	-0.283003	0.762818	-0.061256	0.126949	-0.137638	-0.786621	0.209473	-0.553467
1179.0	7.029332	-0.310337	0.726984	-0.118087	0.134985	-0.17863	-0.78418	0.207275	-0.548828
1180.0	7.165669	-0.354841	0.57988	-0.157562	0.143358	-0.220678	-0.78833	0.200684	-0.550781
1181.0	7.265695	-0.528053	0.388163	-0.188457	0.153456	-0.247191	-0.78833	0.198486	-0.552979
1182.0	7.444215	-0.70643	0.377917	-0.230614	0.171973	-0.249282	-0.790527	0.196289	-0.552979
1183.0	7.411279	-0.832207	0.295821	-0.284851	0.185941	-0.242845	-0.78833	0.196289	-0.552979
1184.0	7.479565	-1.058888	0.291593	-0.356026	0.199676	-0.223271	-0.786377	0.202881	-0.551025
1185.0	7.458775	-1.027374	0.322029	-0.455965	0.191844	-0.198812	-0.786133	0.198486	-0.557861
1186.0	7.472722	-1.127596	0.231905	-0.552365	0.204651	-0.15995	-0.783936	0.200684	-0.567139
1187.0	7.607981	-1.149443	0.180305	-0.639027	0.217541	-0.126986	-0.786133	0.200684	-0.557861
1188.0	7.761478	-1.365207	0.070035	-0.722436	0.234441	-0.075024	-0.78418	0.205078	-0.558105
1189.0	7.786381	-1.509308	-0.040087	-0.842165	0.26405	-0.01791	-0.786377	0.205078	-0.558105
1190.0	7.789624	-1.58167	-0.118831	-0.977404	0.268678	0.041428	-0.788574	0.205078	-0.558105
1191.0	7.743668	-1.615787	-0.112705	-1.098228	0.248064	0.084349	-0.786621	0.213867	-0.55835
1192.0	7.727853	-1.626267	-0.212574	-1.199165	0.2229	0.10598	-0.786865	0.220459	-0.556152
1193.0	7.524996	-1.778865	-0.52937	-1.267211	0.21222	0.120815	-0.780518	0.225098	-0.563477
1194.0	7.762973	-1.654058	-0.709741	-1.29321	0.219726	0.137891	-0.782959	0.233887	-0.565918
1195.0	8.148064	-1.70143	-0.628968	-1.209533	0.229907	0.135768	-0.785156	0.229492	-0.563477
1196.0	8.67078	-1.839556	-0.277808	-1.060734	0.226713	0.10862	-0.781006	0.238281	-0.559326
1197.0	9.453507	-2.084132	0.426853	-0.861106	0.211221	0.058214	-0.783203	0.240479	-0.563965
1198.0	10.177046	-2.775134	0.753219	-0.648102	0.168202	0.004242	-0.781006	0.242676	-0.568604
1199.0	11.10199	-3.331401	0.36298	-0.439415	0.091462	-0.044789	-0.779053	0.244873	-0.561768
1200.0	11.72023	-3.877022	-0.255475	-0.299358	0.01691	-0.096721	-0.776367	0.236084	-0.561523
1201.0	12.064965	-4.289267	-1.036619	-0.279537	-0.008232	-0.11246	-0.783203	0.240479	-0.559326
1202.0	11.960448	-4.113881	-1.465113	-0.363576	0.028489	-0.091615	-0.785645	0.240479	-0.563965
1203.0	11.375363	-3.570182	-1.597802	-0.48326	-0.016952	-0.023772	-0.783447	0.242676	-0.561768
1204.0	10.832822	-2.723796	-1.828492	-0.621216	-0.072626	0.067468	-0.783447	0.244873	-0.55957
1205.0	10.715561	-1.649267	-2.160626	-0.781392	-0.106489	0.135982	-0.779297	0.253662	-0.562012
1206.0	10.951699	-0.469893	-0.830846	-1.019889	0.041921	0.165082	-0.783691	0.251465	-0.562012
1207.0	11.025777	-0.8579	1.925562	-1.502861	0.257119	0.116215	-0.788574	0.262451	-0.5625
1208.0	13.367494	-2.314359	0.315326	-1.355681	0.142617	0.041091	-0.782227	0.27124	-0.560547
1209.0	16.492106	-3.210724	2.122986	-0.710644	0.511595	-0.168264	-0.78418	0.264648	-0.5625
1210.0	14.549636	-3.882463	5.683019	-0.659511	0.029559	-0.363193	-0.784424	0.27124	-0.55127
1211.0	13.574872	-3.908686	3.394366	-1.121742	-0.498495	-0.412547	-0.788818	0.269043	-0.553467
1212.0	11.01965	-3.091715	2.568438	-1.235434	-0.300283	-0.411069	-0.786621	0.266846	-0.553223
1213.0	8.473452	-2.215222	3.148553	-1.205057	-0.106207	-0.346785	-0.789063	0.27124	-0.546631
1214.0	7.088148	-1.868476	3.065404	-1.322469	0.049596	-0.240234	-0.793701	0.275635	-0.539795
1215.0	6.586773	-1.975585	2.706349	-1.324774	0.091263	-0.183234	-0.789307	0.277832	-0.541992
1216.0	6.672278	-2.297089	2.679041	-1.195156	0.149215	-0.153082	-0.789551	0.282227	-0.542236
1217.0	7.318406	-2.866402	2.608684	-1.153357	0.256944	-0.151509	-0.787354	0.284424	-0.544678
1218.0	9.239387	-3.324611	2.813054	-0.900174	0.43341	-0.166497	-0.789551	0.282227	-0.544678
1219.0	10.957618	-2.82045	3.060048	-0.738024	0.514035	-0.240736	-0.791992	0.286621	-0.547119
1220.0	12.72994	-2.399686	2.096775	-0.729446	0.420839	-0.3083	-0.787354	0.286621	-0.549316
1221.0	13.451064	-2.233284	1.425556	-0.638922	0.315364	-0.312925	-0.787354	0.286621	-0.547119
1222.0	13.493476	-2.451613	1.280065	-0.68907	0.284697	-0.232715	-0.787598	0.288818	-0.547119
1223.0	12.594195	-2.423303	1.081985	-0.781242	0.27346	-0.095465	-0.782959	0.29126	-0.549561
1224.0	11.373432	-2.465015	1.179507	-0.827365	0.23744	0.03841	-0.7854	0.295654	-0.552002
1225.0	10.539868	-2.635508	1.069679	-0.782162	0.167981	0.131631	-0.785645	0.300049	-0.547607
1226.0	9.932359	-2.910905	0.836164	-0.78853	0.119071	0.210493	-0.78125	0.304443	-0.54541
1227.0	9.419938	-3.309619	0.662378	-0.789265	0.137098	0.248134	-0.779297	0.311035	-0.552734
1228.0	9.153314	-3.404464	0.560934	-0.807783	0.19264	0.253984	-0.781494	0.311035	-0.548096
1229.0	8.944001	-3.396739	0.386976	-0.826883	0.281599	0.246141	-0.777344	0.317627	-0.543701
1230.0	8.686207	-3.314405	0.398498	-0.831856	0.32501	0.217574	-0.775146	0.319824	-0.545898
1231.0	8.568182	-3.081252	0.431754	-0.830389	0.332245	0.176657	-0.777832	0.326416	-0.548584
1232.0	8.478028	-2.99394	0.544249	-0.827066	0.343703	0.132492	-0.766602	0.333008	-0.548828
1233.0	8.26847	-3.171497	0.512721	-0.809477	0.325674	0.093534	-0.773438	0.330811	-0.548828
1234.0	8.05117	-3.210424	0.529214	-0.773372	0.32712	0.058283	-0.769043	0.337402	-0.549072
1235.0	7.609826	-3.349359	0.438128	-0.74282	0.275374	0.034352	-0.771484	0.3396	-0.544434
1236.0	7.322813	-3.322912	0.096355	-0.690068	0.245955	0.030202	-0.773926	0.341797	-0.546875
1237.0	7.003893	-3.34883	-0.187696	-0.626922	0.250958	0.033995	-0.769531	0.344238	-0.549316
1238.0	6.732563	-3.325507	0.02795	-0.585528	0.249584	0.030896	-0.771729	0.346191	-0.542236
1239.0	6.638786	-3.239563	0.185409	-0.527635	0.242893	0.013679	-0.771973	0.35083	-0.54248
1240.0	6.604068	-3.101605	0.264904	-0.445657	0.217936	-0.017421	-0.765381	0.353027	-0.549561
1241.0	6.68242	-2.918686	0.118956	-0.410495	0.171717	-0.056797	-0.77002	0.357422	-0.547363
1242.0	6.928735	-2.931415	0.024689	-0.351945	0.123221	-0.107848	-0.762939	0.348633	-0.549316
1243.0	7.136666	-2.959718	-0.030633	-0.288604	0.095908	-0.162652	-0.764893	0.346436	-0.549316
1244.0	7.220403	-2.85862	-0.075197	-0.273551	0.032075	-0.207625	-0.769531	0.348633	-0.549316
1245.0	7.225912	-2.74739	-0.261978	-0.27682	-0.013988	-0.257886	-0.771729	0.346191	-0.544678
1246.0	7.277282	-2.551499	-0.498969	-0.279091	-0.046492	-0.308301	-0.769287	0.341797	-0.539795
1247.0	7.404664	-2.314449	-0.791578	-0.28215	-0.062658	-0.350013	-0.764893	0.342041	-0.542236
1248.0	7.796785	-2.144147	-0.805148	-0.281382	-0.051864	-0.379997	-0.773926	0.341797	-0.546875
1249.0	8.321293	-2.08058	-0.314188	-0.372879	-0.001727	-0.375329	-0.769287	0.341797	-0.532959
1250.0	9.031747	-2.083705	0.163582	-0.574558	0.069796	-0.350845	-0.769287	0.341797	-0.539795
1251.0	9.782338	-2.270713	0.443799	-0.803811	0.160047	-0.306933	-0.769287	0.341797	-0.537598
1252.0	10.374083	-2.440361	0.062653	-0.993531	0.235542	-0.275885	-0.766846	0.337402	-0.532715
1253.0	10.906781	-2.768127	-0.405135	-1.089787	0.28299	-0.263951	-0.769287	0.343994	-0.532959
1254.0	11.215636	-2.839249	-0.677947	-1.121177	0.261135	-0.269513	-0.769287	0.343994	-0.5354
1255.0	11.044544	-2.925303	-0.993993	-1.060032	0.148716	-0.315321	-0.769531	0.346191	-0.5354
1256.0	10.894448	-3.125926	-1.25743	-0.919676	0.069208	-0.402901	-0.769531	0.346191	-0.530762
1257.0	10.949193	-3.770135	0.631972	-0.530403	0.02333	-0.482921	-0.771729	0.346191	-0.526123
1258.0	11.816128	-3.959923	2.272759	-0.292512	-0.001487	-0.504798	-0.773926	0.341797	-0.525879
1259.0	12.913619	-4.71965	0.500749	-0.488101	0.131423	-0.476312	-0.778076	0.335205	-0.528076
1260.0	13.936311	-5.342953	0.615674	-0.598268	0.2641	-0.4178	-0.77124	0.335205	-0.530273
1261.0	14.259144	-4.986675	2.267574	-0.436351	0.084335	-0.264833	-0.771484	0.3396	-0.530518
1262.0	13.386636	-4.341481	2.60573	-0.353699	0.112602	-0.05482	-0.77124	0.333008	-0.523193
1263.0	11.371663	-3.265294	3.901439	-0.578585	0.111447	0.128307	-0.771484	0.337402	-0.516357
1264.0	9.59885	-1.719247	3.297317	-0.832991	-0.161072	0.247021	-0.769287	0.343994	-0.52124
1265.0	8.474099	-0.83188	2.294348	-1.04956	-0.164338	0.28551	-0.769287	0.343994	-0.516602
1266.0	7.414849	-0.333076	2.392351	-1.220107	0.032597	0.331029	-0.769531	0.350586	-0.514648
1267.0	6.92538	-0.58666	2.334445	-1.207709	0.240327	0.351215	-0.765625	0.364014	-0.517334
1268.0	7.415541	-1.2098	2.232868	-1.189854	0.44927	0.368456	-0.760986	0.361816	-0.512695
1269.0	9.456807	-1.122233	2.519915	-1.29973	0.704457	0.361539	-0.766113	0.375	-0.510986
1270.0	11.435724	-1.055391	3.373492	-1.465369	0.899805	0.331153	-0.75708	0.372803	-0.513184
1271.0	13.31569	-1.352936	3.243979	-1.623004	0.804058	0.224386	-0.757813	0.390381	-0.516113
1272.0	14.027833	-1.803101	1.6974	-1.768017	0.593682	0.056754	-0.753418	0.392578	-0.513916
1273.0	13.764118	-2.276858	1.263578	-1.880712	0.482839	-0.082242	-0.749023	0.39917	-0.51416
1274.0	12.306155	-1.981643	1.432577	-1.992107	0.38944	-0.176095	-0.751465	0.403564	-0.509766
1275.0	10.836263	-1.376999	1.48747	-2.085464	0.307688	-0.175056	-0.753906	0.410156	-0.51001
1276.0	10.276679	-0.92201	1.507637	-2.16781	0.295771	-0.1463	-0.747559	0.416992	-0.498535
1277.0	9.870267	-0.566898	1.339808	-2.231109	0.319788	-0.115924	-0.743164	0.421387	-0.496338
1278.0	9.489192	-0.330286	1.232393	-2.318507	0.384969	-0.095997	-0.752441	0.427979	-0.489746
1279.0	9.282772	-0.461832	1.160468	-2.394315	0.480654	-0.082037	-0.74585	0.43457	-0.487549
1280.0	9.259997	-0.654708	1.312615	-2.454819	0.577571	-0.079713	-0.741455	0.436768	-0.48291
1281.0	9.167312	-0.822799	1.208527	-2.540999	0.628077	-0.100835	-0.744385	0.449951	-0.481201
1282.0	9.134331	-0.899494	1.023477	-2.614034	0.673879	-0.139463	-0.737549	0.452148	-0.469727
1283.0	9.159521	-0.721961	0.803539	-2.726358	0.6881	-0.188697	-0.742432	0.460938	-0.472412
1284.0	9.143967	-0.54369	0.528451	-2.831044	0.697215	-0.261736	-0.736084	0.469727	-0.463379
1285.0	8.965525	-0.669936	0.338293	-2.913727	0.707859	-0.308413	-0.736084	0.471924	-0.456543
1286.0	8.852741	-0.77406	0.169721	-3.024307	0.739435	-0.338412	-0.73877	0.478516	-0.454346
1287.0	8.880575	-1.070852	0.075429	-3.122568	0.764194	-0.346549	-0.736572	0.48291	-0.449951
1288.0	9.017888	-1.449382	-0.147833	-3.225268	0.802743	-0.327512	-0.741455	0.489502	-0.440918
1289.0	9.215785	-1.618485	-0.229568	-3.326214	0.848325	-0.284774	-0.734863	0.498291	-0.429688
1290.0	9.564702	-1.758207	-0.124456	-3.39604	0.883981	-0.247904	-0.732666	0.500488	-0.422607
1291.0	9.805549	-1.889191	0.095704	-3.471856	0.904795	-0.210204	-0.730713	0.507324	-0.413574
1292.0	9.791422	-2.008459	0.329229	-3.513368	0.889046	-0.190575	-0.729004	0.518311	-0.411865
1293.0	9.600984	-2.10719	0.091336	-3.556781	0.838488	-0.179051	-0.731445	0.522705	-0.395752
1294.0	9.186377	-2.305232	-0.014291	-3.576371	0.818677	-0.17356	-0.729492	0.529297	-0.388916
1295.0	8.912612	-2.333878	0.134376	-3.568341	0.798363	-0.170905	-0.729736	0.538086	-0.382324
1296.0	8.454479	-2.528766	0.163921	-3.529582	0.784791	-0.160912	-0.723145	0.540283	-0.373047
1297.0	8.080258	-2.585063	0.347185	-3.480401	0.809701	-0.138081	-0.725586	0.546875	-0.359375
1298.0	7.97473	-2.681252	0.348582	-3.451425	0.821033	-0.114451	-0.71875	0.546875	-0.352539
1299.0	7.948918	-2.721929	0.644421	-3.386815	0.809841	-0.094617	-0.723877	0.560059	-0.34375
1300.0	8.260323	-2.535815	0.170633	-3.362206	0.747263	-0.075197	-0.721436	0.555664	-0.331787
1301.0	8.608183	-2.48035	-0.275121	-3.299335	0.720289	-0.064818	-0.723877	0.564453	-0.320557
1302.0	8.890867	-2.553493	-0.201414	-3.204385	0.709417	-0.062214	-0.719727	0.571045	-0.316162
1303.0	9.134797	-2.585704	-0.248228	-3.07851	0.665451	-0.054038	-0.726563	0.573242	-0.306885
1304.0	9.54138	-2.471997	-0.461689	-2.953743	0.597795	-0.056306	-0.715332	0.573242	-0.29541
1305.0	9.938038	-2.179292	-0.464212	-2.848688	0.544774	-0.049621	-0.715576	0.579834	-0.2771
1306.0	10.33815	-1.822799	-0.748629	-2.747719	0.480853	-0.030667	-0.720215	0.582031	-0.279541
1307.0	10.533264	-1.752163	-1.112591	-2.688394	0.42924	-0.002476	-0.71582	0.588623	-0.249512
1308.0	10.351498	-1.767278	-1.431178	-2.661847	0.394474	0.050552	-0.710938	0.577637	-0.253662
1309.0	10.020505	-1.788592	-1.601705	-2.656061	0.375089	0.099406	-0.71582	0.588623	-0.24707
