Acquisition frequency: 100 Hz
PacketCounter	Acc_X	Acc_Y	Acc_Z	Gyr_X	Gyr_Y	Gyr_Z	Mag_X	Mag_Y	Mag_Z
0.0	7.064645	0.253223	7.688983	-0.003569	0.01075	-0.012898	-0.506592	0.130371	-0.352295
1.0	7.105182	0.260595	7.694367	-0.010963	0.012126	-0.012707	-0.504395	0.130371	-0.347656
2.0	7.104202	0.260947	7.69526	-0.006483	0.012365	-0.016082	-0.504395	0.130371	-0.352295
3.0	7.079506	0.238904	7.685112	-0.007036	0.012025	-0.012364	-0.506592	0.130371	-0.354492
4.0	7.108634	0.242082	7.669355	-0.008769	0.012662	-0.012098	-0.502197	0.130371	-0.352295
5.0	7.07858	0.25372	7.655495	-0.008728	0.012246	-0.014391	-0.5	0.130371	-0.350098
6.0	7.10566	0.22834	7.702538	-0.009238	0.011489	-0.012968	-0.499756	0.125977	-0.349854
7.0	7.10467	0.228607	7.703443	-0.008265	0.01342	-0.013517	-0.501953	0.125977	-0.352295
8.0	7.093432	0.238983	7.651681	-0.009749	0.010733	-0.011545	-0.5	0.130371	-0.350098
9.0	7.067268	0.259956	7.718114	-0.008268	0.01342	-0.013515	-0.504395	0.130371	-0.350098
10.0	7.115256	0.262227	7.664454	-0.004045	0.009582	-0.013761	-0.5	0.128174	-0.354492
11.0	7.101976	0.24415	7.675455	-0.010512	0.013299	-0.011826	-0.50415	0.128174	-0.349854
12.0	7.08965	0.240221	7.655147	-0.008737	0.012248	-0.014385	-0.497803	0.128174	-0.354492
13.0	7.087638	0.226104	7.687427	-0.009291	0.011906	-0.010668	-0.506836	0.134766	-0.3479
14.0	7.099024	0.24466	7.67817	-0.010473	0.012884	-0.014117	-0.501953	0.125977	-0.352295
15.0	7.085666	0.226723	7.689227	-0.006457	0.011956	-0.018362	-0.495605	0.130371	-0.350098
16.0	7.097024	0.245582	7.679989	-0.010521	0.013299	-0.011821	-0.5	0.130371	-0.350098
17.0	7.097118	0.260112	7.649482	-0.009209	0.011076	-0.015253	-0.504639	0.134766	-0.350098
18.0	7.082718	0.227685	7.691914	-0.008282	0.013422	-0.013505	-0.506592	0.132568	-0.345459
19.0	7.082797	0.242281	7.661423	-0.009256	0.011491	-0.012957	-0.506348	0.128174	-0.349854
20.0	7.092131	0.232437	7.714874	-0.009169	0.010663	-0.017544	-0.509033	0.136719	-0.352295
21.0	7.108987	0.217435	7.70926	-0.008751	0.01225	-0.014375	-0.502197	0.132568	-0.347656
22.0	7.080054	0.243466	7.663921	-0.010907	0.011298	-0.017277	-0.502197	0.130371	-0.347656
23.0	7.108318	0.232547	7.679456	-0.008455	0.008512	-0.014965	-0.502197	0.132568	-0.350098
24.0	7.08429	0.282424	7.68295	-0.008668	0.011423	-0.018959	-0.502197	0.130371	-0.354492
25.0	7.089992	0.263422	7.655975	-0.008458	0.008512	-0.014964	-0.506592	0.132568	-0.352295
26.0	7.093612	0.215726	7.691712	-0.007445	0.010031	-0.017802	-0.50415	0.128174	-0.345459
27.0	7.11101	0.272679	7.699872	-0.008505	0.008926	-0.012669	-0.499756	0.123779	-0.347656
28.0	7.075359	0.246208	7.668168	-0.009734	0.010319	-0.013822	-0.497559	0.125977	-0.349854
29.0	7.104731	0.24951	7.652314	-0.008507	0.008926	-0.012667	-0.506836	0.134521	-0.343262
30.0	7.102869	0.235304	7.684413	-0.009781	0.010733	-0.011527	-0.502197	0.130371	-0.345459
31.0	7.103133	0.249808	7.653787	-0.006355	0.009879	-0.009763	-0.50415	0.128174	-0.352295
32.0	7.060905	0.242761	7.649826	-0.011474	0.010953	-0.013554	-0.508545	0.128174	-0.349854
33.0	7.111618	0.239909	7.707983	-0.00585	0.010639	-0.01118	-0.502197	0.128174	-0.349854
34.0	7.09951	0.236146	7.68749	-0.007543	0.01086	-0.013208	-0.497803	0.130371	-0.347656
35.0	7.094248	0.284684	7.653257	-0.005897	0.011052	-0.008886	-0.506592	0.130371	-0.354492
36.0	7.109982	0.25499	7.679105	-0.008401	0.014251	-0.0089	-0.5	0.128174	-0.356689
37.0	7.108889	0.255053	7.680115	-0.006666	0.013618	-0.009163	-0.504395	0.132568	-0.347656
38.0	7.083217	0.218147	7.701217	-0.009327	0.011906	-0.010647	-0.497559	0.125977	-0.349854
39.0	7.095587	0.251025	7.660744	-0.006251	0.015203	-0.005994	-0.502197	0.132568	-0.354492
40.0	7.111235	0.221391	7.686667	-0.008777	0.012255	-0.014357	-0.500244	0.136963	-0.354736
41.0	7.110106	0.221246	7.687717	-0.013663	0.016561	-0.005809	-0.504395	0.130371	-0.352295
42.0	7.107984	0.206568	7.720024	-0.008563	0.009341	-0.010366	-0.499756	0.125977	-0.347656
43.0	7.090404	0.236324	7.695884	-0.009378	0.012319	-0.008351	-0.504395	0.132568	-0.354492
44.0	7.1072	0.220961	7.690411	-0.010057	0.014062	-0.013214	-0.502197	0.130371	-0.352295
45.0	7.106131	0.221049	7.691396	-0.008874	0.01308	-0.009767	-0.502197	0.132568	-0.350098
46.0	7.106204	0.235624	7.661001	-0.008322	0.01343	-0.013476	-0.5	0.128174	-0.347656
47.0	7.07501	0.232671	7.678428	-0.012721	0.012349	-0.014697	-0.506592	0.132568	-0.347656
48.0	7.108657	0.187588	7.697775	-0.011492	0.010956	-0.013543	-0.502197	0.130371	-0.352295
49.0	7.078592	0.198894	7.683836	-0.011803	0.014695	-0.012944	-0.502197	0.128174	-0.356689
50.0	7.101034	0.221851	7.696079	-0.008237	0.01261	-0.018056	-0.502441	0.136963	-0.354736
51.0	7.100084	0.22231	7.696943	-0.014834	0.010988	-0.01989	-0.50415	0.125977	-0.347656
52.0	7.093668	0.184688	7.679945	-0.012327	0.007791	-0.019876	-0.495605	0.130371	-0.350098
53.0	7.128805	0.226552	7.681795	-0.01127	0.008905	-0.025	-0.502197	0.130371	-0.361328
54.0	7.074334	0.201756	7.687682	-0.008568	0.01021	-0.025802	-0.497803	0.128174	-0.354492
55.0	7.121691	0.262692	7.679561	-0.009491	0.007865	-0.027552	-0.502197	0.130371	-0.352295
56.0	7.067185	0.23808	7.685465	-0.007609	0.012145	-0.026338	-0.5	0.130371	-0.354492
57.0	7.119757	0.265079	7.681272	-0.010631	0.014579	-0.024931	-0.502197	0.128174	-0.352295
58.0	7.083051	0.225006	7.68083	-0.005608	0.008189	-0.024907	-0.504395	0.130371	-0.350098
59.0	7.083359	0.240843	7.650205	-0.005879	0.011517	-0.026596	-0.502197	0.130371	-0.350098
60.0	7.09358	0.246386	7.672353	-0.005883	0.011518	-0.026594	-0.497803	0.128174	-0.349854
61.0	7.09144	0.233272	7.704584	-0.007166	0.01332	-0.025451	-0.506348	0.128174	-0.356689
62.0	7.10268	0.253112	7.695494	-0.007628	0.012148	-0.026326	-0.504395	0.130371	-0.345459
63.0	7.078289	0.231716	7.685019	-0.00809	0.010976	-0.0272	-0.508545	0.125977	-0.352295
64.0	7.113034	0.274571	7.687165	-0.001452	0.012199	-0.027651	-0.497559	0.125977	-0.349854
65.0	7.088613	0.253291	7.676718	-0.009882	0.012013	-0.024641	-0.508545	0.128174	-0.349854
66.0	7.116758	0.243262	7.692447	-0.004711	0.010538	-0.02314	-0.504395	0.130371	-0.347656
67.0	7.105787	0.254961	7.64063	-0.005445	0.012694	-0.025703	-0.506348	0.128174	-0.352295
68.0	7.074684	0.252997	7.657836	-0.005173	0.009366	-0.024013	-0.499512	0.121582	-0.352051
69.0	7.102895	0.243219	7.673508	-0.005909	0.011522	-0.026576	-0.506592	0.132568	-0.350098
70.0	7.089816	0.226145	7.684215	-0.003392	0.008331	-0.026564	-0.497314	0.121582	-0.352051
71.0	7.113459	0.264956	7.664979	-0.005412	0.012287	-0.027985	-0.506348	0.128174	-0.349854
72.0	7.088008	0.229315	7.685789	-0.004178	0.010896	-0.026833	-0.5	0.128174	-0.352295
73.0	7.099229	0.249927	7.676685	0.00177	0.013876	-0.032134	-0.502197	0.132568	-0.352295
74.0	7.109437	0.256396	7.698787	-0.001067	0.007655	-0.032812	-0.502197	0.128174	-0.349854
75.0	7.085405	0.236174	7.687981	0.003416	0.007934	-0.036161	-0.501953	0.123779	-0.349854
76.0	7.10271	0.223847	7.682109	0.005152	0.007309	-0.036421	-0.50415	0.125977	-0.345459
77.0	7.085142	0.256663	7.657736	0.007847	0.008622	-0.037217	-0.5	0.130371	-0.352295
78.0	7.118868	0.28671	7.690974	0.006838	0.007093	-0.034388	-0.502197	0.132568	-0.354492
79.0	7.094814	0.266724	7.6802	0.002111	0.009733	-0.03501	-0.504395	0.130371	-0.352295
80.0	7.130144	0.239211	7.667935	0.008115	0.005297	-0.035521	-0.5	0.128174	-0.347656
81.0	7.07507	0.20148	7.704632	0.005868	0.005156	-0.033843	-0.50415	0.125977	-0.352295
82.0	7.074422	0.204457	7.705148	0.002685	0.009683	-0.04099	-0.50415	0.125977	-0.349854
83.0	7.109093	0.249297	7.707154	0.00451	0.008244	-0.045824	-0.502197	0.128174	-0.354492
84.0	7.092061	0.21071	7.668605	0.002349	0.007286	-0.048721	-0.501953	0.123779	-0.349854
85.0	7.092539	0.228913	7.637732	0.00193	0.005706	-0.051879	-0.506348	0.123779	-0.349854
86.0	7.137992	0.192445	7.678111	0.00346	0.007598	-0.058393	-0.501953	0.125977	-0.349854
87.0	7.10726	0.19369	7.694849	0.00611	0.003192	-0.065234	-0.50415	0.123779	-0.352051
88.0	7.078995	0.224514	7.648586	0.012155	-0.001639	-0.068021	-0.501953	0.123779	-0.349854
89.0	7.082811	0.253947	7.697707	0.011096	0.003845	-0.072255	-0.508545	0.123779	-0.349854
90.0	7.113645	0.278283	7.650167	0.016346	0.001581	-0.075312	-0.499756	0.125977	-0.347656
91.0	7.136609	0.308113	7.661442	0.018945	-0.002412	-0.079855	-0.501709	0.121582	-0.358887
92.0	7.128391	0.32036	7.720333	0.022106	-0.000318	-0.082046	-0.499756	0.123779	-0.347656
93.0	7.082951	0.296428	7.666184	0.023823	-0.000932	-0.08229	-0.501953	0.123779	-0.352051
94.0	7.13604	0.330927	7.66102	0.026033	-0.000778	-0.083943	-0.499512	0.119385	-0.352051
95.0	7.10654	0.349755	7.645967	0.030849	0.001521	-0.081825	-0.505859	0.117188	-0.347412
96.0	7.092835	0.41099	7.67003	0.027377	0.002347	-0.08357	-0.503906	0.121582	-0.349854
97.0	7.110745	0.40404	7.663488	0.031904	-0.004355	-0.079828	-0.503906	0.119385	-0.347412
98.0	7.110476	0.411808	7.663324	0.025011	0.003017	-0.077304	-0.499512	0.119385	-0.349854
99.0	7.096687	0.471913	7.687303	0.022502	-0.000408	-0.067964	-0.501709	0.119385	-0.352051
100.0	7.098755	0.42081	7.641899	0.020704	0.000617	-0.065413	-0.499512	0.117188	-0.347412
101.0	7.116644	0.411836	7.635536	0.01842	0.000874	-0.061454	-0.505859	0.112793	-0.349609
102.0	7.098053	0.432426	7.641903	0.01492	0.002099	-0.060927	-0.503662	0.112793	-0.349609
103.0	7.115859	0.42271	7.635673	0.01264	0.002355	-0.056972	-0.503662	0.11499	-0.349609
104.0	7.114516	0.412912	7.667215	0.004683	0.003264	-0.053114	-0.503662	0.112793	-0.344971
105.0	7.118769	0.455216	7.684989	0.00593	0.001887	-0.051958	-0.501709	0.117188	-0.349854
106.0	7.120245	0.38765	7.671065	0.010213	-0.001888	-0.052191	-0.501465	0.112793	-0.347412
107.0	7.102544	0.421297	7.646072	0.009002	0.004814	-0.04959	-0.503662	0.11499	-0.347412
108.0	7.090125	0.40676	7.65639	0.012444	0.004008	-0.047822	-0.499512	0.121582	-0.345215
109.0	7.131612	0.433767	7.630228	0.010692	0.004617	-0.047559	-0.508057	0.11499	-0.352051
110.0	7.100864	0.433801	7.646933	0.008871	0.006047	-0.042739	-0.503662	0.112793	-0.349609
111.0	7.135843	0.393647	7.666172	0.014217	0.008728	-0.044322	-0.503662	0.11499	-0.347412
112.0	7.139621	0.436114	7.684242	0.013311	0.006371	-0.046059	-0.501465	0.11499	-0.347412
113.0	7.116008	0.41722	7.673446	0.016426	0.008892	-0.045976	-0.505859	0.117188	-0.347412
114.0	7.120419	0.474425	7.660232	0.019092	0.010235	-0.046764	-0.499268	0.11499	-0.349609
115.0	7.118594	0.46436	7.692279	0.012372	0.010159	-0.039491	-0.503662	0.112793	-0.351807
116.0	7.106607	0.463599	7.671651	0.012814	0.01134	-0.038617	-0.501709	0.117188	-0.345215
117.0	7.132471	0.347181	7.656114	0.015548	0.011862	-0.043958	-0.505859	0.11499	-0.347412
118.0	7.135163	0.375877	7.705692	0.022133	0.00744	-0.0504	-0.500977	0.104248	-0.347168
119.0	7.123471	0.377165	7.684743	0.030091	0.006149	-0.056504	-0.507568	0.106201	-0.349609
120.0	7.11036	0.465872	7.646083	0.04335	0.007962	-0.061912	-0.501221	0.106201	-0.347168
121.0	7.121121	0.492121	7.636483	0.040225	0.011177	-0.055969	-0.505371	0.104004	-0.354004
122.0	7.109083	0.494746	7.615695	0.043694	0.009973	-0.056468	-0.49707	0.112793	-0.352051
123.0	7.106966	0.487602	7.647883	0.040709	0.017278	-0.053623	-0.505371	0.106201	-0.356445
124.0	7.153141	0.470003	7.657719	0.04862	0.016408	-0.057439	-0.503174	0.106201	-0.344971
125.0	7.145625	0.41148	7.704196	0.05444	0.019463	-0.062684	-0.505371	0.106201	-0.351807
126.0	7.167041	0.458732	7.685325	0.064378	0.025758	-0.075202	-0.498779	0.104248	-0.347168
127.0	7.099918	0.537163	7.62137	0.070047	0.030476	-0.071345	-0.499023	0.106445	-0.356445
128.0	7.090265	0.580879	7.619407	0.060507	0.035617	-0.072621	-0.503418	0.108398	-0.347168
129.0	7.062743	0.652561	7.592298	0.057177	0.035584	-0.059048	-0.50293	0.099854	-0.347168
130.0	7.070819	0.664983	7.61558	0.047209	0.029294	-0.046508	-0.499023	0.106445	-0.347168
131.0	7.075051	0.637422	7.62144	0.038671	0.031059	-0.032202	-0.507813	0.108398	-0.356445
132.0	7.101851	0.632027	7.638628	0.028052	0.030985	-0.025332	-0.500977	0.104248	-0.347168
133.0	7.070144	0.645455	7.625317	0.021748	0.027163	-0.018676	-0.503174	0.102051	-0.351807
134.0	7.068036	0.647569	7.627092	0.010154	0.025971	-0.006737	-0.503174	0.104248	-0.351807
135.0	7.062147	0.610051	7.611436	0.003889	0.021731	-0.002357	-0.501221	0.110596	-0.351807
136.0	7.077348	0.566909	7.66985	-0.003305	0.021295	0.008545	-0.50293	0.097656	-0.351563
137.0	7.065978	0.575463	7.618324	-0.005508	0.015369	0.004211	-0.500977	0.102051	-0.354004
138.0	7.075687	0.579056	7.640811	-0.008304	0.015689	0.01408	-0.496582	0.104248	-0.349365
139.0	7.069782	0.52468	7.656079	-0.013621	0.012982	0.015649	-0.505127	0.097656	-0.351563
140.0	7.079845	0.527185	7.6783	-0.017162	0.009259	0.0147	-0.498779	0.104248	-0.354004
141.0	7.094537	0.485795	7.624118	-0.019347	0.008673	0.014082	-0.507813	0.108398	-0.358643
142.0	7.067035	0.50365	7.689771	-0.016268	0.005874	0.010448	-0.498779	0.102051	-0.354004
143.0	7.078361	0.520341	7.680136	-0.022378	0.005301	0.009458	-0.505371	0.106201	-0.351807
144.0	7.078925	0.532024	7.649106	-0.021149	0.004352	0.012886	-0.505615	0.110596	-0.349609
145.0	7.083636	0.581563	7.635399	-0.027809	0.003848	0.017843	-0.500732	0.099854	-0.347168
146.0	7.071806	0.558878	7.645906	-0.034912	0.002159	0.021933	-0.500977	0.104248	-0.354004
147.0	7.112967	0.563251	7.651252	-0.037265	-0.002095	0.026682	-0.507568	0.104004	-0.356201
148.0	7.072093	0.549409	7.646326	-0.041623	0.002072	0.029171	-0.503174	0.104248	-0.351807
149.0	7.130698	0.523676	7.677206	-0.047819	0.002337	0.032732	-0.501465	0.112793	-0.352051
150.0	7.101347	0.527735	7.662427	-0.04739	0.003522	0.033608	-0.505615	0.108398	-0.349609
151.0	7.101167	0.521325	7.663033	-0.05271	0.006154	0.038912	-0.501221	0.110596	-0.351807
152.0	7.088128	0.481593	7.705317	-0.05129	0.008461	0.034712	-0.503662	0.112793	-0.354248
153.0	7.118673	0.49341	7.658632	-0.05606	0.011035	0.034069	-0.503174	0.106445	-0.356445
154.0	7.094515	0.449056	7.679702	-0.050877	0.009647	0.0356	-0.501221	0.110596	-0.349609
155.0	7.112295	0.428224	7.674496	-0.049375	0.011131	0.026851	-0.501221	0.106201	-0.347168
156.0	7.101569	0.432229	7.622789	-0.050212	0.013686	0.026579	-0.501465	0.112793	-0.352051
157.0	7.093085	0.446004	7.6515	-0.046731	0.012484	0.026083	-0.501221	0.110596	-0.351807
158.0	7.121387	0.43063	7.667907	-0.043111	0.015375	0.022501	-0.503662	0.112793	-0.349609
159.0	7.079305	0.417284	7.663886	-0.039587	0.013761	0.019728	-0.501465	0.112793	-0.347412
160.0	7.137715	0.406719	7.664174	-0.040419	0.016316	0.019455	-0.501221	0.110596	-0.351807
161.0	7.099949	0.431833	7.677646	-0.037513	0.009836	0.021163	-0.503662	0.11499	-0.347412
162.0	7.105609	0.394153	7.68251	-0.033745	0.016823	0.014501	-0.501221	0.110596	-0.354248
163.0	7.105438	0.40479	7.652419	-0.034715	0.015282	0.017309	-0.503418	0.108398	-0.349609
164.0	7.13257	0.37667	7.700201	-0.030178	0.014802	0.009451	-0.503662	0.117188	-0.349854
165.0	7.120718	0.369271	7.679881	-0.028876	0.01302	0.008326	-0.503662	0.112793	-0.358643
166.0	7.071043	0.377544	7.70326	-0.023893	0.013721	0.001341	-0.501709	0.117188	-0.347412
167.0	7.100339	0.379855	7.6881	-0.024736	0.010955	-0.002683	-0.505859	0.117188	-0.354248
168.0	7.088685	0.37426	7.667508	-0.016254	0.010452	-0.010176	-0.501221	0.108398	-0.347168
169.0	7.133186	0.420236	7.691295	-0.019453	0.008739	-0.005717	-0.505859	0.117188	-0.347412
170.0	7.098928	0.391561	7.659146	-0.017523	0.011828	-0.011321	-0.499512	0.119385	-0.347412
171.0	7.116438	0.376327	7.653814	-0.014069	0.01103	-0.00955	-0.508057	0.11499	-0.358887
172.0	7.101278	0.42892	7.678638	-0.015295	0.011999	-0.012973	-0.503662	0.117188	-0.354248
173.0	7.118724	0.413964	7.673355	-0.011399	0.012379	-0.010327	-0.497314	0.117188	-0.347412
174.0	7.096098	0.40489	7.631453	-0.012667	0.013755	-0.011474	-0.503662	0.11499	-0.349609
175.0	7.123273	0.380002	7.678967	-0.01355	0.011397	-0.013224	-0.501709	0.117188	-0.352051
176.0	7.104958	0.409212	7.654692	-0.013509	0.010991	-0.015499	-0.501709	0.121582	-0.345215
177.0	7.110677	0.375731	7.659195	-0.009571	0.010966	-0.015129	-0.499512	0.121582	-0.356689
178.0	7.108674	0.361726	7.691389	-0.008608	0.012513	-0.017928	-0.501709	0.117188	-0.347412
179.0	7.102057	0.410509	7.657315	-0.008609	0.012514	-0.017927	-0.503662	0.11499	-0.349609
180.0	7.112925	0.4301	7.648287	-0.009491	0.010156	-0.019677	-0.505859	0.112793	-0.349609
181.0	7.080643	0.411954	7.696545	-0.010364	0.013116	-0.017671	-0.505859	0.11499	-0.349609
182.0	7.099079	0.412398	7.659974	-0.006383	0.012687	-0.019576	-0.503662	0.112793	-0.347412
183.0	7.117524	0.412855	7.623409	-0.010369	0.013116	-0.017669	-0.503662	0.11499	-0.349609
184.0	7.107736	0.417923	7.68332	-0.009144	0.012146	-0.014245	-0.499268	0.11499	-0.356445
185.0	7.094918	0.399419	7.694088	-0.008621	0.012516	-0.017919	-0.503662	0.11499	-0.342773
186.0	7.094947	0.414528	7.663687	-0.006915	0.01232	-0.015896	-0.497314	0.119385	-0.347412
187.0	7.100568	0.381296	7.668293	-0.010419	0.013521	-0.015389	-0.503662	0.112793	-0.351807
188.0	7.1046	0.434321	7.655783	-0.010378	0.013117	-0.017663	-0.501221	0.110596	-0.347412
189.0	7.110174	0.401085	7.660439	-0.008233	0.0141	-0.014762	-0.503662	0.11499	-0.354248
190.0	7.102321	0.435103	7.657852	-0.009986	0.014701	-0.014509	-0.505859	0.112793	-0.356445
191.0	7.119665	0.420826	7.6527	-0.006484	0.013501	-0.015013	-0.499268	0.112793	-0.349609
192.0	7.095126	0.383331	7.673227	-0.010034	0.009789	-0.015991	-0.499512	0.119385	-0.349854
193.0	7.10493	0.388275	7.695529	-0.008635	0.012519	-0.01791	-0.501465	0.11499	-0.349609
194.0	7.110006	0.455917	7.651726	-0.010432	0.013522	-0.015381	-0.499512	0.119385	-0.347412
195.0	7.122496	0.388981	7.659848	-0.008286	0.00919	-0.016241	-0.512207	0.112793	-0.351807
196.0	7.104142	0.418824	7.635556	-0.00645	0.013099	-0.017282	-0.505859	0.117188	-0.347412
197.0	7.102043	0.404946	7.667775	-0.005224	0.012128	-0.013861	-0.501709	0.117188	-0.352051
198.0	7.111775	0.409843	7.690138	-0.007459	0.011951	-0.01221	-0.499268	0.11499	-0.352051
199.0	7.09893	0.391252	7.700914	-0.004352	0.014486	-0.012104	-0.505859	0.11499	-0.354248
200.0	7.109655	0.411111	7.692031	-0.001197	0.011304	-0.018035	-0.508301	0.119385	-0.352051
201.0	7.120431	0.430844	7.683109	-0.007026	0.01313	-0.01133	-0.506104	0.119385	-0.349854
202.0	7.104905	0.388859	7.644544	-0.000888	0.008378	-0.014093	-0.501465	0.11499	-0.352051
203.0	7.108044	0.427814	7.663109	-0.001769	0.011334	-0.012086	-0.503418	0.110596	-0.349609
204.0	7.10709	0.428605	7.663949	-0.001289	0.012111	-0.013482	-0.503662	0.117188	-0.352051
205.0	7.095353	0.424911	7.643389	-0.002608	0.013888	-0.012352	-0.508057	0.11499	-0.347412
206.0	7.094271	0.42552	7.644358	-0.003089	0.013112	-0.010954	-0.501465	0.112793	-0.349609
207.0	7.111657	0.411391	7.639229	-0.003927	0.015666	-0.011221	-0.505859	0.11499	-0.347412
208.0	7.090959	0.412039	7.677649	-0.005672	0.01095	-0.014731	-0.49707	0.11499	-0.349609
209.0	7.120253	0.416693	7.662615	-0.008834	0.01413	-0.0088	-0.505859	0.11499	-0.352051
210.0	7.089903	0.427107	7.648321	-0.004367	0.014487	-0.012096	-0.501465	0.11499	-0.356445
211.0	7.095596	0.393779	7.652934	-0.009228	0.012548	-0.011951	-0.505859	0.11499	-0.347412
212.0	7.10523	0.398446	7.675381	-0.00704	0.01313	-0.011324	-0.501709	0.117188	-0.354248
213.0	7.086754	0.427845	7.651198	-0.009231	0.012548	-0.01195	-0.503662	0.11499	-0.352051
214.0	7.10322	0.39872	7.677228	-0.009712	0.011772	-0.010553	-0.49707	0.11499	-0.354248
215.0	7.11398	0.417748	7.668382	-0.010988	0.013146	-0.011697	-0.503662	0.117188	-0.356689
216.0	7.101196	0.398861	7.679092	-0.009189	0.012147	-0.014221	-0.499268	0.11499	-0.347412
217.0	7.089517	0.394691	7.658519	-0.008756	0.013327	-0.013342	-0.505859	0.112793	-0.349609
218.0	7.110844	0.418465	7.671252	-0.008758	0.013327	-0.013341	-0.503662	0.112793	-0.347412
219.0	7.087348	0.395165	7.660502	-0.010514	0.013924	-0.013089	-0.508057	0.117188	-0.352051
220.0	7.098017	0.41449	7.651737	-0.008715	0.012926	-0.015613	-0.503418	0.110596	-0.349609
221.0	7.119349	0.438209	7.664472	-0.010998	0.013146	-0.011692	-0.503662	0.11499	-0.349609
222.0	7.065626	0.410262	7.669537	-0.011433	0.011968	-0.012569	-0.501465	0.11499	-0.352051
223.0	7.094886	0.414701	7.654629	-0.012276	0.014521	-0.012833	-0.499512	0.117188	-0.354248
224.0	7.104386	0.41914	7.677196	-0.012712	0.013342	-0.013711	-0.501465	0.11499	-0.349609
225.0	7.104392	0.433729	7.646973	-0.01228	0.014522	-0.012831	-0.503662	0.117188	-0.354248
226.0	7.109004	0.385297	7.682844	-0.011532	0.01277	-0.008018	-0.505859	0.11499	-0.347412
227.0	7.109063	0.399503	7.652601	-0.012856	0.014544	-0.006887	-0.503662	0.11499	-0.345215
228.0	7.089367	0.413618	7.659799	-0.015001	0.013562	-0.009788	-0.505859	0.11499	-0.345215
229.0	7.109575	0.422137	7.70382	-0.011969	0.011592	-0.008895	-0.503662	0.112793	-0.351807
230.0	7.083574	0.374986	7.643747	-0.010578	0.014328	-0.010803	-0.499268	0.11499	-0.349609
231.0	7.096884	0.417364	7.684228	-0.013682	0.011788	-0.010916	-0.505615	0.110596	-0.356445
232.0	7.11567	0.417425	7.647722	-0.0075	0.011959	-0.012182	-0.499023	0.110596	-0.351807
233.0	7.072484	0.39382	7.674296	-0.014097	0.015519	-0.010298	-0.508057	0.117188	-0.349609
234.0	7.11233	0.402588	7.681013	-0.009739	0.011776	-0.010536	-0.501709	0.117188	-0.354248
235.0	7.111371	0.402822	7.681888	-0.009167	0.011757	-0.016476	-0.503418	0.108398	-0.347168
236.0	7.081181	0.41317	7.667392	-0.00931	0.012955	-0.009654	-0.501709	0.117188	-0.349854
237.0	7.080115	0.413207	7.668374	-0.008832	0.013734	-0.011046	-0.499268	0.112793	-0.352051
238.0	7.108246	0.403202	7.68476	-0.009265	0.012556	-0.011926	-0.501465	0.11499	-0.349609
239.0	7.096617	0.398888	7.664176	-0.008835	0.013735	-0.011044	-0.501465	0.112793	-0.354248
240.0	7.11786	0.422453	7.677033	-0.009315	0.012955	-0.009651	-0.503662	0.117188	-0.349854
241.0	7.075881	0.4136	7.67226	-0.00879	0.013337	-0.013316	-0.508057	0.112793	-0.349609
242.0	7.08296	0.394908	7.645457	-0.007944	0.010784	-0.013054	-0.499023	0.110596	-0.354248
243.0	7.104214	0.418643	7.658299	-0.010119	0.01511	-0.012183	-0.508057	0.11499	-0.349609
244.0	7.09137	0.399655	7.668991	-0.009273	0.012557	-0.011921	-0.501465	0.11499	-0.352051
245.0	7.111486	0.408727	7.713024	-0.007516	0.011963	-0.01217	-0.505859	0.117188	-0.352051
246.0	7.101125	0.419181	7.661134	-0.009276	0.012557	-0.011919	-0.497314	0.117188	-0.349854
247.0	7.098961	0.404797	7.693254	-0.00747	0.011566	-0.014442	-0.508301	0.119385	-0.358887
248.0	7.099188	0.419846	7.662892	-0.00752	0.011964	-0.012168	-0.506104	0.121582	-0.352051
249.0	7.105187	0.386499	7.667252	-0.006242	0.010589	-0.011026	-0.503662	0.117188	-0.349854
250.0	7.107888	0.425011	7.686126	-0.005284	0.012151	-0.013809	-0.503662	0.112793	-0.349609
251.0	7.085784	0.416574	7.643912	-0.008804	0.013338	-0.013307	-0.508057	0.112793	-0.349609
252.0	7.102174	0.387626	7.669986	-0.007095	0.013143	-0.011284	-0.503906	0.119385	-0.349854
253.0	7.104743	0.42589	7.688984	-0.009286	0.012558	-0.011914	-0.503662	0.117188	-0.347412
254.0	7.100134	0.387955	7.671858	-0.009287	0.012558	-0.011914	-0.503662	0.117188	-0.352051
255.0	7.080471	0.402513	7.678906	-0.007627	0.012759	-0.007617	-0.503662	0.117188	-0.356689
256.0	7.109814	0.407095	7.664112	-0.011049	0.013151	-0.011662	-0.499512	0.117188	-0.345215
257.0	7.097193	0.388432	7.674555	-0.004343	0.008808	-0.018088	-0.503662	0.117188	-0.349854
258.0	7.099728	0.426916	7.693559	-0.009764	0.016686	-0.009015	-0.505859	0.11499	-0.347412
259.0	7.088084	0.42266	7.67301	-0.007484	0.011569	-0.014432	-0.503662	0.11499	-0.347412
260.0	7.082362	0.370252	7.687008	-0.007535	0.011966	-0.012159	-0.499268	0.112793	-0.354248
261.0	7.11537	0.413163	7.690201	-0.006304	0.010988	-0.008744	-0.503662	0.112793	-0.347412
262.0	7.115638	0.428152	7.659852	-0.005348	0.012552	-0.011525	-0.499512	0.117188	-0.356689
263.0	7.109876	0.375647	7.673898	-0.009299	0.012559	-0.011907	-0.503662	0.11499	-0.356445
264.0	7.09139	0.40519	7.649732	-0.003161	0.013139	-0.01089	-0.503662	0.11499	-0.345215
265.0	7.109031	0.391089	7.644571	-0.005401	0.012949	-0.00925	-0.505859	0.11499	-0.349609
266.0	7.111507	0.429397	7.663619	-0.007113	0.013145	-0.011272	-0.499268	0.11499	-0.345215
267.0	7.08825	0.405998	7.6526	-0.007164	0.013541	-0.008999	-0.499512	0.117188	-0.347412
268.0	7.097754	0.410533	7.6751	-0.006311	0.010989	-0.008741	-0.501465	0.11499	-0.349609
269.0	7.047737	0.420377	7.697753	-0.005934	0.012563	-0.005585	-0.506104	0.121582	-0.352051
270.0	7.114555	0.395967	7.670753	-0.006413	0.01178	-0.004195	-0.501465	0.112793	-0.352051
271.0	7.094933	0.410256	7.677722	-0.008124	0.011976	-0.006218	-0.51001	0.112793	-0.351807
272.0	7.102235	0.391393	7.65087	-0.002413	0.01138	-0.006081	-0.499268	0.112793	-0.347412
273.0	7.081611	0.39128	7.688791	-0.002943	0.006084	-0.003928	-0.501465	0.11499	-0.352051
274.0	7.092529	0.410425	7.679934	-0.007221	0.013937	-0.006723	-0.503662	0.11499	-0.347412
275.0	7.110227	0.396038	7.674761	-0.002415	0.011381	-0.00608	-0.503662	0.11499	-0.352051
276.0	7.102339	0.429778	7.672095	-0.006366	0.011385	-0.006465	-0.503662	0.112793	-0.354248
277.0	7.108462	0.39605	7.676396	-0.006846	0.010602	-0.005076	-0.506104	0.119385	-0.349854
278.0	7.108906	0.410708	7.645958	-0.005084	0.010011	-0.005324	-0.505859	0.11499	-0.349609
279.0	7.088081	0.41033	7.684045	-0.00813	0.011977	-0.006215	-0.501709	0.117188	-0.347412
280.0	7.107133	0.410365	7.647625	-0.00861	0.011193	-0.004826	-0.501221	0.110596	-0.354248
281.0	7.104916	0.395121	7.679725	-0.009998	0.013358	-0.001421	-0.503662	0.112793	-0.354248
282.0	7.083134	0.385814	7.637336	-0.007327	0.009819	-0.003685	-0.501221	0.110596	-0.349609
283.0	7.09397	0.404442	7.628612	-0.012189	0.012771	-0.002055	-0.501465	0.11499	-0.349609
284.0	7.091659	0.389023	7.660795	-0.009522	0.014141	-0.002807	-0.503662	0.11499	-0.349609
285.0	7.082287	0.40713	7.689555	-0.011817	0.014343	0.001103	-0.505859	0.117188	-0.347412
286.0	7.11862	0.377448	7.67844	-0.007814	0.013945	-0.000782	-0.499268	0.112793	-0.354248
287.0	7.095362	0.353312	7.667418	-0.007388	0.015123	0.000103	-0.503662	0.117188	-0.354248
288.0	7.07548	0.367428	7.674591	-0.006805	0.015119	-0.00583	-0.499268	0.11499	-0.352051
289.0	7.086156	0.386533	7.666011	-0.006374	0.011389	-0.006458	-0.503662	0.11499	-0.347412
290.0	7.107336	0.410208	7.678984	-0.003707	0.01276	-0.007209	-0.501465	0.11499	-0.352051
291.0	7.136771	0.415019	7.664297	-0.00595	0.012567	-0.005573	-0.505859	0.112793	-0.351807
292.0	7.101986	0.372217	7.662606	-0.006376	0.011389	-0.006457	-0.499512	0.117188	-0.352051
293.0	7.082347	0.386697	7.669522	-0.004188	0.011976	-0.00582	-0.501709	0.121582	-0.352051
294.0	7.081427	0.386726	7.67037	-0.006377	0.011389	-0.006456	-0.503662	0.117188	-0.349854
295.0	7.121349	0.39589	7.677271	-0.004189	0.011976	-0.005819	-0.499512	0.117188	-0.349854
296.0	7.079673	0.386677	7.671991	-0.011182	0.009037	-0.008614	-0.501465	0.112793	-0.349609
297.0	7.109258	0.391129	7.657212	-0.009907	0.01257	-0.005959	-0.508057	0.11499	-0.354248
298.0	7.095226	0.356814	7.69884	-0.011618	0.012768	-0.007983	-0.499512	0.117188	-0.345215
299.0	7.092219	0.333501	7.650361	-0.008038	0.011194	-0.01075	-0.501709	0.117188	-0.354248
300.0	7.105137	0.376157	7.690981	-0.00841	0.009623	-0.013907	-0.503662	0.117188	-0.352051
301.0	7.100897	0.338538	7.673569	-0.009218	0.011783	-0.016432	-0.508301	0.119385	-0.352051
302.0	7.123452	0.37742	7.655334	-0.008358	0.009231	-0.016177	-0.501709	0.119385	-0.354248
303.0	7.085199	0.406643	7.668148	-0.012313	0.009233	-0.016566	-0.508301	0.119385	-0.352051
304.0	7.121883	0.378374	7.656747	-0.003929	0.010015	-0.017172	-0.503906	0.119385	-0.352051
305.0	7.11969	0.364182	7.688678	-0.009703	0.010999	-0.015041	-0.503906	0.119385	-0.356689
306.0	7.101302	0.393876	7.664451	-0.008748	0.01257	-0.017813	-0.503906	0.119385	-0.349854
307.0	7.119077	0.379842	7.659283	-0.009761	0.011391	-0.012768	-0.505859	0.11499	-0.352051
308.0	7.10646	0.361015	7.669608	-0.007465	0.011196	-0.016672	-0.501709	0.117188	-0.347412
309.0	7.068032	0.390517	7.682523	-0.007412	0.010804	-0.018943	-0.505859	0.117188	-0.349609
310.0	7.104611	0.362472	7.671252	-0.00699	0.011982	-0.018056	-0.505859	0.112793	-0.347412
311.0	7.093348	0.359003	7.65038	-0.005596	0.009824	-0.02146	-0.506104	0.121582	-0.349854
312.0	7.095611	0.398134	7.6695	-0.005561	0.01434	-0.022211	-0.499268	0.11499	-0.349609
313.0	7.123753	0.389193	7.685976	-0.006077	0.009039	-0.020072	-0.505859	0.11499	-0.356445
314.0	7.071734	0.376495	7.658909	-0.006945	0.011591	-0.020323	-0.499268	0.11499	-0.352051
315.0	7.111602	0.386811	7.665875	-0.005126	0.010612	-0.02284	-0.501465	0.11499	-0.345215
316.0	7.132756	0.411602	7.67882	-0.003894	0.009629	-0.01943	-0.497314	0.117188	-0.349854
317.0	7.079438	0.384108	7.682857	-0.007374	0.010413	-0.021206	-0.505859	0.117188	-0.352051
318.0	7.0903	0.404235	7.674091	-0.008275	0.008449	-0.020706	-0.501465	0.11499	-0.349609
319.0	7.118616	0.395019	7.690437	-0.011333	0.010411	-0.021595	-0.505859	0.117188	-0.358887
320.0	7.088605	0.405781	7.675576	-0.007381	0.010415	-0.021201	-0.501709	0.117188	-0.352051
321.0	7.118093	0.411452	7.660938	-0.010494	0.012766	-0.01982	-0.501465	0.11499	-0.349609
322.0	7.079454	0.44046	7.673956	-0.013271	0.01217	-0.014532	-0.503906	0.119385	-0.347412
323.0	7.104475	0.392757	7.672179	-0.009684	0.010606	-0.017295	-0.503906	0.119385	-0.347412
324.0	7.125569	0.416757	7.685212	-0.011929	0.010406	-0.015663	-0.501465	0.112793	-0.347412
325.0	7.102766	0.393372	7.673729	-0.010164	0.00982	-0.015909	-0.503662	0.11499	-0.349609
326.0	7.083099	0.407895	7.680544	-0.011988	0.010796	-0.01339	-0.499512	0.117188	-0.349854
327.0	7.109608	0.374881	7.647536	-0.010698	0.009422	-0.012253	-0.501709	0.119385	-0.352051
328.0	7.092988	0.427219	7.672731	-0.012861	0.013348	-0.013638	-0.503906	0.119385	-0.358887
329.0	7.099089	0.393736	7.677113	-0.008906	0.013354	-0.013244	-0.503662	0.11499	-0.354248
330.0	7.086533	0.374603	7.687373	-0.008988	0.009227	-0.010227	-0.499512	0.121582	-0.349854
331.0	7.108905	0.413083	7.669377	-0.011208	0.013541	-0.009342	-0.503662	0.11499	-0.349609
332.0	7.074355	0.369958	7.667426	-0.010338	0.01099	-0.009092	-0.505859	0.117188	-0.347412
333.0	7.096693	0.408515	7.649469	-0.009387	0.012567	-0.011857	-0.505859	0.112793	-0.351807
334.0	7.085674	0.412178	7.709355	-0.01256	0.015304	-0.008205	-0.501709	0.117188	-0.349854
335.0	7.119224	0.345171	7.679942	-0.014299	0.010983	-0.009484	-0.503662	0.117188	-0.349854
336.0	7.107996	0.340558	7.659127	-0.009447	0.012957	-0.009584	-0.499268	0.11499	-0.352051
337.0	7.109994	0.378931	7.678442	-0.004427	0.013766	-0.016495	-0.501709	0.117188	-0.347412
338.0	7.109093	0.379525	7.679247	-0.007172	0.008255	-0.012739	-0.501465	0.112793	-0.354248
339.0	7.079119	0.389912	7.664333	-0.008808	0.012581	-0.017775	-0.499512	0.119385	-0.347412
340.0	7.099958	0.413874	7.677618	-0.01288	0.013349	-0.013628	-0.501709	0.119385	-0.352051
341.0	7.109039	0.417979	7.70044	-0.016057	0.016084	-0.009976	-0.506104	0.119385	-0.354248
342.0	7.138181	0.422379	7.686309	-0.017409	0.017846	-0.00884	-0.508301	0.119385	-0.345215
343.0	7.10338	0.378505	7.684582	-0.022685	0.014693	-0.009628	-0.503662	0.11499	-0.349609
344.0	7.087493	0.320221	7.676766	-0.021793	0.01666	-0.01012	-0.49707	0.11499	-0.354248
345.0	7.1154	0.309686	7.693601	-0.018562	0.013541	-0.01604	-0.506104	0.119385	-0.352051
346.0	7.114386	0.309436	7.694549	-0.021116	0.011385	-0.019839	-0.503662	0.11499	-0.352051
347.0	7.084352	0.319716	7.679685	-0.010841	0.010838	-0.025214	-0.501709	0.119385	-0.354248
348.0	7.096509	0.355058	7.63999	-0.009492	0.009078	-0.026347	-0.501709	0.117188	-0.352051
349.0	7.091344	0.427933	7.65582	-0.004641	0.011057	-0.026442	-0.503662	0.11499	-0.354248
350.0	7.11363	0.467975	7.637919	-0.005175	0.010652	-0.022789	-0.501465	0.112793	-0.352051
351.0	7.089496	0.430571	7.657383	0.000441	0.010853	-0.018099	-0.503662	0.11499	-0.354248
352.0	7.119031	0.436748	7.64285	-0.00316	0.012405	-0.015336	-0.501465	0.112793	-0.352051
353.0	7.099059	0.451659	7.649835	-0.002856	0.014354	-0.009907	-0.503906	0.119385	-0.349854
354.0	7.109611	0.471066	7.64147	-0.008298	0.012355	-0.003892	-0.503662	0.11499	-0.354248
355.0	7.083982	0.416493	7.69222	-0.014259	0.014469	0.005036	-0.501465	0.112793	-0.349609
356.0	7.110496	0.382364	7.659502	-0.014146	0.013698	0.000497	-0.501709	0.117188	-0.349854
357.0	7.096402	0.346749	7.700964	-0.015977	0.014666	0.003014	-0.501465	0.11499	-0.349609
358.0	7.096671	0.360449	7.671004	-0.015446	0.015072	-0.000635	-0.501465	0.11499	-0.352051
359.0	7.114423	0.345155	7.666102	-0.01539	0.014687	-0.002904	-0.503662	0.117188	-0.352051
360.0	7.104636	0.362775	7.694915	-0.014095	0.013313	-0.001769	-0.503662	0.11499	-0.352051
361.0	7.104917	0.376942	7.664946	-0.012729	0.016074	-0.003637	-0.499268	0.11499	-0.352051
362.0	7.090861	0.342068	7.706276	-0.009139	0.010005	-0.005666	-0.499512	0.121582	-0.349854
363.0	7.101575	0.361014	7.697823	-0.010078	0.01294	-0.003639	-0.501709	0.117188	-0.354248
364.0	7.097751	0.322744	7.680226	-0.008665	0.010797	-0.007044	-0.499512	0.121582	-0.349854
365.0	7.070631	0.370527	7.683798	-0.007715	0.012382	-0.009802	-0.501709	0.117188	-0.352051
366.0	7.100155	0.37577	7.669415	-0.009431	0.01258	-0.011825	-0.497314	0.119385	-0.349854
367.0	7.118211	0.361788	7.66419	-0.008908	0.008468	-0.014742	-0.508057	0.117188	-0.347412
368.0	7.088237	0.372116	7.649232	-0.004996	0.013385	-0.012804	-0.501465	0.11499	-0.349609
369.0	7.107611	0.381199	7.69364	-0.006364	0.010624	-0.010936	-0.505859	0.11499	-0.354248
370.0	7.096586	0.377149	7.67265	-0.006365	0.010624	-0.010935	-0.505859	0.11499	-0.349609
371.0	7.076732	0.391473	7.679508	-0.007782	0.012766	-0.007529	-0.501709	0.119385	-0.356689
372.0	7.094744	0.377223	7.674349	-0.006901	0.010215	-0.007286	-0.501465	0.112793	-0.347412
373.0	7.10398	0.381665	7.696969	-0.005536	0.012977	-0.009151	-0.501709	0.119385	-0.352051
374.0	7.073898	0.391692	7.682107	-0.006012	0.012185	-0.007772	-0.497559	0.123779	-0.349854
375.0	7.101968	0.381895	7.698814	-0.005597	0.013361	-0.006881	-0.508057	0.117188	-0.352051
376.0	7.080672	0.373383	7.656173	-0.005954	0.011801	-0.010041	-0.503906	0.121582	-0.352051
377.0	7.079721	0.373329	7.657055	-0.008323	0.012356	-0.003878	-0.505859	0.117188	-0.349609
378.0	7.088891	0.377304	7.679753	-0.010038	0.012554	-0.005902	-0.499512	0.119385	-0.349854
379.0	7.118424	0.382199	7.665451	-0.00785	0.01315	-0.005255	-0.506104	0.121582	-0.347656
380.0	7.105802	0.362442	7.675666	-0.0101	0.012938	-0.003631	-0.503662	0.117188	-0.349854
381.0	7.116314	0.381142	7.667463	-0.013235	0.015276	-0.002248	-0.503906	0.119385	-0.352051
382.0	7.103615	0.361068	7.677755	-0.010102	0.012938	-0.00363	-0.499512	0.119385	-0.349854
383.0	7.102444	0.360432	7.678867	-0.012349	0.017246	-0.002733	-0.506104	0.121582	-0.352051
384.0	7.0896	0.340313	7.68928	-0.011465	0.014696	-0.002491	-0.510498	0.121582	-0.352051
385.0	7.107373	0.325574	7.6844	-0.012644	0.015306	-0.008162	-0.50415	0.123779	-0.352051
386.0	7.09611	0.321013	7.663675	-0.007382	0.013946	-0.006626	-0.501709	0.119385	-0.347412
387.0	7.096262	0.343663	7.7143	-0.010872	0.014725	-0.008405	-0.501709	0.121582	-0.349854
388.0	7.093897	0.320929	7.665727	-0.0072	0.0128	-0.013433	-0.503662	0.117188	-0.347412
389.0	7.084024	0.339824	7.694439	-0.007202	0.0128	-0.013432	-0.503906	0.121582	-0.347656
390.0	7.113555	0.345447	7.680177	-0.007203	0.0128	-0.013432	-0.501709	0.119385	-0.349854
391.0	7.105148	0.379488	7.677893	-0.005015	0.013396	-0.012783	-0.503662	0.117188	-0.349854
392.0	7.070783	0.336603	7.67548	-0.011232	0.013167	-0.011564	-0.499512	0.117188	-0.356689
393.0	7.09149	0.360737	7.68897	-0.003594	0.011259	-0.016187	-0.501953	0.123779	-0.352051
394.0	7.080413	0.356975	7.668046	-0.00727	0.013182	-0.011159	-0.506104	0.119385	-0.349854
395.0	7.101066	0.3811	7.681589	-0.007148	0.01242	-0.015697	-0.499512	0.117188	-0.358887
396.0	7.097315	0.343618	7.663952	-0.008988	0.013381	-0.013182	-0.505859	0.117188	-0.347412
397.0	7.069899	0.391677	7.667659	-0.008927	0.013	-0.01545	-0.506104	0.119385	-0.347412
398.0	7.076238	0.358368	7.671835	-0.01118	0.012785	-0.013829	-0.501709	0.121582	-0.354492
399.0	7.123229	0.334556	7.682674	-0.007278	0.013183	-0.011155	-0.501709	0.121582	-0.356689
400.0	7.126409	0.38781	7.6712	-0.009406	0.012206	-0.014072	-0.503662	0.117188	-0.352051
401.0	7.092187	0.344782	7.668645	-0.011659	0.01199	-0.012451	-0.499512	0.121582	-0.358887
402.0	7.103959	0.386952	7.709956	-0.009946	0.011792	-0.010426	-0.499512	0.117188	-0.354248
403.0	7.090317	0.344907	7.670368	-0.009823	0.011031	-0.014963	-0.501709	0.119385	-0.349854
404.0	7.082	0.3787	7.667987	-0.009887	0.011411	-0.012693	-0.499512	0.117188	-0.352051
405.0	7.117504	0.335287	7.687946	-0.011728	0.01237	-0.010179	-0.503662	0.117188	-0.349854
406.0	7.099109	0.364473	7.663776	-0.012078	0.010815	-0.013341	-0.503662	0.117188	-0.352051
407.0	7.098286	0.364504	7.664537	-0.010777	0.00944	-0.012209	-0.501709	0.119385	-0.352051
408.0	7.08741	0.360061	7.643482	-0.010492	0.011376	-0.006777	-0.499512	0.119385	-0.347412
409.0	7.11568	0.349972	7.660088	-0.013442	0.008047	-0.011483	-0.501709	0.119385	-0.354248
410.0	7.103326	0.330572	7.669959	-0.009832	0.011034	-0.014956	-0.506348	0.123779	-0.349854
411.0	7.114017	0.349962	7.661633	-0.014401	0.010977	-0.009449	-0.503662	0.117188	-0.356689
412.0	7.102667	0.352932	7.721197	-0.010846	0.009821	-0.009937	-0.501709	0.117188	-0.347412
413.0	7.083334	0.359524	7.647285	-0.01031	0.010239	-0.013579	-0.501709	0.119385	-0.349854
414.0	7.101507	0.345509	7.642104	-0.010374	0.010618	-0.011309	-0.501709	0.121582	-0.347656
415.0	7.120629	0.354154	7.686649	-0.009491	0.012591	-0.011788	-0.499512	0.117188	-0.356689
416.0	7.079106	0.344724	7.680725	-0.01025	0.009861	-0.015845	-0.501709	0.119385	-0.349854
417.0	7.088335	0.349199	7.703291	-0.010789	0.009443	-0.012202	-0.508301	0.121582	-0.349854
418.0	7.097939	0.345971	7.645397	-0.010865	0.014344	-0.010646	-0.501709	0.119385	-0.352051
419.0	7.086345	0.349428	7.705111	-0.007591	0.011258	-0.016565	-0.50415	0.123779	-0.354492
420.0	7.065391	0.34122	7.662252	-0.011625	0.011615	-0.014703	-0.505859	0.11499	-0.352051
421.0	7.103474	0.335919	7.700884	-0.009437	0.012214	-0.014051	-0.499512	0.119385	-0.349854
422.0	7.10401	0.351449	7.670845	-0.008965	0.013012	-0.015423	-0.501465	0.11499	-0.349609
423.0	7.091444	0.332303	7.680871	-0.007724	0.012015	-0.012024	-0.503906	0.121582	-0.349854
424.0	7.083072	0.366157	7.678521	-0.010261	0.009863	-0.015839	-0.499512	0.121582	-0.352051
425.0	7.101257	0.352405	7.67335	-0.009853	0.011039	-0.014942	-0.497559	0.123779	-0.349854
426.0	7.100172	0.352651	7.674342	-0.009934	0.01594	-0.013384	-0.497314	0.117188	-0.349854
427.0	7.099087	0.352897	7.675335	-0.009856	0.01104	-0.014941	-0.501709	0.117188	-0.354248
428.0	7.109693	0.372679	7.667103	-0.009449	0.012215	-0.014044	-0.501709	0.119385	-0.349854
429.0	7.097221	0.35355	7.67703	-0.008079	0.010464	-0.015182	-0.501709	0.117188	-0.354248
430.0	7.086322	0.349632	7.655999	-0.009452	0.012216	-0.014042	-0.499512	0.121582	-0.356689
431.0	7.095344	0.354255	7.678733	-0.005956	0.011441	-0.012261	-0.503662	0.117188	-0.356689
432.0	7.092718	0.339348	7.710641	-0.010355	0.014766	-0.014274	-0.499756	0.123779	-0.347656
433.0	7.103171	0.359233	7.702549	-0.005486	0.012241	-0.013631	-0.503662	0.11499	-0.352051
434.0	7.124911	0.259489	7.712702	-0.004329	0.008186	-0.022468	-0.499512	0.119385	-0.347412
435.0	7.123093	0.385248	7.716698	-0.000425	0.008588	-0.01979	-0.501709	0.117188	-0.354248
436.0	7.081014	0.354123	7.660703	-0.001372	0.006989	-0.017046	-0.501709	0.121582	-0.349854
437.0	7.088107	0.322086	7.664192	0.005409	0.003139	-0.021181	-0.501465	0.11499	-0.356445
438.0	7.087656	0.324186	7.664521	0.007231	0.006713	-0.024398	-0.501709	0.117188	-0.347412
439.0	7.104828	0.436995	7.662501	0.010297	0.009289	-0.024219	-0.508301	0.119385	-0.354248
440.0	7.090076	0.381628	7.653525	0.000444	0.010562	-0.020261	-0.499512	0.117188	-0.352051
441.0	7.182877	0.188625	7.813431	0.006386	0.008887	-0.026893	-0.499512	0.121582	-0.356689
442.0	7.237869	0.135201	7.827209	0.018563	0.008181	-0.052196	-0.499268	0.11499	-0.354248
443.0	7.164339	0.220409	7.709157	0.027354	0.015454	-0.070019	-0.501465	0.11499	-0.352051
444.0	7.169792	0.311831	7.636142	0.041652	0.019172	-0.077889	-0.499512	0.117188	-0.347412
445.0	7.114424	0.415974	7.642841	0.050497	0.020841	-0.079788	-0.508301	0.121582	-0.354492
446.0	7.193275	0.445407	7.658139	0.05296	0.027529	-0.076665	-0.508057	0.11499	-0.352051
447.0	7.247832	0.553226	7.614527	0.065259	0.032966	-0.077483	-0.503662	0.112793	-0.356445
448.0	7.104985	0.430541	7.679504	0.06493	0.03901	-0.069115	-0.501465	0.11499	-0.347412
449.0	7.147268	0.519316	7.645569	0.082088	0.04195	-0.069271	-0.501465	0.11499	-0.354248
450.0	7.246883	0.458303	7.752617	0.089056	0.044586	-0.068645	-0.499268	0.11499	-0.356445
451.0	7.210304	0.264708	7.73083	0.097875	0.050418	-0.073492	-0.503418	0.110596	-0.354248
452.0	7.416855	0.18058	7.85087	0.128278	0.064863	-0.099859	-0.501465	0.11499	-0.358887
453.0	7.313556	0.385057	7.806438	0.152753	0.079943	-0.104407	-0.505371	0.106201	-0.356445
454.0	7.33404	0.558566	7.849572	0.162898	0.112364	-0.113749	-0.496826	0.108643	-0.358643
455.0	7.348129	0.656245	7.857726	0.154584	0.13801	-0.105931	-0.496826	0.106445	-0.363281
456.0	7.243611	0.634667	7.862822	0.140311	0.161199	-0.088574	-0.496826	0.11084	-0.358643
457.0	7.019583	0.971845	7.843206	0.122204	0.17116	-0.067242	-0.501221	0.108643	-0.358643
458.0	6.619422	1.411684	7.577108	0.063573	0.150206	-0.004782	-0.494385	0.104248	-0.36084
459.0	6.416042	1.279493	7.45465	-0.012519	0.12093	0.059757	-0.499268	0.112793	-0.361084
460.0	6.491907	0.543278	7.311329	-0.047649	0.071642	0.090245	-0.499023	0.108643	-0.363281
461.0	6.6573	0.272388	7.487857	-0.043808	0.040636	0.084261	-0.496826	0.106445	-0.367676
462.0	6.787167	0.360781	7.60173	-0.044725	0.027259	0.078535	-0.499268	0.113037	-0.363281
463.0	7.180993	0.010465	7.69451	-0.036221	0.03664	0.052413	-0.496826	0.106445	-0.365479
464.0	7.178826	-0.386982	7.835829	0.011057	0.061701	0.001882	-0.490479	0.115234	-0.365723
465.0	7.67544	-0.202825	8.072991	0.048835	0.098841	-0.062775	-0.501465	0.112793	-0.365723
466.0	7.476431	0.024976	7.847418	0.105039	0.152766	-0.125251	-0.496826	0.108643	-0.370117
467.0	7.185861	0.194784	8.028427	0.134874	0.18982	-0.154876	-0.494629	0.106445	-0.372314
468.0	7.400876	0.39235	7.986725	0.154202	0.216317	-0.183198	-0.498535	0.099854	-0.374512
469.0	7.427338	0.320987	7.978442	0.178642	0.241543	-0.209819	-0.496338	0.099854	-0.367676
470.0	8.094631	0.461271	8.115424	0.185279	0.30786	-0.214721	-0.492188	0.102051	-0.376709
471.0	6.782564	0.41853	7.748761	0.195843	0.351028	-0.233721	-0.487549	0.095459	-0.374512
472.0	6.016717	0.460218	7.587391	0.209243	0.294033	-0.260754	-0.487549	0.097656	-0.381348
473.0	6.587436	0.537684	7.780798	0.226766	0.234864	-0.259245	-0.487549	0.097656	-0.378906
474.0	6.88604	0.737928	7.761454	0.231161	0.238638	-0.255727	-0.489746	0.093262	-0.378906
475.0	6.477382	0.780928	7.768844	0.226123	0.219778	-0.245744	-0.487061	0.086914	-0.378662
476.0	6.728115	0.812282	7.781462	0.241826	0.216552	-0.243993	-0.484863	0.08252	-0.383301
477.0	6.968275	1.018822	7.891708	0.259015	0.230827	-0.231617	-0.491455	0.084717	-0.385498
478.0	6.934787	0.959293	7.880965	0.274304	0.267432	-0.233094	-0.487061	0.084717	-0.385498
479.0	6.428203	0.788895	7.707837	0.296286	0.270799	-0.249375	-0.489014	0.080322	-0.387695
480.0	5.861895	0.75944	7.627553	0.32108	0.231798	-0.240266	-0.482422	0.078125	-0.385498
481.0	5.971928	0.59788	7.747857	0.353779	0.167667	-0.243922	-0.482178	0.07373	-0.387695
482.0	5.790076	0.28849	7.643477	0.399246	0.12111	-0.251244	-0.484131	0.067139	-0.39209
483.0	5.184601	0.532526	7.417707	0.450944	0.022156	-0.259085	-0.486328	0.067139	-0.385254
484.0	5.124309	1.03219	7.392599	0.491503	-0.097575	-0.253157	-0.483887	0.062744	-0.382813
485.0	9.396748	3.184524	8.878917	0.393016	-0.167096	-0.162556	-0.479492	0.062988	-0.380615
486.0	5.989365	1.293356	7.776775	0.279789	-0.020832	-0.158323	-0.488281	0.062744	-0.389648
487.0	6.553676	1.551743	8.055719	0.253041	-0.106309	-0.126749	-0.481201	0.052002	-0.389404
488.0	7.233048	2.022067	8.034896	0.18498	-0.079197	-0.108181	-0.483643	0.056396	-0.382813
489.0	6.468847	1.863993	7.860189	0.139643	-0.086011	-0.071539	-0.483643	0.056396	-0.38501
490.0	6.751551	2.09564	7.923883	0.0685	-0.103804	-0.027922	-0.490234	0.05835	-0.375977
491.0	6.898583	1.557842	8.023387	0.020628	-0.098266	0.003264	-0.48584	0.058594	-0.380615
492.0	6.970248	1.58324	7.957019	-0.007588	-0.086892	0.015538	-0.481201	0.052002	-0.380371
493.0	6.790449	1.535324	7.901983	-0.033975	-0.079637	0.032951	-0.488281	0.060547	-0.380615
494.0	6.7298	1.483973	7.855602	-0.052492	-0.079104	0.044773	-0.483887	0.064941	-0.385254
495.0	6.737049	1.476028	7.850884	-0.067781	-0.087463	0.050944	-0.486084	0.062744	-0.382813
496.0	6.639261	1.330421	7.764509	-0.077466	-0.096161	0.057518	-0.486084	0.062744	-0.378418
497.0	6.386075	1.445479	7.661926	-0.100235	-0.122745	0.071776	-0.484375	0.071533	-0.383057
498.0	6.745532	1.232913	7.81966	-0.118604	-0.159052	0.083819	-0.484375	0.075928	-0.383057
499.0	6.961958	0.922477	7.87001	-0.118996	-0.157535	0.073295	-0.489014	0.078125	-0.380859
500.0	6.68825	1.022946	7.833166	-0.110152	-0.157865	0.060575	-0.491211	0.08252	-0.380859
501.0	6.43616	1.209691	7.627188	-0.117415	-0.188088	0.060591	-0.49585	0.084717	-0.376465
502.0	6.308926	1.360787	7.544451	-0.139048	-0.226156	0.076983	-0.500244	0.084473	-0.376465
503.0	6.069594	1.614207	7.422613	-0.186257	-0.295411	0.115979	-0.500244	0.088867	-0.365234
504.0	6.414454	1.705611	7.678424	-0.257253	-0.364461	0.176093	-0.502197	0.084473	-0.360596
505.0	7.282057	1.249277	7.975151	-0.315827	-0.352495	0.196165	-0.508789	0.084473	-0.358154
506.0	6.862342	0.977241	7.852465	-0.342841	-0.329336	0.194261	-0.508545	0.080078	-0.34668
507.0	6.838827	1.237806	7.772978	-0.384254	-0.328051	0.195433	-0.508545	0.080078	-0.358154
508.0	7.021092	1.41549	7.766301	-0.453299	-0.318852	0.22872	-0.513428	0.08667	-0.346924
509.0	7.173223	1.219322	7.78877	-0.517796	-0.297683	0.259348	-0.509033	0.08667	-0.349121
510.0	7.19939	1.172413	7.743615	-0.560893	-0.260886	0.269955	-0.504883	0.093262	-0.344727
511.0	7.293942	0.897527	7.752865	-0.56339	-0.229088	0.265395	-0.504883	0.091064	-0.340088
512.0	7.33325	0.592938	7.764386	-0.535951	-0.185965	0.242113	-0.509521	0.099609	-0.337891
513.0	7.268594	0.369929	7.883954	-0.500148	-0.144519	0.188771	-0.511719	0.101807	-0.340332
514.0	7.391219	0.316503	7.745344	-0.450539	-0.105425	0.150595	-0.505371	0.101807	-0.333496
515.0	7.391947	0.589643	7.699483	-0.406008	-0.071387	0.127957	-0.509521	0.101807	-0.340332
516.0	7.554278	0.709883	7.646593	-0.378089	-0.041405	0.142411	-0.509766	0.104004	-0.335693
517.0	7.331109	0.30141	7.745546	-0.346888	-0.037268	0.138575	-0.511719	0.101807	-0.331299
518.0	7.320749	0.170926	7.715438	-0.305442	-0.040335	0.122439	-0.51416	0.106201	-0.335938
519.0	7.184117	0.573886	7.767118	-0.28442	-0.062399	0.11648	-0.51001	0.110596	-0.340576
520.0	7.178034	1.343871	7.796349	-0.322905	-0.085991	0.167834	-0.51001	0.108398	-0.333496
521.0	7.280051	1.336567	7.718914	-0.373914	-0.087594	0.234291	-0.512207	0.112793	-0.33374
522.0	7.184843	0.631978	7.864968	-0.404679	-0.097423	0.278781	-0.512695	0.119385	-0.336182
523.0	7.147901	0.311821	8.203171	-0.363171	-0.159135	0.279575	-0.512695	0.121582	-0.336182
524.0	6.971563	1.817394	8.754017	-0.460128	-0.272752	0.328226	-0.510742	0.12793	-0.331787
525.0	6.717281	-0.894752	8.768047	-0.529697	-0.440061	0.366	-0.515137	0.12793	-0.336182
526.0	6.761828	-0.090114	9.178919	-0.269922	-0.741483	0.297897	-0.519775	0.132324	-0.327148
527.0	6.817992	-0.033762	9.031957	-0.182306	-1.025225	0.254904	-0.521973	0.132324	-0.320313
528.0	6.806772	-0.583769	8.986161	-0.102626	-1.296014	0.211957	-0.521973	0.132324	-0.318115
529.0	6.795619	-1.053711	8.978028	-0.018309	-1.588064	0.137121	-0.532959	0.134277	-0.304443
530.0	6.771343	-1.286245	8.992843	0.088587	-1.914138	0.039217	-0.526367	0.134521	-0.297607
531.0	6.773618	-1.360657	9.026829	0.190726	-2.251439	-0.063489	-0.537354	0.134277	-0.288574
532.0	6.19985	-0.95345	9.20964	0.248067	-2.597505	-0.143414	-0.541504	0.129883	-0.263428
533.0	5.6456	-0.694988	9.186268	0.26367	-2.995544	-0.216846	-0.550293	0.134033	-0.251953
534.0	5.753343	-0.857185	9.077498	0.306057	-3.388187	-0.234488	-0.554443	0.129639	-0.231445
535.0	5.585797	-0.979011	9.077723	0.38588	-3.747501	-0.200924	-0.560791	0.125244	-0.208496
536.0	5.00189	-1.212499	9.665017	0.476481	-4.260653	-0.245124	-0.567139	0.12085	-0.18335
537.0	4.760511	-0.590785	9.274629	0.55619	-4.917407	-0.313884	-0.575684	0.118408	-0.151367
538.0	4.419485	0.604626	8.804682	0.614606	-5.546235	-0.280202	-0.580078	0.116211	-0.121826
539.0	4.085401	0.100981	8.648009	0.637887	-6.193494	-0.261428	-0.586426	0.11377	-0.087402
540.0	5.129061	0.434266	6.833758	0.525794	-6.94592	-0.420101	-0.588379	0.109375	-0.039551
541.0	7.478447	0.894081	2.46549	0.061473	-8.008503	-0.365626	-0.588135	0.102539	0.012939
542.0	12.390944	-0.591729	3.434341	-0.210593	-9.036626	-0.352328	-0.583496	0.095947	0.065674
543.0	20.177354	0.502287	11.094001	-0.282001	-9.258422	-0.506113	-0.581055	0.089355	0.118164
544.0	23.575803	-0.362963	7.148993	0.180497	-8.784562	-1.076262	-0.561035	0.080566	0.168457
545.0	24.343389	3.229281	5.511787	0.672873	-8.901924	-0.957213	-0.541016	0.072021	0.202637
546.0	23.165904	2.93113	4.875267	1.051705	-8.77951	-0.684806	-0.510254	0.067627	0.241455
547.0	25.483398	3.685007	3.965763	1.912533	-8.077627	-0.878519	-0.488037	0.059082	0.264404
548.0	31.123836	7.012413	12.858149	2.464933	-6.458805	-1.035937	-0.457275	0.052734	0.269043
549.0	30.191595	9.201476	27.186138	2.350194	-3.195534	-0.770669	-0.435303	0.050537	0.248535
550.0	16.94647	11.324501	30.063657	1.178943	-0.144649	0.294084	-0.408691	0.042236	0.203125
551.0	16.08976	3.324876	27.133442	0.531941	1.681276	1.207355	-0.391357	0.04248	0.14624
552.0	5.458661	-0.399005	20.751596	1.57516	3.163025	1.167889	-0.347412	0.036377	0.084717
553.0	2.816931	1.283405	17.623623	2.758813	3.467317	0.920607	-0.303467	0.030273	0.030029
554.0	5.342069	4.435489	16.320881	3.33813	3.956329	0.610551	-0.241699	0.015381	-0.026611
555.0	5.863188	7.296437	15.493835	3.150095	4.593472	0.397845	-0.166504	-0.01001	-0.067383
556.0	5.726029	8.02549	14.694423	2.385182	5.267272	0.315547	-0.062988	-0.03125	-0.105713
557.0	5.010053	6.727209	13.368399	1.55484	5.817242	0.304179	0.055176	-0.04126	-0.105713
558.0	4.510998	4.77599	11.893002	0.96289	6.190294	0.300213	0.188477	-0.047119	-0.0625
559.0	3.822063	2.870483	10.47284	0.618568	6.375679	0.268512	0.288086	-0.031494	0.026123
560.0	3.757877	1.511476	9.595854	0.520875	6.468777	0.198585	0.356445	0.001465	0.159668
561.0	4.437161	0.459143	9.100866	0.612703	6.515609	0.090469	0.354248	0.049072	0.293213
562.0	5.236497	-0.248683	8.879233	0.827939	6.62855	-0.0598	0.284424	0.100586	0.424561
563.0	5.764549	-0.452581	8.745089	1.12667	6.738716	-0.243029	0.166504	0.1521	0.505615
564.0	6.109791	-0.303831	8.607375	1.39782	6.815991	-0.436196	0.031738	0.192627	0.534668
565.0	5.482518	0.468168	8.036331	1.598198	6.734727	-0.604957	-0.106689	0.21582	0.525391
566.0	5.451865	1.613514	7.876348	1.618235	6.413529	-0.760245	-0.225098	0.226074	0.475098
567.0	7.309227	2.275148	8.459867	1.479596	6.010683	-0.978585	-0.327393	0.221191	0.413818
568.0	8.928719	2.229606	9.12131	1.318956	5.663786	-1.29889	-0.405518	0.216553	0.345703
569.0	9.227492	2.83047	9.812801	1.219785	5.290912	-1.579557	-0.455566	0.209717	0.266113
570.0	11.801408	3.478337	10.84709	1.202217	4.921196	-1.8042	-0.494385	0.200928	0.181885
571.0	14.987688	5.802675	11.414933	1.075662	4.661643	-2.021703	-0.515137	0.179199	0.111816
572.0	13.999015	8.351661	10.442841	0.449685	4.298612	-2.095601	-0.520996	0.164063	0.045898
573.0	14.198567	8.183801	9.048566	-0.367259	3.593881	-1.964966	-0.518311	0.15332	-0.003906
574.0	18.80072	6.697427	9.110527	-0.992916	2.975584	-1.768552	-0.515869	0.144775	-0.051758
575.0	23.256504	4.454822	9.081137	-1.43306	2.780076	-1.665806	-0.506348	0.127441	-0.094727
576.0	26.879886	2.079969	8.366788	-1.60198	2.910222	-1.735599	-0.5	0.129639	-0.119873
577.0	29.28401	0.605401	6.735983	-1.517961	3.202275	-1.980294	-0.48877	0.121094	-0.151611
578.0	30.989036	-0.028115	4.334496	-1.361865	3.58372	-2.351378	-0.481445	0.105957	-0.192383
579.0	30.192573	-0.440482	1.111215	-1.22367	4.031619	-2.809195	-0.469971	0.093018	-0.223877
580.0	27.172259	-0.445075	-1.950126	-1.186137	4.274167	-3.274217	-0.453857	0.075928	-0.255615
581.0	25.052297	-1.608395	-4.993452	-1.165294	4.172673	-3.569658	-0.437988	0.060791	-0.284912
582.0	24.234638	-4.010815	-7.84831	-0.881321	3.839381	-3.751252	-0.415283	0.039063	-0.307373
583.0	23.142433	-6.32935	-10.269974	-0.407187	3.389735	-3.918985	-0.401123	0.015137	-0.334229
584.0	20.933065	-8.785619	-12.691612	0.206672	2.774401	-4.042993	-0.386963	-0.008545	-0.347412
585.0	17.241929	-9.521783	-14.910245	0.860966	1.794721	-3.921903	-0.381836	-0.023926	-0.354004
586.0	16.036372	-6.72478	-15.68633	0.961427	0.419084	-2.987995	-0.36792	-0.045654	-0.353516
587.0	18.203699	-4.703608	-14.042786	0.233602	-0.832922	-1.259156	-0.369873	-0.045654	-0.351318
588.0	21.634065	-5.718698	-10.817071	-0.688421	-1.562072	0.523502	-0.374512	-0.04126	-0.344482
589.0	24.743935	-7.367731	-7.201387	-1.023775	-1.772868	1.771459	-0.379883	-0.019531	-0.342529
590.0	25.92593	-7.596094	-4.132216	-0.691272	-1.584743	2.465082	-0.38501	-0.004395	-0.33374
591.0	10.685187	-8.278831	10.217168	0.755573	-2.449136	3.445173	-0.39624	0.004395	-0.315674
592.0	-12.329873	12.343825	20.564171	0.41922	-2.459672	3.953285	-0.410645	0.034668	-0.313965
593.0	-0.291811	10.483358	-2.195851	-0.991964	-4.156705	4.506415	-0.429199	0.058594	-0.293945
594.0	28.482952	3.771019	9.926238	-0.54309	-4.50632	2.77086	-0.442871	0.071533	-0.273682
595.0	18.034413	13.502173	9.889473	-1.050118	-2.988647	0.400103	-0.443115	0.075928	-0.253174
596.0	14.380393	-2.304597	9.624298	-1.252709	-3.206409	0.250577	-0.454102	0.077881	-0.237305
597.0	19.396894	-9.965575	9.61632	-0.593699	-2.657731	0.30434	-0.454102	0.080078	-0.226074
598.0	15.29506	-4.828505	9.433235	0.364269	-2.262558	0.138805	-0.45874	0.084473	-0.210205
599.0	11.96015	4.550515	9.825833	0.442324	-1.841098	-0.060315	-0.463135	0.084473	-0.203369
600.0	7.680109	4.394971	8.172002	0.174743	-1.684318	-0.012205	-0.465088	0.079834	-0.187256
601.0	18.956575	6.390814	12.800123	-0.222645	-1.441114	0.35964	-0.463135	0.086426	-0.18042
602.0	8.405664	-0.631569	7.090953	-0.367172	-0.748346	0.437434	-0.465332	0.086426	-0.176025
603.0	9.314529	-0.832001	8.786374	-0.204719	-0.544371	0.301508	-0.465332	0.086426	-0.169189
604.0	8.458123	1.208424	8.163266	-0.093267	-0.413126	0.20893	-0.465576	0.095215	-0.173828
605.0	7.693712	1.163651	8.0403	-0.101957	-0.271079	0.163816	-0.465576	0.095215	-0.166992
606.0	7.402542	0.561301	7.990837	-0.081499	-0.196484	0.133636	-0.461426	0.095215	-0.169189
607.0	7.45998	0.677017	8.032326	-0.042988	-0.143806	0.097036	-0.46582	0.097412	-0.162598
608.0	7.264838	0.832116	8.082853	-0.023074	-0.098042	0.078277	-0.46582	0.097412	-0.164795
609.0	7.253216	0.416164	8.123317	-0.012069	-0.064063	0.050311	-0.467773	0.093018	-0.162354
610.0	7.149313	0.400169	8.084576	0.005446	-0.037986	0.01019	-0.461426	0.095215	-0.169189
611.0	6.94995	0.471819	8.03221	0.015201	-0.028154	-0.018669	-0.470215	0.097412	-0.171631
612.0	7.025506	0.203367	8.027256	0.034811	-0.017983	-0.047845	-0.463379	0.093018	-0.166992
613.0	6.877865	0.188072	7.983287	0.076049	-0.000143	-0.08626	-0.465576	0.095215	-0.157959
614.0	6.677767	0.448214	7.907333	0.112243	0.00458	-0.110897	-0.463379	0.093018	-0.164795
615.0	6.377643	0.606923	7.873596	0.120664	-0.007521	-0.135175	-0.460938	0.088623	-0.157715
616.0	6.117041	0.794183	7.75993	0.094534	-0.049434	-0.159023	-0.465332	0.086426	-0.155518
617.0	5.854008	1.197609	7.742924	0.064952	-0.122826	-0.159809	-0.467285	0.084229	-0.159912
618.0	5.810919	2.021389	7.698896	0.01122	-0.21381	-0.117598	-0.458496	0.082031	-0.157715
619.0	5.686309	2.729458	7.418162	-0.085587	-0.301079	-0.01879	-0.456299	0.079834	-0.153076
620.0	5.734054	3.245607	7.234137	-0.220823	-0.397772	0.136502	-0.449463	0.075684	-0.157471
621.0	6.281818	3.26329	7.433293	-0.419503	-0.476241	0.321338	-0.428467	0.093262	-0.164795
622.0	6.747953	2.904045	7.82548	-0.652738	-0.482014	0.499231	-0.436768	0.130371	-0.188232
623.0	7.473609	1.782794	7.766845	-0.838683	-0.397614	0.586282	-0.473145	0.167236	-0.173096
624.0	7.544752	2.026431	7.809002	-0.926744	-0.316493	0.622685	-0.488037	0.156006	-0.147705
625.0	7.584526	1.92204	7.90927	-0.970585	-0.216468	0.660875	-0.485352	0.147461	-0.13623
626.0	7.677729	1.085545	7.731423	-0.960237	-0.120213	0.664729	-0.478516	0.136475	-0.135986
627.0	8.237855	-0.597767	7.479091	-0.872027	-0.041631	0.5972	-0.478516	0.136475	-0.131348
628.0	7.712807	-1.949329	7.893702	-0.698807	-0.007753	0.446901	-0.473877	0.13208	-0.128906
629.0	7.362984	-1.74987	7.916111	-0.517709	-0.039647	0.297447	-0.478027	0.127686	-0.131104
630.0	7.251857	-0.648047	7.982813	-0.397355	-0.096244	0.221269	-0.467529	0.138672	-0.135986
631.0	7.171657	-0.249364	8.110183	-0.318572	-0.144806	0.20297	-0.473877	0.13208	-0.126709
632.0	7.043859	1.337928	8.647592	-0.311765	-0.240417	0.259536	-0.471924	0.136475	-0.12915
633.0	7.087263	0.381978	8.421368	-0.427816	-0.319077	0.310879	-0.473877	0.134277	-0.124512
634.0	6.951793	-0.885332	8.616434	-0.546563	-0.420095	0.297998	-0.472412	0.147461	-0.129395
635.0	6.550369	-1.534682	9.132098	-0.198092	-0.698543	0.147961	-0.474365	0.143066	-0.124756
636.0	6.686966	-1.019996	9.220959	-0.11751	-0.97912	0.072067	-0.472168	0.145264	-0.115479
637.0	6.707031	-1.044753	9.323637	-0.037108	-1.277967	0.018451	-0.474365	0.143066	-0.108643
638.0	6.60881	-1.573521	9.438589	0.063073	-1.618586	-0.064992	-0.471924	0.138672	-0.101807
639.0	6.671202	-1.738365	9.438516	0.185258	-1.999249	-0.179515	-0.476318	0.138672	-0.088135
640.0	6.636086	-1.739998	9.520824	0.321156	-2.39382	-0.311719	-0.472168	0.14502	-0.072266
641.0	5.877277	-1.303781	9.776487	0.435795	-2.838029	-0.447606	-0.476318	0.13623	-0.056152
642.0	5.052555	-0.905712	9.996939	0.480168	-3.378194	-0.57232	-0.476074	0.134033	-0.037842
643.0	4.887055	-0.96478	10.081334	0.542253	-3.935606	-0.607427	-0.478027	0.129639	-0.005859
644.0	4.254944	-0.392192	10.161687	0.626708	-4.51366	-0.558919	-0.469482	0.129639	0.014648
645.0	3.597536	-0.142539	10.773672	0.695335	-5.20585	-0.477533	-0.467041	0.125244	0.046631
646.0	2.446719	-0.159382	12.05139	0.715571	-6.052376	-0.341821	-0.455811	0.12085	0.090088
647.0	2.43709	2.886773	11.452905	0.458633	-6.986572	-0.258871	-0.447266	0.12085	0.126465
648.0	2.236328	0.978621	10.080568	0.323089	-7.982904	-0.249343	-0.425293	0.118652	0.16748
649.0	6.503148	-0.014664	5.023378	1.082821	-9.548769	-0.405011	-0.405518	0.118652	0.226807
650.0	18.010858	4.075832	6.73695	1.127408	-10.83173	0.042413	-0.373047	0.12085	0.274414
651.0	32.880261	3.570778	12.583915	0.338041	-10.649336	0.512319	-0.340576	0.125244	0.320068
652.0	29.887084	5.269564	5.653456	0.746493	-10.334781	0.561824	-0.297119	0.13208	0.372314
653.0	29.322978	6.417027	8.435766	1.167071	-9.835934	0.944978	-0.251709	0.140869	0.408447
654.0	32.224986	9.061412	13.106215	1.489199	-8.830078	1.283283	-0.210938	0.156494	0.428467
655.0	33.873935	9.873381	26.853086	1.395992	-5.522156	0.990475	-0.19165	0.160889	0.435303
656.0	21.787351	9.150786	33.002451	1.381635	-1.476584	0.935164	-0.178955	0.171875	0.428223
657.0	16.285593	12.396733	32.329679	0.722064	0.538013	1.332417	-0.170166	0.171875	0.412354
658.0	6.095562	7.674009	25.869178	0.451962	2.295587	1.533266	-0.176758	0.174072	0.39624
659.0	0.331354	5.473593	21.291779	0.748842	2.760919	1.638236	-0.168457	0.180908	0.37793
660.0	2.454307	4.345649	18.788335	1.162196	3.256843	1.507162	-0.170898	0.1875	0.361816
661.0	2.676612	4.253248	16.820079	1.514213	3.85601	1.262971	-0.177734	0.193848	0.350342
662.0	2.859883	4.874293	15.258875	1.651557	4.442729	0.972504	-0.171631	0.202637	0.322754
663.0	3.755376	5.24701	13.925151	1.543431	5.037578	0.742513	-0.17627	0.209229	0.311279
664.0	4.467506	5.272014	12.640427	1.305457	5.644014	0.561687	-0.182861	0.211426	0.297607
665.0	4.473922	4.794113	11.343508	0.978812	6.163809	0.387406	-0.195801	0.209229	0.2771
666.0	4.19091	3.858185	10.058051	0.732496	6.507159	0.175178	-0.206299	0.198242	0.259033
667.0	4.236592	3.238698	8.976802	0.619076	6.656187	-0.115812	-0.219238	0.19165	0.23877
668.0	4.427296	3.197803	8.313268	0.572388	6.660855	-0.419197	-0.225342	0.183105	0.209229
669.0	5.565152	2.885131	8.127852	0.536244	6.642776	-0.727638	-0.229004	0.167725	0.175293
670.0	6.812072	2.641897	8.101165	0.562355	6.637645	-1.055076	-0.212646	0.144043	0.141602
671.0	7.495015	2.439084	8.070208	0.624352	6.61782	-1.355375	-0.1875	0.115967	0.117188
672.0	8.363242	2.157866	8.247333	0.789222	6.509181	-1.654076	-0.146729	0.083496	0.122314
673.0	9.910206	2.904387	8.607598	0.977177	6.31684	-1.920184	-0.108887	0.068359	0.145264
674.0	10.606553	3.683913	8.906262	1.140806	6.033431	-2.135293	-0.084717	0.061768	0.20459
675.0	11.428495	5.146002	9.720514	1.212828	5.597783	-2.316749	-0.091309	0.063721	0.270752
676.0	15.451042	6.653203	11.304256	1.094546	5.204121	-2.438946	-0.145752	0.061035	0.316406
677.0	19.502715	8.183917	11.962282	0.90502	5.049099	-2.574356	-0.221191	0.040771	0.337402
678.0	20.788121	10.812001	11.680634	0.356746	4.958141	-2.573545	-0.311035	0.005371	0.335938
679.0	22.213219	11.291617	10.461057	-0.486277	4.739476	-2.398498	-0.39209	-0.036377	0.286621
680.0	26.160739	8.778181	10.139137	-1.222145	4.562577	-2.212509	-0.449463	-0.071533	0.216797
681.0	31.623112	2.212595	10.088835	-1.330132	4.777672	-2.426711	-0.469727	-0.104248	0.135498
682.0	35.321768	-4.134687	9.127913	-0.471082	5.347323	-3.260778	-0.45752	-0.136719	0.056396
683.0	35.134632	-4.566194	5.881338	0.797135	5.97675	-4.256518	-0.421387	-0.164551	-0.009277
684.0	29.660139	-1.037725	1.413428	1.300962	6.200863	-4.845494	-0.381348	-0.179688	-0.054688
685.0	25.200161	-1.056217	-3.152484	1.036272	5.730538	-4.89449	-0.337646	-0.183594	-0.086426
686.0	24.9325	-4.023804	-6.580509	0.856385	4.885021	-4.762494	-0.29834	-0.181152	-0.104736
687.0	28.287605	-6.557292	-9.694992	0.831482	4.039129	-4.522298	-0.267822	-0.183105	-0.116211
688.0	29.408209	-8.728473	-14.252071	0.901609	3.398854	-3.979829	-0.244629	-0.165527	-0.116455
689.0	26.519799	-12.14986	-18.741913	1.263983	2.600925	-3.121103	-0.231689	-0.163086	-0.118896
690.0	23.909566	-11.858902	-20.127395	1.725654	1.431623	-2.000337	-0.219238	-0.145752	-0.105713
691.0	23.360179	-7.452943	-18.528845	1.35167	0.167169	-0.388637	-0.218018	-0.128174	-0.101318
692.0	25.140439	-5.203259	-14.388051	0.404043	-0.787096	1.2998	-0.212402	-0.104248	-0.092773
693.0	27.197344	-4.705181	-9.463609	-0.373154	-1.280994	2.352415	-0.213623	-0.080322	-0.086426
694.0	27.964749	-3.744061	-4.59853	-0.692551	-1.392021	2.66626	-0.216553	-0.062744	-0.082275
695.0	-1.392247	7.187632	34.764521	-0.91303	-2.262261	3.784181	-0.217773	-0.036621	-0.071289
696.0	-34.678185	22.142674	16.196206	-4.537597	-1.815179	4.204674	-0.223389	-0.006104	-0.064941
697.0	3.248922	-5.810861	-11.627246	-3.522069	-6.872424	4.000092	-0.227295	0.032959	-0.038574
698.0	44.101228	-8.787213	17.324254	-2.309871	-4.706532	0.604054	-0.221436	0.046143	-0.015869
699.0	15.029684	-4.940127	6.798407	-1.273058	-4.282914	-0.746466	-0.210938	0.054932	-0.002441
700.0	20.506872	-9.742666	12.445107	-0.704636	-3.806176	-0.536625	-0.207275	0.070068	0.013184
701.0	10.895544	-8.839518	9.193465	-0.002553	-3.387439	0.376481	-0.203125	0.074463	0.026855
702.0	8.464533	6.331834	7.5996	0.299809	-3.262487	0.344255	-0.194824	0.087646	0.028809
703.0	10.856249	6.322522	8.469189	-0.053787	-3.163366	0.33464	-0.182129	0.094238	0.046875
704.0	13.577092	-1.835188	9.004754	0.046558	-2.872963	0.40223	-0.176025	0.103027	0.060303
705.0	13.247135	-1.358288	9.728163	0.330184	-2.433181	0.244135	-0.171875	0.111816	0.067139
706.0	24.435321	10.731559	14.467157	-0.105152	-1.664158	0.418781	-0.161377	0.118408	0.075928
707.0	8.933032	1.001732	7.830543	-0.398449	-0.934891	0.55992	-0.170166	0.122559	0.082764
708.0	7.797752	-0.967024	8.096923	-0.267185	-0.711163	0.489507	-0.161621	0.124756	0.084961
709.0	8.591998	2.116705	8.402015	-0.236659	-0.588346	0.446309	-0.163818	0.124756	0.087402
710.0	8.06404	1.006321	8.328475	-0.23506	-0.437313	0.409304	-0.164063	0.12915	0.0896
711.0	7.569726	1.447763	8.181999	-0.220842	-0.34018	0.368861	-0.159912	0.135742	0.091553
712.0	7.32558	1.096386	8.156461	-0.243131	-0.271178	0.333553	-0.157471	0.12915	0.091797
713.0	7.289948	0.145908	8.173128	-0.228527	-0.223331	0.272035	-0.164307	0.137939	0.09375
714.0	7.184927	-0.312391	8.131316	-0.168452	-0.188961	0.18274	-0.160156	0.137939	0.091553
715.0	6.843673	0.160508	8.002911	-0.106853	-0.178435	0.096135	-0.162109	0.135742	0.089355
716.0	6.690896	0.558842	7.91218	-0.083389	-0.190787	0.055189	-0.164307	0.137939	0.10083
717.0	6.59869	0.765251	7.853212	-0.066587	-0.210532	0.033558	-0.162354	0.140137	0.096191
718.0	6.424521	1.063208	7.826431	-0.061427	-0.237822	0.022849	-0.162109	0.133545	0.103027
719.0	6.236202	1.296716	7.768665	-0.071669	-0.282687	0.025393	-0.157715	0.133545	0.107666
720.0	6.026207	1.657103	7.764954	-0.090212	-0.332808	0.050665	-0.157471	0.12915	0.107666
721.0	5.949127	2.553735	7.594726	-0.152829	-0.387064	0.109382	-0.135254	0.122803	0.112305
722.0	5.932332	3.251322	7.403049	-0.253808	-0.441259	0.234555	-0.118408	0.131592	0.096191
723.0	6.078247	3.900913	7.328131	-0.438957	-0.465804	0.421382	-0.113525	0.168945	0.068115
724.0	6.315548	4.374337	7.623996	-0.716818	-0.433814	0.66756	-0.148193	0.216553	0.06958
725.0	7.659958	2.820271	7.824611	-1.03649	-0.351146	0.879563	-0.178711	0.214111	0.101563
726.0	7.725708	1.434583	7.565966	-1.101344	-0.230866	0.92001	-0.18457	0.19873	0.122314
727.0	8.023846	-0.676782	7.522837	-1.110707	-0.130338	0.809834	-0.179443	0.183594	0.127197
728.0	8.084049	-3.992888	7.741752	-0.933026	-0.03136	0.539144	-0.168457	0.179199	0.125
729.0	7.713422	-1.840907	7.90933	-0.688041	-0.013859	0.348661	-0.172607	0.174805	0.129639
730.0	7.764298	-0.626271	7.774156	-0.579627	-0.036818	0.279246	-0.168457	0.179199	0.131836
731.0	7.507581	-1.070859	7.779042	-0.475822	-0.063698	0.227952	-0.170654	0.179199	0.131836
732.0	7.352426	-1.398219	7.881044	-0.361255	-0.097164	0.150105	-0.17041	0.177002	0.127197
733.0	7.288601	-1.055961	7.888561	-0.285332	-0.134066	0.065316	-0.179199	0.177002	0.127197
734.0	7.125848	0.131163	8.283616	-0.237079	-0.172115	0.031203	-0.172607	0.174805	0.129639
735.0	6.917488	1.503627	8.779949	-0.269823	-0.264615	0.119478	-0.16626	0.181396	0.131836
736.0	6.968594	1.761832	8.947731	-0.379517	-0.395255	0.248418	-0.168457	0.181396	0.134033
737.0	6.784651	-0.103155	9.130971	-0.539074	-0.564813	0.333423	-0.17041	0.177002	0.134033
738.0	6.366966	-1.624731	9.77213	-0.217675	-0.960112	0.204863	-0.168457	0.179199	0.136475
739.0	6.456503	-1.310722	9.924616	-0.131048	-1.377296	0.109981	-0.16626	0.181396	0.143066
740.0	6.375943	-2.097314	10.068662	-0.032974	-1.830704	0.015582	-0.157959	0.187988	0.145264
741.0	6.512559	-3.003407	10.132526	0.152314	-2.330472	-0.137643	-0.155518	0.185791	0.1521
742.0	5.863584	-2.549828	10.330934	0.363775	-2.86362	-0.319929	-0.147217	0.192383	0.154297
743.0	4.589259	-1.190674	10.62729	0.50722	-3.501411	-0.518464	-0.131836	0.192383	0.165771
744.0	3.965937	-1.109531	10.857623	0.563188	-4.217987	-0.631079	-0.119141	0.197021	0.174805
745.0	3.040565	-1.796347	11.794291	0.691836	-4.985223	-0.632522	-0.108154	0.199219	0.183838
746.0	2.712675	-1.086385	11.842428	0.826619	-5.933668	-0.701146	-0.086914	0.210205	0.192627
747.0	2.054446	1.110545	11.736453	0.785909	-6.78525	-0.456424	-0.063232	0.2146	0.210693
748.0	1.788767	-0.084779	12.011166	0.466996	-7.641247	-0.368314	-0.032959	0.221436	0.221924
749.0	1.209226	-5.579386	7.541747	1.076041	-8.894655	-1.081295	0.003418	0.236816	0.226074
750.0	8.814131	3.265232	4.446737	2.667558	-10.926432	-1.276936	0.051025	0.248047	0.230469
751.0	26.151304	9.654701	12.657691	2.019229	-11.749125	-0.363337	0.087158	0.267822	0.22998
752.0	28.983063	6.011389	7.7282	0.704306	-10.905118	0.473023	0.13501	0.270508	0.22998
753.0	28.595048	7.39637	7.955756	0.772256	-10.978512	1.208143	0.17627	0.275146	0.229736
754.0	25.535841	7.951994	9.887504	0.776337	-10.508958	1.949807	0.224365	0.270996	0.2229
755.0	32.390562	7.863974	16.304966	0.593259	-9.24313	2.251198	0.264404	0.256104	0.225586
756.0	35.215646	-0.16561	32.36982	0.867801	-5.059441	1.674885	0.292969	0.247314	0.232422
757.0	24.705696	1.883613	33.906652	2.623294	-1.184602	1.407608	0.326416	0.234375	0.255371
758.0	19.614779	10.76593	32.752795	2.441695	1.779459	1.613767	0.357422	0.22583	0.289795
759.0	4.398513	8.73058	24.190912	2.022097	3.242517	1.89364	0.375	0.221436	0.346924
760.0	-0.178016	7.459901	18.83416	1.704085	3.490614	2.090464	0.381836	0.212646	0.417725
761.0	2.577321	5.446524	15.881658	1.594747	3.7576	1.977236	0.368164	0.225342	0.490234
762.0	4.43074	3.804926	13.762171	1.74904	4.292142	1.614788	0.330322	0.244629	0.569824
763.0	5.61065	3.113914	12.099548	2.086301	4.957401	1.059735	0.252686	0.274414	0.64917
764.0	5.891794	3.936187	11.121933	2.294528	5.608368	0.533547	0.157227	0.310791	0.687256
765.0	5.918684	4.793932	10.179606	2.212767	6.16459	0.135983	0.040039	0.349365	0.704834
766.0	5.466185	4.937937	9.201079	1.914457	6.562496	-0.160717	-0.081299	0.37915	0.692871
767.0	4.918371	4.709085	8.274332	1.537461	6.75838	-0.430543	-0.193604	0.404785	0.65625
768.0	5.075777	4.153784	7.66315	1.176273	6.787099	-0.697079	-0.303467	0.419434	0.605957
769.0	6.210439	3.444538	7.650651	0.893966	6.780423	-0.94751	-0.4021	0.429932	0.52832
770.0	7.689284	2.499489	8.029698	0.752337	6.818198	-1.223179	-0.475586	0.416504	0.439697
771.0	9.247438	1.575103	8.364744	0.801574	6.901854	-1.522603	-0.533447	0.394531	0.34668
772.0	9.84039	1.552234	8.26654	0.933156	7.014018	-1.840424	-0.580078	0.361816	0.265381
773.0	9.665471	1.879395	8.344016	1.009846	7.03056	-2.092778	-0.607178	0.335693	0.183838
774.0	10.275909	1.848058	8.469445	1.103859	6.824757	-2.33661	-0.625244	0.298584	0.098145
775.0	11.206481	2.270642	9.047494	1.357234	6.431499	-2.518514	-0.628174	0.263916	0.01001
776.0	12.993797	3.74485	9.576802	1.538105	5.985592	-2.715122	-0.61084	0.218262	-0.050781
777.0	16.582427	6.931287	11.202468	1.478258	5.482324	-2.897798	-0.580078	0.16626	-0.106689
778.0	23.518671	8.856908	12.793047	1.040346	5.309834	-3.017254	-0.547363	0.118652	-0.146973
779.0	26.978953	9.616193	12.873064	0.389481	5.488444	-3.191725	-0.509033	0.088379	-0.169189
780.0	27.492565	7.808036	11.381087	-0.308284	5.655931	-3.373471	-0.483643	0.055908	-0.188965
781.0	27.45128	2.909731	9.327049	-0.598136	5.679223	-3.677434	-0.462891	0.031982	-0.213623
782.0	27.985729	-1.893262	7.422779	-0.271715	5.552875	-4.178763	-0.433594	0.010498	-0.233643
783.0	29.998593	-2.639672	5.432805	0.290688	5.321488	-4.588161	-0.413086	-0.009033	-0.262939
784.0	30.433171	-1.198594	2.380778	0.396017	5.10749	-4.578099	-0.394531	-0.032959	-0.276367
785.0	28.983853	-3.263005	-1.931755	0.107766	4.793783	-4.227959	-0.374512	-0.043701	-0.301025
786.0	26.982743	-7.156621	-5.838703	0.156964	4.313247	-3.912589	-0.363281	-0.050049	-0.3125
787.0	27.319892	-8.957657	-9.827216	0.379	3.648081	-3.47245	-0.355957	-0.065186	-0.328125
788.0	27.387701	-11.678904	-15.057093	0.582894	2.969548	-2.696884	-0.34668	-0.078125	-0.339355
789.0	25.497269	-15.159996	-19.626859	1.076622	2.105043	-1.827456	-0.344727	-0.075928	-0.34375
790.0	23.952703	-13.194471	-20.710247	1.481192	0.95629	-0.960434	-0.335938	-0.075928	-0.336914
791.0	23.35521	-8.460597	-18.559972	0.99565	-0.207861	0.133697	-0.346924	-0.073975	-0.334717
792.0	24.426934	-6.014795	-14.426745	-0.004497	-1.14032	1.20475	-0.351807	-0.062988	-0.330322
793.0	25.821218	-4.43003	-10.029644	-0.906191	-1.709142	1.969227	-0.359131	-0.043457	-0.317139
794.0	26.326368	-3.619662	-5.934352	-1.425352	-1.998574	2.419938	-0.37085	-0.023926	-0.301514
795.0	0.416751	-6.109052	13.342045	-0.69705	-1.852296	3.181692	-0.376465	0.0	-0.283691
796.0	-9.131394	15.213272	52.128588	-0.518038	-3.018329	3.410431	-0.390869	0.032715	-0.279785
797.0	-12.488946	21.477684	-12.043186	-4.489872	-2.973674	4.908417	-0.414063	0.060791	-0.25293
798.0	27.115489	-8.791787	5.60233	-2.351614	-5.723928	2.654013	-0.421387	0.080322	-0.223877
799.0	24.522651	-1.849323	10.875015	-1.624563	-3.611318	-0.390798	-0.425781	0.08252	-0.203369
800.0	16.283688	-0.083244	9.661376	-1.150532	-3.7453	-1.009464	-0.432617	0.08667	-0.1875
801.0	16.018156	-4.897833	10.633022	-0.984327	-3.193262	-0.556984	-0.434814	0.08667	-0.164551
802.0	9.695119	-5.80574	8.838313	-0.716613	-2.907194	0.299628	-0.441406	0.09082	-0.146484
803.0	9.102429	-2.982091	7.301164	-0.254283	-2.80395	0.733134	-0.441895	0.097412	-0.116943
804.0	10.23879	4.74621	8.578318	-0.117963	-2.766046	0.517277	-0.4375	0.101807	-0.105713
805.0	11.740453	0.700965	9.468147	-0.392191	-2.495495	0.534682	-0.446533	0.108154	-0.087646
806.0	11.200827	-1.985748	8.516111	-0.258192	-2.223577	0.501942	-0.440186	0.112549	-0.073975
807.0	23.699526	5.636338	13.887477	-0.411674	-1.662526	0.674165	-0.442627	0.119141	-0.058105
808.0	7.708416	0.827396	7.221388	-0.701022	-0.842599	0.760848	-0.438721	0.127686	-0.051514
809.0	8.46866	-3.188176	8.661396	-0.560538	-0.70872	0.678359	-0.438965	0.129883	-0.049316
810.0	9.162104	0.246981	8.517024	-0.40707	-0.547836	0.55073	-0.438965	0.134277	-0.044678
811.0	8.193285	-0.293332	8.331322	-0.376688	-0.375449	0.417643	-0.438965	0.134277	-0.04248
812.0	7.718512	-0.749207	8.096078	-0.283971	-0.278457	0.299023	-0.430664	0.140869	-0.038086
813.0	7.44897	-0.337554	8.080172	-0.219907	-0.225723	0.201455	-0.434814	0.138672	-0.040283
814.0	7.299143	-0.437264	8.087306	-0.17298	-0.197185	0.12144	-0.435059	0.140869	-0.040283
815.0	7.118508	-0.531893	7.975442	-0.123582	-0.191102	0.049052	-0.439453	0.143066	-0.03125
816.0	6.990963	-0.194633	7.860011	-0.077801	-0.189787	-0.009514	-0.432617	0.136475	-0.03125
817.0	6.991017	0.046127	7.826259	-0.053426	-0.194314	-0.043379	-0.437012	0.138672	-0.035645
818.0	6.88998	0.029906	7.753571	-0.031655	-0.194131	-0.074167	-0.432373	0.13208	-0.035645
819.0	6.796299	0.159348	7.80735	-0.019838	-0.201005	-0.095483	-0.430176	0.129883	-0.026367
820.0	6.676649	0.376214	7.746022	-0.036617	-0.207579	-0.110239	-0.432373	0.129883	-0.021973
821.0	6.613836	0.396546	7.731667	-0.058666	-0.22707	-0.107199	-0.432129	0.127686	-0.014893
822.0	6.666909	0.672683	7.697018	-0.070494	-0.24835	-0.096203	-0.429932	0.123291	-0.021729
823.0	6.809506	1.18739	7.708768	-0.103629	-0.264937	-0.058496	-0.416748	0.123535	-0.028564
824.0	6.883007	2.260479	7.815168	-0.196704	-0.233455	0.005191	-0.397949	0.138916	-0.044922
825.0	7.019184	2.307868	7.584986	-0.375095	-0.175806	0.13589	-0.404053	0.18042	-0.059326
826.0	6.911133	2.061011	7.647043	-0.459267	-0.144389	0.255087	-0.430908	0.197754	-0.043701
827.0	7.143264	2.061477	7.7388	-0.558278	-0.064938	0.368617	-0.452393	0.190918	-0.016113
828.0	7.382106	1.073658	7.699518	-0.643937	0.004884	0.415349	-0.449219	0.169189	-0.009033
829.0	7.387061	-0.854192	7.698433	-0.636382	0.021048	0.371203	-0.444824	0.164795	-0.004395
830.0	7.750985	-0.723999	7.62002	-0.550176	0.024205	0.302117	-0.446777	0.158203	-0.001953
831.0	7.477926	-1.280655	7.7013	-0.474739	-0.019009	0.238692	-0.437988	0.158203	-0.00415
832.0	7.384884	-0.862459	7.812586	-0.38487	-0.058706	0.189307	-0.431396	0.1604	-0.006592
833.0	7.297967	-1.006776	7.856993	-0.315786	-0.088864	0.14642	-0.435791	0.158203	-0.013428
834.0	6.989154	0.518163	8.630881	-0.338611	-0.154337	0.156884	-0.435791	0.158203	-0.001953
835.0	7.024686	0.465271	8.479947	-0.455052	-0.241554	0.225244	-0.436035	0.166992	0.000244
836.0	7.088657	0.704652	8.588575	-0.505115	-0.352241	0.295927	-0.44043	0.164795	-0.001953
837.0	7.048192	0.675359	9.014542	-0.637806	-0.484562	0.355231	-0.440674	0.169189	-0.002197
838.0	6.398527	-1.834986	9.245727	-0.333904	-0.806366	0.277963	-0.433838	0.164795	0.009277
839.0	6.632744	-1.150732	9.42084	-0.25092	-1.146951	0.245644	-0.438477	0.171387	0.011475
840.0	6.555211	-1.994269	9.49405	-0.1748	-1.500321	0.177619	-0.438477	0.171143	0.022949
841.0	6.512701	-2.964751	9.484318	-0.041787	-1.900077	0.040832	-0.434326	0.175537	0.029541
842.0	6.546342	-2.8766	9.664036	0.126528	-2.318974	-0.130229	-0.431885	0.171143	0.045654
843.0	5.759452	-2.56816	9.923599	0.281817	-2.782908	-0.316409	-0.431885	0.168945	0.063965
844.0	4.816443	-1.702846	10.372013	0.370512	-3.367241	-0.514298	-0.42749	0.168945	0.084473
845.0	4.39695	-1.698612	10.468044	0.412694	-4.038268	-0.624066	-0.425049	0.162354	0.10498
846.0	4.049534	-1.553875	10.422776	0.521244	-4.70662	-0.601241	-0.422607	0.157959	0.132568
847.0	2.932307	-1.274502	11.231119	0.645084	-5.473891	-0.582871	-0.411621	0.157959	0.162109
848.0	2.107854	-1.491438	12.123161	0.841251	-6.52354	-0.636572	-0.39209	0.157959	0.198486
849.0	1.443825	2.429477	11.14711	0.734666	-7.529863	-0.429852	-0.374512	0.155762	0.241943
850.0	2.411283	1.521847	11.164307	0.371601	-8.348343	-0.303172	-0.350586	0.155762	0.291992
851.0	5.04878	-1.806999	9.474035	0.592384	-9.575072	-0.664712	-0.313477	0.158203	0.335205
852.0	16.695695	3.688542	8.668374	0.958572	-10.789429	-0.557419	-0.272461	0.164795	0.382813
853.0	28.451887	3.863843	4.456162	0.4911	-11.144806	-0.002968	-0.22876	0.165039	0.433105
854.0	35.118849	4.763377	5.88841	0.268681	-10.886754	0.528983	-0.176758	0.169678	0.476074
855.0	29.684551	8.279481	8.969123	0.357397	-10.408512	1.327521	-0.124756	0.178467	0.503174
856.0	33.608644	9.161717	13.45288	-0.200821	-9.345683	2.134427	-0.085449	0.180908	0.532715
857.0	38.08793	2.978641	30.272938	-0.381737	-5.736744	2.000361	-0.064209	0.189697	0.543945
858.0	25.593668	-4.60001	34.350849	1.482011	-1.162888	1.664691	-0.071777	0.211426	0.548096
859.0	17.519154	6.609183	32.00884	2.461857	1.114599	1.926289	-0.087891	0.233154	0.552246
860.0	5.412958	7.40677	24.020812	2.619652	2.62801	2.165297	-0.099854	0.259277	0.544922
861.0	0.722406	8.613305	19.346891	2.47704	2.851505	2.475653	-0.116455	0.2854	0.537598
862.0	2.795722	7.902747	16.715619	2.129584	3.144297	2.539591	-0.13501	0.313721	0.525635
863.0	4.57173	6.666994	14.788224	1.94931	3.692312	2.363164	-0.1604	0.339844	0.525146
864.0	4.869445	5.851777	13.405021	1.925808	4.363066	2.009927	-0.187744	0.368164	0.50415
865.0	4.338493	5.717616	12.125392	1.881869	4.999628	1.642474	-0.212891	0.391846	0.494629
866.0	3.96126	5.236449	10.964614	1.784286	5.466247	1.327093	-0.250977	0.417969	0.471436
867.0	4.143122	4.471816	9.905194	1.73004	5.814978	0.995974	-0.289307	0.446045	0.445801
868.0	4.335628	3.661524	9.018559	1.721589	6.07664	0.611683	-0.325195	0.465576	0.422607
869.0	4.850519	2.926557	8.329188	1.770807	6.229371	0.155816	-0.367676	0.491699	0.381104
870.0	5.072142	2.758004	7.814907	1.836681	6.312566	-0.31729	-0.412109	0.509033	0.330811
871.0	5.427844	2.596077	7.780214	1.85799	6.332882	-0.764724	-0.45459	0.52832	0.280273
872.0	6.651634	2.114809	8.049396	1.876191	6.301827	-1.19661	-0.489502	0.532715	0.211914
873.0	8.291061	1.570463	8.490948	1.934902	6.323696	-1.604624	-0.526367	0.526123	0.159668
874.0	9.715301	1.612993	9.039144	2.000594	6.379551	-1.971108	-0.552246	0.519531	0.098145
875.0	10.766115	1.766337	9.68185	2.019445	6.394262	-2.276137	-0.575439	0.502197	0.037109
876.0	11.495255	1.85408	10.265832	2.02112	6.302364	-2.50567	-0.596924	0.493408	-0.015137
877.0	12.223064	2.007314	10.648098	2.087985	6.065954	-2.70292	-0.617676	0.469482	-0.078369
878.0	12.984938	2.678702	11.203734	2.154849	5.63809	-2.905153	-0.631836	0.445313	-0.137207
879.0	17.725954	4.196605	12.727815	2.089642	5.161957	-3.145036	-0.63501	0.419434	-0.198242
880.0	23.731202	5.976518	13.782853	1.793661	5.027522	-3.375049	-0.642334	0.386719	-0.245361
881.0	25.493405	7.339859	13.244166	1.095231	5.08344	-3.5509	-0.634277	0.352051	-0.290283
882.0	26.012135	5.078902	11.628434	0.348451	5.005234	-3.737644	-0.634766	0.312744	-0.330566
883.0	27.657472	0.962802	9.95196	-0.00047	4.851477	-4.066162	-0.626465	0.278076	-0.366455
884.0	31.195206	-2.416631	8.701263	0.073979	4.772323	-4.511917	-0.61377	0.236816	-0.406738
885.0	35.27434	-3.491274	6.710956	0.280353	4.918443	-4.836559	-0.603271	0.193115	-0.437744
886.0	35.452869	-3.364363	2.948333	0.218594	5.24766	-4.867534	-0.583984	0.154053	-0.480225
887.0	32.687909	-6.529089	-2.692737	0.049729	5.387558	-4.692999	-0.560303	0.11499	-0.516113
888.0	28.792226	-9.55277	-8.081461	0.323647	5.169794	-4.580013	-0.537109	0.080322	-0.547363
889.0	26.99802	-10.447289	-13.043385	0.802924	4.447352	-4.243941	-0.515625	0.039063	-0.576172
890.0	26.279759	-13.1034	-18.04703	1.373992	3.452145	-3.55653	-0.494385	0.006592	-0.589111
891.0	24.679235	-14.238052	-21.112656	1.970194	2.285042	-2.688961	-0.484619	-0.021729	-0.597656
892.0	24.569766	-9.859222	-20.222111	1.761089	1.028285	-1.627256	-0.470459	-0.04126	-0.601807
893.0	25.0539	-5.9435	-17.222021	0.445147	-0.033328	-0.315302	-0.479248	-0.039063	-0.595215
894.0	25.472856	-5.478791	-13.400036	-1.04918	-0.791447	0.770536	-0.486328	-0.030518	-0.593018
895.0	25.950882	-5.826871	-9.228683	-2.004612	-1.2734	1.378724	-0.500244	-0.010986	-0.588867
896.0	26.186761	-6.284304	-4.666896	-2.318439	-1.480471	1.535784	-0.505615	0.010986	-0.59375
897.0	-6.028908	-6.647384	42.692058	-0.581362	-2.703958	2.33502	-0.51709	0.026123	-0.573486
898.0	-32.666384	16.930753	17.201053	-2.905654	-1.435985	2.412153	-0.544922	0.058594	-0.560547
899.0	-0.926916	2.317758	-14.357274	-2.70075	-6.855822	3.660996	-0.585693	0.093018	-0.517822
900.0	45.409945	-8.463566	19.335061	-1.889142	-4.570725	0.514633	-0.603027	0.093018	-0.488037
901.0	12.658248	-1.972324	5.788914	-1.074773	-4.125719	-0.905706	-0.624756	0.090576	-0.456299
902.0	22.062454	-8.096589	13.660565	-0.85099	-3.693358	-0.354288	-0.642334	0.094727	-0.431152
903.0	10.246722	-7.683069	8.877308	-0.269566	-3.150842	0.451155	-0.648682	0.090332	-0.408203
904.0	8.741123	5.218771	8.312937	0.002262	-3.025124	0.456309	-0.662354	0.101074	-0.387939
905.0	10.168098	5.286786	8.411866	-0.30784	-2.938665	0.460862	-0.67334	0.105225	-0.363037
906.0	12.371572	-1.126659	8.677116	-0.320786	-2.679321	0.576944	-0.67334	0.107422	-0.335693
907.0	12.987256	-1.348481	10.088222	-0.09043	-2.311712	0.463324	-0.687012	0.118164	-0.319824
908.0	12.613415	1.830032	9.510856	-0.043692	-1.877804	0.350165	-0.687012	0.120361	-0.306152
909.0	10.729675	1.457062	9.053885	-0.133087	-1.509101	0.323678	-0.693848	0.124512	-0.288086
910.0	16.969047	4.346575	12.097679	-0.315982	-1.159676	0.46301	-0.696045	0.126709	-0.279053
911.0	7.169487	0.360763	7.304272	-0.518181	-0.596693	0.512156	-0.694092	0.128906	-0.28125
912.0	7.823069	-0.922528	8.37189	-0.379487	-0.534999	0.463662	-0.696777	0.139893	-0.274658
913.0	8.505017	1.316356	8.494736	-0.328842	-0.431135	0.422936	-0.696777	0.14209	-0.270264
914.0	7.893232	-0.034911	8.34705	-0.33606	-0.290315	0.36858	-0.696777	0.144043	-0.270264
915.0	7.565974	-0.59859	8.268469	-0.264058	-0.212661	0.273181	-0.699463	0.150635	-0.265869
916.0	7.327235	-0.620928	8.095541	-0.173489	-0.156318	0.165967	-0.698975	0.141846	-0.265625
917.0	6.931498	-0.389036	8.027286	-0.101895	-0.142134	0.084381	-0.698975	0.144043	-0.26123
918.0	6.742525	0.044628	7.982081	-0.054372	-0.142022	0.032879	-0.696777	0.141846	-0.258789
919.0	6.58564	0.491604	7.925501	-0.035781	-0.154371	0.00624	-0.701416	0.14624	-0.258789
920.0	6.564037	0.662817	7.939815	-0.043185	-0.161944	-0.004128	-0.694824	0.14624	-0.252197
921.0	6.453105	0.903654	7.862329	-0.061584	-0.192472	-0.005047	-0.698975	0.141846	-0.245117
922.0	6.33813	1.046003	7.754883	-0.095251	-0.222825	0.006281	-0.69458	0.141846	-0.245117
923.0	6.494724	1.062115	7.767387	-0.12914	-0.269193	0.039437	-0.696533	0.137451	-0.240479
924.0	6.244479	1.24564	7.667171	-0.161826	-0.311145	0.074132	-0.685791	0.139893	-0.247314
925.0	6.421992	1.299441	7.738863	-0.210226	-0.352598	0.107586	-0.675293	0.146484	-0.263428
926.0	6.277043	1.836013	7.736657	-0.308532	-0.345254	0.189747	-0.670166	0.179199	-0.275635
927.0	6.677066	2.152917	7.727082	-0.471514	-0.323598	0.307742	-0.693359	0.211914	-0.269287
928.0	7.043058	2.444263	7.815357	-0.647438	-0.330585	0.441661	-0.719482	0.21167	-0.244141
929.0	6.946818	2.196582	7.679008	-0.771629	-0.23573	0.53504	-0.7146	0.198486	-0.228027
930.0	7.303176	1.579736	7.712339	-0.823073	-0.145854	0.579385	-0.716553	0.191895	-0.223389
931.0	7.871454	-1.151109	7.741265	-0.803768	-0.059275	0.496669	-0.712402	0.198486	-0.221191
932.0	7.562554	-1.812663	7.859528	-0.609073	0.021391	0.312696	-0.705566	0.191895	-0.21875
933.0	7.9388	-0.562107	7.790295	-0.504744	0.034458	0.239725	-0.703613	0.196289	-0.221191
934.0	7.752463	-0.671193	7.680825	-0.419363	0.01822	0.226659	-0.706055	0.200684	-0.221191
935.0	7.467989	-1.105588	7.787379	-0.337781	-0.001725	0.183665	-0.703613	0.198486	-0.216553
936.0	7.208105	-1.1301	7.901805	-0.271059	-0.032285	0.112166	-0.701416	0.196289	-0.21875
937.0	7.030136	-0.667298	8.257957	-0.234426	-0.080679	0.049611	-0.703857	0.202881	-0.218994
938.0	6.869063	1.322488	8.839383	-0.314427	-0.166633	0.099731	-0.705811	0.198486	-0.214355
939.0	6.930989	1.057663	8.844138	-0.432238	-0.282404	0.216428	-0.699463	0.202881	-0.212158
940.0	6.958872	0.403217	8.694388	-0.527403	-0.420475	0.295902	-0.708496	0.209473	-0.205322
941.0	6.75551	-1.593016	8.940447	-0.676216	-0.577493	0.289728	-0.706299	0.209473	-0.203125
942.0	6.116766	-2.849676	9.666303	-0.151758	-0.98234	0.064741	-0.706543	0.213623	-0.189697
943.0	6.247633	-2.36819	9.948642	-0.053902	-1.395927	-0.071483	-0.715332	0.213623	-0.178223
944.0	6.252385	-2.395848	10.077055	0.056261	-1.844051	-0.204487	-0.710449	0.202637	-0.164307
945.0	6.360651	-2.478975	10.19735	0.211579	-2.338246	-0.336925	-0.716797	0.200439	-0.145996
946.0	6.035428	-2.004031	10.320452	0.397916	-2.852548	-0.466053	-0.720703	0.19165	-0.125244
947.0	4.842819	-1.164324	10.480765	0.529575	-3.441398	-0.62998	-0.724854	0.187256	-0.086426
948.0	4.133492	-1.160234	10.340171	0.557199	-4.110947	-0.754399	-0.724854	0.187012	-0.056885
949.0	3.660907	-2.010929	10.776958	0.690765	-4.753758	-0.767633	-0.724365	0.176025	-0.015625
950.0	2.901023	-1.086113	11.300309	0.846662	-5.587988	-0.854022	-0.717529	0.167236	0.043701
951.0	2.672658	0.885219	10.593945	0.881992	-6.44639	-0.687794	-0.717285	0.160645	0.093994
952.0	2.409017	1.788638	11.075402	0.770282	-7.246816	-0.373514	-0.708496	0.1604	0.162354
953.0	2.38861	0.936108	11.273706	0.393598	-8.083103	-0.473031	-0.686523	0.158203	0.235352
954.0	5.476395	1.276111	9.262676	0.642822	-9.265676	-0.766941	-0.656006	0.156006	0.317383
955.0	14.903489	3.013539	7.8124	0.761268	-10.30058	-0.521732	-0.618652	0.153809	0.390381
956.0	25.990911	3.414538	5.056308	0.480211	-10.681855	-0.036097	-0.570801	0.154053	0.469971
957.0	33.347381	3.839943	5.246506	0.526458	-10.460653	0.163957	-0.516113	0.151855	0.540771
958.0	28.423202	3.769775	7.216647	1.1003	-9.907571	0.430019	-0.451172	0.165283	0.604248
959.0	31.157705	7.063489	11.480311	1.916169	-9.056974	0.495996	-0.392822	0.176514	0.64502
960.0	36.022667	6.595883	23.802534	2.192483	-6.175585	0.398739	-0.363037	0.194092	0.662842
961.0	24.230513	4.500669	31.353097	2.74017	-1.996394	0.47707	-0.34668	0.216064	0.671387
962.0	16.892251	13.124112	30.276128	2.168856	0.006086	1.383651	-0.349365	0.229004	0.662109
963.0	8.485282	9.742094	24.991187	1.062079	1.934654	2.17557	-0.363281	0.244385	0.650391
964.0	0.276929	6.748633	19.699848	0.751035	2.351541	2.74579	-0.370117	0.255127	0.645508
965.0	1.87664	4.017884	16.797678	0.908679	2.588249	2.807564	-0.381836	0.272705	0.631592
966.0	3.703097	2.996315	14.84662	1.441022	3.059291	2.495672	-0.404297	0.283447	0.613281
967.0	4.485869	3.508829	13.513353	1.954379	3.673271	2.04056	-0.427002	0.302979	0.594727
968.0	4.486789	4.556371	12.229559	2.198236	4.326636	1.614411	-0.449463	0.32251	0.560059
969.0	4.220675	5.221641	11.249489	2.132441	4.897471	1.327965	-0.485107	0.337646	0.527832
970.0	4.176977	5.052748	10.295237	1.943703	5.362581	1.09838	-0.502686	0.337646	0.489258
971.0	3.922054	4.216809	9.319221	1.765451	5.680473	0.856309	-0.539795	0.342041	0.443604
972.0	3.942458	3.268073	8.535621	1.691963	5.852897	0.549134	-0.572998	0.352783	0.397705
973.0	4.573055	2.333303	7.981188	1.741699	5.938513	0.172758	-0.594971	0.35498	0.349854
974.0	5.240273	1.960148	7.802674	1.868171	6.005342	-0.253528	-0.62085	0.348389	0.293213
975.0	6.411181	1.863541	7.9618	1.974504	6.076221	-0.659594	-0.64209	0.333008	0.236572
976.0	7.392631	1.799882	8.291321	2.02779	6.158798	-1.019941	-0.654297	0.315674	0.168457
977.0	8.368703	1.806369	8.627175	2.03102	6.241499	-1.323322	-0.666504	0.293945	0.125488
978.0	9.129147	1.850459	9.007904	1.974241	6.295749	-1.574344	-0.669678	0.267822	0.07373
979.0	9.82964	1.446083	9.631741	1.953743	6.248277	-1.808923	-0.679688	0.246094	0.030762
980.0	10.846762	1.359118	10.401047	2.029468	6.09381	-2.060871	-0.678711	0.22876	-0.019043
981.0	11.943398	2.142849	11.09202	2.075407	5.904607	-2.249047	-0.684814	0.213623	-0.06665
982.0	13.215582	3.168437	12.185937	2.031164	5.561477	-2.409265	-0.687988	0.191895	-0.111572
983.0	17.470746	3.947145	13.348001	1.904379	5.237795	-2.629722	-0.684814	0.167969	-0.163574
984.0	22.12673	6.275993	14.015571	1.558141	5.113862	-2.903146	-0.681641	0.144043	-0.204102
985.0	25.136101	7.435665	13.738442	0.726767	5.168369	-3.09529	-0.671875	0.120361	-0.253906
986.0	26.545543	4.461154	12.486172	-0.052144	5.184022	-3.376892	-0.662109	0.096436	-0.294434
987.0	28.710233	0.016282	10.934703	-0.343584	5.059897	-3.892196	-0.640869	0.061768	-0.341553
988.0	32.721128	-2.919424	8.781043	-0.1284	4.9739	-4.490262	-0.615234	0.024902	-0.386475
989.0	36.517789	-2.918634	5.72176	0.246499	5.058029	-4.84659	-0.59375	-0.016357	-0.419922
990.0	36.388137	-3.734598	0.932312	0.209787	5.298086	-4.886712	-0.566162	-0.046631	-0.464844
991.0	32.416967	-9.907155	-5.874506	0.361348	5.399992	-4.837129	-0.529297	-0.092041	-0.500488
992.0	27.218023	-15.800487	-11.647523	1.646293	4.982622	-5.074464	-0.492432	-0.135498	-0.5271
993.0	26.479434	-13.710968	-15.869166	3.025414	4.000448	-5.0374	-0.466309	-0.18335	-0.539795
994.0	25.786511	-10.601511	-19.427464	3.143231	2.906774	-3.977938	-0.440918	-0.213623	-0.552979
995.0	24.403029	-9.759649	-21.096361	2.175724	1.709988	-2.327052	-0.433838	-0.22876	-0.550293
996.0	24.663474	-8.33673	-19.500423	0.630919	0.535335	-0.547028	-0.431396	-0.230957	-0.550293
997.0	24.665337	-8.58043	-16.532847	-0.818471	-0.451509	0.967737	-0.436523	-0.218018	-0.555176
998.0	25.469126	-8.794617	-12.319152	-1.566438	-1.175642	1.815393	-0.448242	-0.200684	-0.551025
999.0	26.327038	-7.684535	-7.506659	-1.699905	-1.538763	2.148223	-0.464355	-0.178955	-0.542236
1000.0	11.864172	-3.956279	4.272568	-1.293426	-1.300256	2.305627	-0.478516	-0.157227	-0.53125
1001.0	-13.694703	14.318546	54.038271	-1.384212	-2.19932	3.835722	-0.495361	-0.11792	-0.541016
1002.0	-20.735124	22.23526	6.448055	-6.035509	-2.129203	4.390336	-0.534668	-0.070313	-0.532959
1003.0	9.580043	-13.842547	-6.414734	-3.540704	-5.767815	3.762262	-0.5625	-0.03125	-0.499512
1004.0	31.611327	-8.757111	14.942647	-2.157639	-3.885794	0.718622	-0.578125	-0.024902	-0.476807
1005.0	11.867097	-4.517119	6.601827	-1.261888	-3.75294	-0.65021	-0.593262	-0.029297	-0.447021
1006.0	17.0274	-6.843985	11.60278	-0.859467	-3.480816	-0.696129	-0.606445	-0.025146	-0.426514
1007.0	10.297548	-9.010565	9.008554	-0.575347	-3.129485	0.372452	-0.62207	-0.016602	-0.404053
1008.0	7.952037	0.437978	7.609349	-0.074747	-3.029669	0.618075	-0.624268	-0.016602	-0.378906
1009.0	11.896567	5.792395	8.411824	-0.190921	-3.00077	0.455655	-0.64209	-0.008057	-0.356201
1010.0	13.341479	0.787418	9.642609	-0.329831	-2.640676	0.499894	-0.642334	-0.001465	-0.333496
1011.0	11.706932	-0.811432	9.162726	-0.251763	-2.243695	0.417381	-0.648926	0.000488	-0.317627
1012.0	11.602434	0.374557	9.2988	-0.125038	-1.950444	0.275688	-0.655762	0.004883	-0.301758
1013.0	19.292789	5.176263	12.032775	-0.571834	-1.087256	0.55328	-0.6604	0.01123	-0.283691
1014.0	8.733631	-0.886257	8.6234	-0.578719	-0.796633	0.531062	-0.660889	0.024414	-0.281738
1015.0	8.195812	-1.117308	8.172593	-0.385065	-0.618136	0.47858	-0.662842	0.017822	-0.279297
1016.0	8.858492	0.350353	8.69036	-0.354924	-0.455319	0.411674	-0.661133	0.028809	-0.279541
1017.0	7.822748	-0.788179	8.27242	-0.264708	-0.323436	0.314051	-0.663574	0.031006	-0.274902
1018.0	7.336837	0.16629	8.241274	-0.198164	-0.254254	0.230553	-0.667969	0.032959	-0.274902
1019.0	7.058592	-0.165753	8.238282	-0.204637	-0.215634	0.168787	-0.663818	0.037354	-0.265869
1020.0	7.141173	-0.997512	8.031264	-0.155738	-0.207529	0.085795	-0.667969	0.035156	-0.270508
1021.0	7.15445	-0.923135	7.995121	-0.059078	-0.214942	-0.010966	-0.67041	0.037354	-0.263672
1022.0	6.841061	-0.610212	7.934526	0.022681	-0.216556	-0.100074	-0.667969	0.035156	-0.256836
1023.0	6.821394	-0.216309	7.890724	0.070132	-0.243573	-0.155416	-0.672119	0.030762	-0.26123
1024.0	6.595948	0.100447	7.856337	0.091126	-0.255613	-0.196118	-0.66748	0.02417	-0.25415
1025.0	6.70222	0.579955	7.879921	0.086108	-0.27777	-0.206504	-0.66748	0.021973	-0.256592
1026.0	6.6589	0.864339	7.815894	0.055687	-0.285135	-0.208055	-0.669434	0.017578	-0.251953
1027.0	6.673772	1.318312	7.740025	0.008002	-0.30414	-0.159398	-0.669189	0.01123	-0.240234
1028.0	6.663729	1.418588	7.680549	-0.060423	-0.317831	-0.101976	-0.658203	0.01123	-0.249512
1029.0	6.872996	1.89876	7.685705	-0.139608	-0.31598	-0.052567	-0.634277	0.011475	-0.251709
1030.0	6.811224	2.123189	7.611747	-0.264817	-0.303905	0.045104	-0.635498	0.037598	-0.279541
1031.0	6.76735	1.8534	7.788986	-0.390997	-0.279914	0.137788	-0.659424	0.085449	-0.27832
1032.0	7.026592	0.85332	7.738822	-0.467625	-0.261488	0.210052	-0.685791	0.0896	-0.262451
1033.0	7.136874	1.196373	7.705275	-0.478284	-0.229841	0.251599	-0.697998	0.072021	-0.236816
1034.0	7.19547	1.833257	7.733996	-0.517272	-0.175218	0.333796	-0.684326	0.059082	-0.22998
1035.0	7.143481	2.316573	7.715205	-0.567624	-0.10564	0.453529	-0.692871	0.056641	-0.2229
1036.0	7.693765	1.458719	7.533551	-0.614343	-0.039134	0.548459	-0.680176	0.061279	-0.227539
1037.0	7.908428	-0.948028	7.415806	-0.567447	-0.014423	0.490312	-0.682373	0.061279	-0.234375
1038.0	7.45637	-1.516439	7.809884	-0.45704	-0.019408	0.354459	-0.682129	0.059082	-0.22998
1039.0	7.32957	-0.706638	7.995449	-0.377497	-0.073112	0.281915	-0.682129	0.059082	-0.225342
1040.0	7.195779	0.298468	8.445773	-0.25856	-0.164216	0.270747	-0.682373	0.065674	-0.22998
1041.0	7.183208	0.40749	8.467037	-0.351308	-0.2483	0.344823	-0.682861	0.074219	-0.225586
1042.0	7.145639	-0.194783	8.438663	-0.376906	-0.341422	0.365127	-0.682861	0.074219	-0.216553
1043.0	6.640932	-1.638836	9.101995	-0.363292	-0.529118	0.309896	-0.685059	0.076416	-0.21875
1044.0	6.781505	-1.500917	9.094212	-0.203137	-0.825653	0.184197	-0.681152	0.083008	-0.214355
1045.0	6.676971	-1.759425	9.197161	-0.107724	-1.12906	0.075802	-0.685303	0.083008	-0.205322
1046.0	6.626383	-2.225829	9.287136	0.014566	-1.466786	-0.045384	-0.6875	0.083008	-0.187012
1047.0	6.685675	-2.081847	9.468284	0.162606	-1.858424	-0.176869	-0.689209	0.072021	-0.175293
1048.0	6.714055	-1.794785	9.585703	0.28659	-2.267664	-0.281407	-0.696045	0.078369	-0.152832
1049.0	5.952077	-1.612827	9.731597	0.392049	-2.704563	-0.399801	-0.699951	0.067383	-0.129639
1050.0	5.328589	-1.54526	9.852261	0.493413	-3.225954	-0.578496	-0.699951	0.065186	-0.102295
1051.0	4.799009	-1.348395	10.069304	0.569389	-3.785561	-0.735009	-0.699463	0.058594	-0.077148
1052.0	4.460309	-1.050733	10.248566	0.651287	-4.384624	-0.80462	-0.701416	0.051758	-0.035889
1053.0	3.840255	-1.85906	11.221737	0.754102	-5.041929	-0.864813	-0.698975	0.042969	0.011963
1054.0	3.063693	-1.399696	11.856973	0.786117	-5.839315	-0.927946	-0.694336	0.038574	0.062256
1055.0	2.692228	1.50945	11.860976	0.501537	-6.592643	-0.883268	-0.678711	0.03418	0.116943
1056.0	1.787829	-2.582685	11.044938	0.342793	-7.548191	-1.28344	-0.671631	0.020996	0.185547
1057.0	4.950577	-2.742047	5.760407	1.391726	-9.041411	-1.97794	-0.64502	0.01001	0.260986
1058.0	15.982077	5.046356	8.978867	1.834024	-10.54111	-1.676117	-0.607666	0.003418	0.345459
1059.0	28.460316	3.433102	9.546069	1.16608	-10.537909	-1.229978	-0.565674	-0.005127	0.425293
1060.0	32.621478	5.80244	7.066208	1.359053	-10.513838	-0.768107	-0.515869	-0.000732	0.489014
1061.0	29.572336	5.654105	8.822673	1.809499	-9.811341	-0.295393	-0.46167	0.010498	0.559326
1062.0	31.22742	9.908517	15.221993	2.211865	-8.821595	0.253863	-0.410156	0.025879	0.602295
1063.0	31.970821	11.538973	28.017545	1.482896	-5.637661	0.755362	-0.384521	0.04126	0.622559
1064.0	16.67974	5.151147	32.261498	1.088537	-1.929126	1.354425	-0.378906	0.058838	0.631348
1065.0	17.374463	5.656686	32.083306	1.089513	0.004105	2.106753	-0.384033	0.078369	0.628662
1066.0	5.050931	3.975509	25.07922	1.519615	1.674374	2.473847	-0.398682	0.108887	0.614258
1067.0	0.601406	4.868157	20.759777	1.94272	2.082034	2.819733	-0.416992	0.130615	0.609375
1068.0	2.128793	5.227577	17.830072	2.205335	2.484432	2.858646	-0.433838	0.167725	0.590332
1069.0	3.44568	6.488064	16.037681	2.263336	3.057165	2.64032	-0.444092	0.198242	0.571533
1070.0	3.925192	7.329478	14.71664	1.983222	3.768472	2.322184	-0.467041	0.226563	0.539307
1071.0	3.777385	6.934496	13.34097	1.548222	4.467095	1.999774	-0.494385	0.252686	0.509033
1072.0	3.665584	5.572654	12.081734	1.210495	5.018115	1.678744	-0.523438	0.267822	0.479248
1073.0	4.053967	3.844594	10.903701	1.098726	5.460058	1.330683	-0.554688	0.285156	0.435547
1074.0	4.364123	2.446872	9.878475	1.206864	5.799619	0.915577	-0.581543	0.298096	0.385254
1075.0	4.669622	1.517896	9.114971	1.443414	6.038387	0.453181	-0.608398	0.311279	0.341797
1076.0	5.269938	1.135358	8.516418	1.715251	6.175982	-0.024726	-0.635254	0.328613	0.289063
1077.0	5.923012	1.293935	8.298184	1.928963	6.278651	-0.466962	-0.663574	0.328613	0.2229
1078.0	7.011307	1.35821	8.420109	2.04168	6.346355	-0.870123	-0.674316	0.324463	0.161377
1079.0	8.541758	1.625376	8.808163	2.078729	6.387401	-1.212063	-0.682129	0.302734	0.100342
1080.0	9.963675	2.000817	9.136971	1.986081	6.492973	-1.502344	-0.685791	0.287354	0.04834
1081.0	10.900187	1.900696	9.725527	1.842465	6.59173	-1.731294	-0.693848	0.274414	-0.001709
1082.0	12.187916	1.480834	10.457704	1.822041	6.56071	-1.93598	-0.695801	0.265869	-0.056152
1083.0	13.333574	2.345788	11.215277	1.857964	6.466282	-2.07677	-0.701904	0.259277	-0.108398
1084.0	14.586646	3.269675	12.002571	1.815726	6.181108	-2.147464	-0.701416	0.244141	-0.165039
1085.0	18.505271	4.347773	12.903059	1.728307	5.803192	-2.362135	-0.694092	0.229248	-0.226318
1086.0	23.039329	5.528931	13.193314	1.45711	5.626632	-2.709434	-0.699707	0.209717	-0.273926
1087.0	25.879846	6.619151	12.879818	0.842598	5.597329	-3.106983	-0.688232	0.19458	-0.332764
1088.0	28.61359	5.184412	11.677739	0.098865	5.611329	-3.558319	-0.680664	0.170654	-0.389404
1089.0	31.124422	3.022216	9.61918	-0.450164	5.609272	-4.101004	-0.668701	0.144775	-0.454834
1090.0	33.533446	1.317596	6.507693	-0.838952	5.594242	-4.559831	-0.641357	0.123291	-0.518311
1091.0	34.420966	0.163438	2.126112	-1.033162	5.507278	-4.794732	-0.607666	0.097412	-0.577148
1092.0	32.885117	-0.496647	-3.026942	-1.186775	5.293142	-4.786638	-0.563232	0.078369	-0.626953
1093.0	30.303487	-3.751878	-8.369346	-1.188469	4.868451	-4.608918	-0.516602	0.061279	-0.665283
1094.0	27.2073	-9.171253	-13.005263	-0.634898	4.237783	-4.529275	-0.474365	0.041992	-0.699219
1095.0	26.986882	-12.831301	-16.97572	0.670883	3.298742	-4.401944	-0.442627	0.015869	-0.708008
1096.0	27.082902	-13.586607	-20.528285	2.029934	2.316199	-3.954052	-0.410889	-0.012207	-0.720947
1097.0	25.125999	-12.005155	-21.967061	2.647562	1.285196	-3.19676	-0.394775	-0.031738	-0.7229
1098.0	23.492697	-7.007365	-20.779197	2.077609	0.152302	-1.96178	-0.383057	-0.046875	-0.718018
1099.0	22.761197	-3.313282	-17.731763	0.586095	-0.937025	-0.245544	-0.383301	-0.04248	-0.720459
1100.0	23.664543	-2.708326	-13.17824	-0.972269	-1.739116	1.376762	-0.395264	-0.016357	-0.71875
1101.0	25.214948	-3.566323	-8.133431	-1.957228	-2.18782	2.496672	-0.412109	0.016113	-0.701172
1102.0	18.172716	-6.585861	0.155485	-1.979872	-2.06783	3.116855	-0.413818	0.053223	-0.699463
1103.0	0.309021	-0.258043	39.177157	-0.073457	-3.020363	4.314224	-0.429932	0.072754	-0.695313
1104.0	-19.11806	20.531211	25.043122	-3.109394	-2.575423	4.440111	-0.449951	0.131592	-0.682861
1105.0	1.30324	-2.696375	-10.76033	-2.612429	-4.616375	4.772369	-0.469238	0.175049	-0.660889
1106.0	28.891079	-0.620253	13.470606	-1.089369	-4.629427	1.446754	-0.493896	0.189941	-0.635986
1107.0	16.139976	-0.769386	7.948242	-1.282417	-3.846479	0.180493	-0.505615	0.205078	-0.611328
1108.0	16.733298	-5.735309	11.306458	-1.117356	-3.563401	0.388216	-0.519043	0.216064	-0.593262
1109.0	11.467059	-7.733557	6.251045	-0.352089	-3.272225	0.592862	-0.532227	0.218018	-0.574951
1110.0	13.213828	2.782744	9.574821	0.063847	-3.154681	0.401632	-0.545654	0.222168	-0.559082
1111.0	11.769588	3.903712	8.264073	-0.12591	-2.821363	0.368451	-0.548096	0.230957	-0.536621
1112.0	27.872382	9.948938	16.919284	-0.565791	-2.327445	0.769369	-0.555176	0.243896	-0.527588
1113.0	8.889151	-2.655984	5.539988	-1.0656	-1.031835	1.0389	-0.553955	0.261475	-0.52124
1114.0	10.813989	-4.485731	9.219471	-0.656438	-0.877983	0.809755	-0.55835	0.265625	-0.509766
1115.0	9.363351	-0.258912	8.287194	-0.391524	-0.673818	0.616019	-0.558594	0.272217	-0.500977
1116.0	8.431651	-0.193603	8.437147	-0.369235	-0.444622	0.463642	-0.557129	0.283203	-0.498779
1117.0	8.083066	-0.743112	8.135546	-0.306501	-0.313591	0.326849	-0.554932	0.2854	-0.498779
1118.0	7.422774	0.041226	7.955727	-0.224711	-0.248908	0.221844	-0.557129	0.283203	-0.498779
1119.0	7.491266	0.279734	7.901325	-0.204364	-0.204103	0.168321	-0.561279	0.281006	-0.489746
1120.0	7.303801	-0.048233	7.906098	-0.179144	-0.173337	0.135314	-0.561523	0.287354	-0.487549
1121.0	7.190174	0.085581	7.89624	-0.174508	-0.153445	0.106795	-0.55957	0.291748	-0.492188
1122.0	7.122043	0.151154	7.944137	-0.186812	-0.135946	0.091278	-0.563965	0.289551	-0.485352
1123.0	7.13853	-0.309579	7.782302	-0.176342	-0.130192	0.065756	-0.561768	0.291748	-0.485352
1124.0	7.182676	-0.609153	7.835371	-0.125298	-0.120448	0.008756	-0.55957	0.293945	-0.485352
1125.0	7.031675	-0.17376	7.767523	-0.07253	-0.126724	-0.037482	-0.561768	0.291748	-0.478516
1126.0	6.854676	0.38016	7.759992	-0.05924	-0.133985	-0.040157	-0.559326	0.285156	-0.480713
1127.0	6.872965	0.664271	7.753458	-0.079816	-0.133651	-0.01195	-0.55957	0.289551	-0.480713
1128.0	6.88787	0.976818	7.553124	-0.101551	-0.144198	0.043975	-0.561523	0.285156	-0.471436
1129.0	6.742988	1.174666	7.679984	-0.148775	-0.128458	0.102009	-0.55249	0.281006	-0.471436
1130.0	6.797395	1.43526	7.719349	-0.242224	-0.109918	0.148303	-0.539551	0.283203	-0.48291
1131.0	6.946737	1.517771	7.824595	-0.344117	-0.045406	0.176069	-0.5271	0.296387	-0.499023
1132.0	7.261523	2.004931	7.718922	-0.450108	0.032912	0.234842	-0.537842	0.344482	-0.513672
1133.0	7.060858	1.399943	7.644934	-0.515409	0.089956	0.303944	-0.572021	0.372559	-0.505127
1134.0	7.035591	1.021689	7.714378	-0.542328	0.126135	0.375305	-0.575928	0.365967	-0.482178
1135.0	7.106334	0.194878	7.686869	-0.553895	0.141588	0.411118	-0.575439	0.35498	-0.4729
1136.0	7.431029	-1.577873	7.552809	-0.509638	0.1019	0.341454	-0.568604	0.348389	-0.463623
1137.0	7.342864	-1.94166	7.803471	-0.389646	0.035625	0.237417	-0.568359	0.341797	-0.46582
1138.0	7.160052	-1.215835	7.912583	-0.313086	-0.005952	0.157048	-0.564209	0.346191	-0.468018
1139.0	7.202172	-1.021046	7.977143	-0.295927	-0.042245	0.119916	-0.562012	0.346191	-0.468018
1140.0	7.068506	-1.517174	7.929234	-0.253179	-0.082468	0.054134	-0.562012	0.344238	-0.46582
1141.0	6.886722	-0.443124	8.374929	-0.233975	-0.14701	0.01861	-0.562012	0.344238	-0.463623
1142.0	6.979206	0.941001	8.530784	-0.320005	-0.217736	0.084985	-0.557861	0.348389	-0.461426
1143.0	6.986644	1.548265	8.634499	-0.393723	-0.313434	0.214177	-0.562256	0.352783	-0.461426
1144.0	7.144059	1.509518	8.646035	-0.518879	-0.418254	0.391085	-0.558105	0.35498	-0.459229
1145.0	6.78332	-1.301746	8.497146	-0.70754	-0.540798	0.470425	-0.567139	0.361572	-0.454834
1146.0	6.448656	-1.940346	9.248828	-0.252184	-0.869453	0.282975	-0.565186	0.365967	-0.441162
1147.0	6.515958	-2.19213	9.304006	-0.191666	-1.168954	0.172693	-0.569336	0.365723	-0.425293
1148.0	6.431663	-2.553051	9.409065	-0.106975	-1.502685	0.052811	-0.571533	0.365723	-0.422852
1149.0	6.431137	-2.936908	9.539869	0.02921	-1.893739	-0.100647	-0.58252	0.363525	-0.402344
1150.0	6.4319	-2.120046	9.740525	0.179327	-2.314591	-0.233059	-0.580566	0.37207	-0.391113
1151.0	5.762903	-1.547636	9.933205	0.289041	-2.771998	-0.344403	-0.595459	0.361084	-0.368164
1152.0	5.003507	-1.118162	10.080698	0.333582	-3.328188	-0.467681	-0.597168	0.354492	-0.349854
1153.0	4.567509	-1.253129	10.16786	0.342675	-3.961633	-0.537091	-0.60376	0.354492	-0.31543
1154.0	4.141819	-2.197586	10.403751	0.417185	-4.635759	-0.540876	-0.612305	0.352051	-0.288086
1155.0	2.818624	-1.69936	11.250571	0.576099	-5.445846	-0.595462	-0.627441	0.345215	-0.24707
1156.0	2.938317	-0.415148	10.643723	0.683019	-6.392406	-0.674036	-0.622803	0.34082	-0.196777
1157.0	2.233777	-1.523708	9.531096	0.876093	-7.302081	-0.563286	-0.62915	0.334229	-0.148682
1158.0	3.89985	-4.711778	5.614516	1.428202	-8.208934	-0.810399	-0.626709	0.32959	-0.096191
1159.0	7.917532	1.805732	3.141958	2.30662	-9.773786	-0.897102	-0.619629	0.320801	-0.027588
1160.0	20.162789	8.304196	9.717344	1.518853	-10.879828	0.079992	-0.600342	0.325195	0.033691
1161.0	32.234236	5.804696	15.981555	0.202601	-10.129542	0.698115	-0.576172	0.325195	0.111084
1162.0	22.87052	4.40832	4.406131	0.395421	-9.773887	0.839895	-0.548584	0.342529	0.165527
1163.0	25.595231	6.680495	8.226213	0.640692	-9.435528	1.435709	-0.500732	0.344971	0.215576
1164.0	30.484371	8.334534	13.018151	0.693576	-8.638414	1.870714	-0.457764	0.360352	0.249268
1165.0	33.599336	7.2205	24.180364	0.526277	-5.742503	1.697882	-0.419189	0.375977	0.262695
1166.0	24.609056	5.046006	32.597022	0.995507	-1.471694	1.204336	-0.38916	0.384766	0.248779
1167.0	15.603277	9.511688	29.898047	1.199531	0.639588	1.297924	-0.356689	0.389404	0.223633
1168.0	7.089526	7.770923	23.953408	1.00112	2.43316	1.450706	-0.326416	0.39624	0.19165
1169.0	-1.168137	6.858414	18.294817	1.092498	2.78162	1.720572	-0.276611	0.405518	0.157227
1170.0	0.124676	5.55669	15.008733	1.138636	2.900591	1.873146	-0.237549	0.407959	0.131836
1171.0	2.630523	5.044978	13.381701	1.350752	3.206515	1.757615	-0.189697	0.408447	0.11377
1172.0	4.540811	5.326347	12.372678	1.496735	3.745079	1.485727	-0.137451	0.413086	0.095215
1173.0	5.814283	5.601302	11.741409	1.507006	4.455784	1.133794	-0.102295	0.408936	0.102051
1174.0	6.144427	5.53413	11.054306	1.401154	5.160379	0.802654	-0.062988	0.404785	0.095215
1175.0	5.596406	4.910043	10.021335	1.249594	5.727251	0.489074	-0.033936	0.391846	0.104736
1176.0	4.994921	3.882387	8.919307	1.163226	6.069731	0.167052	-0.005371	0.383301	0.12085
1177.0	4.746433	2.95669	7.974932	1.184653	6.210884	-0.144687	0.015137	0.368164	0.143799
1178.0	4.972871	2.288017	7.333057	1.285457	6.22151	-0.472107	0.017822	0.352783	0.176025
1179.0	5.526895	2.03625	7.152678	1.417271	6.159514	-0.775947	0.020508	0.341797	0.212646
1180.0	6.388855	1.97499	7.42895	1.511332	6.079494	-1.057444	0.010498	0.324219	0.240479
1181.0	7.74959	1.823776	7.968909	1.588313	5.993128	-1.328612	-0.003418	0.295654	0.286621
1182.0	9.323281	1.927415	8.59094	1.659711	5.950816	-1.5953	-0.033203	0.280029	0.343994
1183.0	10.490157	2.301325	9.273081	1.659778	5.937342	-1.848269	-0.063721	0.277588	0.387207
1184.0	11.185982	2.59324	9.887964	1.648298	5.85125	-2.090541	-0.114746	0.296631	0.427979
1185.0	11.604974	3.284394	10.686101	1.590134	5.595839	-2.278347	-0.192139	0.322266	0.452637
1186.0	13.615668	4.165393	11.643187	1.527412	5.231345	-2.389265	-0.27832	0.345947	0.434082
1187.0	16.966686	5.8799	12.39701	1.399574	4.855041	-2.482128	-0.352783	0.352051	0.397461
1188.0	20.693993	8.36844	12.624816	0.920546	4.550994	-2.512076	-0.426758	0.347168	0.358887
1189.0	24.443939	9.377581	12.173609	0.049682	4.366707	-2.498931	-0.501465	0.312012	0.325684
1190.0	27.995909	7.010609	11.174545	-0.829018	4.289991	-2.595562	-0.578369	0.274414	0.273926
1191.0	31.840244	2.66887	9.486157	-1.251308	4.346685	-2.962565	-0.668213	0.237061	0.204102
1192.0	35.829305	-0.646012	6.84298	-1.043314	4.588377	-3.503785	-0.736328	0.19751	0.091064
1193.0	37.924051	-1.394696	2.976991	-0.495748	5.037142	-3.91583	-0.785645	0.13208	-0.053467
1194.0	35.763429	-2.545275	-1.647018	0.009547	5.478935	-4.185341	-0.780762	0.069336	-0.197998
1195.0	30.985569	-5.925408	-6.485678	0.466852	5.707535	-4.639914	-0.754395	0.012939	-0.320068
1196.0	24.345723	-11.124543	-10.78787	1.277527	5.442159	-5.477779	-0.69043	-0.049561	-0.419189
1197.0	24.296614	-10.988377	-14.697542	2.398926	4.666384	-6.504944	-0.632324	-0.127686	-0.483887
1198.0	25.47858	-8.91059	-18.351197	2.794062	3.903804	-6.91584	-0.566406	-0.19043	-0.521484
1199.0	21.778599	-9.688542	-20.598614	2.661044	2.884993	-6.985623	-0.51123	-0.253418	-0.545166
1200.0	19.689763	-6.052159	-19.991617	2.172714	1.397968	-6.568099	-0.459229	-0.294434	-0.555908
1201.0	17.476721	-0.234757	-17.548246	0.769332	-0.171105	-5.064847	-0.433838	-0.322754	-0.553223
1202.0	16.662112	1.803166	-14.184027	-1.169367	-1.545802	-2.842021	-0.425293	-0.32251	-0.55542
1203.0	18.755524	0.340071	-9.906325	-2.879016	-2.497666	-0.603689	-0.433105	-0.294189	-0.555908
1204.0	24.965596	-4.657662	-3.787062	-3.561949	-2.727111	0.954522	-0.440918	-0.263916	-0.554199
1205.0	20.886629	-9.289886	4.624175	-2.942844	-2.03283	1.499452	-0.44873	-0.237793	-0.550293
1206.0	-3.575677	-0.880526	44.094257	-1.127972	-2.137262	2.684085	-0.458496	-0.21167	-0.546143
1207.0	-26.275148	9.352236	9.783051	-3.916066	-2.358825	3.045875	-0.484619	-0.163818	-0.537842
1208.0	6.360793	-6.02479	-5.605811	-2.672993	-5.765257	3.425651	-0.507813	-0.135498	-0.508789
1209.0	34.783406	-4.258412	15.61761	-1.637649	-4.441553	0.890755	-0.523682	-0.118408	-0.481934
1210.0	12.169672	-2.771479	6.750709	-0.971693	-3.92789	-0.123465	-0.534912	-0.114014	-0.458984
1211.0	15.214352	-5.796687	11.066487	-0.762324	-3.68944	0.292627	-0.541748	-0.107666	-0.427246
1212.0	10.588993	-3.745137	8.971446	-0.260994	-3.3729	0.763364	-0.555176	-0.096924	-0.411621
1213.0	9.663468	5.256204	7.638965	-0.172884	-3.245286	0.821157	-0.55542	-0.092529	-0.388916
1214.0	10.890384	2.179182	8.039044	-0.282112	-3.199023	0.800617	-0.553711	-0.081787	-0.366211
1215.0	13.233325	-2.8398	9.394267	0.058305	-2.966219	0.626756	-0.573975	-0.071045	-0.339111
1216.0	28.148091	7.426839	16.947102	-0.003953	-2.486536	0.788259	-0.571777	-0.068848	-0.320801
1217.0	8.785169	2.740294	5.627551	-0.578083	-1.106734	0.951234	-0.585449	-0.055908	-0.312012
1218.0	8.305334	0.454192	8.97062	-0.610499	-0.949891	0.995159	-0.581543	-0.044922	-0.30542
1219.0	8.763932	1.048241	8.536895	-0.549584	-0.742878	0.889218	-0.577637	-0.033936	-0.303467
1220.0	7.720622	1.552663	8.635646	-0.616235	-0.497598	0.761112	-0.580078	-0.027344	-0.298828
1221.0	7.122137	1.649157	8.287521	-0.720424	-0.316224	0.761007	-0.580566	-0.018799	-0.296875
1222.0	6.855343	2.241736	7.574278	-0.783208	-0.311685	0.89607	-0.583496	-0.003418	-0.297119
1223.0	6.734756	1.75863	7.414471	-0.899393	-0.377792	1.013347	-0.585938	0.005371	-0.299561
1224.0	7.954703	0.696166	7.716395	-0.986599	-0.443862	1.063025	-0.586426	0.016113	-0.28833
1225.0	7.747872	0.001611	7.624836	-0.94664	-0.420932	0.998962	-0.59375	0.033447	-0.28418
1226.0	8.011091	-0.9354	7.774024	-0.876468	-0.35451	0.880784	-0.592041	0.042236	-0.284424
1227.0	7.834856	-1.71882	7.844197	-0.759035	-0.262296	0.723421	-0.585938	0.051025	-0.284424
1228.0	7.769907	-1.901692	7.921501	-0.593731	-0.165291	0.544097	-0.588379	0.057617	-0.280029
1229.0	7.515855	-2.06822	7.961	-0.454139	-0.100025	0.378164	-0.592773	0.057617	-0.282471
1230.0	7.598284	-1.817996	7.766696	-0.325852	-0.056664	0.252125	-0.586426	0.064209	-0.280273
1231.0	7.268948	-1.930797	7.83934	-0.209258	-0.035337	0.137018	-0.59082	0.062012	-0.275635
1232.0	7.130396	-1.742301	7.858578	-0.116993	-0.042671	0.026201	-0.586426	0.062012	-0.280273
1233.0	7.065811	-1.098715	7.923043	-0.072789	-0.048712	-0.05232	-0.586426	0.066406	-0.280273
1234.0	7.076706	-0.731349	7.860749	-0.076582	-0.057658	-0.093684	-0.579834	0.064209	-0.287109
1235.0	7.068539	-0.476258	7.737039	-0.080193	-0.056734	-0.122353	-0.575684	0.068604	-0.289551
1236.0	7.114001	0.032322	7.756007	-0.086014	-0.048509	-0.119879	-0.571777	0.07959	-0.294189
1237.0	7.128538	0.128433	7.716201	-0.109013	-0.035583	-0.091816	-0.578613	0.085938	-0.296631
1238.0	7.156087	0.079802	7.684417	-0.118604	-0.025539	-0.060943	-0.585693	0.094727	-0.292236
1239.0	7.111096	-0.159955	7.638815	-0.119002	-0.021765	-0.040985	-0.594238	0.092529	-0.280762
1240.0	7.07914	-0.036666	7.791148	-0.129475	-0.013002	-0.030044	-0.596191	0.085938	-0.280518
1241.0	7.053474	0.053452	7.816316	-0.14686	-0.015183	-0.006134	-0.600342	0.081543	-0.280518
1242.0	7.027476	0.370403	8.029253	-0.19201	-0.02269	0.027695	-0.595947	0.08374	-0.276123
1243.0	7.062112	0.289148	7.945609	-0.261726	-0.035529	0.082217	-0.595703	0.077148	-0.27124
1244.0	7.072476	0.245233	7.891136	-0.30539	-0.047185	0.127411	-0.5979	0.077148	-0.278076
1245.0	6.998786	-0.164379	7.885252	-0.343581	-0.070176	0.15696	-0.595703	0.074951	-0.27124
1246.0	7.020496	-0.269922	7.852283	-0.353235	-0.105463	0.167555	-0.595947	0.081543	-0.275879
1247.0	7.023192	-0.098374	7.934835	-0.360806	-0.142375	0.195845	-0.591797	0.08374	-0.269287
1248.0	6.973272	-0.107041	7.940551	-0.301184	-0.196742	0.228803	-0.5896	0.08374	-0.269287
1249.0	7.062961	0.215494	8.012041	-0.323162	-0.240264	0.298802	-0.598633	0.092529	-0.273926
1250.0	7.028639	-0.525107	8.247639	-0.377287	-0.30581	0.346972	-0.598633	0.092529	-0.278564
1251.0	6.598705	-2.100032	8.686115	-0.250737	-0.483805	0.266628	-0.599121	0.101074	-0.271729
1252.0	6.534286	-2.439808	8.896424	-0.170574	-0.723292	0.121272	-0.598877	0.101074	-0.255859
1253.0	6.361768	-2.922592	9.196413	-0.053679	-1.014522	-0.043867	-0.603271	0.09668	-0.255859
1254.0	6.108796	-3.794115	9.593992	0.092775	-1.386377	-0.262776	-0.605225	0.094482	-0.239746
1255.0	5.914578	-4.425227	10.054604	0.269498	-1.8535	-0.553	-0.604736	0.083496	-0.22583
1256.0	5.710359	-4.847279	10.459797	0.481449	-2.412332	-0.899518	-0.615234	0.07251	-0.209717
1257.0	5.208634	-5.048921	11.210622	0.732128	-3.098282	-1.273553	-0.614502	0.059326	-0.186768
1258.0	3.674169	-6.917848	12.183361	1.011804	-3.93125	-1.743579	-0.615967	0.039551	-0.1521
1259.0	1.940867	-1.435804	13.405905	1.591548	-5.051436	-2.120612	-0.621338	0.015381	-0.108398
1260.0	1.155088	5.123355	13.745552	1.537262	-6.346529	-2.012553	-0.620361	-0.004395	-0.053223
1261.0	1.415511	7.179199	12.960186	1.023123	-7.406086	-1.348767	-0.609131	-0.013184	-0.00293
1262.0	2.295547	10.30622	11.397425	-0.213484	-8.653892	-0.461913	-0.602539	-0.015381	0.061035
1263.0	7.736098	8.354484	9.821267	-1.603936	-9.812864	0.562465	-0.5896	-0.01123	0.138428
1264.0	17.528111	5.371853	10.572131	-2.621302	-10.401026	1.38204	-0.568359	0.001953	0.197266
1265.0	30.684342	0.236089	8.568846	-2.60255	-9.894632	1.583318	-0.546631	0.006348	0.263184
1266.0	30.749204	5.01383	9.092645	-2.149749	-8.806591	1.776928	-0.520996	0.014893	0.317871
1267.0	25.203397	9.539898	11.339277	-2.744845	-7.670025	2.103981	-0.505615	0.01709	0.358643
1268.0	26.679978	12.90123	20.417531	-4.194426	-4.988707	1.890901	-0.490723	0.021729	0.374512
1269.0	15.009457	7.542239	28.522258	-4.715328	-1.635268	1.368687	-0.496826	0.012939	0.376953
1270.0	7.519211	1.387657	24.756375	-3.81086	-0.397785	0.884463	-0.499023	0.012939	0.374756
1271.0	6.247193	0.325289	21.230014	-2.156777	0.970722	0.557639	-0.51001	0.012695	0.370117
1272.0	1.11577	4.579113	16.754331	-1.008975	1.547433	0.845653	-0.517334	0.030273	0.349365
1273.0	2.740908	8.794819	15.0671	-0.922877	2.087105	1.449255	-0.524414	0.043213	0.335449
1274.0	3.166593	11.169631	13.972853	-1.470132	2.764499	1.864139	-0.533936	0.060791	0.314697
1275.0	2.968432	11.93104	12.724726	-2.169905	3.449412	1.895787	-0.552002	0.075928	0.293945
1276.0	2.952206	12.058307	11.248374	-2.671732	4.020862	1.534408	-0.561035	0.08252	0.26416
1277.0	3.076029	12.314259	9.933043	-2.962626	4.493371	0.869278	-0.57666	0.089111	0.232178
1278.0	3.192601	13.085855	8.780854	-3.178513	4.834037	0.047598	-0.585449	0.093506	0.197754
1279.0	4.078824	14.254827	7.984054	-3.505146	5.079474	-0.776202	-0.593994	0.086914	0.163818
1280.0	5.312246	14.913826	7.179385	-4.025812	5.303065	-1.434839	-0.5979	0.076172	0.116211
1281.0	6.282444	14.537109	6.344596	-4.569914	5.480232	-1.904805	-0.610596	0.067383	0.08667
1282.0	6.971319	13.756644	5.677407	-4.958989	5.606602	-2.231712	-0.614502	0.058838	0.045898
1283.0	7.311905	13.01427	5.269328	-5.102206	5.663615	-2.491	-0.607178	0.043701	-0.001709
1284.0	7.519278	13.062782	5.440476	-4.99401	5.605849	-2.698422	-0.606445	0.026367	-0.044678
1285.0	8.750747	14.320898	6.262676	-4.738924	5.481973	-2.869192	-0.599121	0.006836	-0.078613
1286.0	10.200473	16.367902	7.347343	-4.596793	5.411055	-2.93871	-0.590088	-0.001709	-0.114746
1287.0	11.904333	17.923729	8.519774	-4.527585	5.411945	-2.925005	-0.578125	-0.02124	-0.14624
1288.0	13.948161	19.191748	9.677286	-4.450921	5.473707	-2.848748	-0.573486	-0.031982	-0.171143
1289.0	15.956443	19.558917	10.361161	-4.257339	5.613783	-2.744426	-0.568848	-0.038574	-0.200684
1290.0	18.193511	20.128239	10.156518	-3.863701	5.77081	-2.656297	-0.570801	-0.042725	-0.234863
1291.0	19.311957	21.158145	9.025641	-3.493728	5.90398	-2.602305	-0.562012	-0.044922	-0.273438
1292.0	19.799428	22.290086	6.89442	-3.262016	5.863242	-2.668219	-0.546387	-0.049072	-0.314453
1293.0	20.070152	23.354759	4.532277	-3.200232	5.610769	-2.929375	-0.540039	-0.044434	-0.348877
1294.0	20.434824	24.059575	2.497066	-3.332989	5.159188	-3.425709	-0.53125	-0.048828	-0.378418
1295.0	21.473928	23.757964	1.023874	-3.559642	4.598779	-4.195109	-0.521729	-0.063965	-0.414551
1296.0	22.982957	21.77539	-0.127913	-3.611247	4.054117	-5.248964	-0.506104	-0.074707	-0.446289
1297.0	23.733258	20.247187	-1.377634	-3.372241	3.565237	-6.446996	-0.491943	-0.096191	-0.47998
1298.0	23.375505	18.693483	-2.529549	-3.116754	3.104425	-7.438981	-0.481689	-0.131104	-0.499756
1299.0	21.801996	8.21131	-3.141158	-2.722692	2.753809	-8.341237	-0.462646	-0.167969	-0.526611
1300.0	23.327185	4.475227	-3.788025	-0.830452	2.132251	-9.27194	-0.438477	-0.220215	-0.539063
1301.0	25.420621	11.144696	-4.927561	0.082027	1.457356	-9.350008	-0.405762	-0.272217	-0.558594
1302.0	26.485443	13.403506	-7.416691	-0.511265	1.005431	-8.719866	-0.375244	-0.317871	-0.571533
1303.0	25.223055	8.980282	-9.469969	-1.405656	0.619411	-7.953562	-0.347412	-0.354736	-0.58667
1304.0	23.831461	4.49922	-10.537316	-1.697594	0.123469	-7.259788	-0.324707	-0.376465	-0.602295
1305.0	22.5633	3.179328	-10.314704	-1.672638	-0.4071	-6.418833	-0.299316	-0.404541	-0.604004
1306.0	20.593106	3.424643	-9.31857	-1.827522	-0.871474	-5.289445	-0.285645	-0.419922	-0.610596
1307.0	19.366079	3.239108	-7.190074	-2.281495	-1.244504	-3.868332	-0.274658	-0.421875	-0.626465
1308.0	19.858646	1.468132	-4.649717	-2.585378	-1.400454	-2.547634	-0.279297	-0.415283	-0.64502
1309.0	20.177511	0.42838	-1.540793	-2.499795	-1.290334	-1.640269	-0.277344	-0.410889	-0.651855
1310.0	16.821487	-0.585749	1.196421	-2.195866	-1.092388	-1.009174	-0.28418	-0.4021	-0.656494
1311.0	4.105353	-18.418952	10.012064	1.200693	-1.88225	-0.930487	-0.289795	-0.424072	-0.637939
1312.0	-0.390598	-1.460686	11.644873	2.056841	-1.795308	-0.721819	-0.306641	-0.4375	-0.617188
1313.0	-1.942621	7.889792	7.699959	1.354957	-2.391421	0.368246	-0.332764	-0.439697	-0.610107
1314.0	9.57544	12.276073	8.165198	0.330909	-2.873827	0.750775	-0.354492	-0.439941	-0.601074
1315.0	11.1075	11.250639	7.111693	-0.521489	-2.843051	0.329239	-0.374268	-0.437988	-0.594238
1316.0	12.102775	1.923399	8.671454	-0.819349	-2.747881	0.164775	-0.394287	-0.431396	-0.585205
1317.0	13.994219	1.984833	8.643444	-0.691295	-2.501226	-0.10316	-0.405273	-0.429443	-0.578369
1318.0	13.415821	3.029891	8.673765	-0.716404	-2.218282	-0.301298	-0.418213	-0.429443	-0.569336
1319.0	12.519061	1.879869	8.655673	-0.768833	-1.964021	-0.577764	-0.420654	-0.422852	-0.564941
1320.0	10.714759	1.021779	8.355179	-0.759109	-1.751033	-0.883685	-0.431152	-0.431885	-0.560059
1321.0	9.087307	1.580019	7.926129	-0.754232	-1.62839	-1.13027	-0.426758	-0.433838	-0.553223
1322.0	13.140102	3.712214	10.779248	-0.883766	-1.515411	-1.046361	-0.431152	-0.436035	-0.557617
1323.0	12.193001	-8.022941	11.424838	-0.791198	-0.615635	-0.301674	-0.431152	-0.434082	-0.551025
