Acquisition frequency: 100 Hz
PacketCounter	Acc_X	Acc_Y	Acc_Z	Gyr_X	Gyr_Y	Gyr_Z	Mag_X	Mag_Y	Mag_Z
0.0	7.122141	0.192383	7.643383	0.018286	0.019768	-0.056502	-0.439697	0.096191	-0.479248
1.0	7.115833	0.18271	7.613956	0.014806	0.018816	-0.055809	-0.435303	0.098389	-0.486084
2.0	7.11903	0.202462	7.64602	0.0112	0.018303	-0.05152	-0.430908	0.098389	-0.481689
3.0	7.133321	0.165413	7.626082	0.003783	0.017654	-0.045133	-0.4375	0.098389	-0.483887
4.0	7.146713	0.087156	7.684141	0.002359	0.016357	-0.046185	-0.4375	0.096191	-0.481689
5.0	7.163612	0.141015	7.658254	0.005488	0.018068	-0.051291	-0.437256	0.091797	-0.479248
6.0	7.141598	0.171274	7.650018	0.004811	0.01964	-0.054303	-0.435059	0.093994	-0.483887
7.0	7.153715	0.210627	7.593405	0.008259	0.016155	-0.050044	-0.439697	0.098389	-0.481689
8.0	7.105762	0.210941	7.622627	0.002896	0.015159	-0.045402	-0.435059	0.093994	-0.481445
9.0	7.128532	0.241015	7.645676	-0.002469	0.014161	-0.040759	-0.439453	0.091797	-0.483887
10.0	7.103408	0.216443	7.624666	-0.004159	0.013745	-0.034613	-0.4375	0.096191	-0.481689
11.0	7.134524	0.224508	7.636804	-0.012443	0.005706	-0.027095	-0.439453	0.093994	-0.479248
12.0	7.149931	0.184499	7.616101	-0.012941	0.006901	-0.027903	-0.432861	0.0896	-0.481445
13.0	7.158469	0.126506	7.624443	-0.021563	0.009003	-0.025325	-0.437256	0.093994	-0.486084
14.0	7.174864	0.136683	7.676108	-0.014303	0.010047	-0.033923	-0.435059	0.0896	-0.483643
15.0	7.181897	0.117781	7.666383	-0.011991	0.013777	-0.038437	-0.439697	0.096191	-0.483887
16.0	7.160165	0.145859	7.657845	-0.010603	0.015014	-0.043195	-0.435059	0.091797	-0.486084
17.0	7.15911	0.060095	7.605085	-0.0049	0.015203	-0.049244	-0.435059	0.091797	-0.479248
18.0	7.227338	0.053965	7.678381	0.002613	0.020321	-0.060611	-0.432861	0.093994	-0.481445
19.0	7.18457	0.111417	7.660589	0.010998	0.018483	-0.077011	-0.44165	0.091797	-0.486084
20.0	7.171696	0.085537	7.660147	0.019428	0.021719	-0.077369	-0.432861	0.0896	-0.481445
21.0	7.179595	0.163895	7.645428	0.028568	0.027768	-0.085497	-0.441895	0.096191	-0.479248
22.0	7.156614	0.198299	7.637777	0.032091	0.028738	-0.086212	-0.432861	0.0896	-0.486084
23.0	7.14607	0.227392	7.65038	0.033545	0.03004	-0.085182	-0.435059	0.091797	-0.486084
24.0	7.159813	0.195376	7.631379	0.036894	0.031389	-0.088104	-0.43042	0.087402	-0.481445
25.0	7.13109	0.175048	7.671353	0.044836	0.035835	-0.089279	-0.446045	0.091797	-0.481445
26.0	7.133327	0.24058	7.626537	0.046119	0.037514	-0.09046	-0.439209	0.0896	-0.483643
27.0	7.160682	0.295412	7.622069	0.049588	0.034053	-0.086197	-0.437012	0.085205	-0.483643
28.0	7.087568	0.274007	7.630206	0.050128	0.032861	-0.08541	-0.434814	0.085205	-0.481445
29.0	7.106853	0.348661	7.635936	0.040934	0.031675	-0.078682	-0.434814	0.087402	-0.488281
30.0	7.091675	0.36204	7.617749	0.035742	0.030351	-0.066021	-0.432373	0.080811	-0.48584
31.0	7.105954	0.378857	7.67077	0.030024	0.030143	-0.059982	-0.439209	0.087402	-0.486084
32.0	7.118575	0.381994	7.633217	0.022141	0.025752	-0.053016	-0.432373	0.078613	-0.483643
33.0	7.099814	0.427459	7.655898	0.012585	0.025454	-0.039057	-0.439209	0.0896	-0.488281
34.0	7.078633	0.41829	7.666241	0.002437	0.021759	-0.032548	-0.43457	0.083008	-0.483643
35.0	7.066132	0.387315	7.665872	-0.003542	0.017563	-0.017894	-0.438965	0.080811	-0.490479
36.0	7.065012	0.38766	7.666887	-0.01219	0.010296	-0.008944	-0.43457	0.083008	-0.479004
37.0	7.106635	0.375831	7.609238	-0.019609	0.014101	-0.001724	-0.440918	0.078613	-0.488037
38.0	7.11158	0.351441	7.659394	-0.01968	0.009667	0.003272	-0.43042	0.087402	-0.481445
39.0	7.07089	0.362572	7.658921	-0.024252	0.006703	0.013156	-0.436768	0.080811	-0.488037
40.0	7.098031	0.3513	7.640311	-0.027744	0.005792	0.019668	-0.430176	0.080811	-0.479004
41.0	7.089467	0.36781	7.651183	-0.032147	0.00238	0.025941	-0.439209	0.085205	-0.48584
42.0	7.125215	0.334635	7.621897	-0.034722	0.003969	0.032688	-0.432373	0.083008	-0.481445
43.0	7.133511	0.359698	7.683752	-0.035792	0.001913	0.036052	-0.439209	0.087402	-0.481445
44.0	7.107362	0.27361	7.64963	-0.042362	0.003636	0.03686	-0.428223	0.085205	-0.48584
45.0	7.097376	0.325903	7.642045	-0.043592	0.002023	0.043828	-0.434814	0.085205	-0.48584
46.0	7.104568	0.20804	7.637801	-0.043416	0.00158	0.040213	-0.430176	0.083008	-0.479004
47.0	7.117159	0.196755	7.658152	-0.040162	-0.001571	0.036477	-0.437012	0.087402	-0.486084
48.0	7.158927	0.139717	7.677577	-0.038243	-0.001522	0.032519	-0.43042	0.085205	-0.481445
49.0	7.149134	0.193615	7.669847	-0.030178	0.002435	0.021955	-0.439209	0.087402	-0.481445
50.0	7.137854	0.157458	7.668279	-0.023855	0.005966	0.017553	-0.435059	0.0896	-0.476807
51.0	7.116732	0.180226	7.658955	-0.026854	0.003729	0.013236	-0.430664	0.091797	-0.486084
52.0	7.143877	0.169837	7.640202	-0.018465	0.006872	0.001281	-0.437256	0.091797	-0.486084
53.0	7.14339	0.168183	7.640694	-0.020041	0.006005	0.003833	-0.432617	0.087402	-0.486084
54.0	7.145866	0.090705	7.677826	-0.018809	0.007565	-0.008952	-0.430176	0.083008	-0.483643
55.0	7.138216	0.20189	7.683171	-0.013075	0.007783	-0.01499	-0.439453	0.091797	-0.481445
56.0	7.143043	0.128951	7.66075	-0.008341	0.010387	-0.022648	-0.435059	0.0896	-0.481445
57.0	7.117355	0.191169	7.693211	-0.010422	0.010651	-0.026722	-0.437012	0.0896	-0.483643
58.0	7.128745	0.136623	7.64213	-0.009672	0.013528	-0.028688	-0.432617	0.087402	-0.481445
59.0	7.137613	0.079764	7.650719	-0.010423	0.010532	-0.038359	-0.437012	0.087402	-0.486084
60.0	7.110311	0.181497	7.664887	-0.008344	0.01009	-0.051739	-0.432617	0.087402	-0.479248
61.0	7.133762	0.252427	7.610021	-0.009665	0.013349	-0.046149	-0.437012	0.087402	-0.483643
62.0	7.126044	0.237493	7.639684	-0.007824	0.008898	-0.05094	-0.432617	0.087402	-0.481445
63.0	7.106592	0.098414	7.672959	-0.020123	0.01033	-0.049918	-0.439209	0.0896	-0.481445
64.0	7.155784	0.029482	7.682535	-0.012621	0.010938	-0.067945	-0.437012	0.0896	-0.481445
65.0	7.139006	0.165888	7.698798	-0.006858	0.011113	-0.079814	-0.432617	0.087402	-0.488281
66.0	7.101271	0.278726	7.633112	-0.002837	0.010853	-0.085524	-0.434814	0.085205	-0.483643
67.0	7.130237	0.329421	7.627319	-0.006476	0.010297	-0.081242	-0.432861	0.0896	-0.488281
68.0	7.099982	0.380281	7.628832	-0.008791	0.0066	-0.070913	-0.430176	0.080811	-0.483643
69.0	7.107168	0.272851	7.624356	-0.011939	0.00485	-0.065815	-0.43457	0.083008	-0.48584
70.0	7.12591	0.288974	7.616075	-0.008852	0.002208	-0.06012	-0.432373	0.078613	-0.479004
71.0	7.125245	0.342667	7.688513	-0.010423	0.001332	-0.057573	-0.436768	0.083008	-0.483643
72.0	7.148582	0.323022	7.638623	-0.010088	0.000575	-0.053155	-0.432373	0.083008	-0.483643
73.0	7.137948	0.384273	7.631136	-0.009191	0.003134	-0.047087	-0.432373	0.080811	-0.48584
74.0	7.158555	0.3611	7.641077	-0.009201	0.003189	-0.041264	-0.439209	0.087402	-0.481445
75.0	7.114005	0.361158	7.609329	-0.010797	0.002366	-0.032885	-0.432617	0.087402	-0.479248
76.0	7.138655	0.351898	7.650172	-0.013881	0.00506	-0.032766	-0.437012	0.085205	-0.476807
77.0	7.13579	0.300041	7.638177	-0.01085	0.011813	-0.027599	-0.434814	0.085205	-0.481445
78.0	7.143459	0.280733	7.628342	-0.011428	0.008551	-0.023422	-0.434814	0.085205	-0.481445
79.0	7.130206	0.28708	7.608718	-0.007596	0.008742	-0.025509	-0.438965	0.080811	-0.479004
80.0	7.146	0.297866	7.660484	-0.009337	0.00824	-0.025169	-0.43457	0.080811	-0.48584
81.0	7.149858	0.263528	7.619635	-0.009358	0.008294	-0.019341	-0.437012	0.085205	-0.483643
82.0	7.133857	0.266717	7.6598	-0.009116	0.012368	-0.022119	-0.43042	0.085205	-0.488281
83.0	7.173212	0.254652	7.661703	-0.009329	0.008241	-0.025174	-0.436768	0.083008	-0.479004
84.0	7.117589	0.221223	7.628384	-0.007342	0.012817	-0.028294	-0.430176	0.080811	-0.483643
85.0	7.146242	0.268032	7.62287	-0.007339	0.012817	-0.028296	-0.432617	0.085205	-0.481445
86.0	7.1386	0.251908	7.652572	-0.003161	0.012201	-0.031786	-0.430176	0.078613	-0.479004
87.0	7.144138	0.271671	7.624713	-0.007647	0.013576	-0.03273	-0.430176	0.080811	-0.479004
88.0	7.134367	0.293545	7.636365	-0.008331	0.015198	-0.029928	-0.440918	0.078613	-0.479004
89.0	7.114077	0.282516	7.645907	-0.009382	0.013072	-0.032395	-0.436768	0.083008	-0.483643
90.0	7.153304	0.270981	7.647963	-0.010463	0.010998	-0.029029	-0.438721	0.078613	-0.479004
91.0	7.137746	0.315781	7.61042	-0.011618	0.013759	-0.032872	-0.441162	0.080811	-0.481201
92.0	7.109042	0.324702	7.630385	-0.009798	0.009428	-0.026006	-0.43042	0.085205	-0.479004
93.0	7.127439	0.338385	7.622506	-0.008793	0.007047	-0.024383	-0.436523	0.076416	-0.481201
94.0	7.103993	0.311452	7.600508	-0.014952	0.003077	-0.01778	-0.437012	0.087402	-0.479248
95.0	7.137364	0.280755	7.630726	-0.01495	0.003077	-0.017781	-0.438965	0.083008	-0.481445
96.0	7.119803	0.321326	7.652217	-0.01305	0.003202	-0.015907	-0.430176	0.078613	-0.479004
97.0	7.126122	0.339089	7.623706	-0.016725	0.002621	-0.011609	-0.441162	0.080811	-0.48584
98.0	7.127883	0.300374	7.642151	-0.017416	0.00424	-0.008803	-0.43457	0.083008	-0.48584
99.0	7.137939	0.332516	7.644693	-0.017916	0.005431	-0.009616	-0.438965	0.080811	-0.476807
100.0	7.127073	0.298697	7.642973	-0.023489	0.004723	-0.007195	-0.43457	0.080811	-0.481201
101.0	7.118036	0.317636	7.654015	-0.017795	0.005096	-0.001567	-0.436523	0.078613	-0.483398
102.0	7.166508	0.28329	7.645015	-0.023986	0.005914	-0.00801	-0.43457	0.083008	-0.479004
103.0	7.170032	0.205525	7.681843	-0.027421	0.009407	-0.00649	-0.436768	0.083008	-0.481445
104.0	7.13558	0.235101	7.652691	-0.023895	0.010375	-0.013004	-0.43457	0.083008	-0.481445
105.0	7.134709	0.23421	7.65353	-0.024393	0.011566	-0.013818	-0.437012	0.087402	-0.486084
106.0	7.140466	0.251509	7.6256	-0.021454	0.009264	-0.016154	-0.43457	0.078613	-0.476807
107.0	7.174992	0.273312	7.669231	-0.019316	0.013468	-0.017052	-0.439209	0.0896	-0.479248
108.0	7.129899	0.270903	7.638057	-0.020401	0.011387	-0.013688	-0.430176	0.080811	-0.476807
109.0	7.172917	0.272633	7.671196	-0.018222	0.01555	-0.020421	-0.439209	0.0896	-0.481445
110.0	7.134321	0.288474	7.611387	-0.018654	0.011893	-0.014029	-0.437012	0.087402	-0.483643
111.0	7.152399	0.300819	7.603924	-0.01741	0.013592	-0.01518	-0.436768	0.083008	-0.481445
112.0	7.153463	0.26238	7.62294	-0.016908	0.012401	-0.014369	-0.432373	0.083008	-0.48584
113.0	7.152536	0.262251	7.623814	-0.014316	0.01091	-0.0153	-0.436768	0.080811	-0.483643
114.0	7.14304	0.282469	7.635231	-0.013466	0.008912	-0.015894	-0.434814	0.085205	-0.481445
115.0	7.150703	0.262429	7.625527	-0.011134	0.017237	-0.013723	-0.436768	0.083008	-0.483643
116.0	7.128316	0.288313	7.617018	-0.007345	0.012942	-0.01665	-0.43457	0.083008	-0.479004
117.0	7.161101	0.257917	7.647743	-0.009827	0.009543	-0.014354	-0.437012	0.087402	-0.479248
118.0	7.156393	0.243721	7.61764	-0.00386	0.013959	-0.017324	-0.434814	0.085205	-0.476807
119.0	7.129073	0.305133	7.650715	-0.002466	0.015275	-0.016256	-0.432373	0.083008	-0.481445
120.0	7.173088	0.258303	7.611431	-0.002814	0.016081	-0.014853	-0.43457	0.083008	-0.479004
121.0	7.114193	0.312269	7.632587	-0.001464	0.012892	-0.014634	-0.434814	0.085205	-0.481445
122.0	7.146966	0.282274	7.663324	-0.002205	0.010001	-0.012674	-0.430176	0.083008	-0.479004
123.0	7.123212	0.255312	7.641594	-0.001862	0.013736	-0.007392	-0.439209	0.087402	-0.481445
124.0	7.123806	0.308972	7.655465	0.00093	0.011826	-0.011942	-0.432617	0.085205	-0.479004
125.0	7.145546	0.234326	7.593181	-0.005036	0.007407	-0.008975	-0.436768	0.080811	-0.483643
126.0	7.131059	0.289844	7.646146	-0.004441	0.010683	-0.013153	-0.439209	0.087402	-0.476807
127.0	7.130202	0.290447	7.646922	-0.00255	0.010808	-0.011272	-0.434814	0.087402	-0.483643
128.0	7.119032	0.258326	7.645387	-0.002347	0.010386	-0.014894	-0.436523	0.078613	-0.479004
129.0	7.137238	0.271733	7.637806	-0.004789	0.011489	-0.011751	-0.439209	0.085205	-0.479004
130.0	7.144996	0.252095	7.628059	-0.003896	0.013996	-0.011495	-0.436768	0.080811	-0.479004
131.0	7.135308	0.272772	7.639572	-0.007715	0.009242	-0.016109	-0.436768	0.083008	-0.481445
132.0	7.146912	0.267888	7.660662	-0.007026	0.01217	-0.012231	-0.436768	0.083008	-0.479004
133.0	7.152542	0.28602	7.632916	-0.009321	0.012887	-0.00687	-0.43457	0.083008	-0.479004
134.0	7.132378	0.273221	7.642292	-0.006336	0.015098	-0.008353	-0.438721	0.078613	-0.481201
135.0	7.131232	0.273034	7.643368	-0.01191	0.014373	-0.005946	-0.436768	0.080811	-0.483643
136.0	7.149297	0.285415	7.635979	-0.010707	0.01157	-0.007943	-0.432861	0.0896	-0.483643
137.0	7.141709	0.266943	7.665546	-0.013297	0.013057	-0.007018	-0.438965	0.083008	-0.481445
138.0	7.136982	0.251658	7.635572	-0.011907	0.014373	-0.005948	-0.43457	0.083008	-0.476807
139.0	7.133893	0.289194	7.618492	-0.017667	0.009528	-0.00661	-0.43457	0.083008	-0.476807
140.0	7.117597	0.290652	7.658648	-0.013087	0.012638	-0.010643	-0.437012	0.085205	-0.481445
141.0	7.15334	0.262646	7.629846	-0.012502	0.011094	-0.001772	-0.432373	0.083008	-0.479004
142.0	7.14359	0.282163	7.641438	-0.013436	0.013443	-0.00924	-0.434814	0.087402	-0.483643
143.0	7.151432	0.261666	7.631667	-0.012439	0.011061	-0.007614	-0.436768	0.083008	-0.481445
144.0	7.14391	0.243215	7.661134	-0.012583	0.011447	-0.009833	-0.43457	0.083008	-0.48584
145.0	7.130613	0.248153	7.641635	-0.014178	0.010549	-0.007283	-0.43457	0.080811	-0.483643
146.0	7.148729	0.260545	7.634238	-0.009805	0.014079	-0.007689	-0.430664	0.0896	-0.481445
147.0	7.126453	0.285921	7.625576	-0.012869	0.012221	-0.014272	-0.434814	0.085205	-0.481445
148.0	7.127678	0.247431	7.644396	-0.014671	0.01174	-0.008099	-0.432617	0.085205	-0.483643
149.0	7.139108	0.241839	7.665653	-0.009593	0.013662	-0.011314	-0.432617	0.085205	-0.479004
150.0	7.124182	0.194501	7.633232	-0.009526	0.013632	-0.017157	-0.436768	0.083008	-0.479004
151.0	7.143583	0.260981	7.639038	-0.007574	0.013727	-0.021114	-0.434814	0.087402	-0.481445
152.0	7.138914	0.247102	7.609006	-0.007428	0.01334	-0.018897	-0.432373	0.078613	-0.481201
153.0	7.148063	0.280848	7.612406	-0.007569	0.013727	-0.021117	-0.43457	0.083008	-0.481445
154.0	7.140399	0.263602	7.641924	-0.006573	0.011344	-0.019491	-0.438965	0.083008	-0.476807
155.0	7.120274	0.251712	7.651153	-0.008062	0.014919	-0.021933	-0.437012	0.085205	-0.483643
156.0	7.147048	0.245381	7.63323	-0.007563	0.013727	-0.021121	-0.432617	0.087402	-0.476807
157.0	7.120233	0.215325	7.67109	-0.00756	0.013727	-0.021122	-0.437012	0.0896	-0.476807
158.0	7.12359	0.272944	7.625561	-0.007131	0.012896	-0.028373	-0.432373	0.083008	-0.476807
159.0	7.145137	0.301902	7.649257	-0.006986	0.012508	-0.026156	-0.437012	0.085205	-0.48584
160.0	7.133853	0.270279	7.647803	-0.007836	0.014503	-0.025566	-0.432617	0.085205	-0.48584
161.0	7.150532	0.231428	7.627394	-0.00698	0.012508	-0.02616	-0.441162	0.083008	-0.483643
162.0	7.110259	0.298401	7.640201	-0.006726	0.016596	-0.028935	-0.432373	0.080811	-0.481201
163.0	7.148117	0.23441	7.629567	-0.00573	0.014214	-0.027308	-0.434814	0.085205	-0.488281
164.0	7.145817	0.183221	7.617371	-0.004795	0.012193	-0.033748	-0.430176	0.080811	-0.476807
165.0	7.136938	0.258613	7.642248	-0.002582	0.016382	-0.04048	-0.437012	0.085205	-0.483643
166.0	7.14924	0.308788	7.676852	-0.001802	0.014414	-0.035228	-0.43457	0.080811	-0.481201
167.0	7.116589	0.303612	7.665772	-0.001797	0.014414	-0.035231	-0.436768	0.083008	-0.476807
168.0	7.143423	0.298744	7.647826	-0.001157	0.012836	-0.032199	-0.438965	0.080811	-0.483643
169.0	7.139984	0.339002	7.630908	-0.001733	0.014053	-0.027168	-0.432373	0.080811	-0.479004
170.0	7.116329	0.313126	7.609127	-0.002088	0.014855	-0.025764	-0.432373	0.080811	-0.481201
171.0	7.134148	0.327342	7.601983	-0.008024	0.01491	-0.021966	-0.441162	0.080811	-0.479004
172.0	7.110764	0.312171	7.670832	-0.001449	0.013277	-0.02273	-0.432617	0.085205	-0.479004
173.0	7.125307	0.311436	7.632523	-0.005373	0.013071	-0.014818	-0.437012	0.085205	-0.483643
174.0	7.146635	0.339583	7.656365	-0.007968	0.014547	-0.0139	-0.43457	0.080811	-0.481201
175.0	7.125358	0.274095	7.652507	-0.006586	0.015866	-0.012823	-0.438965	0.083008	-0.483643
176.0	7.143226	0.287401	7.645366	-0.007468	0.013356	-0.013086	-0.43457	0.083008	-0.481445
177.0	7.12076	0.31303	7.6367	-0.007827	0.014158	-0.011681	-0.436768	0.080811	-0.488037
178.0	7.097289	0.285616	7.61483	-0.00733	0.012967	-0.010866	-0.432373	0.083008	-0.481445
179.0	7.131005	0.307953	7.659041	-0.00979	0.014053	-0.007726	-0.434326	0.07666	-0.48584
180.0	7.136671	0.326397	7.631394	-0.00437	0.010691	-0.013192	-0.432373	0.083008	-0.481445
181.0	7.135603	0.326774	7.632376	-0.004929	0.016409	-0.007305	-0.438965	0.080811	-0.48584
182.0	7.124409	0.293799	7.630976	-0.009787	0.014053	-0.007729	-0.439209	0.085205	-0.481445
183.0	7.126797	0.308132	7.66295	-0.010401	0.010764	-0.003548	-0.432373	0.080811	-0.481201
184.0	7.122603	0.292752	7.632701	-0.010627	0.011177	8e-05	-0.428223	0.083008	-0.483643
185.0	7.124045	0.253756	7.651431	-0.011255	0.012757	-0.002959	-0.434326	0.076416	-0.483398
186.0	7.119635	0.238581	7.621378	-0.00827	0.014984	-0.00443	-0.432373	0.083008	-0.483643
187.0	7.130968	0.232984	7.642717	-0.010664	0.011543	-0.007995	-0.432373	0.083008	-0.48584
188.0	7.140129	0.26596	7.646033	-0.007839	0.009658	-0.012541	-0.434814	0.085205	-0.48584
189.0	7.126945	0.271446	7.626427	-0.008561	0.011261	-0.009729	-0.436768	0.080811	-0.483643
190.0	7.138308	0.266409	7.647718	-0.005708	0.013879	-0.013421	-0.43457	0.083008	-0.483643
191.0	7.137333	0.266974	7.648608	-0.004356	0.010696	-0.013196	-0.436768	0.083008	-0.481445
192.0	7.127391	0.287589	7.660123	-0.004849	0.011887	-0.014013	-0.432129	0.076416	-0.476563
193.0	7.133111	0.306494	7.632462	-0.004848	0.011887	-0.014014	-0.436768	0.083008	-0.481445
194.0	7.122261	0.274074	7.630707	-0.007964	0.010048	-0.014769	-0.434814	0.085205	-0.483643
195.0	7.14602	0.263848	7.672324	-0.007442	0.013359	-0.013099	-0.430176	0.083008	-0.48584
196.0	7.130371	0.307776	7.63497	-0.004087	0.009916	-0.008754	-0.432617	0.085205	-0.479004
197.0	7.101516	0.315091	7.654514	-0.009699	0.009528	-0.014446	-0.43457	0.080811	-0.483643
198.0	7.131085	0.270053	7.654326	-0.007308	0.012969	-0.010878	-0.432373	0.083008	-0.481445
199.0	7.149127	0.283235	7.6471	-0.008683	0.011649	-0.01196	-0.436768	0.080811	-0.48584
200.0	7.104522	0.281217	7.615294	-0.006579	0.011368	-0.013693	-0.43042	0.087402	-0.486084
201.0	7.119243	0.290743	7.667578	-0.01029	0.010738	-0.009413	-0.438965	0.080811	-0.481201
202.0	7.09615	0.263044	7.645371	-0.008055	0.010068	-0.008922	-0.43457	0.080811	-0.481201
203.0	7.104441	0.243081	7.635402	-0.009924	0.009938	-0.010821	-0.436768	0.083008	-0.481445
204.0	7.154057	0.26375	7.64026	-0.009429	0.008747	-0.010005	-0.436768	0.083008	-0.481445
205.0	7.112996	0.27616	7.639269	-0.012438	0.006888	-0.016616	-0.436768	0.083008	-0.483643
206.0	7.12228	0.309241	7.642459	-0.009427	0.008747	-0.010006	-0.432617	0.085205	-0.48584
207.0	7.124063	0.270851	7.660833	-0.012541	0.006906	-0.010765	-0.432617	0.085205	-0.48584
208.0	7.1525	0.316687	7.655801	-0.011682	0.004915	-0.011355	-0.437012	0.087402	-0.486084
209.0	7.151197	0.263476	7.642947	-0.014642	0.007185	-0.009035	-0.437012	0.087402	-0.483643
210.0	7.122445	0.270043	7.662366	-0.011528	0.009026	-0.008277	-0.434814	0.087402	-0.481445
211.0	7.153292	0.277236	7.675135	-0.014898	0.00309	-0.006262	-0.438721	0.078613	-0.481201
212.0	7.140434	0.282084	7.65526	-0.010152	0.010347	-0.007194	-0.437012	0.087402	-0.481445
213.0	7.137332	0.319946	7.638153	-0.012642	0.006922	-0.004914	-0.434814	0.085205	-0.476807
214.0	7.123663	0.271811	7.604948	-0.012769	0.007314	-0.007138	-0.432373	0.080811	-0.479004
215.0	7.129491	0.300445	7.667748	-0.013005	0.007721	-0.003508	-0.434814	0.087402	-0.483643
216.0	7.134827	0.2652	7.626467	-0.012639	0.006922	-0.004916	-0.428223	0.083008	-0.479004
217.0	7.144213	0.297411	7.629622	-0.012382	0.006137	-0.000469	-0.434814	0.085205	-0.479004
218.0	7.136954	0.278161	7.658648	-0.009634	0.008778	0.001698	-0.432617	0.085205	-0.483643
219.0	7.155401	0.290444	7.651132	-0.010277	0.00586	-0.0022	-0.437012	0.085205	-0.483643
220.0	7.139355	0.280008	7.600163	-0.015451	0.008417	0.007704	-0.428223	0.083008	-0.479004
221.0	7.135211	0.274935	7.660389	-0.011498	0.008649	-0.000203	-0.441406	0.087402	-0.479248
222.0	7.171853	0.246984	7.631464	-0.014847	0.007213	0.002665	-0.436768	0.080811	-0.481201
223.0	7.133258	0.219895	7.648141	-0.011132	0.007851	-0.001611	-0.443604	0.087402	-0.488281
224.0	7.132607	0.219169	7.648769	-0.011624	0.009043	-0.002428	-0.432373	0.083008	-0.481445
225.0	7.132661	0.271434	7.662888	-0.01175	0.009436	-0.004652	-0.43457	0.080811	-0.479004
226.0	7.150097	0.230941	7.642181	-0.012607	0.011426	-0.004062	-0.436523	0.078613	-0.481201
227.0	7.136946	0.23569	7.6226	-0.014106	0.0105	-0.007371	-0.432861	0.0896	-0.486084
228.0	7.14178	0.211646	7.672141	-0.011271	0.008629	-0.011915	-0.432861	0.0896	-0.483643
229.0	7.135355	0.235298	7.624101	-0.01112	0.012736	-0.008832	-0.437012	0.085205	-0.48584
230.0	7.156658	0.262728	7.648036	-0.011634	0.009427	-0.01051	-0.432373	0.078613	-0.483643
231.0	7.102365	0.227247	7.613316	-0.01249	0.011416	-0.009919	-0.439209	0.085205	-0.481445
232.0	7.151767	0.247811	7.618527	-0.012615	0.011811	-0.012144	-0.435059	0.0896	-0.481445
233.0	7.135056	0.249411	7.658488	-0.009652	0.009547	-0.014464	-0.439209	0.087402	-0.481445
234.0	7.140857	0.268023	7.630922	-0.011366	0.013525	-0.013283	-0.430664	0.0896	-0.479248
235.0	7.130174	0.235069	7.628954	-0.012633	0.00731	-0.013008	-0.437012	0.085205	-0.481445
236.0	7.139306	0.268332	7.632362	-0.006172	0.010593	-0.015108	-0.432373	0.083008	-0.483643
237.0	7.138498	0.268784	7.633103	-0.009646	0.009547	-0.014468	-0.435059	0.0896	-0.486084
238.0	7.146867	0.249108	7.623082	-0.010012	0.010344	-0.013061	-0.432617	0.085205	-0.479004
239.0	7.130224	0.25065	7.662947	-0.011256	0.008629	-0.011925	-0.437012	0.085205	-0.48584
240.0	7.157678	0.243748	7.644865	-0.011622	0.009425	-0.010518	-0.439209	0.087402	-0.479248
241.0	7.125725	0.235957	7.633082	-0.010763	0.007437	-0.01111	-0.437012	0.087402	-0.481445
242.0	7.165393	0.223642	7.635479	-0.01297	0.012606	-0.010745	-0.432373	0.083008	-0.481445
243.0	7.155419	0.243419	7.64699	-0.008899	0.007565	-0.009206	-0.438965	0.083008	-0.483643
244.0	7.130093	0.254325	7.606894	-0.01248	0.011805	-0.018011	-0.437012	0.087402	-0.486084
245.0	7.134771	0.230516	7.656505	-0.011984	0.010221	-0.009114	-0.437012	0.087402	-0.481445
246.0	7.143743	0.26353	7.660073	-0.008264	0.010869	-0.013386	-0.43457	0.083008	-0.483643
247.0	7.17104	0.257001	7.642161	-0.008631	0.011665	-0.011978	-0.437012	0.085205	-0.483643
248.0	7.138901	0.249461	7.630531	-0.009999	0.010345	-0.013068	-0.43457	0.083008	-0.479004
249.0	7.13805	0.249567	7.631324	-0.010366	0.011141	-0.011661	-0.436768	0.080811	-0.488037
250.0	7.146536	0.229976	7.621218	-0.006541	0.006894	-0.014571	-0.434814	0.085205	-0.481445
251.0	7.139042	0.211793	7.650299	-0.008995	0.012461	-0.010573	-0.439209	0.085205	-0.48584
252.0	7.135556	0.250518	7.633624	-0.008992	0.012855	-0.018657	-0.436768	0.083008	-0.481445
253.0	7.143876	0.231118	7.623677	-0.007765	0.009678	-0.012574	-0.441406	0.0896	-0.483643
254.0	7.114773	0.238489	7.643213	-0.005024	0.012714	-0.018478	-0.438965	0.083008	-0.476807
255.0	7.166505	0.221705	7.66624	-0.008865	0.012458	-0.016435	-0.439209	0.0896	-0.486084
256.0	7.138521	0.271396	7.608703	-0.006636	0.011792	-0.015937	-0.439209	0.085205	-0.483643
257.0	7.130879	0.253584	7.637893	-0.006265	0.010997	-0.017346	-0.432617	0.087402	-0.481445
258.0	7.145846	0.252948	7.599677	-0.007614	0.014176	-0.017573	-0.43457	0.083008	-0.483643
259.0	7.128932	0.254929	7.639665	-0.005651	0.009408	-0.014305	-0.439209	0.085205	-0.481445
260.0	7.156273	0.248832	7.621773	-0.008977	0.012855	-0.018666	-0.439209	0.085205	-0.481445
261.0	7.127059	0.256327	7.641366	-0.002665	0.011652	-0.015759	-0.434814	0.087402	-0.481445
262.0	7.142098	0.255487	7.603114	-0.010842	0.012328	-0.012492	-0.438965	0.083008	-0.48584
263.0	7.165657	0.24502	7.644835	-0.006506	0.011395	-0.013717	-0.437012	0.087402	-0.486084
264.0	7.111939	0.262886	7.623579	-0.007366	0.013381	-0.013127	-0.434814	0.085205	-0.483643
265.0	7.132382	0.238113	7.634216	-0.007483	0.013779	-0.015354	-0.439209	0.087402	-0.481445
266.0	7.124574	0.220026	7.663541	-0.007363	0.013381	-0.013129	-0.432373	0.083008	-0.481445
267.0	7.16157	0.24671	7.648609	-0.008237	0.010868	-0.013404	-0.434814	0.085205	-0.481445
268.0	7.15124	0.267069	7.660348	-0.006232	0.015499	-0.016491	-0.432373	0.078613	-0.481201
269.0	7.116038	0.245454	7.617557	-0.004271	0.01073	-0.013221	-0.439209	0.087402	-0.481445
270.0	7.146352	0.253886	7.630909	-0.006614	0.011793	-0.01595	-0.432617	0.085205	-0.476807
271.0	7.107391	0.228104	7.647628	-0.007474	0.013779	-0.01536	-0.441406	0.087402	-0.483643
272.0	7.14986	0.231113	7.681489	-0.007975	0.010472	-0.017044	-0.430664	0.0896	-0.483643
273.0	7.155333	0.197513	7.640324	-0.006727	0.012192	-0.018179	-0.438965	0.080811	-0.476807
274.0	7.163972	0.231695	7.644139	-0.001259	0.01338	-0.022762	-0.432373	0.083008	-0.476807
275.0	7.172539	0.266109	7.648006	-0.005219	0.013516	-0.022951	-0.432617	0.087402	-0.479248
276.0	7.142885	0.221116	7.653926	-0.004728	0.012324	-0.022134	-0.434814	0.085205	-0.483643
277.0	7.117449	0.233054	7.613929	-0.006578	0.012194	-0.024047	-0.434814	0.085205	-0.479004
278.0	7.147616	0.242413	7.627403	-0.002844	0.012857	-0.028315	-0.435059	0.0896	-0.481445
279.0	7.118209	0.250687	7.647031	-0.003589	0.014444	-0.0255	-0.438965	0.080811	-0.488037
280.0	7.145449	0.245758	7.629326	-0.002348	0.011666	-0.027501	-0.438965	0.080811	-0.481201
281.0	7.135126	0.267211	7.640952	-0.004456	0.011929	-0.025779	-0.434814	0.087402	-0.481445
282.0	7.15568	0.243566	7.651533	-0.004942	0.013121	-0.0266	-0.432617	0.085205	-0.483643
283.0	7.133071	0.27023	7.642765	-0.00445	0.01193	-0.025783	-0.441406	0.085205	-0.476807
284.0	7.132123	0.271432	7.643607	-0.010031	0.011132	-0.023432	-0.432617	0.087402	-0.476807
285.0	7.150106	0.285746	7.636614	-0.002857	0.012456	-0.020235	-0.439209	0.085205	-0.483643
286.0	7.149071	0.286908	7.637539	-0.005081	0.013117	-0.020741	-0.436768	0.080811	-0.483643
287.0	7.147955	0.287871	7.638547	-0.00768	0.014571	-0.019838	-0.432373	0.083008	-0.483643
288.0	7.137355	0.255553	7.636577	-0.006587	0.011789	-0.015972	-0.430176	0.083008	-0.483643
289.0	7.139194	0.270572	7.668694	-0.00881	0.012449	-0.016479	-0.437012	0.085205	-0.483643
290.0	7.12589	0.276438	7.649239	-0.00609	0.015097	-0.014289	-0.434814	0.085205	-0.481445
291.0	7.143851	0.29028	7.642294	-0.007453	0.009274	-0.016251	-0.434814	0.085205	-0.481445
292.0	7.145714	0.252204	7.660562	-0.010318	0.011119	-0.011711	-0.432617	0.087402	-0.474609
293.0	7.123253	0.277216	7.651666	-0.011941	0.010188	-0.009169	-0.437012	0.087402	-0.481445
294.0	7.122367	0.277263	7.652489	-0.006844	0.012183	-0.012339	-0.434814	0.085205	-0.483643
295.0	7.130895	0.257753	7.642536	-0.009937	0.010327	-0.013123	-0.443359	0.080811	-0.481201
296.0	7.14903	0.271284	7.635456	-0.007712	0.009668	-0.012617	-0.437012	0.087402	-0.479248
297.0	7.126602	0.243724	7.612704	-0.009336	0.008736	-0.010076	-0.437012	0.085205	-0.483643
298.0	7.137997	0.29119	7.647728	-0.009331	0.013235	-0.009209	-0.432373	0.083008	-0.479004
299.0	7.149216	0.285703	7.669107	-0.010578	0.011511	-0.008078	-0.437012	0.087402	-0.481445
300.0	7.105049	0.282848	7.636784	-0.010088	0.010319	-0.007259	-0.427979	0.078857	-0.479004
301.0	7.14219	0.256191	7.60806	-0.012583	0.006871	-0.004995	-0.437012	0.0896	-0.483643
302.0	7.144225	0.322954	7.653806	-0.009107	0.012435	-0.004753	-0.432617	0.085205	-0.48584
303.0	7.143375	0.269521	7.640809	-0.011492	0.008585	-0.000261	-0.43457	0.083008	-0.481445
304.0	7.133222	0.288433	7.652286	-0.010134	0.009909	0.000836	-0.441162	0.083008	-0.479004
305.0	7.154162	0.262398	7.662644	-0.011381	0.008185	0.001967	-0.43457	0.083008	-0.48584
306.0	7.13861	0.252418	7.611545	-0.009645	0.008718	0.001655	-0.434814	0.085205	-0.479004
307.0	7.140668	0.265823	7.643468	-0.009914	0.009108	0.005293	-0.437012	0.085205	-0.479004
308.0	7.168458	0.258071	7.625498	-0.012896	0.00685	0.006735	-0.43042	0.085205	-0.483643
309.0	7.139418	0.262947	7.644735	-0.014626	0.010816	0.007914	-0.435059	0.0896	-0.479248
310.0	7.145426	0.279928	7.617262	-0.012294	0.009755	0.010651	-0.437012	0.085205	-0.479004
311.0	7.140668	0.221256	7.663617	-0.011536	0.008174	0.007832	-0.441162	0.083008	-0.481201
312.0	7.142695	0.128494	7.667809	-0.013271	0.007642	0.008142	-0.437012	0.085205	-0.483643
313.0	7.258376	-0.059982	7.782721	-0.002984	0.003472	-0.016111	-0.43042	0.087402	-0.479248
314.0	7.314731	0.141664	7.801481	0.033453	0.011389	-0.041927	-0.432861	0.0896	-0.481445
315.0	7.477505	0.106555	7.752931	0.060541	0.077935	-0.070522	-0.43457	0.080811	-0.483643
316.0	7.627424	-0.224401	7.86905	0.098323	0.170192	-0.102593	-0.43457	0.083008	-0.483643
317.0	7.684517	-0.245591	7.918762	0.174988	0.274639	-0.161513	-0.436768	0.080811	-0.488037
318.0	7.731882	-0.432274	8.136421	0.253092	0.403343	-0.205872	-0.430176	0.078857	-0.488037
319.0	8.008611	-0.446966	7.833117	0.333148	0.504294	-0.280732	-0.427979	0.078857	-0.492676
320.0	8.81622	-0.73509	8.145008	0.458154	0.698428	-0.385372	-0.425293	0.067871	-0.494629
321.0	8.055153	-0.754281	8.015329	0.615039	0.843709	-0.458286	-0.420898	0.065674	-0.49707
322.0	7.901969	-0.636498	8.001595	0.671585	0.883051	-0.44865	-0.414063	0.061523	-0.496826
323.0	6.960609	-0.192469	7.774081	0.702985	0.890591	-0.443667	-0.417969	0.052734	-0.499023
324.0	6.997807	0.517845	7.961732	0.699194	0.849991	-0.43189	-0.411377	0.04834	-0.508057
325.0	6.824802	1.198628	7.709458	0.678758	0.809983	-0.38708	-0.406738	0.046143	-0.512451
326.0	6.266581	2.067837	7.787756	0.630257	0.734993	-0.337876	-0.406494	0.037598	-0.514648
327.0	6.085188	2.31935	7.8562	0.525536	0.662622	-0.295538	-0.404297	0.037598	-0.514648
328.0	5.908142	2.225891	7.862906	0.437937	0.599445	-0.256272	-0.404053	0.033203	-0.516846
329.0	5.576008	2.160655	7.841998	0.338814	0.511815	-0.205139	-0.395264	0.031006	-0.519043
330.0	6.391614	2.295768	8.261026	0.228083	0.426608	-0.135977	-0.39502	0.024414	-0.52124
331.0	6.915272	2.131151	8.345153	0.104846	0.452514	-0.068396	-0.392822	0.026611	-0.523682
332.0	6.278977	0.941521	8.144532	0.051767	0.45122	-0.04782	-0.386475	0.031006	-0.525879
333.0	5.770248	0.564676	8.087295	0.072862	0.421552	-0.040195	-0.388428	0.026855	-0.530518
334.0	6.36849	0.813394	8.263747	0.096517	0.398425	-0.049398	-0.384033	0.024658	-0.525879
335.0	6.56222	0.841964	8.350347	0.108565	0.417805	-0.065558	-0.383789	0.020264	-0.532471
336.0	6.750929	0.76583	8.479068	0.126485	0.428351	-0.080588	-0.379395	0.020264	-0.537109
337.0	6.985498	0.861881	8.560082	0.147051	0.464439	-0.108916	-0.379395	0.018066	-0.532471
338.0	6.744545	0.896981	8.492829	0.161657	0.501136	-0.138413	-0.375244	0.024658	-0.532715
339.0	6.47777	0.869901	8.399474	0.177608	0.509254	-0.158077	-0.377441	0.020264	-0.534912
340.0	6.248319	0.992633	8.362151	0.193288	0.511574	-0.169213	-0.374756	0.011475	-0.532471
341.0	6.240798	1.293138	8.439425	0.210084	0.505597	-0.17581	-0.374756	0.013672	-0.532471
342.0	6.180942	1.661921	8.412474	0.192612	0.507517	-0.161412	-0.375	0.015869	-0.539307
343.0	5.581681	1.828076	8.286156	0.157485	0.490452	-0.138126	-0.36792	0.005127	-0.541504
344.0	5.114233	1.622488	8.21439	0.113549	0.428495	-0.107105	-0.36377	0.009521	-0.539307
345.0	5.184832	1.329842	8.259168	0.086516	0.354311	-0.074614	-0.363525	0.005127	-0.550537
346.0	5.559401	1.004395	8.39199	0.085943	0.290716	-0.063717	-0.361572	0.009521	-0.539307
347.0	5.845831	0.897438	8.428753	0.102126	0.239592	-0.066772	-0.36377	0.009521	-0.541504
348.0	5.890212	1.023001	8.402745	0.134007	0.187639	-0.061005	-0.359375	0.007324	-0.539063
349.0	5.814313	1.422416	8.400606	0.157271	0.110784	-0.050769	-0.361572	0.007324	-0.536865
350.0	5.816032	2.034484	8.416081	0.148646	0.009144	0.002355	-0.359619	0.011719	-0.537109
351.0	5.811584	2.782175	8.499545	0.10846	-0.114101	0.102104	-0.36377	0.009521	-0.536865
352.0	5.705444	1.936387	8.940953	-0.007853	-0.267103	0.396182	-0.359375	0.009521	-0.530029
353.0	6.14749	0.902084	10.046379	-0.129402	-0.418706	0.895941	-0.361816	0.016113	-0.530273
354.0	5.322812	1.438117	10.766563	-0.389067	-0.553895	1.555239	-0.366943	0.03125	-0.521484
355.0	4.624092	5.311732	11.449749	-0.982792	-0.613336	2.365118	-0.36792	0.052979	-0.526367
356.0	1.663764	3.62082	16.375897	-2.316509	-0.884189	3.384336	-0.371094	0.077148	-0.517822
357.0	3.262152	-4.473877	14.783635	-1.339238	-1.511945	3.6211	-0.380859	0.10083	-0.509033
358.0	6.293318	0.845002	16.650916	0.222856	-1.51278	3.451645	-0.377197	0.114014	-0.498047
359.0	5.212184	9.203566	17.256857	0.359349	-1.281678	3.514467	-0.375732	0.129395	-0.491455
360.0	2.208491	10.033623	15.983069	-0.321646	-1.002426	3.471116	-0.367676	0.146729	-0.487305
361.0	-0.834845	6.780609	14.550889	-0.587056	-0.862063	3.110924	-0.364014	0.159912	-0.485107
362.0	-2.940899	4.547674	13.759754	-0.150312	-0.795466	2.469534	-0.353516	0.173096	-0.474121
363.0	-3.916131	5.105875	13.972135	0.452414	-0.727547	1.752503	-0.342529	0.170898	-0.478516
364.0	-3.724726	6.028824	14.774286	0.791631	-0.592659	1.114785	-0.320557	0.166748	-0.483154
365.0	-4.014211	5.422117	15.386353	0.963309	-0.335147	0.522426	-0.306885	0.153809	-0.48291
366.0	-4.974189	4.000971	15.35592	1.169005	-0.064699	-0.05694	-0.282471	0.145264	-0.482666
367.0	-5.409794	2.904295	15.302434	1.391911	0.195668	-0.578972	-0.26001	0.125732	-0.496094
368.0	-5.281353	2.056157	15.438687	1.531803	0.462385	-1.012349	-0.219727	0.106201	-0.48877
369.0	-4.377588	1.242916	15.89374	1.611365	0.745683	-1.364073	-0.186279	0.089111	-0.490967
370.0	-2.630447	0.604778	16.458997	1.648533	1.107345	-1.662822	-0.132813	0.06543	-0.483643
371.0	-1.333773	0.592857	16.780093	1.53767	1.540134	-1.895311	-0.088867	0.054688	-0.476563
372.0	-0.554683	0.167639	16.557739	1.267283	1.944357	-2.043588	-0.027344	0.044189	-0.456055
373.0	0.413325	-0.615536	16.042247	0.974732	2.272503	-2.135002	0.03833	0.042236	-0.426514
374.0	1.484781	-1.167175	15.408825	0.721928	2.534746	-2.149108	0.101563	0.042725	-0.389893
375.0	2.343769	-1.27685	14.893128	0.488901	2.727924	-2.102455	0.157959	0.047119	-0.333252
376.0	3.276942	-1.447597	14.360925	0.265542	2.883211	-2.013031	0.198975	0.060303	-0.271973
377.0	3.985698	-1.520422	13.614186	0.108171	3.003897	-1.900418	0.235107	0.080078	-0.185791
378.0	4.299424	-1.28673	12.74733	0.003855	3.04672	-1.765818	0.247314	0.097412	-0.101807
379.0	4.877218	-1.014668	11.993929	-0.056554	3.001729	-1.620558	0.226807	0.118896	-0.020264
380.0	5.635297	-0.49991	11.326527	-0.087289	2.925425	-1.501095	0.197998	0.129395	0.054932
381.0	6.314494	0.156443	10.784934	-0.118421	2.827403	-1.392339	0.144775	0.150879	0.106934
382.0	7.232237	0.85322	10.312973	-0.216822	2.726346	-1.262408	0.070557	0.152344	0.152588
383.0	8.039598	1.058557	9.87403	-0.345513	2.663589	-1.135146	0.005127	0.151855	0.173096
384.0	8.620585	0.840561	9.395652	-0.436665	2.617514	-1.047411	-0.068848	0.14917	0.175537
385.0	9.432987	0.460211	9.003131	-0.419526	2.608359	-1.026909	-0.133789	0.135742	0.164551
386.0	9.463988	0.326653	8.247421	-0.328223	2.617999	-1.063017	-0.185791	0.126709	0.139648
387.0	8.823838	0.31729	7.255238	-0.232175	2.574328	-1.085687	-0.237549	0.115479	0.105713
388.0	8.052319	0.117989	6.228829	-0.134271	2.412428	-1.047973	-0.269531	0.0979	0.078857
389.0	7.844735	-0.127293	5.471896	-0.038668	2.169817	-0.938957	-0.301758	0.089111	0.040283
390.0	8.022119	-0.516962	4.947744	0.068472	1.907708	-0.773005	-0.327393	0.075928	0.013184
391.0	8.126948	-0.693627	4.347376	0.162626	1.627361	-0.577108	-0.344238	0.062744	-0.029785
392.0	7.991307	-0.841949	3.752689	0.224011	1.308906	-0.355664	-0.359375	0.05835	-0.054688
393.0	8.328399	-0.842693	3.36916	0.243562	0.967402	-0.105007	-0.371826	0.04541	-0.086426
394.0	8.710158	-0.846076	3.068711	0.23361	0.639013	0.164212	-0.374023	0.043213	-0.102295
395.0	8.593936	-0.791985	2.709033	0.184783	0.294912	0.448428	-0.391357	0.041016	-0.122803
396.0	8.434528	-0.563724	2.325642	0.096127	-0.085238	0.746147	-0.399902	0.036621	-0.129395
397.0	8.329351	-0.212798	1.92442	-0.049769	-0.515276	1.050127	-0.408936	0.043213	-0.143311
398.0	8.377594	0.001076	1.445714	-0.256352	-1.000844	1.355332	-0.411133	0.047363	-0.143311
399.0	8.744423	0.423109	0.954081	-0.502849	-1.517509	1.610449	-0.424561	0.053955	-0.145752
400.0	9.101174	0.831993	0.461423	-0.821722	-2.034153	1.81889	-0.427002	0.060303	-0.136719
401.0	9.700206	1.031802	0.262286	-1.14349	-2.557745	1.952964	-0.440674	0.073486	-0.136963
402.0	11.881482	1.070767	0.988081	-1.355362	-3.028433	2.000945	-0.44751	0.079834	-0.114258
403.0	14.449333	0.243981	1.490692	-1.354003	-3.226958	1.872841	-0.463623	0.097168	-0.098633
404.0	15.213922	-0.182896	1.953968	-1.04241	-3.240638	1.53908	-0.468018	0.101563	-0.071533
405.0	15.700304	0.10892	2.475327	-0.518206	-3.160697	1.010316	-0.48584	0.110107	-0.055664
406.0	16.084782	0.920734	2.964799	0.134452	-2.947093	0.304526	-0.483643	0.105713	-0.037354
407.0	16.316654	3.103838	3.85495	0.683458	-2.603808	-0.393688	-0.492188	0.101074	-0.009766
408.0	-7.549892	1.45345	15.94738	1.147162	-1.959776	-1.081684	-0.498291	0.092285	0.013184
409.0	-29.240117	7.712416	37.683986	2.186355	-3.200537	-2.13297	-0.508545	0.081299	0.031494
410.0	8.324526	11.942388	21.259963	-1.110255	-3.3368	-1.093751	-0.516602	0.065918	0.041016
411.0	2.035877	9.536872	-5.331668	-0.379287	-4.171527	-1.452637	-0.51416	0.057129	0.068604
412.0	25.931875	1.824638	14.295709	-1.295892	-3.942697	-1.64035	-0.520264	0.046143	0.084717
413.0	18.059062	-2.92291	9.197823	-1.455641	-2.871784	-1.336346	-0.519775	0.037354	0.10083
414.0	17.360156	-11.826032	11.593076	-0.795583	-2.688223	-0.17338	-0.517578	0.035156	0.119141
415.0	14.257675	-9.18637	9.337636	0.19758	-2.135229	0.427742	-0.519775	0.039551	0.132813
416.0	8.484575	6.207235	8.305663	0.413296	-1.968024	-0.014039	-0.513184	0.037354	0.144043
417.0	8.215334	2.32179	8.822272	0.077733	-1.924302	0.038481	-0.513184	0.037354	0.162354
418.0	10.614885	-0.820507	9.011042	0.184826	-1.747192	0.032571	-0.508789	0.037354	0.176025
419.0	18.036634	4.44393	12.237063	0.137455	-1.456375	0.104241	-0.509033	0.039551	0.182861
420.0	10.506281	2.98413	7.992375	-0.256854	-0.547373	0.205527	-0.502441	0.041748	0.187256
421.0	6.608013	0.445392	8.578015	-0.227696	-0.534834	0.200536	-0.504395	0.035156	0.189697
422.0	8.110609	1.373534	8.223249	-0.19189	-0.500339	0.199232	-0.509033	0.039307	0.196533
423.0	7.896792	0.517987	8.221075	-0.181335	-0.362467	0.145486	-0.502686	0.043701	0.19873
424.0	7.620362	0.741815	8.217383	-0.138781	-0.278259	0.094371	-0.504883	0.045898	0.203125
425.0	7.413013	0.575398	8.152513	-0.116507	-0.214845	0.048434	-0.498291	0.043701	0.205566
426.0	7.074906	0.665733	8.027154	-0.093138	-0.189536	0.015679	-0.502686	0.043701	0.19873
427.0	6.921992	0.526675	7.995834	-0.077242	-0.18166	-0.003987	-0.500488	0.045898	0.207764
428.0	6.828084	0.445641	7.970992	-0.059102	-0.192841	-0.031282	-0.498291	0.043701	0.207764
429.0	6.678473	0.546241	7.863289	-0.034117	-0.20619	-0.054647	-0.502686	0.043701	0.205566
430.0	6.551587	0.767299	7.844819	-0.027568	-0.240421	-0.052695	-0.49585	0.041748	0.207764
431.0	6.415871	0.920114	7.764862	-0.03269	-0.27577	-0.04837	-0.5	0.037354	0.212402
432.0	6.318786	1.240713	7.663061	-0.046107	-0.331129	-0.023099	-0.498047	0.039551	0.210205
433.0	6.305485	1.588961	7.577982	-0.067835	-0.37754	0.021303	-0.498047	0.039307	0.219238
434.0	6.401789	1.811242	7.556357	-0.116834	-0.41794	0.086441	-0.491455	0.037354	0.219238
435.0	6.669562	1.869962	7.615215	-0.161121	-0.440309	0.154157	-0.491455	0.039551	0.223877
436.0	6.848531	1.783429	7.616018	-0.231662	-0.424846	0.23088	-0.489014	0.032959	0.226318
437.0	6.762021	1.545851	7.653513	-0.315459	-0.409162	0.288898	-0.484619	0.030762	0.226318
438.0	7.059397	1.329137	7.76929	-0.404388	-0.398611	0.340531	-0.463135	0.037354	0.221436
439.0	7.042275	1.803621	7.788348	-0.505584	-0.358867	0.414343	-0.461914	0.061523	0.202881
440.0	7.280182	1.989698	7.712192	-0.665406	-0.302735	0.522832	-0.468262	0.103027	0.204346
441.0	7.429956	1.637133	7.816796	-0.772156	-0.220378	0.598729	-0.501465	0.115723	0.229248
442.0	7.286359	1.492545	7.731915	-0.830534	-0.131097	0.662257	-0.513672	0.095947	0.243164
443.0	7.46409	0.569691	7.636922	-0.824053	-0.04214	0.691289	-0.508545	0.080811	0.24585
444.0	7.590486	-0.857112	7.717945	-0.750209	0.020056	0.622267	-0.499512	0.074219	0.250488
445.0	7.610704	-1.464296	7.601376	-0.610106	0.063867	0.469768	-0.501709	0.074219	0.243652
446.0	7.580805	-1.135454	7.710215	-0.487865	0.045624	0.334143	-0.501709	0.072021	0.243652
447.0	7.359182	-0.555243	7.763972	-0.406524	-0.001661	0.255968	-0.495117	0.072021	0.246094
448.0	7.250514	-0.131487	7.831533	-0.368447	-0.046022	0.23203	-0.49292	0.069824	0.250488
449.0	7.233612	-0.355844	7.87579	-0.356629	-0.088905	0.222342	-0.49292	0.072021	0.248291
450.0	7.209668	-0.800188	8.003054	-0.317164	-0.147217	0.182661	-0.490723	0.070068	0.246094
451.0	6.90525	1.373981	8.989822	-0.344794	-0.268991	0.210659	-0.490967	0.076416	0.250488
452.0	7.031811	1.310918	8.888379	-0.470438	-0.413345	0.341626	-0.490967	0.074219	0.250488
453.0	6.636832	-0.937264	9.050381	-0.519103	-0.616638	0.432481	-0.490967	0.078613	0.250488
454.0	6.660175	-1.846709	9.40427	-0.254453	-0.995348	0.289044	-0.484619	0.078613	0.257324
455.0	6.616659	-2.033621	9.393168	-0.143563	-1.356836	0.134918	-0.486816	0.083008	0.263916
456.0	6.566163	-2.597439	9.473078	-0.009468	-1.729964	-0.023178	-0.478027	0.080811	0.270752
457.0	6.520041	-2.887093	9.640687	0.172549	-2.152893	-0.208687	-0.471436	0.080811	0.289063
458.0	5.994437	-2.285243	9.789452	0.329622	-2.620551	-0.377975	-0.4646	0.074463	0.293701
459.0	5.417862	-1.545704	9.871763	0.439209	-3.153	-0.548273	-0.45166	0.074463	0.305176
460.0	4.972269	-1.119455	10.061906	0.495256	-3.683841	-0.669412	-0.433838	0.067871	0.323486
461.0	4.720569	-1.25856	9.852582	0.54368	-4.224352	-0.710737	-0.427246	0.067871	0.346191
462.0	4.498091	-1.665705	9.55735	0.582253	-4.781097	-0.812987	-0.407227	0.059326	0.362305
463.0	4.127415	-2.528022	10.164253	0.604235	-5.26524	-0.958947	-0.389893	0.059326	0.38501
464.0	3.152594	-2.107823	11.749217	0.375429	-5.804388	-0.997864	-0.365234	0.046387	0.412598
465.0	2.08057	0.522838	11.17709	0.203186	-6.679042	-1.547908	-0.341064	0.041992	0.437744
466.0	3.075332	-1.377932	9.456669	0.37239	-7.828384	-1.89473	-0.305908	0.033447	0.467529
467.0	7.192782	-0.83331	7.392827	1.090234	-9.220551	-2.131947	-0.270508	0.022705	0.50415
468.0	16.382764	2.070806	7.894891	1.14287	-10.234142	-2.139274	-0.211426	0.018555	0.533936
469.0	27.780913	0.96245	5.388061	0.991254	-10.749993	-2.081051	-0.156738	0.016602	0.565674
470.0	30.000586	4.707191	6.431096	1.19356	-10.581116	-1.509925	-0.102295	0.01709	0.581543
471.0	27.823174	5.161106	8.602414	1.484361	-10.140124	-0.736558	-0.05249	0.02832	0.601807
472.0	30.781587	7.16126	10.714184	1.819283	-9.136847	-0.299977	-0.011475	0.037109	0.606201
473.0	36.667426	2.010597	26.072925	1.619983	-6.163105	-0.146202	-0.005371	0.045898	0.605957
474.0	26.34459	-3.519024	34.458355	2.609829	-1.820634	0.724214	-0.012939	0.067627	0.605469
475.0	21.95068	3.997489	33.94552	2.415868	0.773739	2.326009	-0.041992	0.082764	0.587158
476.0	7.086261	3.383669	25.394574	2.289859	2.614882	3.480369	-0.075684	0.104492	0.572998
477.0	2.91873	5.238954	20.282256	2.284888	2.894337	4.048909	-0.106934	0.124023	0.561279
478.0	5.948764	6.357108	17.866313	2.266124	3.320315	3.962539	-0.128174	0.156738	0.535645
479.0	6.981172	7.537053	16.120734	2.076622	4.016995	3.548836	-0.174805	0.178223	0.523926
480.0	6.402986	8.026026	14.542127	1.739967	4.798053	3.043581	-0.203857	0.193359	0.491699
481.0	4.912339	7.366461	12.913817	1.395559	5.457374	2.563952	-0.246094	0.212891	0.466309
482.0	3.848836	6.076397	11.249826	1.196073	5.889257	2.079798	-0.279785	0.230225	0.427246
483.0	3.114961	5.413716	9.700865	1.149176	6.103724	1.531846	-0.311035	0.245361	0.390381
484.0	2.993201	5.651628	8.577716	1.10679	6.159897	0.954767	-0.337402	0.251709	0.358398
485.0	3.511605	6.274346	7.832421	0.929491	6.152039	0.408623	-0.37085	0.26709	0.308105
486.0	4.487933	6.340041	7.685979	0.592003	6.142231	-0.06762	-0.394775	0.264648	0.262695
487.0	5.8626	5.170428	7.711441	0.32175	6.160706	-0.541248	-0.418457	0.258301	0.217041
488.0	7.392972	4.308034	7.822114	0.260116	6.189598	-0.990065	-0.431152	0.251709	0.155762
489.0	8.959287	4.225216	7.988086	0.269366	6.267501	-1.366385	-0.434814	0.232178	0.108398
490.0	9.938128	4.420928	8.14105	0.218837	6.361772	-1.663123	-0.429443	0.212646	0.06543
491.0	10.38259	4.20883	8.33411	0.161176	6.351969	-1.853427	-0.433105	0.19751	0.031494
492.0	10.457814	3.19473	8.58323	0.252727	6.223645	-2.034899	-0.42627	0.188965	-0.009277
493.0	10.468964	3.233137	8.664744	0.499975	5.915042	-2.135992	-0.421387	0.180176	-0.050293
494.0	11.89368	4.300614	9.560176	0.699127	5.466172	-2.110298	-0.405518	0.163086	-0.083984
495.0	15.352772	5.259093	10.523135	0.788957	5.050853	-1.992089	-0.385498	0.154541	-0.118164
496.0	19.191111	7.200381	11.201854	0.627885	4.775333	-1.747378	-0.363281	0.143799	-0.131592
497.0	22.213313	8.840343	11.340367	0.075239	4.648809	-1.370372	-0.347412	0.130859	-0.140625
498.0	24.990011	7.65753	10.669894	-0.633411	4.602373	-0.978823	-0.32959	0.12207	-0.142578
499.0	27.260834	0.487277	9.500778	-0.872214	4.621962	-0.965433	-0.310059	0.124512	-0.156494
500.0	32.298866	-6.038478	8.444374	0.078579	4.759674	-1.592618	-0.302979	0.11377	-0.163086
501.0	37.109326	-7.812137	6.697247	1.498982	5.345593	-2.509841	-0.293701	0.102783	-0.171875
502.0	35.32823	-5.531378	3.360399	2.389426	6.045694	-3.374212	-0.280029	0.087646	-0.194336
503.0	30.735896	-4.540521	-1.370356	2.483035	6.345115	-4.000403	-0.274902	0.07251	-0.212402
504.0	26.738016	-4.795122	-5.841293	2.263144	6.081246	-4.419365	-0.269531	0.050781	-0.234863
505.0	26.132587	-4.360858	-9.391545	1.777818	5.380613	-4.48562	-0.260254	0.037842	-0.24585
506.0	26.87598	-4.379132	-13.826524	1.027207	4.497418	-3.883029	-0.244385	0.022705	-0.261475
507.0	25.283597	-9.068954	-18.88041	0.364537	3.520392	-2.628803	-0.239502	0.011719	-0.277344
508.0	21.855161	-15.676286	-22.272244	0.642378	2.201974	-1.269838	-0.230957	0.013916	-0.281982
509.0	21.101364	-14.755468	-21.650045	1.426829	0.678209	0.026316	-0.230713	0.009766	-0.277344
510.0	23.776493	-9.669158	-17.675022	1.397251	-0.565315	1.264521	-0.224854	0.024902	-0.279785
511.0	26.942707	-6.447943	-12.552931	0.631907	-1.23906	2.238823	-0.236328	0.038086	-0.277832
512.0	27.717114	-4.183735	-7.570994	-0.343854	-1.469032	2.842057	-0.228516	0.057617	-0.273682
513.0	18.019949	-6.28566	-0.120411	-1.101493	-1.382677	3.152464	-0.229736	0.08374	-0.27417
514.0	-13.751304	-1.993242	48.850608	-0.018521	-2.508106	3.587657	-0.230469	0.101318	-0.27002
515.0	-16.916049	24.631553	4.602318	-2.971022	-2.170983	4.576273	-0.236328	0.134033	-0.270508
516.0	14.95529	-2.195307	-1.001489	-2.728315	-5.764865	3.806588	-0.230469	0.151367	-0.248291
517.0	29.430519	-6.840736	13.120995	-1.649659	-3.670554	0.26624	-0.239258	0.153564	-0.250488
518.0	11.737319	-4.316037	7.693688	-0.72771	-3.790472	-1.273302	-0.243896	0.157959	-0.243652
519.0	15.08346	-8.846872	11.305967	-0.66656	-3.389227	-0.658619	-0.235352	0.160156	-0.237061
520.0	8.295998	-5.71595	8.119169	-0.098414	-3.241486	0.224549	-0.237793	0.170898	-0.22583
521.0	10.54559	7.488192	7.598101	-0.070997	-3.1653	0.191158	-0.23584	0.175293	-0.218994
522.0	13.160992	2.052751	8.709272	-0.39606	-2.998002	0.18271	-0.233887	0.179688	-0.212158
523.0	13.793491	-3.250898	9.804184	-0.225047	-2.550549	0.174366	-0.227539	0.181885	-0.209961
524.0	11.87808	1.169152	8.914808	0.033079	-2.197312	0.037673	-0.225342	0.184082	-0.203125
525.0	24.188108	7.67504	14.672308	-0.329739	-1.60617	0.236124	-0.230225	0.195068	-0.203369
526.0	8.399636	-1.843993	7.026169	-0.618385	-0.702149	0.368065	-0.228271	0.197266	-0.198975
527.0	7.922016	-3.144969	8.424403	-0.272659	-0.594037	0.250086	-0.228271	0.199463	-0.198975
528.0	8.720018	1.56507	8.430575	-0.169572	-0.50986	0.200115	-0.228271	0.201416	-0.196777
529.0	7.999602	-0.229747	8.353404	-0.191693	-0.371149	0.170373	-0.227783	0.190674	-0.203369
530.0	7.825226	-0.436435	8.311393	-0.11996	-0.293449	0.091042	-0.230469	0.199219	-0.192139
531.0	7.521461	-0.365078	8.2368	-0.068922	-0.232126	0.008409	-0.230225	0.195068	-0.196533
532.0	7.385327	-0.879801	8.189103	0.004835	-0.188688	-0.082144	-0.232422	0.197021	-0.189697
533.0	7.155166	-0.594605	8.06014	0.08661	-0.155993	-0.17232	-0.230225	0.195068	-0.189697
534.0	6.732856	0.045363	7.909903	0.138328	-0.14079	-0.22671	-0.223633	0.195068	-0.192139
535.0	6.570743	0.556458	7.806149	0.154498	-0.160597	-0.24158	-0.232422	0.194824	-0.189697
536.0	6.581093	0.914862	7.786842	0.145843	-0.17947	-0.232992	-0.225586	0.190674	-0.180664
537.0	6.502232	1.100787	7.757403	0.116132	-0.201937	-0.213527	-0.22998	0.190674	-0.180664
538.0	6.366012	1.521467	7.678403	0.079682	-0.233578	-0.176587	-0.220947	0.181885	-0.178223
539.0	6.389328	1.774403	7.773236	0.009434	-0.273003	-0.107097	-0.218506	0.17749	-0.171143
540.0	6.280434	2.389986	7.738145	-0.072487	-0.292932	-0.022509	-0.203125	0.175537	-0.182617
541.0	5.781075	3.511341	7.644327	-0.252984	-0.331442	0.141657	-0.18042	0.199707	-0.210449
542.0	5.608389	3.995824	7.458531	-0.492276	-0.403425	0.370436	-0.191162	0.245361	-0.220459
543.0	6.100161	4.231144	7.286688	-0.806841	-0.461218	0.647728	-0.222412	0.262695	-0.202637
544.0	6.585395	3.301762	7.698187	-1.11349	-0.451982	0.935404	-0.239502	0.253906	-0.179443
545.0	8.081667	1.6689	7.899291	-1.293458	-0.351766	1.069987	-0.236572	0.238525	-0.174561
546.0	8.327632	0.064914	7.557533	-1.247409	-0.157857	0.984111	-0.227539	0.231934	-0.174561
547.0	7.740337	-0.521647	7.481149	-1.017259	-0.064931	0.767583	-0.229736	0.234131	-0.179199
548.0	8.387622	-1.869504	7.553297	-0.867463	-0.040257	0.62455	-0.227539	0.234131	-0.183838
549.0	7.943901	-3.415059	7.464749	-0.625182	-0.019849	0.437632	-0.225586	0.236328	-0.186035
550.0	7.422969	-1.483462	8.013993	-0.422573	-0.045086	0.326559	-0.221436	0.240723	-0.186035
551.0	7.249699	0.124734	8.635595	-0.460873	-0.097982	0.350817	-0.223633	0.240723	-0.183838
552.0	7.062231	-0.91754	8.357376	-0.465003	-0.196943	0.383634	-0.219238	0.240967	-0.188477
553.0	7.112304	-0.752371	8.40871	-0.39638	-0.316958	0.375161	-0.219482	0.245117	-0.186279
554.0	6.989802	-1.102953	8.433133	-0.342807	-0.451811	0.336219	-0.22168	0.245117	-0.181641
555.0	6.692069	-1.502226	8.929351	-0.377708	-0.631699	0.307002	-0.223389	0.238525	-0.186035
556.0	6.425394	-2.763797	9.499978	-0.161684	-1.017785	0.133029	-0.217041	0.23877	-0.177002
557.0	6.376143	-2.730538	9.638357	-0.045408	-1.406157	-0.056747	-0.221191	0.236328	-0.172363
558.0	6.330528	-3.295579	9.686925	0.075346	-1.835681	-0.233927	-0.218994	0.238525	-0.161133
559.0	6.456994	-3.641656	9.791749	0.259223	-2.318599	-0.435547	-0.212158	0.22998	-0.158691
560.0	5.902804	-3.135554	10.055258	0.454607	-2.833092	-0.650337	-0.218506	0.225342	-0.135742
561.0	4.939163	-1.790139	10.499845	0.607064	-3.465596	-0.881351	-0.211426	0.2146	-0.121826
562.0	4.165614	-1.291374	10.783342	0.658606	-4.154976	-1.067939	-0.202393	0.205811	-0.09668
563.0	3.612542	-0.410673	10.892509	0.709132	-4.872993	-1.115341	-0.195557	0.201416	-0.07373
564.0	3.164974	-0.423071	10.813035	0.728016	-5.605424	-1.114263	-0.184326	0.194824	-0.048584
565.0	2.439034	-1.835946	12.370789	0.741231	-6.308776	-1.071821	-0.162109	0.181885	-0.032227
566.0	1.679664	-0.702446	13.222928	0.472937	-7.157621	-1.402559	-0.139893	0.17334	-0.000244
567.0	1.361748	-1.40225	11.485826	0.296865	-8.152372	-1.991101	-0.11084	0.160156	0.024902
568.0	6.335768	-0.458832	9.044043	0.922668	-9.66396	-2.226046	-0.064453	0.147461	0.054932
569.0	19.848162	0.752786	8.264029	1.168201	-10.858941	-2.100947	-0.020508	0.141113	0.084473
570.0	34.703995	2.139165	6.747126	1.377237	-11.290629	-2.008588	0.028076	0.125977	0.116699
571.0	35.598245	5.072228	8.109739	1.994801	-10.802383	-1.576305	0.07666	0.113037	0.151123
572.0	32.661714	7.718629	12.457438	2.46556	-9.929332	-0.666903	0.129395	0.104736	0.183105
573.0	37.225247	15.740554	26.114697	1.761929	-7.427366	0.111811	0.168945	0.095947	0.226563
574.0	23.846967	7.8185	38.877925	0.524965	-2.177492	0.777954	0.193359	0.0896	0.267578
575.0	11.070707	2.022648	34.590349	0.606315	0.024051	1.887977	0.207031	0.076416	0.315674
576.0	5.760179	-0.165415	28.697656	1.721532	1.701388	2.403714	0.209473	0.067627	0.356934
577.0	1.596573	3.33307	23.148485	2.822863	2.172131	2.900039	0.194092	0.071777	0.393311
578.0	4.437183	7.31816	20.751191	3.205002	2.698163	3.188786	0.174316	0.07373	0.425293
579.0	6.015193	10.634135	19.384405	2.848601	3.575174	3.193298	0.143799	0.075684	0.450195
580.0	4.948307	11.539332	17.663357	1.948711	4.493218	3.043535	0.099854	0.082031	0.46167
581.0	3.646384	9.700345	15.527175	1.177552	5.161729	2.763139	0.055908	0.088135	0.466064
582.0	3.409374	7.607175	13.482314	0.822311	5.586019	2.31701	0.016357	0.094482	0.456787
583.0	4.082312	5.889691	11.762143	0.787596	5.932881	1.764685	-0.023682	0.114014	0.442871
584.0	4.361987	4.951453	10.629201	0.909711	6.209433	1.150884	-0.046631	0.137939	0.417236
585.0	4.549401	4.30501	9.605472	1.053697	6.402804	0.51685	-0.074219	0.17041	0.398438
586.0	4.649397	3.789495	8.872181	1.171445	6.475414	-0.088416	-0.095947	0.216309	0.361084
587.0	5.307119	2.953936	8.657833	1.279839	6.47821	-0.643307	-0.124756	0.275146	0.323486
588.0	6.516563	1.918947	8.613917	1.458777	6.443514	-1.145859	-0.152832	0.318604	0.263428
589.0	7.612124	1.475074	8.8176	1.635774	6.44206	-1.579227	-0.158691	0.35376	0.189941
590.0	8.464684	1.470742	9.26563	1.782999	6.393268	-1.915201	-0.133057	0.362793	0.121338
591.0	10.324529	1.909804	10.125315	1.876342	6.258467	-2.11306	-0.077637	0.341309	0.103516
592.0	11.440917	2.038111	10.913726	1.943986	6.084107	-2.233486	-0.013428	0.322021	0.149414
593.0	11.83176	2.325365	11.270062	2.030236	5.857093	-2.311271	-0.013184	0.317383	0.267822
594.0	13.791863	4.372155	12.611074	2.036113	5.456546	-2.344913	-0.095459	0.351563	0.397217
595.0	18.687161	5.939763	13.7959	1.767028	5.150572	-2.368736	-0.262695	0.385254	0.449219
596.0	21.481801	6.818116	12.981835	1.252106	5.129877	-2.441552	-0.444092	0.39502	0.412842
597.0	22.057233	6.814547	11.770382	0.629259	5.038956	-2.550873	-0.587158	0.374756	0.306152
598.0	23.149273	4.690884	10.462662	-0.008035	4.811824	-2.608948	-0.672119	0.324219	0.186523
599.0	26.062548	1.988669	9.220797	-0.339344	4.54095	-2.735317	-0.720215	0.27417	0.066895
600.0	30.972851	0.292551	8.648761	-0.601697	4.435132	-2.894197	-0.730713	0.219727	-0.036865
601.0	36.512671	-2.291132	6.622854	-0.71875	4.693365	-3.063458	-0.723877	0.16333	-0.13623
602.0	37.260755	-4.200777	2.632385	-0.664937	5.218804	-3.321933	-0.69751	0.111328	-0.219482
603.0	33.743318	-5.409391	-2.850784	-0.599928	5.56147	-3.54646	-0.669189	0.059326	-0.293701
604.0	30.313377	-6.690163	-8.564807	-0.366392	5.441318	-3.630784	-0.625732	0.016113	-0.352051
605.0	27.716954	-8.430265	-13.782178	0.012794	4.861851	-3.559991	-0.595459	-0.025146	-0.401611
606.0	27.389385	-12.045576	-18.996471	0.7115	3.955391	-3.474189	-0.556885	-0.059814	-0.432861
607.0	25.411825	-14.128724	-22.390396	1.740298	2.88512	-3.465565	-0.529053	-0.09668	-0.450439
608.0	23.588929	-10.14863	-22.517111	2.265916	1.488409	-3.205902	-0.505859	-0.131348	-0.456543
609.0	23.700703	-3.635889	-20.22968	1.448733	0.079714	-2.043498	-0.494141	-0.146484	-0.469971
610.0	25.306729	-1.373514	-16.078449	-0.296263	-0.986361	-0.23838	-0.494385	-0.144287	-0.463135
611.0	27.659895	-3.824745	-11.100708	-1.808139	-1.534598	1.366841	-0.499268	-0.131348	-0.468018
612.0	29.683494	-7.296795	-5.661866	-2.242832	-1.646562	2.247819	-0.506836	-0.107178	-0.477539
613.0	-0.959536	-15.103687	16.782739	-0.60198	-1.444505	2.960095	-0.520508	-0.094238	-0.454834
614.0	-17.53536	13.587091	52.924131	-0.825705	-2.17104	3.086832	-0.534912	-0.065918	-0.473633
615.0	-26.103354	20.38649	-25.226839	-2.95613	-4.516297	4.985889	-0.564941	-0.0271	-0.435791
616.0	48.898203	-7.588926	14.98404	-2.079086	-6.392779	2.109113	-0.572021	-0.016113	-0.417725
617.0	16.190629	-2.533272	6.561675	-1.663095	-4.130804	-0.319047	-0.589355	-0.016357	-0.392578
618.0	20.58309	-6.580326	12.273247	-1.040209	-4.303041	-0.269624	-0.595947	-0.01416	-0.37207
619.0	11.541546	-9.250741	8.97413	-0.407496	-3.716041	0.321623	-0.611328	-0.014404	-0.344727
620.0	10.725551	1.129609	7.280155	0.052243	-3.65805	0.354708	-0.61377	-0.008057	-0.324463
621.0	13.192562	2.4877	8.759812	0.114167	-3.530305	0.186494	-0.624268	-0.016846	-0.303711
622.0	14.838208	0.652582	9.897004	0.136865	-3.081614	0.190526	-0.628662	-0.016846	-0.280762
623.0	24.711073	7.087971	15.611887	0.075069	-2.722628	0.357019	-0.630859	-0.016846	-0.26709
624.0	13.732549	3.309798	7.48937	-0.67624	-1.145293	0.693386	-0.633301	-0.010498	-0.258301
625.0	8.79785	-2.111245	9.139601	-0.463239	-0.988633	0.619761	-0.633789	0.000488	-0.24707
626.0	9.02143	0.909301	8.568912	-0.278615	-0.879201	0.50462	-0.635742	-0.003906	-0.244629
627.0	8.143012	1.164238	8.331201	-0.341323	-0.640332	0.415634	-0.63623	0.004883	-0.242432
628.0	7.35607	0.748957	8.18306	-0.344379	-0.556635	0.366265	-0.638428	0.006836	-0.238037
629.0	7.904883	0.62291	8.318992	-0.355981	-0.463385	0.330058	-0.642822	0.009033	-0.23584
630.0	7.487771	-0.199899	8.284904	-0.33992	-0.379387	0.26744	-0.638428	0.009033	-0.233398
631.0	7.589684	-0.475276	8.220839	-0.281924	-0.33825	0.183099	-0.638672	0.01123	-0.226807
632.0	7.47172	-0.545466	8.147261	-0.211849	-0.298376	0.094003	-0.640869	0.013428	-0.229004
633.0	7.420903	-0.594288	8.046455	-0.142355	-0.263902	0.013487	-0.640869	0.015625	-0.226807
634.0	7.24497	-0.253811	7.894736	-0.074799	-0.241646	-0.051065	-0.640869	0.015625	-0.219971
635.0	7.047685	0.363322	7.819378	-0.038009	-0.219394	-0.081093	-0.645508	0.017822	-0.219971
636.0	6.85498	0.535114	7.708013	-0.032066	-0.223795	-0.081742	-0.638428	0.006836	-0.212891
637.0	6.738521	1.016332	7.739939	-0.014563	-0.248172	-0.054239	-0.642822	0.006836	-0.217529
638.0	6.69712	1.573317	7.693568	-0.046449	-0.254651	0.013889	-0.629395	0.002441	-0.208252
639.0	6.457948	2.347613	7.720761	-0.103833	-0.289799	0.157761	-0.631836	0.006836	-0.217529
640.0	6.185317	3.261719	7.632117	-0.30516	-0.307526	0.33068	-0.621338	0.013672	-0.226807
641.0	6.64134	3.042312	7.673462	-0.538571	-0.305335	0.505881	-0.61792	0.0354	-0.234131
642.0	6.743707	2.220212	7.580705	-0.769362	-0.244726	0.628428	-0.621582	0.070313	-0.241455
643.0	7.095739	1.44219	7.642739	-0.954756	-0.164831	0.684703	-0.657471	0.0896	-0.216797
644.0	7.147894	0.484434	7.723908	-1.020097	-0.10206	0.690616	-0.654541	0.07666	-0.205078
645.0	7.558195	-0.051496	7.581599	-0.930398	-0.038415	0.658446	-0.662842	0.067871	-0.195801
646.0	7.630776	-0.512363	7.552689	-0.775354	-0.024312	0.588086	-0.656006	0.061279	-0.191162
647.0	7.916534	-1.295595	7.448074	-0.662913	-0.002081	0.493276	-0.647461	0.065674	-0.195801
648.0	7.535848	-1.891351	7.615973	-0.515398	0.010815	0.379995	-0.647705	0.067871	-0.195801
649.0	7.334475	-1.811751	7.79119	-0.405429	-0.007799	0.26556	-0.645508	0.070068	-0.196045
650.0	7.13231	-0.988418	8.257685	-0.371664	-0.038325	0.202621	-0.643555	0.072266	-0.198242
651.0	7.074455	-0.818937	8.276536	-0.412152	-0.107187	0.194333	-0.643555	0.074463	-0.198242
652.0	7.037909	-1.104828	8.141687	-0.386267	-0.187887	0.167935	-0.641602	0.07666	-0.198242
653.0	6.986652	-0.306693	8.370442	-0.28545	-0.292498	0.172911	-0.639404	0.07666	-0.198242
654.0	6.937304	-0.471975	8.658923	-0.327569	-0.412012	0.181168	-0.643555	0.074463	-0.187012
655.0	6.561785	-2.046655	9.015259	-0.401876	-0.603603	0.141879	-0.648193	0.081055	-0.184814
656.0	6.404908	-1.955281	9.615666	-0.113172	-0.997686	-0.017832	-0.641602	0.078857	-0.175537
657.0	6.371469	-1.61486	9.852506	-0.034611	-1.393506	-0.115374	-0.64624	0.085205	-0.166504
658.0	6.324745	-2.313048	10.098809	0.061852	-1.851116	-0.21063	-0.645752	0.076416	-0.145996
659.0	6.340688	-2.554109	10.328333	0.219757	-2.381352	-0.33533	-0.645752	0.074219	-0.125488
660.0	5.746977	-2.159321	10.592301	0.385418	-2.966996	-0.487293	-0.643311	0.067627	-0.106934
661.0	4.580569	-1.321872	10.876343	0.493505	-3.652075	-0.672647	-0.640869	0.061035	-0.070313
662.0	3.537076	-1.099331	11.128562	0.508931	-4.441945	-0.808575	-0.638672	0.061035	-0.038574
663.0	3.005423	-0.49076	11.409566	0.57891	-5.235425	-0.777105	-0.635986	0.052246	0.007324
664.0	2.048592	0.24592	12.845812	0.661372	-6.146989	-0.698196	-0.622803	0.050049	0.050537
665.0	1.193749	1.966395	12.595903	0.60417	-7.21636	-0.566112	-0.601074	0.052246	0.107422
666.0	0.897568	3.476189	11.661805	0.437961	-8.273308	-0.249702	-0.576904	0.047852	0.166748
667.0	2.615966	-0.213303	10.124551	0.406739	-9.381647	-0.209955	-0.557373	0.052002	0.235107
668.0	10.183581	1.256163	8.310779	0.878422	-10.703291	-0.139562	-0.507568	0.058838	0.301025
669.0	21.325784	4.22971	8.948305	0.390727	-11.380724	0.573827	-0.453369	0.063232	0.371338
670.0	34.478531	1.916406	3.790947	0.040386	-11.578967	0.918769	-0.396729	0.065674	0.428223
671.0	32.155408	4.116878	6.957545	0.487055	-11.112839	1.343853	-0.334229	0.083496	0.484863
672.0	33.18658	7.859919	10.072736	0.642923	-10.114341	1.738967	-0.27124	0.090332	0.525635
673.0	37.7336	6.465465	22.079467	0.78207	-7.634241	1.605159	-0.219482	0.105957	0.548096
674.0	36.010442	2.106304	38.157541	1.860907	-2.563514	0.789202	-0.19873	0.125732	0.547607
675.0	18.47733	12.222562	35.236004	2.074059	0.416624	0.929546	-0.19043	0.138672	0.536133
676.0	11.776357	11.681343	29.968961	0.978508	2.783076	1.277715	-0.195313	0.147461	0.515381
677.0	-0.506925	7.89441	22.288514	0.5983	3.428221	1.578128	-0.20459	0.158447	0.499268
678.0	0.45414	5.04069	18.51645	0.583438	3.552548	1.68308	-0.205078	0.171631	0.480713
679.0	2.841714	2.982765	16.055668	0.988969	3.94658	1.512173	-0.218994	0.188965	0.466797
680.0	3.90298	3.017869	14.387308	1.537551	4.480161	1.179442	-0.226318	0.206543	0.443604
681.0	4.611994	4.081491	13.195827	1.818378	5.113262	0.822118	-0.244385	0.219482	0.422852
682.0	4.491229	5.223946	12.071256	1.770924	5.697872	0.545384	-0.262939	0.243408	0.397217
683.0	4.267801	5.414438	10.851546	1.492866	6.169895	0.302383	-0.28125	0.262939	0.378662
684.0	3.8665	4.835839	9.614476	1.191268	6.436411	0.028669	-0.297119	0.280518	0.344238
685.0	4.201885	4.042603	8.625959	0.998801	6.532306	-0.322096	-0.322021	0.297852	0.325684
686.0	4.783703	3.723073	8.015555	0.879824	6.55998	-0.703949	-0.342041	0.304443	0.286865
687.0	5.622041	3.317439	7.87616	0.792846	6.552907	-1.060406	-0.362061	0.317383	0.261475
688.0	6.758866	2.910999	8.065998	0.774376	6.531137	-1.413154	-0.388428	0.317383	0.220459
689.0	8.570956	2.911915	8.392799	0.793616	6.523007	-1.727574	-0.407959	0.315186	0.181885
690.0	10.117814	3.13541	8.585758	0.792538	6.583869	-1.984891	-0.422852	0.306396	0.166016
691.0	11.097936	3.154903	9.109952	0.835338	6.526289	-2.226231	-0.457764	0.310547	0.134033
692.0	11.677872	3.717953	9.416201	0.830242	6.38607	-2.384052	-0.475098	0.306152	0.102295
693.0	12.222036	3.950938	9.737469	1.009669	6.052951	-2.467977	-0.501465	0.30835	0.061279
694.0	14.678975	5.981424	10.84577	1.108386	5.577354	-2.526328	-0.527344	0.303711	0.027344
695.0	20.485375	7.939211	12.195456	0.979754	5.264419	-2.555489	-0.553223	0.294922	-0.015869
696.0	24.246028	10.366085	12.465836	0.516724	5.248479	-2.534646	-0.57251	0.288574	-0.068115
697.0	26.043594	11.234313	11.609404	-0.275491	5.287835	-2.386818	-0.598145	0.279785	-0.108887
698.0	27.601033	9.613125	10.048423	-1.042436	5.260608	-2.217083	-0.61084	0.270996	-0.167969
699.0	28.068337	1.880386	8.588585	-1.469732	5.20569	-2.347415	-0.627686	0.255859	-0.215576
700.0	31.46933	-7.214049	6.430855	-0.413395	5.137874	-3.173179	-0.630859	0.227539	-0.278809
701.0	35.17677	-6.581683	4.679551	1.300907	5.272564	-3.988553	-0.626953	0.188477	-0.341797
702.0	33.206887	-5.069488	0.364302	2.091567	5.549072	-4.383156	-0.607422	0.140625	-0.395752
703.0	28.089432	-7.135973	-4.335145	2.498753	5.488973	-4.53793	-0.585693	0.097412	-0.454102
704.0	23.869269	-8.206348	-7.812892	2.900635	4.859084	-4.613374	-0.55957	0.049561	-0.491943
705.0	25.944697	-5.197057	-10.762034	2.660611	3.891596	-4.099415	-0.538086	0.003906	-0.527588
706.0	27.473107	-6.214347	-15.059292	1.582401	3.141015	-2.731736	-0.512939	-0.017578	-0.549805
707.0	25.896788	-12.273157	-18.488031	1.032473	2.381922	-1.235649	-0.505859	-0.030762	-0.567871
708.0	24.969673	-13.276206	-18.77754	1.132075	1.427807	0.087678	-0.494873	-0.034912	-0.574707
709.0	24.818793	-11.247066	-16.833276	1.139259	0.520335	1.334646	-0.495117	-0.030518	-0.574707
710.0	26.154508	-7.667946	-12.215264	0.850502	-0.20941	2.407033	-0.497803	-0.017578	-0.572754
711.0	28.061095	-3.96074	-6.642595	-0.065229	-0.527714	3.34413	-0.505371	0.006592	-0.577637
712.0	26.713744	-3.032809	-1.913299	-1.302267	-0.496973	3.884335	-0.51123	0.039063	-0.57373
713.0	22.598199	-4.073603	1.019842	-2.274006	-0.426078	3.853701	-0.512939	0.076416	-0.588135
714.0	-16.686775	-0.759933	48.967177	-1.902675	-1.407329	4.199614	-0.518799	0.113281	-0.582031
715.0	-41.956918	29.592236	14.767468	-6.015197	-0.151844	5.37992	-0.535156	0.183105	-0.567383
716.0	6.723472	-8.343648	-11.558994	-4.797531	-6.150184	3.619613	-0.566895	0.213379	-0.529297
717.0	34.564069	-14.908721	14.884236	-2.325876	-4.149157	-0.612409	-0.586426	0.20874	-0.499512
718.0	8.790684	-4.826986	5.208883	-0.77223	-4.390407	-2.332023	-0.607666	0.19751	-0.462891
719.0	16.918968	-5.578489	11.818803	-1.035087	-4.094382	-1.503476	-0.62915	0.190918	-0.437744
720.0	11.574596	-13.191435	8.843908	-0.931477	-3.710797	0.075832	-0.638184	0.197266	-0.4104
721.0	13.327027	-5.01651	8.655744	-0.079692	-3.439786	0.459318	-0.651611	0.203613	-0.380859
722.0	14.577991	5.530132	9.302835	-0.082567	-3.116753	0.184166	-0.657959	0.201416	-0.362549
723.0	13.217991	-0.627751	9.805707	-0.245269	-2.644402	0.179806	-0.671387	0.205566	-0.344482
724.0	11.762286	-0.07795	9.334106	-0.045941	-2.294694	0.161008	-0.673584	0.207764	-0.321777
725.0	11.878992	1.820178	9.100441	-0.032327	-1.955012	0.066652	-0.675781	0.209961	-0.310303
726.0	17.793575	3.241481	12.527597	-0.138526	-1.615758	0.175916	-0.675781	0.209717	-0.294434
727.0	9.482408	2.311593	7.785023	-0.492071	-0.747664	0.403524	-0.680664	0.220703	-0.287842
728.0	7.85943	-1.083574	8.630113	-0.402635	-0.718544	0.403118	-0.678467	0.218506	-0.280762
729.0	8.372778	1.597723	8.388838	-0.351048	-0.620677	0.433565	-0.680908	0.227295	-0.278809
730.0	7.828905	0.448506	8.495294	-0.453343	-0.478362	0.447766	-0.674561	0.231689	-0.269775
731.0	7.087116	-1.100211	8.194719	-0.418231	-0.402939	0.425375	-0.68335	0.233643	-0.258301
732.0	7.173387	-1.162573	8.244392	-0.33545	-0.377417	0.352734	-0.677002	0.238037	-0.265381
733.0	6.872342	-1.392704	8.083672	-0.244301	-0.354485	0.250157	-0.684082	0.246826	-0.25415
734.0	6.779186	-0.813418	8.045742	-0.167936	-0.361044	0.154785	-0.683594	0.238037	-0.24707
735.0	6.795377	-0.454957	8.007015	-0.131711	-0.358034	0.083873	-0.687988	0.240234	-0.244873
736.0	6.646334	-0.043	7.807572	-0.111472	-0.36222	0.056796	-0.681641	0.244629	-0.242676
737.0	6.863788	0.615337	7.921219	-0.124787	-0.33971	0.052954	-0.687988	0.240234	-0.231201
738.0	7.17876	0.964833	7.914063	-0.168183	-0.317471	0.095603	-0.686035	0.242432	-0.229004
739.0	7.233708	1.50767	7.925451	-0.231231	-0.284349	0.174006	-0.681152	0.233643	-0.22876
740.0	7.003953	1.912998	7.942807	-0.345654	-0.211918	0.272124	-0.672607	0.23584	-0.224121
741.0	7.132169	2.29832	7.861078	-0.490355	-0.159131	0.379535	-0.659668	0.238037	-0.238037
742.0	7.095556	1.963888	7.623294	-0.620294	-0.05272	0.493238	-0.636963	0.264648	-0.259033
743.0	7.196837	1.271105	7.662863	-0.702281	-0.000847	0.58233	-0.654541	0.321289	-0.262451
744.0	7.257855	-0.337915	7.409504	-0.679383	0.033923	0.568304	-0.685791	0.336182	-0.242188
745.0	7.148632	-3.383907	7.790759	-0.517341	0.011248	0.363525	-0.697998	0.314209	-0.22583
746.0	7.685043	-2.151463	7.843582	-0.360111	-0.047904	0.214538	-0.693115	0.30127	-0.21875
747.0	7.460703	-1.42701	8.000486	-0.272475	-0.069673	0.141079	-0.69043	0.29248	-0.218506
748.0	7.304193	-0.717671	7.989499	-0.216493	-0.096513	0.109162	-0.686035	0.290283	-0.216064
749.0	7.227487	0.2191	8.16402	-0.257623	-0.112833	0.137255	-0.683838	0.29248	-0.213867
750.0	7.062129	-0.232326	8.246771	-0.331675	-0.135163	0.179861	-0.686035	0.29248	-0.21167
751.0	7.079078	-0.030924	8.237586	-0.40314	-0.182768	0.205587	-0.683594	0.288086	-0.21167
752.0	7.112239	0.024003	8.241609	-0.448608	-0.241844	0.254762	-0.681885	0.294678	-0.207031
753.0	6.936343	0.002446	8.656665	-0.549974	-0.337568	0.291971	-0.686279	0.296875	-0.202637
754.0	6.608076	-2.851907	8.337479	-0.755221	-0.465872	0.273977	-0.677734	0.30127	-0.200439
755.0	6.393362	-1.117311	9.593823	-0.237606	-0.813619	0.098375	-0.686279	0.299072	-0.197998
756.0	6.442271	-1.429417	9.526812	-0.215964	-1.127702	0.050283	-0.690918	0.303223	-0.179932
757.0	6.297305	-2.605589	9.532719	-0.158272	-1.478993	-0.034765	-0.686523	0.301025	-0.16626
758.0	6.200954	-2.873923	9.684245	-0.022867	-1.892615	-0.196353	-0.686279	0.296631	-0.156982
759.0	6.232213	-2.112209	10.124188	0.069609	-2.373365	-0.320555	-0.692627	0.294434	-0.131836
760.0	5.876254	-2.069315	10.189251	0.157061	-2.881544	-0.436719	-0.692383	0.287842	-0.108887
761.0	5.051069	-1.726034	10.22974	0.260564	-3.451963	-0.604337	-0.69458	0.289795	-0.077148
762.0	4.181581	-1.119684	10.277936	0.281614	-4.08944	-0.732758	-0.696045	0.274414	-0.040283
763.0	4.0595	-1.198801	10.396269	0.303646	-4.779606	-0.736586	-0.700439	0.272217	-0.001465
764.0	2.752505	-1.680094	11.263083	0.436934	-5.511378	-0.677499	-0.697998	0.265625	0.044189
765.0	2.515032	0.433242	11.222191	0.525698	-6.537814	-0.73605	-0.691162	0.26123	0.094238
766.0	1.409174	2.099114	10.386781	0.550664	-7.471623	-0.487795	-0.677979	0.256592	0.1604
767.0	2.885954	-0.175988	10.6944	0.41802	-8.403309	-0.304303	-0.658203	0.254395	0.231201
768.0	6.02783	-3.153323	8.031221	0.831492	-9.40915	-0.666147	-0.625244	0.252197	0.313232
769.0	18.687976	6.925081	9.919686	1.16066	-10.589385	-0.257145	-0.593018	0.260986	0.392822
770.0	28.084178	4.637631	5.839428	-0.011982	-10.582335	0.661096	-0.542725	0.259033	0.452148
771.0	36.017109	3.422668	5.64795	-0.101518	-10.236066	1.118911	-0.486084	0.263428	0.524902
772.0	30.895813	7.594934	9.175845	0.126648	-9.548625	1.630653	-0.428223	0.283447	0.579102
773.0	32.559553	8.030806	13.909947	-0.215758	-8.533641	2.166159	-0.374023	0.29248	0.619873
774.0	34.558263	4.658158	30.602834	0.122308	-5.191353	1.962113	-0.343994	0.30127	0.635498
775.0	23.727668	1.66039	32.107073	1.081961	-1.570108	1.830855	-0.337891	0.314453	0.635254
776.0	18.083551	7.738822	30.173949	1.598383	0.978548	1.739722	-0.33667	0.331787	0.618896
777.0	3.530955	8.575162	22.920135	1.559709	2.097893	1.977207	-0.350586	0.351563	0.602783
778.0	0.764998	7.19528	19.0556	1.318756	2.27358	2.339512	-0.355469	0.366699	0.591064
779.0	2.183932	5.069844	16.622683	1.386519	2.535099	2.353454	-0.367432	0.386475	0.576904
780.0	3.304372	4.353173	14.901744	1.622608	2.963206	2.164311	-0.378906	0.401611	0.560791
781.0	4.315549	3.842391	13.820875	1.898275	3.546201	1.817815	-0.392822	0.418945	0.5354
782.0	4.585874	3.656789	12.793154	2.119296	4.189759	1.421154	-0.415527	0.438721	0.493896
783.0	4.173235	3.530633	11.822673	2.238871	4.776031	1.020363	-0.438232	0.460449	0.466064
784.0	3.564293	2.97988	10.690569	2.285417	5.227785	0.632232	-0.468994	0.4646	0.418213
785.0	3.206231	2.029805	9.602963	2.367589	5.500194	0.202211	-0.498047	0.477783	0.376953
786.0	3.43052	1.354004	8.73895	2.496944	5.642752	-0.285775	-0.524414	0.481934	0.335938
787.0	3.818515	1.228624	8.373566	2.59886	5.707159	-0.791056	-0.559082	0.479736	0.285889
788.0	4.57595	1.124775	8.315443	2.609671	5.718496	-1.2575	-0.578857	0.479736	0.229004
789.0	6.02756	0.921568	8.721545	2.563439	5.742291	-1.662012	-0.604004	0.458008	0.172363
790.0	7.897786	0.663249	9.224224	2.499452	5.834476	-1.989657	-0.622314	0.42749	0.118408
791.0	9.540303	0.810701	9.678785	2.352472	6.012471	-2.239378	-0.633789	0.394775	0.073486
792.0	10.206941	0.61191	10.301097	2.21346	6.125649	-2.437978	-0.656982	0.372803	0.035156
793.0	11.184608	0.257452	11.098317	2.116847	6.159341	-2.565539	-0.670898	0.344482	-0.014404
794.0	12.433631	0.094612	11.85682	2.146143	6.129354	-2.650894	-0.678223	0.313965	-0.070801
795.0	13.375237	0.659466	12.450777	2.187798	6.005002	-2.758024	-0.681396	0.285645	-0.115723
796.0	15.18961	1.453953	12.914453	2.162941	5.702635	-2.951789	-0.688721	0.253174	-0.163086
797.0	20.386623	2.904708	13.664563	1.978027	5.460082	-3.220783	-0.686768	0.209473	-0.207764
798.0	24.861656	4.157049	13.908369	1.49995	5.492351	-3.548718	-0.678711	0.174805	-0.257324
799.0	26.486856	3.568361	13.077163	0.782248	5.626239	-3.868127	-0.665771	0.12915	-0.297363
800.0	27.866904	1.38671	11.56008	0.191669	5.619178	-4.278748	-0.64209	0.087891	-0.337646
801.0	30.20896	-0.369469	9.520816	-0.254332	5.538568	-4.695274	-0.629395	0.046631	-0.375488
802.0	32.325621	-1.507222	6.565047	-0.661416	5.438853	-4.884034	-0.601563	0.011963	-0.413574
803.0	32.954781	-2.112231	2.68331	-1.048692	5.260441	-4.7159	-0.56958	-0.018311	-0.451904
804.0	32.471468	-5.985558	-3.013549	-1.323115	5.054745	-4.301441	-0.54248	-0.039795	-0.483398
805.0	29.407642	-12.34724	-9.211348	-0.787668	4.758246	-3.945818	-0.521729	-0.067871	-0.521484
806.0	26.473264	-14.814422	-13.629019	0.680829	4.007628	-3.613762	-0.487549	-0.098389	-0.534668
807.0	27.190753	-14.296429	-17.301633	1.969751	3.031573	-2.934672	-0.479736	-0.126465	-0.543213
808.0	25.657659	-13.686027	-19.807891	2.576344	2.043001	-2.080933	-0.45874	-0.156982	-0.544922
809.0	24.655425	-10.088225	-19.580635	2.227653	0.98949	-1.179031	-0.460449	-0.170166	-0.546875
810.0	24.446677	-5.855136	-17.66423	0.809788	-0.014838	0.026554	-0.456299	-0.165771	-0.544678
811.0	24.916464	-5.438981	-14.858755	-0.870553	-0.818884	1.229315	-0.465576	-0.150391	-0.542725
812.0	25.448597	-6.385998	-11.312904	-1.966227	-1.39967	2.046415	-0.477539	-0.126465	-0.536377
813.0	27.162172	-7.10219	-6.681088	-2.245924	-1.672721	2.421172	-0.489502	-0.102783	-0.532227
814.0	19.317833	-9.511138	0.187836	-1.795657	-1.437616	2.464499	-0.499756	-0.072266	-0.523682
815.0	-23.534723	1.355234	57.730466	0.829697	-2.172378	3.444502	-0.522217	-0.057129	-0.508057
816.0	-20.090422	26.666874	9.635758	-2.901356	-2.608884	3.331516	-0.548096	-0.013672	-0.490723
817.0	6.449768	-1.423521	-8.38465	-2.444438	-5.903766	3.589917	-0.577393	0.007813	-0.45459
818.0	32.02735	-2.728503	15.687114	-1.410376	-4.246822	0.156256	-0.594727	0.003418	-0.424805
819.0	12.650263	0.561347	6.92882	-1.106448	-4.026528	-0.604349	-0.614502	0.007568	-0.395264
820.0	15.761078	-7.615963	10.591794	-1.070283	-3.699527	-0.063055	-0.623291	0.009521	-0.365723
821.0	8.970445	-5.694347	7.217609	-0.406945	-3.552892	0.424464	-0.634521	0.018066	-0.338623
822.0	12.553342	1.71631	7.279749	-0.067445	-3.496351	0.350102	-0.641113	0.018066	-0.311035
823.0	13.979362	2.970843	10.231275	-0.023106	-3.251842	0.264677	-0.649902	0.017822	-0.281494
824.0	12.859364	2.050318	8.71817	-0.152268	-2.794481	0.355003	-0.652344	0.024414	-0.268066
825.0	26.757118	8.848495	14.918725	-0.864853	-1.742516	0.858826	-0.65918	0.032959	-0.25
826.0	11.177186	-1.849128	8.183497	-0.893761	-1.129155	0.900887	-0.657715	0.046143	-0.23877
827.0	8.783738	-4.221951	8.191953	-0.535392	-0.786296	0.700586	-0.662354	0.054688	-0.236572
828.0	9.077733	0.728647	8.457771	-0.410047	-0.589777	0.539847	-0.662598	0.059082	-0.22998
829.0	8.14613	-0.48348	8.23985	-0.377954	-0.411568	0.434839	-0.664795	0.061279	-0.225342
830.0	7.814051	-0.034212	8.125408	-0.319339	-0.326657	0.355005	-0.653809	0.061279	-0.220947
831.0	7.771089	-0.130372	8.098279	-0.282186	-0.24136	0.279524	-0.66748	0.070068	-0.225586
832.0	7.440213	-0.790537	8.096989	-0.242391	-0.177932	0.193822	-0.667236	0.065674	-0.216309
833.0	7.244787	-0.955312	8.046703	-0.174943	-0.149634	0.096188	-0.669678	0.072266	-0.214111
834.0	7.26839	-1.111366	7.984692	-0.112283	-0.126372	-0.00324	-0.662842	0.067871	-0.209473
835.0	7.072174	-1.082142	7.906879	-0.028124	-0.118977	-0.106154	-0.669678	0.072266	-0.214111
836.0	6.981347	-0.837679	7.892315	0.038729	-0.119934	-0.189824	-0.66748	0.072266	-0.207275
837.0	6.896756	-0.702149	7.833253	0.095657	-0.132496	-0.253755	-0.665039	0.065674	-0.209473
838.0	6.804075	-0.29183	7.757583	0.155298	-0.14584	-0.304932	-0.664551	0.054688	-0.204834
839.0	6.776596	0.439941	7.770377	0.189695	-0.17297	-0.320068	-0.666504	0.048096	-0.209229
840.0	6.660692	1.565223	7.783726	0.152256	-0.203357	-0.276472	-0.660156	0.05249	-0.197754
841.0	6.687143	1.988565	7.675634	0.026415	-0.219968	-0.173448	-0.655518	0.046143	-0.202393
842.0	6.72125	2.268502	7.657962	-0.07204	-0.227599	-0.075932	-0.648682	0.043945	-0.206787
843.0	6.652681	2.580393	7.723386	-0.22762	-0.205304	0.065289	-0.638428	0.054932	-0.2229
844.0	6.539051	2.52742	7.721729	-0.417826	-0.187158	0.214315	-0.637695	0.089844	-0.235107
845.0	6.541785	2.214379	7.75219	-0.611671	-0.159626	0.381831	-0.666992	0.111572	-0.22168
846.0	7.093515	1.78302	7.630518	-0.73212	-0.156288	0.528473	-0.682373	0.111328	-0.196777
847.0	7.327167	1.303661	7.533853	-0.772739	-0.130326	0.606125	-0.686279	0.100342	-0.196533
848.0	7.251928	0.561453	7.52755	-0.735679	-0.120059	0.625919	-0.679443	0.098145	-0.187256
849.0	8.000765	-1.445717	7.376517	-0.654281	-0.136829	0.521357	-0.67749	0.100342	-0.189697
850.0	7.830735	-1.870035	7.619415	-0.468712	-0.12277	0.318822	-0.67749	0.098145	-0.178223
851.0	7.429587	-1.044719	7.812957	-0.352329	-0.109799	0.213555	-0.672852	0.095947	-0.182861
852.0	7.312379	-0.96837	7.825294	-0.289975	-0.113244	0.156564	-0.668701	0.098389	-0.185059
853.0	7.123205	-0.552938	8.152743	-0.157716	-0.16977	0.127112	-0.673096	0.098145	-0.18042
854.0	7.182611	0.452134	8.289563	-0.212431	-0.233661	0.181631	-0.668701	0.100342	-0.180664
855.0	7.157821	-0.128802	8.349518	-0.250152	-0.308281	0.201951	-0.671143	0.104736	-0.180664
856.0	7.096541	0.301986	8.597597	-0.295671	-0.418009	0.221332	-0.679932	0.104736	-0.173828
857.0	6.608327	-1.637252	8.974668	-0.301871	-0.611088	0.205396	-0.67334	0.104736	-0.166992
858.0	6.765609	-1.190507	9.086414	-0.117903	-0.919519	0.120931	-0.67334	0.104736	-0.160156
859.0	6.775375	-1.350178	9.1355	-0.03651	-1.216418	0.04128	-0.679932	0.109131	-0.151123
860.0	6.730759	-1.893841	9.236489	0.042186	-1.552506	-0.036944	-0.677734	0.109131	-0.137451
861.0	6.740801	-2.123633	9.318395	0.150381	-1.91746	-0.154021	-0.682129	0.108887	-0.125977
862.0	6.354849	-2.066926	9.429436	0.260669	-2.325399	-0.289643	-0.679688	0.102295	-0.098633
863.0	5.886002	-1.594242	9.67324	0.389013	-2.792694	-0.464692	-0.681641	0.095703	-0.084717
864.0	5.093758	-1.067267	10.058514	0.459851	-3.343095	-0.62646	-0.683594	0.091309	-0.050537
865.0	4.453475	-0.938103	10.163708	0.51111	-3.971738	-0.732669	-0.68335	0.086914	-0.016113
866.0	4.280081	-0.707514	10.340411	0.538194	-4.622088	-0.770119	-0.685059	0.075928	0.025146
867.0	3.578899	-2.153475	11.272232	0.621984	-5.313887	-0.877337	-0.68042	0.069092	0.063965
868.0	3.167393	-0.306248	11.489066	0.548411	-6.102568	-1.099431	-0.665039	0.069092	0.114014
869.0	2.176398	1.514554	11.283957	0.362046	-6.904269	-0.917303	-0.6604	0.060303	0.18042
870.0	2.64443	0.076676	10.570498	0.396111	-7.900995	-1.142524	-0.642334	0.047119	0.237549
871.0	7.009128	1.836257	8.924465	0.563445	-9.142012	-1.19831	-0.611572	0.040527	0.310547
872.0	15.722841	2.441856	7.264034	0.481492	-10.122167	-0.772361	-0.572021	0.038574	0.390381
873.0	27.598994	3.063632	5.355268	0.260024	-10.567845	-0.330154	-0.519775	0.036377	0.45874
874.0	30.721766	4.675885	6.399532	0.384641	-10.373683	0.16346	-0.469482	0.038818	0.529297
875.0	27.2067	6.358009	8.447054	0.575627	-9.873925	0.802518	-0.420166	0.054199	0.590332
876.0	29.446286	9.172119	10.354045	0.566159	-8.826533	1.35963	-0.368164	0.063232	0.626709
877.0	33.747201	6.670627	23.97833	0.231376	-6.128675	1.240363	-0.338135	0.072021	0.653809
878.0	25.851649	-0.622299	34.513152	1.327964	-1.779441	0.866121	-0.334229	0.087402	0.646484
879.0	16.659046	7.140275	32.588922	1.877453	0.480231	1.36007	-0.346436	0.111328	0.648438
880.0	7.323878	7.296914	26.122217	1.610349	2.30438	1.988955	-0.366699	0.126465	0.629883
881.0	0.145587	6.944395	20.702532	1.441438	2.673695	2.603639	-0.387451	0.152588	0.615723
882.0	2.121334	5.183409	17.569663	1.345214	2.928785	2.810315	-0.405762	0.174316	0.599365
883.0	4.055096	4.464643	15.43095	1.561194	3.3663	2.651691	-0.426758	0.200439	0.583008
884.0	5.1982	4.737192	14.025725	1.832742	3.97299	2.278221	-0.449463	0.224365	0.54834
885.0	5.767013	5.270562	12.794265	1.951098	4.636948	1.833671	-0.474365	0.243896	0.511475
886.0	5.918963	6.006196	11.664072	1.880849	5.241781	1.459797	-0.501465	0.263672	0.470215
887.0	5.597559	5.874752	10.571349	1.659838	5.744184	1.163115	-0.531006	0.287354	0.435547
888.0	5.030996	5.158756	9.462088	1.459891	6.057501	0.855229	-0.564209	0.29834	0.385254
889.0	4.817759	4.287457	8.442173	1.355019	6.188214	0.493959	-0.59082	0.311279	0.337158
890.0	5.066168	3.600295	7.793286	1.369513	6.179344	0.074146	-0.612793	0.315674	0.282471
891.0	5.913766	3.345077	7.68057	1.42827	6.129459	-0.38536	-0.637207	0.322266	0.218506
892.0	7.035643	3.141909	7.875914	1.455022	6.096808	-0.831257	-0.649902	0.315674	0.161621
893.0	8.387433	3.087253	8.372584	1.492653	6.068934	-1.26096	-0.659912	0.296143	0.107422
894.0	10.18496	3.294315	8.723932	1.468648	6.077002	-1.656834	-0.669922	0.274414	0.057617
895.0	11.404796	3.599743	9.362841	1.391555	6.095048	-2.015791	-0.682129	0.254883	0.014648
896.0	12.529978	4.233437	10.392569	1.288694	6.040868	-2.332282	-0.683838	0.241943	-0.030518
897.0	14.06571	4.581622	11.031022	1.09791	5.970537	-2.534793	-0.693848	0.224365	-0.082764
898.0	15.76684	5.805787	11.866074	0.915534	5.850854	-2.676176	-0.697266	0.200439	-0.127686
899.0	19.188933	6.863556	12.753239	0.567244	5.755652	-2.757977	-0.694336	0.185303	-0.179932
900.0	23.013362	7.778785	12.865434	0.084029	5.766123	-2.836678	-0.688965	0.163818	-0.229736
901.0	26.089488	8.231061	12.057255	-0.547146	5.90455	-2.899107	-0.687988	0.137695	-0.279297
902.0	27.510457	5.687963	10.427172	-1.134009	6.020609	-3.0022	-0.669678	0.122559	-0.33374
903.0	27.615253	-0.350745	8.40381	-1.176668	5.990125	-3.431502	-0.64917	0.098877	-0.383301
904.0	29.764856	-3.812773	6.105375	-0.306025	5.765956	-4.069332	-0.629883	0.059814	-0.423584
905.0	31.952117	-2.750531	3.484175	0.727165	5.499323	-4.486654	-0.602295	0.027344	-0.470947
906.0	31.177847	-1.848201	0.164396	1.166651	5.24712	-4.591578	-0.583252	-0.009521	-0.502197
907.0	28.255842	-6.143039	-4.218932	1.36412	4.908088	-4.724824	-0.551025	-0.048584	-0.533203
908.0	25.512033	-10.576002	-8.305559	2.130219	4.38165	-5.180878	-0.5271	-0.092041	-0.552979
909.0	25.819387	-8.296087	-11.376839	2.940957	3.59218	-5.452848	-0.498779	-0.141846	-0.57251
910.0	26.600266	-5.135723	-15.197913	2.593156	2.787663	-4.610407	-0.475342	-0.178711	-0.585449
911.0	24.447646	-9.783569	-19.137863	1.822848	1.952917	-3.091382	-0.45459	-0.202637	-0.5896
912.0	23.059004	-11.229707	-20.340814	1.379438	0.924408	-1.522456	-0.458252	-0.21582	-0.584717
913.0	22.303629	-9.30052	-18.942284	0.786076	-0.110182	0.187431	-0.458252	-0.218018	-0.584717
914.0	22.901113	-8.035942	-15.40122	0.20241	-0.95877	1.5884	-0.480957	-0.198486	-0.575928
915.0	24.906166	-5.872611	-10.862262	-0.164124	-1.51972	2.421742	-0.492432	-0.18335	-0.571777
916.0	27.026583	-3.09393	-5.891189	-0.446167	-1.700997	2.864766	-0.513184	-0.159424	-0.560791
917.0	28.193009	-0.039201	-0.479906	-0.84369	-1.496845	3.072356	-0.527588	-0.133301	-0.549805
918.0	3.882095	4.175183	17.887361	-1.294837	-0.69884	3.405666	-0.5354	-0.10083	-0.543701
919.0	-20.018293	18.155519	50.115765	-2.284396	-1.718235	4.106035	-0.555176	-0.052734	-0.549072
920.0	-15.947588	14.931418	2.386484	-5.550861	-2.528023	4.570822	-0.58374	0.001465	-0.527344
921.0	11.970505	-9.716692	-4.35492	-2.740757	-5.53131	2.399461	-0.612793	0.020752	-0.49585
922.0	27.979895	-5.275747	14.655552	-1.788534	-3.97195	-0.420454	-0.628174	0.020752	-0.46167
923.0	12.347933	-2.181909	6.933565	-1.591242	-3.803941	-1.062963	-0.645752	0.022705	-0.441162
924.0	13.981012	-6.502091	10.311225	-1.289016	-3.45454	-0.767861	-0.658691	0.020264	-0.40918
925.0	11.06907	-7.106239	7.75648	-0.877111	-3.30771	0.172482	-0.674316	0.031006	-0.386475
926.0	12.845707	-6.09571	7.710543	-0.256603	-3.173426	0.741668	-0.676758	0.037598	-0.357178
927.0	13.075929	4.694641	10.270056	-0.170348	-2.813832	0.562767	-0.690186	0.043945	-0.329834
928.0	11.635982	1.486426	8.722767	-0.518512	-2.417405	0.593167	-0.692627	0.046143	-0.309326
929.0	24.189473	4.327429	14.73902	-0.682322	-1.847418	0.791037	-0.70166	0.056885	-0.298096
930.0	8.656168	-0.303414	6.402498	-0.916471	-0.923437	0.900637	-0.70459	0.072021	-0.291748
931.0	9.605365	-4.502615	8.961327	-0.711111	-0.676937	0.783153	-0.700439	0.078613	-0.284912
932.0	10.209106	-1.281198	8.600951	-0.42489	-0.393466	0.557826	-0.702881	0.083008	-0.275879
933.0	7.738711	-0.232709	8.269161	-0.349742	-0.251101	0.41559	-0.703125	0.087402	-0.273682
934.0	7.843529	-0.213108	8.120722	-0.32396	-0.166123	0.340421	-0.703369	0.093994	-0.273926
935.0	7.549782	-0.885835	7.306944	-0.326548	-0.04766	0.266757	-0.705322	0.0896	-0.273682
936.0	7.063104	-0.313218	8.622083	-0.262734	-0.033065	0.190256	-0.705811	0.100342	-0.271729
937.0	6.973607	-1.23187	8.051813	-0.214869	-0.018856	0.099794	-0.699219	0.096191	-0.269287
938.0	6.886262	-0.640852	7.922295	-0.166286	-0.002263	0.019706	-0.701172	0.096191	-0.273926
939.0	6.965141	-0.552856	7.879035	-0.125559	0.005577	-0.029566	-0.703613	0.098389	-0.273926
940.0	6.694421	-0.433219	7.932563	-0.083012	-0.004022	-0.071177	-0.703369	0.091797	-0.273682
941.0	6.556488	-0.321859	7.848052	-0.064734	-0.024836	-0.108676	-0.703369	0.091797	-0.266846
942.0	6.427493	-0.22961	7.835598	-0.039666	-0.061571	-0.115577	-0.696777	0.091797	-0.266846
943.0	6.260575	0.1028	7.79915	-0.033416	-0.106657	-0.132542	-0.69873	0.087402	-0.269043
944.0	6.484079	0.542956	7.804161	-0.044334	-0.156991	-0.109825	-0.698486	0.083008	-0.262207
945.0	6.366765	1.280817	7.65474	-0.073122	-0.221953	-0.046185	-0.689697	0.078613	-0.262207
946.0	6.689758	2.24378	7.710081	-0.186253	-0.27859	0.076915	-0.6875	0.083008	-0.27124
947.0	6.786228	2.961042	7.5077	-0.393056	-0.269024	0.32856	-0.671143	0.102783	-0.283203
948.0	7.242127	2.597579	7.562527	-0.557158	-0.218958	0.533421	-0.681641	0.14209	-0.292969
949.0	7.222287	2.41413	7.702057	-0.633115	-0.148539	0.660138	-0.711182	0.170166	-0.279785
950.0	7.329463	0.97409	7.694953	-0.694361	-0.089847	0.710281	-0.722168	0.172363	-0.254883
951.0	7.479666	-1.877167	7.691226	-0.653135	-0.049434	0.566339	-0.719238	0.154785	-0.247559
952.0	7.438454	-2.096733	7.79698	-0.501536	-0.022572	0.370106	-0.712402	0.150635	-0.24292
953.0	7.706342	-1.045268	7.651552	-0.389279	-0.028236	0.290749	-0.712402	0.148438	-0.245361
954.0	7.42035	-0.866812	7.795762	-0.33193	-0.020766	0.277776	-0.712402	0.148438	-0.240723
955.0	7.342392	-0.97604	7.890721	-0.274715	-0.031249	0.256523	-0.716797	0.148438	-0.245361
956.0	6.992614	-0.611571	8.435538	-0.316825	-0.073393	0.233829	-0.709961	0.14624	-0.247559
957.0	6.953768	-0.374712	8.434972	-0.401071	-0.130773	0.249051	-0.710449	0.154785	-0.240723
958.0	7.019768	4.7e-05	8.426256	-0.460392	-0.198436	0.29516	-0.708252	0.156982	-0.234131
959.0	7.014633	-0.259565	8.396354	-0.502095	-0.27719	0.352949	-0.712891	0.161377	-0.240967
960.0	6.89456	-0.421802	8.741365	-0.549059	-0.403531	0.38997	-0.715332	0.165771	-0.236572
961.0	6.81383	-1.212078	8.976418	-0.737585	-0.537304	0.390204	-0.711182	0.172363	-0.232178
962.0	6.118397	-3.800013	9.069945	-0.30703	-0.87144	0.181074	-0.713379	0.170166	-0.216064
963.0	6.256913	-3.029854	9.485396	-0.192151	-1.205798	0.033639	-0.715576	0.172363	-0.209229
964.0	6.173287	-3.057943	9.717823	-0.097275	-1.59297	-0.118205	-0.715332	0.167969	-0.199951
965.0	6.160356	-3.04947	9.843752	0.024168	-2.043146	-0.288735	-0.724365	0.172119	-0.177246
966.0	6.258916	-2.496237	9.98914	0.120348	-2.531007	-0.427303	-0.724121	0.167725	-0.154541
967.0	5.798214	-2.082281	10.181885	0.225529	-3.038823	-0.548978	-0.730225	0.156738	-0.124512
968.0	4.897623	-1.349656	10.314188	0.318469	-3.619171	-0.706582	-0.727783	0.1521	-0.085693
969.0	3.948475	-0.718458	10.391717	0.298309	-4.288074	-0.7624	-0.736084	0.143311	-0.05835
970.0	3.813468	-2.020331	11.077404	0.325803	-5.015299	-0.695346	-0.736084	0.141113	-0.010254
971.0	2.068703	-1.176573	11.346024	0.475151	-5.882277	-0.663565	-0.731201	0.13208	0.053711
972.0	2.20616	0.821037	10.726701	0.5804	-6.945349	-0.603849	-0.72876	0.127686	0.10376
973.0	1.359585	0.269423	10.017613	0.682926	-7.94008	-0.298861	-0.711426	0.13208	0.178955
974.0	3.637227	-3.677177	7.163917	0.879331	-8.836405	-0.423542	-0.694092	0.129639	0.256592
975.0	10.358725	0.080638	4.0441	1.722426	-10.262181	-0.51651	-0.654785	0.134033	0.347412
976.0	27.239512	8.382345	11.511825	1.104096	-10.891227	0.359617	-0.609375	0.140869	0.429443
977.0	33.26164	3.749647	8.552772	-0.023088	-9.779531	0.630085	-0.565918	0.145264	0.493164
978.0	32.336051	1.464505	6.677025	0.555891	-9.240452	0.727298	-0.522949	0.158447	0.558838
979.0	31.05253	4.457935	11.86898	1.670683	-8.286881	0.547541	-0.471436	0.176025	0.606201
980.0	34.849848	6.836977	23.585989	2.453133	-5.998364	0.407555	-0.441895	0.200195	0.630859
981.0	19.324475	11.108179	29.871066	2.195469	-2.383664	0.625298	-0.431885	0.222168	0.637207
982.0	18.282368	14.01197	29.416278	0.976122	-0.322191	1.435391	-0.436768	0.23291	0.634766
983.0	6.373884	9.278937	23.205473	0.085007	1.322861	2.084616	-0.440186	0.261475	0.629639
984.0	0.592146	5.220214	18.91469	-0.05758	1.627856	2.633935	-0.452148	0.283203	0.622314
985.0	1.876567	1.628033	16.317146	0.533043	1.884068	2.69881	-0.461914	0.307129	0.608154
986.0	3.348358	1.402264	14.837738	1.455818	2.314303	2.429458	-0.481445	0.352783	0.586914
987.0	4.030135	3.207426	13.876632	2.11163	2.938339	2.061277	-0.498291	0.387695	0.561035
988.0	4.321465	5.029377	13.191598	2.264707	3.656343	1.733072	-0.521973	0.431396	0.521484
989.0	4.133756	5.519531	12.391769	2.072641	4.327383	1.451407	-0.547852	0.472656	0.4729
990.0	3.691183	4.820855	11.241992	1.810568	4.859591	1.153643	-0.567627	0.520752	0.4104
991.0	3.122921	3.494662	9.997159	1.658755	5.213452	0.771466	-0.597168	0.55127	0.350586
992.0	3.023862	2.031588	8.939905	1.690422	5.404025	0.314114	-0.610107	0.593018	0.279053
993.0	3.173323	1.032964	8.308403	1.856651	5.478175	-0.193525	-0.620361	0.630127	0.194092
994.0	3.763337	0.324844	7.935079	2.090013	5.49885	-0.697744	-0.625977	0.658691	0.100098
995.0	4.63448	0.241418	8.066465	2.306742	5.477454	-1.171052	-0.616455	0.6875	0.001465
996.0	6.528916	0.248785	8.631655	2.445656	5.491326	-1.576118	-0.597656	0.703125	-0.103516
997.0	8.817841	0.806088	9.514048	2.477547	5.595374	-1.877602	-0.554443	0.7146	-0.199707
998.0	10.688794	1.539648	10.340774	2.273557	5.808481	-2.054	-0.500732	0.732666	-0.295654
999.0	11.669997	1.420681	11.20742	2.016443	5.981988	-2.169018	-0.442627	0.750488	-0.371338
1000.0	12.556521	1.005319	12.096108	1.832237	6.088035	-2.250652	-0.382568	0.768555	-0.442383
1001.0	13.465204	0.468768	12.895502	1.782266	6.124876	-2.336467	-0.313232	0.780029	-0.497559
1002.0	15.023786	0.887444	13.779842	1.802114	6.100348	-2.447844	-0.253662	0.765381	-0.549561
1003.0	17.249203	1.544624	14.577854	1.779601	6.053508	-2.579422	-0.176025	0.737549	-0.567383
1004.0	20.285503	2.542389	14.944703	1.67849	6.039208	-2.783712	-0.106445	0.694336	-0.573486
1005.0	23.58076	4.130315	14.799941	1.337445	6.109148	-2.993555	-0.043457	0.648682	-0.520264
1006.0	25.700174	4.322485	14.172591	0.782316	6.173582	-3.180229	-0.018066	0.618164	-0.437744
1007.0	27.066324	2.113173	13.159705	0.296918	6.113874	-3.468546	-0.034912	0.606934	-0.348633
1008.0	29.002889	-1.298688	11.090437	0.200457	5.920175	-3.90023	-0.093994	0.608643	-0.296143
1009.0	31.324556	-2.167998	7.749836	0.506736	5.684634	-4.261461	-0.171631	0.592773	-0.281982
1010.0	31.514975	-2.013632	3.219679	0.660615	5.430921	-4.309815	-0.249268	0.572754	-0.308838
1011.0	29.686375	-6.518855	-3.349986	0.74526	5.116635	-4.251284	-0.311035	0.5354	-0.344482
1012.0	25.208022	-13.688566	-10.054058	1.751329	4.481568	-4.438181	-0.358643	0.482666	-0.398193
1013.0	23.674293	-14.389195	-13.785861	3.296911	3.37456	-4.813641	-0.395508	0.425781	-0.449463
1014.0	26.954687	-9.704976	-16.873261	3.527601	2.25335	-4.505523	-0.421387	0.369141	-0.489258
1015.0	26.207582	-9.366672	-19.556877	2.41531	1.310785	-3.453196	-0.437256	0.334229	-0.513672
1016.0	24.614534	-8.710086	-19.858594	0.825581	0.296668	-2.083151	-0.449463	0.31665	-0.536133
1017.0	23.679434	-7.716374	-17.95567	-0.880628	-0.769218	-0.440444	-0.471436	0.318604	-0.531494
1018.0	24.323536	-9.263278	-14.376205	-2.011209	-1.635977	0.958727	-0.480957	0.338135	-0.525146
1019.0	24.436195	-9.838502	-10.491344	-2.252948	-2.24404	1.812465	-0.495361	0.368652	-0.51416
1020.0	24.87997	-8.78842	-6.187655	-1.844929	-2.635314	2.297976	-0.501953	0.418701	-0.49707
1021.0	25.836255	-6.151683	-1.013147	-1.342236	-2.756146	2.602637	-0.514404	0.451416	-0.479248
1022.0	2.982182	-0.460125	18.824325	-1.01082	-2.281666	3.246412	-0.512207	0.501465	-0.459961
1023.0	-35.197802	14.806447	62.2604	-1.502289	-2.595591	4.04371	-0.512207	0.547363	-0.442627
1024.0	13.084852	10.537554	10.811698	-3.702442	-3.293641	3.897265	-0.520264	0.584229	-0.415771
1025.0	0.636394	-3.945929	-7.712595	-2.543426	-4.679092	3.022709	-0.532471	0.612549	-0.386719
1026.0	27.653197	-5.277677	14.825231	-1.503911	-3.824025	-0.094718	-0.543701	0.621094	-0.359619
1027.0	10.797704	-0.692626	7.566879	-1.259073	-3.343994	-0.55594	-0.561768	0.634033	-0.334717
1028.0	14.231236	-6.359913	10.58173	-1.112232	-3.266795	0.195096	-0.571045	0.644775	-0.312256
1029.0	9.733292	-5.226466	7.214142	-0.666049	-3.035967	0.837087	-0.578125	0.655762	-0.294189
1030.0	11.217837	1.984182	7.840086	-0.434698	-2.96458	0.684651	-0.581299	0.67749	-0.271729
1031.0	12.078415	1.236368	9.714595	-0.578754	-2.743188	0.584919	-0.58374	0.683838	-0.249023
1032.0	11.907506	-0.659302	8.383537	-0.608957	-2.3618	0.588223	-0.583984	0.692627	-0.22876
1033.0	13.55554	0.774266	10.165115	-0.508624	-2.108107	0.519923	-0.584717	0.705566	-0.215332
1034.0	19.728042	0.959906	11.424791	-0.913852	-0.976143	0.832289	-0.585205	0.71875	-0.206543
1035.0	10.62729	-4.473373	9.041776	-0.603684	-0.66789	0.666766	-0.576416	0.716553	-0.204102
1036.0	8.056217	-0.958728	8.014737	-0.248619	-0.409834	0.498113	-0.57666	0.725342	-0.190674
1037.0	7.602239	1.294458	8.048757	-0.283227	-0.232154	0.415591	-0.574707	0.727539	-0.193115
1038.0	7.356975	-0.465603	7.988991	-0.303569	-0.164557	0.369585	-0.577148	0.733887	-0.186279
1039.0	7.153063	-0.239859	7.992274	-0.246124	-0.118998	0.289065	-0.574951	0.731934	-0.184082
1040.0	6.815206	-0.140671	7.846599	-0.251732	-0.144487	0.265047	-0.570801	0.738281	-0.179443
1041.0	7.069931	-0.499012	7.930978	-0.262199	-0.206096	0.248221	-0.568604	0.740479	-0.179688
1042.0	7.229502	-1.062723	7.88435	-0.235753	-0.237742	0.196634	-0.571045	0.742676	-0.175049
1043.0	7.175294	-1.630111	7.836944	-0.165921	-0.242181	0.094399	-0.571045	0.742676	-0.17041
1044.0	6.994412	-1.353347	7.888241	-0.087462	-0.256233	-0.018271	-0.571045	0.742676	-0.168213
1045.0	6.9367	-0.877656	7.868736	-0.052052	-0.254432	-0.084806	-0.573486	0.749268	-0.166016
1046.0	7.056935	-0.34715	7.865793	-0.043801	-0.248946	-0.123765	-0.569092	0.749268	-0.163818
1047.0	7.160262	0.073643	7.772507	-0.069194	-0.231959	-0.135274	-0.572998	0.740479	-0.161377
1048.0	7.183568	0.321334	7.739076	-0.091276	-0.205681	-0.123987	-0.572754	0.733887	-0.158936
1049.0	7.246111	0.643903	7.755829	-0.098089	-0.200744	-0.077508	-0.57251	0.729492	-0.158936
1050.0	7.216622	0.887811	7.747092	-0.132598	-0.177675	-0.004872	-0.566162	0.731689	-0.154297
1051.0	7.274155	1.516596	7.660975	-0.186498	-0.124904	0.082527	-0.55127	0.738525	-0.15918
1052.0	7.41039	1.652743	7.497112	-0.261363	-0.067351	0.204655	-0.543213	0.756104	-0.175293
1053.0	7.652009	1.227356	7.337023	-0.313169	0.013049	0.306058	-0.549072	0.791016	-0.185059
1054.0	7.44593	0.440808	7.572233	-0.329277	0.070046	0.379173	-0.567383	0.806152	-0.174072
1055.0	7.395291	0.2926	7.582981	-0.342781	0.118201	0.415008	-0.575928	0.801514	-0.153564
1056.0	7.420048	0.310565	7.459933	-0.349258	0.158387	0.460947	-0.575439	0.792725	-0.15332
1057.0	7.499982	0.205663	7.615907	-0.331545	0.205934	0.514555	-0.568604	0.788574	-0.150879
1058.0	7.303146	-0.192269	7.696465	-0.326699	0.248912	0.531988	-0.566406	0.78418	-0.157715
1059.0	7.155847	0.254457	8.081404	-0.363797	0.27343	0.544637	-0.560059	0.788574	-0.150879
1060.0	6.993728	0.795462	8.284696	-0.503854	0.262965	0.617882	-0.553467	0.790771	-0.155518
1061.0	6.800209	-0.333514	8.262571	-0.642395	0.208546	0.661262	-0.553711	0.795166	-0.151123
1062.0	6.783573	-0.804814	8.1089	-0.727807	0.140479	0.658482	-0.547607	0.806152	-0.155762
1063.0	6.810875	-0.503986	8.188558	-0.788296	0.084518	0.677163	-0.543457	0.80835	-0.14917
1064.0	6.772875	-0.89771	8.211393	-0.838114	0.020722	0.707034	-0.541504	0.817139	-0.151611
1065.0	6.708691	-1.194055	8.071511	-0.829899	-0.043455	0.704378	-0.537354	0.821533	-0.144775
1066.0	6.692673	-2.087545	7.933187	-0.783663	-0.122255	0.686212	-0.5354	0.82373	-0.137939
1067.0	6.587757	-3.199076	7.774518	-0.668404	-0.209239	0.602558	-0.533447	0.827881	-0.140381
1068.0	6.474376	-3.801847	7.743943	-0.251333	-0.365524	0.468451	-0.533691	0.834473	-0.133545
1069.0	6.394761	-3.819446	8.461805	0.037523	-0.542333	0.373158	-0.5271	0.834473	-0.131348
1070.0	6.090831	-1.217177	10.439726	-0.055287	-0.824335	0.242537	-0.531494	0.832275	-0.126709
1071.0	5.867617	-3.195272	9.827362	-0.200944	-1.176743	0.068027	-0.535889	0.83667	-0.113037
1072.0	5.881367	-3.183674	9.883377	-0.140368	-1.595088	-0.094791	-0.53125	0.827881	-0.10376
1073.0	5.6698	-3.439306	10.096714	-0.082877	-2.067955	-0.247159	-0.535645	0.827881	-0.085693
1074.0	5.582614	-2.769643	10.375471	0.02653	-2.620307	-0.401638	-0.5354	0.823486	-0.06958
1075.0	5.198235	-3.388818	10.261523	0.056552	-3.221614	-0.550872	-0.54126	0.808105	-0.051025
1076.0	4.714029	-3.672093	10.991629	0.19191	-3.947429	-0.761915	-0.541016	0.805908	-0.021484
1077.0	3.933534	-2.920455	11.029493	0.344905	-4.742812	-0.955879	-0.540039	0.783936	0.015625
1078.0	2.28263	-1.641915	11.111502	0.391349	-5.579889	-0.987681	-0.542236	0.781738	0.052002
1079.0	2.876115	-3.294897	11.112244	0.471682	-6.42743	-0.93234	-0.541504	0.766113	0.0979
1080.0	0.571511	-3.400916	9.919398	0.854092	-7.338846	-0.87347	-0.523682	0.757568	0.143555
1081.0	1.357504	-3.398958	8.151176	1.277134	-8.671713	-1.068948	-0.503418	0.746582	0.196289
1082.0	7.885973	3.039823	6.796037	1.91448	-9.614957	-0.904949	-0.477051	0.742188	0.253174
1083.0	20.032317	12.028779	11.035218	0.553345	-10.1124	0.060581	-0.43335	0.738037	0.317139
1084.0	30.501042	3.718236	8.724235	-0.935691	-9.555329	0.781686	-0.393555	0.729248	0.378662
1085.0	33.916756	2.108375	5.522802	-0.195546	-8.879517	0.770197	-0.344971	0.714355	0.431396
1086.0	33.673839	3.804442	12.207217	0.507659	-7.660954	0.633659	-0.32251	0.696777	0.46582
1087.0	32.651977	8.823323	22.915561	0.675527	-5.173768	0.466754	-0.310303	0.672852	0.489258
1088.0	15.252994	14.027321	27.279283	-0.093956	-1.729781	0.58628	-0.31543	0.640137	0.510254
1089.0	11.384684	10.544219	24.433674	-1.076654	-0.505273	1.246095	-0.33374	0.609375	0.533691
1090.0	6.963404	5.623672	20.043069	-0.936036	0.96223	1.409918	-0.354248	0.578613	0.536621
1091.0	0.792462	5.095982	15.38908	-0.376648	1.289412	1.57132	-0.385986	0.558838	0.532471
1092.0	2.751632	5.473292	13.495141	0.086142	1.631372	1.560738	-0.415039	0.528076	0.519531
1093.0	3.93687	7.365179	12.84772	0.291473	2.234442	1.335554	-0.446777	0.506104	0.50415
1094.0	3.305625	9.17749	12.246784	0.006295	2.929272	1.070775	-0.485107	0.481934	0.46582
1095.0	2.676124	9.304387	11.373172	-0.514985	3.551777	0.790367	-0.529541	0.453369	0.427734
1096.0	2.898037	8.532602	10.333621	-0.965901	4.070077	0.437331	-0.554443	0.422852	0.382813
1097.0	3.480327	7.556843	9.52708	-1.250218	4.532652	-0.042551	-0.581543	0.394287	0.335449
1098.0	4.332138	6.995027	8.81397	-1.346031	4.998765	-0.650477	-0.597412	0.357178	0.274658
1099.0	4.665861	6.793286	8.17519	-1.402247	5.426882	-1.259572	-0.613281	0.32666	0.229736
1100.0	4.501643	6.727656	7.385892	-1.484907	5.74369	-1.80348	-0.618408	0.294189	0.177979
1101.0	4.608364	6.66992	6.845484	-1.609527	5.908182	-2.249336	-0.630127	0.263672	0.128418
1102.0	5.415552	6.413896	6.546103	-1.724046	5.958986	-2.592779	-0.624756	0.239746	0.076416
1103.0	6.760662	6.362435	6.496329	-1.785601	5.975136	-2.858253	-0.629883	0.209229	0.029297
1104.0	7.619137	6.441923	6.812557	-1.867179	6.021926	-3.071537	-0.624268	0.176758	-0.018066
1105.0	8.287336	6.089137	6.953226	-1.803595	6.006044	-3.296577	-0.620361	0.139648	-0.067383
1106.0	8.678746	6.994534	7.421304	-1.636059	5.878994	-3.4897	-0.608154	0.11377	-0.114746
1107.0	10.267826	8.574422	8.336368	-1.482103	5.636832	-3.599998	-0.609375	0.087646	-0.141602
1108.0	12.443903	10.800579	9.627749	-1.464618	5.402425	-3.59313	-0.58667	0.068115	-0.175537
1109.0	15.122148	13.053336	10.428957	-1.60104	5.284967	-3.468854	-0.58374	0.050781	-0.207031
1110.0	18.581558	16.426707	10.694133	-1.961133	5.276659	-3.281793	-0.566162	0.051025	-0.241211
1111.0	22.085724	19.471689	10.165393	-2.70259	5.411089	-3.170665	-0.55542	0.053467	-0.286865
1112.0	24.444375	20.58529	8.721573	-3.661784	5.607748	-3.173942	-0.540283	0.053711	-0.33252
1113.0	25.984199	19.937963	6.35186	-4.505479	5.726735	-3.336753	-0.520752	0.060303	-0.364502
1114.0	27.654089	18.686273	3.660332	-5.05314	5.74915	-3.585882	-0.501709	0.069336	-0.405762
1115.0	28.027568	15.622378	0.679453	-5.303344	5.665576	-3.919501	-0.482422	0.076172	-0.442383
1116.0	27.288819	11.452358	-2.184368	-4.91957	5.314314	-4.552993	-0.45874	0.085205	-0.474609
1117.0	26.421145	11.454767	-5.343133	-4.126358	4.730292	-5.370425	-0.443115	0.076416	-0.499512
1118.0	24.766514	12.602007	-8.296201	-3.577413	3.932737	-6.273948	-0.423096	0.070068	-0.524414
1119.0	23.498892	11.325371	-10.512837	-3.180369	2.98602	-7.169018	-0.417969	0.050537	-0.530762
1120.0	23.815437	9.370835	-11.439754	-2.56298	1.925799	-7.94912	-0.406006	0.026611	-0.544189
1121.0	25.254536	7.275432	-12.151608	-1.860166	0.890778	-8.530022	-0.402344	-0.008301	-0.550293
1122.0	26.777787	5.976103	-11.924389	-1.237705	0.024996	-8.953655	-0.394043	-0.045166	-0.549561
1123.0	28.081526	6.21164	-11.171994	-0.922562	-0.604133	-9.018064	-0.392334	-0.082275	-0.544189
1124.0	26.831654	6.882684	-10.164914	-1.255899	-1.050885	-8.552884	-0.38208	-0.119385	-0.545898
1125.0	24.193261	5.672007	-9.476478	-2.018958	-1.471533	-7.556285	-0.374512	-0.138916	-0.538574
1126.0	21.363793	3.483628	-7.762309	-2.801001	-1.88763	-5.994328	-0.378174	-0.154297	-0.53833
1127.0	20.565369	-1.12469	-4.168221	-3.333324	-2.053475	-4.163643	-0.380615	-0.147705	-0.536133
1128.0	19.905848	-6.596901	0.311154	-2.903614	-1.777532	-2.610282	-0.382813	-0.149902	-0.526855
1129.0	3.853947	-24.737049	6.080797	-0.778725	-1.275347	-1.446835	-0.388916	-0.160889	-0.517578
1130.0	-4.858536	-16.085793	24.711041	4.091345	-2.151264	-1.585664	-0.396484	-0.187256	-0.496582
1131.0	-5.527352	0.558379	13.233538	3.881067	-2.163495	0.009085	-0.408936	-0.198242	-0.473633
1132.0	-0.47643	22.487674	1.629676	1.831416	-3.477945	1.543017	-0.433105	-0.194092	-0.448486
1133.0	19.325398	17.521433	10.146071	0.284722	-3.403917	0.832627	-0.444336	-0.187744	-0.432617
1134.0	9.911179	8.869502	5.409424	-0.536322	-3.113228	-0.269374	-0.46167	-0.187988	-0.412109
1135.0	15.781076	-5.778057	11.571491	-0.307761	-3.143389	0.163615	-0.470703	-0.183594	-0.391602
1136.0	15.758877	-2.61666	9.799073	0.231636	-2.633153	0.419054	-0.481689	-0.179443	-0.378174
1137.0	14.673505	2.579209	9.521767	0.451877	-2.19322	0.163377	-0.486328	-0.175049	-0.362305
1138.0	10.900978	1.383665	9.20242	0.454795	-1.820517	0.092245	-0.490479	-0.177246	-0.343994
1139.0	12.706586	3.606752	10.000843	0.376717	-1.694077	0.250753	-0.499512	-0.175293	-0.337158
1140.0	15.012047	4.764662	9.423673	-0.123215	-0.779017	0.415722	-0.501709	-0.173096	-0.325684
1141.0	6.573876	4.11177	8.15585	-0.118668	-0.699941	0.490389	-0.506104	-0.173096	-0.321289
1142.0	7.222637	2.174977	7.714723	-0.26316	-0.657791	0.483363	-0.510498	-0.168945	-0.312256
1143.0	7.851103	1.285168	8.287181	-0.263714	-0.535583	0.425858	-0.508545	-0.166748	-0.314453
1144.0	6.28116	2.592103	7.656059	-0.305162	-0.50179	0.42065	-0.513184	-0.162354	-0.312256
1145.0	6.595427	2.840242	7.694173	-0.453294	-0.50286	0.486196	-0.51123	-0.153564	-0.307861
1146.0	6.725021	2.66106	7.776088	-0.639514	-0.502001	0.570028	-0.520264	-0.14917	-0.308105
1147.0	6.973202	2.065075	7.887679	-0.830082	-0.481392	0.638135	-0.520508	-0.14502	-0.30127
1148.0	7.543831	1.001602	8.173548	-0.959383	-0.421828	0.65197	-0.525146	-0.134033	-0.299072
1149.0	7.652479	0.588509	8.118927	-1.004232	-0.282252	0.636636	-0.525635	-0.127441	-0.301514
1150.0	7.192657	1.084166	7.980844	-1.030169	-0.186893	0.64921	-0.532227	-0.125244	-0.301514
1151.0	7.797677	0.489619	7.848936	-1.010587	-0.115451	0.64388	-0.526123	-0.116699	-0.299561
1152.0	7.96865	0.143332	7.59207	-0.906831	-0.043705	0.567918	-0.528564	-0.10791	-0.299805
1153.0	7.746506	-0.472394	7.604602	-0.792903	0.001769	0.466289	-0.531006	-0.103516	-0.304443
1154.0	7.569734	-1.433748	7.653257	-0.645791	0.019161	0.331155	-0.533447	-0.096924	-0.302246
1155.0	7.277204	-1.158248	7.761806	-0.503833	0.040073	0.196472	-0.529053	-0.096924	-0.302246
1156.0	7.292383	-1.151302	7.811092	-0.408216	0.038134	0.112933	-0.535889	-0.090332	-0.309082
1157.0	7.203374	-1.193968	7.827698	-0.342314	0.027429	0.026171	-0.535889	-0.092529	-0.306885
1158.0	7.203269	-0.683256	7.747946	-0.26207	-0.002957	-0.026309	-0.529541	-0.08374	-0.304688
1159.0	7.143696	-0.055945	7.821141	-0.226591	-0.022779	-0.031361	-0.531738	-0.088135	-0.313721
1160.0	7.195632	-0.201958	7.796462	-0.202925	-0.029771	-0.029666	-0.538574	-0.081787	-0.309326
1161.0	7.197935	0.14071	7.730535	-0.184802	-0.038835	-0.026741	-0.531982	-0.081787	-0.311523
1162.0	7.151897	-0.437034	7.889438	-0.330973	-0.015383	-0.030527	-0.536377	-0.077393	-0.309326
1163.0	7.126484	-0.576954	7.667551	-0.266182	-0.044681	-0.104973	-0.536377	-0.07959	-0.304688
1164.0	7.086804	-0.074493	7.765509	-0.240254	-0.069633	-0.108894	-0.540771	-0.077393	-0.30249
1165.0	7.14865	0.465039	7.801439	-0.22367	-0.086283	-0.082809	-0.540771	-0.081787	-0.307129
1166.0	7.126744	0.337614	7.930007	-0.248725	-0.087251	-0.046651	-0.538574	-0.077393	-0.298096
1167.0	7.132629	0.398066	7.892661	-0.264612	-0.099008	-0.019082	-0.542969	-0.07959	-0.300293
1168.0	7.142326	1.407521	8.213154	-0.464451	-0.103621	0.074927	-0.543213	-0.072998	-0.298096
1169.0	7.182074	0.397445	7.848878	-0.567487	-0.09514	0.143786	-0.538574	-0.081787	-0.30249
1170.0	7.065862	0.345662	8.104532	-0.655035	-0.102946	0.175669	-0.547607	-0.070801	-0.300293
1171.0	6.945349	-0.400268	8.316975	-0.847217	-0.128663	0.170688	-0.548096	-0.064209	-0.305176
1172.0	6.862542	-0.888977	8.494142	-1.142764	-0.196055	0.114927	-0.552246	-0.06665	-0.302734
1173.0	6.52991	-3.027937	8.470473	-0.919091	-0.403731	-0.101452	-0.543457	-0.068604	-0.300537
1174.0	6.640939	-1.419117	9.042201	-0.981207	-0.589723	-0.223471	-0.55249	-0.062256	-0.305176
1175.0	6.484266	-2.217892	8.99666	-1.032667	-0.810725	-0.365532	-0.549805	-0.070801	-0.300293
1176.0	6.526115	-2.41225	9.123924	-1.135594	-1.05428	-0.520851	-0.554688	-0.060059	-0.293701
1177.0	6.423424	-2.213424	9.246876	-1.25373	-1.314689	-0.67593	-0.556885	-0.062256	-0.289063
1178.0	6.261111	-3.015315	9.287219	-1.346822	-1.616418	-0.871351	-0.565186	-0.068848	-0.270752
1179.0	6.129003	-3.060867	9.444037	-1.432137	-1.973516	-1.082739	-0.562988	-0.071045	-0.263916
1180.0	6.032965	-2.733086	9.358833	-1.509325	-2.366311	-1.307777	-0.566895	-0.077637	-0.25
1181.0	6.047065	-1.728096	9.447172	-1.575701	-2.786165	-1.487785	-0.571045	-0.084229	-0.229492
1182.0	5.805661	-1.174861	9.558171	-1.721942	-3.241019	-1.564248	-0.577148	-0.093018	-0.210938
1183.0	5.236217	-1.199595	9.606868	-1.822673	-3.763942	-1.592401	-0.579102	-0.102051	-0.185791
1184.0	4.664739	-0.417959	9.936688	-1.907031	-4.378961	-1.58346	-0.583252	-0.102051	-0.151611
1185.0	4.085705	0.721148	10.414159	-2.04988	-5.09417	-1.39984	-0.589111	-0.117432	-0.121582
1186.0	3.64456	1.499599	10.454356	-2.472593	-5.881715	-0.937516	-0.5896	-0.108887	-0.078613
1187.0	3.416089	4.290985	9.113179	-3.16757	-6.884769	-0.358266	-0.591553	-0.115479	-0.037354
1188.0	5.807004	4.564431	7.264258	-3.933836	-7.957026	0.470753	-0.591553	-0.111328	0.026367
1189.0	12.103956	7.173431	6.157101	-5.254097	-8.85243	1.819201	-0.590332	-0.093994	0.078369
1190.0	23.515486	6.028605	9.01634	-7.209797	-8.907828	3.005839	-0.588867	-0.074463	0.132813
1191.0	34.908784	1.235824	13.322493	-8.011503	-7.552492	2.285973	-0.582031	-0.083252	0.173828
1192.0	23.094113	-0.042525	6.437092	-6.529141	-6.349093	1.022338	-0.570801	-0.089844	0.215088
1193.0	21.984287	6.305123	7.086124	-5.940375	-6.156728	1.027657	-0.566162	-0.096436	0.24707
1194.0	20.993745	6.689716	9.401984	-6.017683	-5.408251	1.05329	-0.556885	-0.107422	0.27002
1195.0	22.79701	8.182373	23.017308	-5.754017	-3.032502	0.247965	-0.553955	-0.124756	0.281738
1196.0	18.387838	4.021503	24.528529	-4.903904	-1.164578	-0.313487	-0.554932	-0.150879	0.284668
1197.0	13.09769	4.364344	22.134119	-3.54225	0.442909	-0.653758	-0.562988	-0.16626	0.273438
1198.0	7.550198	5.85694	19.344165	-2.569001	1.341188	-0.414521	-0.571289	-0.177246	0.264648
1199.0	5.437368	6.526107	17.219025	-2.005889	1.976831	-0.058263	-0.590332	-0.188232	0.239746
1200.0	3.824528	7.644646	15.581024	-1.695012	2.436306	0.211353	-0.607666	-0.192627	0.223877
1201.0	3.651279	8.958959	14.279295	-1.66249	2.856538	0.354641	-0.628906	-0.205811	0.201416
1202.0	3.92098	9.95881	13.033796	-1.845493	3.315071	0.404142	-0.650391	-0.210205	0.16748
1203.0	3.900359	10.859792	12.032	-2.174358	3.748673	0.423563	-0.672119	-0.2146	0.126465
1204.0	3.638956	11.110655	10.82862	-2.524096	4.066366	0.366118	-0.699707	-0.22998	0.07666
1205.0	4.222945	11.509081	9.715723	-2.750469	4.287339	0.140372	-0.718994	-0.23877	0.024414
1206.0	5.480871	12.39152	8.807062	-2.966953	4.500457	-0.244478	-0.731689	-0.245117	-0.036865
1207.0	6.393104	12.951769	7.890712	-3.250918	4.721737	-0.671904	-0.739502	-0.266846	-0.109375
1208.0	7.225695	12.935965	7.227392	-3.51609	4.88776	-1.086807	-0.732178	-0.283936	-0.193359
1209.0	8.145255	12.699557	6.771119	-3.697417	5.024097	-1.450362	-0.713867	-0.307617	-0.286377
1210.0	8.800277	12.357249	6.625513	-3.757196	5.10179	-1.727005	-0.673096	-0.339844	-0.379395
1211.0	10.076385	12.193242	6.812679	-3.689736	5.172067	-1.949992	-0.614746	-0.374268	-0.476563
1212.0	11.292087	12.326873	7.210923	-3.548702	5.290602	-2.113077	-0.537354	-0.397461	-0.551514
1213.0	12.106861	12.596264	7.386467	-3.404081	5.437585	-2.227405	-0.435791	-0.427246	-0.612549
1214.0	12.429096	12.555049	7.594084	-3.234268	5.55175	-2.268653	-0.330566	-0.441895	-0.648926
1215.0	12.935503	12.300233	7.799358	-2.996336	5.619548	-2.239979	-0.207764	-0.454102	-0.660156
1216.0	13.794029	12.010106	7.972204	-2.701236	5.675291	-2.16075	-0.103027	-0.457764	-0.632813
1217.0	14.85732	11.897665	8.148704	-2.33871	5.735441	-2.085173	-0.037842	-0.450928	-0.580566
1218.0	15.828751	12.203688	8.038659	-1.981169	5.769047	-2.019449	-0.023438	-0.433594	-0.5354
1219.0	16.622196	13.185641	7.504478	-1.766114	5.789832	-1.967209	-0.049072	-0.396729	-0.547607
1220.0	17.570411	14.368339	6.862676	-1.786188	5.730738	-1.909295	-0.05957	-0.355225	-0.589355
1221.0	19.13576	14.882211	6.183735	-2.101101	5.618639	-1.848495	-0.055176	-0.306885	-0.654053
1222.0	20.389173	12.055473	5.364925	-2.548633	5.528701	-1.843311	-0.029541	-0.245361	-0.726074
1223.0	20.655691	5.082086	4.405277	-2.381736	5.433518	-2.17557	0.009033	-0.184082	-0.777344
1224.0	20.603753	1.683016	3.456298	-1.415148	5.21004	-2.805148	0.061523	-0.135498	-0.828613
1225.0	20.071313	1.061794	2.332334	-0.478459	4.83536	-3.392217	0.114258	-0.0979	-0.861328
1226.0	20.39587	1.388969	0.947604	0.092892	4.382835	-3.763583	0.169678	-0.069092	-0.87793
1227.0	21.029602	1.987259	-0.553289	0.257227	3.906141	-3.868924	0.225098	-0.042725	-0.885254
1228.0	21.384266	2.06518	-2.192621	0.06125	3.428708	-3.638642	0.265869	-0.0271	-0.881104
1229.0	21.983291	0.868622	-4.166809	-0.150127	2.976879	-3.162779	0.299805	-0.005127	-0.874756
1230.0	22.188729	-0.855195	-6.428346	-0.175327	2.512165	-2.523492	0.319092	0.001465	-0.854492
1231.0	21.047973	-2.994662	-8.954742	0.044062	1.979255	-1.751727	0.338379	0.012451	-0.841064
1232.0	19.445149	-5.097199	-11.147744	0.573032	1.30406	-0.954776	0.343018	0.006104	-0.827148
1233.0	17.782745	-6.141734	-12.610694	1.317498	0.460831	-0.199272	0.338867	0.001465	-0.815674
1234.0	17.430302	-5.101196	-13.150617	2.02513	-0.468969	0.452824	0.326904	-0.022461	-0.806152
1235.0	17.639127	-2.891534	-12.611541	2.397969	-1.346975	1.015439	0.312012	-0.033447	-0.796631
1236.0	18.837508	0.166939	-11.581017	2.398972	-2.134157	1.527026	0.28418	-0.046875	-0.787354
1237.0	21.863989	3.490701	-9.368669	1.983311	-2.694157	2.092179	0.260498	-0.053467	-0.775635
1238.0	26.766453	5.700069	-5.876353	1.084546	-2.739706	2.663654	0.240967	-0.051514	-0.769043
1239.0	28.172923	4.996446	-2.46739	0.07123	-2.22983	2.888457	0.225342	-0.047363	-0.755371
1240.0	24.186255	3.392637	-0.232907	-0.426029	-1.516366	2.804734	0.222656	-0.03418	-0.755615
1241.0	5.058249	2.484641	12.502807	-0.532127	-1.386355	2.86774	0.222168	-0.025391	-0.755859
1242.0	-32.235448	1.087247	34.928335	0.727093	-1.846126	2.24477	0.20459	-0.019043	-0.746826
1243.0	11.859154	13.34759	36.915823	0.102897	-2.899801	0.751479	0.191406	-0.019287	-0.73999
1244.0	0.708342	12.48878	-5.71169	-1.250333	-1.983679	0.961845	0.171143	-0.00415	-0.72876
1245.0	15.2537	4.563908	9.934504	-1.148698	-3.214711	-0.001755	0.152832	0.017578	-0.724609
1246.0	20.614373	0.204878	9.632039	-1.259441	-2.295868	-0.545746	0.134766	0.030518	-0.722656
1247.0	13.012227	-5.339875	9.473749	-0.862353	-1.980788	-0.473503	0.121338	0.037109	-0.713623
1248.0	10.446541	-7.415625	9.437846	-0.402031	-1.6008	-0.130053	0.116699	0.04126	-0.706787
1249.0	8.498503	-5.82596	8.283565	0.145265	-1.445781	0.150381	0.112305	0.045654	-0.697754
1250.0	14.347124	5.240586	10.554007	0.273472	-1.427395	0.10385	0.107666	0.047852	-0.695557
1251.0	12.402888	0.875078	8.695169	-0.271493	-0.493182	0.23422	0.10791	0.043457	-0.697754
1252.0	8.839323	-1.245665	8.883486	-0.082376	-0.405369	0.04654	0.105469	0.047852	-0.684082
1253.0	8.654461	-0.456542	8.279489	0.054872	-0.302111	-0.12904	0.101074	0.049805	-0.684082
1254.0	8.177976	-0.345343	8.252288	0.124897	-0.157929	-0.275129	0.107666	0.047852	-0.688721
1255.0	7.48129	0.663289	8.051369	0.165989	-0.08156	-0.339111	0.105469	0.047852	-0.679443
1256.0	7.419859	0.588433	8.139611	0.171566	-0.038221	-0.384741	0.101563	0.04126	-0.681641
1257.0	7.277603	0.645209	8.070901	0.173113	0.012089	-0.430154	0.105957	0.04126	-0.677246
1258.0	6.861456	1.01412	7.952444	0.175369	0.019176	-0.451981	0.108154	0.036865	-0.677002
1259.0	6.990649	1.554468	7.91808	0.148712	0.016229	-0.454759	0.112549	0.036865	-0.672607
1260.0	6.825545	0.994518	7.895413	0.122442	0.02571	-0.459011	0.101807	0.034668	-0.681641
1261.0	6.792537	0.669226	7.85523	0.128819	0.003846	-0.475865	0.106201	0.032471	-0.667969
1262.0	6.596823	0.998408	7.816454	0.149086	-0.013262	-0.501884	0.108643	0.030273	-0.672363
1263.0	6.813555	0.94875	7.835801	0.172981	-0.016847	-0.518196	0.108398	0.032471	-0.672363
1264.0	6.579754	1.042809	7.868265	0.186402	-0.015885	-0.543634	0.108887	0.021484	-0.672119
1265.0	6.465855	1.859425	7.687278	0.161053	-0.037553	-0.527837	0.117676	0.023682	-0.665527
1266.0	6.520483	2.488706	7.637303	0.120994	-0.061941	-0.467713	0.115479	0.019287	-0.660889
1267.0	6.562804	2.577278	7.362125	0.099252	-0.07093	-0.395279	0.120117	0.015137	-0.663086
1268.0	6.311446	2.847715	7.449519	0.084917	-0.10977	-0.318984	0.122314	0.017334	-0.669922
1269.0	6.412376	2.80889	7.522367	0.033968	-0.168862	-0.22494	0.13501	0.026123	-0.681396
1270.0	6.409577	2.174031	7.455655	-0.004211	-0.206156	-0.154919	0.127441	0.047852	-0.693359
1271.0	6.172889	2.302021	7.454469	-0.029108	-0.272037	-0.109473	0.111084	0.06958	-0.686768
1272.0	6.382124	1.975991	7.612423	-0.024748	-0.335618	-0.070094	0.091553	0.067383	-0.664063
1273.0	6.537269	2.233824	7.715906	-0.026389	-0.396322	-0.024326	0.079346	0.049805	-0.656738
1274.0	6.555404	2.31392	7.585827	-0.061525	-0.445415	0.024274	0.079834	0.036621	-0.647461
1275.0	6.551871	1.928966	7.590777	-0.070247	-0.518604	0.049723	0.086914	0.027832	-0.649414
1276.0	6.647778	2.2666	7.45468	-0.075453	-0.588918	0.098845	0.08667	0.030029	-0.647217
1277.0	6.224359	3.58808	7.477516	-0.131016	-0.682117	0.222371	0.082275	0.032227	-0.638184
1278.0	6.347861	4.263006	7.539692	-0.348944	-0.754649	0.42377	0.080322	0.030029	-0.638184
1279.0	6.708554	3.966007	7.500188	-0.642406	-0.773039	0.615616	0.071289	0.034424	-0.638184
1280.0	7.355668	2.381716	7.844338	-0.857814	-0.720811	0.697171	0.068604	0.047363	-0.634033
1281.0	7.758978	1.50298	7.966531	-0.943316	-0.694769	0.733279	0.066406	0.047363	-0.634033
1282.0	7.574998	1.028716	8.223618	-0.786473	-0.697555	0.739159	0.050781	0.055908	-0.638672
1283.0	7.761063	0.936629	8.207643	-0.437129	-0.763318	0.715349	0.050537	0.060303	-0.638672
1284.0	7.682043	1.425615	9.462272	-0.363801	-0.833121	0.648224	0.039307	0.066895	-0.641113
1285.0	7.282293	-1.529481	9.23082	-0.565491	-1.12821	0.567574	0.032715	0.066895	-0.636475
1286.0	7.262511	-1.786483	9.426021	-0.332914	-1.477989	0.342032	0.015381	0.064453	-0.636475
1287.0	7.188007	-2.219646	9.607416	-0.032157	-1.903425	0.082051	-0.004395	0.06665	-0.629639
1288.0	6.855119	-1.933344	9.751482	0.217167	-2.383447	-0.192277	-0.021484	0.059814	-0.622559
1289.0	6.555214	-1.903239	9.816327	0.377643	-2.870368	-0.47791	-0.042969	0.05542	-0.611084
1290.0	5.989599	-2.434368	10.183366	0.375388	-3.315206	-0.702961	-0.071045	0.046387	-0.599609
1291.0	4.73188	-2.231637	10.309499	0.467455	-3.867092	-0.582149	-0.099121	0.039551	-0.581055
1292.0	5.135398	-2.667566	10.650436	0.496843	-4.345969	-0.942056	-0.135742	0.030518	-0.560303
1293.0	3.905806	-2.869402	11.052369	0.667176	-4.941501	-1.219944	-0.16333	0.012939	-0.532715
1294.0	2.690255	-2.288191	11.253203	0.867514	-5.650381	-1.759858	-0.199463	-0.00708	-0.493408
1295.0	0.690598	-1.935406	12.597366	1.204608	-6.75889	-2.510436	-0.242188	-0.0271	-0.440674
1296.0	2.65033	1.706197	12.654532	1.351061	-8.511889	-3.04614	-0.292725	-0.064697	-0.375977
1297.0	12.774364	3.567325	9.345969	1.590465	-10.067048	-3.248036	-0.332764	-0.0979	-0.300049
1298.0	23.862328	6.278439	7.510486	1.871346	-10.750736	-3.134174	-0.376953	-0.135498	-0.208252
1299.0	31.83154	5.319618	6.801887	2.624901	-10.680946	-2.724248	-0.425049	-0.179688	-0.125244
1300.0	32.036663	4.439385	9.36834	3.766304	-9.8958	-2.223094	-0.460205	-0.223877	-0.044434
1301.0	30.007478	8.522955	12.65485	3.880176	-8.453715	-1.242638	-0.508301	-0.265625	0.024658
1302.0	26.982923	13.271008	17.071069	2.999576	-5.727307	0.129034	-0.563965	-0.292236	0.048096
1303.0	16.489659	3.084755	31.652942	2.289838	-1.673501	1.387449	-0.61084	-0.31665	0.048584
1304.0	27.961215	-2.970493	34.396713	2.273484	0.334477	3.486348	-0.674316	-0.3125	0.025879
1305.0	8.338217	-1.187623	25.687539	3.068582	3.023144	4.705502	-0.73584	-0.299805	-0.029053
1306.0	3.565774	5.489049	18.54907	3.85088	3.602289	5.402849	-0.776611	-0.264893	-0.072998
1307.0	3.338752	13.111714	15.831775	3.757577	4.016493	5.751197	-0.79834	-0.219238	-0.137695
1308.0	3.735498	18.60867	14.723821	2.389256	4.45417	5.647931	-0.811035	-0.179688	-0.199951
1309.0	3.820075	18.811565	13.552243	0.680576	4.861845	5.211185	-0.820068	-0.122803	-0.264893
1310.0	2.793466	17.575658	11.709089	-0.715478	5.173128	4.470252	-0.829102	-0.068115	-0.338867
1311.0	2.462948	15.342553	10.040146	-1.689716	5.367651	3.559764	-0.831787	-0.01123	-0.422119
1312.0	2.528513	12.400862	8.689085	-2.15539	5.562891	2.566927	-0.836182	0.039063	-0.51416
1313.0	2.483654	10.058685	7.67706	-2.18779	5.680903	1.507404	-0.822754	0.078857	-0.637939
1314.0	2.962008	9.09318	6.96103	-2.001751	5.722363	0.499469	-0.77124	0.096924	-0.768311
1315.0	3.981329	8.712218	6.508626	-1.79139	5.732763	-0.386577	-0.674072	0.121826	-0.898926
1316.0	5.486599	8.798302	6.424763	-1.652806	5.710506	-1.120042	-0.548828	0.146973	-0.999756
1317.0	7.538234	9.212253	6.617918	-1.615488	5.756497	-1.651698	-0.40625	0.178711	-1.064453
1318.0	9.075244	9.32042	6.963918	-1.69438	5.88373	-2.067492	-0.266602	0.225342	-1.074707
1319.0	10.434849	9.678465	7.306769	-1.802592	6.038676	-2.352618	-0.15332	0.273926	-1.055176
1320.0	11.175863	9.89976	7.603762	-1.916011	6.112484	-2.50379	-0.086182	0.335449	-1.033691
