Acquisition frequency: 100 Hz
PacketCounter	Acc_X	Acc_Y	Acc_Z	Gyr_X	Gyr_Y	Gyr_Z	Mag_X	Mag_Y	Mag_Z
1.0	9.202361	-1.04129	3.571981	0.064429	-0.001918	0.013374	-0.428223	0.209229	-0.662842
2.0	9.263372	-1.032366	3.561402	0.072643	-0.016926	0.018285	-0.432861	0.213623	-0.669922
3.0	9.276763	-0.982499	3.528618	0.070943	-0.017765	0.01572	-0.435059	0.211426	-0.66748
4.0	9.325357	-0.977468	3.553108	0.076154	-0.020792	0.017405	-0.437012	0.207031	-0.66748
5.0	9.37888	-0.940472	3.516728	0.077554	-0.014598	0.017848	-0.432617	0.207031	-0.665039
6.0	9.415716	-0.93052	3.562842	0.087943	-0.01112	0.01618	-0.437012	0.207031	-0.662842
7.0	9.428738	-0.879838	3.5311	0.103305	-0.000453	0.015604	-0.43457	0.202637	-0.665039
8.0	9.40416	-0.8308	3.5942	0.114435	0.015949	0.021167	-0.435059	0.209229	-0.669922
9.0	9.3401	-0.806438	3.642339	0.107764	0.022508	0.021992	-0.43042	0.207031	-0.662842
10.0	9.319437	-0.817482	3.637571	0.091442	0.028802	0.028729	-0.439209	0.204834	-0.665039
11.0	9.31326	-0.848335	3.701802	0.101362	0.019063	0.031465	-0.434814	0.207031	-0.665039
12.0	9.303414	-0.826486	3.694541	0.11571	0.012608	0.026586	-0.430176	0.204834	-0.669678
13.0	9.330179	-0.795421	3.733603	0.110709	0.015153	0.028457	-0.432617	0.204834	-0.671875
14.0	9.29261	-0.803186	3.690003	0.100993	0.029283	0.030745	-0.439209	0.202637	-0.669678
15.0	9.300216	-0.822474	3.703478	0.10706	0.033401	0.025642	-0.432373	0.198242	-0.669434
16.0	9.239137	-0.820017	3.702879	0.122852	0.033358	0.029234	-0.43457	0.200439	-0.667236
17.0	9.22627	-0.813392	3.727407	0.121153	0.023002	0.031759	-0.432373	0.200439	-0.671875
18.0	9.244941	-0.799727	3.737736	0.117102	0.008818	0.035572	-0.430176	0.200439	-0.667236
19.0	9.236485	-0.816091	3.710354	0.120251	0.00114	0.039909	-0.432373	0.202637	-0.662598
20.0	9.252946	-0.818685	3.750242	0.118691	0.005052	0.044624	-0.43457	0.198242	-0.669434
21.0	9.297049	-0.762898	3.705109	0.123108	-0.010692	0.047203	-0.432373	0.200439	-0.674072
22.0	9.31669	-0.750459	3.712759	0.124229	-0.013525	0.049087	-0.432373	0.202637	-0.671875
23.0	9.344251	-0.720468	3.749355	0.124515	-0.004865	0.045298	-0.432129	0.196045	-0.664795
24.0	9.315258	-0.711893	3.732963	0.122246	0.01506	0.043552	-0.427734	0.196045	-0.671631
25.0	9.319231	-0.709249	3.795989	0.115179	0.042069	0.042912	-0.429932	0.193848	-0.67627
26.0	9.288753	-0.700618	3.783242	0.116294	0.048713	0.039652	-0.432373	0.198242	-0.674072
27.0	9.248599	-0.762495	3.753817	0.115616	0.035629	0.038351	-0.434326	0.193848	-0.671631
28.0	9.238759	-0.741339	3.746312	0.120077	0.000288	0.041062	-0.432129	0.196045	-0.671631
29.0	9.262762	-0.7891	3.686272	0.125027	-0.017013	0.040659	-0.425293	0.196045	-0.671631
30.0	9.327343	-0.72103	3.64687	0.136231	-0.020564	0.043816	-0.43457	0.198242	-0.67627
31.0	9.381148	-0.685813	3.609852	0.139701	-0.014694	0.04582	-0.429932	0.193848	-0.673828
32.0	9.388245	-0.629335	3.657271	0.133009	0.006622	0.04502	-0.434326	0.193848	-0.673828
33.0	9.400794	-0.581421	3.626316	0.121313	0.030907	0.04831	-0.423096	0.193848	-0.678467
34.0	9.455372	-0.559494	3.684235	0.104863	0.037484	0.043367	-0.429932	0.193848	-0.67627
35.0	9.419852	-0.581731	3.732314	0.090632	0.033916	0.043105	-0.432129	0.196045	-0.674072
36.0	9.43506	-0.584979	3.774995	0.082416	0.03965	0.041331	-0.434326	0.193848	-0.671631
37.0	9.361675	-0.579113	3.796307	0.080246	0.064457	0.040853	-0.429688	0.189453	-0.671387
38.0	9.300048	-0.617095	3.779964	0.072732	0.068569	0.041841	-0.429688	0.19165	-0.673828
39.0	9.28574	-0.612436	3.807204	0.077576	0.061077	0.038541	-0.432129	0.196045	-0.671631
40.0	9.212367	-0.606009	3.828221	0.077468	0.041517	0.032912	-0.429688	0.189453	-0.673828
41.0	9.201333	-0.547403	3.839749	0.069222	0.032584	0.026927	-0.425293	0.19165	-0.678467
42.0	9.203715	-0.571272	3.793572	0.057243	0.023791	0.03279	-0.429688	0.189453	-0.676025
43.0	9.149161	-0.541154	3.728277	0.046202	0.011902	0.020957	-0.432129	0.193848	-0.67627
44.0	9.192592	-0.578631	3.676851	0.04739	-0.010513	0.023133	-0.432129	0.193848	-0.67627
45.0	9.256296	-0.604079	3.631401	0.043463	-0.025006	0.024974	-0.429688	0.19165	-0.671387
46.0	9.364507	-0.601688	3.660278	0.045344	-0.020012	0.024453	-0.434326	0.19165	-0.671387
47.0	9.376966	-0.646202	3.621073	0.05232	0.001552	0.025418	-0.425293	0.19165	-0.671387
48.0	9.358851	-0.606144	3.602059	0.056292	0.03072	0.027724	-0.431885	0.189453	-0.673828
49.0	9.248805	-0.635786	3.697329	0.039563	0.053193	0.02776	-0.429688	0.19165	-0.671387
50.0	9.275152	-0.644804	3.720135	0.043701	0.042772	0.02836	-0.425049	0.189453	-0.678467
51.0	9.279322	-0.680398	3.765367	0.051445	0.028045	0.025976	-0.423096	0.193848	-0.678467
52.0	9.321276	-0.679998	3.733946	0.057198	0.013611	0.027715	-0.42749	0.19165	-0.678467
53.0	9.312239	-0.660383	3.724327	0.048006	-0.002344	0.028675	-0.425049	0.189453	-0.678467
54.0	9.343641	-0.654804	3.710815	0.042922	-0.014016	0.028596	-0.434326	0.193848	-0.680908
55.0	9.382911	-0.630955	3.726016	0.05014	0.006753	0.025092	-0.427246	0.185059	-0.678223
56.0	9.309429	-0.54745	3.779739	0.045304	0.043282	0.022767	-0.42749	0.19165	-0.673828
57.0	9.235906	-0.541123	3.800824	0.0242	0.072091	0.025164	-0.422852	0.189453	-0.680664
58.0	9.111652	-0.592039	3.8103	0.03394	0.061948	0.020066	-0.425293	0.19165	-0.680664
59.0	9.069945	-0.578793	3.81696	0.040506	0.025907	0.022714	-0.425049	0.187256	-0.680664
60.0	9.123541	-0.648324	3.86768	0.036792	-0.013475	0.027152	-0.429443	0.185059	-0.675781
61.0	9.176291	-0.707482	3.825292	0.038569	-0.027688	0.029141	-0.425049	0.189453	-0.678467
62.0	9.228756	-0.728072	3.799837	0.055549	-0.031396	0.030235	-0.429688	0.189453	-0.673828
63.0	9.27272	-0.728098	3.763608	0.062044	-0.033139	0.030881	-0.425049	0.189453	-0.680664
64.0	9.285509	-0.734768	3.739971	0.059399	-0.041026	0.035275	-0.42749	0.189453	-0.680664
65.0	9.352239	-0.708499	3.679806	0.06203	-0.028244	0.032223	-0.429932	0.196045	-0.680908
66.0	9.35232	-0.670541	3.695828	0.076297	-0.015345	0.032927	-0.425293	0.193848	-0.67627
67.0	9.391828	-0.646369	3.710554	0.069484	-0.002999	0.033602	-0.423096	0.193848	-0.673828
68.0	9.375001	-0.645229	3.672065	0.058084	0.001383	0.034796	-0.429688	0.189453	-0.680664
69.0	9.354871	-0.658316	3.665479	0.062109	0.010549	0.029278	-0.423096	0.19165	-0.678467
70.0	9.337207	-0.618164	3.645581	0.067457	0.011606	0.027956	-0.42749	0.189453	-0.676025
71.0	9.261875	-0.586549	3.711415	0.060818	0.013759	0.029501	-0.427246	0.185059	-0.678223
72.0	9.24957	-0.581046	3.733666	0.054765	0.014305	0.028026	-0.429443	0.187256	-0.676025
73.0	9.254005	-0.577504	3.794411	0.04982	0.007143	0.027162	-0.42749	0.189453	-0.683105
74.0	9.170585	-0.564433	3.831899	0.039669	0.018121	0.02502	-0.42749	0.189453	-0.678467
75.0	9.161997	-0.583377	3.804867	0.034792	0.000751	0.019254	-0.42749	0.189453	-0.676025
76.0	9.131348	-0.628338	3.799871	0.03163	-0.021036	0.012438	-0.427246	0.185059	-0.673584
77.0	9.231705	-0.643848	3.800349	0.036642	-0.03388	0.011478	-0.425049	0.185059	-0.678223
78.0	9.213312	-0.655691	3.789696	0.037059	-0.039989	0.009308	-0.431885	0.187256	-0.673584
79.0	9.266404	-0.714119	3.746248	0.032553	-0.033238	0.013896	-0.427246	0.187256	-0.680664
80.0	9.224363	-0.714207	3.777855	0.036386	-0.018372	0.014117	-0.429688	0.189453	-0.678467
81.0	9.245203	-0.740487	3.766171	0.033983	-0.027051	0.014143	-0.427246	0.185059	-0.678223
82.0	9.19553	-0.759055	3.768471	0.038381	-0.052975	0.017962	-0.429688	0.187256	-0.680664
83.0	9.257105	-0.760862	3.768562	0.039241	-0.060293	0.014976	-0.431885	0.187256	-0.673584
84.0	9.338633	-0.75036	3.775521	0.042432	-0.063409	0.018614	-0.431885	0.19165	-0.673828
85.0	9.34062	-0.750519	3.77057	0.036751	-0.048966	0.01678	-0.429443	0.187256	-0.671387
86.0	9.29391	-0.755269	3.741636	0.031004	-0.029207	0.0185	-0.429443	0.185059	-0.673584
87.0	9.343028	-0.789815	3.747893	0.04732	-0.021555	0.019441	-0.427246	0.187256	-0.680664
88.0	9.36346	-0.77739	3.753648	0.056942	-0.021547	0.019258	-0.429443	0.184814	-0.668945
89.0	9.429105	-0.813078	3.799423	0.048871	-0.01578	0.017467	-0.431885	0.189453	-0.673828
90.0	9.45807	-0.859536	3.799329	0.046999	-0.015852	0.019376	-0.431641	0.182861	-0.678223
91.0	9.469579	-0.826909	3.795316	0.062062	-0.004993	0.020533	-0.431885	0.189453	-0.678467
92.0	9.39824	-0.818371	3.811833	0.057816	0.010731	0.017588	-0.427246	0.187256	-0.676025
93.0	9.411974	-0.81002	3.761811	0.06893	0.021829	0.018969	-0.434082	0.185059	-0.68042
94.0	9.390691	-0.744123	3.791498	0.072444	0.027705	0.020869	-0.427246	0.187256	-0.678223
95.0	9.351486	-0.738866	3.888881	0.050173	0.050442	0.022906	-0.427246	0.185059	-0.678223
96.0	9.352351	-0.764028	3.84607	0.04311	0.063608	0.022141	-0.429199	0.180664	-0.677979
97.0	9.349878	-0.802878	3.835552	0.053325	0.066888	0.020264	-0.429443	0.187256	-0.676025
98.0	9.324064	-0.712124	3.916396	0.056851	0.047384	0.011112	-0.429443	0.187256	-0.676025
99.0	9.307952	-0.657499	3.868711	0.039517	0.067511	0.017044	-0.427246	0.182861	-0.678223
100.0	9.202752	-0.693931	3.887498	0.03477	0.079532	0.01353	-0.429443	0.187256	-0.671387
101.0	9.142958	-0.678005	3.858957	0.037764	0.091485	0.011749	-0.425049	0.185059	-0.675781
102.0	9.124842	-0.685001	3.9189	0.025937	0.077067	0.006253	-0.431641	0.182617	-0.673584
103.0	9.141944	-0.672461	3.932522	0.008618	0.057128	0.002975	-0.427002	0.180664	-0.68042
104.0	9.144859	-0.706291	3.980228	0.001321	0.055985	0.000412	-0.427246	0.182861	-0.678223
105.0	9.119328	-0.693401	4.026427	-0.001419	0.057877	-0.004068	-0.423096	0.19165	-0.676025
106.0	9.080496	-0.626291	4.018596	-0.002446	0.04557	-0.006413	-0.425049	0.187256	-0.676025
107.0	9.107469	-0.633595	4.039712	-0.011597	0.014529	-0.011377	-0.425049	0.189453	-0.678467
108.0	9.035125	-0.654671	3.946908	-0.017394	-0.015124	-0.013557	-0.429443	0.187256	-0.678223
109.0	9.063171	-0.691646	3.854915	-0.019427	-0.039739	-0.018241	-0.425049	0.185059	-0.678223
110.0	9.092169	-0.728476	3.760524	-0.016339	-0.067346	-0.015377	-0.425049	0.185059	-0.678223
111.0	9.252698	-0.775632	3.65379	-0.022716	-0.090461	-0.013252	-0.427002	0.180664	-0.675781
112.0	9.395414	-0.844525	3.629293	-0.023581	-0.087995	-0.005855	-0.427246	0.185059	-0.68042
113.0	9.469235	-0.852858	3.60696	-0.020516	-0.056447	-0.008135	-0.422852	0.189453	-0.676025
114.0	9.510491	-0.905792	3.58459	-0.020304	-0.00744	-0.006495	-0.427246	0.185059	-0.682861
115.0	9.447238	-0.879133	3.628604	-0.013985	0.025914	-0.00377	-0.427002	0.180664	-0.68042
116.0	9.406156	-0.864915	3.63419	-0.005094	0.047512	-0.005021	-0.425049	0.187256	-0.676025
117.0	9.349404	-0.819396	3.710266	-0.0093	0.058365	-0.003545	-0.420654	0.187256	-0.676025
118.0	9.300691	-0.794247	3.797933	-0.011018	0.062789	-0.00252	-0.42749	0.189453	-0.685303
119.0	9.233799	-0.758607	3.75547	-0.008694	0.051869	-0.002094	-0.420166	0.180664	-0.68042
120.0	9.19279	-0.744522	3.760571	-0.001388	0.013408	-0.000727	-0.425049	0.189453	-0.678467
121.0	9.243958	-0.72636	3.754788	-0.003501	-0.015654	0.001243	-0.427246	0.185059	-0.68042
122.0	9.26824	-0.777835	3.695017	0.005005	-0.022633	0.002259	-0.427246	0.185059	-0.673584
123.0	9.292489	-0.829152	3.635296	0.018006	-0.016337	0.006214	-0.425049	0.187256	-0.678223
124.0	9.25589	-0.762178	3.622298	0.025446	-0.000926	0.004744	-0.425293	0.193848	-0.67627
125.0	9.216292	-0.747601	3.624036	0.03192	-0.012463	0.008548	-0.418457	0.189453	-0.676025
126.0	9.188148	-0.662337	3.638047	0.027241	-0.024858	0.015814	-0.425293	0.19165	-0.680664
127.0	9.202033	-0.639713	3.72315	0.014349	-0.026199	0.018984	-0.427246	0.187256	-0.673584
128.0	9.207737	-0.636022	3.780479	0.008169	-0.020364	0.015249	-0.429443	0.187256	-0.678223
129.0	9.269762	-0.608969	3.891019	0.005984	-0.034785	0.009599	-0.420654	0.187256	-0.673584
130.0	9.364766	-0.652786	3.952125	0.000613	-0.071024	-0.002731	-0.427246	0.185059	-0.675781
131.0	9.487223	-0.694697	3.93816	-0.007812	-0.08452	-0.013443	-0.429688	0.187256	-0.680664
132.0	9.530457	-0.707477	3.927818	-0.009871	-0.084676	-0.023139	-0.429688	0.189453	-0.676025
133.0	9.426951	-0.685516	3.767828	-0.031819	-0.058321	-0.032242	-0.427246	0.182861	-0.685059
134.0	9.205057	-0.668743	3.691708	-0.046595	-0.02063	-0.039727	-0.429443	0.187256	-0.673584
135.0	9.049534	-0.596346	3.668444	-0.044956	0.004734	-0.042205	-0.429443	0.187256	-0.678223
136.0	8.938135	-0.495103	3.720493	-0.070796	0.006901	-0.040296	-0.434082	0.184814	-0.675781
137.0	8.935	-0.469986	3.768539	-0.105731	-0.007257	-0.039431	-0.429688	0.189453	-0.676025
138.0	9.019996	-0.455446	3.83899	-0.135914	-0.00943	-0.048049	-0.431885	0.187256	-0.676025
139.0	9.108592	-0.466351	3.860244	-0.163214	-0.018794	-0.049966	-0.427246	0.185059	-0.675781
140.0	9.135312	-0.528829	3.889688	-0.196686	-0.027646	-0.059173	-0.431885	0.189453	-0.678467
141.0	9.29068	-0.653452	3.921036	-0.216437	-0.042442	-0.074575	-0.431885	0.187256	-0.676025
142.0	9.393167	-0.746956	3.883055	-0.21629	-0.048996	-0.090664	-0.434326	0.193848	-0.666992
143.0	9.489988	-0.867301	3.907212	-0.221292	-0.042288	-0.10358	-0.429688	0.19165	-0.671387
144.0	9.432757	-0.902433	3.880548	-0.213992	-0.007657	-0.113409	-0.432129	0.193848	-0.669189
145.0	9.36264	-0.931123	3.877996	-0.214595	0.032737	-0.11336	-0.429932	0.196045	-0.67627
146.0	9.234973	-0.944421	3.841361	-0.207299	0.038773	-0.10371	-0.431885	0.19165	-0.671387
147.0	9.133151	-0.917127	3.748859	-0.198548	0.011797	-0.093166	-0.427734	0.196045	-0.671631
148.0	9.168669	-0.895381	3.7013	-0.194001	-0.043569	-0.08049	-0.432129	0.193848	-0.671631
149.0	9.285807	-0.901524	3.64358	-0.186128	-0.092655	-0.069473	-0.430176	0.200439	-0.669434
150.0	9.421236	-0.94865	3.603877	-0.17778	-0.098853	-0.058395	-0.43457	0.200439	-0.669434
151.0	9.571091	-1.02496	3.495093	-0.156578	-0.068891	-0.050043	-0.432129	0.193848	-0.666992
152.0	9.590804	-1.066112	3.509549	-0.133983	-0.027806	-0.045722	-0.43457	0.200439	-0.669434
153.0	9.518565	-1.086137	3.414484	-0.111386	0.003843	-0.036141	-0.432373	0.198242	-0.671631
154.0	9.436174	-1.112444	3.434158	-0.086411	0.039295	-0.027855	-0.43457	0.200439	-0.671875
155.0	9.407287	-1.14302	3.401069	-0.057937	0.041799	-0.014984	-0.429932	0.198242	-0.674072
156.0	9.403282	-1.158303	3.435366	-0.016714	0.036779	-0.003614	-0.432373	0.198242	-0.669434
157.0	9.412529	-1.152718	3.557908	0.026187	0.037519	0.011704	-0.430176	0.200439	-0.669434
158.0	9.399438	-1.14753	3.582633	0.056296	0.036007	0.025709	-0.434814	0.204834	-0.667236
159.0	9.299111	-1.171582	3.566105	0.082595	0.024498	0.0407	-0.429932	0.198242	-0.666992
160.0	9.256006	-1.211996	3.584132	0.116063	-0.000138	0.056275	-0.434326	0.196045	-0.666992
161.0	9.209987	-1.164608	3.545564	0.141362	-0.033746	0.071674	-0.43457	0.198242	-0.671631
162.0	9.284886	-1.119637	3.512145	0.190474	-0.103294	0.079497	-0.43457	0.202637	-0.671875
163.0	9.310561	-1.093397	3.479872	0.224105	-0.134026	0.09273	-0.432373	0.198242	-0.666992
164.0	9.329951	-0.994612	3.423112	0.226636	-0.1209	0.103433	-0.429932	0.198242	-0.669434
165.0	9.37816	-0.981389	3.34951	0.234316	-0.106273	0.109203	-0.43457	0.198242	-0.664795
166.0	9.391403	-0.95103	3.339656	0.258791	-0.090041	0.113735	-0.432129	0.196045	-0.674072
167.0	9.375617	-0.912178	3.313718	0.283147	-0.068914	0.11378	-0.432373	0.198242	-0.671631
168.0	9.290768	-0.876022	3.39762	0.27442	-0.027262	0.118699	-0.438721	0.191406	-0.666748
169.0	9.219199	-0.869878	3.415076	0.278834	0.00029	0.117645	-0.431885	0.189209	-0.662109
170.0	9.161501	-0.840473	3.520666	0.294649	-0.011247	0.120946	-0.436523	0.191406	-0.666748
171.0	9.235539	-0.81959	3.611669	0.310996	-0.059522	0.118931	-0.436523	0.189209	-0.669189
172.0	9.305425	-0.764202	3.656303	0.283284	-0.093799	0.113843	-0.436523	0.189209	-0.671387
173.0	9.396641	-0.851616	3.636604	0.284207	-0.127236	0.112555	-0.438477	0.184814	-0.666504
174.0	9.451459	-0.794469	3.637291	0.293322	-0.127306	0.106306	-0.436279	0.187012	-0.673584
175.0	9.468932	-0.747784	3.592951	0.290735	-0.106627	0.102551	-0.440674	0.184814	-0.671143
176.0	9.468596	-0.700619	3.511086	0.269549	-0.096827	0.10745	-0.436035	0.182617	-0.668945
177.0	9.421502	-0.684563	3.357739	0.244164	-0.06652	0.099147	-0.438232	0.18042	-0.677979
178.0	9.354062	-0.663319	3.340422	0.24924	-0.014923	0.096326	-0.438232	0.178223	-0.66626
179.0	9.306022	-0.650265	3.456592	0.24757	0.019289	0.095653	-0.436035	0.18042	-0.671143
180.0	9.286104	-0.605423	3.608677	0.23158	0.025586	0.094336	-0.438477	0.184814	-0.671143
181.0	9.319496	-0.607721	3.688802	0.216567	0.009076	0.093446	-0.438232	0.178223	-0.675537
182.0	9.345022	-0.589899	3.756174	0.210131	-0.00514	0.08812	-0.436035	0.178223	-0.66626
183.0	9.356073	-0.597173	3.73579	0.202836	-0.016911	0.084424	-0.436035	0.18042	-0.67334
184.0	9.357015	-0.558222	3.750513	0.187437	-0.032743	0.076455	-0.440674	0.182617	-0.673584
185.0	9.340134	-0.596913	3.693709	0.18666	-0.04138	0.074642	-0.438232	0.18042	-0.668701
186.0	9.388477	-0.671019	3.684365	0.174736	-0.035316	0.073097	-0.440674	0.18042	-0.67334
187.0	9.411852	-0.68561	3.64022	0.170292	-0.054769	0.06828	-0.438232	0.178223	-0.668701
188.0	9.47272	-0.727601	3.623723	0.167893	-0.074521	0.065128	-0.438232	0.176025	-0.67334
189.0	9.527274	-0.776737	3.547925	0.158724	-0.060106	0.066952	-0.437988	0.173828	-0.677734
190.0	9.451924	-0.735054	3.518148	0.162233	-0.023694	0.065372	-0.44043	0.176025	-0.675537
191.0	9.355686	-0.705532	3.484018	0.168302	-0.014405	0.069152	-0.435791	0.176025	-0.668701
192.0	9.318081	-0.718488	3.439005	0.155705	-0.0111	0.07157	-0.44043	0.178223	-0.670898
193.0	9.347674	-0.687989	3.471113	0.152413	-0.038571	0.071217	-0.435791	0.173828	-0.675537
194.0	9.398331	-0.751161	3.429938	0.146149	-0.047871	0.067354	-0.440186	0.173828	-0.670898
195.0	9.440128	-0.688318	3.455885	0.151767	-0.017169	0.063868	-0.437744	0.167236	-0.675293
196.0	9.427776	-0.72111	3.462386	0.13795	0.020209	0.059506	-0.438232	0.178223	-0.670898
197.0	9.356426	-0.671839	3.498327	0.131769	0.052067	0.053301	-0.435791	0.171631	-0.679932
198.0	9.247608	-0.594734	3.506438	0.131334	0.068228	0.048345	-0.440186	0.171631	-0.677734
199.0	9.224914	-0.50035	3.583839	0.115325	0.059802	0.043496	-0.435547	0.169434	-0.675293
200.0	9.232324	-0.480754	3.615036	0.082047	0.026326	0.038552	-0.437988	0.171631	-0.675293
201.0	9.31679	-0.503695	3.671276	0.059174	0.005183	0.025978	-0.435547	0.167236	-0.672852
202.0	9.370564	-0.475013	3.63228	0.043629	0.01092	0.016839	-0.442139	0.165039	-0.67041
203.0	9.410156	-0.450334	3.646923	0.033299	0.028238	0.007257	-0.437744	0.167236	-0.675293
204.0	9.409993	-0.410177	3.664705	0.00123	0.032495	-0.006085	-0.442383	0.169434	-0.673096
205.0	9.441125	-0.365244	3.668186	-0.017254	0.025406	-0.017507	-0.435791	0.171631	-0.677734
206.0	9.410101	-0.328871	3.699136	-0.036372	0.019835	-0.031733	-0.442627	0.173828	-0.668457
207.0	9.376162	-0.304617	3.762442	-0.074136	0.029807	-0.03947	-0.43335	0.171631	-0.673096
208.0	9.243771	-0.330052	3.762812	-0.098596	0.044781	-0.044479	-0.435791	0.171631	-0.675293
209.0	9.178344	-0.418413	3.764017	-0.123621	0.030478	-0.045209	-0.439941	0.167236	-0.672852
210.0	9.157186	-0.470278	3.743019	-0.128086	-0.009996	-0.055426	-0.435791	0.171631	-0.673096
211.0	9.216379	-0.552273	3.713977	-0.150083	-0.042947	-0.054793	-0.433594	0.178223	-0.66626
212.0	9.310304	-0.617342	3.636854	-0.153718	-0.044074	-0.061113	-0.437988	0.173828	-0.677734
213.0	9.359689	-0.651818	3.642071	-0.155371	-0.024675	-0.065881	-0.437988	0.173828	-0.673096
214.0	9.381482	-0.745179	3.567663	-0.165896	-0.016879	-0.066375	-0.437988	0.173828	-0.673096
215.0	9.432166	-0.806812	3.527231	-0.176321	-0.00415	-0.06564	-0.44043	0.176025	-0.670898
216.0	9.455475	-0.839216	3.608414	-0.163032	0.011046	-0.064011	-0.438232	0.176025	-0.677979
217.0	9.416384	-0.929937	3.533166	-0.159647	0.03296	-0.057807	-0.435791	0.173828	-0.673096
218.0	9.369929	-0.979764	3.586124	-0.152718	0.03979	-0.055603	-0.438232	0.178223	-0.670898
219.0	9.313806	-1.088734	3.596418	-0.135091	0.033736	-0.044839	-0.437744	0.167236	-0.679932
220.0	9.313345	-1.089342	3.597428	-0.111603	0.016787	-0.037388	-0.436035	0.178223	-0.67334
221.0	9.3411	-1.136934	3.599798	-0.090243	0.005978	-0.025939	-0.437988	0.173828	-0.675537
222.0	9.341103	-1.137805	3.599513	-0.071674	0.007644	-0.017806	-0.438477	0.182617	-0.678223
223.0	9.34367	-1.126006	3.567776	-0.056337	0.012834	-0.011113	-0.440186	0.173828	-0.675537
224.0	9.329895	-1.035171	3.52947	-0.038071	0.015273	-0.004358	-0.436035	0.178223	-0.670898
225.0	9.355216	-0.998563	3.472619	-0.030822	0.001424	0.003654	-0.438232	0.178223	-0.675537
226.0	9.390562	-0.903542	3.457276	-0.011996	-0.01818	0.009557	-0.438232	0.178223	-0.668701
227.0	9.502474	-0.850511	3.468355	-0.006376	-0.01318	0.005013	-0.438232	0.176025	-0.67334
228.0	9.508368	-0.786443	3.420679	-0.014825	0.024843	0.003051	-0.442627	0.178223	-0.670898
229.0	9.476129	-0.752797	3.454726	-0.01074	0.069768	-0.002425	-0.436035	0.178223	-0.670898
230.0	9.424976	-0.756993	3.437472	-0.00904	0.090023	-0.012281	-0.442871	0.18042	-0.671143
231.0	9.360293	-0.727074	3.488768	-0.008511	0.078163	-0.01422	-0.438232	0.178223	-0.668701
232.0	9.298353	-0.723212	3.491019	-0.00699	0.063399	-0.019943	-0.433594	0.178223	-0.67334
233.0	9.28579	-0.675245	3.532622	-0.008606	0.052291	-0.021335	-0.434082	0.184814	-0.678223
234.0	9.261798	-0.659368	3.578066	-0.009682	0.044884	-0.022264	-0.438232	0.18042	-0.67334
235.0	9.26109	-0.618601	3.597205	-0.011283	0.028975	-0.019132	-0.433594	0.178223	-0.66626
236.0	9.260187	-0.656576	3.582744	-0.018257	0.001779	-0.019304	-0.436035	0.182617	-0.671143
237.0	9.2914	-0.689664	3.552235	-0.027624	-0.018966	-0.019078	-0.436035	0.18042	-0.67334
238.0	9.303688	-0.69601	3.529079	-0.031599	-0.033804	-0.019002	-0.442627	0.178223	-0.668701
239.0	9.30635	-0.800106	3.446761	-0.033359	-0.0241	-0.020333	-0.436035	0.18042	-0.68042
240.0	9.306706	-0.838488	3.428937	-0.021919	-0.013832	-0.017834	-0.438232	0.18042	-0.671143
241.0	9.317984	-0.883888	3.391391	-0.016311	-0.008247	-0.01439	-0.433594	0.178223	-0.668701
242.0	9.332375	-0.935967	3.444812	-0.015105	-0.016277	-0.010076	-0.436279	0.187012	-0.668945
243.0	9.353079	-0.92327	3.449789	-0.000381	-0.019711	-0.00506	-0.436035	0.18042	-0.668701
244.0	9.339502	-0.928801	3.501035	0.004128	-0.005973	-0.000146	-0.436035	0.182617	-0.673584
245.0	9.356664	-0.92944	3.539695	0.007669	0.005287	0.005102	-0.438477	0.182617	-0.675781
246.0	9.365312	-0.910622	3.567244	0.008003	-0.000292	0.011015	-0.438477	0.182617	-0.675781
247.0	9.373735	-0.931043	3.578346	0.020686	-0.008807	0.010914	-0.436035	0.178223	-0.66626
248.0	9.354488	-0.904416	3.586559	0.022969	-0.014809	0.012699	-0.436035	0.18042	-0.675781
249.0	9.385944	-0.899531	3.572053	0.022945	-0.004627	0.011637	-0.436035	0.18042	-0.668701
250.0	9.385793	-0.899963	3.57234	0.030708	0.005588	0.017996	-0.438477	0.182617	-0.671143
251.0	9.343399	-0.859216	3.623562	0.045947	0.010656	0.018948	-0.438477	0.182617	-0.678223
252.0	9.362823	-0.847018	3.631805	0.048637	0.013609	0.018868	-0.445068	0.182617	-0.675781
253.0	9.331996	-0.773937	3.678573	0.038901	0.0092	0.020089	-0.436035	0.178223	-0.67334
254.0	9.383067	-0.756998	3.671838	0.031574	-0.007043	0.017461	-0.438232	0.18042	-0.67334
255.0	9.434731	-0.739966	3.663606	0.025328	-0.021261	0.012306	-0.440674	0.18042	-0.677979
256.0	9.497086	-0.76903	3.619156	0.025195	-0.005831	0.0089	-0.438477	0.182617	-0.671143
257.0	9.545423	-0.764348	3.644166	0.016744	0.006444	0.005589	-0.44043	0.178223	-0.670898
258.0	9.515775	-0.795689	3.612387	0.01962	0.034233	0.002421	-0.436035	0.182617	-0.668945
259.0	9.414855	-0.77778	3.615151	0.022052	0.063248	4.2e-05	-0.431641	0.18042	-0.677979
260.0	9.324374	-0.767057	3.599325	0.018869	0.077085	0.003274	-0.438477	0.182617	-0.666504
261.0	9.29637	-0.765474	3.679002	0.011732	0.065908	0.007687	-0.436035	0.18042	-0.671143
262.0	9.254125	-0.790209	3.671073	0.009596	0.051094	0.005854	-0.440674	0.18042	-0.677979
263.0	9.232735	-0.763576	3.684593	-0.002183	0.046987	0.005414	-0.433594	0.178223	-0.675537
264.0	9.239026	-0.784119	3.700951	-0.014539	0.059535	0.002343	-0.436035	0.18042	-0.677979
265.0	9.247895	-0.831347	3.669487	-0.010516	0.043832	0.005492	-0.436035	0.178223	-0.67334
266.0	9.329302	-0.809585	3.651711	-0.006872	0.018588	0.002555	-0.436035	0.182617	-0.668945
267.0	9.455892	-0.874283	3.657546	-0.011681	0.000824	0.000806	-0.433838	0.182617	-0.673584
268.0	9.526778	-0.84491	3.658457	-0.004705	0.022633	-0.002506	-0.438477	0.184814	-0.671143
269.0	9.445027	-0.893522	3.635931	-0.00139	0.07448	-0.007417	-0.436035	0.182617	-0.675781
270.0	9.29136	-0.892895	3.64872	-0.004109	0.106994	-0.009371	-0.436279	0.184814	-0.675781
271.0	9.157111	-0.880098	3.669431	0.000712	0.104399	-0.005464	-0.431396	0.178223	-0.677979
272.0	9.096272	-0.922261	3.748389	0.008903	0.077335	-0.005864	-0.433838	0.182617	-0.678223
273.0	9.1309	-0.910093	3.799439	0.005866	0.040278	0.002808	-0.429199	0.180664	-0.68042
274.0	9.112877	-0.909567	3.76352	0.01124	0.020896	0.003604	-0.433838	0.18042	-0.67334
275.0	9.143282	-0.943957	3.735605	0.015364	0.005329	0.012562	-0.431641	0.18042	-0.677979
276.0	9.248501	-0.936182	3.675031	0.025117	-0.000446	0.01246	-0.436035	0.182617	-0.678223
277.0	9.322202	-0.933234	3.62851	0.036715	0.014292	0.014017	-0.433594	0.178223	-0.675537
278.0	9.353092	-0.888842	3.632849	0.036229	0.025697	0.013706	-0.431641	0.182861	-0.678223
279.0	9.360512	-0.869126	3.663174	0.038918	0.03344	0.009091	-0.427246	0.182861	-0.68042
280.0	9.3545	-0.796893	3.638904	0.031645	0.037694	0.010055	-0.431641	0.182861	-0.678223
281.0	9.293724	-0.754459	3.653853	0.03121	0.048503	0.001763	-0.433838	0.178223	-0.680176
282.0	9.272329	-0.726679	3.667325	0.027501	0.048464	0.005604	-0.429199	0.18042	-0.675781
283.0	9.259247	-0.718644	3.692044	0.026067	0.041686	-0.002477	-0.429199	0.18042	-0.675781
284.0	9.286469	-0.685705	3.729598	0.026989	0.029053	-0.002947	-0.433838	0.18042	-0.677979
285.0	9.266074	-0.65756	3.74047	0.009473	0.014888	-0.005903	-0.429199	0.178467	-0.682617
286.0	9.248858	-0.656178	3.703061	0.001625	0.015297	-0.011173	-0.431641	0.18042	-0.675781
287.0	9.197255	-0.632962	3.726901	0.003229	0.021018	-0.01326	-0.428955	0.173828	-0.680176
288.0	9.183845	-0.579464	3.672638	-0.0178	0.000966	-0.017989	-0.431641	0.18042	-0.671143
289.0	9.220812	-0.566554	3.717753	-0.030332	-0.011461	-0.023737	-0.427002	0.180664	-0.682617
290.0	9.20502	-0.525312	3.693281	-0.036403	-0.011177	-0.036715	-0.431641	0.18042	-0.677979
291.0	9.217577	-0.451947	3.703206	-0.054022	-0.004997	-0.041913	-0.431641	0.180664	-0.682617
292.0	9.214977	-0.462901	3.733791	-0.08362	-0.017724	-0.051315	-0.436035	0.182617	-0.678223
293.0	9.244235	-0.508197	3.733398	-0.105083	-0.041949	-0.058739	-0.431641	0.182617	-0.673584
294.0	9.297518	-0.528281	3.705802	-0.111362	-0.061104	-0.065169	-0.431641	0.18042	-0.675781
295.0	9.379804	-0.555672	3.694503	-0.125651	-0.084196	-0.07017	-0.438477	0.184814	-0.682861
296.0	9.383048	-0.632423	3.653695	-0.138665	-0.09528	-0.069436	-0.436035	0.182617	-0.673584
297.0	9.440367	-0.717789	3.558528	-0.137555	-0.078596	-0.074036	-0.431641	0.182617	-0.671143
298.0	9.426487	-0.714663	3.512321	-0.12812	-0.058734	-0.078667	-0.433838	0.182617	-0.673584
299.0	9.436902	-0.771119	3.502264	-0.134319	-0.037251	-0.074263	-0.433594	0.178223	-0.670898
300.0	9.495052	-0.823557	3.518541	-0.140643	-0.030436	-0.067863	-0.431885	0.187256	-0.676025
301.0	9.504981	-0.881071	3.509636	-0.133986	-0.032995	-0.065903	-0.429443	0.182617	-0.671143
302.0	9.574685	-0.86232	3.53785	-0.11545	-0.026479	-0.062158	-0.434082	0.187012	-0.664307
303.0	9.626857	-0.882062	3.512446	-0.124786	-0.006759	-0.056827	-0.431885	0.189453	-0.671387
304.0	9.587457	-0.905909	3.4977	-0.138592	0.014331	-0.05622	-0.436523	0.189209	-0.669189
305.0	9.499123	-0.973632	3.443351	-0.127319	0.034815	-0.054672	-0.436035	0.18042	-0.671143
306.0	9.449998	-0.977504	3.420954	-0.115893	0.050035	-0.050799	-0.431641	0.182617	-0.673584
307.0	9.369101	-0.948076	3.429762	-0.123257	0.063989	-0.053051	-0.431885	0.189453	-0.676025
308.0	9.37569	-0.928597	3.462463	-0.12557	0.070072	-0.049072	-0.438721	0.189209	-0.678467
309.0	9.362204	-0.92165	3.488576	-0.11523	0.072973	-0.047446	-0.431641	0.184814	-0.673584
310.0	9.3569	-0.895773	3.542698	-0.106735	0.075823	-0.043888	-0.436523	0.191406	-0.664551
311.0	9.363139	-0.915521	3.559739	-0.098906	0.070485	-0.039918	-0.436523	0.19165	-0.673828
312.0	9.312778	-0.880951	3.556568	-0.089039	0.06969	-0.038756	-0.434326	0.19165	-0.676025
313.0	9.259122	-0.859713	3.585599	-0.082259	0.081818	-0.038638	-0.431641	0.184814	-0.668945
314.0	9.251124	-0.825646	3.549822	-0.076552	0.082123	-0.032823	-0.434326	0.193848	-0.67627
315.0	9.18936	-0.823488	3.550562	-0.068646	0.056767	-0.030465	-0.429932	0.193848	-0.673828
316.0	9.187894	-0.823205	3.55442	-0.063655	0.039055	-0.026862	-0.429932	0.193848	-0.673828
317.0	9.214855	-0.830647	3.576065	-0.053707	0.043181	-0.024348	-0.431885	0.19165	-0.673828
318.0	9.238359	-0.851971	3.630008	-0.047896	0.053309	-0.015881	-0.429932	0.196045	-0.669434
319.0	9.27828	-0.87518	3.72303	-0.043267	0.046634	-0.008845	-0.434326	0.19165	-0.673828
320.0	9.325158	-0.910314	3.735148	-0.036631	0.029829	-0.002748	-0.429688	0.189453	-0.671387
321.0	9.304498	-0.923722	3.729836	-0.010873	0.018368	0.00653	-0.432129	0.193848	-0.673828
322.0	9.283833	-0.898281	3.740547	-0.001714	0.009815	0.010339	-0.427734	0.196045	-0.671631
323.0	9.267252	-0.936917	3.685413	0.001318	0.002229	0.014895	-0.42749	0.189453	-0.678467
324.0	9.242175	-0.916513	3.635437	0.023678	-0.005773	0.016913	-0.427734	0.196045	-0.669434
325.0	9.281719	-0.892301	3.649879	0.041015	-0.005831	0.018487	-0.434326	0.19165	-0.673828
326.0	9.321443	-0.906914	3.647843	0.036986	-0.000254	0.022226	-0.432129	0.196045	-0.671631
327.0	9.386093	-0.943052	3.695869	0.050222	-0.004562	0.024913	-0.431885	0.19165	-0.676025
328.0	9.450427	-0.940095	3.760795	0.067909	-0.000502	0.029181	-0.429932	0.193848	-0.669189
329.0	9.429446	-0.87474	3.788632	0.06998	0.023639	0.0258	-0.427246	0.187256	-0.673584
330.0	9.285771	-0.897007	3.806372	0.070138	0.048207	0.032316	-0.429688	0.19165	-0.669189
331.0	9.192735	-0.901048	3.819354	0.073835	0.048323	0.028474	-0.431885	0.19165	-0.673828
332.0	9.11629	-0.827945	3.903117	0.093377	0.017739	0.031095	-0.432129	0.193848	-0.666992
333.0	9.067978	-0.831776	3.878471	0.098607	-0.010589	0.033533	-0.434326	0.19165	-0.676025
334.0	9.119511	-0.774133	3.887899	0.094408	-0.034421	0.035253	-0.431885	0.189453	-0.669189
335.0	9.135925	-0.766774	3.832258	0.098501	-0.059963	0.035716	-0.429443	0.187256	-0.676025
336.0	9.243769	-0.716661	3.783362	0.105463	-0.073134	0.036541	-0.429443	0.187256	-0.666748
337.0	9.30065	-0.684664	3.739667	0.097365	-0.072285	0.033383	-0.429688	0.189453	-0.673828
338.0	9.317329	-0.638848	3.698862	0.077049	-0.049442	0.03331	-0.431885	0.187256	-0.671387
339.0	9.341688	-0.652565	3.654746	0.065503	-0.029533	0.031169	-0.429443	0.182861	-0.673584
340.0	9.330928	-0.646473	3.673075	0.055764	-0.024246	0.029048	-0.436279	0.184814	-0.673584
341.0	9.37955	-0.681605	3.680811	0.040559	-0.014703	0.025979	-0.434082	0.187256	-0.676025
342.0	9.364868	-0.689121	3.732703	0.035477	0.003439	0.024479	-0.436279	0.187012	-0.673584
343.0	9.321335	-0.688721	3.767884	0.035842	0.022154	0.019419	-0.429443	0.185059	-0.673584
344.0	9.229577	-0.692786	3.778024	0.034707	0.015188	0.020649	-0.429688	0.19165	-0.673828
345.0	9.21777	-0.68664	3.798999	0.030287	-0.008286	0.018878	-0.436279	0.187012	-0.678223
346.0	9.209988	-0.666914	3.786301	0.029426	-0.026407	0.010961	-0.431885	0.189453	-0.673828
347.0	9.230933	-0.654516	3.790743	0.031249	-0.03611	0.012272	-0.438477	0.187012	-0.673584
348.0	9.248791	-0.694361	3.810517	0.020884	-0.029255	0.007365	-0.429443	0.185059	-0.673584
349.0	9.261456	-0.700861	3.787333	0.018443	-0.033097	0.003012	-0.434082	0.189209	-0.671387
350.0	9.242977	-0.712745	3.77697	0.009401	-0.039647	-0.001055	-0.434082	0.184814	-0.673584
351.0	9.292479	-0.707747	3.798963	0.002527	-0.036653	-0.000888	-0.433838	0.182617	-0.673584
352.0	9.273805	-0.719668	3.789076	0.001451	-0.024126	-0.006117	-0.431641	0.184814	-0.673584
353.0	9.266363	-0.737977	3.759443	0.012286	-0.022455	-0.005258	-0.431641	0.182861	-0.678223
354.0	9.229746	-0.729419	3.850484	0.018742	-0.024766	-0.012621	-0.436523	0.193604	-0.669189
355.0	9.25409	-0.702126	3.822799	0.021933	-0.042952	-0.009199	-0.431641	0.184814	-0.661865
356.0	9.295811	-0.714669	3.816149	0.028046	-0.059052	-0.01022	-0.438721	0.189209	-0.671387
357.0	9.317997	-0.700312	3.817886	0.028032	-0.059052	-0.010228	-0.436279	0.184814	-0.671143
358.0	9.283461	-0.70973	3.767243	0.0339	-0.04942	-0.009853	-0.434082	0.187256	-0.676025
359.0	9.29699	-0.675357	3.758223	0.031021	-0.056868	-0.008893	-0.431641	0.184814	-0.673584
360.0	9.290921	-0.692838	3.72518	0.017634	-0.066771	-0.007375	-0.443115	0.187012	-0.668945
361.0	9.248095	-0.722339	3.646262	0.01473	-0.059111	-0.006173	-0.436279	0.184814	-0.673584
362.0	9.30127	-0.742279	3.618542	0.023557	-0.052215	-0.005738	-0.434082	0.187012	-0.662109
363.0	9.331284	-0.748463	3.632704	0.020513	-0.039294	-0.006848	-0.433838	0.182617	-0.668945
364.0	9.298373	-0.726946	3.691211	0.014112	-0.027235	-0.002705	-0.438477	0.187012	-0.671387
365.0	9.34755	-0.721281	3.714102	0.014735	-0.023974	-0.004428	-0.436035	0.182617	-0.671143
366.0	9.325675	-0.745754	3.736825	0.01897	-0.025007	-0.003293	-0.438721	0.189209	-0.669189
367.0	9.30391	-0.730987	3.775612	0.019081	-0.025449	-0.005492	-0.436279	0.187012	-0.668945
368.0	9.310903	-0.742647	3.693075	0.020045	-0.038075	-0.006058	-0.440918	0.187012	-0.671387
369.0	9.241602	-0.732391	3.705115	0.027929	-0.048768	-0.005547	-0.440674	0.184814	-0.673584
370.0	9.320364	-0.713698	3.620623	0.023132	-0.06118	-0.003924	-0.436279	0.184814	-0.673584
371.0	9.285964	-0.685067	3.585058	0.023636	-0.072585	-0.003695	-0.436279	0.184814	-0.671143
372.0	9.319833	-0.67844	3.56471	0.020485	-0.074331	-0.002846	-0.440674	0.184814	-0.664307
373.0	9.382055	-0.67944	3.562486	0.015457	-0.071301	-0.004578	-0.442871	0.182617	-0.671143
374.0	9.375905	-0.736812	3.512462	0.009913	-0.071976	-0.006784	-0.44751	0.184814	-0.659668
375.0	9.429298	-0.757027	3.483222	0.006365	-0.06276	-0.008363	-0.445313	0.184814	-0.673584
376.0	9.442846	-0.723657	3.473106	0.010002	-0.057312	-0.008759	-0.440674	0.184814	-0.661865
377.0	9.492851	-0.7569	3.477293	0.002199	-0.041696	-0.007976	-0.442871	0.18042	-0.666504
378.0	9.516815	-0.769612	3.432364	0.004991	-0.039174	-0.010241	-0.440674	0.18042	-0.668701
379.0	9.537757	-0.795401	3.42008	0.003498	-0.024881	-0.00667	-0.440674	0.18042	-0.666504
380.0	9.567007	-0.802097	3.436121	-0.001327	-0.017372	-0.009302	-0.440918	0.187012	-0.662109
381.0	9.476763	-0.804858	3.444428	-0.006591	-0.008641	-0.011129	-0.438477	0.187012	-0.676025
382.0	9.462486	-0.790544	3.373348	-0.012584	-0.002725	-0.009034	-0.443115	0.187012	-0.664307
383.0	9.411628	-0.807977	3.37994	-0.011707	-0.005168	-0.010642	-0.440674	0.184814	-0.659668
384.0	9.391972	-0.780672	3.388998	-0.010667	0.002241	-0.00969	-0.440918	0.189209	-0.669189
385.0	9.354918	-0.713608	3.37627	-0.014201	0.011455	-0.011251	-0.438477	0.184814	-0.675781
386.0	9.294793	-0.711237	3.373527	-0.016548	0.02282	-0.009546	-0.438721	0.191406	-0.671387
387.0	9.285747	-0.691191	3.363631	-0.023076	0.009919	-0.008178	-0.443115	0.187012	-0.666748
388.0	9.354056	-0.71315	3.378755	-0.023122	-0.014931	-0.005201	-0.440674	0.184814	-0.673584
389.0	9.394625	-0.688582	3.390174	-0.020444	-0.027072	-0.005517	-0.445313	0.189209	-0.673828
390.0	9.417838	-0.702557	3.346886	-0.024965	-0.014973	-0.003268	-0.442871	0.184814	-0.668945
391.0	9.395396	-0.767654	3.355049	-0.029532	0.001943	-0.005526	-0.445313	0.187012	-0.664307
392.0	9.417776	-0.781457	3.314094	-0.021874	0.006702	-0.008387	-0.447754	0.191406	-0.664551
393.0	9.375318	-0.780279	3.348693	-0.01575	0.000897	-0.004694	-0.438477	0.187012	-0.666748
394.0	9.395251	-0.807154	3.338951	-0.018628	-0.006554	-0.003721	-0.445313	0.187012	-0.664307
395.0	9.424071	-0.815023	3.355924	-0.014237	-0.012844	-0.000294	-0.438477	0.184814	-0.668945
396.0	9.418493	-0.821277	3.295451	-0.000785	-0.01311	-0.000855	-0.44751	0.187012	-0.662109
397.0	9.467179	-0.777347	3.335827	0.003363	0.001411	0.00273	-0.440918	0.187012	-0.664307
398.0	9.475418	-0.797624	3.347918	0.005673	0.01589	0.008248	-0.440918	0.191406	-0.664551
399.0	9.446372	-0.790761	3.331353	0.008515	0.013597	0.010496	-0.443115	0.189209	-0.664551
400.0	9.44312	-0.804416	3.364691	0.013044	0.016608	0.008502	-0.445313	0.184814	-0.661865
401.0	9.382663	-0.802787	3.36273	0.013931	0.029277	0.007153	-0.445313	0.187012	-0.664307
402.0	9.350238	-0.769757	3.39635	0.010777	0.048004	0.011757	-0.440918	0.189209	-0.659668
403.0	9.325947	-0.756698	3.442244	0.017031	0.051499	0.010025	-0.434082	0.184814	-0.659668
404.0	9.26772	-0.762183	3.533704	0.012598	0.048046	0.009813	-0.443359	0.193604	-0.664551
405.0	9.303359	-0.750914	3.582801	0.01631	0.028203	0.010202	-0.442871	0.184814	-0.664307
406.0	9.322768	-0.738816	3.590837	0.019247	-0.00475	0.009753	-0.440918	0.187012	-0.666748
407.0	9.414221	-0.735692	3.579603	0.018395	-0.037343	0.015369	-0.438477	0.182617	-0.671143
408.0	9.469242	-0.744348	3.521127	0.018084	-0.041933	0.010491	-0.443115	0.189209	-0.666748
409.0	9.5042	-0.726063	3.472575	0.016542	-0.022827	0.009554	-0.436279	0.184814	-0.668945
410.0	9.475769	-0.758115	3.437948	0.015685	0.009834	0.011657	-0.436279	0.184814	-0.661865
411.0	9.4239	-0.776672	3.446942	0.00774	0.030709	0.010135	-0.443115	0.187012	-0.671387
412.0	9.416896	-0.744463	3.406991	0.007815	0.035633	0.011413	-0.440918	0.189209	-0.659668
413.0	9.450069	-0.746591	3.487274	0.009278	0.026711	0.011316	-0.438721	0.189209	-0.669189
414.0	9.446189	-0.760387	3.521981	0.00902	0.032413	0.011197	-0.443115	0.189209	-0.664551
415.0	9.404983	-0.746646	3.52832	0.008359	0.049077	0.008643	-0.436279	0.187012	-0.671387
416.0	9.371841	-0.752652	3.547099	0.009053	0.057261	0.008192	-0.443115	0.189209	-0.669189
417.0	9.338459	-0.758794	3.566399	0.00175	0.061474	0.009198	-0.440674	0.184814	-0.671143
418.0	9.29385	-0.797279	3.589553	0.008146	0.044594	0.009551	-0.443359	0.191406	-0.666748
419.0	9.295395	-0.784785	3.560958	0.006335	0.024077	0.007773	-0.438477	0.187012	-0.671387
420.0	9.32608	-0.740532	3.56494	0.011967	0.009196	0.007542	-0.442871	0.184814	-0.668945
421.0	9.368387	-0.742063	3.531365	0.014839	0.001534	0.006328	-0.440918	0.189209	-0.669189
422.0	9.399542	-0.736686	3.517868	0.009646	8.4e-05	0.005526	-0.434326	0.191406	-0.664551
423.0	9.47009	-0.784926	3.486504	0.012924	0.011678	0.007211	-0.440918	0.187012	-0.671387
424.0	9.392748	-0.74312	3.461521	0.012117	0.033598	0.002324	-0.440918	0.191406	-0.666748
425.0	9.311767	-0.753318	3.454168	0.01719	0.050601	0.005545	-0.436279	0.184814	-0.673584
426.0	9.287363	-0.739578	3.499759	0.009303	0.046187	0.004798	-0.436523	0.189209	-0.676025
427.0	9.260233	-0.778114	3.560302	0.008858	0.0323	0.005374	-0.431885	0.187012	-0.666748
428.0	9.287535	-0.746559	3.597452	0.013974	0.028823	0.004906	-0.440674	0.184814	-0.671143
429.0	9.306481	-0.73414	3.606786	0.016734	0.021605	0.005897	-0.433838	0.182617	-0.664307
430.0	9.294341	-0.766375	3.613034	0.016035	0.013421	0.006353	-0.445313	0.187012	-0.668945
431.0	9.345272	-0.748512	3.606899	0.014754	-0.003392	0.005071	-0.438477	0.187012	-0.673584
432.0	9.348294	-0.774488	3.558642	0.018587	-0.008575	0.003539	-0.436523	0.191406	-0.669189
433.0	9.376924	-0.742648	3.592366	0.017255	-0.004908	0.005936	-0.431885	0.187256	-0.678223
434.0	9.348274	-0.774055	3.558788	0.012987	0.016042	0.000488	-0.436279	0.187012	-0.671387
435.0	9.3246	-0.759838	3.602258	0.019008	0.035527	0.003366	-0.438721	0.191406	-0.676025
436.0	9.272116	-0.777353	3.612447	0.01683	0.036266	0.003893	-0.436523	0.189209	-0.664551
437.0	9.265132	-0.803044	3.678914	0.013377	0.020193	0.00315	-0.436035	0.182617	-0.666504
438.0	9.312761	-0.837075	3.689416	0.015558	0.004344	0.002417	-0.44751	0.184814	-0.668945
439.0	9.372244	-0.799362	3.710668	0.02476	0.005088	0.000765	-0.436523	0.191406	-0.666748
440.0	9.363533	-0.817701	3.684075	0.032116	0.005796	0.001039	-0.440918	0.191406	-0.662109
441.0	9.337874	-0.796587	3.634906	0.024591	0.010911	0.006417	-0.436279	0.184814	-0.671143
442.0	9.309109	-0.788765	3.617869	0.028044	0.011876	0.006952	-0.438477	0.187012	-0.673584
443.0	9.339856	-0.822059	3.589671	0.030657	0.009912	0.005623	-0.433838	0.18042	-0.671143
444.0	9.350977	-0.789403	3.586145	0.027854	0.007397	0.007882	-0.440918	0.189209	-0.664551
445.0	9.358998	-0.769802	3.614744	0.030601	0.015288	0.009075	-0.436035	0.182617	-0.673584
446.0	9.378086	-0.757118	3.623758	0.03052	0.025468	0.007997	-0.436523	0.189209	-0.669189
447.0	9.345789	-0.722925	3.656054	0.03198	0.031653	0.008121	-0.436523	0.189209	-0.673828
448.0	9.309908	-0.701667	3.721565	0.021076	0.055269	0.006402	-0.438477	0.182617	-0.664307
449.0	9.208374	-0.685094	3.724451	0.009735	0.065002	0.005295	-0.436035	0.182617	-0.675781
450.0	9.158196	-0.729428	3.688184	0.006369	0.038749	0.005663	-0.436279	0.184814	-0.666504
451.0	9.200217	-0.731262	3.656066	0.004105	-0.000582	0.003337	-0.438477	0.182617	-0.675781
452.0	9.260062	-0.772645	3.644235	0.005785	-0.020136	0.002181	-0.440918	0.189209	-0.666748
453.0	9.308537	-0.76765	3.668669	0.009403	0.000414	0.001948	-0.438477	0.187012	-0.676025
454.0	9.328118	-0.794448	3.660336	0.009529	0.010271	0.004457	-0.440918	0.191406	-0.671387
455.0	9.399082	-0.803464	3.644932	0.005378	-0.009183	-0.000303	-0.431885	0.189453	-0.669189
456.0	9.422635	-0.817288	3.602384	0.005209	-0.028769	0.000468	-0.438477	0.184814	-0.664307
457.0	9.438032	-0.772124	3.563725	0.006736	-0.017656	0.001845	-0.433838	0.182617	-0.671143
458.0	9.34186	-0.781611	3.51297	0.002841	0.012239	-0.005543	-0.436035	0.182617	-0.668945
459.0	9.284751	-0.766393	3.477859	0.002729	0.022999	0.001354	-0.436035	0.18042	-0.67334
460.0	9.281214	-0.73992	3.527048	0.000366	0.008955	-0.001882	-0.438477	0.187012	-0.664307
461.0	9.354418	-0.755094	3.60297	0.002617	-0.001966	-0.001321	-0.436035	0.182617	-0.678223
462.0	9.354338	-0.754905	3.603217	0.001137	0.006957	-0.001277	-0.438477	0.187012	-0.664307
463.0	9.340607	-0.702461	3.548452	-0.008304	-0.003185	5.7e-05	-0.436523	0.189209	-0.669189
464.0	9.329337	-0.774191	3.536362	-0.011558	-0.014781	-0.001589	-0.434082	0.187012	-0.666748
465.0	9.372654	-0.736861	3.516883	-0.008552	-0.012592	-0.000257	-0.436279	0.184814	-0.673584
466.0	9.412596	-0.751353	3.514169	-0.005386	-0.001125	-0.0044	-0.440674	0.184814	-0.671143
467.0	9.400962	-0.744257	3.53514	-0.015251	0.014793	-0.005381	-0.436279	0.184814	-0.675781
468.0	9.388943	-0.737336	3.557084	-0.013463	0.020204	-0.003859	-0.434326	0.191406	-0.666748
469.0	9.365284	-0.762692	3.583928	-0.00796	0.020877	-0.001653	-0.438477	0.184814	-0.668945
470.0	9.30201	-0.773601	3.612546	-0.007697	0.015176	-0.00151	-0.436279	0.187012	-0.668945
471.0	9.304912	-0.760896	3.581069	-0.011638	-0.004602	-0.00268	-0.438477	0.184814	-0.671143
472.0	9.336599	-0.794923	3.550578	-0.004061	-0.019327	0.001023	-0.438721	0.189209	-0.669189
473.0	9.371474	-0.776699	3.50389	0.001155	-0.00815	-0.001447	-0.438477	0.184814	-0.673584
474.0	9.383044	-0.744135	3.499212	0.003428	0.005766	-0.003995	-0.443115	0.187012	-0.671387
475.0	9.362976	-0.756345	3.492853	-0.004163	0.005961	0.000113	-0.438477	0.182617	-0.671143
476.0	9.328387	-0.774777	3.538741	-0.005889	0.005478	-0.000156	-0.440918	0.187012	-0.668945
477.0	9.356405	-0.782246	3.557737	-0.005142	0.008282	-0.004085	-0.434082	0.184814	-0.673584
478.0	9.356158	-0.781983	3.558446	-0.00297	0.007541	-0.004611	-0.438721	0.189209	-0.669189
479.0	9.375983	-0.769203	3.565574	-0.00104	-0.002607	-0.005455	-0.434082	0.189453	-0.673828
480.0	9.424162	-0.763951	3.5908	-0.002379	0.001065	-0.003069	-0.436279	0.184814	-0.673584
481.0	9.384253	-0.749254	3.593426	-0.004962	0.01276	-0.005025	-0.436279	0.184814	-0.671143
482.0	9.355614	-0.74149	3.57612	-0.002463	0.011245	-0.004151	-0.440918	0.187012	-0.664307
483.0	9.358354	-0.728274	3.545199	0.005987	0.00918	-0.001864	-0.436279	0.187012	-0.673584
484.0	9.343634	-0.733794	3.598044	-0.000979	0.002321	-0.004199	-0.438721	0.191406	-0.666748
485.0	9.343471	-0.811863	3.566654	-0.003478	0.003836	-0.005073	-0.443115	0.189209	-0.671387
486.0	9.303718	-0.797048	3.568881	0.003247	0.00129	-0.003055	-0.443115	0.189209	-0.669189
487.0	9.306969	-0.783984	3.536597	-0.001967	-0.009889	-0.000587	-0.438477	0.184814	-0.666504
488.0	9.330372	-0.797944	3.49448	-0.004708	-0.01778	-0.001778	-0.438721	0.189209	-0.666748
489.0	9.350616	-0.785527	3.500402	0.001219	-0.003221	-0.000191	-0.440674	0.182617	-0.675781
490.0	9.302327	-0.751285	3.491491	0.005808	0.015009	0.003782	-0.436279	0.189209	-0.662109
491.0	9.338414	-0.739733	3.538658	-0.007944	0.016074	0.00288	-0.436279	0.187012	-0.673584
492.0	9.329579	-0.759632	3.512337	-0.008185	0.006668	0.002562	-0.438721	0.191406	-0.659912
493.0	9.405654	-0.762553	3.556715	-0.002886	0.007666	0.001177	-0.436523	0.193604	-0.669189
494.0	9.39366	-0.75592	3.578451	-0.00226	0.021226	0.00415	-0.438721	0.191406	-0.669189
495.0	9.330117	-0.727778	3.623568	-0.00556	0.029541	-0.001864	-0.431885	0.187012	-0.666748
496.0	9.309378	-0.779457	3.602937	-0.004702	0.017363	-0.000178	-0.438477	0.187012	-0.666748
497.0	9.309099	-0.740103	3.61961	0.007474	0.000258	-0.001907	-0.434082	0.184814	-0.671143
498.0	9.348839	-0.754171	3.617614	0.000569	-0.001673	-0.00299	-0.431885	0.19165	-0.666748
499.0	9.360376	-0.76099	3.597085	0.002499	-0.001515	0.000875	-0.436523	0.189209	-0.676025
500.0	9.355019	-0.728019	3.554043	0.006433	0.007957	-0.002657	-0.438477	0.187012	-0.671387
501.0	9.351714	-0.779809	3.570583	-0.002825	0.002289	-0.002276	-0.438721	0.19165	-0.678467
502.0	9.386191	-0.800471	3.509323	-0.004488	-0.003572	-0.005997	-0.441162	0.193604	-0.671631
503.0	9.442855	-0.81489	3.545729	0.006136	-0.006376	-0.004229	-0.440918	0.187012	-0.671387
504.0	9.442817	-0.81427	3.545975	0.013336	0.009889	-0.001575	-0.438477	0.184814	-0.664307
505.0	9.379339	-0.785512	3.590966	0.009071	0.036334	0.002153	-0.434082	0.187012	-0.673584
506.0	9.338059	-0.810493	3.581111	0.006437	0.048605	0.008172	-0.429688	0.189453	-0.671387
507.0	9.265386	-0.801815	3.600588	0.021996	0.037843	0.01044	-0.436279	0.187012	-0.673584
508.0	9.272639	-0.82175	3.614889	0.023696	0.01829	0.009291	-0.436523	0.19165	-0.673828
509.0	9.28047	-0.802579	3.643507	0.020984	0.005598	0.012639	-0.438477	0.187012	-0.671387
510.0	9.280262	-0.803072	3.643928	0.017353	0.000155	0.013038	-0.431885	0.187256	-0.676025
511.0	9.348055	-0.825462	3.660662	0.025473	-0.001136	0.013935	-0.438477	0.187012	-0.673584
512.0	9.347935	-0.786325	3.676794	0.03312	0.003595	0.011085	-0.438721	0.189209	-0.666748
513.0	9.319406	-0.778794	3.659184	0.032725	0.009749	0.013126	-0.436523	0.189209	-0.671387
514.0	9.322378	-0.766013	3.627788	0.03825	-0.004685	0.015184	-0.436279	0.184814	-0.668945
515.0	9.357264	-0.747898	3.581548	0.04077	-0.021307	0.01591	-0.431885	0.189453	-0.673828
516.0	9.369377	-0.715713	3.575426	0.042992	-0.017121	0.01663	-0.438721	0.189209	-0.671387
517.0	9.400842	-0.71044	3.561706	0.038474	0.004721	0.015466	-0.438721	0.189209	-0.671387
518.0	9.368716	-0.715858	3.577128	0.033692	0.032265	0.014143	-0.436523	0.189209	-0.673828
519.0	9.304576	-0.765709	3.591803	0.031496	0.037801	0.010117	-0.431641	0.182617	-0.671143
520.0	9.291853	-0.71925	3.631141	0.031125	0.028849	0.012014	-0.434082	0.189209	-0.669189
521.0	9.30744	-0.719604	3.672741	0.024674	0.025696	0.010141	-0.438477	0.182617	-0.668945
522.0	9.306403	-0.758962	3.65955	0.023718	0.023217	0.01048	-0.436279	0.187012	-0.666748
523.0	9.333734	-0.766234	3.680233	0.021416	0.018891	0.003972	-0.436035	0.182617	-0.673584
524.0	9.281885	-0.744205	3.704057	0.022954	0.014897	0.005193	-0.436523	0.189209	-0.673828
525.0	9.292851	-0.750964	3.685206	0.023722	0.0129	0.005804	-0.440674	0.184814	-0.671143
526.0	9.295678	-0.777404	3.638576	0.023679	0.00318	0.009114	-0.434082	0.189453	-0.673828
527.0	9.295762	-0.777323	3.63838	0.031363	-0.011998	0.010685	-0.438721	0.191406	-0.666748
528.0	9.370453	-0.773664	3.590343	0.031934	-0.013682	0.007701	-0.438477	0.187012	-0.676025
529.0	9.350604	-0.785608	3.583465	0.02289	0.009964	0.003942	-0.438477	0.184814	-0.675781
530.0	9.333346	-0.78522	3.546261	0.020257	0.022258	0.009913	-0.436035	0.182617	-0.664307
531.0	9.349256	-0.785291	3.587048	0.032767	0.014079	0.006343	-0.436279	0.184814	-0.678223
532.0	9.436366	-0.794451	3.612405	0.032958	0.013767	0.009935	-0.436279	0.187012	-0.671387
533.0	9.403957	-0.799589	3.62843	0.027873	0.037295	0.011693	-0.436279	0.184814	-0.682861
534.0	9.342725	-0.79735	3.627595	0.033895	0.051392	0.011017	-0.433838	0.182617	-0.668945
535.0	9.317925	-0.782722	3.672602	0.039076	0.037727	0.011722	-0.431641	0.184814	-0.671143
536.0	9.305164	-0.775122	3.696023	0.038777	0.023388	0.010222	-0.438477	0.184814	-0.668945
537.0	9.29929	-0.742508	3.654782	0.033033	0.023632	0.012389	-0.429443	0.187256	-0.678223
538.0	9.275075	-0.767323	3.682462	0.037417	0.027071	0.012576	-0.434082	0.187012	-0.668945
539.0	9.297279	-0.741983	3.660003	0.040926	0.022639	0.009694	-0.436279	0.184814	-0.675781
540.0	9.285146	-0.734309	3.68178	0.032674	0.004359	0.009672	-0.434082	0.187256	-0.676025
541.0	9.308233	-0.748626	3.641428	0.027148	-0.006028	0.010797	-0.431885	0.187256	-0.671387
542.0	9.391	-0.76527	3.605991	0.028545	-0.004781	0.00966	-0.434082	0.189209	-0.671387
543.0	9.382542	-0.74537	3.594886	0.026977	0.014318	0.008493	-0.434082	0.184814	-0.675781
544.0	9.350084	-0.750115	3.61095	0.026672	0.039902	0.003811	-0.436035	0.182617	-0.664307
545.0	9.308838	-0.735113	3.616686	0.024418	0.046048	0.007733	-0.436035	0.18042	-0.671143
546.0	9.260804	-0.784569	3.670864	0.024308	0.036178	0.005291	-0.429443	0.185059	-0.675781
547.0	9.311226	-0.766647	3.666848	0.026589	0.01015	0.005871	-0.431641	0.184814	-0.673584
548.0	9.330707	-0.753804	3.674841	0.025318	0.008439	0.004817	-0.436279	0.184814	-0.673584
549.0	9.33014	-0.753521	3.676339	0.019047	0.020092	0.006605	-0.433838	0.18042	-0.675781
550.0	9.320976	-0.773191	3.651478	0.014892	0.026062	0.006661	-0.429688	0.189453	-0.671387
551.0	9.280369	-0.758484	3.6554	0.015471	0.024368	0.003686	-0.431641	0.182861	-0.678223
552.0	9.315947	-0.746012	3.703147	0.01212	0.013235	0.004312	-0.429443	0.185059	-0.682861
553.0	9.279247	-0.758331	3.658277	0.01067	0.007053	0.004234	-0.431885	0.189453	-0.680664
554.0	9.278783	-0.797848	3.643935	0.0048	0.012542	0.004018	-0.436035	0.18042	-0.671143
555.0	9.289933	-0.765752	3.640403	0.009316	0.015514	0.002014	-0.431641	0.184814	-0.673584
556.0	9.241535	-0.770778	3.615988	0.005249	0.011313	0.003234	-0.434082	0.184814	-0.675781
557.0	9.265908	-0.790558	3.667333	0.005918	-0.000554	0.00143	-0.429443	0.185059	-0.675781
558.0	9.289257	-0.765818	3.642114	0.003118	-0.003045	0.003703	-0.434082	0.187012	-0.671387
559.0	9.325384	-0.792979	3.67289	0.001449	0.006181	7.6e-05	-0.431641	0.185059	-0.675781
560.0	9.305376	-0.766001	3.681803	-0.004152	0.00597	5.2e-05	-0.434082	0.184814	-0.671143
561.0	9.281809	-0.790855	3.707532	0.000681	0.008176	-0.000547	-0.429443	0.185059	-0.678223
562.0	9.265197	-0.790768	3.669083	0.0047	0.002671	0.001591	-0.436523	0.189209	-0.671387
563.0	9.230282	-0.80829	3.714323	0.001535	-0.00399	0.001246	-0.433838	0.182617	-0.678223
564.0	9.234059	-0.795896	3.681471	0.005504	-0.014431	0.002171	-0.434082	0.184814	-0.671143
565.0	9.23481	-0.756527	3.695068	0.003104	-0.023088	0.002448	-0.429443	0.182861	-0.678223
566.0	9.315085	-0.78585	3.689728	0.00427	-0.031249	0.001073	-0.434082	0.187012	-0.673584
567.0	9.34755	-0.820127	3.658428	0.008968	-0.028578	0.00266	-0.438232	0.18042	-0.675781
568.0	9.360152	-0.788053	3.651173	0.006849	-0.022892	0.004387	-0.431885	0.189453	-0.669189
569.0	9.372237	-0.795333	3.629713	0.015535	-0.005848	0.003582	-0.433838	0.182617	-0.675781
570.0	9.312682	-0.792834	3.624419	0.01252	0.007068	0.002305	-0.431885	0.187012	-0.668945
571.0	9.277336	-0.810032	3.671001	0.016188	0.017435	0.003076	-0.436279	0.184814	-0.673584
572.0	9.265317	-0.802421	3.69233	0.017484	0.004038	0.004086	-0.436279	0.184814	-0.671143
573.0	9.254022	-0.794732	3.711855	0.015694	-0.021422	0.001356	-0.431641	0.185059	-0.678223
574.0	9.31807	-0.784124	3.682551	0.024885	-0.040593	0.004254	-0.438721	0.189209	-0.669189
575.0	9.342734	-0.758808	3.653982	0.023346	-0.036603	0.003005	-0.440674	0.184814	-0.671143
576.0	9.395037	-0.780439	3.629587	0.017084	-0.024945	0.004783	-0.438477	0.184814	-0.661865
577.0	9.316212	-0.751126	3.631378	0.0103	-0.001885	0.006172	-0.438477	0.182617	-0.671143
578.0	9.287835	-0.783168	3.597924	0.016902	0.010503	0.002469	-0.436035	0.182617	-0.671143
579.0	9.244692	-0.780574	3.631826	0.011327	-0.004814	0.002418	-0.436035	0.182617	-0.671143
580.0	9.273362	-0.787509	3.649102	0.020587	-0.029389	0.00192	-0.440918	0.189209	-0.673828
581.0	9.317517	-0.789249	3.612757	0.022561	-0.03461	0.00238	-0.436035	0.182617	-0.675781
582.0	9.374761	-0.763932	3.663038	0.020691	-0.019515	0.004332	-0.436035	0.182617	-0.671143
583.0	9.358742	-0.724332	3.638414	0.020092	-0.002708	0.007333	-0.431885	0.187256	-0.676025
584.0	9.350654	-0.704376	3.626329	0.022832	-0.005159	0.003844	-0.436523	0.189209	-0.669189
585.0	9.354334	-0.691527	3.593521	0.022269	-0.013803	0.00221	-0.436035	0.18042	-0.67334
586.0	9.315249	-0.676324	3.593698	0.017884	-0.017238	0.002038	-0.438721	0.189209	-0.666748
587.0	9.307347	-0.695961	3.565529	0.001342	-0.008458	0.002228	-0.438721	0.189209	-0.680664
588.0	9.299096	-0.715834	3.538217	0.002985	0.002192	0.001312	-0.431641	0.182617	-0.668945
589.0	9.275641	-0.740409	3.564058	0.003806	0.009898	-0.001435	-0.431641	0.184814	-0.671143
590.0	9.291573	-0.779641	3.589026	0.0017	0.015588	0.000289	-0.436279	0.184814	-0.666504
591.0	9.315803	-0.799109	3.641129	-0.002871	0.012446	-0.003476	-0.436279	0.187012	-0.668945
592.0	9.351884	-0.825755	3.67229	0.001976	-0.000458	-0.004112	-0.431885	0.187256	-0.673584
593.0	9.386997	-0.847481	3.610591	0.010963	-0.024097	-0.000225	-0.431641	0.185059	-0.678223
594.0	9.379619	-0.827225	3.596713	0.027167	-0.021769	0.002778	-0.436279	0.187012	-0.668945
595.0	9.335337	-0.819365	3.538329	0.028158	0.000752	0.003645	-0.438477	0.182617	-0.675781
596.0	9.295369	-0.843597	3.525308	0.029482	0.007402	0.005895	-0.431641	0.184814	-0.659668
597.0	9.243929	-0.900124	3.516725	0.03585	-0.014251	0.011086	-0.429443	0.185059	-0.678223
598.0	9.276105	-0.894916	3.501434	0.041578	-0.034381	0.013466	-0.440674	0.184814	-0.675781
599.0	9.248967	-0.887523	3.480223	0.042897	-0.02773	0.015708	-0.438477	0.184814	-0.673584
600.0	9.269108	-0.875328	3.486323	0.03423	0.005496	0.017802	-0.436279	0.184814	-0.668945
601.0	9.268418	-0.875681	3.48807	0.042028	0.024997	0.018494	-0.434082	0.187256	-0.676025
602.0	9.292368	-0.895673	3.540882	0.04037	0.009593	0.024004	-0.431641	0.184814	-0.673584
603.0	9.272691	-0.909074	3.533241	0.034659	-0.035463	0.026176	-0.431641	0.18042	-0.67334
604.0	9.237271	-0.962528	3.468809	0.03947	-0.053127	0.030131	-0.440674	0.184814	-0.671143
605.0	9.183843	-1.033144	3.488239	0.044655	-0.051503	0.036684	-0.436279	0.184814	-0.673584
606.0	9.158276	-1.111957	3.52674	0.033646	-0.046592	0.049427	-0.436279	0.184814	-0.668945
607.0	9.11733	-1.276296	3.587067	0.011571	-0.062414	0.064573	-0.433838	0.18042	-0.666504
608.0	9.042472	-1.359633	3.505649	0.000986	-0.103864	0.082317	-0.438477	0.184814	-0.666504
609.0	8.952474	-1.366052	3.411881	-0.00628	-0.138941	0.103936	-0.438477	0.184814	-0.668945
610.0	8.841052	-1.342921	3.233146	-0.021853	-0.151884	0.124451	-0.438477	0.184814	-0.655029
611.0	8.785945	-1.296741	3.106329	-0.033498	-0.145243	0.14012	-0.434082	0.184814	-0.668945
612.0	8.760913	-1.325765	2.935078	-0.034805	-0.172522	0.143754	-0.443115	0.189209	-0.662109
613.0	9.029204	-1.353172	2.86158	-0.039298	-0.259276	0.129056	-0.440674	0.184814	-0.664307
614.0	9.402748	-1.508749	2.793891	-0.061155	-0.372222	0.103898	-0.443359	0.191406	-0.657471
615.0	9.812345	-1.645807	2.669775	-0.070153	-0.413618	0.068432	-0.443115	0.187012	-0.659668
616.0	10.023062	-1.74393	2.540453	-0.055223	-0.343693	0.043792	-0.445557	0.191406	-0.659912
617.0	10.218957	-1.871786	2.424682	-0.027423	-0.229239	0.033752	-0.449951	0.189209	-0.657471
618.0	10.258091	-1.885683	2.312304	0.009444	-0.133538	0.028724	-0.447754	0.189209	-0.662109
619.0	10.29874	-1.836481	2.362581	0.049715	-0.062005	0.03103	-0.442871	0.184814	-0.664307
620.0	10.161741	-1.821811	2.48658	0.075405	0.0243	0.037436	-0.447754	0.189209	-0.657471
621.0	10.043797	-1.754934	2.641126	0.09561	0.114716	0.037125	-0.447754	0.191406	-0.666748
622.0	9.926505	-1.675215	2.77007	0.108408	0.157624	0.039143	-0.447754	0.191406	-0.659912
623.0	9.726412	-1.682802	2.860447	0.100101	0.153377	0.029129	-0.445313	0.187012	-0.666748
624.0	9.585652	-1.675934	2.828422	0.096407	0.109949	0.015164	-0.443115	0.189209	-0.666748
625.0	9.46314	-1.651292	2.706833	0.091686	0.063856	-0.004151	-0.445313	0.184814	-0.659668
626.0	9.369334	-1.67231	2.585151	0.109451	0.039431	-0.018068	-0.445313	0.184814	-0.657227
627.0	9.353859	-1.53222	2.473125	0.139681	0.037854	-0.03125	-0.44751	0.184814	-0.664307
628.0	9.434066	-1.476832	2.504664	0.137253	0.054287	-0.037908	-0.445068	0.18042	-0.668701
629.0	9.531058	-1.420715	2.576654	0.117614	0.082097	-0.042635	-0.440674	0.18042	-0.664063
630.0	9.665636	-1.419016	2.634617	0.111918	0.112692	-0.049825	-0.445313	0.184814	-0.661865
631.0	9.770337	-1.448709	2.662194	0.127535	0.126114	-0.053284	-0.442871	0.18042	-0.666504
632.0	9.848192	-1.375042	2.578537	0.148589	0.134057	-0.065947	-0.442871	0.18042	-0.659424
633.0	9.882492	-1.336509	2.516994	0.155733	0.170394	-0.071958	-0.440186	0.173828	-0.670898
634.0	9.777846	-1.224479	2.47498	0.152504	0.260622	-0.080198	-0.438232	0.18042	-0.671143
635.0	9.534632	-1.122162	2.515499	0.174395	0.333876	-0.073492	-0.437744	0.169434	-0.675293
636.0	9.383803	-0.981821	2.654949	0.165778	0.341132	-0.069087	-0.435791	0.173828	-0.673096
637.0	9.343118	-0.989515	2.823667	0.157565	0.295884	-0.070552	-0.435547	0.169434	-0.677734
638.0	9.406953	-0.883358	3.001648	0.167372	0.2378	-0.070804	-0.428955	0.169434	-0.675293
639.0	9.565164	-0.843337	3.105688	0.166127	0.180103	-0.06294	-0.435547	0.167236	-0.672852
640.0	9.679918	-0.758038	3.163118	0.169456	0.171409	-0.049686	-0.435547	0.169434	-0.673096
641.0	9.709948	-0.610721	3.085315	0.201417	0.161436	-0.032237	-0.428711	0.165039	-0.67749
642.0	9.68472	-0.532461	3.032311	0.235779	0.165081	-0.014106	-0.428711	0.165039	-0.679688
643.0	9.652429	-0.437532	3.057962	0.257875	0.166139	0.000837	-0.428467	0.158447	-0.681885
644.0	9.635443	-0.300598	3.045387	0.287133	0.183266	0.021492	-0.430908	0.165039	-0.679688
645.0	9.606448	-0.15821	3.145956	0.318948	0.223998	0.054242	-0.426025	0.154053	-0.686279
646.0	9.492776	0.081935	3.219017	0.33725	0.286344	0.10181	-0.428223	0.154053	-0.681641
647.0	9.269652	0.192991	3.40574	0.308053	0.340947	0.154763	-0.416992	0.154053	-0.684082
648.0	9.025124	0.247258	3.481581	0.241698	0.334576	0.196387	-0.421631	0.160645	-0.684326
649.0	8.881663	0.279727	3.466927	0.210356	0.238597	0.229385	-0.421387	0.151855	-0.688721
650.0	8.835276	0.200337	3.546956	0.147994	0.110325	0.234842	-0.416992	0.15625	-0.684082
651.0	8.898886	0.151608	3.329314	0.093069	-0.023867	0.210943	-0.423584	0.151855	-0.688721
652.0	9.204993	0.172636	3.243172	0.108792	-0.194826	0.174043	-0.418945	0.149658	-0.681641
653.0	9.841748	0.21393	3.204885	0.075817	-0.401628	0.120582	-0.419189	0.15625	-0.684082
654.0	10.48489	0.146629	3.07593	0.008432	-0.495079	0.070546	-0.428223	0.15625	-0.679443
655.0	10.802428	0.145349	2.813172	-0.004473	-0.381506	0.020027	-0.423584	0.151855	-0.683838
656.0	10.692756	0.312681	2.643001	0.027965	-0.109929	-0.025838	-0.425781	0.151855	-0.683838
657.0	10.320857	0.566061	2.584937	0.01494	0.09906	-0.059083	-0.425781	0.151855	-0.683838
658.0	9.996168	0.756833	2.597597	-0.032537	0.126848	-0.078972	-0.428223	0.151855	-0.672363
659.0	9.881327	0.670891	2.765058	-0.10661	0.059658	-0.089005	-0.416992	0.151855	-0.679199
660.0	10.014448	0.360511	2.957393	-0.172729	-0.023539	-0.082677	-0.423584	0.151855	-0.679199
661.0	10.034749	0.064884	3.005883	-0.163155	-0.070459	-0.078892	-0.418945	0.149658	-0.677002
662.0	9.90612	-0.106972	3.003817	-0.074146	0.011368	-0.071615	-0.421387	0.154053	-0.674805
663.0	9.594468	-0.200003	2.956644	-0.072469	0.058649	-0.053181	-0.421387	0.151855	-0.683838
664.0	9.301283	-0.321611	2.813058	-0.021384	0.051268	-0.043679	-0.421387	0.151855	-0.674561
665.0	9.347324	-0.392395	2.814722	0.03267	-0.010191	-0.038161	-0.42334	0.147461	-0.681396
666.0	9.607612	-0.537459	2.757953	0.03289	-0.061715	-0.038756	-0.43042	0.154053	-0.674805
667.0	9.703557	-0.439286	2.560525	0.101079	0.030126	-0.054831	-0.416992	0.151855	-0.681641
668.0	9.715843	-0.197939	2.537939	0.142748	0.174539	-0.06004	-0.419189	0.151855	-0.679199
669.0	9.592947	-0.064213	2.40196	0.041679	0.247978	-0.052258	-0.418945	0.145264	-0.683594
670.0	9.388863	-0.023454	2.232358	0.02367	0.302174	-0.038918	-0.418945	0.149658	-0.677002
671.0	9.30456	0.131832	2.208564	0.063389	0.319779	-0.031359	-0.409912	0.147461	-0.683838
672.0	9.102409	0.45421	2.313326	0.049423	0.306229	-0.039227	-0.414551	0.149658	-0.681641
673.0	9.017049	0.569035	2.365022	-0.046132	0.282991	-0.044122	-0.409912	0.147461	-0.688477
674.0	9.03455	0.472923	2.323058	-0.166881	0.20784	-0.049337	-0.407715	0.149658	-0.683838
675.0	9.054879	0.335907	2.171335	-0.197622	0.159731	-0.06601	-0.409912	0.147461	-0.686035
676.0	9.276366	0.296122	2.221056	-0.218726	0.125545	-0.087727	-0.407715	0.149658	-0.681641
677.0	9.445039	0.351334	2.165361	-0.279655	0.138261	-0.103984	-0.400879	0.147705	-0.688477
678.0	9.546142	0.38891	2.080003	-0.320633	0.196606	-0.112379	-0.40332	0.154297	-0.681641
679.0	9.582286	0.499663	2.052161	-0.343822	0.24647	-0.129709	-0.401123	0.149902	-0.686279
680.0	9.623286	0.470391	2.092795	-0.406381	0.276821	-0.136032	-0.401367	0.158691	-0.681885
681.0	9.503325	0.370394	2.034677	-0.477197	0.337694	-0.139379	-0.398926	0.154297	-0.688721
682.0	9.190625	0.275989	1.91667	-0.496981	0.405699	-0.140702	-0.39917	0.163086	-0.682129
683.0	8.809288	0.288864	1.958628	-0.51445	0.466756	-0.125651	-0.387939	0.163086	-0.684326
684.0	8.44968	0.353705	1.931013	-0.561647	0.468105	-0.105343	-0.390137	0.160889	-0.686523
685.0	8.384206	0.320942	2.003897	-0.606307	0.366348	-0.077893	-0.385986	0.165283	-0.693848
686.0	8.47561	0.33627	2.057256	-0.637157	0.258447	-0.050528	-0.385986	0.169678	-0.689209
687.0	8.772327	0.179015	2.242425	-0.636948	0.191578	-0.024385	-0.379395	0.174072	-0.689453
688.0	9.187951	0.013042	2.439958	-0.60318	0.131085	0.000417	-0.381836	0.17627	-0.687256
689.0	9.781007	-0.320827	2.747848	-0.597406	0.079361	0.026457	-0.38208	0.182861	-0.682861
690.0	10.291868	-0.754402	2.594986	-0.603294	-0.028314	0.040105	-0.384521	0.1875	-0.685303
691.0	10.862095	-0.822694	2.55035	-0.437973	-0.106293	0.039217	-0.38208	0.182861	-0.682861
692.0	11.21487	-0.69468	2.659203	-0.312788	-0.052265	0.008689	-0.377686	0.185303	-0.678223
693.0	11.28463	-0.85426	3.064796	-0.359502	0.123126	-0.035761	-0.368408	0.183105	-0.673584
694.0	10.748129	-1.48255	3.565826	-0.368996	0.392132	-0.113506	-0.371094	0.191895	-0.678467
695.0	10.249486	-2.113631	4.540642	-0.192413	0.483976	-0.217859	-0.37085	0.183105	-0.682861
696.0	10.549226	-2.108413	5.615284	0.065922	0.201998	-0.340332	-0.37085	0.183105	-0.678223
697.0	11.391708	-1.382871	6.243458	0.241495	-0.385278	-0.408835	-0.370361	0.174072	-0.675537
698.0	12.265592	-0.348654	5.98119	0.269671	-0.775888	-0.432718	-0.375244	0.180664	-0.671143
699.0	12.896131	-0.028655	5.172161	0.097507	-0.905453	-0.429918	-0.384033	0.17627	-0.677979
700.0	13.146504	-0.472973	4.11367	-0.045467	-0.934269	-0.419182	-0.383789	0.169678	-0.666016
701.0	13.13368	-0.77328	3.272283	0.090538	-0.824032	-0.39396	-0.388184	0.169678	-0.661377
702.0	12.561742	-0.229572	2.802144	0.326461	-0.522653	-0.328392	-0.39502	0.16748	-0.656738
703.0	11.332568	0.737733	2.558606	0.370433	-0.056818	-0.213799	-0.399414	0.16748	-0.661377
704.0	9.886787	1.391491	2.421655	0.165703	0.375713	-0.098012	-0.388184	0.165283	-0.658936
705.0	8.601812	1.280176	2.506835	-0.169028	0.490601	-0.045563	-0.387939	0.160889	-0.667969
706.0	7.827216	0.859641	2.733412	-0.359779	0.285812	-0.066877	-0.385986	0.169678	-0.666016
707.0	7.540288	0.540657	3.326244	-0.351354	-0.084938	-0.147748	-0.383789	0.169678	-0.666016
708.0	7.478664	0.331129	4.02717	-0.376128	-0.306057	-0.256041	-0.388184	0.169678	-0.654541
709.0	7.456085	-0.190966	4.62574	-0.507017	-0.29646	-0.363651	-0.392578	0.16748	-0.661377
710.0	7.102851	-1.46653	4.848939	-0.698769	-0.195072	-0.48482	-0.38623	0.17627	-0.654785
711.0	6.704755	-3.134741	4.570268	-0.697788	-0.233094	-0.579381	-0.383789	0.171875	-0.656738
712.0	6.68487	-4.424318	4.32535	-0.358902	-0.516945	-0.61162	-0.395264	0.174072	-0.647705
713.0	7.747574	-4.555928	4.174855	0.225263	-0.878004	-0.547239	-0.392578	0.16748	-0.647461
714.0	9.435891	-3.612592	4.23778	0.688474	-1.151686	-0.405868	-0.39917	0.160645	-0.644775
715.0	11.110238	-2.257286	4.114105	0.735295	-1.016643	-0.229171	-0.405762	0.154053	-0.635254
716.0	12.005023	-1.329608	3.68106	0.561646	-0.54286	-0.055588	-0.408203	0.160645	-0.635498
717.0	11.646388	-0.728606	2.963571	0.518427	0.11623	0.075776	-0.398926	0.15625	-0.637695
718.0	10.187378	-0.217183	2.578593	0.589433	0.777349	0.189854	-0.398682	0.149658	-0.639893
719.0	8.745508	0.087637	2.852052	0.61434	1.136125	0.289023	-0.39209	0.1521	-0.64917
720.0	8.071154	-0.020784	3.642811	0.498287	0.90181	0.367407	-0.389404	0.143066	-0.655762
721.0	7.975644	-0.654232	4.503172	0.261544	0.362501	0.403454	-0.375977	0.145508	-0.655762
722.0	8.45026	-1.469763	5.016896	0.1731	-0.075705	0.404041	-0.387695	0.154297	-0.651611
723.0	8.773045	-2.022903	4.805027	0.133081	-0.366395	0.371124	-0.387451	0.1521	-0.653809
724.0	8.700834	-2.308827	4.003147	0.200681	-0.494324	0.323986	-0.385498	0.154297	-0.651611
725.0	8.58833	-2.1812	3.041139	0.315199	-0.480916	0.282879	-0.389648	0.147461	-0.646729
726.0	8.609538	-1.967491	2.468229	0.444025	-0.398661	0.256073	-0.392334	0.156494	-0.651611
727.0	8.795268	-1.410569	2.332504	0.595186	-0.235719	0.214296	-0.391846	0.149902	-0.653809
728.0	9.157405	-0.983296	2.652314	0.611741	-0.109695	0.202471	-0.398682	0.149658	-0.646729
729.0	9.401323	-0.723004	2.94053	0.553937	0.017825	0.186172	-0.389404	0.143066	-0.651123
730.0	9.243068	-0.647534	2.893104	0.474657	0.182551	0.178261	-0.38501	0.145508	-0.646484
731.0	9.018131	-0.543342	2.895642	0.506281	0.248126	0.171545	-0.382568	0.138916	-0.65332
732.0	8.74642	-0.485332	2.858472	0.473415	0.228552	0.173196	-0.38501	0.145508	-0.648926
733.0	8.630126	-0.545241	2.865834	0.426481	0.192078	0.168928	-0.380371	0.141113	-0.662598
734.0	8.570427	-0.694148	2.609029	0.363538	0.197425	0.166079	-0.375977	0.143311	-0.658203
735.0	8.565996	-0.777253	2.601965	0.483209	0.196095	0.161327	-0.375488	0.132324	-0.657715
736.0	8.635169	-0.776623	2.75943	0.469758	0.198021	0.13983	-0.37793	0.136719	-0.655518
737.0	8.73859	-0.929477	2.670398	0.448008	0.226673	0.121349	-0.375244	0.125732	-0.664551
738.0	8.872555	-1.03612	2.494542	0.499653	0.257407	0.087061	-0.379883	0.132324	-0.662354
739.0	8.90803	-0.95467	2.334173	0.590853	0.278385	0.07939	-0.368652	0.12793	-0.659912
740.0	8.812247	-0.860268	2.273518	0.681214	0.32359	0.061354	-0.37085	0.12793	-0.673828
741.0	8.691486	-0.668571	2.098196	0.769609	0.424388	0.032186	-0.36377	0.121338	-0.664307
742.0	8.759947	-0.600166	2.167118	0.808397	0.450177	-0.000117	-0.368164	0.116943	-0.668701
743.0	8.920827	-0.605651	2.21024	0.836988	0.468693	-0.023506	-0.358887	0.112549	-0.675537
744.0	9.012435	-0.721064	2.235309	0.848979	0.506205	-0.039782	-0.36084	0.10376	-0.675293
745.0	9.038886	-0.821367	2.154175	0.846865	0.570244	-0.05432	-0.349365	0.097168	-0.67041
746.0	8.735117	-0.960161	2.130748	0.797964	0.655936	-0.054687	-0.349365	0.099365	-0.682129
747.0	8.03164	-1.195093	2.207601	0.710219	0.770149	-0.065213	-0.349121	0.094971	-0.688965
748.0	7.492671	-1.27424	2.382863	0.678199	0.773153	-0.098063	-0.339844	0.088379	-0.686279
749.0	7.459416	-0.748662	2.913759	0.806626	0.501921	-0.149318	-0.337158	0.077393	-0.688232
750.0	8.247765	0.169462	3.599565	0.840406	-0.002013	-0.159586	-0.3396	0.081787	-0.688477
751.0	9.39912	0.866052	3.681311	0.637838	-0.534419	-0.120127	-0.341553	0.072998	-0.687988
752.0	10.415277	1.008311	2.975282	0.502194	-0.82376	-0.037923	-0.345947	0.072998	-0.685791
753.0	11.016843	0.872355	1.962111	0.562947	-0.79412	0.046257	-0.348389	0.072754	-0.681152
754.0	11.169627	0.624687	1.499098	0.596777	-0.515978	0.115875	-0.350586	0.070557	-0.678711
755.0	11.264353	0.19039	1.905614	0.495773	-0.1051	0.170136	-0.345703	0.066162	-0.680908
756.0	11.300817	-0.700824	2.926122	0.325925	0.306768	0.24482	-0.350586	0.072754	-0.68335
757.0	11.116101	-0.792578	4.504628	0.344104	0.614467	0.339008	-0.339111	0.066406	-0.685547
758.0	11.523837	0.529783	6.467555	0.519748	0.271485	0.454397	-0.345947	0.070557	-0.678711
759.0	12.53162	1.884673	8.245633	0.25101	-0.649221	0.67875	-0.34375	0.070557	-0.678711
760.0	13.997915	2.586261	9.113824	-0.234143	-1.36651	0.903514	-0.353027	0.077148	-0.678955
761.0	14.749899	2.601548	9.927718	-0.732291	-1.219837	1.036256	-0.362549	0.088135	-0.677002
762.0	13.260711	1.205847	8.827505	-1.415869	-0.449854	1.021318	-0.356201	0.101563	-0.67749
763.0	8.924944	-0.927954	5.097458	-1.458671	0.216691	0.794662	-0.351807	0.105957	-0.677734
764.0	5.422197	-1.446082	2.055644	-0.50509	0.445649	0.492192	-0.343262	0.116943	-0.671143
765.0	3.918764	-0.465317	1.11438	0.421625	0.013678	0.311349	-0.349609	0.105957	-0.673096
766.0	4.050657	0.388121	2.05728	0.555636	-0.939256	0.291492	-0.361328	0.114746	-0.670898
767.0	6.089004	-0.001698	3.501853	0.012947	-2.072448	0.367823	-0.372314	0.112305	-0.661621
768.0	9.970344	-1.675368	4.640085	-0.387019	-2.973038	0.379745	-0.390869	0.121094	-0.645752
769.0	14.979617	-2.986579	5.37706	-0.182187	-2.993305	0.304291	-0.395264	0.118896	-0.63623
770.0	18.078266	-1.75124	4.933342	0.019547	-1.666894	0.157404	-0.406738	0.123291	-0.631836
771.0	16.155608	0.738264	2.699936	-0.188548	0.467852	0.094281	-0.397705	0.125488	-0.638916
772.0	12.201729	1.648013	1.352521	-0.419692	1.956953	0.066379	-0.388916	0.129883	-0.63916
773.0	9.938461	2.244412	2.526422	-0.397005	2.172743	0.039963	-0.373047	0.130127	-0.657715
774.0	9.209547	2.719987	5.311877	-0.477688	1.690699	-0.040717	-0.371338	0.138916	-0.6604
775.0	9.26934	2.366436	7.046388	-0.942122	0.93713	-0.097605	-0.362305	0.141113	-0.6604
776.0	9.482796	0.632042	6.337411	-1.17687	0.106696	-0.093737	-0.371582	0.149902	-0.656006
777.0	9.941351	-1.019366	4.488827	-0.89986	-0.496983	-0.096027	-0.371826	0.154297	-0.653809
778.0	10.14786	-1.551484	3.169786	-0.45994	-0.559844	-0.091983	-0.374268	0.158691	-0.654053
779.0	9.525161	-1.174796	2.222221	-0.236826	-0.043671	-0.063177	-0.365234	0.156494	-0.658691
780.0	7.850496	-0.661232	1.910117	-0.252637	0.556084	0.006782	-0.365479	0.163086	-0.656494
781.0	6.637349	-0.360676	2.076646	-0.390398	0.744956	0.055388	-0.356445	0.160889	-0.66333
782.0	6.724285	-0.148449	2.760983	-0.508884	0.398571	0.042961	-0.363525	0.171875	-0.656982
783.0	7.616372	-0.294526	3.691077	-0.525535	0.103682	0.025218	-0.356934	0.174316	-0.65918
784.0	8.372545	-0.552063	3.874478	-0.524841	-0.0234	-0.034144	-0.352539	0.180908	-0.657227
785.0	8.483421	-0.873517	3.193195	-0.430474	-0.112148	-0.076055	-0.357178	0.178711	-0.659424
786.0	8.649559	-0.767809	2.487174	-0.353149	-0.1499	-0.117972	-0.362061	0.189697	-0.659912
787.0	8.704195	-0.43473	1.619205	-0.380162	-0.058637	-0.158871	-0.357178	0.183105	-0.659668
788.0	8.625545	-0.386036	1.409367	-0.414922	0.200424	-0.189222	-0.361816	0.185303	-0.657471
789.0	8.227895	-0.58253	1.402718	-0.461592	0.523865	-0.21329	-0.353027	0.1875	-0.664307
790.0	7.911102	-0.809067	1.868295	-0.447363	0.737084	-0.219846	-0.341797	0.194092	-0.662354
791.0	7.721092	-0.826944	2.44207	-0.408611	0.804558	-0.204722	-0.343994	0.191895	-0.659912
792.0	7.526929	-0.619126	2.759503	-0.353663	0.748132	-0.182413	-0.342041	0.198486	-0.662598
793.0	7.36833	-0.360923	2.946877	-0.324425	0.652049	-0.136374	-0.335693	0.205322	-0.66748
794.0	6.926825	-0.284653	2.792054	-0.404944	0.675483	-0.112242	-0.335449	0.200928	-0.671875
795.0	6.87202	-0.098271	2.451545	-0.383666	0.602316	-0.091389	-0.333252	0.200928	-0.674316
796.0	6.724321	0.227939	2.230294	-0.385042	0.526191	-0.070272	-0.331543	0.214111	-0.672363
797.0	6.611938	0.668325	1.977186	-0.362296	0.496086	-0.036594	-0.328857	0.205322	-0.674316
798.0	6.39473	1.11429	1.840756	-0.41062	0.551482	0.006197	-0.320557	0.2229	-0.67041
799.0	6.400223	1.374011	1.963579	-0.512036	0.616905	0.061417	-0.313721	0.220703	-0.675049
800.0	6.410649	1.274241	2.155365	-0.67463	0.682612	0.124406	-0.316162	0.227295	-0.68457
801.0	6.768455	0.724129	2.795924	-0.812657	0.650122	0.182235	-0.30957	0.231689	-0.677734
802.0	7.787598	-0.508811	3.920481	-0.907171	0.326419	0.199523	-0.307617	0.240723	-0.68042
803.0	8.887224	-1.83995	4.643536	-0.810868	-0.196468	0.211047	-0.305664	0.247314	-0.671387
804.0	9.22611	-2.641901	4.21442	-0.632953	-0.531714	0.259671	-0.310547	0.256104	-0.671631
805.0	8.996842	-2.721306	2.579806	-0.500634	-0.857099	0.281038	-0.312988	0.260498	-0.664795
806.0	9.577433	-2.183786	1.42645	-0.328821	-1.274051	0.156962	-0.324219	0.260254	-0.655518
807.0	11.667169	-1.825724	2.336707	-0.280308	-1.229368	-0.011367	-0.322021	0.262695	-0.655518
808.0	13.654806	-1.885352	4.098408	-0.130551	-0.393502	-0.217919	-0.329102	0.266846	-0.648926
809.0	14.46876	-2.74592	6.410136	-0.13538	0.472841	-0.464621	-0.322021	0.260498	-0.660156
810.0	14.445016	-4.166353	7.868818	-0.200512	0.3927	-0.671203	-0.326904	0.266846	-0.651123
811.0	13.936698	-5.274083	8.27857	0.094911	-0.604438	-0.806023	-0.326416	0.258057	-0.648438
812.0	13.903744	-3.920742	8.079642	0.969489	-1.234627	-0.941993	-0.339844	0.253662	-0.650635
813.0	13.612877	-1.144149	7.755776	1.247943	-1.254187	-0.924995	-0.34375	0.242676	-0.647949
814.0	12.526795	0.800285	6.206497	0.889355	-0.930687	-0.709828	-0.348145	0.236084	-0.643066
815.0	11.147799	1.714535	4.338772	0.561048	-0.71988	-0.498867	-0.3479	0.233887	-0.642822
816.0	9.640131	2.463023	3.050769	0.400847	-0.604305	-0.369457	-0.357178	0.23584	-0.645264
817.0	8.633747	2.868558	2.907131	0.137822	-0.477866	-0.379988	-0.356934	0.229248	-0.640381
818.0	8.629489	2.725455	3.428358	-0.420954	-0.535364	-0.562362	-0.368164	0.233643	-0.633545
819.0	8.719113	1.909283	3.996778	-0.990011	-0.811774	-0.780044	-0.370605	0.23584	-0.62915
820.0	8.851173	0.30582	4.289101	-1.333805	-0.893419	-1.011515	-0.373291	0.246826	-0.624756
821.0	8.989543	-2.116486	4.726669	-1.251426	-0.726637	-1.105252	-0.375488	0.242432	-0.631592
822.0	9.579472	-4.385679	4.983763	-0.818758	-0.479572	-0.983285	-0.384766	0.251221	-0.611084
823.0	10.832052	-5.434664	4.622117	-0.085589	-0.596693	-0.690089	-0.386475	0.240234	-0.617676
824.0	12.55202	-4.878867	3.865282	0.482204	-1.036649	-0.364048	-0.393311	0.23999	-0.60376
825.0	13.228753	-4.292417	2.569978	0.317838	-0.93729	-0.119484	-0.393311	0.237793	-0.603516
826.0	11.871076	-4.115944	0.572169	0.183374	0.1976	0.027651	-0.388916	0.240234	-0.608398
827.0	9.90304	-3.628623	-0.049404	0.792939	1.408339	0.104559	-0.384033	0.231445	-0.621826
828.0	8.448262	-2.33355	1.356574	1.43645	1.748309	0.196059	-0.379639	0.233643	-0.624268
829.0	7.757725	-0.692685	3.755211	1.495629	1.450571	0.278249	-0.370361	0.229248	-0.640381
830.0	7.560971	0.389267	5.4548	0.995026	0.902539	0.33335	-0.368164	0.229248	-0.640381
831.0	7.246573	0.309025	5.718936	0.41478	0.247407	0.348715	-0.365723	0.224854	-0.64502
832.0	6.992412	-0.696912	4.658934	0.096978	-0.353259	0.295765	-0.374756	0.227051	-0.640381
833.0	7.182384	-1.712696	3.372073	0.089636	-0.763615	0.225	-0.372314	0.224854	-0.637939
834.0	8.118662	-2.478274	2.74107	0.209836	-1.013144	0.162298	-0.377197	0.229248	-0.633545
835.0	9.319232	-2.803389	2.314159	0.375595	-0.934269	0.113995	-0.379395	0.227051	-0.631104
836.0	10.094854	-2.43205	2.326347	0.670487	-0.498464	0.081477	-0.379395	0.227051	-0.628662
837.0	10.065653	-1.785178	2.499441	0.751533	0.050271	0.076962	-0.378906	0.220459	-0.630859
838.0	9.373363	-1.471076	2.37598	0.639758	0.452956	0.099948	-0.374756	0.224854	-0.637939
839.0	8.744051	-1.279846	2.323765	0.712983	0.608993	0.120406	-0.374512	0.220459	-0.642334
840.0	8.314937	-0.84885	2.607395	0.86709	0.582409	0.133662	-0.369629	0.213867	-0.644531
841.0	8.122647	-0.421218	2.921124	0.823483	0.485621	0.151909	-0.371826	0.209473	-0.646729
842.0	7.989944	-0.321313	2.943241	0.682554	0.38544	0.15829	-0.36084	0.213867	-0.646729
843.0	7.856411	-0.416778	2.557814	0.638898	0.322287	0.145519	-0.355957	0.205078	-0.648926
844.0	7.545737	-0.475857	2.171602	0.643345	0.37589	0.119412	-0.362549	0.200684	-0.655518
845.0	7.446253	-0.455068	1.93267	0.692578	0.412783	0.090124	-0.360352	0.207275	-0.658203
846.0	7.494861	-0.45611	2.004721	0.717449	0.421972	0.070445	-0.355713	0.198486	-0.657959
847.0	7.490998	-0.469673	1.967384	0.728547	0.555523	0.052744	-0.351074	0.196289	-0.671631
848.0	7.494152	-0.5017	2.07539	0.807779	0.589112	0.032138	-0.351074	0.198486	-0.660156
849.0	7.725255	-0.469968	2.200667	0.882456	0.517414	0.016378	-0.341553	0.185303	-0.668945
850.0	8.22155	-0.484792	2.387874	0.921938	0.408166	-0.031948	-0.34375	0.183105	-0.671143
851.0	8.880969	-0.546517	2.454026	0.93818	0.388099	-0.092837	-0.339111	0.178711	-0.675781
852.0	9.250135	-0.751217	2.524188	0.925253	0.545783	-0.156848	-0.338867	0.174316	-0.677979
853.0	9.260185	-1.036396	2.566373	0.863046	0.839886	-0.195897	-0.32959	0.167725	-0.687012
854.0	8.67214	-1.39981	2.642568	0.776348	1.139062	-0.219203	-0.329346	0.16333	-0.688965
855.0	7.679969	-1.36242	2.881778	0.776129	1.364258	-0.268857	-0.315674	0.158936	-0.691162
856.0	6.7407	-0.96333	3.264474	0.80973	1.282744	-0.290286	-0.320068	0.154541	-0.700439
857.0	6.392415	-0.239388	3.641952	0.828119	0.787155	-0.279922	-0.310791	0.145752	-0.695313
858.0	7.163061	0.302652	3.676132	0.722057	-0.136696	-0.21594	-0.315186	0.145752	-0.702393
859.0	8.631465	0.410185	3.205535	0.543618	-1.094282	-0.108343	-0.317383	0.145752	-0.702393
860.0	10.69768	0.254094	2.206751	0.477252	-1.620515	0.024372	-0.328369	0.13916	-0.69043
861.0	12.425665	0.26143	1.587586	0.584675	-1.591674	0.157877	-0.335205	0.136963	-0.685791
862.0	13.492974	0.413036	1.882208	0.517351	-0.935204	0.273492	-0.3396	0.13916	-0.683594
863.0	14.20541	0.682557	3.138992	0.38782	-0.033768	0.399642	-0.339844	0.141357	-0.690674
864.0	14.388076	1.876186	5.371353	0.548333	0.760717	0.545103	-0.328613	0.141357	-0.690674
865.0	14.207805	3.463072	8.107645	0.350477	0.823354	0.766137	-0.330322	0.132568	-0.697266
866.0	13.18542	3.462213	9.572785	-0.473392	0.306144	1.005087	-0.32666	0.150146	-0.690918
867.0	12.673099	2.325937	8.747356	-0.830578	-0.379825	1.110335	-0.328857	0.147949	-0.688477
868.0	12.010903	1.801518	7.547216	-0.866127	-0.969965	1.075856	-0.32959	0.167725	-0.696289
869.0	11.352141	1.145836	6.244495	-1.26422	-1.244085	0.946282	-0.338867	0.172119	-0.687012
870.0	10.368315	-1.097605	4.187082	-1.708255	-1.131146	0.719981	-0.348389	0.1875	-0.673828
871.0	8.894091	-3.133951	1.910365	-1.253159	-0.582657	0.455566	-0.3396	0.191895	-0.680908
872.0	7.809579	-3.43765	1.064255	-0.118655	-0.040433	0.239822	-0.344238	0.198486	-0.676514
873.0	7.570863	-2.594997	1.983356	0.70943	-0.006502	0.223721	-0.348389	0.185303	-0.682861
874.0	8.144855	-1.833177	3.573663	0.809163	-0.54125	0.393257	-0.346191	0.1875	-0.676025
875.0	9.364917	-1.753357	5.065329	0.470158	-1.193182	0.592554	-0.357422	0.185303	-0.678223
876.0	10.837444	-1.620107	5.68815	0.211238	-1.372916	0.644871	-0.359863	0.191895	-0.671631
877.0	12.093463	0.143497	5.220921	0.31311	-0.991466	0.559675	-0.364258	0.191895	-0.669189
878.0	12.477759	2.631631	4.537256	0.237757	-0.374885	0.421503	-0.366455	0.189697	-0.669189
879.0	12.069786	3.623947	3.772254	-0.229381	0.152902	0.298198	-0.357422	0.185303	-0.668945
880.0	11.006898	2.987532	3.113694	-0.527633	0.504124	0.164639	-0.355713	0.198486	-0.669434
881.0	10.110518	2.462859	3.391751	-0.446938	0.686719	0.001831	-0.35791	0.196289	-0.674072
882.0	9.754766	2.096925	4.302316	-0.693341	0.62128	-0.11465	-0.355713	0.202881	-0.676514
883.0	9.649174	0.766185	4.468367	-1.115025	0.494729	-0.163206	-0.349365	0.213867	-0.672363
884.0	9.532815	-1.026422	3.981624	-1.12306	0.425263	-0.182977	-0.354004	0.216064	-0.667725
885.0	9.070858	-1.705718	3.315296	-0.643882	0.466289	-0.227411	-0.344727	0.209717	-0.676758
886.0	8.417493	-1.047306	3.184651	-0.176821	0.502239	-0.235824	-0.349609	0.216064	-0.674805
887.0	7.714105	-0.17687	3.375224	-0.17792	0.437938	-0.189245	-0.342529	0.211914	-0.677002
888.0	7.212701	0.369794	3.225196	-0.324987	0.318654	-0.159483	-0.345459	0.2229	-0.677246
889.0	7.347167	0.781357	3.437438	-0.368608	0.231094	-0.115995	-0.343018	0.218506	-0.688721
890.0	7.124595	0.991988	3.308918	-0.445713	0.27902	-0.060877	-0.343262	0.229492	-0.682129
891.0	6.984912	1.249657	3.200267	-0.452495	0.215436	-0.064176	-0.341064	0.227295	-0.679932
892.0	7.437381	1.37666	3.270833	-0.526211	-0.076403	-0.080386	-0.338867	0.231689	-0.675293
893.0	8.138177	0.910343	3.318096	-0.694592	-0.252408	-0.086097	-0.347656	0.227295	-0.675293
894.0	8.612607	0.337108	3.000255	-0.717639	-0.222393	-0.102469	-0.343506	0.233887	-0.673096
895.0	8.654783	-0.12962	2.879167	-0.677826	-0.078991	-0.091751	-0.343506	0.236084	-0.677734
896.0	8.413081	-0.45548	2.502404	-0.656252	0.001266	-0.072702	-0.348145	0.236084	-0.675537
897.0	8.171518	-0.635967	2.362213	-0.604395	0.056024	-0.061272	-0.346191	0.242676	-0.67334
898.0	8.048895	-1.037963	2.15934	-0.684656	0.162575	-0.039575	-0.353271	0.249268	-0.671387
899.0	7.792807	-1.268166	1.743931	-0.630328	0.320783	-0.044455	-0.346191	0.24707	-0.673584
900.0	7.665472	-0.91152	1.949026	-0.456606	0.459821	-0.014003	-0.349121	0.258057	-0.67627
901.0	7.709961	-0.584686	2.428191	-0.519666	0.497946	0.016083	-0.335205	0.251465	-0.676025
902.0	7.801305	-0.647973	2.60672	-0.586734	0.519814	0.049537	-0.337891	0.260254	-0.678711
903.0	7.826308	-0.534115	2.543446	-0.484687	0.524433	0.071036	-0.328857	0.262695	-0.685791
904.0	7.767065	-0.257704	2.447433	-0.469199	0.492507	0.084592	-0.331543	0.269287	-0.676758
905.0	7.91173	-0.194216	2.201358	-0.586244	0.46003	0.101609	-0.331543	0.269287	-0.679199
906.0	8.061312	-0.271538	1.932152	-0.665493	0.517956	0.122193	-0.324951	0.275879	-0.684082
907.0	8.153898	-0.375464	1.892504	-0.673173	0.648728	0.153085	-0.318115	0.275879	-0.686279
908.0	8.132145	-0.200424	1.889004	-0.648213	0.861948	0.158298	-0.316162	0.282471	-0.688965
909.0	8.131613	0.110893	2.19132	-0.648838	0.966996	0.181078	-0.307373	0.289063	-0.686768
910.0	8.181483	0.260724	2.515021	-0.723126	1.016052	0.197503	-0.303223	0.295898	-0.689453
911.0	8.47992	0.109508	3.004692	-0.7843	0.924552	0.21716	-0.300781	0.293701	-0.689209
912.0	8.736944	-0.379331	3.597982	-0.78762	0.672847	0.208962	-0.29248	0.306885	-0.689697
913.0	9.193667	-1.245515	4.041012	-0.793815	0.296069	0.188586	-0.288086	0.309082	-0.69458
914.0	9.017556	-1.880018	3.738567	-0.64722	-0.168029	0.171746	-0.299561	0.315674	-0.690186
915.0	8.852924	-2.056418	2.663873	-0.450786	-0.518276	0.110753	-0.299316	0.313477	-0.687744
916.0	9.619605	-1.694067	1.845251	-0.360125	-0.952127	-0.024211	-0.306152	0.315674	-0.683105
917.0	11.146547	-1.265852	2.11531	-0.298587	-0.948597	-0.163151	-0.308594	0.317871	-0.683105
918.0	12.380437	-1.240026	3.505213	-0.21645	-0.221752	-0.296579	-0.306396	0.320068	-0.67627
919.0	12.8701	-2.24563	5.441224	-0.265532	0.420433	-0.431987	-0.306641	0.322266	-0.681152
920.0	12.914	-4.573076	7.165107	-0.471215	0.101523	-0.608392	-0.308838	0.324463	-0.678711
921.0	13.43872	-6.668667	7.955397	-0.168997	-0.979537	-0.80782	-0.319824	0.315674	-0.678467
922.0	14.31748	-6.031788	8.216609	0.833329	-1.456152	-1.028936	-0.335205	0.308838	-0.671143
923.0	14.717593	-2.677073	8.06379	1.47131	-1.298155	-1.142963	-0.336914	0.293457	-0.668457
924.0	13.425132	0.613782	6.623175	1.404705	-0.931644	-1.041175	-0.3479	0.289063	-0.67749
925.0	11.146069	2.390316	5.05981	1.034256	-0.586761	-0.77579	-0.352051	0.277832	-0.674805
926.0	8.988458	2.728812	3.460499	0.471866	-0.353637	-0.574159	-0.358643	0.275635	-0.674561
927.0	7.436669	2.491125	2.566163	0.079833	-0.344353	-0.547815	-0.354248	0.273438	-0.669922
928.0	7.03527	2.490851	2.357616	-0.27912	-0.539545	-0.696267	-0.360596	0.269043	-0.665039
929.0	7.395901	2.07174	2.897911	-0.773972	-0.865191	-0.862511	-0.372314	0.277832	-0.660889
930.0	8.313742	0.465326	3.739324	-1.154348	-1.073199	-0.958463	-0.372314	0.280029	-0.65625
931.0	10.412398	-1.830689	4.921595	-0.986465	-0.993872	-0.907177	-0.385742	0.275635	-0.651367
932.0	12.775146	-3.656312	5.845246	-0.280386	-0.770125	-0.628256	-0.394775	0.277588	-0.64917
933.0	13.888359	-3.68964	5.510494	0.34752	-0.563377	-0.307762	-0.392334	0.273193	-0.651367
934.0	12.606573	-3.33802	3.808151	0.257414	-0.307667	-0.079914	-0.396973	0.275391	-0.651367
935.0	10.554665	-4.053363	1.578757	-0.167363	0.160814	0.047231	-0.392578	0.275391	-0.651367
936.0	9.116769	-4.364076	0.356941	0.384737	0.674932	0.109488	-0.390381	0.275391	-0.656006
937.0	8.481912	-3.299049	1.392263	1.288147	0.892762	0.155657	-0.387695	0.264404	-0.6604
938.0	8.288163	-1.589989	3.44199	1.419774	0.923564	0.21129	-0.383057	0.264648	-0.665039
939.0	7.995812	-0.565873	4.609802	0.976764	0.847239	0.263495	-0.380371	0.255615	-0.669189
940.0	7.334125	-0.657279	4.651633	0.540205	0.594201	0.285163	-0.373779	0.258057	-0.68335
941.0	6.878936	-1.108813	4.13153	0.439389	0.108743	0.270725	-0.375977	0.255859	-0.67627
942.0	6.797756	-1.624358	3.656219	0.362201	-0.380283	0.244946	-0.380371	0.253418	-0.673828
943.0	7.385182	-2.025262	3.129981	0.409209	-0.621724	0.213902	-0.382568	0.253418	-0.676025
944.0	8.330149	-2.247694	2.923867	0.518875	-0.695127	0.199482	-0.38501	0.253418	-0.673828
945.0	9.135938	-1.957474	2.814413	0.751493	-0.615963	0.185999	-0.386719	0.244629	-0.666504
946.0	9.5897	-1.492541	2.893188	0.798265	-0.35998	0.180727	-0.38916	0.249023	-0.673584
947.0	9.642938	-1.076774	2.650782	0.805997	-0.040709	0.181356	-0.393311	0.240234	-0.67334
948.0	9.276912	-1.015799	2.505551	0.788198	0.190456	0.194155	-0.386719	0.240234	-0.675537
949.0	8.916139	-0.934668	2.398646	0.816861	0.296385	0.211516	-0.376953	0.227051	-0.67749
950.0	8.653446	-0.556402	2.544508	0.87076	0.357224	0.22641	-0.384033	0.233643	-0.677734
951.0	8.352869	-0.276565	2.622386	0.761601	0.404226	0.238558	-0.377197	0.229248	-0.686768
952.0	8.051398	-0.363727	2.476546	0.602944	0.424584	0.233392	-0.374756	0.224854	-0.696045
953.0	7.664127	-0.396975	2.285079	0.644676	0.435612	0.200883	-0.381348	0.220459	-0.691162
954.0	7.534917	-0.301506	2.173406	0.728871	0.381979	0.153866	-0.376953	0.222656	-0.695801
955.0	7.519735	-0.268812	2.157131	0.781618	0.393302	0.100717	-0.372314	0.218262	-0.697998
956.0	7.506981	-0.265449	2.100092	0.858493	0.450734	0.065465	-0.369873	0.213867	-0.702637
957.0	7.388214	-0.178383	2.003928	0.921939	0.520787	0.044558	-0.366943	0.200684	-0.704346
958.0	7.579306	-0.102182	2.037155	0.967952	0.482136	0.024915	-0.362549	0.200684	-0.713623
959.0	8.046092	0.036255	2.138427	1.029671	0.397518	-0.006639	-0.360107	0.194092	-0.71582
960.0	8.47876	0.046827	2.263975	1.038451	0.440836	-0.061082	-0.359619	0.183105	-0.724609
961.0	8.796382	-0.195639	2.489102	0.959087	0.670377	-0.103076	-0.35498	0.178711	-0.722168
962.0	8.659304	-0.856927	2.945316	0.788007	1.013452	-0.142682	-0.354736	0.174316	-0.729004
963.0	8.03321	-1.392927	3.278656	0.644795	1.393917	-0.211746	-0.341064	0.169922	-0.731201
964.0	7.238238	-1.447547	3.74537	0.635176	1.492168	-0.279197	-0.332031	0.170166	-0.742676
965.0	6.585719	-0.955166	4.000632	0.646226	1.057221	-0.298733	-0.326904	0.154785	-0.739746
966.0	6.76253	-0.288353	3.916806	0.690462	0.079743	-0.266416	-0.335938	0.158936	-0.737793
967.0	8.254446	0.517409	3.28834	0.728827	-1.111709	-0.193582	-0.344727	0.147949	-0.741943
968.0	10.395419	1.018662	2.194394	0.695291	-1.91878	-0.096802	-0.360352	0.145752	-0.730225
969.0	12.729023	1.021267	1.308132	0.571826	-2.009587	0.035982	-0.366699	0.136719	-0.7229
970.0	14.137427	0.415068	0.899303	0.386417	-1.422502	0.172177	-0.371338	0.141113	-0.718506
971.0	14.399211	-0.10697	1.024656	0.35832	-0.48383	0.290086	-0.371094	0.136719	-0.720459
972.0	14.059741	0.377639	2.255727	0.518034	0.470886	0.374927	-0.366943	0.143555	-0.723145
973.0	13.876168	1.419844	4.128193	0.467834	0.998723	0.487293	-0.362061	0.134766	-0.736816
974.0	13.598444	1.950891	6.214689	0.191574	0.7503	0.646976	-0.357666	0.13916	-0.72998
975.0	12.996236	1.886662	7.916357	-0.208016	0.257279	0.81081	-0.360107	0.143555	-0.730225
976.0	12.877611	2.001192	8.519152	-0.45098	-0.116091	0.908245	-0.362793	0.150146	-0.732666
977.0	12.819252	2.527023	8.634017	-0.718657	-0.602293	0.935704	-0.36084	0.156738	-0.726074
978.0	12.199913	2.462817	7.899695	-1.237672	-1.10103	0.904175	-0.370361	0.174316	-0.719727
979.0	10.904445	1.006207	6.08591	-1.639265	-1.002854	0.717641	-0.375244	0.180908	-0.712891
980.0	9.190957	-0.758955	3.696387	-1.500875	-0.517359	0.472371	-0.37793	0.194092	-0.713379
981.0	7.543196	-1.345553	2.169641	-0.62911	-0.04422	0.277809	-0.375732	0.191895	-0.715576
982.0	6.74893	-1.029427	2.328334	0.053281	-0.029522	0.234236	-0.38501	0.198486	-0.713623
983.0	7.072225	-1.137586	3.281102	-0.045932	-0.625672	0.338485	-0.384766	0.194092	-0.701904
984.0	8.311239	-1.817536	3.835265	-0.386502	-1.389943	0.41944	-0.394287	0.207275	-0.699951
985.0	9.920856	-2.175161	4.090257	-0.300753	-1.569735	0.422893	-0.398438	0.198242	-0.687988
986.0	11.595428	-0.850056	4.491072	-0.009877	-1.101258	0.342347	-0.407959	0.207031	-0.69751
987.0	12.824092	1.243084	4.836407	-0.121869	-0.297254	0.251015	-0.407715	0.204834	-0.683594
988.0	13.02082	1.976926	4.655878	-0.633522	0.448682	0.153673	-0.408203	0.213623	-0.686279
989.0	11.485083	1.295347	3.744756	-0.832607	0.989644	0.044741	-0.396729	0.213867	-0.690918
990.0	9.702061	0.961088	3.233601	-0.643476	1.149609	-0.085992	-0.394531	0.21167	-0.697754
991.0	8.660348	1.109671	3.49944	-0.644395	0.937113	-0.176687	-0.385498	0.213867	-0.704834
992.0	8.620449	0.82478	3.729298	-0.860948	0.574997	-0.236627	-0.390625	0.227051	-0.700684
993.0	8.794488	-0.328931	3.571852	-1.010757	0.348843	-0.234479	-0.383789	0.227051	-0.698486
994.0	8.628221	-1.104358	3.049309	-0.741286	0.363086	-0.234709	-0.384033	0.231445	-0.700928
995.0	8.170623	-1.026114	2.666784	-0.457345	0.435471	-0.21229	-0.383789	0.227051	-0.703125
996.0	7.671722	-0.366627	2.502268	-0.243564	0.412873	-0.171554	-0.388428	0.227051	-0.705322
997.0	7.296095	0.104643	2.532192	-0.350323	0.285152	-0.089805	-0.38623	0.231445	-0.696289
998.0	6.745379	0.153897	2.499885	-0.497863	0.325643	0.002712	-0.379883	0.238281	-0.705811
999.0	6.845315	0.176815	2.467315	-0.506857	0.237386	0.019797	-0.379639	0.23584	-0.700928
1000.0	7.348018	0.267245	2.76638	-0.489672	0.019597	0.017778	-0.384277	0.238037	-0.703369
1001.0	8.182312	-0.060496	2.839604	-0.626687	-0.084519	0.008685	-0.38208	0.238037	-0.696533
1002.0	8.753825	-0.640982	2.580839	-0.647554	-0.070814	-0.009121	-0.384766	0.249268	-0.699219
1003.0	8.932962	-0.798951	2.323776	-0.450221	0.091173	-0.028324	-0.382324	0.24707	-0.696777
1004.0	8.771402	-0.66209	2.054837	-0.411166	0.277755	-0.025901	-0.38916	0.246826	-0.703857
1005.0	8.604974	-0.678749	1.937867	-0.435786	0.42529	-0.017589	-0.387207	0.253662	-0.699463
1006.0	8.233953	-0.737374	1.706701	-0.431305	0.538036	-0.020639	-0.380615	0.258057	-0.701904
1007.0	7.980791	-0.774814	1.751013	-0.413237	0.630629	-0.028143	-0.380127	0.244873	-0.698975
1008.0	7.970353	-0.633711	2.004453	-0.380469	0.663259	-0.036977	-0.375977	0.258057	-0.706543
1009.0	8.088363	-0.578008	2.472183	-0.429322	0.71524	-0.025965	-0.371582	0.258057	-0.704102
1010.0	8.033733	-0.488502	2.646721	-0.416621	0.805591	0.000195	-0.369629	0.262451	-0.706787
1011.0	7.752821	-0.242086	2.76847	-0.350348	0.804524	0.023293	-0.362549	0.260254	-0.711182
1012.0	7.699014	0.102949	2.822132	-0.335251	0.724955	0.046308	-0.360596	0.264648	-0.708984
1013.0	7.722484	0.348989	2.559542	-0.402083	0.612871	0.065675	-0.356201	0.264648	-0.713623
1014.0	7.805063	0.458125	2.201064	-0.462063	0.487473	0.086436	-0.354004	0.26709	-0.713867
1015.0	7.926164	0.500533	1.856684	-0.515164	0.389602	0.108103	-0.349365	0.264893	-0.711426
1016.0	7.87731	0.538444	1.590451	-0.548185	0.435982	0.131945	-0.354248	0.275879	-0.714111
1017.0	7.972662	0.567808	1.518557	-0.554599	0.525318	0.158823	-0.347412	0.271484	-0.71167
1018.0	7.96643	0.391463	1.793137	-0.621649	0.610986	0.199029	-0.345459	0.278076	-0.716553
1019.0	8.260402	-0.114434	2.445012	-0.693091	0.635797	0.223383	-0.338623	0.280273	-0.711914
1020.0	8.924311	-0.990955	3.469869	-0.667129	0.563086	0.214853	-0.338867	0.286865	-0.716797
1021.0	9.343831	-1.872687	4.317944	-0.57539	0.319387	0.183529	-0.343262	0.284668	-0.719238
1022.0	8.924568	-2.31747	3.921452	-0.429351	0.049893	0.178122	-0.33667	0.289063	-0.717041
1023.0	8.468055	-2.125808	2.566339	-0.328182	-0.439021	0.125	-0.343506	0.286865	-0.7146
1024.0	9.331929	-1.341644	1.743267	-0.303768	-1.113914	-0.037912	-0.352783	0.297852	-0.703369
1025.0	11.429003	-0.956867	2.566034	-0.362081	-1.135982	-0.205097	-0.356934	0.286865	-0.705322
1026.0	13.282538	-1.201964	4.509937	-0.149163	-0.036444	-0.394778	-0.359375	0.29126	-0.703125
1027.0	13.604802	-2.404574	7.273915	-0.08319	0.862728	-0.646503	-0.350098	0.286865	-0.70752
1028.0	12.99633	-4.396686	9.052464	-0.349788	0.156785	-0.893326	-0.363525	0.280029	-0.705078
1029.0	13.518697	-5.70401	9.313581	0.231294	-1.390666	-1.094672	-0.372314	0.273438	-0.702393
1030.0	15.014373	-3.954202	9.682432	1.193221	-1.935735	-1.31744	-0.383057	0.262451	-0.695068
1031.0	15.199931	-0.861054	8.483099	1.3602	-1.530811	-1.351288	-0.398193	0.244629	-0.692139
1032.0	13.212366	1.113154	6.299797	1.11353	-0.967295	-1.09498	-0.404785	0.240234	-0.691895
1033.0	9.984233	1.312618	3.942719	0.441763	-0.378329	-0.734475	-0.404297	0.229248	-0.691406
1034.0	7.223794	0.705789	2.236594	0.023232	0.028479	-0.47322	-0.408691	0.229248	-0.698486
1035.0	5.221239	0.264362	1.694073	-0.284786	0.048445	-0.449996	-0.406494	0.229248	-0.693848
1036.0	5.085051	0.068071	2.1689	-0.538074	-0.303725	-0.579414	-0.41333	0.231445	-0.687012
1037.0	7.44629	-0.13339	3.343611	-0.675649	-1.124817	-0.746148	-0.424316	0.226807	-0.682129
1038.0	11.40459	-0.956765	4.870129	-0.787867	-2.099925	-0.762798	-0.442627	0.229004	-0.672852
1039.0	15.505367	-2.366491	5.281684	-0.530599	-2.214486	-0.547658	-0.447266	0.233398	-0.656738
1040.0	17.23827	-3.46892	4.390331	0.084061	-1.04652	-0.251964	-0.458252	0.229004	-0.656494
1041.0	14.092197	-3.746957	2.418618	0.325152	0.670355	-0.046336	-0.453125	0.215576	-0.663086
1042.0	10.233924	-4.097313	1.183813	0.079957	1.777528	0.079564	-0.440186	0.224609	-0.672607
1043.0	7.998402	-4.794445	1.0385	0.296862	1.90048	0.141521	-0.430664	0.213623	-0.679199
1044.0	7.180057	-4.485402	2.49668	1.22177	1.395425	0.178545	-0.426025	0.211426	-0.690918
1045.0	7.598587	-2.299669	4.74402	1.817608	0.670619	0.187301	-0.421143	0.202637	-0.69751
1046.0	8.04933	-0.04845	6.030584	1.415719	0.205358	0.231934	-0.425537	0.196045	-0.694824
1047.0	8.005611	0.222753	5.437814	0.554891	0.023429	0.273116	-0.424805	0.182861	-0.694336
1048.0	7.507457	-0.928081	3.885165	0.104263	-0.115291	0.278838	-0.42749	0.193848	-0.70166
1049.0	7.218156	-1.550217	2.714895	0.324188	-0.226682	0.229513	-0.425049	0.185059	-0.699219
1050.0	7.394506	-1.300873	2.668314	0.594826	-0.289831	0.172067	-0.427246	0.187256	-0.692139
1051.0	8.11427	-1.186489	3.088523	0.556216	-0.338706	0.127933	-0.429199	0.180664	-0.689697
1052.0	8.802238	-1.333757	3.203803	0.548537	-0.320536	0.100846	-0.438477	0.185059	-0.692139
1053.0	9.020444	-1.176386	3.160817	0.725793	-0.12732	0.09772	-0.437988	0.173828	-0.69873
1054.0	8.831957	-0.749007	3.141906	0.789912	0.086451	0.105724	-0.435791	0.171631	-0.694092
1055.0	8.391766	-0.728623	2.71593	0.63958	0.224777	0.126353	-0.435547	0.165039	-0.700684
1056.0	8.030895	-0.787701	2.40996	0.676296	0.306509	0.139622	-0.433105	0.160645	-0.700439
1057.0	8.006445	-0.567333	2.512264	0.781546	0.326495	0.151173	-0.435059	0.15625	-0.707275
1058.0	7.917161	-0.182075	2.774252	0.78466	0.392278	0.159983	-0.435059	0.15625	-0.705078
1059.0	7.703511	-0.105502	2.931691	0.664761	0.467443	0.154396	-0.430176	0.147461	-0.709229
1060.0	7.330457	-0.326524	2.73764	0.558417	0.481109	0.133083	-0.430176	0.145264	-0.716309
1061.0	7.127148	-0.680338	2.36762	0.559598	0.396945	0.103639	-0.427734	0.143066	-0.713867
1062.0	7.092414	-0.687153	2.071836	0.706123	0.336097	0.063592	-0.423096	0.136475	-0.71582
1063.0	7.006681	-0.524753	1.99999	0.834448	0.34712	0.025776	-0.422607	0.127686	-0.724854
1064.0	7.078738	-0.332854	1.952694	0.915566	0.437243	0.010779	-0.424805	0.125488	-0.722412
1065.0	7.354486	-0.275155	1.958435	0.981121	0.462036	0.009368	-0.41748	0.110107	-0.724121
1066.0	7.624785	-0.179404	2.009386	1.119509	0.494831	-0.011641	-0.415283	0.112305	-0.733643
1067.0	8.048861	-0.135849	2.341426	1.177561	0.589459	-0.047584	-0.416992	0.094727	-0.73999
1068.0	8.177842	-0.279196	2.812489	1.116094	0.768716	-0.077373	-0.414551	0.092529	-0.737549
1069.0	8.036736	-0.495868	3.345652	0.995211	1.034258	-0.107862	-0.403076	0.088135	-0.746582
1070.0	7.609695	-0.708289	3.874362	0.850729	1.244275	-0.159005	-0.402832	0.08374	-0.748779
1071.0	7.299631	-0.735695	4.340754	0.609271	1.161215	-0.200053	-0.393555	0.074951	-0.753174
1072.0	7.228696	-0.486995	4.412189	0.401459	0.606811	-0.213102	-0.391357	0.074951	-0.762451
1073.0	7.352226	-0.10448	3.786089	0.368345	-0.274422	-0.211423	-0.395264	0.063965	-0.752686
1074.0	8.38339	0.584782	2.888474	0.530559	-1.204697	-0.147337	-0.408691	0.061768	-0.754883
1075.0	10.225932	1.28824	2.322851	0.559323	-1.818904	-0.012295	-0.413086	0.055176	-0.747803
1076.0	12.549978	1.742978	3.023099	0.406084	-1.697025	0.192618	-0.426514	0.057129	-0.738525
1077.0	14.964411	2.358898	4.750257	0.247266	-0.719978	0.416989	-0.43335	0.054932	-0.740723
1078.0	17.17371	4.454591	7.663595	0.249178	0.062861	0.68462	-0.431152	0.054932	-0.738525
1079.0	18.500381	6.703959	10.629417	-0.414769	-0.162735	0.999898	-0.429199	0.063721	-0.740967
1080.0	17.560464	5.209383	10.840804	-1.450891	-0.542666	1.208284	-0.436523	0.081299	-0.737061
1081.0	14.278213	0.866885	8.040142	-1.963232	-0.426396	1.138535	-0.437256	0.094727	-0.73291
1082.0	11.515231	-2.110167	5.314694	-1.655692	-0.276049	0.818484	-0.437744	0.10791	-0.724121
1083.0	10.198	-3.220723	3.978385	-1.186973	-0.400779	0.426437	-0.444824	0.116699	-0.724365
1084.0	9.017036	-3.879893	2.687314	-1.03834	-0.405359	0.107073	-0.44751	0.125488	-0.729492
1085.0	8.132379	-4.363606	1.585908	-0.694227	-0.224033	-0.098055	-0.447021	0.116699	-0.717529
1086.0	7.705981	-4.089892	1.418488	0.091632	-0.17416	-0.184898	-0.449219	0.116699	-0.726807
1087.0	7.6374	-2.786536	2.749564	0.981359	-0.259267	-0.092514	-0.453613	0.109863	-0.724121
1088.0	8.090527	-0.815185	5.0057	1.266809	-0.572335	0.174992	-0.460205	0.109863	-0.714844
1089.0	9.418567	0.501697	6.800594	0.663931	-1.087281	0.503293	-0.466797	0.101074	-0.712158
1090.0	10.570332	1.313367	6.365472	0.009652	-1.366925	0.709578	-0.47168	0.114258	-0.705811
1091.0	10.91316	2.941039	4.704373	-0.02767	-1.058795	0.702203	-0.476074	0.107666	-0.703125
1092.0	10.663029	4.716428	3.738994	-0.179362	-0.563196	0.582875	-0.485352	0.118652	-0.698975
1093.0	10.405666	4.729132	2.844934	-0.850271	-0.188062	0.410315	-0.485596	0.123047	-0.696777
1094.0	10.825327	3.106341	2.219455	-1.190889	0.140509	0.20414	-0.486084	0.134033	-0.697266
1095.0	11.371093	1.26457	3.026433	-1.066929	0.547619	0.012388	-0.479248	0.134033	-0.70874
1096.0	11.045438	-0.350417	4.450756	-1.263588	1.041444	-0.123162	-0.477539	0.147217	-0.707031
1097.0	10.268827	-2.044322	4.603628	-1.464893	1.216396	-0.185541	-0.468506	0.145264	-0.718506
1098.0	8.986804	-3.166839	3.905323	-1.062355	1.054477	-0.242454	-0.4646	0.160645	-0.714355
1099.0	7.633826	-2.7271	3.39999	-0.369125	0.785484	-0.270448	-0.45752	0.154053	-0.716553
1100.0	6.868207	-1.344309	3.247747	-0.00779	0.50799	-0.214427	-0.452881	0.151855	-0.71875
1101.0	6.48539	-0.007768	3.06914	0.002284	0.230135	-0.150048	-0.455322	0.151855	-0.71875
1102.0	6.366928	0.627556	2.81749	-0.193439	0.056465	-0.089599	-0.452881	0.151855	-0.721191
1103.0	6.059846	0.877708	2.72364	-0.294518	0.086497	8.7e-05	-0.455322	0.154053	-0.721191
1104.0	6.248787	1.096241	2.586999	-0.315679	-0.067167	0.037725	-0.459961	0.15625	-0.723633
1105.0	7.25248	1.174055	3.041097	-0.341538	-0.478538	0.047111	-0.459961	0.158447	-0.718994
1106.0	8.491764	0.828049	3.228804	-0.486913	-0.658864	0.039067	-0.467041	0.165039	-0.719238
1107.0	9.532251	0.401201	3.105033	-0.46111	-0.609062	0.009787	-0.473633	0.160645	-0.712158
1108.0	9.764467	-0.035539	2.72139	-0.503802	-0.435241	0.020551	-0.476074	0.167236	-0.712402
1109.0	9.374301	-0.277028	2.008984	-0.545137	-0.165248	0.036123	-0.473877	0.169434	-0.705566
1110.0	9.12934	-0.741394	1.484525	-0.650787	0.008114	0.046952	-0.476563	0.178223	-0.708008
1111.0	8.855293	-1.340566	1.055865	-0.701118	0.195148	0.063529	-0.471924	0.173828	-0.708008
1112.0	8.452916	-1.433479	1.23393	-0.432722	0.46839	0.055328	-0.469971	0.184814	-0.717773
1113.0	8.111549	-1.025981	1.829423	-0.367443	0.694374	0.059514	-0.465332	0.176025	-0.721924
1114.0	7.915646	-0.974052	2.301026	-0.478861	0.829403	0.074075	-0.465576	0.184814	-0.722412
1115.0	7.74611	-0.944391	2.379888	-0.459482	0.915802	0.088086	-0.454346	0.187256	-0.727051
1116.0	7.581312	-0.644702	2.397964	-0.350831	0.980696	0.097336	-0.452393	0.196045	-0.727295
1117.0	7.452693	-0.328288	2.554972	-0.362594	0.979317	0.102145	-0.445557	0.19165	-0.731934
1118.0	7.292734	-0.200285	2.504508	-0.471129	0.955041	0.107326	-0.436768	0.198242	-0.736816
1119.0	7.146754	-0.233924	2.344683	-0.538083	0.843731	0.10982	-0.432129	0.196045	-0.729736
1120.0	7.035159	-0.083283	2.294617	-0.529903	0.807229	0.123962	-0.434814	0.204834	-0.741699
1121.0	7.159005	0.216883	2.257891	-0.536967	0.788048	0.136973	-0.427979	0.202637	-0.746094
1122.0	7.336534	0.57925	2.386575	-0.53677	0.819612	0.171975	-0.419189	0.207275	-0.744141
1123.0	7.801794	0.718814	2.56178	-0.611057	0.804973	0.21187	-0.415039	0.213867	-0.746582
1124.0	8.427575	0.680487	2.957468	-0.636686	0.697287	0.231748	-0.412842	0.218262	-0.744385
1125.0	8.954035	0.229632	3.565408	-0.73515	0.591816	0.246726	-0.408691	0.224854	-0.756348
1126.0	9.188445	-0.655445	3.77502	-0.814681	0.325484	0.224535	-0.404297	0.229248	-0.763428
1127.0	8.706775	-1.493665	3.408768	-0.754212	-0.03011	0.174487	-0.402344	0.236084	-0.754395
1128.0	8.316316	-1.935115	2.667381	-0.524517	-0.504295	0.100468	-0.416016	0.240234	-0.752197
1129.0	9.236171	-2.040718	2.261355	-0.300908	-1.019855	-0.046083	-0.422852	0.240234	-0.745361
1130.0	11.55894	-2.090335	3.263049	-0.126649	-1.21579	-0.189121	-0.427246	0.242432	-0.738281
1131.0	13.728221	-2.657049	5.428869	-0.062171	-0.627811	-0.336774	-0.431885	0.242432	-0.738281
1132.0	14.940577	-4.457436	7.516917	-0.170062	0.010879	-0.538534	-0.422607	0.23584	-0.738037
1133.0	15.222412	-6.597165	8.705794	0.155959	-0.305674	-0.77451	-0.435547	0.224854	-0.733154
1134.0	15.564597	-6.692489	9.470174	1.015964	-1.042303	-0.97112	-0.44873	0.21582	-0.732666
1135.0	15.846705	-3.893162	9.012118	1.536592	-1.196972	-1.059955	-0.450684	0.207031	-0.732422
1136.0	14.803073	-0.121766	7.272576	1.512349	-0.941931	-0.931063	-0.463623	0.193848	-0.729492
1137.0	12.567882	2.346057	5.191226	1.079741	-0.511413	-0.632	-0.45874	0.18042	-0.729004
1138.0	10.076895	2.888574	3.41532	0.511445	-0.208083	-0.349928	-0.461182	0.184814	-0.729248
1139.0	7.922598	2.64727	2.260255	0.223913	-0.091674	-0.212797	-0.458496	0.178223	-0.726807
1140.0	7.008526	2.412221	2.328188	0.111788	-0.24947	-0.254681	-0.472168	0.18042	-0.724365
1141.0	7.333392	2.215649	3.24182	-0.192842	-0.799691	-0.375467	-0.474121	0.176025	-0.719727
1142.0	8.047261	1.103613	4.259589	-0.891337	-1.349837	-0.557691	-0.479248	0.187012	-0.710693
1143.0	9.039679	-1.092897	4.856063	-1.270347	-1.527224	-0.770641	-0.48999	0.178223	-0.69873
1144.0	10.369333	-3.578166	5.477686	-0.91381	-1.239649	-0.854417	-0.501709	0.186768	-0.696777
1145.0	11.283778	-5.112147	5.458731	-0.228339	-0.648108	-0.779597	-0.501465	0.182373	-0.694336
1146.0	11.480005	-4.961089	4.226778	0.532384	-0.087587	-0.535478	-0.508057	0.175781	-0.705566
1147.0	11.697004	-3.978039	2.769278	0.851973	-0.000679	-0.262247	-0.503174	0.164795	-0.693604
1148.0	11.061259	-3.48196	1.475752	0.652862	0.163102	-0.044646	-0.501221	0.173584	-0.705566
1149.0	9.927304	-3.075767	0.706416	0.750331	0.901203	0.063248	-0.493896	0.162598	-0.709961
1150.0	9.139382	-2.099535	1.773486	1.314871	1.415624	0.12688	-0.491455	0.158203	-0.711914
1151.0	8.748764	-0.434419	3.690382	1.610771	1.307076	0.186399	-0.482178	0.149414	-0.723389
1152.0	7.908371	0.713758	5.260253	1.239749	1.019591	0.286684	-0.479736	0.145264	-0.732422
1153.0	6.971264	0.954488	5.044038	0.564097	0.697668	0.331727	-0.473145	0.147461	-0.737061
1154.0	6.094206	0.128459	3.784879	0.150464	0.151729	0.3406	-0.46875	0.149658	-0.732666
1155.0	5.776082	-0.864524	2.899847	0.167408	-0.426474	0.29196	-0.477783	0.149658	-0.728027
1156.0	6.395574	-1.488129	2.418036	0.2645	-0.732031	0.215282	-0.482178	0.151855	-0.72583
1157.0	7.529684	-2.058628	2.785671	0.399534	-0.851664	0.153516	-0.488525	0.138428	-0.725098
1158.0	8.819848	-2.236419	2.949737	0.525967	-0.772634	0.117881	-0.48877	0.147217	-0.718506
1159.0	9.47827	-2.197531	3.015681	0.620368	-0.500326	0.108621	-0.493164	0.140625	-0.718262
1160.0	9.488571	-1.954746	2.703256	0.639273	-0.091704	0.103646	-0.49292	0.138428	-0.7229
1161.0	9.19041	-1.790647	2.253266	0.668213	0.122138	0.092401	-0.488525	0.138428	-0.7229
1162.0	8.955029	-1.623687	2.034632	0.758774	0.200403	0.088455	-0.490479	0.129639	-0.724854
1163.0	8.818233	-1.231339	2.164713	0.855617	0.304399	0.080975	-0.492676	0.127441	-0.724854
1164.0	8.682517	-0.785334	2.396891	0.844745	0.405293	0.084844	-0.490234	0.127441	-0.729492
1165.0	8.453301	-0.468384	2.360861	0.776495	0.43223	0.079819	-0.485596	0.12085	-0.733887
1166.0	8.0508	-0.255709	2.33833	0.793958	0.491249	0.064701	-0.483398	0.12085	-0.736084
1167.0	7.548228	-0.19262	2.275837	0.750688	0.567561	0.043574	-0.474121	0.114258	-0.733643
1168.0	7.34888	-0.300166	2.04919	0.735435	0.554897	0.01843	-0.476318	0.114258	-0.738281
1169.0	7.367762	-0.390816	1.879676	0.80052	0.47352	-0.005964	-0.471436	0.105469	-0.740234
1170.0	7.474225	-0.255969	1.983406	0.868204	0.424411	-0.03193	-0.475586	0.098877	-0.749268
1171.0	7.778959	-0.064209	2.112578	0.893946	0.363834	-0.046803	-0.470947	0.092285	-0.749023
1172.0	8.206752	0.010067	2.199054	0.894404	0.356914	-0.076814	-0.46875	0.092285	-0.751465
1173.0	8.868476	-0.059768	2.24234	0.910419	0.376223	-0.105688	-0.466064	0.083496	-0.750977
1174.0	9.165536	-0.231253	2.222261	0.927276	0.496213	-0.136969	-0.466064	0.081299	-0.755615
1175.0	9.147593	-0.516479	2.223456	0.931418	0.739736	-0.158904	-0.456543	0.07251	-0.757568
1176.0	8.848864	-0.897278	2.575702	0.881345	1.076954	-0.170985	-0.44751	0.068115	-0.771484
1177.0	8.376194	-1.175349	3.084016	0.790869	1.403705	-0.214101	-0.442627	0.061523	-0.768799
1178.0	7.985536	-1.073861	3.725692	0.76091	1.512253	-0.254347	-0.431152	0.054932	-0.780273
1179.0	7.163026	-0.570851	4.118982	0.724883	1.309434	-0.300894	-0.428467	0.04834	-0.782227
1180.0	6.697149	0.016961	4.052761	0.692152	0.659615	-0.298101	-0.426025	0.043945	-0.782227
1181.0	7.231601	0.329028	3.338708	0.599576	-0.408933	-0.237089	-0.428223	0.039551	-0.779541
1182.0	8.873762	0.53848	2.463807	0.609725	-1.468273	-0.112809	-0.439453	0.037354	-0.774902
1183.0	11.389121	0.78888	2.095138	0.641528	-1.941901	0.026758	-0.447998	0.028564	-0.77002
1184.0	13.668088	0.59551	2.699026	0.394231	-1.470337	0.164197	-0.461914	0.037109	-0.763184
1185.0	15.036214	0.455814	3.800183	0.247464	-0.285182	0.300337	-0.457275	0.035156	-0.763184
1186.0	15.183569	2.146154	5.921915	0.533232	0.768929	0.462238	-0.464355	0.041748	-0.765869
1187.0	15.056943	4.395526	8.653011	0.268165	0.647738	0.749176	-0.452881	0.035156	-0.763184
1188.0	14.523594	4.346243	10.004275	-0.612463	-0.329964	1.051453	-0.460449	0.054932	-0.761719
1189.0	13.696166	2.43379	9.081649	-1.08179	-0.836001	1.117295	-0.460693	0.063721	-0.752686
1190.0	12.806513	1.33345	7.45363	-1.052539	-0.888526	1.016948	-0.468262	0.081299	-0.750977
1191.0	11.489909	0.564185	5.976597	-1.263678	-0.987161	0.828288	-0.470703	0.087891	-0.744141
1192.0	9.860748	-1.193037	3.77624	-1.539514	-0.828736	0.603283	-0.478271	0.107666	-0.742676
1193.0	8.193345	-2.841636	1.938505	-1.137328	-0.388844	0.362026	-0.480469	0.105469	-0.744873
1194.0	7.345016	-3.227184	1.644335	-0.297475	-0.114003	0.208388	-0.480713	0.112061	-0.740479
1195.0	7.447361	-2.584595	2.813644	0.461713	-0.315051	0.23783	-0.485107	0.112061	-0.738281
1196.0	8.17948	-1.645285	4.472107	0.651046	-0.865334	0.455915	-0.487549	0.112061	-0.733398
1197.0	9.37987	-0.974203	5.731607	0.333986	-1.303656	0.673513	-0.501221	0.116455	-0.722168
1198.0	10.396067	0.139595	5.672128	0.090097	-1.328155	0.754324	-0.503662	0.125244	-0.717773
1199.0	11.372474	2.320954	5.107933	0.060639	-0.979173	0.637396	-0.510254	0.120605	-0.715332
1200.0	12.40513	4.262945	4.774617	-0.2718	-0.672646	0.419975	-0.512939	0.129395	-0.710938
1201.0	12.902607	4.506706	3.836422	-0.851291	-0.333302	0.230505	-0.517578	0.133789	-0.711182
1202.0	11.868288	3.160002	2.710993	-1.042231	0.382688	0.056368	-0.517822	0.140381	-0.704346
1203.0	10.295309	1.823039	2.910657	-1.130752	1.109098	-0.075183	-0.502197	0.14502	-0.720703
1204.0	9.382914	0.284367	3.540443	-1.589978	1.23546	-0.178723	-0.498291	0.158203	-0.718994
1205.0	8.809502	-1.471407	3.916125	-1.623763	1.183468	-0.229446	-0.494141	0.164795	-0.721436
1206.0	8.456739	-2.715704	4.232838	-1.262729	0.938388	-0.277011	-0.490234	0.178223	-0.726563
1207.0	7.868488	-2.646316	4.245955	-0.664816	0.633406	-0.311374	-0.485352	0.173828	-0.726563
1208.0	7.270961	-1.359615	4.000027	-0.136653	0.403226	-0.284608	-0.480957	0.176025	-0.726563
1209.0	6.798318	-0.224704	3.620354	-0.169862	0.114176	-0.229899	-0.485596	0.176025	-0.724365
1210.0	6.696236	0.312934	3.035444	-0.372641	-0.115617	-0.16239	-0.485596	0.18042	-0.726807
1211.0	6.737403	0.560766	2.833115	-0.433609	-0.11843	-0.087046	-0.479004	0.182617	-0.726807
1212.0	6.597747	0.690369	2.828847	-0.46242	0.107162	-0.01953	-0.488281	0.189209	-0.717773
1213.0	6.967095	0.689178	2.952273	-0.57624	0.04094	0.009088	-0.490479	0.187012	-0.724609
1214.0	7.507349	0.538746	3.092622	-0.640373	-0.132811	0.003317	-0.486328	0.197998	-0.720459
1215.0	8.262973	0.19667	3.168554	-0.705155	-0.21342	-0.006739	-0.490967	0.197998	-0.720459
1216.0	8.587305	-0.337602	2.969262	-0.750049	-0.174797	-0.012786	-0.48877	0.202393	-0.720703
1217.0	8.506389	-0.630456	2.532543	-0.704111	0.003777	-0.015899	-0.489014	0.206787	-0.713867
1218.0	8.211485	-0.971684	2.267851	-0.693155	0.190009	-0.023848	-0.484863	0.213379	-0.709473
1219.0	8.003333	-1.348457	2.207245	-0.715596	0.318667	-0.025181	-0.480225	0.215576	-0.714111
1220.0	7.658143	-1.682225	2.020292	-0.63419	0.448457	-0.041245	-0.483154	0.226807	-0.7146
1221.0	7.45867	-1.486756	2.203504	-0.460301	0.541273	-0.048386	-0.482666	0.217773	-0.721191
1222.0	7.595139	-1.115306	2.161452	-0.484438	0.668352	-0.033607	-0.474365	0.233398	-0.714844
1223.0	7.735722	-1.005166	2.336774	-0.486412	0.808377	-0.008705	-0.469727	0.229004	-0.723877
1224.0	7.74806	-0.897296	2.5426	-0.430707	0.878573	0.020486	-0.465332	0.235596	-0.72876
1225.0	7.535599	-0.607496	2.551309	-0.382482	0.837457	0.035875	-0.465332	0.233398	-0.726318
1226.0	7.511175	-0.258242	2.416529	-0.400525	0.67366	0.056873	-0.463379	0.244385	-0.726807
1227.0	7.584654	-0.138896	2.132941	-0.516597	0.546356	0.098061	-0.456787	0.244385	-0.726807
1228.0	7.948222	-0.108532	1.851737	-0.5546	0.53479	0.134224	-0.456787	0.246826	-0.736328
1229.0	8.53482	-0.006098	1.836057	-0.527315	0.524157	0.176877	-0.452393	0.251221	-0.731689
1230.0	9.024129	0.077922	2.120416	-0.564942	0.59723	0.238353	-0.450684	0.264404	-0.734619
1231.0	9.402188	-0.163864	2.636777	-0.638797	0.786358	0.276333	-0.441895	0.266602	-0.743896
1232.0	9.773208	-0.714205	3.441508	-0.669225	0.811768	0.267809	-0.4375	0.270996	-0.737061
1233.0	9.565626	-1.520622	4.076265	-0.618357	0.676433	0.204947	-0.430908	0.273193	-0.734863
1234.0	8.644232	-1.969377	3.892133	-0.515155	0.247114	0.173082	-0.43335	0.279785	-0.73291
1235.0	8.064806	-1.785141	2.820527	-0.336289	-0.333525	0.088125	-0.440186	0.281982	-0.735107
1236.0	8.846789	-0.94547	1.892105	-0.18725	-0.963805	-0.054603	-0.442383	0.281982	-0.723633
1237.0	10.807926	-0.328663	2.071848	-0.300129	-1.255066	-0.17476	-0.449463	0.288574	-0.721436
1238.0	12.261813	-0.40715	2.666195	-0.246635	-0.71642	-0.26632	-0.460693	0.286377	-0.714355
1239.0	12.621445	-1.015347	3.972681	-0.110062	0.099088	-0.37178	-0.453857	0.28418	-0.716797
1240.0	12.3828	-2.55244	5.707304	-0.306871	0.379061	-0.524482	-0.458252	0.28418	-0.726074
1241.0	12.369864	-4.687985	6.838662	-0.589344	-0.559749	-0.680398	-0.462891	0.28418	-0.700439
1242.0	13.198793	-5.869659	7.408259	0.090892	-1.55528	-0.846178	-0.478516	0.279541	-0.697998
1243.0	14.201936	-4.180559	8.715374	1.19229	-1.47394	-1.048234	-0.486816	0.266357	-0.702148
1244.0	14.09546	-1.312546	9.104853	1.379401	-0.978311	-1.120074	-0.495361	0.253174	-0.70166
1245.0	12.337284	0.116575	7.779485	1.040559	-0.789725	-1.009892	-0.501709	0.241943	-0.703613
1246.0	9.756921	0.322681	5.637183	0.647161	-0.696862	-0.876038	-0.503906	0.241943	-0.696533
1247.0	7.289741	0.17564	3.679612	0.363054	-0.541086	-0.82339	-0.510254	0.230957	-0.68457
1248.0	5.842471	0.030157	2.459509	0.052083	-0.462087	-0.882944	-0.512207	0.226563	-0.679688
1249.0	5.807597	0.061927	2.01939	-0.217656	-0.582029	-0.990565	-0.52124	0.224121	-0.679688
1250.0	7.616583	0.19399	2.729458	-0.271153	-1.014197	-1.01642	-0.527832	0.221924	-0.672607
1251.0	11.216015	0.043804	4.143685	-0.197363	-1.669627	-0.838957	-0.543213	0.210938	-0.658203
1252.0	15.676149	-0.277352	5.8088	0.040309	-1.965107	-0.502697	-0.554688	0.215088	-0.64917
1253.0	17.835151	-1.175032	6.183662	0.07311	-1.022019	-0.208067	-0.552246	0.208496	-0.646484
1254.0	14.127597	-2.471879	3.734232	-0.102576	0.827261	-0.043998	-0.545654	0.215332	-0.653809
1255.0	9.761176	-3.506554	1.687754	-0.056477	1.801263	0.068998	-0.536621	0.213135	-0.66748
1256.0	7.709064	-4.386923	1.408108	0.489695	1.536997	0.1916	-0.53418	0.20874	-0.669678
1257.0	7.173765	-4.0853	2.792906	1.218767	0.817834	0.265569	-0.529297	0.202148	-0.674072
1258.0	7.399359	-2.453147	4.480049	1.37316	0.376478	0.321078	-0.529297	0.202148	-0.671875
1259.0	7.529042	-1.12385	4.760492	0.950248	0.163459	0.337637	-0.529297	0.197754	-0.687988
1260.0	7.085727	-0.950167	3.798335	0.539083	-0.062969	0.343031	-0.529297	0.199951	-0.680908
1261.0	6.898203	-1.342295	2.757113	0.434252	-0.360757	0.306381	-0.526855	0.195557	-0.678467
1262.0	7.104202	-1.525187	2.198129	0.53207	-0.560309	0.224551	-0.533447	0.191162	-0.673828
1263.0	7.897703	-1.250237	2.395692	0.706141	-0.530301	0.160855	-0.535645	0.193359	-0.664551
1264.0	8.931775	-1.120147	2.925417	0.675005	-0.320558	0.109016	-0.537842	0.188965	-0.673584
1265.0	9.359298	-1.054516	3.010059	0.629795	0.007818	0.097749	-0.5354	0.186768	-0.675781
1266.0	9.156884	-0.86871	2.827562	0.677571	0.258115	0.089442	-0.537842	0.186768	-0.68042
1267.0	8.917649	-0.61839	2.881243	0.781394	0.305731	0.097739	-0.530762	0.182373	-0.675781
1268.0	8.710907	-0.350183	2.727073	0.784419	0.339662	0.110734	-0.5354	0.182373	-0.682617
1269.0	8.575406	-0.315354	2.70222	0.704066	0.329451	0.129543	-0.532715	0.173584	-0.687012
1270.0	8.249144	-0.317609	2.549684	0.670239	0.351167	0.143921	-0.52832	0.177979	-0.689453
1271.0	7.994052	-0.287532	2.516889	0.660985	0.423807	0.150409	-0.523682	0.171387	-0.696289
1272.0	7.705925	-0.224813	2.385743	0.617767	0.508279	0.144958	-0.525879	0.173584	-0.700928
1273.0	7.381443	-0.303133	2.316418	0.590035	0.582607	0.127507	-0.527832	0.162598	-0.700439
1274.0	7.165732	-0.57899	2.241278	0.566568	0.618784	0.102768	-0.51416	0.162598	-0.702881
1275.0	7.123795	-0.706283	2.155033	0.649931	0.54455	0.059559	-0.51416	0.158203	-0.707275
1276.0	7.1284	-0.741265	2.136542	0.730175	0.453358	0.012234	-0.511719	0.153809	-0.711914
1277.0	7.437418	-0.527056	2.02573	0.845706	0.36872	-0.029804	-0.513672	0.14502	-0.711426
1278.0	7.864739	-0.357162	1.949026	0.945689	0.282059	-0.068087	-0.515869	0.14502	-0.716064
1279.0	8.158186	-0.175869	1.90913	1.033024	0.332092	-0.111502	-0.506348	0.13623	-0.718262
1280.0	8.447416	-0.194656	2.148662	1.028406	0.496826	-0.160389	-0.501953	0.134033	-0.722656
1281.0	8.670387	-0.551284	2.571406	0.863076	0.741365	-0.217674	-0.501709	0.129639	-0.729492
1282.0	8.808693	-0.759267	2.903184	0.781921	0.898464	-0.278633	-0.494629	0.125244	-0.733887
1283.0	8.577133	-0.301457	3.564196	0.845902	0.975753	-0.336619	-0.491943	0.109863	-0.738037
1284.0	7.977796	0.372813	4.141472	0.641006	0.806467	-0.328656	-0.496338	0.109863	-0.749756
1285.0	7.583126	0.778666	3.805514	0.383326	0.253756	-0.290703	-0.489258	0.103271	-0.74707
1286.0	8.154548	0.58412	2.962281	0.24162	-0.621336	-0.197483	-0.494141	0.107666	-0.740234
1287.0	9.583836	0.007324	1.713012	0.227065	-1.444473	-0.090859	-0.502686	0.096436	-0.73291
1288.0	11.706803	-0.446219	1.124144	0.446913	-1.728119	0.0176	-0.50708	0.096436	-0.723633
1289.0	13.538374	-0.575506	1.683821	0.478353	-1.24933	0.162244	-0.518555	0.098633	-0.718994
1290.0	14.499173	-0.53374	2.834841	0.38391	-0.269532	0.335195	-0.518555	0.103027	-0.721436
1291.0	14.515072	0.702272	4.489852	0.644875	0.743161	0.51418	-0.511475	0.092041	-0.732666
1292.0	14.0851	2.779848	7.063607	0.601553	0.818861	0.745142	-0.505127	0.103027	-0.733154
1293.0	13.406792	3.801078	9.102191	-0.115733	0.042411	1.021722	-0.509521	0.103027	-0.726318
1294.0	13.272132	3.692771	9.266714	-0.691996	-0.6382	1.145232	-0.512451	0.118408	-0.724365
1295.0	13.255878	3.618924	8.412838	-0.896178	-1.038726	1.138598	-0.521973	0.129395	-0.720215
1296.0	13.072554	3.034705	7.629364	-1.173958	-1.269354	1.060431	-0.524658	0.142578	-0.704346
1297.0	11.712274	0.60894	5.841785	-1.822354	-1.061646	0.83247	-0.527588	0.1604	-0.702881
1298.0	9.644381	-1.94672	3.22427	-1.721002	-0.323715	0.56955	-0.530273	0.171387	-0.700928
1299.0	7.810606	-3.186103	1.827145	-1.037383	0.267874	0.322044	-0.52832	0.175781	-0.703369
1300.0	7.306875	-3.405194	1.797893	-0.229225	0.260076	0.258603	-0.52832	0.177979	-0.708008
1301.0	7.831471	-3.314077	2.884233	0.247894	-0.356412	0.401928	-0.532959	0.177979	-0.705811
1302.0	8.665514	-3.092649	4.523887	0.397439	-1.011486	0.599839	-0.539795	0.182373	-0.698975
1303.0	9.699113	-2.292361	5.758917	0.348677	-1.124388	0.697956	-0.537354	0.177979	-0.694092
1304.0	10.030486	-0.112684	6.061994	0.406012	-0.815006	0.653633	-0.546631	0.179932	-0.689453
1305.0	10.528051	2.371077	6.016338	0.184652	-0.512126	0.460894	-0.546387	0.179932	-0.684814
1306.0	11.523465	2.994028	5.108872	-0.460449	-0.561964	0.279716	-0.546875	0.188965	-0.682861
1307.0	12.037054	1.796773	3.332413	-0.64471	-0.533879	0.099494	-0.55127	0.188721	-0.680664
1308.0	11.685158	1.738076	2.184855	-0.253096	-0.125901	-0.095178	-0.553955	0.195557	-0.687744
1309.0	11.02426	2.4446	2.459482	-0.392172	0.442143	-0.208194	-0.551514	0.190918	-0.683105
1310.0	10.28107	1.952806	2.681702	-1.070694	0.963658	-0.249847	-0.542969	0.202148	-0.695068
1311.0	9.387224	0.629625	2.634311	-1.282961	1.307261	-0.291804	-0.540771	0.202148	-0.701904
1312.0	8.37387	-0.448566	2.969476	-1.024941	1.414386	-0.316512	-0.529785	0.210938	-0.709229
1313.0	7.618604	-0.807328	3.28998	-0.686186	1.238878	-0.305914	-0.525146	0.206543	-0.713867
1314.0	6.954484	-0.561626	3.361572	-0.367291	0.788171	-0.24011	-0.520752	0.211182	-0.720947
1315.0	6.523102	-0.21371	3.29019	-0.330447	0.218964	-0.147579	-0.525146	0.210938	-0.709229
1316.0	6.806726	0.131124	3.006485	-0.357681	-0.316333	-0.044261	-0.525391	0.215576	-0.707031
1317.0	7.242516	0.48631	2.804341	-0.364871	-0.486091	0.029927	-0.529785	0.213135	-0.71167
1318.0	8.216339	0.627813	2.834027	-0.49527	-0.490394	0.054417	-0.527832	0.217773	-0.709473
1319.0	9.239529	0.384715	2.579664	-0.668342	-0.416876	0.012043	-0.530273	0.221924	-0.702637
1320.0	9.825949	0.042951	2.346184	-0.587153	-0.127074	-0.035711	-0.532715	0.226563	-0.702881
1321.0	9.702295	-0.350259	2.227537	-0.535632	0.233765	-0.054662	-0.532471	0.224121	-0.705078
1322.0	9.140001	-0.638874	1.991985	-0.530932	0.454834	-0.066869	-0.525879	0.22876	-0.705322
1323.0	8.644804	-0.94635	1.906514	-0.535684	0.54832	-0.070311	-0.52832	0.22876	-0.7146
1324.0	8.369629	-1.242395	2.090371	-0.54859	0.573882	-0.055449	-0.52417	0.237549	-0.714844
1325.0	8.171337	-1.324385	2.132406	-0.476774	0.607975	-0.05536	-0.519531	0.237549	-0.719482
1326.0	7.875176	-1.094622	2.291218	-0.432007	0.671809	-0.03278	-0.519531	0.239746	-0.721924
