Acquisition frequency: 100 Hz
PacketCounter	Acc_X	Acc_Y	Acc_Z	Gyr_X	Gyr_Y	Gyr_Z	Mag_X	Mag_Y	Mag_Z
0.0	5.494848	-1.502454	8.127086	6.3e-05	0.005128	-0.00263	-0.517578	0.135742	-0.099609
1.0	5.481706	-1.446904	8.165896	-0.01373	0.009188	-0.004609	-0.521729	0.127197	-0.099609
2.0	5.463079	-1.499786	8.112239	-0.008591	0.006174	-0.004544	-0.52417	0.133545	-0.097412
3.0	5.482993	-1.518136	8.144957	-0.010128	0.007609	-0.002266	-0.517334	0.129395	-0.10376
4.0	5.474231	-1.488729	8.130066	-0.00729	0.006702	-0.005185	-0.521973	0.133789	-0.104004
5.0	5.463454	-1.503239	8.147421	-0.009284	0.007682	-0.004472	-0.51709	0.123047	-0.108154
6.0	5.440591	-1.483827	8.080815	-0.00599	0.007231	-0.005827	-0.521729	0.129395	-0.097412
7.0	5.460789	-1.501925	8.113385	-0.011174	0.000734	-0.008106	-0.521729	0.127441	-0.108154
8.0	5.444155	-1.488559	8.149683	-0.008503	0.002627	-0.004051	-0.521729	0.131592	-0.104004
9.0	5.472803	-1.490872	8.130635	-0.011104	0.001569	-0.00277	-0.521729	0.131592	-0.105957
10.0	5.479029	-1.519633	8.111271	-0.013554	0.002093	-0.003623	-0.521973	0.133789	-0.104004
11.0	5.491134	-1.508162	8.128539	-0.007809	0.001118	-0.004124	-0.517334	0.127197	-0.10376
12.0	5.478931	-1.520822	8.111114	-0.013167	0.001712	-0.007396	-0.521484	0.125	-0.099609
13.0	5.490998	-1.509047	8.128467	-0.003451	0.00316	-0.004479	-0.519531	0.129395	-0.101807
14.0	5.49089	-1.509397	8.128475	-0.013167	0.001711	-0.007397	-0.519775	0.135986	-0.101807
15.0	5.470252	-1.491911	8.096093	-0.003996	0.006251	-0.006539	-0.517334	0.127197	-0.101807
16.0	5.508744	-1.525648	8.12689	-0.00729	0.0067	-0.005187	-0.521729	0.129395	-0.10376
17.0	5.493859	-1.468115	8.131206	-0.006052	0.002101	-0.0032	-0.521729	0.127197	-0.093018
18.0	5.489506	-1.510609	8.129184	-0.011129	0.010239	-0.005895	-0.521729	0.129395	-0.101807
19.0	5.478719	-1.478997	8.080022	-0.003083	0.00716	-0.003407	-0.521973	0.135742	-0.097412
20.0	5.469643	-1.495583	8.131896	-0.012667	0.01167	-0.003617	-0.521729	0.131592	-0.099609
21.0	5.454797	-1.506095	8.080579	-0.002476	0.009197	-0.003974	-0.517578	0.131592	-0.105957
22.0	5.423331	-1.548694	8.132157	-0.007528	0.00866	-0.00355	-0.521729	0.131592	-0.105957
23.0	5.492597	-1.539633	8.111881	0.001835	0.006029	-0.01451	-0.519775	0.133789	-0.104004
24.0	5.44491	-1.521651	8.133177	-0.002238	0.007234	-0.005614	-0.519775	0.135986	-0.105957
25.0	5.468937	-1.496913	8.168181	0.002379	0.002938	-0.01245	-0.523926	0.127197	-0.099609
26.0	5.485322	-1.509995	8.132122	-0.000549	0.007385	-0.010027	-0.523926	0.131592	-0.104004
27.0	5.478524	-1.48141	8.151833	0.002747	0.006937	-0.011379	-0.519531	0.129395	-0.101807
28.0	5.484435	-1.508743	8.132953	-0.002544	0.008361	-0.009316	-0.526123	0.131592	-0.108154
29.0	5.494267	-1.494167	8.116275	0.000146	0.005876	-0.0101	-0.523926	0.131592	-0.104004
30.0	5.475368	-1.477921	8.118545	-0.001849	0.006853	-0.009389	-0.523926	0.131592	-0.101807
31.0	5.511995	-1.509062	8.115048	0.001057	0.006785	-0.006968	-0.515381	0.131592	-0.099609
32.0	5.492927	-1.492997	8.117397	-0.004539	0.009336	-0.008606	-0.52417	0.133789	-0.104004
33.0	5.492233	-1.492649	8.11793	0.003873	0.010263	-0.00504	-0.517334	0.127441	-0.110352
34.0	5.493432	-1.448367	8.086348	-0.007229	0.011819	-0.007823	-0.517334	0.125244	-0.101563
35.0	5.480369	-1.506655	8.13608	-0.003628	0.010245	-0.005473	-0.519531	0.127197	-0.099609
36.0	5.48987	-1.492432	8.119569	-0.002328	0.010775	-0.006113	-0.528564	0.133789	-0.104004
37.0	5.466744	-1.518757	8.11972	-0.007833	0.00978	-0.007258	-0.523926	0.131592	-0.104004
38.0	5.488473	-1.492251	8.120546	0.002964	0.009353	-0.008174	-0.519531	0.127441	-0.110352
39.0	5.491486	-1.449971	8.123416	-0.009072	0.014374	-0.009249	-0.52417	0.133789	-0.099609
40.0	5.464284	-1.518213	8.121477	-0.000876	0.012886	-0.008887	-0.523926	0.127197	-0.105957
41.0	5.467304	-1.475839	8.124356	-0.004385	0.010915	-0.010745	-0.521729	0.131592	-0.108154
42.0	5.478611	-1.463639	8.142293	-0.00272	0.011152	-0.002342	-0.519775	0.131592	-0.108154
43.0	5.474014	-1.505927	8.140492	-0.009133	0.009246	-0.006624	-0.521729	0.129395	-0.099609
44.0	5.505932	-1.465669	8.124284	-0.004777	0.011293	-0.006973	-0.519531	0.127441	-0.105957
45.0	5.472486	-1.506364	8.141438	-0.008225	0.010154	-0.00349	-0.521729	0.127197	-0.10376
46.0	5.510782	-1.494132	8.105959	-0.005624	0.011216	-0.004767	-0.523926	0.127197	-0.099609
47.0	5.482839	-1.494824	8.159897	-0.005866	0.013176	-0.003129	-0.519531	0.129395	-0.101807
48.0	5.485867	-1.453054	8.162667	-0.003931	0.007075	-0.00121	-0.521973	0.135986	-0.105957
49.0	5.48764	-1.523669	8.141525	-0.016511	0.01518	-0.004356	-0.523926	0.129395	-0.101807
50.0	5.495066	-1.507914	8.090716	-0.000119	0.012212	-0.003619	-0.523926	0.131592	-0.101807
51.0	5.469025	-1.464582	8.11257	-0.011611	0.014138	-0.002642	-0.523926	0.129395	-0.108154
52.0	5.476098	-1.494828	8.128423	0.000245	0.016208	-0.002546	-0.521729	0.129395	-0.10376
53.0	5.47478	-1.495208	8.129241	-0.013002	0.017148	-0.002502	-0.521973	0.133789	-0.104004
54.0	5.444586	-1.494182	8.148951	-0.003052	0.01665	-0.0012	-0.515381	0.133789	-0.110352
55.0	5.482523	-1.482017	8.113776	-0.007561	0.013019	0.001278	-0.519775	0.133789	-0.101807
56.0	5.470987	-1.496486	8.131559	-0.00045	0.017712	-0.002475	-0.523926	0.129395	-0.105957
57.0	5.476036	-1.524818	8.113127	-0.012096	0.018053	0.000629	-0.517334	0.129395	-0.10376
58.0	5.466397	-1.495555	8.098834	-0.004352	0.016116	-0.000565	-0.521729	0.131592	-0.104004
59.0	5.454734	-1.510234	8.11665	-0.008798	0.017609	-0.000718	-0.519775	0.131592	-0.10376
60.0	5.471899	-1.526343	8.115631	-0.001749	0.017178	-0.001839	-0.52417	0.133789	-0.105957
61.0	5.460192	-1.540719	8.133523	-0.006646	0.018217	-0.003562	-0.523926	0.127197	-0.105957
62.0	5.461014	-1.496546	8.102282	0.001341	0.014322	-0.006391	-0.526123	0.131592	-0.108154
63.0	5.486681	-1.542021	8.116311	-0.005552	0.016333	-0.007408	-0.519531	0.127197	-0.099609
64.0	5.478933	-1.514004	8.136489	0.001097	0.01628	-0.004753	-0.521729	0.127441	-0.108154
65.0	5.440745	-1.482382	8.140977	-0.002717	0.011143	-0.002349	-0.517334	0.127197	-0.099609
66.0	5.475058	-1.511518	8.103598	0.002103	0.017938	-0.009093	-0.521973	0.135986	-0.101807
67.0	5.456938	-1.497403	8.140825	-0.000204	0.015746	-0.004119	-0.519531	0.129639	-0.110352
68.0	5.449151	-1.469338	8.161015	-0.00135	0.016796	-0.005618	-0.519775	0.135742	-0.095215
69.0	5.477904	-1.538505	8.086943	0.000492	0.014241	-0.00419	-0.521729	0.129395	-0.101807
70.0	5.453259	-1.49669	8.143421	0.000403	0.017781	-0.004687	-0.521973	0.133789	-0.104004
71.0	5.489129	-1.527898	8.140607	-0.000653	0.01529	-0.00569	-0.517578	0.133789	-0.099609
72.0	5.46932	-1.511713	8.143379	0.003702	0.017338	-0.006029	-0.521729	0.131592	-0.108154
73.0	5.437427	-1.507354	8.128789	0.002958	0.018011	-0.011303	-0.521484	0.125244	-0.10376
74.0	5.464982	-1.507967	8.111057	0.009204	0.018336	-0.00487	-0.517334	0.129639	-0.108154
75.0	5.440122	-1.465684	8.167692	0.001255	0.017854	-0.006897	-0.526367	0.135986	-0.104004
76.0	5.433389	-1.505263	8.131876	0.001099	0.016272	-0.004762	-0.521729	0.129395	-0.10376
77.0	5.415291	-1.491264	8.168981	-0.001102	0.014831	-0.007265	-0.519531	0.125244	-0.105957
78.0	5.461817	-1.508319	8.149043	-0.003459	0.011809	-0.007632	-0.515137	0.127197	-0.10376
79.0	5.44239	-1.492472	8.151462	-0.001864	0.011213	-0.004563	-0.521729	0.129395	-0.10376
80.0	5.470238	-1.493937	8.133411	-0.003795	0.017306	-0.006494	-0.517334	0.129395	-0.10376
81.0	5.481133	-1.48183	8.151612	-0.002717	0.011135	-0.00236	-0.513184	0.131592	-0.099609
82.0	5.457893	-1.508088	8.151714	-0.001707	0.012793	-0.0067	-0.519531	0.129395	-0.101807
83.0	5.467272	-1.493689	8.135451	-0.001258	0.013247	-0.005132	-0.523926	0.129395	-0.105957
84.0	5.437349	-1.492053	8.154903	-0.00256	0.012715	-0.004497	-0.521729	0.131592	-0.108154
85.0	5.466923	-1.495541	8.17124	-0.001257	0.013247	-0.005133	-0.517334	0.129395	-0.101807
86.0	5.433618	-1.489618	8.121954	0.0011	0.016268	-0.004766	-0.517334	0.127197	-0.10376
87.0	5.440815	-1.519204	8.137839	-0.002602	0.011882	-0.009842	-0.517578	0.131592	-0.10376
88.0	5.443602	-1.476611	8.140921	0.005097	0.014324	-0.006172	-0.521729	0.129395	-0.105957
89.0	5.413749	-1.474602	8.160364	-0.004352	0.010894	-0.010778	-0.519775	0.133789	-0.104004
90.0	5.441908	-1.475644	8.142229	0.004043	0.011834	-0.007175	-0.517334	0.129395	-0.105957
91.0	5.410571	-1.471772	8.127125	-0.004916	0.00969	-0.00487	-0.519531	0.129395	-0.105957
92.0	5.411565	-1.47375	8.161966	-0.001366	0.007293	-0.007844	-0.521729	0.129395	-0.105957
93.0	5.470646	-1.478881	8.159188	-0.009022	0.005681	-0.006174	-0.521729	0.129395	-0.105957
94.0	5.458262	-1.491318	8.141933	-0.004378	0.006606	-0.002802	-0.519775	0.131592	-0.10376
95.0	5.428928	-1.490067	8.160874	-0.009917	0.004771	-0.009314	-0.521729	0.131592	-0.104004
96.0	5.447384	-1.505822	8.159159	-0.001881	0.00172	-0.006778	-0.519287	0.125	-0.099609
97.0	5.428681	-1.489909	8.161067	-0.004169	0.003816	-0.009782	-0.519531	0.129395	-0.099609
98.0	5.416681	-1.50187	8.143641	-0.005222	0.001326	-0.010786	-0.523926	0.129639	-0.110352
99.0	5.440635	-1.477508	8.178604	-0.006524	0.000793	-0.010152	-0.517334	0.127441	-0.105957
100.0	5.44948	-1.461264	8.12719	-0.008971	0.001309	-0.011021	-0.526123	0.129395	-0.105957
101.0	5.427286	-1.487669	8.126543	-0.00538	-0.000255	-0.00865	-0.517334	0.127197	-0.10376
102.0	5.420796	-1.459923	8.145713	-0.009576	-0.000728	-0.010455	-0.517578	0.133789	-0.101807
103.0	5.468606	-1.477559	8.124928	-0.011444	-0.002465	-0.003911	-0.521729	0.127197	-0.099609
104.0	5.417671	-1.503101	8.142755	-0.01393	-0.002781	-0.010124	-0.517334	0.129639	-0.108154
105.0	5.391269	-1.458196	8.129014	-0.014245	-0.005944	-0.005852	-0.519531	0.125244	-0.105957
106.0	5.461345	-1.496081	8.17487	-0.015744	-0.008889	-0.008428	-0.523926	0.131592	-0.108154
107.0	5.460637	-1.494792	8.139703	-0.014599	-0.009938	-0.006926	-0.517334	0.127197	-0.099609
108.0	5.453265	-1.465912	8.123814	-0.019203	-0.010037	-0.004958	-0.523926	0.129395	-0.108154
109.0	5.487829	-1.540504	8.116851	-0.016506	-0.012509	-0.00573	-0.519531	0.131592	-0.099609
110.0	5.458567	-1.472334	8.190864	-0.018097	-0.011916	-0.008803	-0.523926	0.131592	-0.099609
111.0	5.506795	-1.555877	8.078919	-0.01339	-0.005868	-0.00806	-0.519775	0.133789	-0.104004
112.0	5.47709	-1.487335	8.153326	-0.012692	-0.007371	-0.00813	-0.521729	0.129395	-0.105957
113.0	5.503045	-1.531123	8.131627	-0.007485	-0.005235	-0.010665	-0.517334	0.129639	-0.108154
114.0	5.50727	-1.489348	8.133629	-0.010495	-0.00593	-0.005623	-0.515137	0.129395	-0.105957
115.0	5.465199	-1.498197	8.100111	-0.005986	-0.002291	-0.008089	-0.523926	0.127441	-0.108154
116.0	5.497614	-1.504072	8.150003	-0.007538	-0.000869	-0.005815	-0.526123	0.131592	-0.105957
117.0	5.504409	-1.532093	8.13052	-0.007381	0.000713	-0.00795	-0.521729	0.127197	-0.10376
118.0	5.485816	-1.516607	8.132318	-0.006934	0.001167	-0.006379	-0.521729	0.127197	-0.10376
119.0	5.489245	-1.474638	8.1349	-0.003978	0.006229	-0.00657	-0.523926	0.129395	-0.108154
120.0	5.478684	-1.488857	8.151977	-0.00433	0.002236	-0.007647	-0.521973	0.133789	-0.104004
121.0	5.454534	-1.513284	8.117097	-0.009726	0.007174	-0.006102	-0.517578	0.131592	-0.10376
122.0	5.457775	-1.471571	8.119761	-0.005435	0.004111	-0.003802	-0.521729	0.129395	-0.108154
123.0	5.49835	-1.461087	8.118687	-0.006581	0.005159	-0.005304	-0.521729	0.127441	-0.105957
124.0	5.487704	-1.475678	8.135751	-0.007882	0.004623	-0.004671	-0.521729	0.131592	-0.101807
125.0	5.471787	-1.530119	8.115951	-0.004832	0.006147	-0.004366	-0.523926	0.131592	-0.099609
126.0	5.486883	-1.476177	8.136215	-0.007279	0.00666	-0.005235	-0.521729	0.131592	-0.099609
127.0	5.482649	-1.51848	8.134104	-0.00448	0.010139	-0.003289	-0.519531	0.127441	-0.108154
128.0	5.473528	-1.488557	8.119605	-0.003468	0.011803	-0.007629	-0.519775	0.131592	-0.105957
129.0	5.480995	-1.518368	8.135239	-0.003468	0.011803	-0.00763	-0.523926	0.127197	-0.101807
130.0	5.451248	-1.516848	8.154534	-0.001178	0.009707	-0.004626	-0.52832	0.131592	-0.101807
131.0	5.460714	-1.502395	8.138252	-0.001273	0.013245	-0.00512	-0.52417	0.133789	-0.105957
132.0	5.459819	-1.502088	8.138909	0.001426	0.010777	-0.005892	-0.517578	0.131592	-0.10376
133.0	5.459077	-1.501696	8.139479	-0.000322	0.009788	-0.006831	-0.521729	0.127441	-0.108154
134.0	5.487259	-1.502459	8.121393	0.005331	0.012383	-0.007791	-0.523926	0.127441	-0.108154
135.0	5.486394	-1.50198	8.122066	-0.001876	0.011207	-0.004559	-0.515137	0.127441	-0.105957
136.0	5.456422	-1.500014	8.141569	0.004502	0.016594	-0.013566	-0.515137	0.125244	-0.10376
137.0	5.472553	-1.512646	8.106108	0.003872	0.010264	-0.005024	-0.521729	0.131592	-0.099609
138.0	5.517589	-1.461187	8.142657	0.006538	0.016454	-0.008921	-0.519531	0.129395	-0.10376
139.0	5.463448	-1.483233	8.127364	0.00473	0.019828	-0.005008	-0.521729	0.131592	-0.108154
140.0	5.528172	-1.515087	8.106222	0.007334	0.020898	-0.006274	-0.515137	0.129639	-0.108154
141.0	5.497438	-1.512778	8.12628	0.007239	0.024433	-0.006772	-0.519775	0.131592	-0.10376
142.0	5.498933	-1.4697	8.130349	0.008892	0.028958	-0.006331	-0.521973	0.135986	-0.110352
143.0	5.481146	-1.522733	8.112125	0.012386	0.030935	-0.004454	-0.519531	0.127197	-0.10376
144.0	5.490469	-1.5092	8.131655	0.011117	0.034687	-0.011807	-0.521729	0.131592	-0.105957
145.0	5.417853	-1.516906	8.153572	0.017058	0.036152	-0.009058	-0.519531	0.127441	-0.105957
146.0	5.377994	-1.483599	8.159185	0.019411	0.029693	-0.010901	-0.517334	0.129639	-0.110352
147.0	5.406426	-1.484957	8.176728	0.016175	0.025755	-0.014422	-0.519531	0.125244	-0.105957
148.0	5.406684	-1.438718	8.146316	0.017158	0.023128	-0.010781	-0.521484	0.125244	-0.10376
149.0	5.416995	-1.425	8.165159	0.006709	0.018017	-0.011076	-0.515381	0.131592	-0.108154
150.0	5.422734	-1.451786	8.146755	0.005341	0.012367	-0.007806	-0.523926	0.129395	-0.108154
151.0	5.459051	-1.482491	8.144041	-0.000665	0.015262	-0.005714	-0.519531	0.127441	-0.105957
152.0	5.442968	-1.424217	8.148956	0.008768	0.009233	-0.003286	-0.521729	0.131592	-0.108154
153.0	5.467613	-1.467107	8.12859	-0.002411	0.014271	-0.006656	-0.515137	0.127441	-0.108154
154.0	5.444373	-1.493305	8.128639	3.5e-05	0.013761	-0.005781	-0.521729	0.131592	-0.108154
155.0	5.455166	-1.480749	8.14696	0.00248	0.013251	-0.004906	-0.521484	0.125244	-0.10376
156.0	5.439008	-1.422634	8.151876	-0.000407	0.013304	-0.007355	-0.521729	0.127441	-0.108154
157.0	5.449737	-1.521931	8.145967	0.001595	0.012339	-0.008052	-0.519775	0.131592	-0.105957
158.0	5.425455	-1.433786	8.135649	-0.000592	0.010893	-0.010566	-0.521484	0.123047	-0.101563
159.0	5.441245	-1.493066	8.166545	0.003179	0.01175	-0.004973	-0.519531	0.127441	-0.108154
160.0	5.454224	-1.436239	8.152814	-0.000849	0.012847	-0.00893	-0.519775	0.131592	-0.105957
161.0	5.432853	-1.46455	8.186978	-0.003263	0.004709	-0.006663	-0.519531	0.129395	-0.10376
162.0	5.439165	-1.492316	8.168068	-0.004317	0.011697	-0.005464	-0.515137	0.127441	-0.108154
163.0	5.430174	-1.462378	8.153401	-0.002217	0.007199	-0.005658	-0.519531	0.125244	-0.112549
164.0	5.468368	-1.495541	8.184814	-0.003197	0.00982	-0.009306	-0.526123	0.129395	-0.108154
165.0	5.457968	-1.463151	8.135781	0.000993	0.010303	-0.007488	-0.517334	0.129395	-0.105957
166.0	5.457148	-1.462717	8.13641	0.000734	0.012257	-0.005851	-0.517334	0.125	-0.099609
167.0	5.479827	-1.438136	8.172208	-0.001872	0.011187	-0.004589	-0.517334	0.129395	-0.101807
168.0	5.438119	-1.44887	8.173775	-0.003454	0.011773	-0.007671	-0.519531	0.127197	-0.101807
169.0	5.437159	-1.44872	8.174441	-0.00241	0.014263	-0.006666	-0.517578	0.131592	-0.108154
170.0	5.434918	-1.446578	8.140584	-0.003779	0.008616	-0.003393	-0.519531	0.127441	-0.110352
171.0	5.476481	-1.437895	8.174493	-0.002475	0.009151	-0.004024	-0.517578	0.131592	-0.110352
172.0	5.423048	-1.461116	8.158369	-0.007623	0.012121	-0.004144	-0.521729	0.127441	-0.108154
173.0	5.440876	-1.476942	8.157201	-0.003175	0.010649	-0.00396	-0.517334	0.127197	-0.10376
174.0	5.440022	-1.477086	8.157745	-0.005179	0.011612	-0.003266	-0.519531	0.127197	-0.10376
175.0	5.449682	-1.462686	8.141418	-0.001189	0.008854	-0.010005	-0.521484	0.123047	-0.101563
176.0	5.442015	-1.434735	8.161233	-0.002735	0.011104	-0.002388	-0.517334	0.129639	-0.108154
177.0	5.437677	-1.476977	8.159327	-0.005179	0.011611	-0.003268	-0.519531	0.127197	-0.10376
178.0	5.470666	-1.438655	8.178252	-0.007623	0.012118	-0.004147	-0.523926	0.131592	-0.105957
179.0	5.427611	-1.447684	8.145261	-0.004478	0.010112	-0.003332	-0.519287	0.125	-0.101563
180.0	5.458492	-1.453591	8.196153	-0.006743	0.013028	-0.001002	-0.523926	0.127197	-0.10376
181.0	5.444402	-1.464017	8.14471	-0.004739	0.012065	-0.001696	-0.523926	0.127197	-0.105957
182.0	5.462	-1.48016	8.143659	-0.007867	0.014901	0.002837	-0.521973	0.133789	-0.108154
183.0	5.441986	-1.465107	8.146129	-0.007114	0.017681	-0.00522	-0.519287	0.123047	-0.10376
184.0	5.442008	-1.467556	8.181377	-0.003256	0.015009	0.000884	-0.523926	0.129395	-0.10376
185.0	5.422107	-1.452299	8.183798	-0.006577	0.014604	-0.003145	-0.521729	0.129395	-0.105957
186.0	5.449943	-1.453962	8.166086	-0.005095	0.017548	-0.000565	-0.523926	0.127197	-0.10376
187.0	5.419502	-1.453225	8.185359	-0.009885	0.015029	-0.001825	-0.519775	0.135986	-0.105957
188.0	5.435856	-1.467146	8.149854	-0.005176	0.011607	-0.003273	-0.514893	0.123047	-0.099609
189.0	5.424568	-1.481846	8.167167	-0.007784	0.010535	-0.002015	-0.519775	0.131592	-0.105957
190.0	5.434113	-1.467864	8.150887	-0.002294	0.011555	-0.000818	-0.512939	0.127441	-0.110352
191.0	5.422854	-1.482561	8.168175	-0.009526	0.009543	-0.002961	-0.519531	0.127197	-0.10376
192.0	5.451346	-1.484271	8.150047	-0.00394	0.007032	-0.00126	-0.515137	0.125244	-0.105957
193.0	5.394742	-1.437909	8.155322	-0.009868	0.005557	-0.004033	-0.519531	0.129395	-0.108154
194.0	5.431765	-1.469536	8.152151	-0.006121	0.005586	-0.003779	-0.514893	0.123047	-0.110352
195.0	5.423087	-1.440059	8.137219	-0.009868	0.005556	-0.004033	-0.517578	0.131592	-0.099609
196.0	5.442751	-1.458542	8.170065	-0.011337	0.003441	-0.001265	-0.519531	0.127197	-0.101807
197.0	5.408622	-1.497961	8.151616	-0.010033	0.003977	-0.001894	-0.517334	0.127441	-0.105957
198.0	5.4422	-1.459875	8.170194	-0.006724	0.003552	-0.003214	-0.52417	0.133789	-0.105957
199.0	5.430419	-1.472364	8.152537	-0.008643	0.000154	-0.007371	-0.519531	0.129639	-0.110352
200.0	5.41984	-1.487143	8.169342	-0.009868	0.005555	-0.004034	-0.514893	0.123047	-0.10376
201.0	5.422989	-1.445599	8.171973	-0.008467	0.00256	-0.004161	-0.523926	0.129395	-0.10376
202.0	5.470526	-1.462729	8.151986	-0.007532	0.007752	-0.009005	-0.521484	0.125244	-0.108154
203.0	5.422214	-1.446253	8.172372	-0.009867	0.005554	-0.004035	-0.519531	0.127441	-0.108154
204.0	5.427673	-1.472242	8.118712	-0.007162	0.003096	-0.00479	-0.519531	0.125244	-0.105957
205.0	5.459164	-1.478276	8.169174	-0.009605	0.003601	-0.005673	-0.519531	0.127441	-0.108154
206.0	5.447223	-1.490754	8.15162	-0.006996	0.004675	-0.00693	-0.521729	0.129395	-0.10376
207.0	5.449004	-1.446631	8.119966	-0.006393	0.006709	-0.007495	-0.517578	0.131836	-0.112549
208.0	5.438317	-1.461407	8.136836	-0.011074	0.001484	-0.002907	-0.515137	0.129395	-0.101807
209.0	5.468586	-1.465305	8.152826	-0.005858	0.003632	-0.005419	-0.517334	0.125244	-0.10376
210.0	5.457807	-1.480142	8.169743	-0.011872	0.006511	-0.003347	-0.515137	0.129639	-0.114746
211.0	5.457396	-1.480657	8.169924	-0.006558	0.005129	-0.005356	-0.519775	0.131592	-0.110352
212.0	5.425265	-1.475452	8.119739	-0.011706	0.008089	-0.005487	-0.523682	0.125244	-0.10376
213.0	5.425968	-1.478012	8.154479	-0.00465	0.0077	-0.006548	-0.515137	0.125244	-0.10376
214.0	5.435902	-1.463815	8.138017	-0.007259	0.006624	-0.005294	-0.517578	0.131592	-0.099609
215.0	5.424962	-1.478436	8.155071	-0.005517	0.007616	-0.004346	-0.521973	0.133789	-0.099609
216.0	5.395325	-1.477631	8.17376	-0.009867	0.005549	-0.00404	-0.519531	0.125244	-0.110352
217.0	5.405467	-1.463576	8.157139	-0.003414	0.003127	-0.004536	-0.521729	0.129639	-0.110352
218.0	5.425199	-1.481733	8.189981	-0.011608	0.004556	-0.004989	-0.517334	0.125244	-0.10376
219.0	5.413377	-1.49446	8.172292	-0.010642	0.001109	-0.006691	-0.519531	0.129395	-0.097412
220.0	5.435416	-1.468442	8.173175	-0.008464	0.002555	-0.004167	-0.521484	0.125	-0.101563
221.0	5.452788	-1.482203	8.137051	-0.008901	0.002101	-0.005743	-0.517334	0.127197	-0.101807
222.0	5.423555	-1.481498	8.155451	-0.010205	0.001563	-0.005116	-0.517578	0.131592	-0.10376
223.0	5.452708	-1.48297	8.136965	-0.006029	0.001227	-0.008636	-0.519775	0.133789	-0.099609
224.0	5.460997	-1.512885	8.152037	-0.004288	0.002218	-0.007687	-0.514893	0.123047	-0.101563
225.0	5.455983	-1.440804	8.139672	-0.004288	0.002218	-0.007688	-0.519531	0.127197	-0.10376
226.0	5.453634	-1.485385	8.171578	-0.009867	0.005545	-0.004042	-0.517578	0.131592	-0.099609
227.0	5.474104	-1.456813	8.138312	-0.001507	0.005699	-0.005727	-0.519287	0.125244	-0.10376
228.0	5.463206	-1.471189	8.155372	-0.007093	0.008202	-0.007435	-0.515137	0.127197	-0.101563
229.0	5.462657	-1.471141	8.155749	-0.000905	0.007733	-0.00629	-0.515381	0.133789	-0.105957
230.0	5.450261	-1.483186	8.138565	-0.003876	0.012135	-0.003898	-0.519287	0.125	-0.101563
231.0	5.459929	-1.468738	8.122349	-0.000468	0.008186	-0.004715	-0.523926	0.127197	-0.10376
232.0	5.448887	-1.482964	8.139526	-0.004484	0.009277	-0.00869	-0.519287	0.125244	-0.10376
233.0	5.407396	-1.493728	8.140732	0.001272	0.009179	-0.003766	-0.519531	0.125244	-0.105957
234.0	5.428727	-1.466909	8.142248	-0.001003	0.011262	-0.006792	-0.519531	0.125244	-0.105957
235.0	5.436132	-1.496618	8.157946	-0.001268	0.013211	-0.005153	-0.515137	0.127441	-0.105957
236.0	5.435176	-1.496341	8.158635	0.000738	0.012253	-0.005843	-0.519775	0.131592	-0.10376
237.0	5.456387	-1.469335	8.16027	0.002744	0.011296	-0.006532	-0.521729	0.131592	-0.105957
238.0	5.417966	-1.437723	8.164328	0.002478	0.013245	-0.004894	-0.512939	0.129639	-0.108154
239.0	5.454508	-1.468387	8.161697	0.000738	0.012252	-0.005844	-0.521484	0.125244	-0.10376
240.0	5.45362	-1.467837	8.162389	0.004049	0.011834	-0.007159	-0.519775	0.131592	-0.105957
241.0	5.444392	-1.437521	8.148009	-0.002572	0.012669	-0.004531	-0.515137	0.129395	-0.105957
242.0	5.469092	-1.480671	8.127775	-0.000497	0.017645	-0.002506	-0.519531	0.127441	-0.110352
243.0	5.461753	-1.455062	8.182545	0.000373	0.017729	-0.004709	-0.519531	0.129395	-0.108154
244.0	5.467404	-1.482602	8.164191	-0.000763	0.019592	-0.00087	-0.519531	0.129639	-0.110352
245.0	5.477446	-1.470384	8.182974	0.000107	0.019676	-0.003073	-0.523926	0.127197	-0.105957
246.0	5.45573	-1.452309	8.151445	0.003487	0.025189	-0.001674	-0.519531	0.129639	-0.110352
247.0	5.423491	-1.448615	8.136676	0.002281	0.021121	-0.000548	-0.517334	0.125244	-0.110352
248.0	5.441585	-1.466084	8.170732	0.004189	0.023692	-0.001738	-0.521729	0.131592	-0.105957
249.0	5.458456	-1.481401	8.170394	-0.000861	0.023116	-0.001379	-0.519531	0.125244	-0.105957
250.0	5.411853	-1.422599	8.194302	0.000879	0.024107	-0.000429	-0.521484	0.125244	-0.105957
251.0	5.415889	-1.44788	8.141869	0.002618	0.025099	0.000521	-0.523926	0.129395	-0.101807
252.0	5.377291	-1.419176	8.180978	-0.003402	0.027965	0.002576	-0.521729	0.129395	-0.101807
253.0	5.379398	-1.489198	8.160088	-0.0024	0.015064	-0.001329	-0.521484	0.125244	-0.105957
254.0	5.403599	-1.420612	8.164543	-0.000393	0.014108	-0.002015	-0.517334	0.125244	-0.112549
255.0	5.380301	-1.447589	8.16424	-0.011465	0.016399	0.000396	-0.514893	0.123047	-0.108154
256.0	5.402403	-1.42379	8.200329	-0.0036	0.010174	-0.005556	-0.515137	0.127441	-0.105957
257.0	5.415965	-1.479548	8.162089	-0.012665	0.011509	-0.003831	-0.517578	0.131592	-0.105957
258.0	5.426785	-1.467957	8.180233	-0.005076	0.008056	-0.002792	-0.517578	0.131592	-0.108154
259.0	5.429486	-1.42651	8.183187	-0.013872	0.007443	-0.002705	-0.519531	0.129395	-0.105957
260.0	5.444429	-1.484858	8.179121	-0.008119	0.006525	-0.003121	-0.519531	0.129639	-0.110352
261.0	5.427212	-1.425559	8.149319	-0.010225	0.011006	-0.002941	-0.517334	0.129395	-0.105957
262.0	5.443115	-1.486003	8.179787	-0.008551	0.006071	-0.004699	-0.521484	0.125244	-0.105957
263.0	5.433089	-1.45429	8.13065	-0.008487	0.011998	-0.001988	-0.515137	0.129395	-0.105957
264.0	5.403999	-1.456012	8.183863	-0.007785	0.010504	-0.002049	-0.519775	0.131592	-0.105957
265.0	5.440756	-1.487664	8.181055	-0.007956	0.008924	9.1e-05	-0.519775	0.135986	-0.105957
266.0	5.409586	-1.484714	8.16538	-0.006307	0.012621	-0.004814	-0.521729	0.129395	-0.101807
267.0	5.438936	-1.488469	8.182119	-0.007181	0.012535	-0.002614	-0.510986	0.133789	-0.10376
268.0	5.426505	-1.500907	8.16488	-0.004471	0.010087	-0.003357	-0.523926	0.129639	-0.110352
269.0	5.3892	-1.472338	8.203023	-0.005605	0.011127	-0.004875	-0.517334	0.129639	-0.110352
270.0	5.417713	-1.473533	8.185243	-0.002463	0.009132	-0.004041	-0.519775	0.135986	-0.105957
271.0	5.4274	-1.459394	8.169073	-0.008486	0.011994	-0.001993	-0.515137	0.129639	-0.110352
272.0	5.423178	-1.501624	8.166959	-0.003252	0.01333	-0.00984	-0.517334	0.127441	-0.108154
273.0	5.437066	-1.447418	8.188065	-0.005173	0.011578	-0.003299	-0.515137	0.129639	-0.108154
274.0	5.394192	-1.456152	8.154787	0.000913	0.014642	-0.002636	-0.521729	0.129395	-0.105957
275.0	5.41614	-1.432123	8.191046	-0.009188	0.013485	-0.001936	-0.517334	0.125244	-0.108154
276.0	5.44012	-1.473525	8.136229	-0.00718	0.012531	-0.002619	-0.519287	0.123047	-0.108154
277.0	5.402703	-1.445271	8.174345	-0.006651	0.009458	-0.000538	-0.517578	0.133789	-0.105957
278.0	5.420828	-1.461467	8.173064	-0.01143	0.006933	-0.001827	-0.517334	0.129639	-0.108154
279.0	5.367863	-1.485263	8.15602	-0.007081	0.009005	-0.002116	-0.517334	0.125244	-0.108154
280.0	5.377959	-1.471291	8.139571	-0.008448	0.002541	-0.004206	-0.515137	0.125244	-0.112549
281.0	5.427846	-1.492934	8.188667	-0.008275	0.00412	-0.006347	-0.512939	0.125244	-0.110352
282.0	5.4266	-1.490795	8.154362	-0.004531	0.004159	-0.006073	-0.521729	0.129395	-0.105957
283.0	5.407613	-1.475219	8.156103	-0.002523	0.003206	-0.006755	-0.52417	0.133789	-0.108154
284.0	5.437737	-1.478535	8.172437	-0.004961	0.003706	-0.007651	-0.510986	0.129639	-0.108154
285.0	5.418641	-1.463092	8.174224	-0.004802	0.006104	-0.004436	-0.521729	0.127441	-0.112549
286.0	5.438126	-1.481077	8.207235	-0.006267	0.003166	-0.00703	-0.515137	0.127441	-0.108154
287.0	5.417964	-1.463596	8.174582	-0.007256	0.007422	2.3e-05	-0.519531	0.127441	-0.110352
288.0	5.424707	-1.491668	8.155462	-0.007241	0.006604	-0.005333	-0.517578	0.131836	-0.112549
289.0	5.404511	-1.473856	8.122894	-0.003051	0.006279	-0.008836	-0.521484	0.125244	-0.105957
290.0	5.41654	-1.464219	8.175414	-0.009249	0.007555	-0.004653	-0.517334	0.129639	-0.108154
291.0	5.427569	-1.452487	8.193467	-0.00767	0.00615	-0.006913	-0.521973	0.133789	-0.110352
292.0	5.404193	-1.476955	8.158055	-0.006538	0.00511	-0.005394	-0.515137	0.127441	-0.110352
293.0	5.404884	-1.47959	8.192628	-0.008274	0.004117	-0.006351	-0.515137	0.127441	-0.108154
294.0	5.411948	-1.507461	8.17333	-0.005835	0.003618	-0.005454	-0.519531	0.127441	-0.105957
295.0	5.42638	-1.453569	8.194062	-0.008976	0.005608	-0.006292	-0.519775	0.131836	-0.112549
296.0	5.422942	-1.495802	8.191393	-0.004256	0.002213	-0.007714	-0.515381	0.131592	-0.105957
297.0	5.418767	-1.426245	8.213626	-0.006009	0.002037	-0.003314	-0.510742	0.127441	-0.105957
298.0	5.372638	-1.474973	8.142418	-0.008703	0.003663	-0.007931	-0.519531	0.129395	-0.105957
299.0	5.425701	-1.454458	8.194354	-0.008273	0.004115	-0.006353	-0.519531	0.129395	-0.105957
300.0	5.432861	-1.482502	8.17496	-0.010182	0.001541	-0.005171	-0.519287	0.123047	-0.105957
301.0	5.372262	-1.476249	8.142434	-0.010611	0.001088	-0.00675	-0.521973	0.135986	-0.101807
302.0	5.373168	-1.479082	8.176826	-0.010008	0.003121	-0.007311	-0.521729	0.131592	-0.108154
303.0	5.394549	-1.450601	8.14329	-0.011873	-0.0089	-0.008345	-0.521484	0.125244	-0.105957
304.0	5.392196	-1.493169	8.139825	-0.013435	-0.008314	-0.011443	-0.519531	0.127197	-0.10376
305.0	5.419315	-1.427097	8.177624	-0.006979	-0.010713	-0.011908	-0.521729	0.127441	-0.108154
306.0	5.413914	-1.511988	8.171192	-0.022847	-0.010162	-0.005459	-0.521729	0.127441	-0.105957
307.0	5.457841	-1.457384	8.138403	-0.008301	-0.010439	-0.005931	-0.523926	0.127197	-0.10376
308.0	5.467	-1.488035	8.152696	-0.017624	-0.007997	-0.007944	-0.519531	0.129639	-0.110352
309.0	5.460451	-1.46134	8.17147	-0.012318	-0.008541	-0.00457	-0.521729	0.129395	-0.108154
310.0	5.41606	-1.513086	8.134031	-0.019734	-0.003524	-0.007763	-0.521729	0.127197	-0.10376
311.0	5.421854	-1.476401	8.205226	-0.004384	-0.008814	-0.007797	-0.519531	0.129395	-0.108154
312.0	5.485179	-1.548499	8.145965	-0.017998	-0.002531	-0.006805	-0.523926	0.131592	-0.101807
313.0	5.455267	-1.436217	8.189069	-0.001445	-0.003752	-0.007959	-0.515381	0.131592	-0.110352
314.0	5.467041	-1.533665	8.147026	-0.016521	-0.000408	-0.009566	-0.526123	0.129395	-0.108154
315.0	5.429622	-1.503011	8.150107	-0.003282	-0.00122	-0.009417	-0.512939	0.127441	-0.108154
316.0	5.41091	-1.487435	8.151697	-0.007127	0.002259	-0.010192	-0.517578	0.133789	-0.104004
317.0	5.463276	-1.464034	8.169099	-0.001976	-0.000678	-0.010038	-0.521729	0.129395	-0.105957
318.0	5.402841	-1.457208	8.13661	-0.009034	-0.000319	-0.009013	-0.517334	0.127197	-0.10376
319.0	5.433472	-1.460671	8.152569	-0.005617	-0.00425	-0.009818	-0.521729	0.129395	-0.10376
320.0	5.44429	-1.44671	8.135651	-0.017138	-0.001635	-0.003649	-0.519531	0.129395	-0.108154
321.0	5.425817	-1.43216	8.136903	-0.008414	-0.006106	-0.001079	-0.517578	0.131592	-0.10376
322.0	5.424002	-1.477592	8.168058	-0.018271	-0.000597	-0.005168	-0.519775	0.131592	-0.108154
323.0	5.421225	-1.520461	8.16477	-0.007968	-0.006467	-0.004861	-0.521729	0.127441	-0.108154
324.0	5.4468	-1.452614	8.168459	-0.017738	-0.003672	-0.003092	-0.519531	0.127441	-0.110352
325.0	5.432546	-1.507869	8.147261	-0.014424	-0.004077	-0.004395	-0.517334	0.127197	-0.10376
326.0	5.457876	-1.440305	8.151078	-0.016277	-0.000735	-0.000491	-0.519531	0.129395	-0.105957
327.0	5.432968	-1.510205	8.146546	-0.016432	-0.00313	-0.003715	-0.519287	0.123047	-0.10376
328.0	5.456282	-1.487034	8.181831	-0.013119	-0.003534	-0.005018	-0.521729	0.129395	-0.10376
329.0	5.474332	-1.500867	8.145421	-0.014527	-0.000552	-0.004893	-0.519531	0.127441	-0.105957
330.0	5.46285	-1.513667	8.127435	-0.011317	0.002571	-0.006691	-0.519775	0.131592	-0.10376
331.0	5.463768	-1.51647	8.161865	-0.006699	0.002712	-0.008614	-0.519531	0.129395	-0.10376
332.0	5.436388	-1.470984	8.148771	-0.004794	0.005291	-0.009791	-0.519775	0.131592	-0.10376
333.0	5.462375	-1.513744	8.12774	-0.004519	0.003349	-0.011435	-0.521729	0.127197	-0.10376
334.0	5.454904	-1.485928	8.1474	-0.001651	0.003305	-0.008956	-0.519775	0.131592	-0.108154
335.0	5.443216	-1.497745	8.129734	-0.004794	0.00529	-0.009792	-0.521973	0.133789	-0.104004
336.0	5.487777	-1.446798	8.166984	-0.00306	0.006286	-0.008831	-0.523926	0.129395	-0.108154
337.0	5.435274	-1.47009	8.149675	-0.00601	0.002029	-0.003316	-0.519531	0.129395	-0.10376
338.0	5.465328	-1.473743	8.16598	-0.007678	0.006142	-0.00691	-0.519531	0.131592	-0.101807
339.0	5.47235	-1.501705	8.146599	-0.011591	0.004508	-0.005052	-0.521484	0.125244	-0.108154
340.0	5.453323	-1.486826	8.148294	-0.007315	0.001483	-0.002697	-0.523926	0.129395	-0.10376
341.0	5.441673	-1.499613	8.130422	-0.013771	0.003868	-0.002233	-0.517334	0.127441	-0.108154
342.0	5.453903	-1.490819	8.182728	-0.008019	0.002973	-0.002635	-0.517334	0.129395	-0.10376
343.0	5.481006	-1.487304	8.095668	-0.011762	0.002922	-0.002915	-0.519531	0.127441	-0.108154
344.0	5.463928	-1.477252	8.166283	-0.00323	0.004703	-0.006693	-0.52832	0.127441	-0.110352
345.0	5.430318	-1.516123	8.147214	-0.008448	0.002522	-0.004217	-0.517578	0.131592	-0.101807
346.0	5.443721	-1.45977	8.133699	-0.006267	0.003161	-0.007037	-0.517334	0.127441	-0.105957
347.0	5.459331	-1.517393	8.129104	-0.006267	0.003161	-0.007037	-0.515137	0.129395	-0.099609
348.0	5.462285	-1.475281	8.132195	-0.002953	0.002761	-0.008338	-0.521729	0.127441	-0.108154
349.0	5.459113	-1.517278	8.129272	-0.006696	0.002709	-0.008619	-0.517334	0.129395	-0.10376
350.0	5.444311	-1.462139	8.168419	0.00019	0.000777	-0.007501	-0.523926	0.131592	-0.104004
351.0	5.480801	-1.490084	8.130854	-0.001326	0.007283	-0.007869	-0.519531	0.129395	-0.10376
352.0	5.4834	-1.448003	8.134175	-0.007249	0.00659	-0.005331	-0.521973	0.135986	-0.104004
353.0	5.44972	-1.486753	8.115173	-0.004086	0.003799	-0.009858	-0.517334	0.127197	-0.10376
354.0	5.460798	-1.474649	8.133308	-0.00265	0.007544	-0.001887	-0.517334	0.127441	-0.105957
355.0	5.457185	-1.516761	8.130663	-0.006201	0.008269	-0.009671	-0.521729	0.127441	-0.105957
356.0	5.471154	-1.462488	8.151937	-0.000897	0.007733	-0.006288	-0.521973	0.133789	-0.104004
357.0	5.449597	-1.491443	8.185482	-0.002736	0.010262	-0.007745	-0.519531	0.129395	-0.105957
358.0	5.440491	-1.461159	8.171139	-0.000298	0.009769	-0.006845	-0.519531	0.131592	-0.099609
359.0	5.447345	-1.488512	8.151985	-0.006372	0.006682	-0.007535	-0.519531	0.125244	-0.110352
360.0	5.457328	-1.473978	8.135758	-0.004639	0.007679	-0.006572	-0.523926	0.129395	-0.105957
361.0	5.465259	-1.503955	8.150942	-0.005495	0.006777	-0.009736	-0.519531	0.125244	-0.105957
362.0	5.444852	-1.485957	8.118586	-0.003613	0.010165	-0.005546	-0.521729	0.129395	-0.108154
363.0	5.464013	-1.503774	8.151811	-0.00203	0.008771	-0.007809	-0.517578	0.133789	-0.104004
364.0	5.451975	-1.515668	8.134361	-0.002907	0.008675	-0.005609	-0.521973	0.133789	-0.104004
365.0	5.443912	-1.488135	8.154346	-0.002907	0.008675	-0.005609	-0.517334	0.125244	-0.105957
366.0	5.462339	-1.503357	8.153009	-0.00235	0.004794	-0.008899	-0.523926	0.129395	-0.108154
367.0	5.464916	-1.461106	8.156368	-0.002907	0.008674	-0.00561	-0.517334	0.129395	-0.099609
368.0	5.441588	-1.485001	8.120949	-0.000618	0.005791	-0.007935	-0.521484	0.125	-0.099609
369.0	5.494222	-1.463969	8.173345	-0.004467	0.009261	-0.008713	-0.517334	0.129395	-0.10376
370.0	5.451957	-1.472717	8.139587	-0.005943	0.00713	-0.005957	-0.523926	0.129395	-0.099609
371.0	5.448439	-1.514731	8.136905	-0.000896	0.007731	-0.006291	-0.521729	0.129395	-0.105957
372.0	5.480327	-1.47319	8.122115	-0.003055	0.006282	-0.008838	-0.521729	0.131592	-0.104004
373.0	5.469385	-1.487481	8.139014	0.000408	0.008277	-0.006909	-0.517334	0.125	-0.099609
374.0	5.438564	-1.48386	8.123183	-0.00376	0.00777	-0.008777	-0.521729	0.127197	-0.10376
375.0	5.450148	-1.474011	8.176071	0.000899	0.013837	-0.00796	-0.517334	0.129639	-0.108154
376.0	5.459672	-1.459145	8.16023	-0.005878	0.012235	-0.008593	-0.519775	0.131592	-0.110352
377.0	5.46724	-1.489013	8.175683	-0.001004	0.011254	-0.006787	-0.519775	0.131592	-0.108154
378.0	5.438146	-1.440567	8.128723	0.002911	0.012894	-0.00864	-0.517334	0.127197	-0.097412
379.0	5.444716	-1.467694	8.109844	-0.005452	0.012685	-0.007013	-0.517578	0.131592	-0.099609
380.0	5.485585	-1.45887	8.144566	-0.001602	0.009217	-0.006232	-0.517578	0.133789	-0.105957
381.0	5.422272	-1.496999	8.143855	-0.008233	0.010006	-0.00364	-0.519531	0.129395	-0.101807
382.0	5.466249	-1.446424	8.181474	-0.004637	0.007672	-0.006581	-0.523926	0.131592	-0.097412
383.0	5.472137	-1.471416	8.127956	-0.006756	0.012136	-0.006397	-0.523926	0.129395	-0.099609
384.0	5.453439	-1.458711	8.164475	-0.004636	0.007671	-0.006582	-0.519531	0.131592	-0.099609
385.0	5.44989	-1.500854	8.161797	-0.003785	0.008573	-0.003415	-0.521729	0.131592	-0.101807
386.0	5.47012	-1.471819	8.129241	-0.006928	0.010551	-0.004259	-0.519531	0.127197	-0.101807
387.0	5.451411	-1.459143	8.165751	-0.002906	0.008669	-0.005616	-0.519531	0.131592	-0.099609
388.0	5.449796	-1.4568	8.131775	-0.007808	0.010454	-0.00206	-0.519775	0.135986	-0.105957
389.0	5.487648	-1.490477	8.163412	-0.005623	0.011097	-0.004877	-0.515137	0.129395	-0.105957
390.0	5.456651	-1.487468	8.147559	-0.007526	0.008514	-0.003706	-0.521729	0.129395	-0.101807
391.0	5.448279	-1.46051	8.167598	-0.005228	0.012353	0.002072	-0.517334	0.127197	-0.099609
392.0	5.472783	-1.501327	8.112577	-0.009221	0.013428	-0.00194	-0.521729	0.129395	-0.101807
393.0	5.4425	-1.500912	8.131242	-0.00361	0.010156	-0.005556	-0.523926	0.131592	-0.104004
394.0	5.434231	-1.473544	8.151282	-0.004915	0.009608	-0.00494	-0.517334	0.127441	-0.105957
395.0	5.462951	-1.474302	8.133611	-0.002904	0.008668	-0.005618	-0.519287	0.125	-0.099609
396.0	5.481142	-1.489799	8.132435	-0.006927	0.010548	-0.004264	-0.517578	0.131592	-0.105957
397.0	5.432034	-1.473827	8.152695	-0.001881	0.011153	-0.00459	-0.517334	0.129395	-0.101807
398.0	5.490776	-1.477933	8.151496	-0.006328	0.012582	-0.00482	-0.523926	0.127441	-0.108154
399.0	5.415965	-1.528114	8.132824	-0.00188	0.011153	-0.004591	-0.521729	0.127441	-0.108154
400.0	5.450357	-1.444761	8.121483	-0.005197	0.011544	-0.003298	-0.521729	0.127197	-0.099609
401.0	5.45795	-1.474891	8.136861	-0.003609	0.010154	-0.005559	-0.517578	0.131592	-0.105957
402.0	5.457839	-1.477353	8.17194	-0.000683	0.015222	-0.005702	-0.52417	0.133789	-0.104004
403.0	5.463331	-1.501978	8.118825	-0.000966	0.017159	-0.004058	-0.517578	0.133789	-0.099609
404.0	5.462826	-1.50443	8.154167	-0.000966	0.017159	-0.004059	-0.515137	0.129395	-0.099609
405.0	5.441687	-1.486053	8.122378	0.004256	0.019349	-0.006522	-0.519531	0.129395	-0.105957
406.0	5.451374	-1.473213	8.141572	0.005453	0.023418	-0.007634	-0.517578	0.131592	-0.099609
407.0	5.439248	-1.487155	8.159244	0.002951	0.0188	-0.005909	-0.515137	0.129395	-0.105957
408.0	5.469961	-1.44524	8.145466	0.003266	0.022771	-0.004822	-0.519531	0.127197	-0.101807
409.0	5.424565	-1.497954	8.143762	0.005032	0.022963	-0.009222	-0.519531	0.125244	-0.108154
410.0	5.426553	-1.457718	8.182546	0.003973	0.021282	-0.004884	-0.515137	0.129395	-0.101807
411.0	5.423371	-1.451857	8.114906	0.005986	0.020342	-0.00556	-0.519775	0.131592	-0.10376
412.0	5.412043	-1.468525	8.166935	-0.000189	0.020769	-0.006766	-0.521729	0.127441	-0.108154
413.0	5.420952	-1.453471	8.151627	0.002668	0.020731	-0.004273	-0.517334	0.129395	-0.10376
414.0	5.445947	-1.495885	8.13162	-0.001916	0.019768	-0.007738	-0.517578	0.135986	-0.108154
415.0	5.426394	-1.482911	8.16857	0.000165	0.016114	-0.002547	-0.515137	0.127441	-0.105957
416.0	5.417467	-1.455319	8.188991	-0.001385	0.016698	-0.005658	-0.517334	0.127197	-0.10376
417.0	5.433491	-1.465439	8.119538	-0.005234	0.020156	-0.006454	-0.523926	0.127197	-0.095215
418.0	5.44117	-1.498234	8.169772	-0.005589	0.01699	-0.002174	-0.521729	0.131592	-0.101807
419.0	5.438969	-1.49566	8.13633	0.001363	0.020179	-0.003661	-0.519287	0.123047	-0.108154
420.0	5.430544	-1.470535	8.191331	0.000344	0.017694	-0.004691	-0.521729	0.129395	-0.10376
421.0	5.427595	-1.465069	8.123547	0.000236	0.021212	-0.00519	-0.519531	0.129639	-0.110352
422.0	5.426642	-1.467451	8.159115	-0.00065	0.021115	-0.002993	-0.517334	0.129395	-0.10376
423.0	5.446995	-1.440728	8.161639	-0.002447	0.015014	-0.001324	-0.519775	0.131592	-0.108154
424.0	5.424592	-1.470067	8.195358	-0.000541	0.017595	-0.002495	-0.521729	0.127441	-0.105957
425.0	5.400692	-1.494196	8.160302	-0.002975	0.01808	-0.00341	-0.517334	0.129395	-0.105957
426.0	5.409914	-1.479557	8.144758	-0.00114	0.01556	-0.00194	-0.512939	0.129395	-0.105957
427.0	5.3898	-1.464009	8.147108	0.001761	0.014719	-0.00481	-0.517334	0.127441	-0.110352
428.0	5.407681	-1.478964	8.146348	-0.000385	0.013268	-0.007366	-0.515137	0.127441	-0.108154
429.0	5.377186	-1.477948	8.165014	3.5e-05	0.013719	-0.005782	-0.515137	0.129395	-0.10376
430.0	5.376456	-1.477462	8.165583	0.002026	0.006875	-0.00918	-0.519531	0.129395	-0.10376
431.0	5.427066	-1.450875	8.149776	0.000742	0.012233	-0.00584	-0.517334	0.129395	-0.105957
432.0	5.426346	-1.450694	8.150287	-0.004615	0.007653	-0.006614	-0.519287	0.12085	-0.10376
433.0	5.385029	-1.461844	8.150651	0.000612	0.009845	-0.009067	-0.515137	0.129639	-0.108154
434.0	5.406891	-1.437425	8.187095	-0.003489	0.006619	-0.005086	-0.517578	0.131592	-0.10376
435.0	5.433078	-1.480247	8.166361	-0.005922	0.007104	-0.006002	-0.519775	0.131592	-0.10376
436.0	5.424747	-1.452985	8.18626	-0.004904	0.009588	-0.004973	-0.517334	0.125244	-0.108154
437.0	5.401648	-1.477266	8.150658	-0.003777	0.008555	-0.003445	-0.521729	0.131592	-0.110352
438.0	5.401819	-1.480112	8.185348	-0.007827	0.004523	-0.004833	-0.515137	0.129639	-0.108154
439.0	5.404232	-1.438257	8.188704	-0.003069	0.00707	-0.003501	-0.515381	0.135986	-0.108154
440.0	5.422237	-1.451382	8.152899	-0.01104	0.001393	-0.003052	-0.519531	0.129395	-0.10376
441.0	5.400378	-1.478654	8.151248	-0.005993	0.002004	-0.003361	-0.519531	0.129395	-0.108154
442.0	5.400956	-1.481756	8.185621	-0.011458	0.000941	-0.004638	-0.517334	0.129639	-0.110352
443.0	5.392722	-1.452518	8.170499	-0.012656	-0.003125	-0.003526	-0.515137	0.129395	-0.101807
444.0	5.425326	-1.41195	8.155392	-0.012237	-0.002675	-0.001941	-0.517578	0.131592	-0.108154
445.0	5.423486	-1.457887	8.186224	-0.018771	-0.005419	0.001122	-0.519531	0.127197	-0.101807
446.0	5.412734	-1.471377	8.167643	-0.015449	-0.005806	-0.000161	-0.521729	0.131592	-0.104004
447.0	5.423298	-1.455454	8.116146	-0.017953	-0.010423	0.001561	-0.519531	0.127441	-0.110352
448.0	5.417464	-1.434846	8.203874	-0.017463	-0.004872	0.000507	-0.515137	0.129395	-0.10376
449.0	5.417314	-1.434082	8.168795	-0.025302	-0.008167	0.00418	-0.515137	0.127441	-0.110352
450.0	5.433414	-1.490944	8.128852	-0.021981	-0.008555	0.002896	-0.519775	0.133789	-0.104004
451.0	5.437637	-1.453807	8.165559	-0.030058	-0.010719	0.002841	-0.519775	0.131592	-0.105957
452.0	5.468595	-1.459582	8.181067	-0.025899	-0.010206	0.004729	-0.517334	0.127441	-0.110352
453.0	5.427919	-1.471115	8.145578	-0.034972	-0.008953	0.006374	-0.515137	0.125244	-0.10376
454.0	5.406604	-1.500377	8.143147	-0.020362	-0.004042	0.003368	-0.519531	0.129395	-0.097412
455.0	5.433598	-1.545073	8.121368	-0.025827	-0.005107	0.002088	-0.519531	0.129395	-0.108154
456.0	5.429096	-1.477495	8.143638	-0.017461	-0.004878	0.000498	-0.521484	0.125244	-0.108154
457.0	5.439916	-1.464277	8.126821	-0.018876	-0.00191	0.000615	-0.519531	0.129395	-0.10376
458.0	5.430231	-1.48334	8.177175	-0.020601	-0.002909	-0.000361	-0.519531	0.127197	-0.10376
459.0	5.445904	-1.539519	8.137466	-0.016861	-0.002845	-5.7e-05	-0.521729	0.127197	-0.097412
460.0	5.444055	-1.42944	8.163285	-0.017988	-0.00181	-0.001585	-0.517578	0.133789	-0.105957
461.0	5.468178	-1.515633	8.138292	-0.018765	-0.005432	0.001104	-0.517578	0.131592	-0.110352
462.0	5.472142	-1.478264	8.175339	-0.027549	-0.006115	0.001103	-0.521729	0.131592	-0.104004
463.0	5.406599	-1.557846	8.1351	-0.020957	-0.006088	0.00391	-0.517578	0.133789	-0.104004
464.0	5.458358	-1.53352	8.118182	-0.023342	-0.006396	-0.002379	-0.521729	0.127197	-0.101807
465.0	5.429273	-1.53428	8.135614	-0.012234	-0.00268	-0.001953	-0.519775	0.135986	-0.104004
466.0	5.421898	-1.508194	8.154839	-0.02031	-0.004848	-0.002015	-0.521973	0.133789	-0.105957
467.0	5.427197	-1.578954	8.131272	-0.016571	-0.004783	-0.00171	-0.521484	0.125	-0.099609
468.0	5.441787	-1.525782	8.152169	-0.010771	-0.006441	-0.007447	-0.521973	0.133789	-0.108154
469.0	5.430452	-1.535232	8.099253	-0.006854	-0.004786	-0.009278	-0.519775	0.131592	-0.10376
470.0	5.4612	-1.538499	8.115328	-0.006387	-0.00513	-0.013063	-0.523926	0.129395	-0.105957
471.0	5.442628	-1.523158	8.116707	-0.006124	-0.000372	-0.006594	-0.519531	0.127441	-0.105957
472.0	5.423971	-1.507638	8.118178	-0.00205	-0.003028	-0.013308	-0.521729	0.127197	-0.101807
473.0	5.384596	-1.521497	8.152122	-0.00895	-0.007026	-0.017216	-0.523926	0.127197	-0.10376
474.0	5.458506	-1.468138	8.137086	-0.003376	-0.009479	-0.015446	-0.519531	0.131592	-0.097412
475.0	5.452462	-1.443426	8.190579	-0.008886	-0.009757	-0.011357	-0.517334	0.129395	-0.099609
476.0	5.46044	-1.46827	8.135764	-0.011963	-0.010519	-0.006351	-0.521729	0.131592	-0.101807
477.0	5.4783	-1.52918	8.164358	-0.016121	-0.011036	-0.008245	-0.521973	0.135986	-0.104004
478.0	5.475069	-1.566192	8.091397	-0.009772	-0.009863	-0.009161	-0.517334	0.129395	-0.099609
479.0	5.460319	-1.511827	8.130321	-0.007981	-0.003754	-0.010808	-0.519531	0.131592	-0.099609
480.0	5.46914	-1.541861	8.144764	-0.006079	-0.001165	-0.011968	-0.521729	0.127441	-0.105957
481.0	5.47932	-1.523694	8.09387	-0.000281	-0.002817	-0.017709	-0.519531	0.127197	-0.10376
482.0	5.482398	-1.480658	8.097232	0.00288	0.001115	-0.014105	-0.519531	0.127197	-0.10376
483.0	5.494398	-1.470498	8.149852	0.000623	0.003187	-0.017158	-0.521973	0.133789	-0.099609
484.0	5.494276	-1.469755	8.150068	-0.001437	0.004907	-0.011113	-0.515381	0.131592	-0.105957
485.0	5.482771	-1.481583	8.132215	-0.008075	0.005661	-0.008548	-0.523926	0.129395	-0.10376
486.0	5.485135	-1.439667	8.13584	-0.006351	0.006662	-0.007571	-0.519775	0.133789	-0.101807
487.0	5.422404	-1.478482	8.134116	-0.014181	0.003342	-0.00391	-0.521729	0.131592	-0.104004
488.0	5.441347	-1.494606	8.132332	-0.012053	-0.001109	-0.004095	-0.521729	0.127197	-0.10376
489.0	5.481362	-1.481363	8.097804	-0.020948	0.001715	-0.004585	-0.523926	0.131592	-0.099609
490.0	5.471701	-1.500323	8.148204	-0.014839	-0.003806	-0.00074	-0.521729	0.127197	-0.10376
491.0	5.450113	-1.528421	8.146111	-0.020947	0.001713	-0.004586	-0.519531	0.131592	-0.101807
492.0	5.479647	-1.530049	8.127874	-0.013357	-0.001664	-0.003488	-0.528564	0.133789	-0.104004
493.0	5.479763	-1.531048	8.127608	-0.0165	0.000301	-0.004343	-0.521973	0.135742	-0.099609
494.0	5.493103	-1.47502	8.114506	-0.009619	-0.001593	-0.003182	-0.52417	0.133789	-0.105957
495.0	5.483217	-1.493281	8.165182	-0.011394	0.006037	-0.007267	-0.517578	0.133789	-0.105957
496.0	5.449386	-1.5296	8.110959	-0.009266	0.001587	-0.007454	-0.526123	0.127197	-0.10376
497.0	5.481391	-1.488434	8.096488	-0.009846	0.005447	-0.004153	-0.519775	0.135742	-0.099609
498.0	5.479146	-1.533707	8.127522	-0.005109	0.002107	-0.005559	-0.523926	0.131592	-0.097412
499.0	5.452254	-1.491269	8.149039	-0.004932	0.003697	-0.007695	-0.521729	0.131592	-0.105957
500.0	5.459882	-1.51861	8.129351	-0.007541	0.002588	-0.006476	-0.519531	0.129395	-0.099609
501.0	5.440023	-1.500518	8.096723	-0.003627	0.004251	-0.008304	-0.521973	0.133789	-0.105957
502.0	5.450932	-1.488529	8.115025	-0.005223	0.005626	-0.006044	-0.519775	0.133789	-0.101807
503.0	5.478075	-1.533931	8.128202	-0.007188	0.005768	-0.010749	-0.523926	0.131592	-0.105957
504.0	5.48824	-1.519296	8.112088	-0.007414	0.004963	-0.003237	-0.517334	0.129395	-0.105957
505.0	5.480046	-1.492038	8.132141	-0.000422	0.007398	-0.01007	-0.519775	0.131592	-0.105957
506.0	5.495127	-1.546375	8.092955	-0.007947	0.008036	-0.005311	-0.523926	0.131592	-0.104004
507.0	5.4686	-1.506621	8.149123	0.002721	0.005435	-0.009215	-0.521729	0.131592	-0.101807
508.0	5.456942	-1.518015	8.131435	-0.000713	0.009327	-0.008419	-0.519531	0.131592	-0.097412
509.0	5.456347	-1.517753	8.131883	-0.003323	0.008217	-0.007202	-0.521729	0.131592	-0.104004
510.0	5.455917	-1.517329	8.132251	0.002722	0.005435	-0.009215	-0.521729	0.129395	-0.101807
511.0	5.496068	-1.505372	8.132833	-0.005161	0.010734	-0.008668	-0.526123	0.131592	-0.105957
512.0	5.458135	-1.477278	8.171063	0.004622	0.008027	-0.010371	-0.517578	0.133789	-0.105957
513.0	5.476119	-1.489049	8.135333	-0.004043	0.003801	-0.009898	-0.523926	0.129395	-0.10376
514.0	5.486955	-1.477132	8.153665	-0.008365	0.007584	-0.006905	-0.521973	0.133789	-0.104004
515.0	5.464163	-1.501111	8.117728	-0.001484	0.005698	-0.005738	-0.517334	0.129639	-0.108154
516.0	5.474296	-1.48651	8.10164	-0.011151	0.004882	-0.003552	-0.526123	0.129395	-0.105957
517.0	5.433872	-1.501359	8.136085	-0.004627	0.007659	-0.006596	-0.519531	0.127441	-0.105957
518.0	5.514668	-1.478272	8.136792	-0.00706	0.008138	-0.007515	-0.519775	0.133789	-0.104004
519.0	5.469996	-1.529334	8.099112	-0.009368	0.010993	-0.005194	-0.526123	0.129395	-0.099609
520.0	5.480372	-1.51768	8.117708	-0.006048	0.010622	-0.006473	-0.525879	0.125	-0.101807
521.0	5.45984	-1.499591	8.085536	-0.002604	0.012627	-0.00451	-0.521973	0.133789	-0.104004
522.0	5.486378	-1.544887	8.099172	-0.003731	0.013662	-0.006039	-0.521729	0.127197	-0.099609
523.0	5.480129	-1.475544	8.123179	-0.002426	0.014217	-0.006647	-0.521729	0.131592	-0.104004
524.0	5.477072	-1.520443	8.154798	-0.003314	0.014108	-0.00445	-0.521729	0.129395	-0.101807
525.0	5.486697	-1.505718	8.139094	-0.006224	0.00903	-0.00434	-0.521729	0.131592	-0.104004
526.0	5.474865	-1.517875	8.121387	-0.004919	0.009585	-0.004948	-0.523682	0.123047	-0.10376
527.0	5.466344	-1.491054	8.141538	-0.00729	0.00733	-6e-06	-0.519775	0.135986	-0.105957
528.0	5.484652	-1.506836	8.140265	-0.007823	0.010401	-0.002081	-0.517578	0.133789	-0.104004
529.0	5.443116	-1.519021	8.140509	-0.00699	0.011295	0.001099	-0.517334	0.129639	-0.108154
530.0	5.482261	-1.504753	8.1069	-0.001892	0.011144	-0.004574	-0.523926	0.131592	-0.105957
531.0	5.50037	-1.520005	8.105868	-0.003491	0.012515	-0.002315	-0.517578	0.133789	-0.099609
532.0	5.469718	-1.519668	8.124519	0.00013	0.016111	-0.002486	-0.521729	0.129395	-0.101807
533.0	5.46835	-1.519413	8.125487	0.00203	0.018704	-0.00364	-0.519531	0.129395	-0.10376
534.0	5.477438	-1.504307	8.110242	-0.00058	0.017591	-0.002426	-0.515137	0.129395	-0.105957
535.0	5.446341	-1.503495	8.129255	0.006541	0.022407	-0.006009	-0.519531	0.131592	-0.097412
536.0	5.455773	-1.491127	8.148612	-0.002001	0.020551	-0.002308	-0.521729	0.129395	-0.099609
537.0	5.432606	-1.51761	8.14779	0.003811	0.018919	-0.008039	-0.519531	0.127197	-0.10376
538.0	5.460802	-1.517356	8.130946	0.003868	0.016185	-0.002175	-0.515137	0.129395	-0.099609
539.0	5.408388	-1.543592	8.147755	-0.00313	0.015691	-0.006597	-0.519531	0.129395	-0.105957
540.0	5.409357	-1.498162	8.117679	0.005765	0.012885	-0.006084	-0.519531	0.129395	-0.099609
541.0	5.428115	-1.5158	8.151119	-0.002718	0.010245	-0.007763	-0.519531	0.129395	-0.10376
542.0	5.459562	-1.473653	8.137359	0.00345	0.009845	-0.006522	-0.519775	0.133789	-0.101807
543.0	5.447866	-1.485209	8.119674	-0.003727	0.00776	-0.008808	-0.517578	0.133789	-0.104004
544.0	5.455817	-1.515085	8.134715	-0.002006	0.008763	-0.007824	-0.521729	0.131592	-0.099609
545.0	5.417886	-1.48733	8.172647	-0.000765	0.004213	-0.005806	-0.521729	0.127197	-0.10376
546.0	5.476652	-1.487827	8.137249	-0.005032	0.007203	-0.008202	-0.521729	0.131592	-0.104004
547.0	5.446144	-1.484465	8.120966	-0.00035	0.004659	-0.004216	-0.517578	0.133789	-0.099609
548.0	5.476465	-1.490817	8.172132	-0.00984	0.005425	-0.004186	-0.517578	0.131592	-0.105957
549.0	5.483633	-1.515399	8.118061	-0.005095	0.002096	-0.005578	-0.521973	0.133789	-0.099609
550.0	5.486419	-1.476597	8.15617	-0.008832	0.007908	-0.003142	-0.515137	0.127197	-0.101563
551.0	5.463772	-1.500697	8.120123	-0.001475	0.005693	-0.005747	-0.526123	0.129395	-0.108154
552.0	5.493388	-1.504186	8.136987	-0.011262	0.008383	-0.004068	-0.517578	0.133789	-0.097412
553.0	5.432531	-1.498112	8.104183	-0.003789	0.008543	-0.00343	-0.517334	0.129395	-0.099609
554.0	5.443622	-1.489534	8.157025	-0.010731	0.005313	-0.001992	-0.519531	0.129395	-0.10376
555.0	5.461696	-1.502344	8.121215	-0.005689	0.00595	-0.002278	-0.517578	0.133789	-0.108154
556.0	5.472251	-1.490995	8.13963	-0.011029	0.007239	-0.000341	-0.523926	0.127197	-0.105957
557.0	5.461173	-1.506677	8.156065	-0.009012	0.006316	-0.001007	-0.517578	0.135742	-0.099609
558.0	5.470626	-1.489696	8.105667	-0.011921	0.007128	0.001855	-0.519531	0.131592	-0.099609
559.0	5.47903	-1.523734	8.154915	-0.012153	0.008271	-0.001874	-0.523926	0.131592	-0.104004
560.0	5.469836	-1.494472	8.140615	-0.010434	0.009274	-0.000889	-0.519775	0.133789	-0.105957
561.0	5.457497	-1.504329	8.088375	-0.012864	0.00975	-0.001816	-0.521729	0.129395	-0.099609
562.0	5.465703	-1.538329	8.137747	-0.009607	0.010166	0.002293	-0.517578	0.131592	-0.10376
563.0	5.464823	-1.539144	8.138184	-0.009839	0.01131	-0.001436	-0.517578	0.131592	-0.10376
564.0	5.466482	-1.497668	8.142281	-0.006103	0.01139	-0.001115	-0.519531	0.127197	-0.099609
565.0	5.443371	-1.52202	8.106466	-0.007938	0.013903	-0.002587	-0.517578	0.131592	-0.099609
566.0	5.464538	-1.498556	8.143422	-0.006928	0.010498	-0.004299	-0.521729	0.129395	-0.101807
567.0	5.460511	-1.537668	8.106066	-0.000697	0.015209	-0.005672	-0.523926	0.129395	-0.10376
568.0	5.432985	-1.49805	8.162555	-0.000993	0.011246	-0.006778	-0.521729	0.131592	-0.104004
569.0	5.401874	-1.494773	8.146621	-0.00645	0.016048	-0.005332	-0.523926	0.129395	-0.099609
570.0	5.450124	-1.513605	8.162171	-0.007705	0.006868	-0.001619	-0.519775	0.133789	-0.101807
571.0	5.448575	-1.508106	8.093685	-0.007522	0.008459	-0.003757	-0.52417	0.133545	-0.095215
572.0	5.440488	-1.484246	8.148201	-0.005917	0.007091	-0.006013	-0.515381	0.131592	-0.099609
573.0	5.447421	-1.508761	8.09434	-0.009539	0.00938	-0.003094	-0.521729	0.131592	-0.101807
574.0	5.436812	-1.527342	8.14514	-0.011141	0.004861	-0.003597	-0.521973	0.133789	-0.104004
575.0	5.446927	-1.51287	8.129176	-0.005504	0.007537	-0.004421	-0.523926	0.129395	-0.108154
576.0	5.484433	-1.543765	8.126306	-0.013687	0.008851	-0.005012	-0.517578	0.131592	-0.101807
577.0	5.445931	-1.513706	8.129688	-0.004011	0.003799	-0.009921	-0.519775	0.133789	-0.099609
578.0	5.446155	-1.516721	8.164242	-0.006511	0.005054	-0.005469	-0.521729	0.129395	-0.099609
579.0	5.486014	-1.501943	8.130544	0.000548	0.004773	-0.006411	-0.519775	0.135986	-0.101807
580.0	5.485618	-1.502037	8.130794	-0.012081	0.007482	-0.00727	-0.517334	0.125244	-0.108154
581.0	5.463578	-1.529275	8.128974	-0.004793	0.006056	-0.004481	-0.515137	0.129395	-0.097412
582.0	5.455134	-1.50238	8.149021	-0.006099	0.005498	-0.003878	-0.519531	0.131592	-0.101807
583.0	5.48433	-1.502924	8.131499	-0.005687	0.005944	-0.002286	-0.519775	0.133789	-0.108154
584.0	5.464811	-1.488135	8.133323	-0.009651	0.007006	-0.006342	-0.519775	0.133545	-0.097412
585.0	5.472629	-1.5186	8.148291	-0.00521	0.011495	-0.003315	-0.517578	0.133789	-0.104004
586.0	5.423195	-1.503692	8.168026	-0.009723	0.007783	-0.000962	-0.521729	0.131592	-0.104004
587.0	5.492762	-1.492841	8.151134	-0.006699	0.009345	-0.000576	-0.521973	0.137939	-0.101807
588.0	5.440369	-1.51696	8.132805	-0.008233	0.009932	-0.003703	-0.519531	0.127441	-0.108154
589.0	5.469702	-1.520748	8.149855	-0.009539	0.009373	-0.0031	-0.521729	0.131592	-0.101807
590.0	5.428816	-1.535927	8.184112	-0.006215	0.009012	-0.004365	-0.515381	0.131592	-0.101807
591.0	5.449134	-1.506559	8.152263	-0.007896	0.011153	0.003271	-0.519775	0.133789	-0.104004
592.0	5.467788	-1.525102	8.185572	-0.001173	0.009654	-0.00464	-0.521973	0.133789	-0.101807
593.0	5.45759	-1.488869	8.102804	-0.005025	0.013084	-0.005454	-0.521973	0.135742	-0.099609
594.0	5.473149	-1.546368	8.098163	-0.008349	0.013445	-0.004191	-0.519531	0.129395	-0.105957
595.0	5.445482	-1.50726	8.154573	-0.000578	0.01169	-0.005185	-0.521729	0.131592	-0.104004
596.0	5.444001	-1.504168	8.120906	-0.00361	0.01601	-0.002813	-0.519775	0.135742	-0.099609
597.0	5.472866	-1.50743	8.138386	-0.002001	0.014645	-0.005068	-0.52002	0.138184	-0.106201
598.0	5.460697	-1.519362	8.120923	-0.003609	0.016009	-0.002815	-0.521729	0.129395	-0.105957
599.0	5.46833	-1.552418	8.170741	-0.00051	0.016794	-0.007809	-0.517334	0.127197	-0.10376
600.0	5.495827	-1.54622	8.085251	-0.000402	0.019161	-0.004565	-0.521973	0.133789	-0.099609
601.0	5.464597	-1.545674	8.104068	-3.1e-05	0.022343	-0.00884	-0.521729	0.131592	-0.105957
602.0	5.471289	-1.575003	8.120001	0.006912	0.02558	-0.010258	-0.519775	0.135986	-0.105957
603.0	5.480607	-1.56465	8.174297	0.013446	0.028372	-0.013269	-0.519531	0.127441	-0.105957
604.0	5.494139	-1.463689	8.16725	0.014871	0.025416	-0.013387	-0.517578	0.131592	-0.101807
605.0	5.451251	-1.470979	8.133781	0.007544	0.024875	-0.004941	-0.519775	0.133789	-0.099609
606.0	5.470849	-1.443483	8.137346	7.6e-05	0.024702	-0.005609	-0.521729	0.127441	-0.105957
607.0	5.472116	-1.557701	8.146118	-0.003567	0.032863	5.5e-05	-0.517334	0.129639	-0.108154
608.0	5.401659	-1.52699	8.168562	0.006413	0.031782	-0.003726	-0.517578	0.135986	-0.104004
609.0	5.434155	-1.592215	8.095003	0.01407	0.033542	-0.005198	-0.523926	0.131592	-0.104004
610.0	5.436854	-1.512247	8.173383	0.022103	0.038479	-0.010948	-0.517578	0.131592	-0.105957
611.0	5.501829	-1.540206	8.155218	0.023717	0.037111	-0.013203	-0.517334	0.127441	-0.105957
612.0	5.510077	-1.528876	8.210321	0.017252	0.039415	-0.012833	-0.521973	0.135986	-0.101807
613.0	5.511922	-1.442366	8.220085	0.021483	0.039163	-0.01629	-0.519775	0.131592	-0.105957
614.0	5.815476	-1.337305	8.29832	0.007126	0.030291	-0.003809	-0.519531	0.131592	-0.101807
615.0	5.842099	-1.346033	8.35166	-0.068241	0.055916	0.003717	-0.517578	0.133789	-0.108154
616.0	5.733392	-1.746717	8.215923	-0.10142	0.061852	0.019477	-0.523926	0.131592	-0.108154
617.0	5.826129	-1.444654	8.349622	-0.0361	0.077244	0.015119	-0.517578	0.133789	-0.101807
618.0	5.512107	-1.552681	8.242037	-0.133844	0.102287	0.020453	-0.521729	0.129395	-0.108154
619.0	5.874909	-1.740401	8.401183	-0.083382	0.077782	0.02987	-0.515381	0.131592	-0.105957
620.0	6.206292	-1.40817	8.505055	-0.053017	0.109439	0.031362	-0.513184	0.133789	-0.105957
621.0	5.783472	-1.779963	8.496489	-0.234679	0.178024	0.035241	-0.513428	0.138184	-0.105957
622.0	5.791769	-2.417376	8.23469	-0.267104	0.150594	0.033556	-0.513184	0.133789	-0.10376
623.0	5.99705	-2.449102	8.412206	-0.085599	0.173851	0.025169	-0.509033	0.138184	-0.104004
624.0	6.100389	-2.4622	8.3864	-0.111318	0.199415	0.014794	-0.513184	0.131836	-0.110352
625.0	5.395754	-2.008059	8.217196	0.090531	0.335499	0.002084	-0.508789	0.131836	-0.110352
626.0	4.75688	-1.915393	8.271853	0.00803	0.268055	0.00725	-0.51123	0.138184	-0.110352
627.0	5.558746	-2.006522	8.199577	0.119656	0.255323	0.002768	-0.506836	0.13623	-0.116943
628.0	5.301817	-1.664643	8.33463	0.210519	0.36384	0.005803	-0.502197	0.131836	-0.114746
629.0	5.076274	-1.578548	8.325166	0.162588	0.362454	0.011041	-0.502441	0.138184	-0.114746
630.0	5.307073	-1.386516	8.282014	0.245221	0.361706	0.003166	-0.497803	0.129639	-0.116943
631.0	5.041979	-1.07192	8.343193	0.259289	0.408975	-0.013716	-0.497803	0.127441	-0.116943
632.0	4.987293	-1.112131	8.256289	0.194823	0.408968	-0.017315	-0.493408	0.127686	-0.118896
633.0	4.802239	-1.28821	8.291668	0.146946	0.410338	-0.018308	-0.491211	0.129883	-0.121094
634.0	5.013139	-1.360178	8.33255	0.166879	0.395357	-0.02368	-0.493408	0.125488	-0.127686
635.0	4.80317	-1.168499	8.241429	0.204277	0.442319	-0.022252	-0.486816	0.127686	-0.125488
636.0	4.392058	-0.995437	8.171757	0.196301	0.394366	-0.024456	-0.482422	0.125732	-0.127686
637.0	4.464299	-0.854169	8.308359	0.142908	0.330173	-0.014366	-0.480469	0.127686	-0.123291
638.0	4.277252	-0.928197	8.239085	0.082431	0.309382	-0.005384	-0.482422	0.123535	-0.131836
639.0	4.194453	-0.998848	8.172781	0.035089	0.23923	0.003767	-0.484619	0.123535	-0.131836
640.0	4.330753	-1.079041	8.219104	0.014658	0.173289	0.013395	-0.480225	0.125732	-0.13208
641.0	4.55808	-1.131141	8.357419	-0.011893	0.122103	0.020928	-0.478027	0.123535	-0.129883
642.0	4.904858	-1.234278	8.497956	-0.022143	0.10276	0.031518	-0.478271	0.130127	-0.13623
643.0	4.941183	-1.259166	8.556073	-0.034356	0.108226	0.034907	-0.480225	0.125732	-0.134033
644.0	5.085785	-1.383467	8.527335	-0.045299	0.12475	0.046704	-0.482422	0.125732	-0.129883
645.0	4.744627	-1.412133	8.493057	-0.062071	0.145557	0.058007	-0.473877	0.125732	-0.13623
646.0	4.82326	-1.424951	8.486554	-0.074459	0.112828	0.069805	-0.473877	0.12793	-0.134033
647.0	4.615637	-1.444818	8.408383	-0.062566	0.149388	0.071788	-0.476074	0.12793	-0.13208
648.0	4.072305	-1.416004	8.310193	-0.082087	0.109926	0.074652	-0.473877	0.12793	-0.131836
649.0	4.036332	-1.540734	8.179401	-0.091248	0.046164	0.063684	-0.47168	0.130127	-0.13623
650.0	4.120445	-1.520265	8.117592	-0.05409	-0.025101	0.046668	-0.473877	0.12793	-0.13623
651.0	4.323581	-1.431655	8.206142	-0.035598	-0.063807	0.041392	-0.473877	0.12793	-0.134033
652.0	4.141489	-1.359719	8.091191	-0.049616	-0.098368	0.036061	-0.476074	0.130127	-0.134033
653.0	4.455748	-1.531637	8.161796	-0.058319	-0.146181	0.032872	-0.480469	0.13208	-0.134277
654.0	4.469259	-1.612549	8.044134	-0.034503	-0.152196	0.036185	-0.471924	0.136475	-0.134277
655.0	3.907987	-1.435341	7.805318	-0.029279	-0.205958	0.054109	-0.48291	0.134277	-0.134277
656.0	3.913669	-1.302248	7.840093	-0.04748	-0.310151	0.074346	-0.484619	0.125732	-0.13208
657.0	4.141627	-1.060537	7.910649	-0.066525	-0.379058	0.094153	-0.484863	0.12793	-0.134033
658.0	4.138353	-1.194622	7.82791	-0.174076	-0.454071	0.139296	-0.484863	0.134277	-0.129883
659.0	4.411157	-1.280533	8.036371	-0.19365	-0.55359	0.196043	-0.491699	0.13623	-0.125488
660.0	5.103113	-0.947616	8.45041	-0.151151	-0.591089	0.198278	-0.493896	0.140381	-0.116943
661.0	5.405581	-0.775969	8.570645	-0.17194	-0.47287	0.182688	-0.491699	0.140625	-0.119141
662.0	5.426012	-1.283907	8.501073	-0.302621	-0.381059	0.196012	-0.496338	0.144775	-0.119141
663.0	5.828546	-1.774974	8.396025	-0.168434	-0.292984	0.200704	-0.496338	0.146973	-0.114746
664.0	5.478811	-1.621378	8.386142	0.039126	-0.190102	0.165388	-0.500732	0.146973	-0.119141
665.0	5.621034	-1.865721	8.51266	-0.022064	-0.204287	0.146974	-0.500732	0.14917	-0.121338
666.0	5.813366	-2.378981	8.424617	0.000185	-0.147367	0.144378	-0.50293	0.146973	-0.116943
667.0	6.232972	-2.729729	9.036905	0.143301	-0.141316	0.125795	-0.505127	0.146729	-0.112549
668.0	7.355467	-2.858585	8.32437	0.272768	0.013337	0.134818	-0.504883	0.142578	-0.112549
669.0	5.039138	-1.314852	8.746182	0.465285	0.115596	0.077203	-0.50708	0.142578	-0.114746
670.0	6.129972	-1.019037	8.979824	0.20344	0.067291	0.080316	-0.505127	0.148926	-0.116943
671.0	5.127143	-1.679499	8.59373	-0.04623	0.183976	0.098656	-0.504883	0.144775	-0.121338
672.0	4.778243	-1.742224	8.638007	0.079668	0.07278	0.088249	-0.502686	0.144775	-0.114746
673.0	4.812817	-1.586404	8.777095	0.02467	0.041072	0.074226	-0.500732	0.146973	-0.116943
674.0	4.896645	-1.66797	8.618075	-0.004304	-0.006001	0.067212	-0.498535	0.14917	-0.121338
675.0	5.135661	-1.46695	8.640947	0.003313	-0.038174	0.056744	-0.50293	0.14917	-0.119141
676.0	5.144747	-1.536202	8.546459	-0.065195	-0.048775	0.05713	-0.50293	0.148926	-0.114746
677.0	5.255032	-1.603686	8.454049	-0.069729	-0.059396	0.060441	-0.505127	0.146973	-0.121338
678.0	5.252573	-1.694862	8.40777	-0.099276	-0.061464	0.055657	-0.505127	0.151123	-0.116943
679.0	5.164974	-1.623241	8.372844	-0.080716	-0.063744	0.054384	-0.50293	0.14917	-0.121338
680.0	5.24464	-1.582554	8.357079	-0.095443	-0.068493	0.057012	-0.502686	0.144775	-0.121338
681.0	5.253279	-1.663401	8.328594	-0.109312	-0.066147	0.056442	-0.505371	0.15332	-0.114746
682.0	5.184429	-1.720163	8.2655	-0.110128	-0.063534	0.05272	-0.505127	0.146973	-0.114746
683.0	5.136262	-1.86802	8.246582	-0.117947	-0.067079	0.041784	-0.505371	0.15332	-0.119141
684.0	5.050119	-1.903231	8.150046	-0.076519	-0.068699	0.021022	-0.505127	0.151123	-0.119141
685.0	4.937614	-1.783763	8.136585	-0.064266	-0.071889	-0.002886	-0.509521	0.151123	-0.116943
686.0	4.869926	-1.835339	8.108282	-0.049259	-0.084492	-0.026447	-0.513916	0.15332	-0.116943
687.0	4.994058	-1.663938	8.121833	-0.014168	-0.094156	-0.045457	-0.505371	0.15332	-0.110352
688.0	5.06543	-1.519023	8.183477	-0.028954	-0.094966	-0.052358	-0.507568	0.157471	-0.112549
689.0	4.929098	-1.571923	8.135875	-0.026132	-0.088359	-0.065203	-0.507568	0.155518	-0.114746
690.0	4.769163	-1.877556	8.099254	-0.014078	-0.086672	-0.116774	-0.507568	0.15332	-0.112549
691.0	4.489112	-2.091351	8.017537	0.048147	-0.086379	-0.180014	-0.511719	0.148926	-0.114746
692.0	4.699718	-1.96874	8.218585	0.14175	-0.12158	-0.242896	-0.511719	0.148926	-0.116943
693.0	4.662802	-1.853087	8.188557	0.127569	-0.116519	-0.283506	-0.509277	0.144775	-0.112549
694.0	4.4334	-1.784551	8.236863	0.119435	-0.167353	-0.33081	-0.511475	0.144775	-0.112549
695.0	4.584506	-1.886811	8.42846	0.11387	-0.219278	-0.368218	-0.515625	0.142578	-0.112549
696.0	5.021423	-1.630333	8.389908	0.169787	-0.317712	-0.3935	-0.52002	0.142334	-0.106201
697.0	5.364396	-1.191848	8.516162	0.161785	-0.337211	-0.373638	-0.52002	0.138184	-0.110352
698.0	5.032049	-1.270769	8.523499	-0.019903	-0.370136	-0.351091	-0.519775	0.135986	-0.105957
699.0	5.340093	-1.530114	8.357831	-0.025284	-0.411238	-0.337911	-0.521973	0.133789	-0.108154
700.0	5.522334	-1.178726	8.326818	0.066075	-0.473755	-0.323264	-0.52832	0.129395	-0.108154
701.0	5.373003	-1.110872	8.515036	-0.054614	-0.486015	-0.294351	-0.526367	0.133789	-0.099609
702.0	5.456081	-1.477473	8.349194	-0.146861	-0.553407	-0.262728	-0.530518	0.131348	-0.095215
703.0	5.227988	-1.36568	8.418331	-0.053839	-0.622844	-0.250529	-0.534912	0.129395	-0.097412
704.0	5.521009	-1.504253	8.43169	-0.114352	-0.700304	-0.239437	-0.539307	0.131348	-0.093018
705.0	5.513971	-2.05514	8.273582	-0.149586	-0.755147	-0.233073	-0.54126	0.127197	-0.095215
706.0	5.592109	-1.918229	8.238928	0.072313	-0.860079	-0.267278	-0.549805	0.124756	-0.084473
707.0	5.683115	-1.563889	8.460997	0.123318	-0.96206	-0.298308	-0.552002	0.124756	-0.080078
708.0	5.557537	-1.332365	8.609832	0.071887	-1.092742	-0.336345	-0.556152	0.120361	-0.071289
709.0	5.646227	-1.93465	8.508937	-0.152171	-1.224383	-0.393317	-0.55835	0.122314	-0.073486
710.0	5.386457	-1.931109	8.639807	0.039695	-1.447589	-0.46814	-0.562744	0.124268	-0.05835
711.0	5.481385	-1.819522	8.463583	0.055768	-1.659828	-0.533385	-0.571289	0.119873	-0.047607
712.0	5.547575	-1.601197	8.620504	0.108176	-1.901842	-0.580754	-0.577393	0.111084	-0.036621
713.0	5.673642	-1.44531	8.858837	0.054151	-2.134431	-0.621329	-0.582031	0.113037	-0.030273
714.0	5.803625	-1.893355	9.019084	0.004056	-2.34096	-0.664982	-0.594727	0.110596	-0.008545
715.0	5.664775	-2.182098	8.744678	0.124748	-2.577969	-0.759671	-0.599121	0.108154	0.008789
716.0	5.207563	-2.26592	9.253293	0.135251	-3.003972	-0.819956	-0.607666	0.10376	0.026123
717.0	5.323996	-2.611144	10.466618	0.047868	-3.280501	-0.86497	-0.618164	0.099121	0.045654
718.0	5.214525	-3.136651	10.256405	-0.022673	-3.461748	-0.987882	-0.622559	0.098877	0.060791
719.0	3.724921	-4.254027	9.976999	-0.109022	-3.811152	-1.174751	-0.632813	0.087646	0.089111
720.0	3.725272	-5.282691	8.985499	0.591055	-4.578191	-1.569945	-0.643555	0.085205	0.11499
721.0	3.357633	-4.507987	9.460292	1.291274	-5.309716	-1.874253	-0.653809	0.069336	0.15625
722.0	4.043238	-3.452169	9.052345	1.483343	-6.12907	-2.203498	-0.657715	0.056152	0.186768
723.0	6.97506	-2.45224	9.603765	1.572282	-7.06575	-2.457465	-0.663574	0.044678	0.234375
724.0	11.578427	0.084099	10.158745	1.695245	-7.865823	-2.455978	-0.663086	0.033203	0.282227
725.0	17.634653	2.988476	12.649698	0.527775	-8.208914	-2.279696	-0.658447	0.026123	0.329834
726.0	15.788825	-0.934036	7.279339	-0.81174	-8.024841	-2.088976	-0.647217	0.02124	0.379883
727.0	15.764748	-0.923889	8.544234	-0.884437	-8.498518	-2.182266	-0.629395	0.01416	0.425293
728.0	18.864869	-1.21411	12.359682	-2.977625	-8.527508	-2.026033	-0.603027	0.013672	0.46875
729.0	15.654625	-7.708647	8.723059	-5.733524	-8.618755	-2.649057	-0.578369	-0.001709	0.512207
730.0	16.936691	-13.979423	8.649075	-3.31442	-8.702637	-3.667391	-0.545654	-0.006348	0.544922
731.0	31.070642	-22.618685	34.855667	2.958489	-4.458454	-2.137444	-0.513184	0.002197	0.549072
732.0	43.609726	-16.270902	35.864321	1.962908	1.977406	0.094913	-0.488281	0.032715	0.522949
733.0	3.322452	-10.616104	20.858099	-1.866092	6.874088	1.521129	-0.465332	0.050781	0.473145
734.0	-11.667561	-13.987419	2.642324	-2.306906	5.690733	1.434905	-0.431885	0.087646	0.453613
735.0	-11.981334	-11.102517	3.179906	1.676503	2.145652	1.894393	-0.393799	0.118164	0.451172
736.0	0.911151	-5.128175	11.887801	2.460549	1.275264	1.99554	-0.351563	0.148193	0.453369
737.0	5.719877	-2.585444	15.712122	0.231395	3.07935	2.309146	-0.302246	0.169922	0.457764
738.0	3.613077	-5.501718	13.382521	-1.495842	4.181674	2.516868	-0.261719	0.191406	0.477051
739.0	4.608364	-6.819661	11.616744	-0.123579	4.403467	2.610379	-0.223145	0.210449	0.507568
740.0	4.26823	-2.610573	11.581534	0.956038	4.927508	2.704196	-0.194824	0.212158	0.546631
741.0	3.397635	-0.115935	9.757106	0.488246	5.255736	2.796808	-0.183838	0.211426	0.596436
742.0	3.171489	0.607027	8.420339	0.044016	5.265001	2.903444	-0.194336	0.202393	0.637695
743.0	4.097855	0.858511	8.125528	-0.05547	5.127003	2.903287	-0.219727	0.188721	0.676514
744.0	5.471061	1.126192	8.619398	-0.035628	5.056084	2.786874	-0.262939	0.183838	0.715576
745.0	6.947288	1.405599	9.166887	0.053399	5.036901	2.571015	-0.310303	0.170654	0.722168
746.0	8.066395	1.979612	9.61862	0.242059	5.163749	2.264169	-0.373291	0.164063	0.715576
747.0	8.384865	3.069276	10.100178	0.422486	5.275534	1.906496	-0.438721	0.164063	0.697998
748.0	9.490099	3.839485	11.019846	0.227927	5.303579	1.555291	-0.5	0.170654	0.66333
749.0	10.587608	3.000844	11.799161	-0.342158	5.433638	1.242172	-0.550049	0.171143	0.615479
750.0	11.001786	1.248932	11.897622	-0.384381	5.514708	0.918855	-0.596436	0.18042	0.554688
751.0	11.267857	0.589625	12.061275	-0.158454	5.504094	0.634398	-0.63208	0.200684	0.48291
752.0	11.147571	-0.243561	12.038865	-0.200249	5.374585	0.433758	-0.656982	0.21875	0.404785
753.0	11.288734	-0.980705	12.00865	-0.142024	5.146412	0.309131	-0.651123	0.232666	0.331055
754.0	11.255421	-1.423978	12.086466	-0.095085	4.847268	0.278745	-0.638672	0.244629	0.255127
755.0	11.659402	-2.310055	12.142922	-0.162776	4.467687	0.324694	-0.604004	0.243408	0.190186
756.0	12.772148	-3.524872	11.98296	-0.157241	4.061101	0.394564	-0.568848	0.233643	0.135986
757.0	14.89761	-4.446971	11.476291	0.015402	3.63987	0.509982	-0.528564	0.206299	0.101563
758.0	17.399282	-4.374144	10.854313	0.216455	3.231418	0.741238	-0.501709	0.183105	0.069336
759.0	21.301115	-4.64995	8.539934	0.23301	2.706023	0.986045	-0.487793	0.157471	0.052002
760.0	25.102765	-4.588896	6.216994	0.306475	2.207084	1.403516	-0.47168	0.13623	0.037109
761.0	52.988131	-3.305516	20.48403	1.771487	2.040039	1.746994	-0.458008	0.119385	0.017578
762.0	51.495972	3.991653	3.658072	1.231333	6.024083	2.535558	-0.432129	0.12207	-0.014893
763.0	35.150469	7.473034	-14.978126	-0.207314	8.224232	3.400318	-0.401855	0.125	-0.053711
764.0	18.308985	4.984541	-31.705355	-1.271635	7.625635	3.449076	-0.374268	0.144775	-0.088623
765.0	14.548565	4.037035	-47.888364	-0.009319	4.277816	2.177771	-0.36084	0.13208	-0.094971
766.0	16.854735	7.574271	-32.910926	2.098078	-2.160048	0.923429	-0.380127	0.129639	-0.084229
767.0	39.962422	11.024321	-21.318166	1.342616	-4.74444	-0.105633	-0.397461	0.123047	-0.073242
768.0	34.888594	5.094343	-33.955884	0.725004	-1.420339	-0.562277	-0.396973	0.112305	-0.075439
769.0	4.993778	4.255464	26.736001	-0.407533	-0.264319	-0.715021	-0.414551	0.118408	-0.058105
770.0	8.765915	-13.066416	39.473219	-3.051349	-3.441665	-0.378433	-0.414795	0.122803	-0.051514
771.0	-6.558179	-4.894247	-6.247052	3.790641	0.997969	-0.635064	-0.417969	0.094727	-0.060059
772.0	-20.897709	17.508902	0.250739	8.893999	-6.004985	-0.838744	-0.459961	0.057373	-0.008057
773.0	40.46691	17.99803	31.512385	0.247945	-11.60614	-0.484085	-0.490479	0.061035	0.032959
774.0	44.171148	4.353874	13.185026	-2.828808	-0.524797	0.325916	-0.482178	0.072021	0.024414
775.0	-3.541733	0.72916	16.293255	-3.425824	-0.942114	-0.160146	-0.493652	0.084717	0.037354
776.0	14.910831	-7.157781	7.580293	-1.767158	-3.430367	0.515637	-0.509033	0.09082	0.05249
777.0	12.702468	-2.980029	10.913485	1.930569	-0.792611	0.107889	-0.508789	0.084229	0.056885
778.0	5.162029	0.936611	10.519101	1.074047	-0.899334	-0.109107	-0.510986	0.084229	0.061035
779.0	9.035902	-1.604659	10.67275	-1.248536	-0.853381	0.029125	-0.513184	0.086182	0.069824
780.0	7.615557	-4.929334	7.672901	-1.006523	-0.146897	-0.00024	-0.517578	0.086182	0.067627
781.0	3.603956	-2.950312	8.464039	0.923462	-0.536242	-0.224483	-0.515137	0.079834	0.069824
782.0	9.617085	-0.630905	10.127658	1.26281	-0.642774	-0.290225	-0.517334	0.079834	0.069824
783.0	4.740035	-0.98876	9.111054	-0.250604	0.07451	-0.262854	-0.512939	0.077393	0.078369
784.0	4.895029	-2.209644	8.144911	-0.121703	-0.377135	-0.289348	-0.521484	0.073242	0.076416
785.0	7.062415	-1.732824	8.910807	0.536963	-0.238755	-0.333138	-0.519287	0.073242	0.074219
786.0	5.846296	-0.79111	8.739182	0.248592	-0.221418	-0.286473	-0.52124	0.073242	0.080566
787.0	5.571734	-0.722539	8.723262	0.11491	-0.237753	-0.257303	-0.523438	0.068848	0.078613
788.0	5.639095	-1.344859	8.52887	-0.002239	-0.242594	-0.254545	-0.514404	0.064697	0.078613
789.0	5.416168	-1.89623	8.469704	-0.003325	-0.249402	-0.278393	-0.523193	0.064453	0.080566
790.0	5.710628	-2.089448	8.334713	0.108286	-0.2697	-0.305937	-0.525146	0.057861	0.089355
791.0	5.728944	-1.631163	8.361319	0.231135	-0.3119	-0.312759	-0.525146	0.060059	0.084961
792.0	5.759597	-1.228738	8.523491	0.203857	-0.304752	-0.29256	-0.518555	0.060059	0.087158
793.0	5.597602	-1.307336	8.402889	0.056251	-0.319075	-0.280298	-0.522949	0.055664	0.09375
794.0	5.509546	-1.458298	8.281188	0.046721	-0.320789	-0.283712	-0.5271	0.055908	0.089355
795.0	5.534314	-1.223029	8.386131	0.121585	-0.358977	-0.290189	-0.524658	0.047119	0.09375
796.0	5.581461	-0.958594	8.35136	0.09861	-0.368817	-0.273831	-0.529053	0.049316	0.09375
797.0	5.537118	-0.917765	8.297396	0.002624	-0.391948	-0.255177	-0.53125	0.05127	0.100342
798.0	5.578617	-0.861827	8.343892	0.010315	-0.427612	-0.237816	-0.528809	0.044922	0.102539
799.0	5.661286	-0.796258	8.283867	-0.006829	-0.455674	-0.214978	-0.5354	0.044922	0.100342
800.0	5.68785	-0.912159	8.188084	-0.042696	-0.465036	-0.211301	-0.5354	0.042725	0.104492
801.0	5.675934	-0.927127	8.144986	-0.039145	-0.484189	-0.211802	-0.539795	0.04248	0.108887
802.0	5.755503	-0.949208	8.114798	-0.029512	-0.50643	-0.214455	-0.535156	0.03833	0.113281
803.0	5.78513	-1.066002	8.015787	-0.054565	-0.505484	-0.220942	-0.533203	0.04248	0.117676
804.0	5.771176	-1.121317	7.93592	-0.015825	-0.528297	-0.241982	-0.537354	0.040283	0.119873
805.0	5.761746	-1.261363	8.027166	-0.072124	-0.54804	-0.278868	-0.539551	0.036133	0.115479
806.0	5.556286	-1.015591	7.958684	0.007925	-0.604213	-0.318433	-0.537354	0.035889	0.124268
807.0	5.560613	-0.598013	8.396234	0.021709	-0.683551	-0.337588	-0.537109	0.033691	0.132813
808.0	5.848551	-0.768186	7.940253	-0.145537	-0.722066	-0.33605	-0.545898	0.033691	0.126221
809.0	6.037956	-0.551169	7.817103	-0.017173	-0.79279	-0.328213	-0.545654	0.029297	0.139404
810.0	5.897879	-0.381807	7.943052	-0.07744	-0.838713	-0.323956	-0.547852	0.03125	0.145752
811.0	5.921719	-0.695981	7.823676	-0.205857	-0.877078	-0.313516	-0.549805	0.024902	0.147949
812.0	6.045182	-1.062044	7.776516	-0.195673	-0.919941	-0.339544	-0.545654	0.029053	0.152344
813.0	6.077151	-1.150866	7.721486	-0.171998	-0.957273	-0.382834	-0.549561	0.020264	0.158936
814.0	6.156383	-1.280538	7.77936	-0.163163	-1.012576	-0.44107	-0.556152	0.022461	0.163086
815.0	6.232576	-1.307181	7.870609	-0.164493	-1.061423	-0.505679	-0.553711	0.013672	0.165527
816.0	6.23587	-1.367843	7.829422	-0.15064	-1.124997	-0.555314	-0.553711	0.013672	0.17627
817.0	6.271228	-1.441802	8.00792	-0.108758	-1.202523	-0.579556	-0.560059	0.009277	0.182861
818.0	6.234423	-1.10491	7.747451	0.060417	-1.321266	-0.590417	-0.566406	0.009033	0.193604
819.0	6.188858	-0.523295	8.101616	0.21889	-1.496407	-0.550531	-0.561768	0.000244	0.20459
820.0	6.188681	-0.445838	8.453329	0.211185	-1.686682	-0.504288	-0.561768	0.000244	0.215332
821.0	5.560655	-0.936965	9.079187	0.029646	-1.872015	-0.459953	-0.570313	-0.002197	0.226074
822.0	5.052794	-1.487829	9.735774	-0.020224	-2.19755	-0.477862	-0.567871	-0.006592	0.241455
823.0	4.787976	-1.262456	10.053026	0.084706	-2.705951	-0.550867	-0.574463	-0.009033	0.258789
824.0	3.638399	-1.173393	11.395215	0.019357	-3.430366	-0.505035	-0.572266	-0.009277	0.280273
825.0	2.995643	-3.171628	11.98719	-0.096136	-4.353088	-0.650705	-0.576172	-0.018311	0.306396
826.0	2.193751	-5.911836	12.098681	-0.002892	-5.292748	-1.039249	-0.575684	-0.025391	0.343262
827.0	1.67969	-8.503053	11.691211	0.599134	-6.364752	-1.752376	-0.568604	-0.038818	0.384521
828.0	2.660864	-7.359171	11.774842	1.762316	-7.667247	-2.547307	-0.56543	-0.058838	0.438965
829.0	9.150543	-2.094279	12.933048	2.283347	-9.11949	-2.844073	-0.554443	-0.063965	0.495361
830.0	18.309929	5.274227	14.955643	1.345278	-9.991812	-2.717034	-0.536133	-0.081787	0.553955
831.0	20.198906	1.145388	12.030302	-1.445519	-9.638715	-2.369332	-0.504883	-0.099609	0.599609
832.0	16.824076	-7.520514	9.342459	-1.840563	-9.935152	-2.711565	-0.478027	-0.117432	0.653809
833.0	21.93739	-6.531981	13.256487	-2.48673	-10.476007	-2.684566	-0.435303	-0.145752	0.695313
834.0	18.089366	-3.16775	11.401213	-4.520975	-10.796218	-3.641843	-0.38623	-0.174072	0.730225
835.0	20.907311	-8.085767	20.818924	-3.346278	-10.433086	-3.57634	-0.350586	-0.197754	0.747803
836.0	54.591483	-24.336083	50.226094	-1.850915	-2.176986	-0.907993	-0.352539	-0.206055	0.726074
837.0	28.301679	-24.06019	27.703654	-1.528216	5.580432	1.124631	-0.385254	-0.201416	0.684814
838.0	-3.684372	-17.522675	11.951663	-1.274861	7.165703	1.385183	-0.407471	-0.196533	0.634766
839.0	-10.179901	-11.776365	1.11152	1.595183	5.008722	1.390665	-0.416504	-0.185303	0.606689
840.0	-9.097861	-2.600043	5.014386	3.042664	3.019017	1.640692	-0.421631	-0.172119	0.582764
841.0	-1.555129	0.462662	9.154356	0.583942	2.569893	2.057342	-0.423828	-0.16748	0.554443
842.0	2.590008	-3.157134	11.126318	-1.932181	3.527693	2.402898	-0.417725	-0.162598	0.521973
843.0	3.019659	-8.063531	9.328096	-1.561799	4.036185	2.569437	-0.417969	-0.153564	0.489502
844.0	5.099478	-6.917175	10.253222	0.694965	4.151356	2.624026	-0.409668	-0.148926	0.467773
845.0	5.758627	-2.012109	10.884223	1.280343	4.737502	2.754912	-0.411865	-0.148682	0.448242
846.0	5.255411	0.350492	9.61612	0.686625	5.156446	3.012358	-0.40332	-0.144043	0.420166
847.0	5.613393	0.856817	8.750127	0.298838	5.243997	3.244704	-0.405273	-0.150146	0.400635
848.0	6.710731	1.178134	8.749192	0.241026	5.331187	3.345874	-0.398926	-0.145752	0.391846
849.0	7.618794	1.736057	8.866615	0.198057	5.44531	3.332933	-0.407715	-0.147705	0.374512
850.0	8.751363	2.075432	9.032096	0.157749	5.49528	3.218279	-0.411865	-0.149902	0.368164
851.0	10.137805	2.116859	9.183802	0.197901	5.586202	2.991144	-0.429199	-0.154053	0.35498
852.0	10.354235	2.683232	9.194317	0.313217	5.748671	2.683263	-0.442383	-0.149658	0.348389
853.0	10.540657	3.608359	9.412623	0.330152	5.726437	2.318516	-0.462646	-0.136719	0.3396
854.0	11.499848	3.714984	10.132364	0.101025	5.692403	1.964052	-0.482666	-0.125732	0.315674
855.0	12.316006	2.381302	10.487842	-0.1873	5.716022	1.632205	-0.496338	-0.112549	0.293945
856.0	12.791463	0.792852	10.577527	-0.116136	5.682562	1.309824	-0.501953	-0.082031	0.263428
857.0	12.766681	0.176324	10.713081	0.007808	5.580408	1.067455	-0.488281	-0.042725	0.23291
858.0	12.353034	-0.516261	10.839356	-0.033361	5.39401	0.90717	-0.459473	0.000488	0.224121
859.0	12.482902	-1.605029	10.982018	-0.025867	5.088426	0.798901	-0.435303	0.052002	0.232666
860.0	12.903422	-2.126123	11.156139	0.066182	4.770227	0.707166	-0.426025	0.09668	0.275879
861.0	13.325821	-2.554992	11.139777	0.042515	4.399043	0.64636	-0.440674	0.141357	0.305908
862.0	14.461699	-3.185326	10.701745	0.025188	3.960351	0.624268	-0.463867	0.179443	0.340332
863.0	16.446444	-3.505338	10.572927	0.020584	3.495273	0.645468	-0.500244	0.218018	0.35083
864.0	21.334357	-3.523422	11.367929	-0.119663	2.951885	0.783726	-0.545166	0.252197	0.346191
865.0	31.289893	-3.849215	12.426154	-0.21909	2.881248	1.132119	-0.572266	0.27832	0.324463
866.0	41.992414	-2.607832	12.295674	-0.31502	4.067925	1.667642	-0.588623	0.300537	0.27002
867.0	38.968463	0.835997	1.862673	-0.777187	5.882635	2.35832	-0.596191	0.324707	0.220215
868.0	28.683316	2.63461	-13.224964	-1.306285	6.238928	2.712029	-0.594971	0.351318	0.161377
869.0	22.445652	5.269995	-26.161014	-0.957961	4.868822	2.795779	-0.576416	0.371338	0.120117
870.0	21.554026	6.324397	-32.329264	-0.735527	2.663605	2.277646	-0.570801	0.397461	0.100586
871.0	23.3297	4.632586	-26.03838	-0.777778	0.9737	1.595225	-0.57373	0.412598	0.100586
872.0	21.167072	-1.806598	-25.035708	-0.728603	-0.312919	0.45829	-0.578369	0.423096	0.113525
873.0	22.726841	-2.566478	-25.717351	2.419654	-2.487776	-0.907642	-0.602295	0.420654	0.133057
874.0	25.17592	6.531259	-10.822372	5.712684	-2.997394	-1.357173	-0.61084	0.422363	0.161133
875.0	13.18241	5.254458	32.848822	0.112141	-3.22869	-0.35918	-0.626709	0.438721	0.210938
876.0	4.252725	-7.629053	19.969253	-0.723835	-0.890085	0.281838	-0.638184	0.455566	0.234619
877.0	-19.987834	8.477456	2.29414	3.601317	-1.8059	-0.225818	-0.64917	0.46167	0.260498
878.0	-5.621129	22.715139	7.194646	5.822479	-9.081746	-0.671455	-0.662598	0.473633	0.329834
879.0	53.363283	21.385951	31.334609	-0.681055	-6.761434	-0.896032	-0.67627	0.494385	0.377441
880.0	21.393375	3.197693	17.003235	-4.775483	-1.331318	-0.326889	-0.687744	0.506836	0.411865
881.0	11.294442	-11.90723	10.794355	-5.069205	-2.821532	0.517553	-0.692627	0.523438	0.455322
882.0	13.38867	-17.076253	4.8239	-0.5902	-2.140961	0.34645	-0.693115	0.536133	0.472412
883.0	4.380125	-2.615463	9.565196	3.075764	-2.306266	-0.07195	-0.697754	0.548828	0.485352
884.0	11.120426	4.132811	12.373093	1.221033	-2.153853	-0.246901	-0.696045	0.557129	0.498291
885.0	12.870772	-1.28721	11.920084	-1.643592	-0.785671	0.125925	-0.700439	0.559082	0.513428
886.0	6.550777	-7.971737	6.567045	-1.669502	-0.211866	0.106331	-0.702637	0.561035	0.524414
887.0	5.186594	-7.091496	8.257317	1.14212	-0.983881	-0.219394	-0.704834	0.56543	0.526611
888.0	10.239202	-0.845622	9.481694	2.193542	-0.62523	-0.406106	-0.705078	0.571777	0.528564
889.0	3.033783	2.857385	10.410417	0.494186	-0.171075	-0.223567	-0.702881	0.567383	0.532959
890.0	8.150563	-3.301641	8.878506	-1.349877	-0.553842	0.068915	-0.705322	0.575928	0.539551
891.0	6.517228	-4.022428	7.312073	0.351843	-0.058852	-0.04121	-0.709717	0.575928	0.535156
892.0	5.267327	0.417058	9.922036	0.565787	-0.572127	-0.071542	-0.703125	0.578125	0.550293
893.0	7.763981	0.310149	9.340642	-0.45103	-0.292322	0.185092	-0.707764	0.582275	0.545898
894.0	5.57539	-1.183513	8.43926	-0.722441	-0.357957	0.340608	-0.712158	0.58667	0.550293
895.0	5.906016	-1.721829	8.566914	-0.556667	-0.4023	0.377333	-0.708008	0.588623	0.561035
896.0	5.765442	-1.476279	8.401373	-0.662044	-0.429568	0.39877	-0.712646	0.601563	0.561035
897.0	5.747227	-2.319755	8.199893	-0.801448	-0.43425	0.432571	-0.706055	0.599365	0.563232
898.0	5.822988	-2.600134	7.930844	-0.70715	-0.427391	0.391803	-0.70166	0.599365	0.56958
899.0	5.691969	-2.581913	7.848554	-0.722141	-0.40018	0.372072	-0.706543	0.60791	0.573975
900.0	5.540054	-3.15555	7.637984	-0.755756	-0.381498	0.341523	-0.70874	0.612061	0.576172
901.0	5.558209	-3.388706	7.351388	-0.623352	-0.354429	0.267802	-0.708984	0.614258	0.580322
902.0	5.431505	-3.284943	7.370608	-0.540858	-0.328481	0.200805	-0.706543	0.612061	0.584717
903.0	5.697766	-3.561073	7.264915	-0.516679	-0.285213	0.150976	-0.702148	0.611816	0.589111
904.0	5.447271	-3.61766	7.310841	-0.382283	-0.254346	0.091151	-0.706543	0.614014	0.589111
905.0	5.530597	-3.160399	7.485631	-0.285131	-0.235531	0.040718	-0.706543	0.614014	0.591309
906.0	5.690269	-3.346718	7.43638	-0.294588	-0.200956	-0.004396	-0.710938	0.609619	0.593506
907.0	5.559883	-3.371083	7.301474	-0.19556	-0.143053	-0.067433	-0.710938	0.61377	0.599854
908.0	5.431087	-3.658997	7.238225	-0.168112	-0.118645	-0.144321	-0.710938	0.611816	0.599854
909.0	5.657572	-3.589557	7.00254	0.012608	-0.071112	-0.229399	-0.704346	0.614014	0.5979
910.0	5.273037	-3.132705	7.186004	0.09852	-0.017796	-0.311493	-0.712891	0.609619	0.599854
911.0	4.985404	-3.361928	7.115561	0.116868	-0.012997	-0.386938	-0.713135	0.611816	0.593506
912.0	5.314088	-2.805523	7.281083	0.337867	-0.042986	-0.435313	-0.717285	0.607422	0.595703
913.0	5.0366	-2.696512	7.67592	0.237524	-0.040643	-0.474439	-0.717041	0.60083	0.600098
914.0	5.064942	-3.36739	7.412168	0.198939	-0.074404	-0.507649	-0.719238	0.605225	0.606445
915.0	5.185462	-2.900133	7.656735	0.445588	-0.124765	-0.551424	-0.723389	0.598633	0.604248
916.0	5.291014	-2.28412	8.002678	0.398418	-0.164789	-0.564783	-0.727783	0.598633	0.602051
917.0	5.376686	-2.620363	8.037899	0.235494	-0.199566	-0.585132	-0.723389	0.594482	0.604248
918.0	5.573199	-2.289247	8.123956	0.350736	-0.27777	-0.582559	-0.727539	0.592285	0.608643
919.0	5.566255	-1.57592	8.414879	0.25449	-0.357966	-0.545677	-0.731934	0.592041	0.613037
920.0	5.662158	-1.810562	8.308924	0.031107	-0.43713	-0.49894	-0.736084	0.587891	0.613037
921.0	5.601638	-2.38331	8.137567	-0.055756	-0.510685	-0.483951	-0.73584	0.583252	0.625977
922.0	5.391329	-2.702183	8.140913	-0.008756	-0.63861	-0.481843	-0.733643	0.581055	0.628174
923.0	5.300574	-2.148264	8.330173	0.073189	-0.817677	-0.490512	-0.738037	0.581055	0.634766
924.0	5.98058	-2.304221	8.501122	-0.133636	-0.960203	-0.490267	-0.742188	0.57666	0.645508
925.0	5.606403	-2.567553	8.158407	-0.115191	-1.158127	-0.505682	-0.735352	0.574219	0.654297
926.0	5.912565	-1.394923	8.692457	0.012187	-1.45752	-0.502552	-0.739502	0.567871	0.660889
927.0	5.681141	-1.777632	9.06059	-0.367789	-1.66601	-0.47935	-0.737061	0.561035	0.678223
928.0	5.088911	-2.981369	9.09098	-0.44677	-2.002654	-0.534229	-0.741211	0.556396	0.697754
929.0	4.727698	-2.981019	9.459676	-0.244813	-2.424281	-0.638373	-0.736572	0.549805	0.710693
930.0	4.440976	-3.015817	10.374549	-0.390917	-2.939898	-0.768154	-0.729736	0.543213	0.728027
931.0	4.630975	-2.905293	10.036136	-0.322263	-3.548403	-0.810874	-0.727051	0.53418	0.760742
932.0	4.357369	-3.513405	12.30698	-0.801237	-4.447024	-0.815088	-0.722412	0.527344	0.793213
933.0	3.158179	-6.093184	12.836004	-1.555606	-4.504731	-0.986404	-0.715088	0.509766	0.82373
934.0	0.574799	-8.436244	10.947708	-0.755967	-5.308222	-1.614294	-0.709961	0.491943	0.862793
935.0	-1.392566	-6.569076	11.871061	0.640053	-6.655392	-2.255069	-0.692139	0.478516	0.901855
936.0	2.449308	-4.109784	13.82016	0.723698	-8.297753	-2.662024	-0.669434	0.458496	0.956299
937.0	12.964712	-0.200155	15.188283	0.107973	-9.538972	-2.863996	-0.640137	0.434326	1.012695
938.0	18.130091	2.372408	12.553673	-1.457607	-9.817729	-2.631934	-0.614746	0.403564	1.067139
939.0	17.464898	-2.927547	11.235311	-2.828807	-10.072349	-2.535662	-0.569092	0.349121	1.123779
940.0	17.21295	-8.841219	7.133697	-3.451756	-10.228482	-3.006934	-0.525146	0.290527	1.171875
941.0	16.33103	-11.635733	13.391557	-3.628285	-10.787811	-3.747017	-0.466064	0.228027	1.207031
942.0	17.756384	-6.446172	12.838554	-2.576294	-11.663253	-4.517473	-0.406982	0.165283	1.237793
943.0	30.323503	-7.44409	33.925704	-1.689885	-7.612221	-3.368562	-0.409668	0.118164	1.229248
944.0	52.634869	-22.376714	48.458607	-3.19287	0.406184	-1.473236	-0.477295	0.064941	1.166748
945.0	19.536871	-21.77596	27.522858	-1.138686	6.607546	-0.278468	-0.559814	0.051025	1.0625
946.0	-4.68729	-12.255321	12.672745	-0.421752	7.747294	-0.064582	-0.631592	0.043701	0.951904
947.0	-10.688791	-9.354049	4.559529	0.12508	6.080436	-0.031727	-0.654053	0.05542	0.86084
948.0	-8.720663	-4.845747	4.415649	1.075479	4.526357	0.349003	-0.659424	0.082275	0.782715
949.0	-3.127749	-3.356945	7.405454	-0.186922	4.006885	0.683241	-0.638672	0.100586	0.719727
950.0	0.743415	-6.682322	8.40885	-1.729468	4.403451	1.104413	-0.611084	0.12085	0.665527
951.0	2.961504	-10.731521	7.681828	-0.99897	4.694388	1.446642	-0.576904	0.13208	0.633057
952.0	4.873855	-9.482392	8.600139	0.54651	4.964796	1.742579	-0.544678	0.145508	0.611328
953.0	5.191691	-6.550482	8.625361	0.824345	5.355978	2.111696	-0.511719	0.132813	0.5896
954.0	5.07315	-5.189497	7.474058	0.822575	5.529649	2.553449	-0.49585	0.115967	0.576904
955.0	5.370726	-4.052962	6.980806	0.928821	5.523829	2.963627	-0.48584	0.083984	0.551025
956.0	6.131412	-2.779719	7.258129	0.927712	5.414882	3.289171	-0.489258	0.054199	0.522949
957.0	7.423388	-1.600605	7.830175	0.866589	5.328228	3.480279	-0.485596	0.018066	0.494873
958.0	8.874554	-0.402263	8.629836	0.811822	5.259954	3.525068	-0.47998	-0.015869	0.464844
959.0	10.621849	0.512752	9.579471	0.751527	5.318558	3.462294	-0.483398	-0.043457	0.43457
960.0	11.619543	1.440962	10.274386	0.746373	5.443294	3.25707	-0.493164	-0.077393	0.402344
961.0	12.577369	2.129561	10.850643	0.658172	5.558151	2.910389	-0.503174	-0.096436	0.369873
962.0	12.8437	2.043892	11.045674	0.45916	5.634799	2.519021	-0.513672	-0.108887	0.341553
963.0	13.089751	1.267282	11.027625	0.433472	5.584098	2.070251	-0.519531	-0.130127	0.313477
964.0	13.427967	0.574303	11.396104	0.497518	5.476191	1.635479	-0.528076	-0.134033	0.291992
965.0	13.76826	-0.419238	11.982211	0.477919	5.305318	1.258927	-0.54126	-0.135986	0.268066
966.0	14.951514	-1.314306	13.09606	0.457093	5.123622	0.961851	-0.552246	-0.12915	0.241943
967.0	17.055332	-1.755081	14.35447	0.275606	4.966813	0.809514	-0.576904	-0.118164	0.205078
968.0	20.277523	-2.145668	14.869128	-0.139118	4.963308	0.870035	-0.588867	-0.0896	0.163818
969.0	23.999116	-3.525083	14.561528	-0.823537	5.135272	1.143946	-0.585693	-0.065186	0.11377
970.0	28.56226	-6.970871	12.803727	-1.407474	5.492579	1.468953	-0.58252	-0.032227	0.059326
971.0	30.897488	-8.666535	8.000491	-1.112349	6.026	1.627739	-0.564209	-0.003662	0.013672
972.0	29.714976	-4.381378	1.044087	-0.147622	6.068297	1.737659	-0.547852	0.018555	-0.029785
973.0	28.186575	2.67017	-7.664953	0.59222	5.342447	1.973214	-0.526855	0.038574	-0.064453
974.0	26.645042	7.216346	-17.371646	-0.795898	4.486818	2.43817	-0.508789	0.073486	-0.097168
975.0	24.646013	2.418791	-22.079074	-3.351273	3.200047	2.490522	-0.494873	0.108154	-0.108154
976.0	30.151422	-1.544692	-26.836299	-1.267872	1.166156	1.69218	-0.490967	0.121094	-0.105957
977.0	34.167087	4.871164	-25.616401	2.478928	0.536793	0.734313	-0.488525	0.114502	-0.110352
978.0	28.584232	9.214191	-18.037582	1.004912	0.740104	0.396867	-0.482422	0.123291	-0.116699
979.0	21.026826	-2.169261	-12.152364	-2.06698	0.300836	0.274713	-0.487305	0.138184	-0.112549
980.0	6.719753	-11.202977	-22.625824	-0.466244	-1.356462	-0.687814	-0.491211	0.129639	-0.10376
981.0	4.77546	-3.418767	31.208109	6.3182	-5.731074	-0.684238	-0.513916	0.099121	-0.079834
982.0	11.9182	1.694	19.905217	3.015029	-1.190882	0.084463	-0.511475	0.090332	-0.073242
983.0	-18.300429	11.708239	-0.20386	2.035563	-0.653265	0.173331	-0.517578	0.081543	-0.055908
984.0	-17.700164	19.750245	3.943567	3.779302	-7.932675	-0.332718	-0.553955	0.067627	-0.001709
985.0	40.243375	20.793853	30.164342	1.396558	-8.910453	-1.327519	-0.575439	0.062744	0.037354
986.0	34.600257	11.170765	19.736471	-2.125601	-2.650937	-0.782227	-0.588867	0.075439	0.054443
987.0	12.832611	-6.592591	13.724633	-6.043272	-3.385251	-0.317482	-0.598389	0.09668	0.06958
988.0	17.17655	-24.956689	7.083008	-3.582168	-2.910036	0.550111	-0.605225	0.10498	0.095459
989.0	7.913451	-10.549603	4.655815	4.094067	-2.588892	-0.129131	-0.613037	0.078857	0.106445
990.0	5.563374	7.047353	12.775344	4.573876	-3.31414	-0.656978	-0.621582	0.076416	0.130371
991.0	15.099627	8.909815	14.273921	-0.21676	-2.022406	-0.289852	-0.623779	0.076172	0.138916
992.0	11.634118	-5.190913	11.278044	-4.116941	-0.49734	-0.138608	-0.615234	0.080566	0.138916
993.0	7.439616	-16.106055	2.936893	-1.716524	-0.240125	-0.293898	-0.621826	0.08252	0.145508
994.0	4.926896	-5.745074	7.53484	4.954314	-1.207925	-0.841324	-0.621094	0.065186	0.154297
995.0	10.966343	3.83965	12.431967	4.640109	-0.937007	-0.897564	-0.624756	0.050293	0.154297
996.0	4.989468	3.257221	11.450901	-0.556726	0.125251	-0.495025	-0.620605	0.054443	0.165039
997.0	8.25844	-2.737133	8.304492	-2.578966	-0.196027	-0.246113	-0.623047	0.058838	0.156494
998.0	6.022063	-5.393492	6.517954	0.30258	0.172499	-0.36989	-0.620361	0.050293	0.156494
999.0	5.05506	-0.742066	8.750633	1.973159	-0.488357	-0.527842	-0.62207	0.037354	0.158691
1000.0	7.697341	1.465221	10.08391	0.79585	-0.226962	-0.377672	-0.61792	0.043701	0.163086
1001.0	5.555266	-0.116704	8.720819	-0.532134	-0.135807	-0.20182	-0.62207	0.039307	0.165283
1002.0	6.264431	-2.070859	7.85345	-0.274115	-0.221007	-0.149295	-0.61792	0.043457	0.171631
1003.0	5.80084	-1.275599	8.351446	0.285098	-0.279408	-0.155454	-0.624268	0.037109	0.171631
1004.0	5.972509	-1.279647	8.353787	-0.024034	-0.248121	-0.147629	-0.626465	0.039063	0.176025
1005.0	5.814971	-1.93884	8.038943	-0.006085	-0.221451	-0.172255	-0.624268	0.037109	0.173828
1006.0	5.784106	-1.872867	8.062914	0.113712	-0.217882	-0.208614	-0.624268	0.034912	0.178223
1007.0	5.701272	-1.678549	8.142908	0.130471	-0.191909	-0.223786	-0.624023	0.032715	0.173828
1008.0	5.790049	-1.723993	8.097877	0.087755	-0.179394	-0.231548	-0.624023	0.032715	0.178223
1009.0	5.657831	-1.67986	7.971521	0.095774	-0.157263	-0.237061	-0.626221	0.032471	0.184814
1010.0	5.530121	-1.423292	8.107049	0.131688	-0.159734	-0.235796	-0.625977	0.026123	0.178223
1011.0	5.477003	-1.334894	8.170543	0.085072	-0.162958	-0.230129	-0.625977	0.026123	0.18042
1012.0	5.534473	-1.521013	8.143158	0.058072	-0.163464	-0.247648	-0.624023	0.030518	0.18042
1013.0	5.694601	-1.589527	7.889795	0.125945	-0.169876	-0.277491	-0.625977	0.026123	0.184814
1014.0	5.809912	-1.31612	8.054255	0.233115	-0.159624	-0.30005	-0.623779	0.026123	0.187012
1015.0	5.773132	-1.117738	7.894516	0.203104	-0.138903	-0.311081	-0.628174	0.023926	0.182617
1016.0	5.827342	-0.93128	7.922738	0.22709	-0.115784	-0.320395	-0.621094	0.015381	0.187012
1017.0	5.810129	-1.036146	7.902621	0.147802	-0.083786	-0.328522	-0.623535	0.019531	0.189209
1018.0	5.349353	-1.232664	7.914786	0.10201	-0.050133	-0.349589	-0.627686	0.013184	0.182617
1019.0	5.323518	-0.986125	7.878154	0.176102	-0.080851	-0.349161	-0.625488	0.013184	0.191406
1020.0	5.311589	-0.652966	7.977099	0.169449	-0.093204	-0.318865	-0.625244	0.009033	0.184814
1021.0	5.133331	-0.662964	8.16846	-0.006116	-0.111207	-0.301436	-0.625244	0.006592	0.193604
1022.0	4.87551	-0.919446	8.137735	-0.076431	-0.168208	-0.287901	-0.625244	0.006592	0.197754
1023.0	5.087753	-1.100952	8.208222	-0.0704	-0.238815	-0.297891	-0.625	0.004395	0.197754
1024.0	5.066555	-1.071801	8.212159	-0.077781	-0.317309	-0.326294	-0.625	0.004395	0.197754
1025.0	5.531747	-0.719188	8.327733	-0.027902	-0.433665	-0.314514	-0.624756	-0.00415	0.199951
1026.0	5.602662	-0.941089	8.352862	-0.22105	-0.494554	-0.314078	-0.622803	0.0	0.204346
1027.0	5.649091	-1.509112	8.339106	-0.271144	-0.601133	-0.341375	-0.62915	-0.00415	0.202148
1028.0	5.400678	-1.120953	8.401884	-0.08502	-0.751389	-0.376771	-0.622559	-0.006592	0.22168
1029.0	5.650206	-0.342431	8.481124	-0.054845	-0.925162	-0.375831	-0.628906	-0.010986	0.223877
1030.0	5.942844	-0.509367	8.805153	-0.336792	-1.099914	-0.323993	-0.628906	-0.010986	0.232666
1031.0	5.513283	-1.087857	8.724429	-0.386664	-1.329958	-0.290482	-0.633057	-0.01123	0.236816
1032.0	4.695556	-0.733128	9.43275	-0.051725	-1.739188	-0.273679	-0.633057	-0.013428	0.247803
1033.0	5.186089	-0.968718	9.507616	-0.28126	-2.1471	-0.321119	-0.633057	-0.013672	0.265137
1034.0	4.648927	-1.244141	10.416247	-0.249181	-2.567184	-0.425507	-0.632813	-0.016113	0.291016
1035.0	4.136461	-1.128943	10.212294	-0.048209	-3.193787	-0.436871	-0.630371	-0.022949	0.310791
1036.0	3.885603	-1.398655	11.918557	-0.07452	-3.940359	-0.348299	-0.636963	-0.016846	0.334473
1037.0	3.520148	-2.732942	12.982547	-0.715637	-4.440952	-0.390098	-0.634766	-0.019531	0.373535
1038.0	2.006295	-4.387825	13.303093	-0.915296	-4.975927	-0.595755	-0.63208	-0.028564	0.408203
1039.0	0.491726	-6.242488	12.186179	-0.275799	-6.171267	-1.046618	-0.623047	-0.035645	0.45166
1040.0	-0.87667	-7.771915	12.584093	0.430975	-7.383315	-1.797715	-0.609375	-0.047119	0.503662
1041.0	-0.109436	-5.343763	11.986223	1.760589	-8.818935	-2.247006	-0.585205	-0.047852	0.571045
1042.0	9.758763	0.111457	14.067315	1.517037	-10.917458	-2.286006	-0.552002	-0.059326	0.634033
1043.0	22.36388	3.133657	16.865986	-0.260712	-11.198581	-2.222629	-0.516602	-0.068848	0.709961
1044.0	20.759193	-1.59336	8.661332	-1.988347	-10.495311	-2.015066	-0.468018	-0.088623	0.755615
1045.0	14.564564	-4.545527	7.320624	-2.355637	-10.739626	-2.450971	-0.4104	-0.110596	0.812256
1046.0	15.220857	-4.467579	12.263255	-3.518169	-11.283637	-2.538088	-0.354736	-0.136963	0.862305
1047.0	14.07082	-3.006234	14.445873	-5.690073	-12.507285	-3.334901	-0.270264	-0.182373	0.897217
1048.0	31.012208	-11.974174	24.132795	-4.698712	-12.098023	-3.726652	-0.214844	-0.205811	0.90625
1049.0	62.092982	-28.101214	57.06736	-1.086819	-0.854855	-1.050996	-0.219238	-0.208008	0.90625
1050.0	28.613327	-21.127643	34.261967	-1.492794	6.921909	0.995407	-0.269287	-0.205811	0.880127
1051.0	0.010508	-16.210167	13.733673	-1.096374	8.934476	1.394302	-0.317383	-0.203369	0.856201
1052.0	-8.097692	-13.212151	3.35573	1.075891	7.225541	1.174875	-0.357178	-0.19043	0.845215
1053.0	-8.279264	-4.660422	3.608972	3.601597	5.699635	1.053488	-0.390381	-0.17334	0.84082
1054.0	-7.107101	0.470466	3.925423	2.81382	5.328668	1.15693	-0.424072	-0.147461	0.82959
1055.0	-2.812148	2.137979	8.1048	-0.598425	4.079841	1.843864	-0.449951	-0.153809	0.81665
1056.0	6.546289	-3.001141	12.046445	-4.692217	4.25231	2.413473	-0.484863	-0.155762	0.792725
1057.0	10.320069	-13.932954	8.430229	-3.245442	5.774737	2.920335	-0.524414	-0.146973	0.755859
1058.0	5.28777	-9.465261	7.345266	2.004365	5.814875	2.932967	-0.562744	-0.114746	0.749023
1059.0	8.047477	-1.133613	10.298146	2.653894	5.710661	3.047543	-0.592285	-0.082031	0.716309
1060.0	8.687851	1.900508	8.981147	1.272407	6.367775	3.489138	-0.637695	-0.038818	0.689941
1061.0	7.967066	2.026958	7.66952	0.644963	6.285542	3.789427	-0.671875	-0.001953	0.655029
1062.0	9.851738	2.659198	8.050095	0.741447	6.12835	3.797376	-0.708496	0.043457	0.620117
1063.0	10.604126	3.977297	8.233719	0.9029	6.123235	3.583541	-0.740723	0.087158	0.574463
1064.0	11.935524	4.900109	8.875445	0.741196	5.976926	3.215092	-0.761963	0.126465	0.526367
1065.0	12.435717	3.957249	9.37595	0.289957	6.031425	2.770908	-0.783203	0.167969	0.458984
1066.0	12.594528	2.822757	9.71655	0.470741	5.910507	2.164299	-0.797852	0.201172	0.393799
1067.0	13.732704	2.359259	10.805811	0.687534	5.815235	1.545674	-0.794434	0.221436	0.326416
1068.0	14.181463	1.761685	11.559082	0.649706	5.728118	1.044488	-0.782227	0.244141	0.250488
1069.0	15.624752	0.84303	12.537909	0.442644	5.639345	0.680924	-0.776123	0.249268	0.178955
1070.0	17.566839	-0.991179	13.169289	0.09947	5.588916	0.465467	-0.748047	0.252686	0.109619
1071.0	20.423671	-2.489388	14.01084	-0.111294	5.568971	0.40667	-0.711182	0.249268	0.055664
1072.0	23.702716	-3.231098	14.347234	-0.353437	5.71805	0.602766	-0.682617	0.241455	-0.00293
1073.0	26.646352	-4.58272	13.396436	-0.774096	6.014825	1.059977	-0.639404	0.248779	-0.054932
1074.0	28.245297	-6.154095	10.324719	-0.910765	6.398325	1.395046	-0.604492	0.243164	-0.106689
1075.0	27.312784	-7.612593	-4.778655	-0.671169	5.93971	1.893464	-0.563232	0.243896	-0.13916
1076.0	30.094	-5.510986	-7.055662	0.359376	4.619489	1.76598	-0.541748	0.250732	-0.171631
1077.0	35.200399	1.562235	-6.221162	1.906819	4.304868	2.208196	-0.508545	0.236084	-0.19751
1078.0	29.208813	4.181825	-19.748528	1.176268	4.401484	2.324065	-0.484863	0.240723	-0.212646
1079.0	23.925831	6.098804	-23.510976	0.288764	3.464695	2.24878	-0.461426	0.249756	-0.23877
1080.0	26.312323	5.909354	-25.523652	-0.538684	1.083674	1.580122	-0.459473	0.256348	-0.23877
1081.0	29.726556	3.673909	-30.39139	-0.094084	-0.284091	0.662598	-0.465576	0.245605	-0.236572
1082.0	26.879303	1.479426	-33.703658	1.211846	-1.194235	-0.503525	-0.47168	0.234619	-0.234375
1083.0	20.316819	4.418872	-24.5933	3.111467	-2.813469	-1.384814	-0.492676	0.215088	-0.219238
1084.0	7.397993	5.292655	52.316319	-2.151153	-4.79907	-1.238938	-0.521484	0.229736	-0.193359
1085.0	8.375079	-15.148123	17.216914	-2.846781	-0.421246	-0.25375	-0.519043	0.220947	-0.195313
1086.0	-23.062469	0.215261	-11.484883	5.999098	-1.622981	-1.466576	-0.549316	0.164795	-0.179932
1087.0	3.465038	17.583693	18.242295	8.098826	-13.02277	-1.165415	-0.611328	0.137451	-0.093262
1088.0	74.666539	17.020419	32.199799	-3.453395	-5.800071	-0.201398	-0.62085	0.158936	-0.080322
1089.0	8.047511	-0.671566	10.774903	-4.955378	1.537215	0.012604	-0.625732	0.175781	-0.067383
1090.0	3.250262	-9.271043	10.741929	-3.803716	-4.38875	-0.082238	-0.647949	0.188477	-0.043701
1091.0	17.973719	-8.011917	4.718389	2.491982	-2.157844	0.121396	-0.642822	0.166748	-0.032715
1092.0	3.276436	1.151554	13.170325	2.811796	-1.556765	-0.176702	-0.655518	0.162109	-0.021973
1093.0	9.732513	-0.125912	10.8026	-0.910684	-1.74619	-0.129964	-0.664307	0.162109	-0.013184
1094.0	14.536826	-6.058052	9.7809	-2.249931	-0.458979	-0.068968	-0.6604	0.172852	-0.01123
1095.0	4.922512	-5.687805	6.339518	1.155932	-0.019217	-0.480588	-0.664307	0.164063	-0.009033
1096.0	8.111119	-2.61045	10.607448	1.86132	-0.914641	-0.591036	-0.670654	0.155518	-0.015381
1097.0	8.411143	0.307383	9.13888	1.610236	0.196791	-0.632511	-0.667725	0.140625	-0.010986
1098.0	3.036347	0.62901	9.271256	0.679373	-0.144688	-0.591367	-0.669922	0.140381	-0.008789
1099.0	9.182829	-2.580106	9.462234	-0.430114	-0.160412	-0.44943	-0.667725	0.138428	-0.013184
1100.0	5.091994	-2.501095	7.626812	0.573816	0.203942	-0.479081	-0.66748	0.131836	-0.008789
1101.0	5.583071	0.226539	9.273718	1.255727	-0.301287	-0.467059	-0.671387	0.123291	-0.002197
1102.0	6.639958	0.979093	9.469164	0.372682	-0.06833	-0.326481	-0.666992	0.116943	-0.008789
1103.0	5.763399	-0.811808	8.50594	-0.234179	-0.10071	-0.207125	-0.671143	0.114746	-0.008789
1104.0	5.624061	-1.771914	8.184799	0.101977	-0.124635	-0.190867	-0.664795	0.116699	-0.002197
1105.0	5.495988	-1.096552	8.473326	0.257821	-0.175041	-0.192048	-0.668945	0.112305	-0.002197
1106.0	5.643046	-1.003507	8.398979	0.121009	-0.151985	-0.177318	-0.664551	0.112549	-0.002197
1107.0	5.54324	-1.184079	8.307479	0.10889	-0.144792	-0.177557	-0.673096	0.110107	0.002197
1108.0	5.524855	-1.017472	8.314177	0.137415	-0.132923	-0.179078	-0.668701	0.110352	-0.002197
1109.0	5.638008	-0.926044	8.256588	0.107667	-0.127175	-0.175414	-0.668457	0.10376	0.0
1110.0	5.616997	-0.831645	8.317297	0.092578	-0.10744	-0.160678	-0.675293	0.108154	0.0
1111.0	5.55654	-0.823327	8.259458	0.068155	-0.09187	-0.146654	-0.675049	0.10376	0.006592
1112.0	5.448573	-0.937505	8.291155	0.047912	-0.083897	-0.143619	-0.675049	0.101563	0.0
1113.0	5.411955	-0.979703	8.218497	0.031261	-0.088937	-0.141229	-0.670654	0.101563	0.0
1114.0	5.305029	-0.84011	8.225846	0.076381	-0.09272	-0.141065	-0.675049	0.101563	0.004395
1115.0	5.324311	-0.555929	8.316599	0.061687	-0.115173	-0.130518	-0.674561	0.093018	0.004395
1116.0	5.355774	-0.448207	8.325149	0.028455	-0.121725	-0.117313	-0.679199	0.099365	0.004395
1117.0	5.287857	-0.535595	8.199318	-0.017834	-0.132426	-0.105059	-0.672607	0.099365	0.008789
1118.0	5.30621	-0.560442	8.210147	-0.026405	-0.141712	-0.10511	-0.674805	0.097168	0.008789
1119.0	5.127715	-0.734251	8.257528	-0.069719	-0.141799	-0.117949	-0.677002	0.097168	0.008789
1120.0	5.118042	-1.132254	8.157014	-0.112113	-0.146549	-0.146552	-0.677002	0.097168	0.002197
1121.0	5.222374	-1.143273	8.028342	-0.035511	-0.161987	-0.166443	-0.678955	0.092773	0.013184
1122.0	5.126688	-1.035325	8.154453	-0.009038	-0.161328	-0.185033	-0.679199	0.097168	0.010986
1123.0	5.254214	-1.009373	8.162928	-0.019942	-0.172332	-0.205625	-0.680908	0.084229	0.015381
1124.0	4.983247	-1.255645	8.19449	-0.095278	-0.156734	-0.230038	-0.6875	0.090576	0.013184
1125.0	4.875254	-1.207917	8.131823	-0.021306	-0.206598	-0.289492	-0.680908	0.088379	0.019531
1126.0	5.154165	-0.814985	8.317511	0.051418	-0.252647	-0.309333	-0.680908	0.088379	0.017334
1127.0	5.187298	-0.713373	8.37029	-0.052495	-0.288615	-0.296698	-0.678711	0.088379	0.019531
1128.0	5.367378	-1.017026	8.360196	-0.151109	-0.331129	-0.308681	-0.682861	0.077637	0.019531
1129.0	5.263699	-1.324176	8.400305	-0.155153	-0.38042	-0.35057	-0.682861	0.077637	0.021729
1130.0	5.155938	-1.110925	8.632325	-0.066441	-0.499449	-0.405599	-0.689209	0.077393	0.02832
1131.0	5.407492	-0.897017	8.696841	-0.079772	-0.647022	-0.418939	-0.691162	0.072998	0.037109
1132.0	5.241717	-0.470185	8.551046	-0.09132	-0.790993	-0.45097	-0.693115	0.064453	0.04126
1133.0	5.568155	0.385902	8.752945	0.016003	-1.004124	-0.406139	-0.695313	0.064453	0.045654
1134.0	5.75542	0.1422	9.124918	-0.328744	-1.180106	-0.322559	-0.701904	0.068359	0.058594
1135.0	5.127315	-1.344795	9.032544	-0.543148	-1.392498	-0.294531	-0.699219	0.057373	0.073975
1136.0	4.247495	-0.896173	9.62336	0.045734	-1.90042	-0.347832	-0.710205	0.061523	0.093262
1137.0	4.931265	-0.961481	9.935326	-0.194569	-2.349177	-0.427489	-0.716553	0.059082	0.110596
1138.0	4.067865	-1.107558	10.849068	-0.182171	-2.852554	-0.524257	-0.714355	0.054443	0.130127
1139.0	3.936553	-1.34328	10.686784	-0.027	-3.504218	-0.580807	-0.7229	0.051758	0.165039
1140.0	4.095704	-1.790667	11.622486	0.12003	-4.274893	-0.565438	-0.735352	0.042725	0.195313
1141.0	2.922353	-2.444369	13.750865	-0.419368	-4.724808	-0.69631	-0.743652	0.033691	0.236572
1142.0	1.905133	-4.535814	12.753625	-0.788466	-5.249352	-0.991441	-0.747803	0.026611	0.279785
1143.0	-0.076518	-7.428105	12.320544	0.052874	-6.520323	-1.560826	-0.74707	0.010742	0.338379
1144.0	0.317408	-7.771625	12.251845	1.268167	-7.721681	-2.298185	-0.746338	-0.003174	0.39917
1145.0	2.886344	-4.262574	11.994484	2.380303	-8.902868	-2.63677	-0.732178	-0.025635	0.479492
1146.0	12.942028	1.968293	14.262701	1.99975	-10.499187	-2.597244	-0.716064	-0.043945	0.564209
1147.0	22.565781	3.979064	15.511264	-0.338038	-10.482528	-2.33683	-0.682373	-0.066406	0.640137
1148.0	15.465351	-2.579926	6.177844	-1.799616	-10.117251	-2.195118	-0.646484	-0.09082	0.709717
1149.0	15.428529	-3.705252	10.416403	-2.381864	-10.602739	-2.283154	-0.597412	-0.117432	0.772949
1150.0	14.652341	-3.48259	9.710545	-4.190472	-11.0984	-2.745432	-0.536865	-0.156738	0.835938
1151.0	16.275696	-4.729371	15.202251	-5.900319	-12.20338	-3.343081	-0.463135	-0.206543	0.884033
1152.0	45.179334	-19.174052	41.48021	-2.616498	-8.571774	-2.773065	-0.429688	-0.22168	0.903809
1153.0	54.635825	-25.764101	50.561912	-1.324344	2.571203	0.034298	-0.46875	-0.232178	0.866943
1154.0	11.561255	-18.405172	25.998636	-2.127425	8.074646	1.512221	-0.51001	-0.23584	0.810547
1155.0	-6.632706	-15.113471	7.382064	-1.418282	8.040266	1.693946	-0.553955	-0.230957	0.760498
1156.0	-11.389726	-9.09168	2.497012	2.093928	5.771571	1.723595	-0.576416	-0.211426	0.732178
1157.0	-9.924536	-1.393822	3.437033	3.139924	4.613257	1.686401	-0.596924	-0.19165	0.708252
1158.0	-5.917964	1.464372	6.597565	0.831243	3.520584	2.116514	-0.610107	-0.185059	0.686523
1159.0	2.300488	-0.866647	12.110803	-3.085299	3.275008	2.566843	-0.62793	-0.180176	0.645264
1160.0	10.345486	-10.016769	11.61338	-3.571807	4.66976	2.946246	-0.649902	-0.17334	0.601807
1161.0	6.012853	-9.379563	8.62049	0.891729	5.482188	2.953258	-0.661621	-0.155518	0.560547
1162.0	6.482936	-1.246585	10.794403	2.537684	5.276236	2.934754	-0.677979	-0.129395	0.523438
1163.0	7.991375	2.722808	10.118107	1.491631	5.967686	3.213371	-0.689697	-0.113525	0.473633
1164.0	6.672049	3.090267	8.189567	0.395933	6.156683	3.519004	-0.699219	-0.09375	0.432373
1165.0	8.1616	2.494764	8.012292	0.108187	5.925667	3.545474	-0.702393	-0.071533	0.388916
1166.0	9.418221	3.129989	8.134357	0.361406	5.922782	3.383075	-0.705566	-0.047363	0.347412
1167.0	10.528184	3.793579	8.644069	0.355751	5.815137	3.05761	-0.69751	-0.033691	0.299805
1168.0	11.589826	3.536513	8.963367	0.214403	5.832617	2.680858	-0.697998	-0.020508	0.275879
1169.0	11.694774	3.503016	9.512358	0.351647	5.791645	2.228738	-0.687744	-0.009277	0.234619
1170.0	12.459967	2.922482	10.163276	0.323956	5.724355	1.727464	-0.679443	0.002197	0.195557
1171.0	12.457619	2.039912	10.493429	0.352137	5.633568	1.275637	-0.675293	0.004883	0.158691
1172.0	12.66574	1.555982	10.950337	0.330492	5.475347	0.905736	-0.664551	0.007568	0.119629
1173.0	12.792897	0.257469	11.183887	0.11622	5.247537	0.610023	-0.653809	0.010254	0.084961
1174.0	13.424606	-1.282933	11.166063	0.053788	4.947217	0.347895	-0.636719	0.014893	0.054688
1175.0	14.104429	-1.858323	11.178491	0.137328	4.582595	0.176148	-0.625732	0.01123	0.022217
1176.0	15.965253	-2.061388	11.328745	0.002188	4.132715	0.16002	-0.61499	0.011719	-0.008057
1177.0	20.333481	-2.647702	12.593588	-0.29738	3.647887	0.299299	-0.606201	0.009766	-0.03418
1178.0	30.927888	-5.012943	15.029184	-0.466533	3.57426	0.513877	-0.589111	0.018799	-0.062256
1179.0	39.954522	-5.645983	13.731663	-0.061946	4.816974	0.840211	-0.573975	0.019531	-0.096924
1180.0	37.840356	-1.337069	6.373509	0.296557	6.244428	1.369156	-0.543945	0.026611	-0.140137
1181.0	31.235616	2.625504	-6.895819	0.377412	6.418066	1.947428	-0.518311	0.037842	-0.175049
1182.0	23.322619	3.945226	-20.991209	-0.057398	5.737564	2.455848	-0.48877	0.055664	-0.211914
1183.0	19.4766	4.151649	-27.4902	-1.115729	4.254019	2.404378	-0.471924	0.075439	-0.231445
1184.0	24.265837	4.089045	-26.373106	-1.69869	1.028126	2.016002	-0.477051	0.092529	-0.231445
1185.0	34.802074	3.662717	-23.99877	-0.906562	-0.051012	1.430031	-0.470947	0.101318	-0.233643
1186.0	27.181988	0.635572	-25.265159	0.597217	1.67979	0.554167	-0.463867	0.09082	-0.250977
1187.0	13.683453	-3.395185	-32.686898	1.54396	-0.054399	-0.289777	-0.474121	0.075439	-0.23999
1188.0	5.998566	2.401521	-8.706296	4.140461	-4.440817	-1.117635	-0.512451	0.05127	-0.214111
1189.0	21.957708	5.146778	45.636091	0.364605	-6.114688	-0.173809	-0.53418	0.053223	-0.190186
1190.0	5.271396	-5.321201	14.729663	-0.6061	0.942427	0.13372	-0.527344	0.046875	-0.196777
1191.0	-27.382692	9.582448	-7.474496	6.202647	-1.303233	-0.360416	-0.551758	0.000977	-0.161865
1192.0	-5.171977	24.335163	7.347425	6.75126	-12.931801	-0.456318	-0.624756	-0.017578	-0.072998
1193.0	76.334991	23.713643	40.178318	-3.888661	-7.868241	-0.25075	-0.636475	0.001465	-0.055664
1194.0	19.572141	-0.472025	8.866351	-5.830759	1.699689	-0.025897	-0.637207	0.020996	-0.064453
1195.0	2.853707	-14.075918	13.398484	-6.785449	-3.542375	-0.065541	-0.651123	0.044189	-0.040771
1196.0	17.118165	-15.523794	1.106472	2.31955	-2.011272	0.379594	-0.661621	0.033203	-0.025635
1197.0	3.538419	1.826565	14.337814	5.916209	-1.704391	-0.472755	-0.664795	0.00708	-0.008057
1198.0	12.766581	5.1987	11.739135	1.087818	-1.466647	-0.314761	-0.671387	0.009277	-0.006104
1199.0	13.266075	-1.627825	11.148294	-4.046452	-0.153586	0.0572	-0.667725	0.024414	-0.010498
1200.0	9.56963	-10.950526	6.646587	-2.356795	0.215539	0.004994	-0.667725	0.026367	-0.006104
1201.0	5.907331	-5.337544	5.472161	3.240058	-0.227363	-0.452941	-0.671143	0.002686	-0.001709
1202.0	5.123966	4.388756	11.504892	4.001245	-0.490627	-0.52818	-0.672852	-0.008057	-0.001465
1203.0	5.525017	3.996968	11.193153	-0.70902	-0.036426	-0.132645	-0.673096	-0.001709	-0.001709
1204.0	6.904718	-2.812381	8.756026	-3.268748	0.06368	0.092689	-0.669189	0.009277	-0.003906
1205.0	4.784672	-5.459135	5.746235	-0.009232	0.073539	-0.067534	-0.666992	0.00708	0.000488
1206.0	4.966025	-0.380146	8.963539	1.930955	-0.526076	-0.186142	-0.670898	-0.001709	0.002686
1207.0	6.570205	2.309401	10.185391	0.479704	-0.275058	-0.017155	-0.67749	-0.001709	0.00708
1208.0	5.809918	-0.181624	8.823027	-1.10587	-0.215121	0.148774	-0.675293	-0.001709	0.000488
1209.0	5.57936	-2.953029	7.61821	-0.7354	-0.207215	0.135929	-0.682129	0.004639	0.009277
1210.0	5.380385	-2.498569	7.84238	0.144805	-0.331297	-0.005945	-0.679932	0.002441	0.011475
1211.0	5.714683	-1.880141	8.351898	0.027327	-0.266437	-0.061966	-0.675537	0.000488	0.009277
1212.0	5.885271	-2.35476	7.967107	0.013802	-0.224942	-0.119139	-0.675537	0.002441	0.015625
1213.0	5.509908	-2.18922	8.177153	0.144499	-0.179849	-0.17332	-0.677734	0.002441	0.015625
1214.0	5.540497	-2.011582	8.122808	0.124638	-0.152155	-0.211437	-0.679688	0.000244	0.02002
1215.0	5.330144	-1.658048	8.172553	0.171749	-0.136837	-0.229451	-0.679443	-0.006104	0.017822
1216.0	5.461479	-1.366241	8.243671	0.139839	-0.142306	-0.221332	-0.679688	-0.001953	0.022217
1217.0	5.351196	-1.300819	8.219388	0.066361	-0.131712	-0.192076	-0.681641	-0.008545	0.022217
1218.0	5.232959	-1.142052	8.299609	0.061263	-0.159631	-0.163777	-0.681396	-0.010498	0.017822
1219.0	5.218752	-1.054812	8.292053	0.03926	-0.186997	-0.141293	-0.677246	-0.006348	0.022217
1220.0	5.291293	-1.166085	8.194375	-0.019361	-0.192237	-0.136574	-0.681396	-0.014893	0.026611
1221.0	5.399252	-1.242241	8.148311	-0.013361	-0.205927	-0.136749	-0.681396	-0.010742	0.026611
1222.0	5.55783	-1.00822	8.020669	0.032464	-0.216557	-0.137472	-0.681396	-0.010742	0.035156
1223.0	5.332893	-1.016057	8.146181	-0.056006	-0.200413	-0.129558	-0.683594	-0.014893	0.026611
1224.0	5.26734	-1.359272	8.024658	-0.127987	-0.200884	-0.134431	-0.692139	-0.01709	0.028809
1225.0	5.392022	-1.314831	7.978385	-0.053092	-0.22335	-0.143358	-0.677002	-0.014893	0.033203
1226.0	5.477871	-1.02179	8.022646	-0.039551	-0.232845	-0.138425	-0.692139	-0.019287	0.0354
1227.0	5.416916	-1.111446	8.024885	-0.140969	-0.232628	-0.134772	-0.681152	-0.017334	0.037354
1228.0	5.371935	-1.336528	8.040164	-0.175451	-0.255015	-0.14221	-0.689941	-0.017334	0.037354
1229.0	5.433375	-1.446434	8.037942	-0.178678	-0.27304	-0.174237	-0.687744	-0.019287	0.0354
1230.0	5.638582	-1.540917	7.997933	-0.16222	-0.292293	-0.212512	-0.6875	-0.021729	0.041748
1231.0	5.576431	-1.460984	8.051228	-0.143334	-0.313855	-0.238849	-0.685303	-0.021729	0.043945
1232.0	5.550589	-1.270207	8.140373	-0.125908	-0.366266	-0.250464	-0.685059	-0.028076	0.04834
1233.0	5.464312	-1.556503	8.163467	-0.233368	-0.382216	-0.264943	-0.689697	-0.019531	0.050537
1234.0	5.335649	-1.826199	8.167585	-0.217199	-0.464028	-0.295244	-0.696045	-0.026123	0.054932
1235.0	5.390234	-1.648185	8.384601	-0.143082	-0.557543	-0.326729	-0.693848	-0.026123	0.054932
1236.0	5.373327	-1.395831	8.39509	-0.161512	-0.670596	-0.345334	-0.702393	-0.02832	0.061279
1237.0	5.483576	-1.246549	8.528537	-0.198422	-0.82109	-0.334103	-0.698242	-0.028564	0.070068
1238.0	5.494536	-0.658383	8.553848	-0.134597	-1.030366	-0.295828	-0.700195	-0.032715	0.070068
1239.0	5.794397	-0.556636	8.653329	-0.221608	-1.235254	-0.193456	-0.706543	-0.032959	0.087402
1240.0	5.19014	-0.381652	9.29771	-0.153192	-1.536284	-0.097406	-0.70874	-0.031006	0.09375
1241.0	5.03165	-1.177035	9.13463	-0.368718	-1.871304	-0.081375	-0.713135	-0.033447	0.115479
1242.0	4.838495	-1.514217	9.317041	-0.21413	-2.297777	-0.119013	-0.719482	-0.035889	0.128418
1243.0	4.996064	-1.411058	9.799651	-0.173511	-2.780731	-0.225294	-0.732422	-0.036133	0.152344
1244.0	4.656749	-2.000523	10.059919	-0.235192	-3.180228	-0.252265	-0.732422	-0.038818	0.182617
1245.0	4.554077	-2.312785	10.145744	-0.111587	-3.848604	-0.320719	-0.734619	-0.036865	0.206543
1246.0	4.216014	-2.264154	12.338058	-0.563625	-4.414769	-0.279167	-0.740967	-0.039795	0.25
1247.0	4.157837	-4.734992	12.547421	-1.331189	-4.596982	-0.481301	-0.745117	-0.042236	0.282471
1248.0	0.004887	-6.65613	11.285553	-0.885533	-5.337516	-0.947021	-0.746826	-0.051514	0.325684
1249.0	-1.169368	-6.199319	11.573312	0.303178	-6.685547	-1.558671	-0.750244	-0.06958	0.382324
1250.0	-1.813752	-4.048418	12.040992	1.126449	-8.140681	-1.897153	-0.736572	-0.081299	0.456055
1251.0	6.10829	-1.141079	13.855341	0.480555	-10.427468	-1.947514	-0.720947	-0.088867	0.540527
1252.0	18.253386	0.833344	16.676276	-0.137973	-11.186287	-2.072372	-0.693848	-0.109131	0.623047
1253.0	21.691736	-1.631518	10.83563	-1.682704	-10.715422	-1.866087	-0.657959	-0.129395	0.694824
1254.0	18.196131	-2.600772	3.594622	-1.423934	-10.912207	-2.040141	-0.613525	-0.149658	0.770752
1255.0	16.447391	0.859372	11.608761	-2.70406	-11.205997	-2.046871	-0.562012	-0.182373	0.827393
1256.0	14.674916	-2.012356	14.14325	-6.2691	-11.482985	-2.118296	-0.490967	-0.219482	0.875488
1257.0	12.653354	-6.405409	9.343997	-7.679591	-13.074964	-3.133733	-0.407959	-0.277832	0.916992
1258.0	26.01429	-18.3453	21.283028	-5.0223	-11.330544	-3.158095	-0.358643	-0.312256	0.943359
1259.0	60.73867	-28.71906	47.38261	0.239311	-1.910671	-1.406587	-0.365234	-0.310059	0.938965
1260.0	36.307938	-24.247509	38.445118	-0.669206	6.211705	0.852232	-0.417725	-0.307617	0.893311
1261.0	8.478195	-16.21741	15.295184	0.929848	8.869544	1.336583	-0.475098	-0.294434	0.858398
1262.0	2.849842	-10.770899	9.416627	2.894204	8.020171	1.173528	-0.521484	-0.274658	0.817139
1263.0	3.502107	-3.468801	6.70713	3.91812	8.249374	0.90474	-0.568359	-0.250732	0.784424
1264.0	-2.381743	1.487136	2.077467	3.776681	8.851598	0.651375	-0.612549	-0.23291	0.72998
1265.0	-6.117715	4.07105	0.390672	2.415769	8.104948	0.822624	-0.641357	-0.22168	0.68457
1266.0	-3.319622	3.775228	3.726592	-2.115458	5.422326	1.16967	-0.665283	-0.223389	0.645508
1267.0	8.33375	-2.872595	9.249034	-5.607386	5.160851	1.783062	-0.689697	-0.220459	0.58252
1268.0	10.582211	-13.635907	4.956555	-3.219855	7.067099	2.147208	-0.71167	-0.213135	0.517334
1269.0	4.411573	-9.138457	4.044572	2.177673	6.623744	2.222719	-0.728271	-0.184814	0.476074
1270.0	9.340855	-1.117001	8.447896	2.968386	6.032038	2.292764	-0.744385	-0.164795	0.426025
1271.0	10.133445	2.615375	7.624609	1.484283	6.859767	2.696135	-0.749512	-0.146973	0.374023
1272.0	7.977173	3.518756	5.593321	0.433303	6.691734	3.001243	-0.761719	-0.11377	0.312988
1273.0	9.196823	3.730339	6.310396	-0.276635	6.188712	3.084703	-0.762451	-0.100098	0.258789
1274.0	10.676506	2.094081	6.879769	-0.802571	5.989175	2.946751	-0.754883	-0.07373	0.206787
1275.0	11.309452	0.17007	7.499721	-0.632405	5.784317	2.604929	-0.749023	-0.060059	0.152344
1276.0	12.411524	0.145063	8.612736	0.064954	5.564209	2.113235	-0.738525	-0.052979	0.109131
1277.0	13.085314	1.097511	9.705708	0.277294	5.472575	1.701422	-0.730225	-0.045898	0.065674
1278.0	12.398142	0.71252	10.093711	0.103052	5.31813	1.414736	-0.717041	-0.049561	0.024658
1279.0	12.592038	0.108108	10.726794	0.051304	5.010535	1.19002	-0.695557	-0.04248	-0.008057
1280.0	13.383686	-1.067356	11.31492	-0.162954	4.713639	1.047313	-0.686768	-0.046143	-0.046875
1281.0	15.233312	-2.730761	12.359141	-0.375962	4.301599	1.029373	-0.676025	-0.043701	-0.072998
1282.0	20.24328	-4.577592	14.494066	-0.565159	3.924805	1.211321	-0.665771	-0.02832	-0.092529
1283.0	29.067944	-7.755954	16.676658	-0.551832	4.016935	1.558748	-0.65332	-0.014893	-0.127197
1284.0	38.77746	-11.005074	16.669892	0.075422	5.045488	1.91879	-0.63623	-0.007813	-0.16626
1285.0	40.269063	-10.044549	10.561235	1.152333	6.60843	2.20245	-0.606201	0.001465	-0.209473
1286.0	35.857619	-4.07057	0.82232	2.321924	7.325306	2.402598	-0.567383	0.004395	-0.259277
1287.0	31.178659	2.675389	-13.439523	3.169959	6.933584	2.503241	-0.532227	-0.003418	-0.296143
1288.0	24.560897	8.365312	-27.583684	3.135816	6.277935	2.470319	-0.497314	-0.007324	-0.324219
1289.0	21.538919	10.972566	-31.418813	0.224193	4.462394	2.463616	-0.48291	0.012451	-0.341553
1290.0	27.817174	7.63626	-27.509864	-4.695619	0.362664	2.42156	-0.482666	0.061768	-0.341797
1291.0	35.563699	-3.217312	-30.2863	-4.578021	-0.287136	1.63243	-0.488037	0.089844	-0.348633
1292.0	27.673394	-5.453948	-25.262277	1.90653	1.216753	0.092082	-0.476318	0.066406	-0.350586
1293.0	15.947901	4.092097	-14.563361	6.375684	-0.044255	-1.418234	-0.487305	0.012451	-0.348145
1294.0	-4.866762	1.088422	10.868412	-0.405461	-2.754203	-0.874794	-0.514404	0.037842	-0.328857
1295.0	14.78715	-10.529771	29.992976	-6.122396	-4.789874	-0.082543	-0.543457	0.061279	-0.320313
1296.0	2.548228	-16.840781	-0.029111	2.885696	1.238675	0.002442	-0.53125	0.024902	-0.320068
1297.0	-25.777058	9.949118	-4.672068	10.13796	-1.936938	0.456608	-0.567871	-0.03833	-0.278564
1298.0	-6.502784	28.589099	13.894442	4.490236	-11.40419	0.253974	-0.639404	-0.041748	-0.200684
1299.0	56.176275	23.537497	32.566368	-5.56939	-6.909896	-0.681903	-0.664307	-0.018555	-0.183594
1300.0	20.106859	-0.333636	10.102697	-4.546038	-1.140179	-0.939822	-0.675537	-0.005615	-0.175049
1301.0	11.004065	-14.433323	14.967269	-5.655556	-4.294249	-0.559261	-0.700439	0.021729	-0.146973
1302.0	23.775715	-22.878894	2.737131	-0.520981	-2.36195	0.390055	-0.699951	0.008545	-0.127441
1303.0	4.220396	-2.83568	12.446686	5.693031	-2.281316	-0.317348	-0.716064	-0.02417	-0.101318
1304.0	13.198868	8.999908	12.635648	4.524026	-2.060344	-0.876592	-0.726318	-0.037109	-0.088135
1305.0	9.906215	5.186429	13.667789	-1.998863	-0.480923	-0.355424	-0.726807	-0.028564	-0.092529
1306.0	8.04665	-7.528915	8.055064	-5.344956	-0.24834	-0.057768	-0.727783	-0.004883	-0.099121
1307.0	9.915838	-14.794708	3.830971	0.418175	-0.274618	-0.583212	-0.729004	-0.02417	-0.090576
1308.0	5.790905	-2.142968	8.774237	5.645454	-0.549841	-0.880397	-0.732178	-0.058838	-0.077393
1309.0	5.93285	6.389988	11.918632	3.778799	-0.40413	-0.858754	-0.733643	-0.073975	-0.077148
1310.0	5.782858	1.725695	11.17162	-2.357196	0.06802	-0.511149	-0.727539	-0.061035	-0.075195
1311.0	7.750306	-5.924731	7.285374	-2.978606	0.373255	-0.346681	-0.725586	-0.058594	-0.090332
1312.0	3.365895	-5.624923	5.395949	1.601658	0.051408	-0.670443	-0.729492	-0.071777	-0.08374
1313.0	6.806333	0.393802	9.881143	2.888571	-0.598056	-0.691135	-0.726563	-0.089111	-0.074951
1314.0	6.805085	3.185721	10.316688	0.963934	-0.017879	-0.445641	-0.733154	-0.086914	-0.072754
