Acquisition frequency: 100 Hz
PacketCounter	Acc_X	Acc_Y	Acc_Z	Gyr_X	Gyr_Y	Gyr_Z	Mag_X	Mag_Y	Mag_Z
0.0	6.067446	-1.789764	7.666301	-0.004893	0.005415	-0.007298	-0.647705	0.234375	-0.111084
1.0	6.042808	-1.791626	7.666861	-0.003729	0.006464	-0.008951	-0.647705	0.232422	-0.111084
2.0	6.042526	-1.791485	7.667116	-0.007229	0.005219	-0.009616	-0.649902	0.232422	-0.117676
3.0	6.065254	-1.770986	7.682991	-0.006061	0.005316	-0.008457	-0.649658	0.228027	-0.115479
4.0	6.090951	-1.78483	7.70133	-0.008322	0.003186	-0.009887	-0.647705	0.234619	-0.12207
5.0	6.089345	-1.769239	7.682841	-0.010719	0.002069	-0.004656	-0.649658	0.230225	-0.111084
6.0	6.066425	-1.790206	7.667006	-0.010575	-0.000849	-0.005694	-0.645508	0.232422	-0.113281
7.0	6.093772	-1.822682	7.669114	-0.009419	0.002104	-0.012969	-0.649902	0.232422	-0.113281
8.0	6.066574	-1.790412	7.66684	-0.010656	0.002987	-0.012203	-0.647705	0.232422	-0.111084
9.0	6.062403	-1.737792	7.680175	-0.00934	-0.000784	-0.00927	-0.649658	0.230225	-0.113281
10.0	6.094029	-1.82291	7.668856	-0.010655	0.002985	-0.012202	-0.6521	0.236572	-0.106689
11.0	6.04416	-1.808477	7.685257	-0.010444	3.7e-05	-0.017975	-0.647705	0.234375	-0.113281
12.0	6.092955	-1.806427	7.650153	-0.005707	0.000398	-0.018076	-0.643311	0.232178	-0.102539
13.0	6.067528	-1.789568	7.666282	-0.008108	0.00023	-0.015657	-0.647705	0.234375	-0.113281
14.0	6.09233	-1.787085	7.665735	-0.005483	-0.005407	-0.015416	-0.643311	0.232422	-0.111084
15.0	6.114399	-1.747693	7.697109	-0.006869	-0.000657	-0.016421	-0.647461	0.22583	-0.115479
16.0	6.093155	-1.78868	7.630726	-0.006719	-0.004526	-0.014649	-0.645508	0.234375	-0.104736
17.0	6.070953	-1.803849	7.683646	-0.009343	0.001107	-0.014887	-0.6521	0.232178	-0.108887
18.0	6.068146	-1.771737	7.646546	-0.005625	-0.002495	-0.014375	-0.645264	0.22583	-0.113281
19.0	6.094362	-1.785077	7.664588	-0.006941	0.001271	-0.017304	-0.649658	0.22583	-0.113281
20.0	6.11904	-1.782779	7.664085	-0.010354	-0.003816	-0.011463	-0.643311	0.232422	-0.115479
21.0	6.092125	-1.750435	7.661601	-0.008103	0.000218	-0.015651	-0.649658	0.230225	-0.108887
22.0	6.119612	-1.782548	7.663683	-0.010575	0.001032	-0.011308	-0.649658	0.228027	-0.111084
23.0	6.095202	-1.787228	7.629431	-0.007075	0.001332	-0.007833	-0.649902	0.232178	-0.106689
24.0	6.095163	-1.787181	7.629473	-0.007154	0.004216	-0.011528	-0.649902	0.234375	-0.111084
25.0	6.095335	-1.78211	7.698491	-0.008392	0.005097	-0.010761	-0.645508	0.232178	-0.108887
26.0	6.096494	-1.802767	7.648196	-0.003509	0.00255	-0.011902	-0.649902	0.234619	-0.119873
27.0	6.094925	-1.783759	7.664446	-0.001331	0.007568	-0.014165	-0.647461	0.230225	-0.108887
28.0	6.094638	-1.783102	7.664828	-0.003659	0.006415	-0.013671	-0.643311	0.230225	-0.117676
29.0	6.118807	-1.780131	7.664887	0.001221	0.004818	-0.017621	-0.651855	0.228027	-0.117676
30.0	6.117121	-1.760741	7.681308	-0.001405	0.009497	-0.015048	-0.645508	0.232178	-0.108887
31.0	6.092359	-1.762218	7.682065	-0.001399	0.007597	-0.009429	-0.649658	0.228027	-0.117676
32.0	6.141951	-1.775884	7.666063	-0.001474	0.009529	-0.010313	-0.649902	0.232422	-0.113281
33.0	6.115531	-1.761594	7.648398	-0.003805	0.009325	-0.012629	-0.647461	0.230225	-0.113281
34.0	6.090772	-1.763254	7.649108	-0.002563	0.007493	-0.010586	-0.647705	0.232422	-0.115479
35.0	6.114775	-1.758168	7.683765	-0.002638	0.009424	-0.01147	-0.649658	0.230225	-0.111084
36.0	6.112697	-1.741854	7.665803	-0.003801	0.008372	-0.009819	-0.645264	0.22583	-0.113281
37.0	6.090754	-1.777997	7.6691	-0.004026	0.01322	-0.009663	-0.649902	0.232422	-0.115479
38.0	6.090068	-1.780227	7.635166	-0.006055	0.006234	-0.011251	-0.649902	0.234375	-0.113281
39.0	6.088237	-1.761646	7.651497	-0.002633	0.007524	-0.005852	-0.649658	0.228027	-0.113281
40.0	6.08944	-1.777447	7.670271	-0.004888	0.005386	-0.007284	-0.647705	0.230225	-0.115479
41.0	6.087575	-1.761464	7.652065	-0.004887	0.005386	-0.007284	-0.651855	0.230225	-0.113281
42.0	6.066073	-1.797956	7.654928	-0.008381	0.004129	-0.00795	-0.647705	0.232422	-0.111084
43.0	6.087281	-1.759271	7.686764	-0.007215	0.003283	-0.003984	-0.649902	0.232422	-0.111084
44.0	6.088472	-1.780196	7.636446	-0.005977	0.004298	-0.010366	-0.649902	0.232422	-0.111084
45.0	6.091347	-1.811977	7.673576	-0.008531	0.00799	-0.009716	-0.6521	0.236572	-0.115479
46.0	6.088026	-1.779879	7.636875	-0.003421	0.001552	-0.013822	-0.647461	0.22583	-0.111084
47.0	6.110777	-1.761346	7.618296	-0.003571	0.003518	-0.009973	-0.647705	0.232422	-0.115479
48.0	6.086367	-1.760751	7.65319	-0.004886	0.006329	-0.010089	-0.647705	0.234375	-0.111084
49.0	6.113447	-1.792655	7.655703	-0.004886	0.006329	-0.010089	-0.647705	0.234619	-0.119873
50.0	6.08586	-1.760224	7.653714	-0.003569	0.003516	-0.009972	-0.643311	0.234619	-0.113281
51.0	6.109996	-1.755283	7.688225	-0.003797	0.008362	-0.009813	-0.647705	0.230225	-0.115479
52.0	6.109497	-1.757553	7.654148	-0.008453	0.006999	-0.011638	-0.645264	0.228027	-0.108887
53.0	6.136597	-1.789782	7.656578	-0.003721	0.003587	-0.000509	-0.651855	0.230225	-0.115479
54.0	6.084397	-1.762322	7.620446	-0.0062	0.009136	-0.010204	-0.649658	0.230225	-0.113281
55.0	6.108364	-1.757662	7.655028	-0.006124	0.006257	-0.006514	-0.6521	0.232422	-0.115479
56.0	6.111148	-1.789493	7.692214	-0.004959	0.007308	-0.008162	-0.649902	0.232422	-0.111084
57.0	6.110619	-1.791803	7.658159	-0.002631	0.007515	-0.005846	-0.649658	0.228027	-0.106689
58.0	6.106993	-1.757244	7.656217	-0.00387	0.010288	-0.010692	-0.649658	0.230225	-0.111084
59.0	6.108031	-1.773007	7.675126	-0.006199	0.008185	-0.007396	-0.649902	0.234619	-0.115479
60.0	6.08301	-1.777507	7.641423	-0.001619	0.011479	-0.006451	-0.651855	0.230225	-0.113281
61.0	6.106849	-1.772619	7.676156	-0.003717	0.006425	-0.008927	-0.647705	0.230225	-0.117676
62.0	6.127645	-1.736015	7.673889	-0.006198	0.008182	-0.007395	-0.649902	0.234619	-0.119873
63.0	6.081595	-1.774618	7.677147	-0.005032	0.009233	-0.009043	-0.654297	0.232178	-0.111084
64.0	6.105311	-1.774786	7.642952	-0.005034	0.008285	-0.006236	-0.643066	0.228027	-0.113281
65.0	6.103443	-1.753951	7.693732	-0.00488	0.005371	-0.007279	-0.654053	0.228027	-0.117676
66.0	6.081832	-1.792959	7.662163	-0.008524	0.007023	-0.006905	-0.647705	0.232422	-0.113281
67.0	6.102686	-1.756644	7.659788	-0.009609	0.005933	-0.009988	-0.643311	0.232422	-0.115479
68.0	6.081168	-1.793241	7.662624	-0.00612	0.006248	-0.006512	-0.651855	0.230225	-0.113281
69.0	6.105134	-1.7913	7.66265	-0.010851	0.005863	-0.006415	-0.640869	0.228027	-0.115479
70.0	6.10173	-1.757278	7.660404	-0.006043	0.004317	-0.00563	-0.649658	0.228027	-0.111084
71.0	6.081861	-1.812268	7.647119	-0.007206	0.004211	-0.006788	-0.645508	0.234375	-0.111084
72.0	6.102894	-1.773488	7.6791	-0.007206	0.004211	-0.006788	-0.649658	0.230225	-0.113281
73.0	6.102568	-1.776006	7.644859	-0.006118	0.006245	-0.00651	-0.654297	0.232178	-0.108887
74.0	6.124987	-1.755601	7.660942	-0.006121	0.005298	-0.003705	-0.649902	0.232422	-0.117676
75.0	6.100292	-1.757946	7.661396	-0.003793	0.006455	-0.004193	-0.649658	0.22583	-0.113281
76.0	6.103073	-1.792404	7.664034	-0.008445	0.005086	-0.006022	-0.645752	0.236572	-0.113281
77.0	6.123749	-1.758591	7.627327	-0.008675	0.009927	-0.005857	-0.643311	0.234619	-0.113281
78.0	6.126474	-1.7907	7.664465	-0.006041	0.004313	-0.005629	-0.649658	0.228027	-0.108887
79.0	6.100213	-1.777108	7.646482	-0.005034	0.007331	-0.003425	-0.654297	0.236572	-0.111084
80.0	6.098065	-1.761309	7.628484	-0.005109	0.009259	-0.004305	-0.647705	0.234619	-0.115479
81.0	6.09895	-1.777365	7.64743	-0.005184	0.011188	-0.005185	-0.645264	0.228027	-0.113281
82.0	6.099829	-1.795651	7.631959	-0.002701	0.009433	-0.006717	-0.649658	0.230225	-0.113281
83.0	6.100834	-1.811496	7.650856	-0.003867	0.008381	-0.005071	-0.651855	0.230225	-0.115479
84.0	6.096913	-1.777091	7.649117	-0.001769	0.014378	-0.005392	-0.649658	0.230225	-0.111084
85.0	6.094393	-1.75849	7.665965	-0.001689	0.013395	-0.007317	-0.647705	0.234375	-0.111084
86.0	6.117888	-1.756161	7.666484	-0.006344	0.011077	-0.006343	-0.649902	0.234375	-0.113281
87.0	6.070033	-1.778927	7.651406	-0.001693	0.012447	-0.004511	-0.645508	0.232422	-0.113281
88.0	6.116301	-1.756033	7.66778	-0.00394	0.010305	-0.005949	-0.645508	0.230225	-0.113281
89.0	6.092885	-1.77654	7.652454	-0.003939	0.010304	-0.005949	-0.6521	0.232422	-0.113281
90.0	6.114877	-1.75827	7.634516	-0.004014	0.012232	-0.006828	-0.647461	0.228027	-0.113281
91.0	6.115499	-1.773971	7.653744	0.000561	0.01553	-0.005874	-0.649902	0.232422	-0.113281
92.0	6.114599	-1.77602	7.620116	-0.00161	0.01146	-0.006434	-0.645264	0.228027	-0.113281
93.0	6.113689	-1.770939	7.689762	0.000637	0.0136	-0.004994	-0.649658	0.228271	-0.124023
94.0	6.110999	-1.757191	7.637869	-0.002002	0.01826	-0.002417	-0.645264	0.228027	-0.115479
95.0	6.134093	-1.75476	7.638762	0.000564	0.015525	-0.005872	-0.647705	0.232178	-0.108887
96.0	6.087386	-1.790779	7.676879	0.000409	0.018433	-0.004825	-0.643311	0.232422	-0.111084
97.0	6.084526	-1.774591	7.659554	-0.000758	0.01738	-0.00318	-0.6521	0.234375	-0.113281
98.0	6.109164	-1.790474	7.644481	-0.000749	0.018323	-0.005983	-0.649902	0.234619	-0.117676
99.0	6.085096	-1.808353	7.664121	0.000412	0.018428	-0.004823	-0.649658	0.228027	-0.113281
100.0	6.030348	-1.759782	7.679139	0.000421	0.01937	-0.007626	-0.649902	0.232178	-0.108887
101.0	6.077852	-1.757508	7.645473	-0.00417	0.014182	-0.002976	-0.647461	0.230225	-0.113281
102.0	6.101171	-1.755159	7.646189	0.000644	0.013589	-0.004989	-0.645508	0.234375	-0.108887
103.0	6.075846	-1.757122	7.647156	-0.004151	0.016068	-0.008582	-0.6521	0.232422	-0.115479
104.0	6.09893	-1.750093	7.716787	-0.005328	0.014071	-0.004135	-0.643311	0.232422	-0.117676
105.0	6.075424	-1.775584	7.632729	-0.004168	0.014177	-0.002974	-0.649658	0.228027	-0.113281
106.0	6.095648	-1.739139	7.63097	-0.004011	0.011269	-0.004021	-0.647461	0.22583	-0.111084
107.0	6.096248	-1.752856	7.684458	-0.005253	0.012143	-0.003256	-0.647705	0.232422	-0.113281
108.0	6.072589	-1.773607	7.669249	-0.006558	0.015885	-0.006172	-0.649414	0.223877	-0.115479
109.0	6.070041	-1.755558	7.685932	-0.006349	0.009165	-0.000735	-0.647705	0.232422	-0.115479
110.0	6.093539	-1.753789	7.686393	-0.006505	0.01207	0.000313	-0.645752	0.236572	-0.113281
111.0	6.070086	-1.774786	7.670958	-0.008655	0.009893	-0.005859	-0.654053	0.228027	-0.115479
112.0	6.071108	-1.793421	7.655348	-0.005105	0.008289	-0.001499	-0.643066	0.22583	-0.113281
113.0	6.093103	-1.773299	7.671741	-0.009908	0.009821	-0.002291	-0.647461	0.230225	-0.111084
114.0	6.092563	-1.776207	7.637702	-0.008665	0.008946	-0.003055	-0.649658	0.228027	-0.113281
115.0	6.069083	-1.794884	7.656611	-0.008737	0.01087	-0.003932	-0.645508	0.230225	-0.121826
116.0	6.089385	-1.756267	7.689119	-0.006251	0.009123	-0.005461	-0.647949	0.236816	-0.117676
117.0	6.090574	-1.777256	7.639045	-0.008664	0.008944	-0.003054	-0.649902	0.234375	-0.111084
118.0	6.065478	-1.777555	7.673961	-0.008651	0.009887	-0.005856	-0.643311	0.232422	-0.119873
119.0	6.090898	-1.793794	7.658266	-0.007323	0.008032	-0.008546	-0.647705	0.234375	-0.111084
120.0	6.088668	-1.775472	7.674759	-0.005079	0.010171	-0.0071	-0.647705	0.232422	-0.115479
121.0	6.113973	-1.791567	7.659196	-0.00748	0.010935	-0.007496	-0.645508	0.230225	-0.115479
122.0	6.085829	-1.759497	7.65741	-0.003835	0.009297	-0.007864	-0.63916	0.234619	-0.115479
123.0	6.086678	-1.775425	7.676348	-0.005163	0.011149	-0.005173	-0.647705	0.232422	-0.12207
124.0	6.082753	-1.741138	7.674578	-0.00392	0.010276	-0.005938	-0.647461	0.230225	-0.113281
125.0	6.109513	-1.773083	7.6775	-0.003991	0.012199	-0.006813	-0.647461	0.22583	-0.115479
126.0	6.086077	-1.791378	7.696425	-0.006175	0.007191	-0.004582	-0.645508	0.232422	-0.113281
127.0	6.108359	-1.773391	7.678348	-0.007418	0.008062	-0.003817	-0.647705	0.236572	-0.108887
128.0	6.107897	-1.775935	7.644362	-0.006319	0.011037	-0.006333	-0.649902	0.232422	-0.113281
129.0	6.081172	-1.760079	7.660975	-0.006332	0.010093	-0.003531	-0.649658	0.230225	-0.113281
130.0	6.080421	-1.760246	7.661533	-0.004003	0.011252	-0.004009	-0.647461	0.22583	-0.115479
131.0	6.107163	-1.792341	7.664446	-0.00516	0.011143	-0.00517	-0.649658	0.230225	-0.115479
132.0	6.079027	-1.762704	7.628316	-0.006388	0.012956	-0.007207	-0.649902	0.232422	-0.117676
133.0	6.081014	-1.792421	7.700183	-0.004002	0.011249	-0.004008	-0.649902	0.234375	-0.108887
134.0	6.080334	-1.794858	7.666406	-0.006473	0.013934	-0.00528	-0.645508	0.230225	-0.121826
135.0	6.124834	-1.75611	7.664759	-0.002844	0.011356	-0.002846	-0.645508	0.234375	-0.111084
136.0	6.101168	-1.774498	7.683807	-0.004087	0.012226	-0.002081	-0.643066	0.22583	-0.113281
137.0	6.098769	-1.758615	7.666111	-0.005228	0.01306	-0.006043	-0.645264	0.228027	-0.111084
138.0	6.075077	-1.77701	7.685166	-0.005243	0.012116	-0.003242	-0.645508	0.230225	-0.117676
139.0	6.098684	-1.777302	7.651397	-0.00533	0.013094	-0.001316	-0.645508	0.234619	-0.119873
140.0	6.09615	-1.759305	7.668035	-0.003944	0.008378	-0.000331	-0.647705	0.232422	-0.113281
141.0	6.122753	-1.791585	7.67104	-0.006627	0.016828	-0.004226	-0.6521	0.232178	-0.108887
142.0	6.071364	-1.777907	7.687893	-0.001669	0.012402	-0.004481	-0.645508	0.232422	-0.113281
143.0	6.0703	-1.778029	7.688704	-0.004331	0.0161	0.000899	-0.647461	0.230225	-0.111084
144.0	6.095174	-1.794211	7.673547	-0.002982	0.015192	-0.004591	-0.645264	0.228027	-0.113281
145.0	6.067988	-1.77821	7.690487	-0.003069	0.01617	-0.002664	-0.643311	0.232178	-0.108887
146.0	6.04574	-1.814714	7.693707	-0.001807	0.016241	-0.006227	-0.645752	0.236572	-0.111084
147.0	6.01719	-1.782431	7.69222	-0.001648	0.01334	-0.007279	-0.647461	0.228027	-0.117676
148.0	6.040494	-1.779701	7.693147	0.000611	0.01642	-0.008628	-0.645508	0.232422	-0.113281
149.0	6.088091	-1.774587	7.694152	-0.001628	0.014279	-0.010078	-0.649658	0.230225	-0.115479
150.0	6.06315	-1.778692	7.660496	-0.001628	0.014278	-0.010078	-0.649658	0.228027	-0.111084
151.0	6.062326	-1.77815	7.661274	0.000842	0.011596	-0.008805	-0.647949	0.236816	-0.117676
152.0	6.063072	-1.793475	7.680388	-0.000293	0.012427	-0.012766	-0.651855	0.230225	-0.113281
153.0	6.060938	-1.776748	7.662697	-0.000222	0.010505	-0.011892	-0.649902	0.232422	-0.115479
154.0	6.061848	-1.791887	7.681725	0.001042	0.010576	-0.015455	-0.645264	0.228027	-0.113281
155.0	6.083785	-1.770072	7.698597	0.003392	0.012675	-0.018727	-0.651855	0.230225	-0.115479
156.0	6.057788	-1.757502	7.64639	0.001114	0.008652	-0.01458	-0.645508	0.230225	-0.108887
157.0	6.082772	-1.767803	7.699918	0.001065	0.01151	-0.018252	-0.647461	0.228027	-0.115479
158.0	6.080321	-1.748372	7.716762	-0.001403	0.014186	-0.019524	-0.645508	0.230225	-0.115479
159.0	6.054269	-1.736065	7.664538	-0.002436	0.009295	-0.01614	-0.643311	0.234619	-0.113281
160.0	6.079211	-1.746785	7.717996	-0.004926	0.011031	-0.014614	-0.643311	0.230225	-0.115479
161.0	6.077148	-1.730364	7.700169	-0.004946	0.01009	-0.011815	-0.647461	0.228027	-0.119873
162.0	6.081747	-1.782634	7.686887	-0.004875	0.00817	-0.010941	-0.647705	0.230225	-0.115479
163.0	6.076579	-1.731982	7.666586	-0.003629	0.007301	-0.011704	-0.649902	0.232422	-0.117676
164.0	6.053427	-1.750163	7.685182	-0.008378	0.005956	-0.008833	-0.649658	0.230225	-0.113281
165.0	6.053058	-1.750248	7.685453	-0.008448	0.007874	-0.009705	-0.645752	0.236816	-0.119873
166.0	6.056078	-1.784581	7.687975	-0.010592	0.004752	-0.013084	-0.645264	0.228027	-0.115479
167.0	6.052619	-1.750554	7.685729	-0.01188	0.003741	-0.006724	-0.647705	0.230225	-0.117676
168.0	6.075026	-1.730377	7.70184	-0.010564	0.000954	-0.006615	-0.647705	0.232422	-0.115479
169.0	6.029928	-1.77002	7.703661	-0.01515	-0.00329	-0.004798	-0.645508	0.230225	-0.119873
170.0	6.079279	-1.768477	7.668865	-0.015079	-0.00521	-0.003926	-0.645508	0.232422	-0.115479
171.0	6.057026	-1.787884	7.68646	-0.016182	-0.008181	-0.001419	-0.6521	0.236572	-0.108887
172.0	6.080429	-1.770567	7.66747	-0.017384	-0.005437	-0.00625	-0.647461	0.228027	-0.108887
173.0	6.058286	-1.789934	7.68499	-0.012558	-0.010747	0.001016	-0.649902	0.232422	-0.111084
174.0	6.080176	-1.756479	7.647681	-0.015147	-0.003296	-0.004794	-0.652344	0.23877	-0.111084
175.0	6.086845	-1.823785	7.686147	-0.016321	-0.00435	-0.003159	-0.6521	0.236572	-0.113281
176.0	6.132848	-1.787895	7.649081	-0.012748	-0.004053	-0.004395	-0.645264	0.228027	-0.117676
177.0	6.110272	-1.806927	7.667019	-0.010583	8e-06	-0.003811	-0.647705	0.232178	-0.108887
178.0	6.084665	-1.793796	7.648309	-0.010419	-0.00289	-0.004867	-0.647705	0.234375	-0.111084
179.0	6.107031	-1.77142	7.698657	-0.009337	-0.000859	-0.004575	-0.647705	0.232422	-0.113281
180.0	6.083159	-1.776429	7.663948	-0.010561	0.000947	-0.006607	-0.645264	0.228027	-0.108887
181.0	6.105737	-1.75624	7.67995	-0.010489	-0.000973	-0.005737	-0.649902	0.232178	-0.108887
182.0	6.081934	-1.761189	7.645199	-0.010468	-3.3e-05	-0.008533	-0.647461	0.230225	-0.108887
183.0	6.083575	-1.777503	7.663369	-0.009315	7.9e-05	-0.007371	-0.649902	0.232422	-0.12207
184.0	6.060945	-1.796287	7.68141	-0.011641	-0.001088	-0.006898	-0.643311	0.232422	-0.115479
185.0	6.131035	-1.757632	7.644689	-0.010509	-0.001917	-0.002939	-0.647949	0.23877	-0.111084
186.0	6.108444	-1.776598	7.662658	-0.01164	-0.001089	-0.006897	-0.649902	0.234375	-0.108887
187.0	6.131176	-1.756474	7.678528	-0.011568	-0.003009	-0.006027	-0.649658	0.22583	-0.113281
188.0	6.112704	-1.813998	7.629736	-0.010394	-0.001956	-0.007661	-0.647705	0.232178	-0.108887
189.0	6.109578	-1.780006	7.627277	-0.010465	-3.7e-05	-0.00853	-0.6521	0.232422	-0.115479
190.0	6.113004	-1.81437	7.629407	-0.005813	0.002296	-0.009475	-0.649902	0.234375	-0.113281
191.0	6.11282	-1.814171	7.629602	-0.00718	0.007941	-0.013244	-0.654053	0.230225	-0.115479
192.0	6.10917	-1.779553	7.62771	-0.003557	0.005382	-0.010816	-0.649902	0.232178	-0.108887
193.0	6.110062	-1.793019	7.680818	-0.003629	0.0073	-0.011685	-0.647705	0.230225	-0.115479
194.0	6.108156	-1.776422	7.662927	-0.001302	0.008467	-0.012156	-0.645508	0.230225	-0.111084
195.0	6.106129	-1.75969	7.645165	-0.000221	0.010498	-0.011863	-0.647461	0.230225	-0.113281
196.0	6.107247	-1.775286	7.663915	-0.003577	0.004437	-0.008019	-0.643311	0.232422	-0.115479
197.0	6.108665	-1.793042	7.648253	-0.001444	0.012301	-0.013893	-0.647705	0.232422	-0.113281
198.0	6.10643	-1.776577	7.630597	-0.006283	0.01192	-0.009096	-0.649658	0.228027	-0.119873
199.0	6.082702	-1.792509	7.683834	-0.001299	0.008462	-0.012154	-0.6521	0.232178	-0.111084
200.0	6.080701	-1.775873	7.666027	-0.001393	0.009439	-0.010227	-0.647705	0.234375	-0.113281
201.0	6.080213	-1.775296	7.666548	-0.001298	0.00846	-0.012153	-0.649658	0.22583	-0.115479
202.0	6.102192	-1.754013	7.683276	-0.001297	0.008459	-0.012153	-0.645508	0.230225	-0.117676
203.0	6.077862	-1.757976	7.649176	-0.003599	0.008229	-0.014476	-0.647705	0.234375	-0.111084
204.0	6.101534	-1.752732	7.684091	0.001245	0.003872	-0.010017	-0.647705	0.234375	-0.113281
205.0	6.100908	-1.749906	7.718896	-0.003598	0.008226	-0.014476	-0.645508	0.232422	-0.115479
206.0	6.07906	-1.774441	7.634005	-0.00578	0.003221	-0.012268	-0.645508	0.234375	-0.108887
207.0	6.123736	-1.732871	7.666648	-0.003573	0.004429	-0.008017	-0.647461	0.230225	-0.108887
208.0	6.104131	-1.785417	7.687301	-0.004795	0.006231	-0.010047	-0.647705	0.232422	-0.117676
209.0	6.076262	-1.753375	7.685159	-0.005802	0.00228	-0.009473	-0.645508	0.232422	-0.117676
210.0	6.078013	-1.771413	7.66919	-0.004795	0.006229	-0.010046	-0.647705	0.234375	-0.113281
211.0	6.102031	-1.768827	7.669562	-0.005969	0.005175	-0.008414	-0.6521	0.234619	-0.115479
212.0	6.076093	-1.755205	7.651217	-0.010499	0.002794	-0.012194	-0.647705	0.232422	-0.111084
213.0	6.076232	-1.755303	7.651084	-0.00568	-0.002496	-0.004943	-0.645508	0.232422	-0.111084
214.0	6.102482	-1.771135	7.635019	-0.00827	0.004941	-0.010737	-0.645508	0.234619	-0.113281
215.0	6.103941	-1.787141	7.653404	-0.0081	0.002045	-0.011795	-0.647461	0.230225	-0.113281
216.0	6.128622	-1.786625	7.619121	-0.004625	0.00333	-0.011103	-0.647705	0.232422	-0.113281
217.0	6.126159	-1.76582	7.669943	-0.003522	0.006301	-0.013601	-0.649658	0.228027	-0.113281
218.0	6.124321	-1.749162	7.65201	-0.003593	0.008217	-0.014468	-0.645752	0.236572	-0.113281
219.0	6.101142	-1.767056	7.670677	-0.000143	0.008564	-0.010982	-0.654053	0.228027	-0.113281
220.0	6.101083	-1.768713	7.636698	-0.003714	0.008255	-0.009748	-0.651855	0.230225	-0.113281
221.0	6.100044	-1.766363	7.67171	-0.003981	0.012128	-0.006762	-0.647461	0.230225	-0.111084
222.0	6.097293	-1.748045	7.688524	-0.003981	0.012127	-0.006761	-0.6521	0.236572	-0.111084
223.0	6.098476	-1.766087	7.67302	-0.003883	0.011148	-0.008687	-0.649414	0.223633	-0.113281
224.0	6.098125	-1.768045	7.639215	-0.002831	0.012242	-0.005598	-0.647461	0.230225	-0.113281
225.0	6.095379	-1.749639	7.656042	-0.001582	0.011379	-0.006362	-0.647705	0.232422	-0.111084
226.0	6.096546	-1.767661	7.640564	-0.003979	0.012123	-0.00676	-0.645508	0.230225	-0.111084
227.0	6.117992	-1.746839	7.657602	-0.002901	0.014155	-0.006464	-0.645508	0.230225	-0.119873
228.0	6.094666	-1.767254	7.642158	-0.001725	0.015208	-0.008093	-0.645264	0.228027	-0.115479
229.0	6.11949	-1.780497	7.661495	0.000646	0.013526	-0.004902	-0.649658	0.228027	-0.111084
230.0	6.092106	-1.764531	7.678436	-0.004291	0.018843	-0.007431	-0.649658	0.230225	-0.111084
231.0	6.09135	-1.766317	7.645018	0.000603	0.016375	-0.008559	-0.6521	0.234375	-0.113281
232.0	6.112627	-1.745084	7.662285	0.000675	0.014459	-0.007692	-0.649658	0.228027	-0.108887
233.0	6.089386	-1.765356	7.646805	-0.001649	0.013286	-0.007225	-0.649902	0.232178	-0.108887
234.0	6.11435	-1.778569	7.666046	-0.001549	0.012307	-0.009151	-0.649658	0.230225	-0.115479
235.0	6.088688	-1.778526	7.701134	-0.00172	0.015198	-0.00809	-0.649902	0.234375	-0.113281
236.0	6.083213	-1.729796	7.647061	0.000778	0.013475	-0.009616	-0.649658	0.228027	-0.115479
237.0	6.109882	-1.761183	7.650396	-0.00199	0.019066	-0.005102	-0.649902	0.232422	-0.115479
238.0	6.110309	-1.776862	7.669662	0.003147	0.011795	-0.006423	-0.647949	0.236816	-0.119873
239.0	6.062216	-1.797469	7.688508	-0.001888	0.018085	-0.007027	-0.649902	0.234619	-0.115479
240.0	6.105002	-1.74396	7.635045	-0.00074	0.018201	-0.005863	-0.649902	0.234619	-0.115479
241.0	6.056229	-1.762468	7.68846	0.000611	0.016361	-0.008552	-0.647461	0.228027	-0.115479
242.0	6.055174	-1.762092	7.689377	-0.001744	0.014253	-0.005295	-0.647461	0.230225	-0.111084
243.0	6.076974	-1.743338	7.672094	-0.002891	0.014134	-0.006458	-0.651855	0.22583	-0.115479
244.0	6.100486	-1.740909	7.672904	-0.006253	0.008083	-0.002635	-0.647705	0.234619	-0.117676
245.0	6.075561	-1.743708	7.673129	-0.006323	0.009995	-0.0035	-0.647461	0.22583	-0.113281
246.0	6.076878	-1.762181	7.65748	-0.006323	0.009994	-0.003499	-0.645508	0.232422	-0.119873
247.0	6.078189	-1.780566	7.641857	-0.006291	0.010928	-0.00629	-0.649658	0.230225	-0.113281
248.0	6.056283	-1.815294	7.678717	-0.006119	0.008037	-0.007352	-0.643311	0.230225	-0.115479
249.0	6.028034	-1.783478	7.676692	-0.004869	0.007176	-0.008114	-0.649658	0.230225	-0.113281
250.0	6.074162	-1.760145	7.693644	-0.004869	0.007176	-0.008114	-0.6521	0.232422	-0.113281
251.0	6.049495	-1.762634	7.693722	-0.006047	0.006122	-0.006486	-0.6521	0.232422	-0.113281
252.0	6.069334	-1.723719	7.726549	-0.006015	0.007056	-0.009277	-0.643311	0.232178	-0.108887
253.0	6.073126	-1.760047	7.694483	-0.008237	0.004905	-0.01074	-0.647461	0.230225	-0.111084
254.0	6.073122	-1.760265	7.694437	-0.010454	-0.001027	-0.005757	-0.643066	0.22583	-0.113281
255.0	6.120992	-1.741462	7.641896	-0.007923	-0.001811	-0.010073	-0.645264	0.230225	-0.106689
256.0	6.099895	-1.776193	7.678102	-0.008096	0.001078	-0.00901	-0.645508	0.232422	-0.113281
257.0	6.098476	-1.760174	7.659725	-0.008095	0.001078	-0.00901	-0.649902	0.232422	-0.117676
258.0	6.076359	-1.780886	7.643237	-0.006846	0.000218	-0.009772	-0.647705	0.234619	-0.115479
259.0	6.09814	-1.758074	7.694013	-0.006948	0.001196	-0.007846	-0.649902	0.232178	-0.106689
260.0	6.100569	-1.778235	7.643558	-0.005982	0.007985	-0.012063	-0.645752	0.236816	-0.117676
261.0	6.07751	-1.796799	7.661853	-0.008268	0.003965	-0.007946	-0.647705	0.232422	-0.119873
262.0	6.074824	-1.776631	7.712511	-0.005801	0.001314	-0.006682	-0.649902	0.232422	-0.115479
263.0	6.118822	-1.723115	7.658189	-0.006952	0.004974	-0.014288	-0.654053	0.230225	-0.12207
264.0	6.098078	-1.759796	7.660128	-0.008092	0.001072	-0.009008	-0.641357	0.236572	-0.113281
265.0	6.102204	-1.796186	7.627785	-0.007017	0.003104	-0.008708	-0.647461	0.228027	-0.113281
266.0	6.095937	-1.741675	7.676344	-0.008162	0.002983	-0.009871	-0.643066	0.228027	-0.117676
267.0	6.073765	-1.762462	7.659884	-0.010382	0.00083	-0.011335	-0.651855	0.22583	-0.111084
268.0	6.124355	-1.77539	7.644264	-0.003513	0.005331	-0.010795	-0.6521	0.234375	-0.108887
269.0	6.098397	-1.761645	7.625914	-0.010523	0.004651	-0.01306	-0.649658	0.228027	-0.115479
270.0	6.121924	-1.757	7.660774	-0.005941	0.005132	-0.008405	-0.645508	0.230225	-0.113281
271.0	6.075176	-1.780131	7.644353	-0.004762	0.006186	-0.010031	-0.647705	0.230225	-0.117676
272.0	6.095487	-1.743192	7.642818	-0.007261	0.007899	-0.008504	-0.647705	0.232422	-0.117676
273.0	6.12237	-1.772813	7.679975	-0.006011	0.007041	-0.009267	-0.643555	0.236572	-0.111084
274.0	6.120442	-1.756494	7.662075	-0.003687	0.008216	-0.009729	-0.649658	0.230225	-0.111084
275.0	6.099309	-1.793023	7.664358	-0.003686	0.008215	-0.009728	-0.649902	0.232422	-0.113281
276.0	6.095259	-1.758525	7.662663	-0.00372	0.007281	-0.006939	-0.645508	0.230225	-0.111084
277.0	6.120533	-1.771817	7.681669	-0.003757	0.010125	-0.01059	-0.647705	0.234619	-0.117676
278.0	6.071442	-1.776796	7.681611	-0.006114	0.008015	-0.007339	-0.647705	0.232422	-0.113281
279.0	6.095789	-1.775934	7.647906	-0.001326	0.010322	-0.012977	-0.647949	0.23877	-0.111084
280.0	6.098834	-1.809509	7.650623	-0.000181	0.010442	-0.011812	-0.645508	0.234619	-0.115479
281.0	6.092487	-1.756277	7.665382	0.000999	0.011495	-0.013437	-0.647461	0.228027	-0.106689
282.0	6.094	-1.773643	7.649863	-0.001324	0.010317	-0.012975	-0.654297	0.232422	-0.115479
283.0	6.092775	-1.770797	7.684999	0.002145	0.011614	-0.012272	-0.651855	0.230225	-0.113281
284.0	6.11496	-1.751395	7.667616	-0.003646	0.009138	-0.012514	-0.645508	0.230225	-0.115479
285.0	6.09008	-1.753447	7.667943	0.000859	0.011536	-0.00872	-0.6521	0.232422	-0.113281
286.0	6.117162	-1.784493	7.671132	-0.00157	0.01511	-0.01277	-0.647705	0.232422	-0.113281
287.0	6.11054	-1.731524	7.686009	-0.002678	0.012145	-0.010284	-0.649902	0.232422	-0.115479
288.0	6.086825	-1.737806	7.617449	-0.001463	0.010356	-0.008258	-0.647705	0.234375	-0.113281
289.0	6.11274	-1.765128	7.68941	-0.002821	0.012189	-0.005569	-0.647217	0.223633	-0.108887
290.0	6.086815	-1.753475	7.637041	-0.002713	0.01121	-0.007495	-0.645508	0.230225	-0.117676
291.0	6.08612	-1.753243	7.637648	-0.004999	0.010964	-0.009823	-0.647705	0.234619	-0.115479
292.0	6.086905	-1.76903	7.656576	-0.001532	0.012262	-0.009117	-0.647461	0.230225	-0.111084
293.0	6.10829	-1.747921	7.673723	0.000789	0.009668	-0.00314	-0.645508	0.234619	-0.117676
294.0	6.084826	-1.766658	7.692246	-0.006324	0.009954	-0.003486	-0.647461	0.228027	-0.117676
295.0	6.078406	-1.714212	7.706811	-0.002531	0.008319	-0.008559	-0.649414	0.223633	-0.113281
296.0	6.107184	-1.74987	7.640688	-0.006144	0.007066	-0.004551	-0.649658	0.230225	-0.113281
297.0	6.07965	-1.73259	7.691302	-0.007325	0.006012	-0.002928	-0.649658	0.230225	-0.119873
298.0	6.129297	-1.743869	7.71043	-0.008468	0.005888	-0.004092	-0.649658	0.228027	-0.115479
299.0	6.108128	-1.769161	7.625218	-0.00622	0.005203	0.001024	-0.647705	0.230225	-0.115479
300.0	6.082696	-1.77018	7.659655	-0.006252	0.008042	-0.002623	-0.649658	0.22583	-0.113281
301.0	6.106463	-1.767905	7.660296	-0.006181	0.006133	-0.001763	-0.6521	0.234375	-0.108887
302.0	6.104385	-1.752013	7.642434	-0.006283	0.01088	-0.00627	-0.647461	0.228027	-0.111084
303.0	6.102968	-1.750336	7.677407	-0.007612	0.009872	6.6e-05	-0.649902	0.232422	-0.113281
304.0	6.100834	-1.734759	7.65952	-0.007432	0.006986	-0.001	-0.647705	0.232422	-0.115479
305.0	6.079758	-1.772259	7.661507	-0.009755	0.005807	-0.000543	-0.649658	0.230225	-0.108887
306.0	6.100582	-1.737999	7.625527	-0.008574	0.006861	-0.002164	-0.645508	0.232422	-0.115479
307.0	6.077343	-1.757367	7.643687	-0.009755	0.005806	-0.000542	-0.647705	0.232422	-0.119873
308.0	6.102562	-1.771292	7.662622	-0.003926	0.009216	-0.003078	-0.643555	0.236572	-0.111084
309.0	6.123219	-1.736698	7.626869	-0.008643	0.008768	-0.003023	-0.647461	0.228027	-0.115479
310.0	6.074853	-1.756553	7.679302	-0.008643	0.008767	-0.003023	-0.6521	0.232422	-0.115479
311.0	6.097109	-1.73814	7.661719	-0.007281	0.006936	-0.005712	-0.647461	0.228027	-0.113281
312.0	6.098785	-1.756701	7.645828	-0.008682	0.007834	-0.000236	-0.647705	0.230225	-0.115479
313.0	6.100329	-1.775291	7.630035	-0.006318	0.009943	-0.003479	-0.647705	0.230225	-0.115479
314.0	6.070945	-1.741912	7.662618	-0.004034	0.010189	-0.001149	-0.640869	0.228027	-0.115479
315.0	6.12234	-1.771067	7.665992	-0.005205	0.012904	-0.005958	-0.6521	0.234375	-0.113281
316.0	6.095863	-1.757729	7.647922	-0.006247	0.008033	-0.002619	-0.645264	0.228027	-0.113281
317.0	6.096709	-1.774166	7.666615	-0.006317	0.00994	-0.003478	-0.645752	0.236572	-0.108887
318.0	6.095915	-1.774146	7.66725	-0.001628	0.013228	-0.007175	-0.645264	0.22583	-0.111084
319.0	6.09282	-1.755962	7.684179	-0.004103	0.012093	-0.002006	-0.645508	0.234619	-0.113281
320.0	6.067766	-1.75866	7.684421	-0.003881	0.010141	-0.00586	-0.654053	0.228027	-0.111084
321.0	6.089934	-1.73984	7.667038	-0.00267	0.008357	-0.003836	-0.647705	0.232422	-0.115479
322.0	6.092984	-1.77423	7.669561	-0.006315	0.009936	-0.003477	-0.647705	0.232422	-0.113281
323.0	6.065959	-1.758905	7.685792	-0.004883	0.006201	-0.005308	-0.647705	0.232422	-0.119873
324.0	6.112427	-1.737714	7.668707	-0.006425	0.010911	-0.001549	-0.647949	0.236816	-0.119873
325.0	6.08945	-1.758654	7.652817	-0.004129	0.014927	-0.005647	-0.650146	0.23877	-0.115479
326.0	6.088766	-1.758507	7.653394	-0.003587	0.006279	-0.008855	-0.649658	0.228027	-0.111084
327.0	6.088185	-1.758566	7.653843	-0.005284	0.011032	-0.000383	-0.6521	0.232422	-0.119873
328.0	6.113165	-1.772238	7.673041	-0.003878	0.010136	-0.005857	-0.647705	0.232422	-0.111084
329.0	6.085227	-1.742665	7.636723	-0.007522	0.011713	-0.005499	-0.649658	0.228027	-0.115479
330.0	6.085149	-1.757017	7.690014	-0.005129	0.010985	-0.005095	-0.649658	0.230225	-0.115479
331.0	6.085938	-1.761022	7.621667	-0.005129	0.010985	-0.005094	-0.647705	0.236572	-0.111084
332.0	6.0873	-1.791525	7.693215	-0.006381	0.011835	-0.004332	-0.649902	0.232178	-0.108887
333.0	6.111487	-1.790794	7.659843	-0.001621	0.013217	-0.007166	-0.645508	0.230225	-0.111084
334.0	6.10841	-1.772558	7.676753	-0.003987	0.011106	-0.003928	-0.647705	0.234619	-0.115479
335.0	6.08193	-1.758958	7.658724	-0.002691	0.011185	-0.007474	-0.645508	0.230225	-0.117676
336.0	6.10689	-1.772288	7.678025	-0.003943	0.012035	-0.006712	-0.647705	0.234619	-0.115479
337.0	6.082615	-1.776784	7.643816	-0.003942	0.012034	-0.006711	-0.645264	0.22998	-0.104492
338.0	6.081878	-1.776527	7.644463	-0.000297	0.010457	-0.007068	-0.645508	0.230225	-0.113281
339.0	6.100977	-1.737342	7.677903	-0.001481	0.009401	-0.00545	-0.654053	0.230225	-0.115479
340.0	6.082038	-1.792234	7.663841	-0.003873	0.010126	-0.005854	-0.643311	0.234619	-0.113281
341.0	6.077662	-1.757743	7.66239	-0.001435	0.01033	-0.008233	-0.651855	0.230225	-0.115479
342.0	6.102546	-1.77112	7.681747	-0.004167	0.01398	-0.002855	-0.647461	0.228027	-0.115479
343.0	6.076699	-1.759406	7.629408	-0.002709	0.014013	-0.011111	-0.654541	0.23877	-0.113281
344.0	6.099328	-1.754605	7.664991	-0.005124	0.010973	-0.005091	-0.645508	0.232422	-0.117676
345.0	6.09855	-1.754592	7.665612	-0.003939	0.012027	-0.006709	-0.649658	0.228027	-0.117676
346.0	6.074914	-1.773304	7.684096	-0.002799	0.012151	-0.005542	-0.647705	0.234375	-0.111084
347.0	6.094588	-1.73633	7.683204	-0.00519	0.012874	-0.005947	-0.647705	0.232422	-0.117676
348.0	6.075483	-1.791496	7.669211	-0.006375	0.011819	-0.004329	-0.647705	0.234619	-0.119873
349.0	6.097477	-1.772636	7.652077	-0.00389	0.012952	-0.009491	-0.649902	0.234619	-0.117676
350.0	6.094514	-1.754475	7.668848	-0.003848	0.007285	-0.002212	-0.641113	0.232422	-0.117676
351.0	6.098418	-1.79078	7.636923	-0.006327	0.012745	-0.007112	-0.649902	0.232422	-0.119873
352.0	6.0944	-1.770792	7.688287	-0.005188	0.01287	-0.005945	-0.645508	0.234619	-0.113281
353.0	6.092182	-1.754613	7.67067	-0.003867	0.010116	-0.00585	-0.645508	0.230225	-0.111084
354.0	6.093012	-1.770745	7.689397	-0.003799	0.008212	-0.004994	-0.643066	0.22583	-0.115479
355.0	6.068971	-1.775386	7.654979	-0.00512	0.010963	-0.005088	-0.647705	0.230225	-0.117676
356.0	6.090173	-1.754521	7.672286	-0.001542	0.011294	-0.006298	-0.647705	0.234619	-0.12207
357.0	6.067522	-1.774968	7.656224	-0.001426	0.010319	-0.008226	-0.6521	0.234375	-0.113281
358.0	6.092495	-1.788207	7.67556	-0.003932	0.012015	-0.006704	-0.643311	0.232422	-0.117676
359.0	6.065181	-1.772463	7.691974	-0.001376	0.011246	-0.011008	-0.649658	0.230225	-0.115479
360.0	6.060807	-1.737828	7.690539	-0.003749	0.009136	-0.007776	-0.643311	0.230225	-0.113281
361.0	6.11194	-1.752351	7.64131	-0.005002	0.009984	-0.007015	-0.651855	0.22583	-0.115479
362.0	6.063435	-1.771899	7.69348	-0.004818	0.007106	-0.008087	-0.641113	0.232422	-0.119873
363.0	6.090506	-1.789085	7.643632	-0.00368	0.007232	-0.00692	-0.654053	0.230225	-0.115479
364.0	6.085399	-1.75268	7.676493	-0.003631	0.008159	-0.009702	-0.651855	0.230225	-0.111084
365.0	6.087286	-1.770552	7.66067	-0.008295	0.008627	-0.012442	-0.647705	0.232422	-0.111084
366.0	6.108663	-1.749509	7.677879	-0.001423	0.010313	-0.008222	-0.643311	0.232422	-0.115479
367.0	6.108982	-1.751138	7.643953	-0.004883	0.009004	-0.00894	-0.647217	0.223877	-0.115479
368.0	6.057676	-1.738232	7.659603	-0.002425	0.006381	-0.007679	-0.647705	0.234375	-0.108887
369.0	6.107126	-1.748836	7.679255	-0.005	0.009977	-0.007012	-0.6521	0.236572	-0.111084
370.0	6.084587	-1.769669	7.663017	-0.00505	0.009049	-0.00423	-0.647705	0.236572	-0.111084
371.0	6.080241	-1.735649	7.661413	-0.00851	0.00774	-0.004949	-0.649658	0.22583	-0.115479
372.0	6.083447	-1.770142	7.663813	-0.003913	0.009174	-0.003062	-0.647705	0.232422	-0.113281
373.0	6.082925	-1.770311	7.664189	-0.008391	0.006764	-0.006877	-0.651855	0.230469	-0.126221
374.0	6.106714	-1.767706	7.665042	-0.003794	0.008199	-0.004989	-0.643311	0.232422	-0.115479
375.0	6.084278	-1.788483	7.64873	-0.003794	0.008199	-0.004989	-0.649902	0.232422	-0.111084
376.0	6.078988	-1.752394	7.681637	-0.006184	0.008918	-0.005396	-0.649658	0.22583	-0.117676
377.0	6.080723	-1.770515	7.665889	-0.00386	0.010099	-0.005842	-0.647461	0.22583	-0.115479
378.0	6.081012	-1.772355	7.631959	-0.004996	0.009971	-0.007009	-0.647461	0.228027	-0.113281
379.0	6.080886	-1.786613	7.685132	-0.002657	0.008324	-0.00382	-0.651855	0.228027	-0.113281
380.0	6.078893	-1.770573	7.667326	-0.006235	0.007988	-0.002614	-0.647461	0.230225	-0.108887
381.0	6.077334	-1.76865	7.702276	-0.001417	0.010305	-0.008215	-0.645264	0.228027	-0.113281
382.0	6.077606	-1.770392	7.668388	-0.006249	0.010815	-0.006248	-0.647461	0.228027	-0.111084
383.0	6.075911	-1.768599	7.703411	-0.005113	0.010941	-0.00508	-0.649902	0.232422	-0.117676
384.0	6.07244	-1.736441	7.667419	-0.008505	0.00773	-0.004948	-0.647705	0.232422	-0.115479
385.0	6.100035	-1.768255	7.670232	-0.00725	0.006883	-0.005709	-0.649902	0.234619	-0.115479
386.0	6.073053	-1.753066	7.686177	-0.004793	0.004264	-0.004448	-0.645264	0.228027	-0.117676
387.0	6.073674	-1.755009	7.651976	-0.007197	0.007809	-0.008489	-0.647705	0.230225	-0.115479
388.0	6.074564	-1.771206	7.67061	-0.006127	0.009837	-0.008173	-0.645508	0.230225	-0.117676
389.0	6.074019	-1.771203	7.671042	-0.006061	0.007936	-0.007321	-0.649658	0.230225	-0.117676
390.0	6.093894	-1.734025	7.670106	-0.001413	0.010301	-0.00821	-0.647705	0.234619	-0.115479
391.0	6.07305	-1.7708	7.671903	-0.003537	0.003416	-0.005208	-0.649658	0.230225	-0.115479
392.0	6.094576	-1.749989	7.688957	-0.00606	0.007933	-0.00732	-0.647705	0.236572	-0.108887
393.0	6.070894	-1.754635	7.654267	-0.005993	0.006033	-0.006468	-0.649658	0.228027	-0.115479
394.0	6.071977	-1.770733	7.672768	-0.003549	0.006242	-0.00884	-0.645264	0.228027	-0.108887
395.0	6.095884	-1.767805	7.673635	-0.005939	0.006958	-0.009247	-0.645508	0.230225	-0.113281
396.0	6.0964	-1.769682	7.63955	-0.006179	0.008904	-0.005391	-0.645508	0.234619	-0.117676
397.0	6.069608	-1.76871	7.708352	-0.006004	0.008857	-0.010099	-0.651855	0.228027	-0.117676
398.0	6.070206	-1.770444	7.674235	-0.003602	0.005313	-0.006059	-0.645508	0.230225	-0.119873
399.0	6.092693	-1.751559	7.656846	-0.008381	0.006745	-0.006874	-0.654297	0.232422	-0.113281
400.0	6.068068	-1.754454	7.656549	-0.005991	0.006028	-0.006466	-0.645508	0.232422	-0.117676
401.0	6.094823	-1.784185	7.693769	-0.007125	0.005899	-0.007634	-0.647461	0.230225	-0.113281
402.0	6.068836	-1.770817	7.675233	-0.007124	0.005898	-0.007634	-0.645264	0.228027	-0.113281
403.0	6.095161	-1.786264	7.659786	-0.008379	0.006742	-0.006873	-0.647461	0.228027	-0.113281
404.0	6.091373	-1.766537	7.710742	-0.008258	0.005768	-0.008801	-0.6521	0.232422	-0.119873
405.0	6.090718	-1.752271	7.658254	-0.005923	0.004126	-0.005614	-0.645264	0.228027	-0.115479
406.0	6.094226	-1.786592	7.660453	-0.006056	0.007924	-0.007315	-0.645264	0.22583	-0.115479
407.0	6.08895	-1.750554	7.693284	-0.007123	0.005895	-0.007632	-0.654053	0.228027	-0.108887
408.0	6.067816	-1.773259	7.642245	-0.004855	0.006153	-0.005296	-0.647705	0.232422	-0.12207
409.0	6.090639	-1.768793	7.677571	-0.007244	0.006867	-0.005704	-0.649658	0.228027	-0.111084
410.0	6.087797	-1.750978	7.6941	-0.00951	0.006607	-0.008039	-0.645264	0.228027	-0.111084
411.0	6.092378	-1.787312	7.661755	-0.00831	0.004837	-0.006021	-0.654297	0.232422	-0.115479
412.0	6.089664	-1.769545	7.678171	-0.00831	0.004836	-0.00602	-0.647705	0.234619	-0.117676
413.0	6.089532	-1.76961	7.678261	-0.005676	0.002177	-0.009469	-0.649902	0.236572	-0.113281
414.0	6.089365	-1.769668	7.67838	-0.010642	0.006474	-0.009206	-0.645264	0.226074	-0.119629
415.0	6.089036	-1.769664	7.678642	-0.003542	0.006233	-0.008833	-0.6521	0.234375	-0.113281
416.0	6.064427	-1.772249	7.678387	-0.004797	0.007075	-0.008072	-0.645508	0.230225	-0.117676
417.0	6.090777	-1.787306	7.66303	-0.003541	0.006232	-0.008832	-0.649658	0.230225	-0.113281
418.0	6.086493	-1.752928	7.661462	-0.006052	0.007916	-0.007311	-0.647705	0.232422	-0.113281
419.0	6.112782	-1.767953	7.646167	-0.002351	0.007287	-0.010442	-0.649658	0.228027	-0.113281
420.0	6.08715	-1.768408	7.680426	-0.001095	0.006444	-0.011202	-0.645264	0.228027	-0.117676
421.0	6.089107	-1.7861	7.664638	-0.006184	0.01171	-0.00901	-0.647949	0.23877	-0.115479
422.0	6.057937	-1.736513	7.678866	-0.001331	0.005564	-0.003717	-0.645264	0.228027	-0.115479
423.0	6.085663	-1.767669	7.681775	-0.003548	0.009052	-0.012458	-0.647705	0.232422	-0.115479
424.0	6.061977	-1.771936	7.647184	-0.004861	0.008968	-0.00892	-0.649902	0.232422	-0.117676
425.0	6.083193	-1.750936	7.664538	-0.003728	0.009097	-0.007751	-0.651855	0.230225	-0.108887
426.0	6.083836	-1.752514	7.630463	-0.00467	0.006096	-0.009998	-0.645264	0.226074	-0.117676
427.0	6.083801	-1.766832	7.683442	-0.00605	0.007909	-0.007309	-0.649658	0.230225	-0.115479
428.0	6.085819	-1.784621	7.667593	-0.003545	0.009048	-0.012456	-0.645264	0.223877	-0.117676
429.0	6.082872	-1.766035	7.68436	-0.001156	0.008337	-0.012047	-0.649658	0.230225	-0.117676
430.0	6.105112	-1.746635	7.667338	-0.006181	0.011701	-0.009006	-0.647461	0.228027	-0.117676
431.0	6.082793	-1.767279	7.650944	-0.004733	0.007989	-0.010846	-0.645508	0.232422	-0.113281
432.0	6.128255	-1.743294	7.668954	-0.002536	0.010148	-0.009357	-0.647705	0.232422	-0.115479
433.0	6.078142	-1.746797	7.702679	-0.003601	0.008118	-0.009677	-0.645264	0.228027	-0.113281
434.0	6.107935	-1.781522	7.63679	-0.003792	0.010987	-0.008596	-0.647705	0.232422	-0.117676
435.0	6.080501	-1.765928	7.653078	-0.001344	0.011201	-0.010964	-0.6521	0.236572	-0.115479
436.0	6.101586	-1.744793	7.670564	-0.006113	0.009797	-0.008156	-0.645264	0.228271	-0.121826
437.0	6.103592	-1.762469	7.65477	-0.001151	0.00833	-0.012043	-0.647705	0.230225	-0.115479
438.0	6.073712	-1.72891	7.68725	-0.006178	0.011691	-0.009004	-0.645264	0.228027	-0.113281
439.0	6.099858	-1.744058	7.672105	-0.004914	0.00803	-0.006138	-0.643311	0.230225	-0.111084
440.0	6.077593	-1.764889	7.655627	-0.006111	0.009793	-0.008155	-0.643555	0.236572	-0.115479
441.0	6.076995	-1.764774	7.656128	-0.002592	0.009217	-0.006577	-0.649658	0.230225	-0.119873
442.0	6.076406	-1.764573	7.656642	-0.002592	0.009216	-0.006577	-0.647461	0.22583	-0.113281
443.0	6.098468	-1.745147	7.639798	-0.000401	0.014195	-0.00871	-0.647705	0.232422	-0.119873
444.0	6.073831	-1.762134	7.692403	-0.003655	0.007186	-0.006897	-0.651855	0.230225	-0.113281
445.0	6.098548	-1.760838	7.659164	-0.001592	0.013138	-0.007102	-0.645508	0.234619	-0.115479
446.0	6.073578	-1.763346	7.659168	-0.003659	0.010004	-0.01052	-0.649658	0.226074	-0.119873
447.0	6.094637	-1.742032	7.676713	-0.001337	0.011191	-0.010958	-0.647705	0.230225	-0.115479
448.0	6.096436	-1.759608	7.661128	-0.002721	0.013002	-0.00827	-0.640869	0.228027	-0.117676
449.0	6.071506	-1.762051	7.661108	-0.00127	0.009294	-0.01011	-0.649658	0.228027	-0.117676
450.0	6.072372	-1.77794	7.679796	-0.003719	0.009077	-0.007743	-0.645264	0.228027	-0.111084
451.0	6.094581	-1.758551	7.662846	-0.000267	0.010398	-0.007011	-0.651855	0.228027	-0.117676
452.0	6.091207	-1.740267	7.679835	-0.003977	0.013837	-0.007509	-0.645508	0.230225	-0.111084
453.0	6.091662	-1.741615	7.646031	0.00112	0.008585	-0.009698	-0.647461	0.228027	-0.115479
454.0	6.068259	-1.760096	7.664129	-0.001332	0.011184	-0.010955	-0.647461	0.228027	-0.113281
455.0	6.091845	-1.75693	7.665393	-0.004975	0.009911	-0.006983	-0.647461	0.228027	-0.117676
456.0	6.086044	-1.720796	7.698499	-0.001457	0.009339	-0.005403	-0.643311	0.232422	-0.111084
457.0	6.065089	-1.757745	7.700301	-0.00391	0.011937	-0.00666	-0.647705	0.234375	-0.113281
458.0	6.089812	-1.756484	7.66711	-0.002586	0.009204	-0.006572	-0.649658	0.228027	-0.115479
459.0	6.086523	-1.73833	7.683986	-0.003909	0.011936	-0.00666	-0.647705	0.230225	-0.115479
460.0	6.086938	-1.739902	7.650182	-0.001522	0.01123	-0.006249	-0.649902	0.232422	-0.111084
461.0	6.087568	-1.755961	7.669012	-0.003908	0.011934	-0.006659	-0.645508	0.232422	-0.111084
462.0	6.061323	-1.756889	7.703461	-0.003844	0.012854	-0.009433	-0.645508	0.230225	-0.113281
463.0	6.085961	-1.755662	7.670356	-0.003972	0.01101	-0.003884	-0.647461	0.228027	-0.115479
464.0	6.083979	-1.753901	7.705432	-0.005035	0.011797	-0.007828	-0.649902	0.234619	-0.115479
465.0	6.058903	-1.742233	7.652623	-0.003776	0.008143	-0.004965	-0.651855	0.230225	-0.113281
466.0	6.082706	-1.753731	7.706476	-0.003776	0.010957	-0.008586	-0.645508	0.232422	-0.113281
467.0	6.080705	-1.73737	7.688808	-0.004904	0.008008	-0.006135	-0.647705	0.232422	-0.113281
468.0	6.080074	-1.73724	7.689337	-0.001519	0.011224	-0.006245	-0.645264	0.228027	-0.106689
469.0	6.08205	-1.755095	7.673587	-0.003775	0.008141	-0.004965	-0.649658	0.230225	-0.113281
470.0	6.057234	-1.758127	7.673297	-0.008548	0.009547	-0.005787	-0.649902	0.232422	-0.111084
471.0	6.105087	-1.752405	7.67521	-0.002581	0.009195	-0.006568	-0.649658	0.230225	-0.117676
472.0	6.05601	-1.75806	7.674279	-0.004967	0.009898	-0.006979	-0.641113	0.230225	-0.113281
473.0	6.079654	-1.755142	7.675475	-0.003774	0.008139	-0.004964	-0.649658	0.228027	-0.113281
474.0	6.054862	-1.758102	7.675175	-0.00616	0.008841	-0.005375	-0.647461	0.228027	-0.117676
475.0	6.079969	-1.771379	7.694497	-0.003576	0.008087	-0.009665	-0.651855	0.230225	-0.117676
476.0	6.051227	-1.740056	7.69227	-0.008482	0.007649	-0.004941	-0.649902	0.234375	-0.111084
477.0	6.07907	-1.756962	7.642446	-0.00338	0.002409	-0.007129	-0.647705	0.234619	-0.117676
478.0	6.074817	-1.737229	7.693493	-0.008479	0.010461	-0.008559	-0.6521	0.232422	-0.119873
479.0	6.077056	-1.755428	7.677467	-0.007092	0.003026	-0.004009	-0.647705	0.232422	-0.117676
480.0	6.076776	-1.755516	7.677668	-0.004768	0.007029	-0.00806	-0.649902	0.232422	-0.115479
481.0	6.079008	-1.773451	7.66171	-0.007154	0.00773	-0.008472	-0.647461	0.230225	-0.111084
482.0	6.026254	-1.759624	7.711274	-0.007089	0.005837	-0.007627	-0.645508	0.230225	-0.121826
483.0	6.076941	-1.757332	7.644054	-0.008216	0.005701	-0.008797	-0.643311	0.232422	-0.119873
484.0	6.052725	-1.774688	7.696041	-0.003246	0.001435	-0.009057	-0.6521	0.234375	-0.113281
485.0	6.049958	-1.756449	7.71249	-0.005761	0.005919	-0.011157	-0.649658	0.228027	-0.111084
486.0	6.098196	-1.750492	7.714187	-0.008082	0.004727	-0.010724	-0.645508	0.232422	-0.119873
487.0	6.075139	-1.755193	7.679037	-0.008085	0.001914	-0.007107	-0.651855	0.228027	-0.115479
488.0	6.050824	-1.758278	7.678319	-0.008149	0.003805	-0.007951	-0.647461	0.226074	-0.119629
489.0	6.046736	-1.724153	7.676468	-0.009078	0.000805	-0.010205	-0.651611	0.223633	-0.113281
490.0	6.076648	-1.771856	7.69701	-0.011265	-0.001359	-0.011701	-0.645508	0.230225	-0.115479
491.0	6.052665	-1.760206	7.643354	-0.007619	-0.002895	-0.012048	-0.647705	0.232422	-0.115479
492.0	6.124339	-1.749783	7.679845	-0.012589	0.001365	-0.011785	-0.654297	0.232422	-0.117676
493.0	6.080265	-1.789848	7.679944	-0.005232	-0.003595	-0.011636	-0.649658	0.230225	-0.113281
494.0	6.100665	-1.752383	7.678731	-0.007813	0.002777	-0.014577	-0.645508	0.232422	-0.117676
495.0	6.100833	-1.752219	7.678634	-0.006624	-0.001791	-0.008948	-0.654053	0.228027	-0.115479
496.0	6.07798	-1.75673	7.643366	-0.00682	0.003884	-0.011478	-0.647461	0.230225	-0.113281
497.0	6.100939	-1.751887	7.678626	-0.005494	0.001156	-0.011393	-0.647461	0.230225	-0.113281
498.0	6.07528	-1.738233	7.659823	-0.005625	0.004939	-0.013079	-0.647461	0.228027	-0.117676
499.0	6.103539	-1.769264	7.662507	-0.005627	0.002126	-0.009464	-0.645508	0.230225	-0.117676
500.0	6.100579	-1.75098	7.679119	-0.001253	0.009269	-0.010085	-0.647705	0.232422	-0.117676
501.0	6.101453	-1.752183	7.645087	-0.005689	0.006827	-0.013921	-0.651611	0.22168	-0.115479
502.0	6.101166	-1.751928	7.645374	-0.003575	0.005262	-0.006038	-0.647461	0.228027	-0.117676
503.0	6.09948	-1.749963	7.680224	-0.002377	0.009129	-0.011253	-0.651855	0.22998	-0.106689
504.0	6.074716	-1.752491	7.679989	-0.003637	0.009962	-0.010494	-0.647461	0.228027	-0.117676
505.0	6.101149	-1.767147	7.664898	-0.004696	0.007933	-0.010821	-0.649658	0.228027	-0.113281
506.0	6.069631	-1.717621	7.679082	-0.002445	0.008207	-0.008481	-0.647705	0.232422	-0.113281
507.0	6.121494	-1.731098	7.630346	-0.007282	0.011489	-0.010146	-0.651855	0.228027	-0.113281
508.0	6.096783	-1.74849	7.682701	-0.001319	0.008344	-0.00731	-0.645508	0.232422	-0.115479
509.0	6.096138	-1.748353	7.683243	-0.003975	0.010982	-0.003864	-0.6521	0.232422	-0.115479
510.0	6.072473	-1.752978	7.648603	-0.006155	0.011624	-0.008975	-0.647705	0.230225	-0.115479
511.0	6.096199	-1.764524	7.702476	-0.002513	0.007285	-0.005709	-0.649902	0.232422	-0.113281
512.0	6.092874	-1.731785	7.666643	-0.004828	0.008898	-0.008891	-0.647461	0.228027	-0.113281
513.0	6.093653	-1.74803	7.685288	-0.005099	0.01084	-0.005033	-0.647461	0.22583	-0.117676
514.0	6.094271	-1.749693	7.651383	-0.003838	0.010007	-0.005791	-0.643555	0.236572	-0.115479
515.0	6.09209	-1.733391	7.633868	-0.005164	0.012729	-0.005874	-0.649658	0.228027	-0.117676
516.0	6.091476	-1.748143	7.686988	-0.008406	0.008533	-0.007702	-0.645264	0.228027	-0.117676
517.0	6.068062	-1.767645	7.704748	-0.006293	0.00978	-0.003432	-0.654297	0.232422	-0.113281
518.0	6.11856	-1.765091	7.637876	-0.003771	0.008114	-0.004948	-0.647705	0.230225	-0.117676
519.0	6.095209	-1.784269	7.655659	-0.0037	0.009032	-0.007718	-0.654053	0.228027	-0.115479
520.0	6.114655	-1.74693	7.655186	-0.003836	0.010003	-0.005789	-0.649902	0.234375	-0.111084
521.0	6.088333	-1.748105	7.689486	-0.002705	0.012948	-0.00823	-0.649658	0.22583	-0.115479
522.0	6.090318	-1.765854	7.673805	-0.002711	0.01014	-0.004618	-0.649902	0.232422	-0.115479
523.0	6.088262	-1.749506	7.656208	-0.006083	0.009723	-0.00813	-0.647461	0.22583	-0.113281
524.0	6.06336	-1.752267	7.655993	-0.001443	0.012114	-0.008986	-0.643311	0.230225	-0.115479
525.0	6.109624	-1.744448	7.692769	-0.001725	0.011248	-0.001518	-0.645508	0.234619	-0.115479
526.0	6.083218	-1.731128	7.674455	-0.006146	0.011609	-0.00897	-0.647705	0.234375	-0.111084
527.0	6.085204	-1.749046	7.658744	-0.006283	0.012579	-0.007041	-0.649902	0.232422	-0.117676
528.0	6.104525	-1.711745	7.658372	-0.002572	0.009165	-0.006545	-0.647461	0.228027	-0.108887
529.0	6.088045	-1.783068	7.661637	-0.003833	0.009996	-0.005787	-0.647705	0.230225	-0.115479
530.0	6.081831	-1.747167	7.694843	-0.004955	0.009856	-0.006957	-0.647705	0.232422	-0.111084
531.0	6.082673	-1.748864	7.660796	-0.006087	0.00691	-0.004518	-0.647461	0.230225	-0.113281
532.0	6.107708	-1.762301	7.680177	-0.001659	0.009355	-0.000675	-0.649658	0.230225	-0.111084
533.0	6.080079	-1.732737	7.643587	-0.003767	0.008105	-0.004945	-0.651855	0.22583	-0.117676
534.0	6.079369	-1.732835	7.644129	-0.008664	0.013264	-0.007452	-0.647461	0.228027	-0.115479
535.0	6.080034	-1.763922	7.71538	-0.002643	0.008244	-0.003774	-0.647705	0.234375	-0.113281
536.0	6.053898	-1.735923	7.644267	-0.004888	0.007964	-0.006116	-0.6521	0.232422	-0.115479
537.0	6.081683	-1.767182	7.647368	-0.005092	0.010822	-0.005026	-0.649658	0.228027	-0.111084
538.0	6.079599	-1.765678	7.68234	-0.005027	0.008933	-0.004186	-0.647705	0.234375	-0.111084
539.0	6.097519	-1.712146	7.663862	-0.003894	0.011877	-0.006623	-0.649658	0.228027	-0.121826
540.0	6.074019	-1.731576	7.681637	-0.006223	0.007875	-0.002589	-0.645508	0.230225	-0.119873
541.0	6.076301	-1.749574	7.665689	-0.005933	0.008739	-0.010054	-0.647705	0.232422	-0.113281
542.0	6.097196	-1.728646	7.683294	-0.003839	0.007183	-0.002174	-0.647461	0.22583	-0.115479
543.0	6.07531	-1.749587	7.666471	-0.007054	0.008598	-0.011225	-0.649902	0.232422	-0.115479
544.0	6.097543	-1.744876	7.702251	-0.00495	0.009847	-0.006953	-0.647461	0.230225	-0.108887
545.0	6.072777	-1.747886	7.701827	-0.006007	0.007819	-0.007285	-0.6521	0.232422	-0.115479
546.0	6.075029	-1.765778	7.685932	-0.003827	0.009985	-0.005781	-0.649658	0.230225	-0.117676
547.0	6.09451	-1.728445	7.68547	-0.005866	0.006847	-0.009214	-0.645508	0.230225	-0.117676
548.0	6.074162	-1.765673	7.686641	-0.005942	0.00593	-0.006445	-0.649902	0.232422	-0.117676
549.0	6.073754	-1.765715	7.686953	-0.006006	0.007816	-0.007284	-0.647705	0.232422	-0.117676
550.0	6.071895	-1.749416	7.669215	-0.006005	0.007815	-0.007284	-0.649658	0.228027	-0.115479
551.0	6.075652	-1.783578	7.67135	-0.00705	0.008591	-0.011223	-0.645508	0.230225	-0.115479
552.0	6.05113	-1.786526	7.670738	-0.008042	0.004676	-0.010717	-0.645508	0.234619	-0.115479
553.0	6.09229	-1.728288	7.687266	-0.00692	0.004816	-0.009545	-0.651855	0.228027	-0.115479
554.0	6.072085	-1.765406	7.688343	-0.005722	0.005872	-0.01114	-0.645508	0.230225	-0.117676
555.0	6.09331	-1.729415	7.653253	-0.00558	0.004902	-0.013069	-0.647461	0.228027	-0.113281
556.0	6.093147	-1.743987	7.70593	-0.007975	0.002785	-0.009877	-0.647705	0.232422	-0.113281
557.0	6.094511	-1.745633	7.671529	-0.008117	0.003755	-0.007948	-0.649658	0.230225	-0.119873
558.0	6.094438	-1.745629	7.671588	-0.005591	0.002097	-0.009463	-0.649658	0.22583	-0.113281
559.0	6.095771	-1.762039	7.689714	-0.008194	0.002837	-0.00518	-0.647705	0.232422	-0.113281
560.0	6.118468	-1.742804	7.672566	-0.005733	0.003066	-0.007533	-0.649902	0.236572	-0.115479
561.0	6.092697	-1.729485	7.653725	-0.005797	0.004952	-0.008371	-0.651855	0.230225	-0.117676
562.0	6.095326	-1.747307	7.63756	-0.005797	0.004951	-0.00837	-0.649902	0.232422	-0.115479
563.0	6.096253	-1.763654	7.656024	-0.00621	0.010662	-0.006187	-0.649414	0.223633	-0.113281
564.0	6.095859	-1.763781	7.656308	-0.005809	0.002147	-0.004766	-0.645508	0.232422	-0.113281
565.0	6.095454	-1.763819	7.656621	-0.006132	0.011577	-0.008953	-0.649902	0.232422	-0.111084
566.0	6.090577	-1.729483	7.655413	-0.005924	0.008721	-0.010044	-0.649658	0.228027	-0.115479
567.0	6.092921	-1.762267	7.691921	-0.007278	0.005829	-0.002916	-0.649902	0.232422	-0.115479
568.0	6.11243	-1.725269	7.691378	-0.00608	0.006887	-0.004511	-0.645508	0.232422	-0.117676
569.0	6.09067	-1.746416	7.674401	-0.007199	0.006744	-0.005682	-0.647705	0.234375	-0.111084
570.0	6.091781	-1.748262	7.640169	-0.009518	0.005543	-0.005259	-0.645264	0.228027	-0.117676
571.0	6.091214	-1.763336	7.693027	-0.005024	0.008913	-0.004175	-0.649658	0.230225	-0.113281
572.0	6.090827	-1.748539	7.640866	-0.005857	0.006832	-0.009205	-0.649902	0.232422	-0.119873
573.0	6.091784	-1.764906	7.659292	-0.003839	0.007168	-0.002166	-0.65625	0.230225	-0.117676
574.0	6.086786	-1.745632	7.710583	-0.006207	0.010654	-0.006183	-0.645264	0.226074	-0.117676
575.0	6.08895	-1.7636	7.69476	-0.005087	0.010796	-0.005011	-0.649658	0.228027	-0.108887
576.0	6.088362	-1.748795	7.642771	-0.003823	0.009968	-0.005768	-0.643311	0.230225	-0.113281
577.0	6.110367	-1.744039	7.678738	-0.002624	0.011026	-0.007361	-0.645508	0.232422	-0.111084
578.0	6.061234	-1.750116	7.677484	-0.005086	0.010793	-0.00501	-0.643311	0.232422	-0.111084
579.0	6.084717	-1.747043	7.678979	-0.002703	0.010109	-0.004595	-0.649658	0.230225	-0.115479
580.0	6.10815	-1.743952	7.680521	-0.006268	0.012534	-0.007017	-0.649902	0.232422	-0.111084
581.0	6.086095	-1.765067	7.663776	-0.006284	0.009732	-0.003416	-0.654053	0.228027	-0.113281
582.0	6.085401	-1.764994	7.664343	0.00088	0.010482	-0.005772	-0.647705	0.232422	-0.111084
583.0	6.108865	-1.761735	7.665908	-0.003965	0.010932	-0.003837	-0.647461	0.22583	-0.113281
584.0	6.080967	-1.746938	7.681973	-0.003884	0.011847	-0.006601	-0.649902	0.232422	-0.115479
585.0	6.105923	-1.745348	7.649084	-0.003965	0.010931	-0.003836	-0.649658	0.230225	-0.113281
586.0	6.130709	-1.758758	7.668708	-0.006346	0.011613	-0.004251	-0.643311	0.232422	-0.113281
587.0	6.099866	-1.726269	7.701122	-0.003964	0.010929	-0.003835	-0.651855	0.228027	-0.108887
588.0	6.130853	-1.775542	7.687669	-0.012801	0.003218	-0.007943	-0.647705	0.234375	-0.113281
589.0	6.157943	-1.790318	7.672266	-0.007647	0.00363	-0.017336	-0.6521	0.232178	-0.111084
590.0	6.136396	-1.81102	7.655209	-0.010591	0.010984	-0.013632	-0.647461	0.230225	-0.113281
591.0	6.157285	-1.775019	7.620511	-0.005827	0.009619	-0.012801	-0.649902	0.232422	-0.119873
592.0	6.060843	-1.803679	7.635586	-0.00681	0.021994	-0.006492	-0.647461	0.22583	-0.117676
593.0	6.071728	-1.728703	7.703424	0.004083	0.022155	-0.01195	-0.649658	0.230225	-0.113281
594.0	6.160001	-1.663348	7.723185	-0.000278	0.015013	-0.011371	-0.649902	0.232422	-0.115479
595.0	6.242454	-1.593251	7.880122	-0.02485	0.00758	-0.008094	-0.649658	0.230225	-0.115479
596.0	6.306301	-1.678578	7.79909	-0.05368	-0.019574	-0.016416	-0.645264	0.228027	-0.113281
597.0	6.290046	-1.720768	7.762931	-0.053646	-0.027073	-0.00838	-0.647705	0.232422	-0.115479
598.0	6.377107	-1.64066	7.829961	-0.051614	-0.023949	-0.004933	-0.643311	0.230225	-0.115479
599.0	6.469402	-1.611293	7.917094	-0.052156	-0.014492	-0.004398	-0.647461	0.230225	-0.113281
600.0	6.576041	-1.672981	7.889119	-0.049156	0.022312	0.01381	-0.645508	0.230225	-0.117676
601.0	6.585869	-1.606191	7.92355	-0.061369	0.070839	0.040312	-0.654297	0.232422	-0.113281
602.0	6.4959	-1.524953	7.851396	-0.095748	0.102361	0.056681	-0.647949	0.236572	-0.115479
603.0	6.439832	-1.67623	7.634482	-0.136017	0.102832	0.084024	-0.645508	0.234619	-0.117676
604.0	6.847943	-1.756603	7.817747	-0.16974	0.130623	0.117399	-0.645752	0.236572	-0.115479
605.0	7.041342	-2.069218	7.811869	-0.201877	0.20228	0.169423	-0.641113	0.232422	-0.117676
606.0	7.398665	-2.159026	7.743949	-0.18928	0.303938	0.196461	-0.63916	0.23877	-0.111084
607.0	6.878663	-2.182212	7.668422	-0.194448	0.387154	0.248372	-0.641357	0.240967	-0.115479
608.0	6.709207	-2.352069	7.705329	-0.191877	0.422355	0.290919	-0.639404	0.245361	-0.119873
609.0	6.876362	-2.228059	7.636177	-0.178175	0.475336	0.333442	-0.637451	0.247559	-0.12207
610.0	6.429695	-2.010503	7.718644	-0.158782	0.524598	0.34377	-0.630859	0.247559	-0.126221
611.0	6.185215	-2.081218	7.788287	-0.143154	0.55149	0.356532	-0.624512	0.249756	-0.126221
612.0	6.120308	-2.236226	7.839291	-0.128044	0.573409	0.36321	-0.626709	0.25415	-0.130615
613.0	5.847366	-2.095971	7.935589	-0.110509	0.582407	0.357988	-0.622559	0.256348	-0.126465
614.0	5.498733	-1.926358	8.021986	-0.116793	0.574843	0.365475	-0.615967	0.254395	-0.13501
615.0	5.627611	-1.750582	8.011933	-0.132041	0.563664	0.366851	-0.620361	0.258545	-0.13501
616.0	5.46794	-1.862495	7.962265	-0.137262	0.564838	0.354167	-0.612061	0.265137	-0.143799
617.0	4.847044	-1.977496	7.860028	-0.143735	0.543044	0.332417	-0.609619	0.262939	-0.139404
618.0	4.389152	-2.24743	7.770103	-0.138009	0.478587	0.313333	-0.605469	0.262939	-0.141602
619.0	4.548242	-2.375397	7.829592	-0.117728	0.411652	0.284613	-0.60791	0.271484	-0.139404
620.0	4.968883	-2.378203	7.918205	-0.100269	0.388064	0.251296	-0.603516	0.271729	-0.141602
621.0	4.909421	-2.506288	7.794303	-0.081208	0.36746	0.226259	-0.601318	0.267334	-0.145996
622.0	4.638925	-2.624819	7.797963	-0.048085	0.329179	0.202827	-0.599121	0.271729	-0.148193
623.0	4.58226	-2.551911	7.789008	-0.022201	0.292574	0.165207	-0.594971	0.273926	-0.152344
624.0	4.599654	-2.504215	7.823658	0.003276	0.257878	0.131472	-0.588379	0.273926	-0.145996
625.0	4.589693	-2.419866	7.887408	0.024972	0.219298	0.100286	-0.599365	0.273926	-0.148193
626.0	4.777914	-2.422988	8.013451	0.035562	0.185162	0.074544	-0.594971	0.273926	-0.150146
627.0	4.811064	-2.351468	7.993626	0.045251	0.166248	0.058715	-0.590576	0.273926	-0.150146
628.0	4.76092	-2.264553	8.047665	0.05146	0.139818	0.042282	-0.596924	0.271729	-0.152344
629.0	4.763473	-2.207928	8.108174	0.050481	0.114576	0.027095	-0.588379	0.276123	-0.152344
630.0	4.728694	-2.172102	8.109575	0.046812	0.085426	0.015709	-0.592773	0.271729	-0.152344
631.0	4.815878	-2.196803	8.163157	0.036045	0.065643	0.004419	-0.586426	0.276123	-0.150146
632.0	4.882283	-2.206635	8.194526	0.025806	0.042144	0.000652	-0.590576	0.271729	-0.147949
633.0	5.07775	-2.244505	8.209348	0.015439	0.032209	-0.001872	-0.596924	0.271729	-0.154541
634.0	4.935878	-2.253364	8.155757	0.01066	0.023609	-0.000954	-0.588135	0.267578	-0.156738
635.0	4.766134	-2.263448	8.131881	0.005165	0.002381	-0.005284	-0.588379	0.273926	-0.156738
636.0	4.839588	-2.257996	8.142012	0.004507	-0.025634	-0.010997	-0.590576	0.271973	-0.158936
637.0	4.841366	-2.274238	8.157832	-0.000386	-0.04877	-0.008568	-0.590576	0.271973	-0.156738
638.0	4.710886	-2.301274	8.082909	-0.00587	-0.079707	-0.026397	-0.590576	0.271973	-0.156738
639.0	4.696794	-2.284726	8.057197	-0.001252	-0.11444	-0.038198	-0.592773	0.276123	-0.154541
640.0	4.703915	-2.281434	8.085072	0.0069	-0.155899	-0.063303	-0.594727	0.271729	-0.147949
641.0	4.64796	-2.281615	8.066605	0.016664	-0.206313	-0.09268	-0.601318	0.271729	-0.148193
642.0	4.517035	-2.385603	8.141585	0.028643	-0.266487	-0.132999	-0.590576	0.273926	-0.145996
643.0	4.40502	-2.261983	8.19437	0.036557	-0.336313	-0.178944	-0.598877	0.265381	-0.152344
644.0	4.16369	-2.301228	8.247154	0.036929	-0.420851	-0.229795	-0.59668	0.265137	-0.143799
645.0	3.874575	-2.233677	8.497506	0.038288	-0.530536	-0.286263	-0.603516	0.271729	-0.143799
646.0	3.369153	-2.497671	8.620492	0.030565	-0.660976	-0.3675	-0.603271	0.267334	-0.141602
647.0	2.852601	-2.593862	8.669536	0.040803	-0.825311	-0.451684	-0.614258	0.264893	-0.132813
648.0	3.051009	-2.88071	8.591488	0.052814	-1.03668	-0.499186	-0.61377	0.256348	-0.130615
649.0	4.020449	-3.161236	8.644879	0.109367	-1.254655	-0.515078	-0.622559	0.260498	-0.124268
650.0	5.066106	-5.082216	8.745952	0.220065	-1.400674	-0.530537	-0.626953	0.256104	-0.12207
651.0	4.606511	-9.418417	11.445119	0.549103	-1.336617	-0.718564	-0.633057	0.247314	-0.111084
652.0	5.044913	-3.976291	14.033136	0.673954	-0.95691	-0.961451	-0.632813	0.243164	-0.113281
653.0	2.017648	-3.656792	13.290179	0.08444	-0.876216	-1.091964	-0.641113	0.234619	-0.113281
654.0	1.272403	-6.782982	12.34628	-0.338044	-0.885699	-1.226192	-0.636963	0.236572	-0.106689
655.0	1.530052	-8.521117	11.945783	-0.35454	-0.841633	-1.349384	-0.643066	0.22583	-0.111084
656.0	0.701106	-8.121022	12.197913	-0.338623	-0.71197	-1.367733	-0.643311	0.230225	-0.106689
657.0	-1.10274	-7.973907	12.297854	-0.418164	-0.601181	-1.279398	-0.643311	0.22998	-0.102539
658.0	-2.192362	-8.11498	12.478139	-0.50507	-0.52652	-1.120365	-0.632324	0.230225	-0.111084
659.0	-2.26929	-8.133223	13.063456	-0.569505	-0.393718	-0.878748	-0.632568	0.234619	-0.111084
660.0	-2.153224	-7.971465	13.573582	-0.594992	-0.164587	-0.550711	-0.619629	0.241211	-0.119873
661.0	-2.287002	-7.740972	13.768961	-0.576952	0.107134	-0.176778	-0.615967	0.25415	-0.132813
662.0	-2.34498	-7.346387	13.705868	-0.544348	0.388081	0.199154	-0.594971	0.273682	-0.137207
663.0	-2.346691	-6.890862	13.456863	-0.458121	0.655977	0.542123	-0.571777	0.29541	-0.150391
664.0	-2.059231	-6.366116	13.306862	-0.360473	0.887547	0.846658	-0.539795	0.312988	-0.161133
665.0	-1.401831	-6.099432	12.93351	-0.260593	1.105052	1.104351	-0.512695	0.339111	-0.167725
666.0	-0.814373	-5.190964	12.714382	-0.145022	1.302548	1.302045	-0.467773	0.360596	-0.165527
667.0	-0.35569	-4.757755	12.156265	-0.085864	1.457557	1.445972	-0.429443	0.384521	-0.169922
668.0	-0.115146	-4.48137	11.305656	0.028379	1.539179	1.509957	-0.375732	0.401855	-0.154785
669.0	-0.156769	-3.876162	10.433929	0.184242	1.530011	1.492767	-0.328369	0.418945	-0.144043
670.0	-0.215059	-3.008844	9.721592	0.333609	1.402196	1.400602	-0.281006	0.429688	-0.122314
671.0	0.116041	-2.533963	9.339003	0.47264	1.158679	1.233464	-0.244141	0.440186	-0.096191
672.0	1.264988	-2.315353	9.322217	0.617351	0.904758	0.987985	-0.189941	0.446289	-0.052979
673.0	2.823181	-1.793821	9.444482	0.758637	0.704859	0.71597	-0.150635	0.443604	-0.007324
674.0	4.031161	-0.868609	9.747202	0.82349	0.542141	0.467061	-0.120117	0.44751	0.040527
675.0	4.919624	0.009982	9.871986	0.758794	0.378247	0.277235	-0.100098	0.442139	0.109863
676.0	5.904156	0.641392	9.931376	0.589597	0.205684	0.164751	-0.075439	0.426514	0.170654
677.0	7.204704	0.851719	9.830026	0.350111	0.085994	0.13659	-0.079346	0.414795	0.23584
678.0	8.660944	0.285373	9.443926	0.115486	0.038107	0.174471	-0.089111	0.394531	0.300781
679.0	10.568009	-0.368599	9.044266	-0.036954	0.080507	0.252217	-0.105713	0.374268	0.359375
680.0	12.414426	-0.585159	8.426398	-0.12451	0.274501	0.409854	-0.137451	0.352051	0.407227
681.0	14.883345	-0.988205	8.077174	-0.166264	0.570754	0.623673	-0.179932	0.325439	0.452881
682.0	17.948442	-1.781697	6.782116	-0.088799	1.119341	0.870245	-0.215576	0.294922	0.470215
683.0	19.10826	-1.836119	5.254891	0.135664	1.851002	1.123199	-0.260986	0.283691	0.480957
684.0	17.967037	-0.544591	3.181113	0.314823	2.455988	1.34477	-0.302002	0.274902	0.487549
685.0	16.076571	0.998658	0.454642	0.344128	2.722058	1.506955	-0.336426	0.26416	0.472412
686.0	14.696451	2.23354	-2.85942	0.226996	2.565252	1.586257	-0.375244	0.255615	0.461426
687.0	13.740666	2.615229	-5.816192	0.109014	2.070274	1.559055	-0.396973	0.253662	0.452637
688.0	13.289293	2.229001	-7.567405	0.105917	1.336013	1.395303	-0.407959	0.255615	0.448486
689.0	14.327486	1.828134	-8.280632	0.24087	0.562578	1.110529	-0.429443	0.251465	0.439697
690.0	15.324014	3.147435	-7.191016	0.349699	-0.136449	0.753828	-0.433838	0.251221	0.457031
691.0	12.362004	0.31795	-13.951801	0.702229	-1.110592	0.334007	-0.44458	0.249023	0.463623
692.0	-2.542998	-1.635943	-2.672831	1.421383	-2.896709	-0.156968	-0.453369	0.250732	0.491699
693.0	12.374756	-3.232676	20.813365	1.757016	-3.345077	-0.681804	-0.455078	0.243896	0.515625
694.0	6.488213	3.939962	17.689627	1.222731	-1.601565	-0.809163	-0.459229	0.237061	0.537354
695.0	1.798442	8.900185	9.336148	0.576604	-2.351767	-1.263806	-0.461182	0.232666	0.550293
696.0	16.964734	5.562192	13.734232	0.037326	-3.004813	-1.202207	-0.465088	0.223877	0.561035
697.0	21.51698	-0.018209	12.529078	-0.447943	-1.967232	-0.481482	-0.465088	0.219238	0.578613
698.0	12.896166	-3.038227	8.602564	-0.469681	-1.422674	-0.034736	-0.465088	0.221436	0.584961
699.0	6.348501	-2.529383	9.007409	-0.43577	-1.429833	0.208004	-0.465088	0.221436	0.587158
700.0	3.138435	-0.568184	8.27265	-0.474326	-1.446881	0.259891	-0.460693	0.221191	0.600098
701.0	2.993459	-2.173132	6.622214	-0.539752	-1.544935	0.016404	-0.464844	0.218994	0.608887
702.0	6.680738	-4.584221	6.260416	-0.393386	-1.505473	-0.287971	-0.458008	0.212402	0.619629
703.0	9.773681	-7.042222	5.938492	-0.123675	-1.31218	-0.334271	-0.462402	0.212158	0.626221
704.0	10.946911	-7.273653	6.224065	0.304457	-1.008231	-0.271033	-0.458008	0.209961	0.628418
705.0	9.407652	-3.008608	7.738571	0.507844	-0.689718	-0.228558	-0.465088	0.222656	0.63916
706.0	8.404839	0.387583	9.104268	0.415176	-0.452667	-0.284109	-0.455811	0.207764	0.643555
707.0	7.697912	0.025551	8.729559	0.224177	-0.279304	-0.282689	-0.459961	0.205566	0.647949
708.0	7.054849	-2.025697	7.885026	0.169359	-0.21984	-0.22497	-0.458008	0.211914	0.650146
709.0	8.040615	-2.097434	8.33297	0.185451	-0.132381	-0.197406	-0.459961	0.20752	0.647949
710.0	7.071879	-0.942682	8.188647	0.162446	-0.000799	-0.156037	-0.462158	0.205322	0.654541
711.0	5.971191	-0.941589	8.385625	0.119059	-0.043033	-0.124382	-0.457764	0.203369	0.650146
712.0	6.213999	-0.756767	8.45661	0.051335	-0.055236	-0.088558	-0.457764	0.20752	0.647949
713.0	6.042148	-1.131524	8.214577	-0.002993	-0.096609	-0.051483	-0.459961	0.205322	0.650146
714.0	6.127348	-1.141729	8.106572	-0.044287	-0.121451	-0.011383	-0.462158	0.203369	0.647949
715.0	5.928525	-1.349056	7.907597	-0.072174	-0.15463	0.024626	-0.464355	0.205322	0.652344
716.0	6.14993	-1.79456	7.831811	-0.096234	-0.163029	0.03788	-0.459961	0.205322	0.650146
717.0	6.172999	-2.042249	7.57023	-0.08444	-0.159039	0.052927	-0.457764	0.203125	0.654541
718.0	6.09321	-2.271261	7.478923	-0.067546	-0.14249	0.040378	-0.455811	0.209717	0.654541
719.0	6.049425	-2.194226	7.597885	-0.043425	-0.126647	0.023476	-0.460205	0.209717	0.656494
720.0	6.225068	-2.05213	7.610516	-0.022951	-0.119478	0.014302	-0.457764	0.205322	0.654541
721.0	6.180682	-1.929315	7.640109	-0.008564	-0.104775	0.004989	-0.462158	0.209717	0.658691
722.0	6.255585	-1.745155	7.717556	-0.013391	-0.098241	0.004165	-0.453613	0.209717	0.652344
723.0	6.234736	-1.633365	7.801574	-0.030199	-0.104506	0.014176	-0.461914	0.203125	0.658691
724.0	6.190668	-1.548101	7.835528	-0.058037	-0.101487	0.037555	-0.458008	0.209717	0.656494
725.0	6.197732	-1.526457	7.789631	-0.094028	-0.108333	0.052438	-0.455811	0.209717	0.658691
726.0	6.115056	-1.791972	7.704601	-0.108322	-0.11559	0.05818	-0.451416	0.209717	0.658691
727.0	6.084717	-2.18585	7.547002	-0.102199	-0.113611	0.048903	-0.456055	0.216064	0.658691
728.0	6.122856	-2.414399	7.424297	-0.068349	-0.103017	0.005804	-0.455811	0.209473	0.663086
729.0	6.111369	-2.58806	7.279757	-0.010447	-0.097414	-0.049062	-0.455566	0.203125	0.658691
730.0	6.057891	-3.0021	7.251687	0.060661	-0.081753	-0.124233	-0.455566	0.20752	0.660889
731.0	6.104904	-2.599311	7.43348	0.129105	-0.048025	-0.188978	-0.457764	0.203125	0.660889
732.0	6.147011	-2.095209	7.536914	0.135102	-0.020174	-0.21791	-0.459961	0.20752	0.663086
733.0	6.319084	-1.929368	7.523534	0.120732	-0.005509	-0.225113	-0.455566	0.205322	0.665283
734.0	6.205944	-2.047992	7.541295	0.094364	0.0107	-0.235588	-0.461914	0.203125	0.660889
735.0	6.142436	-2.173423	7.491031	0.081637	0.013654	-0.269513	-0.455566	0.205078	0.669678
736.0	6.113422	-1.914662	7.587379	0.077204	0.013012	-0.283644	-0.455566	0.203125	0.669678
737.0	6.087191	-1.7329	7.622149	0.060938	-0.00337	-0.283094	-0.455322	0.200928	0.658936
738.0	6.010864	-1.519961	7.807125	0.037621	-0.032412	-0.271697	-0.455566	0.205322	0.665283
739.0	6.028147	-1.692125	7.809573	0.015869	-0.073987	-0.265001	-0.46167	0.192383	0.663086
740.0	5.985061	-2.032848	7.741812	0.005413	-0.115648	-0.290515	-0.46167	0.192383	0.658936
741.0	6.018476	-1.859553	7.854241	0.007459	-0.169652	-0.319483	-0.46167	0.194336	0.66748
742.0	6.023061	-1.526238	7.996004	-0.004438	-0.23691	-0.339806	-0.455322	0.196533	0.66748
743.0	5.870868	-1.337073	8.1838	-0.0344	-0.339847	-0.343052	-0.457031	0.190186	0.669678
744.0	5.888571	-1.375325	8.30482	-0.083592	-0.462783	-0.350036	-0.457031	0.185791	0.674072
745.0	5.868386	-1.020896	8.422702	-0.146601	-0.622958	-0.333146	-0.456787	0.183594	0.671875
746.0	5.78017	-1.585404	8.532353	-0.229541	-0.822534	-0.336995	-0.45459	0.181396	0.67627
747.0	5.722471	-1.552719	8.700219	-0.208171	-1.04043	-0.347203	-0.450195	0.181396	0.678467
748.0	5.824388	-0.990428	8.950474	-0.117685	-1.309452	-0.326152	-0.445801	0.181396	0.678467
749.0	5.868812	-0.780675	8.879676	-0.119781	-1.622204	-0.258277	-0.443604	0.177002	0.689209
750.0	5.839532	-0.861872	9.108001	-0.066624	-1.948551	-0.216412	-0.439209	0.177002	0.691406
751.0	5.690611	-1.989347	9.257689	0.002823	-2.313649	-0.227173	-0.432617	0.174805	0.700195
752.0	5.490608	-3.270919	9.253855	0.087862	-2.678418	-0.359017	-0.426025	0.174561	0.706787
753.0	5.469339	-3.158084	9.28859	0.192635	-3.067028	-0.584803	-0.419434	0.172363	0.710938
754.0	5.082921	-3.28673	10.014569	0.272212	-3.522412	-0.819239	-0.40625	0.170166	0.724121
755.0	4.568145	-3.882979	10.211104	0.398157	-4.032764	-1.078705	-0.396973	0.159424	0.730713
756.0	4.320989	-4.397712	10.507666	0.578506	-4.62781	-1.434212	-0.379395	0.152832	0.741455
757.0	3.589537	-5.307205	11.362494	0.829625	-5.311061	-1.884663	-0.368408	0.154785	0.756836
758.0	3.57327	-5.720893	11.94774	1.188485	-6.075918	-2.387616	-0.346436	0.148438	0.765381
759.0	2.771162	-6.692975	12.162834	1.425795	-6.852158	-2.89973	-0.317871	0.141602	0.798096
760.0	3.493529	-6.509198	11.450678	1.801873	-7.662896	-3.46558	-0.293457	0.130859	0.806885
761.0	7.827823	-1.741145	11.261914	1.669404	-8.406559	-3.685387	-0.258301	0.124023	0.837158
762.0	16.089656	1.271512	8.571477	1.085548	-8.912625	-3.502795	-0.223145	0.117676	0.848145
763.0	24.204948	5.369879	10.410175	0.192854	-9.110442	-2.917496	-0.187744	0.104492	0.863525
764.0	23.634653	1.663775	8.266165	-0.757248	-8.780721	-2.224755	-0.152588	0.096191	0.865723
765.0	19.545388	-0.713377	9.882908	-1.272221	-8.185684	-2.088117	-0.13208	0.07251	0.861572
766.0	14.868333	-5.21295	8.965893	-1.718458	-7.565565	-2.115272	-0.103271	0.05542	0.865967
767.0	11.90819	-6.484263	12.342544	-1.88659	-6.752366	-2.219459	-0.086914	0.029785	0.866211
768.0	5.917051	-4.518345	13.799648	-2.279592	-5.837642	-2.393546	-0.073242	0.010498	0.857666
769.0	9.965829	-2.153054	13.362311	-2.337785	-6.041957	-2.375921	-0.061523	-0.010986	0.859863
770.0	40.93938	-6.837043	17.585323	-2.482569	-3.679931	-1.521726	-0.069336	-0.034668	0.849121
771.0	34.209204	-16.1217	19.112978	-2.039676	1.655157	0.349408	-0.112061	-0.053955	0.844971
772.0	13.986779	-16.802259	15.222878	-0.881833	4.580496	1.200246	-0.170654	-0.062744	0.831787
773.0	4.692373	-12.705677	12.597193	0.243574	5.696074	1.403489	-0.233643	-0.0625	0.807861
774.0	-0.72142	-6.67589	10.620454	0.593176	5.986099	1.468514	-0.283936	-0.0625	0.78833
775.0	-4.197014	-2.874447	8.669866	0.258614	5.736151	1.529565	-0.331543	-0.068848	0.766602
776.0	-3.055332	-0.284944	7.646194	-0.380409	5.231511	1.764576	-0.375244	-0.064209	0.731934
777.0	-1.081994	-0.671373	7.200609	-1.035219	4.828717	2.067519	-0.416748	-0.063965	0.703613
778.0	1.716224	-2.735313	6.429607	-1.335829	4.67646	2.308969	-0.451416	-0.067871	0.660156
779.0	4.806303	-4.709842	6.042755	-1.222092	4.801721	2.454615	-0.48877	-0.061279	0.631836
780.0	7.355055	-5.624922	6.021514	-0.77983	5.145436	2.543583	-0.512939	-0.060791	0.592773
781.0	8.666888	-4.843622	6.348242	-0.219125	5.559976	2.666553	-0.54834	-0.047363	0.555908
782.0	8.97692	-2.488669	6.968767	0.154994	5.89698	2.858152	-0.579346	-0.036133	0.510254
783.0	8.780911	0.061035	7.69311	0.205388	6.065498	3.122271	-0.599609	-0.022705	0.466797
784.0	8.635141	1.120248	7.653545	-0.011518	6.096507	3.37121	-0.617676	-0.007324	0.42334
785.0	8.779327	1.967517	7.840157	-0.303239	5.974689	3.506156	-0.637939	0.008545	0.369141
786.0	9.817411	1.786918	8.163356	-0.614003	5.756218	3.529457	-0.649902	0.032715	0.325439
787.0	11.322882	0.590961	8.015752	-0.734446	5.580054	3.436947	-0.663818	0.054688	0.281982
788.0	12.761911	-0.867724	8.255991	-0.602593	5.485852	3.2207	-0.658203	0.07251	0.240723
789.0	14.023642	-1.591099	8.815456	-0.316813	5.445697	2.915593	-0.654541	0.092529	0.193115
790.0	14.379751	-1.578391	9.498409	-0.008559	5.432757	2.58765	-0.646484	0.101807	0.149658
791.0	14.699623	-1.561142	10.42556	0.166624	5.359885	2.259649	-0.63623	0.119629	0.108398
792.0	15.73395	-1.746888	11.217311	0.213806	5.226329	1.944179	-0.617188	0.128906	0.064941
793.0	16.767142	-2.092617	11.611874	0.190115	5.049417	1.655247	-0.591553	0.137939	0.034668
794.0	18.260499	-2.292444	11.692311	0.11771	4.773391	1.39971	-0.567627	0.138672	0.0
795.0	21.904993	-2.180124	12.340123	-0.030325	4.407061	1.190061	-0.543701	0.138916	-0.019531
796.0	30.150883	-0.815671	11.396414	-0.35478	4.263691	1.135433	-0.524414	0.143555	-0.034668
797.0	37.268164	1.865324	6.8371	-0.861401	4.899428	1.344487	-0.494141	0.150391	-0.047607
798.0	36.52455	6.763265	0.674987	-1.569003	5.769428	1.876288	-0.466309	0.161377	-0.069336
799.0	30.241345	9.003099	-7.248933	-2.456877	6.015034	2.59588	-0.45166	0.172607	-0.093018
800.0	23.315208	7.684656	-15.323623	-2.766322	5.223784	3.122172	-0.430664	0.194336	-0.108398
801.0	19.113137	6.064841	-21.919253	-2.316345	3.567551	3.135428	-0.42041	0.209473	-0.112793
802.0	19.640756	4.199296	-24.708674	-1.204645	1.691057	2.561338	-0.41626	0.218262	-0.11499
803.0	20.926856	3.921335	-22.267234	0.047142	0.125629	1.627002	-0.414307	0.220215	-0.108398
804.0	20.657979	2.895679	-16.301072	0.953369	-0.907304	0.700328	-0.422607	0.213623	-0.104004
805.0	23.428233	-2.033717	-15.24618	2.246579	-1.837258	-0.492932	-0.426758	0.207031	-0.093262
806.0	-4.749088	-4.13277	-10.962084	3.609042	-2.89608	-1.600253	-0.443359	0.18335	-0.082275
807.0	6.75515	-1.090775	17.415168	4.230884	-4.316338	-2.140677	-0.46167	0.156982	-0.062744
808.0	-5.612124	6.002669	22.095947	3.149318	-3.685962	-2.119788	-0.472168	0.143799	-0.041016
809.0	16.413902	17.323543	9.015852	2.154326	-5.03964	-1.919555	-0.486816	0.134766	-0.014893
810.0	32.236581	13.115554	13.854406	1.386468	-4.743353	-1.435433	-0.497314	0.123779	0.006836
811.0	27.895808	9.057878	15.873572	0.708282	-3.476491	-1.106371	-0.512207	0.116943	0.021973
812.0	18.337304	5.748131	13.366613	-0.016102	-2.789338	-0.730618	-0.514404	0.112549	0.026367
813.0	9.66213	1.032479	10.111136	-0.446635	-2.470126	-0.367959	-0.523193	0.116699	0.041504
814.0	4.37053	-3.920529	7.010596	-0.520219	-2.444254	-0.266106	-0.527588	0.118652	0.047852
815.0	12.899896	-8.269785	6.962803	-0.215754	-2.138805	-0.48893	-0.533936	0.116455	0.062988
816.0	20.838128	-5.470929	7.262443	0.098182	-1.012847	-0.509693	-0.533691	0.112061	0.06958
817.0	14.897878	-1.509824	6.389785	0.245193	-0.01525	-0.344003	-0.533691	0.107666	0.067383
818.0	6.357052	-1.94272	8.567978	0.260318	-0.0025	-0.272893	-0.531494	0.107666	0.065186
819.0	6.91155	-0.223959	8.35796	0.197775	0.000155	-0.26396	-0.533447	0.105713	0.063232
820.0	6.539058	-0.469095	8.237738	0.120955	-0.042999	-0.20517	-0.531494	0.107666	0.071777
821.0	6.145155	-2.385639	8.198692	0.097254	-0.03746	-0.215837	-0.537842	0.103271	0.067383
822.0	6.195601	-1.719111	8.167872	0.134035	-0.00141	-0.249457	-0.529053	0.101318	0.06958
823.0	6.329404	-0.629504	8.518214	0.096208	-0.023901	-0.216566	-0.533203	0.099121	0.063232
824.0	6.194228	-0.697897	8.451755	0.024041	-0.061806	-0.157794	-0.528809	0.096924	0.06543
825.0	6.208092	-0.724185	8.329206	-0.038642	-0.106746	-0.09041	-0.531006	0.099121	0.06958
826.0	6.205187	-1.154368	7.99447	-0.081153	-0.160212	-0.044688	-0.533447	0.103271	0.071777
827.0	6.245478	-1.517153	7.771159	-0.076199	-0.171499	-0.038947	-0.535645	0.103271	0.073975
828.0	6.385426	-1.54218	7.679728	-0.071207	-0.174395	-0.03978	-0.53125	0.103271	0.073975
829.0	6.388954	-1.779526	7.611971	-0.057146	-0.155952	-0.036466	-0.537598	0.096924	0.06958
830.0	6.462259	-1.952115	7.47041	-0.029064	-0.121699	-0.03095	-0.53125	0.103271	0.073975
831.0	6.390456	-1.873506	7.5549	-0.008001	-0.084993	-0.036479	-0.533203	0.098877	0.076172
832.0	6.266806	-1.766677	7.601979	0.002213	-0.05328	-0.038632	-0.533203	0.099121	0.073975
833.0	6.196046	-1.773624	7.685194	0.002199	-0.036445	-0.051769	-0.5354	0.099121	0.071777
834.0	6.131077	-1.831544	7.637008	0.015754	-0.031616	-0.06704	-0.5354	0.098877	0.076172
835.0	6.15621	-1.785278	7.665662	0.021082	-0.030049	-0.08694	-0.535645	0.105469	0.06958
836.0	6.165429	-1.849959	7.639138	0.040955	-0.037442	-0.102024	-0.531006	0.098877	0.076172
837.0	6.139845	-1.778377	7.716071	0.043823	-0.02289	-0.130825	-0.537598	0.098877	0.076172
838.0	6.058517	-1.215392	7.830214	0.041872	-0.035555	-0.134249	-0.535156	0.094727	0.076172
839.0	6.053965	-1.073819	7.896964	0.030202	-0.061497	-0.121723	-0.532959	0.092529	0.076172
840.0	6.093747	-1.174999	7.838877	0.017276	-0.084625	-0.109416	-0.533203	0.099121	0.071777
841.0	6.085654	-1.265956	7.759122	0.009026	-0.096289	-0.102658	-0.537354	0.094727	0.073975
842.0	6.035496	-1.448327	7.672389	0.004583	-0.1006	-0.110283	-0.537598	0.096924	0.076172
843.0	6.077781	-1.526056	7.539156	-0.00318	-0.104436	-0.129074	-0.535156	0.094482	0.084961
844.0	6.018987	-1.591312	7.540932	-0.006436	-0.096686	-0.148666	-0.539795	0.098877	0.076172
845.0	5.843242	-1.752934	7.657283	-0.012658	-0.101833	-0.177611	-0.537354	0.092529	0.082764
846.0	5.939812	-1.898089	7.62162	-0.011837	-0.109305	-0.195584	-0.535156	0.092529	0.078369
847.0	5.932757	-1.956908	7.623697	-0.021752	-0.109069	-0.226089	-0.535156	0.092529	0.080566
848.0	5.849709	-1.669066	7.768629	-0.020179	-0.133106	-0.247897	-0.535156	0.092529	0.073975
849.0	5.86753	-1.403748	7.951967	-0.042711	-0.17187	-0.246188	-0.535156	0.094727	0.078369
850.0	6.028547	-1.322644	7.863528	-0.069532	-0.22247	-0.243565	-0.534912	0.08374	0.084961
851.0	6.067968	-1.802067	7.842796	-0.087575	-0.263154	-0.263699	-0.539307	0.090332	0.082764
852.0	6.065464	-2.011248	7.903956	-0.10083	-0.312603	-0.309513	-0.535156	0.090332	0.086914
853.0	6.023402	-1.697996	8.239921	-0.133389	-0.408977	-0.356782	-0.539063	0.08374	0.087158
854.0	5.782623	-0.976313	8.653967	-0.158811	-0.563332	-0.363409	-0.534912	0.085938	0.091309
855.0	5.861918	-0.916298	8.624432	-0.229987	-0.747772	-0.363609	-0.543457	0.081543	0.0979
856.0	5.928391	-0.800613	8.662185	-0.23969	-0.958581	-0.346354	-0.536865	0.079346	0.100098
857.0	5.916893	-0.363212	8.978495	-0.167325	-1.236889	-0.27867	-0.54541	0.079102	0.102295
858.0	5.509744	0.051565	9.502962	-0.105819	-1.599993	-0.182937	-0.542969	0.07251	0.115234
859.0	5.566347	-1.539865	9.510428	-0.083694	-2.010717	-0.180803	-0.549805	0.07666	0.128174
860.0	5.467127	-2.004009	9.722891	0.000205	-2.447752	-0.262745	-0.547363	0.072266	0.143555
861.0	5.337393	-2.42331	9.996138	0.095823	-2.946552	-0.40174	-0.558105	0.073975	0.160645
862.0	4.758915	-3.000761	10.595013	0.225565	-3.457719	-0.577927	-0.558105	0.06958	0.180176
863.0	4.506788	-3.351082	10.723099	0.392049	-4.032496	-0.815962	-0.563965	0.05835	0.204102
864.0	3.983796	-3.750582	11.417565	0.563523	-4.677936	-1.123392	-0.565918	0.049316	0.234619
865.0	2.475081	-4.804137	12.388404	0.748848	-5.446015	-1.560837	-0.567871	0.046875	0.260498
866.0	2.380971	-7.247287	12.505559	1.033249	-6.334484	-2.177189	-0.55835	0.029053	0.303955
867.0	2.309538	-7.716357	12.87077	1.471251	-7.183057	-2.826014	-0.55542	0.013428	0.354004
868.0	1.728108	-6.759609	13.035119	1.792315	-8.024843	-3.348652	-0.537109	-0.006592	0.397461
869.0	4.682252	-2.122252	12.461534	1.945613	-9.110405	-3.79411	-0.519043	-0.02002	0.443115
870.0	15.010467	1.556451	10.610485	1.269646	-9.782928	-3.541209	-0.488037	-0.035889	0.503906
871.0	24.260384	5.296217	9.568355	0.508807	-10.121735	-3.005181	-0.456787	-0.049072	0.547363
872.0	26.433732	1.812677	7.231024	-0.670066	-9.601619	-2.182607	-0.426025	-0.058105	0.588623
873.0	21.705684	-0.711487	9.157916	-1.150425	-8.866694	-2.093679	-0.388184	-0.075684	0.616943
874.0	14.840655	-3.992165	9.733518	-1.716028	-8.21762	-2.101239	-0.357422	-0.084473	0.645264
875.0	11.061016	-5.033486	12.896367	-2.18917	-7.408462	-2.118553	-0.317383	-0.101807	0.664795
876.0	2.759533	-3.673664	13.011485	-2.662922	-6.557512	-2.203914	-0.292969	-0.114746	0.671631
877.0	2.19036	-3.589902	15.066096	-2.991241	-6.980089	-2.341636	-0.257324	-0.134033	0.68457
878.0	27.70623	-3.465968	13.113192	-3.09258	-6.677382	-2.220902	-0.226318	-0.14917	0.684814
879.0	42.383301	-13.918554	16.247777	-2.634644	-1.864549	-0.486991	-0.234863	-0.151123	0.669678
880.0	26.877718	-17.391419	14.978542	-1.453663	2.812282	1.190915	-0.252686	-0.142334	0.654297
881.0	14.235973	-15.138083	12.784438	-0.063238	5.321484	1.825048	-0.275635	-0.116211	0.630371
882.0	6.164649	-9.970989	9.959752	0.869471	6.522082	1.976116	-0.287842	-0.08374	0.604248
883.0	1.976477	-5.197122	8.14025	1.096045	6.915352	1.955217	-0.286865	-0.053223	0.578125
884.0	0.956424	-1.773012	7.214135	0.820412	6.97556	1.973759	-0.273193	-0.01416	0.553955
885.0	0.167617	0.867036	6.1649	0.14782	6.850168	2.100399	-0.252197	0.005371	0.543213
886.0	0.465927	1.434099	5.458072	-0.642384	6.497785	2.338519	-0.222412	0.024902	0.547363
887.0	2.970033	0.321405	4.814441	-1.22811	6.200935	2.581421	-0.200684	0.026855	0.566895
888.0	5.22757	-1.699157	4.348798	-1.467337	6.109504	2.768161	-0.196289	0.028809	0.588623
889.0	7.362549	-3.755088	4.183313	-1.282927	6.182699	2.878057	-0.200684	0.032471	0.621094
890.0	8.964692	-4.775432	4.306	-0.744985	6.354558	2.935385	-0.220215	0.032227	0.646973
891.0	9.806512	-3.641499	5.11531	-0.153217	6.515615	2.980938	-0.246338	0.031982	0.653564
892.0	9.971252	-0.973824	6.285202	0.197663	6.583541	3.081872	-0.281738	0.044434	0.677246
893.0	9.834555	1.499519	6.812944	0.145395	6.538572	3.21957	-0.321533	0.061279	0.687988
894.0	9.894072	2.847043	7.309788	-0.164521	6.345469	3.345	-0.361084	0.073975	0.69873
895.0	10.539726	2.755525	7.768597	-0.522155	6.039482	3.407422	-0.411865	0.088867	0.700684
896.0	11.758644	1.109137	7.800024	-0.65298	5.740871	3.363574	-0.477783	0.105713	0.704834
897.0	13.269429	-0.976301	8.08618	-0.451276	5.536911	3.159043	-0.552979	0.137939	0.685059
898.0	14.316432	-1.802649	8.704023	-0.049645	5.435486	2.826407	-0.634521	0.161865	0.636963
899.0	14.278416	-1.550848	9.695281	0.280048	5.345849	2.426206	-0.7146	0.198975	0.56958
900.0	14.453208	-1.185754	11.023569	0.383203	5.169745	2.028412	-0.755859	0.247803	0.456543
901.0	15.17229	-0.867861	11.948446	0.268333	4.924354	1.650577	-0.769287	0.305176	0.343506
902.0	15.82459	-0.970228	12.354298	-0.00765	4.583374	1.343103	-0.731934	0.349854	0.239258
903.0	17.695563	-1.343191	11.899292	-0.382214	4.111648	1.110132	-0.659424	0.385498	0.174316
904.0	21.695359	-1.397879	10.540079	-0.701721	3.621816	0.920099	-0.577637	0.405273	0.16333
905.0	27.42134	-2.273103	6.330794	-0.830801	3.388555	0.770545	-0.526855	0.392334	0.183105
906.0	35.730658	1.266012	3.75049	-0.769052	3.627978	0.735229	-0.499756	0.368408	0.202637
907.0	39.093011	8.013717	-1.894396	-1.136767	4.408585	1.300586	-0.496582	0.340332	0.207275
908.0	35.815492	10.361834	-9.765161	-1.761253	5.11902	2.075418	-0.512939	0.314697	0.202881
909.0	29.255137	11.126137	-16.88192	-2.145752	5.070474	2.79481	-0.523682	0.310547	0.183594
910.0	23.229801	9.766289	-22.68371	-2.085043	4.115307	3.113566	-0.528076	0.308594	0.16626
911.0	16.668831	6.056653	-24.3711	-1.417043	2.382615	2.745548	-0.534424	0.304199	0.16626
912.0	12.724605	-0.570042	-22.476816	0.126931	0.367664	1.716314	-0.553711	0.295654	0.168213
913.0	13.929399	-2.48868	-23.609105	2.277563	-1.759561	-0.098963	-0.568359	0.282227	0.194336
914.0	0.817718	4.18741	-13.182428	3.59801	-3.606784	-1.54418	-0.58252	0.255859	0.229248
915.0	12.235609	1.400457	23.066185	3.463348	-4.763697	-1.969488	-0.603271	0.233643	0.270508
916.0	1.004004	8.799696	24.117624	2.261305	-2.818652	-2.023413	-0.62207	0.209717	0.292236
917.0	16.296878	17.384599	7.499928	1.19686	-4.373593	-1.980379	-0.629883	0.191895	0.333496
918.0	31.330858	9.809256	15.844605	0.518702	-4.307012	-1.378257	-0.642334	0.176514	0.359619
919.0	26.175377	4.936519	15.131064	0.006563	-3.003042	-0.738965	-0.64624	0.169678	0.381104
920.0	14.318325	3.726613	12.522733	-0.455517	-2.609919	-0.223601	-0.648438	0.169434	0.396484
921.0	6.13973	2.062479	10.852116	-0.872349	-2.466339	0.133974	-0.648438	0.171387	0.407227
922.0	1.002984	-3.416817	6.589246	-1.040374	-2.533738	-0.040884	-0.650635	0.168945	0.424561
923.0	9.099959	-11.667768	4.129484	-0.49649	-2.496537	-0.500609	-0.652588	0.162354	0.439697
924.0	19.641171	-11.87901	3.531415	0.257453	-1.784515	-0.449421	-0.652344	0.159912	0.454834
925.0	14.633593	-3.0353	6.953811	0.613447	-0.928516	-0.295724	-0.6521	0.155762	0.455078
926.0	10.632315	-0.495908	9.786064	0.526735	-0.430455	-0.466566	-0.658447	0.151367	0.455078
927.0	8.300071	-0.775109	7.827377	0.394653	-0.077845	-0.36582	-0.658447	0.14917	0.461426
928.0	6.960466	-1.467709	8.211943	0.347276	-0.066983	-0.29411	-0.654297	0.153564	0.461426
929.0	7.257668	-1.786273	8.224502	0.291535	-0.001218	-0.286172	-0.658447	0.146973	0.468018
930.0	6.378184	-0.713585	8.495115	0.241366	0.008497	-0.246143	-0.654053	0.146973	0.468018
931.0	6.101394	-0.330201	8.762254	0.122079	-0.047649	-0.175673	-0.654053	0.146973	0.470215
932.0	6.187787	-0.913412	8.414974	0.038852	-0.105255	-0.115022	-0.6604	0.140381	0.468018
933.0	6.249916	-0.573123	8.432177	-0.02974	-0.160881	-0.032058	-0.6604	0.146729	0.472412
934.0	6.287254	-1.090341	8.118802	-0.107022	-0.199364	0.021159	-0.651611	0.144531	0.480957
935.0	6.275089	-1.614506	7.83405	-0.133995	-0.227545	0.064287	-0.653809	0.142578	0.470215
936.0	6.276984	-1.679943	7.647765	-0.136791	-0.226102	0.080182	-0.6604	0.144775	0.474609
937.0	6.246974	-2.026397	7.448664	-0.14157	-0.221054	0.082429	-0.656006	0.144775	0.474609
938.0	6.261007	-2.670422	7.155359	-0.104464	-0.184014	0.053361	-0.65625	0.148926	0.483154
939.0	6.320196	-2.674698	7.145033	-0.044752	-0.133054	0.010221	-0.656006	0.142334	0.480957
940.0	6.263132	-2.509092	7.312497	-0.000769	-0.081944	-0.027543	-0.660645	0.148926	0.480957
941.0	6.230498	-2.387063	7.506265	0.03944	-0.03956	-0.053071	-0.65625	0.146729	0.480957
942.0	6.216903	-2.149093	7.573537	0.060694	-0.004054	-0.076	-0.65625	0.146729	0.480957
943.0	6.202909	-1.9281	7.626682	0.060305	0.013966	-0.07722	-0.662598	0.144531	0.480957
944.0	6.166423	-1.77494	7.719575	0.052938	0.017294	-0.071849	-0.658203	0.146729	0.483154
945.0	6.100582	-1.540862	7.786622	0.027682	0.008152	-0.055296	-0.656006	0.142334	0.480957
946.0	6.04863	-1.516369	7.869523	-0.005764	-0.016676	-0.030529	-0.653809	0.142334	0.485352
947.0	6.007834	-1.604552	7.89004	-0.037625	-0.052853	-0.00878	-0.656006	0.142334	0.483154
948.0	6.050064	-1.752297	7.794298	-0.05858	-0.082723	0.002046	-0.651611	0.144531	0.485352
949.0	6.01481	-1.803805	7.685339	-0.076866	-0.116316	0.007536	-0.660156	0.140137	0.485352
950.0	6.03083	-1.897538	7.665895	-0.087709	-0.143842	-0.001464	-0.658203	0.146729	0.485352
951.0	6.032759	-2.085208	7.565085	-0.087841	-0.163133	-0.017532	-0.6604	0.142334	0.485352
952.0	6.052631	-2.500333	7.395739	-0.067829	-0.157337	-0.055323	-0.657959	0.140137	0.483154
953.0	6.159149	-2.439857	7.40081	-0.033623	-0.141061	-0.102317	-0.651611	0.140381	0.483154
954.0	6.194341	-2.093323	7.521881	-0.026175	-0.124546	-0.128756	-0.655762	0.138184	0.483154
955.0	6.206351	-1.766158	7.626919	-0.036399	-0.13402	-0.13299	-0.658203	0.142334	0.483154
956.0	6.165195	-1.707034	7.698162	-0.057242	-0.154744	-0.12638	-0.657715	0.131592	0.487549
957.0	6.132183	-1.721399	7.738223	-0.070366	-0.199907	-0.110698	-0.651367	0.135742	0.491943
958.0	6.11687	-1.914058	7.719662	-0.082702	-0.249095	-0.116928	-0.653809	0.140137	0.485352
959.0	6.077995	-2.363026	7.54357	-0.086389	-0.286464	-0.148588	-0.655518	0.133789	0.489746
960.0	6.022255	-2.563994	7.640544	-0.075859	-0.331878	-0.21307	-0.65332	0.131592	0.489746
961.0	6.153665	-2.549475	7.583234	-0.07197	-0.383978	-0.281795	-0.661865	0.127197	0.496338
962.0	6.104168	-2.645287	7.821961	-0.077539	-0.463445	-0.346547	-0.657471	0.127197	0.496338
963.0	5.992787	-2.449263	8.051992	-0.074388	-0.568401	-0.416164	-0.655273	0.122803	0.498535
964.0	5.792799	-1.633714	8.560764	-0.098837	-0.744678	-0.4467	-0.657227	0.116455	0.498535
965.0	5.757286	-1.100178	8.837643	-0.082222	-0.98992	-0.441809	-0.652588	0.112061	0.500732
966.0	5.606656	-0.621118	9.106386	-0.151279	-1.331293	-0.370802	-0.650391	0.111816	0.511475
967.0	5.558795	-0.805872	9.333692	-0.131356	-1.701838	-0.312548	-0.641846	0.114014	0.515869
968.0	5.474523	-1.16382	9.470661	-0.148326	-2.151762	-0.307198	-0.645752	0.105225	0.526855
969.0	5.508609	-1.919769	9.81705	-0.127845	-2.631831	-0.349373	-0.641113	0.10083	0.539795
970.0	5.052183	-2.727282	10.309161	-0.041311	-3.132555	-0.452639	-0.634277	0.092041	0.554932
971.0	4.707305	-3.325063	10.55442	0.068042	-3.645817	-0.633438	-0.623535	0.096191	0.572266
972.0	4.291254	-3.998901	10.377995	0.228047	-4.279497	-0.906776	-0.614258	0.083008	0.585449
973.0	3.416158	-4.747553	11.170235	0.452362	-4.962095	-1.272324	-0.603027	0.074219	0.609375
974.0	3.083522	-6.195328	11.331451	0.785113	-5.696675	-1.768659	-0.591309	0.056641	0.635498
975.0	2.706061	-7.370221	12.105338	1.116372	-6.423147	-2.33189	-0.571045	0.039063	0.663818
976.0	1.617913	-8.75891	12.438595	1.570586	-7.266531	-2.971631	-0.552979	0.025879	0.698486
977.0	2.933817	-5.936838	13.616318	1.783426	-8.264967	-3.598171	-0.519287	0.001709	0.737793
978.0	6.03645	-1.358133	12.124824	1.617659	-9.21469	-3.767153	-0.472656	-0.02002	0.776855
979.0	18.851728	2.620937	9.968093	0.963283	-10.039225	-3.476057	-0.432617	-0.039795	0.80957
980.0	27.829362	5.594795	8.947854	-0.301624	-9.984248	-2.68339	-0.387939	-0.072021	0.827148
981.0	26.180906	-1.006322	7.029695	-1.207589	-9.38854	-2.091623	-0.343262	-0.0979	0.840332
982.0	20.534306	-3.827757	10.542885	-1.746507	-8.434015	-2.197537	-0.315918	-0.132324	0.849365
983.0	13.97344	-7.053222	10.869045	-2.117579	-7.504885	-2.35272	-0.273438	-0.156006	0.85376
984.0	6.93434	-6.824989	12.102587	-2.139499	-6.736878	-2.687331	-0.239502	-0.194336	0.843262
985.0	1.659183	-6.367881	13.644062	-1.793853	-6.684248	-3.365853	-0.203613	-0.219971	0.847656
986.0	16.910395	-4.634213	13.667308	-1.446944	-6.734989	-3.795019	-0.163574	-0.243408	0.839355
987.0	39.683201	-7.295637	19.763014	-1.393358	-3.116236	-2.588217	-0.162354	-0.273438	0.828613
988.0	30.328892	-8.583317	18.97042	-1.62791	1.727032	-0.64538	-0.185547	-0.29248	0.802734
989.0	17.091521	-11.224291	15.462318	-1.430634	4.695908	0.583616	-0.226318	-0.313721	0.776611
990.0	7.775217	-9.901668	11.73436	-1.03466	6.156864	1.233773	-0.273926	-0.317871	0.744141
991.0	2.249629	-7.025221	8.527383	-0.75653	6.648379	1.522976	-0.323975	-0.319824	0.71582
992.0	0.322218	-5.274305	6.631853	-0.663465	6.592276	1.704377	-0.365479	-0.31958	0.685547
993.0	-1.701857	-3.717837	4.866553	-0.716434	6.29656	1.870472	-0.406738	-0.327881	0.659424
994.0	-0.511455	-2.365573	4.099133	-0.86392	5.794468	2.050072	-0.4375	-0.316895	0.626709
995.0	2.518836	-2.016333	4.023351	-1.062784	5.446594	2.312383	-0.468506	-0.310059	0.594238
996.0	5.241135	-3.293053	3.966513	-1.12024	5.393242	2.624619	-0.50415	-0.286133	0.567871
997.0	7.780092	-4.757905	3.768661	-0.866364	5.561928	2.861945	-0.528809	-0.268799	0.5354
998.0	9.065111	-5.181314	3.971461	-0.373136	5.862213	3.049455	-0.560547	-0.242676	0.504883
999.0	9.307955	-3.914338	4.445346	0.135311	6.109701	3.219475	-0.592285	-0.210205	0.480713
1000.0	9.11506	-2.024983	5.259165	0.431379	6.214403	3.407516	-0.615234	-0.179688	0.450195
1001.0	9.047829	0.490462	6.130732	0.456828	6.129473	3.58914	-0.638672	-0.140625	0.419678
1002.0	9.572169	1.894251	6.615528	0.157556	5.954797	3.741413	-0.659668	-0.105957	0.38916
1003.0	10.592609	1.828177	6.736886	-0.215691	5.739153	3.806824	-0.673828	-0.075439	0.356445
1004.0	11.945237	0.945969	6.860636	-0.454009	5.527631	3.778453	-0.688477	-0.036377	0.325928
1005.0	12.987829	-0.562573	7.142786	-0.470069	5.349083	3.648885	-0.689941	-0.003662	0.299561
1006.0	14.108135	-1.657282	7.518812	-0.256374	5.180367	3.459209	-0.695557	0.031006	0.273438
1007.0	14.750104	-2.216541	8.148541	0.106533	5.035853	3.232624	-0.701172	0.057373	0.245117
1008.0	15.251826	-2.551177	9.011442	0.45332	4.848942	2.963719	-0.704102	0.076904	0.223389
1009.0	16.121797	-2.484579	9.861404	0.669269	4.609289	2.669908	-0.709473	0.10083	0.205811
1010.0	18.003581	-2.06051	11.088427	0.65391	4.294496	2.413914	-0.703613	0.118408	0.177734
1011.0	21.404278	-1.867575	11.993794	0.403217	3.998416	2.278079	-0.708496	0.131592	0.164551
1012.0	26.441147	-1.864003	11.498855	-0.043742	3.921183	2.272278	-0.71582	0.151123	0.142822
1013.0	32.462411	-1.946826	8.436509	-0.56868	4.335723	2.317955	-0.716797	0.175293	0.10791
1014.0	35.465543	-0.948116	3.189489	-0.959389	5.226075	2.298109	-0.713379	0.195068	0.077637
1015.0	32.642883	4.606255	-2.052247	-1.409462	6.039685	2.395604	-0.703613	0.221436	0.031982
1016.0	26.991444	8.460499	-7.698155	-2.151697	6.198761	2.679576	-0.695801	0.241455	-0.013672
1017.0	20.953369	9.142537	-14.36965	-2.626636	5.462322	2.797715	-0.681885	0.276367	-0.035645
1018.0	18.421682	7.303517	-21.367896	-2.409537	3.940524	2.484998	-0.672119	0.306885	-0.061768
1019.0	18.601009	4.557651	-23.707784	-1.407741	2.218732	1.591596	-0.668213	0.315674	-0.070313
1020.0	18.499029	2.516794	-20.832698	-0.181411	0.712723	0.452598	-0.663818	0.315674	-0.07251
1021.0	19.963411	1.258143	-14.935802	0.884618	-0.321778	-0.596926	-0.674561	0.311279	-0.068115
1022.0	21.551032	-3.935707	-8.943629	2.000915	-1.039147	-1.467862	-0.68042	0.291748	-0.063721
1023.0	4.527742	-3.70124	-9.4492	3.370984	-1.365863	-2.440377	-0.685547	0.259277	-0.050537
1024.0	5.55136	-1.74071	13.582655	4.055763	-3.003078	-2.659551	-0.702148	0.235352	-0.041748
1025.0	-8.220376	5.069669	21.478603	2.95813	-2.177271	-2.035362	-0.714111	0.213623	-0.017822
1026.0	0.733479	12.323815	11.412037	1.745545	-4.374483	-1.947442	-0.726563	0.200195	0.019043
1027.0	29.621051	14.571648	13.86086	0.998711	-4.894195	-1.332401	-0.748047	0.188965	0.049316
1028.0	29.786363	8.841817	15.672801	0.245469	-3.580046	-0.817627	-0.752441	0.190674	0.064453
1029.0	18.592784	5.101184	14.070058	-0.290058	-2.824754	-0.726693	-0.75415	0.186035	0.096924
1030.0	11.208654	0.585296	11.110013	-0.715928	-2.457551	-0.424413	-0.769531	0.185791	0.10791
1031.0	4.409125	-2.996571	7.59813	-0.861011	-2.454058	-0.117633	-0.769531	0.189941	0.129395
1032.0	4.742873	-8.415461	5.511333	-0.605996	-2.570115	-0.19271	-0.771484	0.185303	0.151123
1033.0	12.325623	-11.425696	3.822676	0.092514	-2.229575	-0.486864	-0.780029	0.182861	0.164063
1034.0	15.129889	-7.848684	4.52145	0.68168	-1.584014	-0.544831	-0.775635	0.182861	0.172852
1035.0	11.73411	-1.703145	8.172077	0.778731	-0.961773	-0.589452	-0.777588	0.171875	0.179443
1036.0	12.967911	-1.970063	8.969553	0.741271	-0.334206	-0.719037	-0.777344	0.16748	0.183838
1037.0	7.99752	-0.728072	7.984305	0.624218	0.024886	-0.559124	-0.779053	0.158936	0.181641
1038.0	7.994386	0.758601	9.443158	0.463221	0.054584	-0.438455	-0.774902	0.158936	0.179443
1039.0	6.426735	-1.584663	8.179023	0.321146	0.109165	-0.377812	-0.7771	0.161133	0.179443
1040.0	6.402954	-1.130828	8.58414	0.339824	0.088502	-0.343428	-0.772461	0.154785	0.181641
1041.0	6.131159	0.044959	9.069239	0.269222	0.016642	-0.296737	-0.776611	0.150391	0.181641
1042.0	6.402687	-0.378014	8.697513	0.152795	-0.024383	-0.204397	-0.7854	0.152344	0.183838
1043.0	6.321565	-0.397928	8.536511	0.074023	-0.097878	-0.112872	-0.783203	0.152588	0.181641
1044.0	6.354589	-0.823281	8.210212	-0.007923	-0.146356	-0.044141	-0.778564	0.145996	0.181641
1045.0	6.295044	-1.314221	7.898592	-0.054743	-0.179189	0.007867	-0.783203	0.152344	0.186035
1046.0	6.292569	-1.352412	7.766769	-0.082167	-0.187807	0.041959	-0.778809	0.152344	0.19043
1047.0	6.370256	-1.81217	7.577225	-0.105494	-0.182419	0.056398	-0.778809	0.150391	0.181641
1048.0	6.353995	-2.350872	7.356451	-0.091567	-0.143264	0.045477	-0.778564	0.141602	0.192627
1049.0	6.349609	-2.199355	7.382378	-0.06418	-0.099665	0.022209	-0.779053	0.154541	0.192383
1050.0	6.222251	-2.114895	7.482127	-0.044048	-0.063852	0.00476	-0.781006	0.150146	0.192383
1051.0	6.126405	-1.859069	7.690271	-0.029876	-0.052725	0.002397	-0.783203	0.148193	0.186035
1052.0	6.093604	-1.41454	7.831468	-0.033599	-0.050074	0.004586	-0.776855	0.154541	0.192383
1053.0	6.137758	-1.278746	7.815298	-0.058038	-0.06624	0.030476	-0.781006	0.152344	0.192383
1054.0	6.128966	-1.413762	7.76929	-0.082484	-0.089024	0.061892	-0.776855	0.154785	0.181641
1055.0	6.025501	-1.57727	7.702424	-0.10761	-0.100805	0.072541	-0.779053	0.156738	0.19458
1056.0	5.936044	-1.962935	7.673529	-0.109284	-0.119123	0.066805	-0.783203	0.154541	0.192383
1057.0	5.952603	-2.371788	7.49423	-0.08861	-0.12612	0.027831	-0.779053	0.154541	0.198975
1058.0	5.986507	-2.682663	7.359144	-0.046026	-0.115966	-0.037599	-0.783203	0.152344	0.196777
1059.0	6.011108	-2.569348	7.411775	-0.004992	-0.093505	-0.102921	-0.78125	0.154541	0.192383
1060.0	6.081459	-2.39685	7.446113	0.015458	-0.068368	-0.161832	-0.780762	0.147949	0.198975
1061.0	6.140394	-2.383369	7.410393	0.033525	-0.049116	-0.215668	-0.783203	0.154297	0.203369
1062.0	6.08336	-2.20106	7.546795	0.032043	-0.027174	-0.257102	-0.780762	0.145752	0.196777
1063.0	6.10802	-2.105535	7.608574	0.028262	-0.028084	-0.280687	-0.780762	0.145752	0.196777
1064.0	6.073575	-1.860735	7.635902	0.01597	-0.040765	-0.288273	-0.780518	0.137207	0.201172
1065.0	6.061872	-1.893903	7.654432	0.009775	-0.062543	-0.290171	-0.782715	0.141602	0.196777
1066.0	6.029155	-1.705669	7.822972	0.006222	-0.091788	-0.290846	-0.782715	0.141602	0.194824
1067.0	5.999608	-1.74538	7.802273	-0.001505	-0.145003	-0.282755	-0.780518	0.137207	0.198975
1068.0	5.946185	-2.041291	7.853852	0.004821	-0.194158	-0.301171	-0.782471	0.132813	0.205566
1069.0	6.018425	-1.790262	8.027868	0.002647	-0.276172	-0.341427	-0.784668	0.13501	0.201172
1070.0	5.936337	-1.132878	8.221344	-0.013171	-0.397038	-0.344752	-0.782471	0.130615	0.203369
1071.0	5.997242	-1.082598	8.346172	-0.078044	-0.545659	-0.327107	-0.780273	0.134766	0.212158
1072.0	5.927902	-1.529926	8.381661	-0.121191	-0.715835	-0.332082	-0.788574	0.121826	0.220703
1073.0	5.784746	-1.5705	8.593136	-0.122981	-0.911639	-0.359755	-0.78418	0.119629	0.225098
1074.0	5.832748	-2.026341	8.625174	-0.113698	-1.149349	-0.386906	-0.781982	0.121582	0.236084
1075.0	5.514947	-0.224788	9.223649	-0.088223	-1.439184	-0.35405	-0.783936	0.119385	0.244629
1076.0	5.911747	-0.285779	8.977699	-0.087852	-1.771932	-0.280812	-0.783936	0.114746	0.259766
1077.0	5.720726	-0.74703	9.229619	-0.074296	-2.148385	-0.22381	-0.785889	0.114502	0.279297
1078.0	5.69369	-2.160279	9.388394	-0.027354	-2.595498	-0.254785	-0.788086	0.112061	0.303223
1079.0	5.142023	-3.296447	9.911964	0.102462	-3.005493	-0.405608	-0.787842	0.111816	0.324951
1080.0	4.955353	-3.488612	10.393119	0.249283	-3.509741	-0.639107	-0.783203	0.102783	0.351074
1081.0	4.195716	-3.894618	10.942527	0.38066	-4.090622	-0.911487	-0.780762	0.098145	0.385742
1082.0	3.770705	-4.725996	10.973059	0.600192	-4.790124	-1.305551	-0.769287	0.086914	0.422607
1083.0	2.729281	-5.044403	12.030537	0.837856	-5.587804	-1.836564	-0.766602	0.077637	0.470215
1084.0	2.5248	-7.453956	12.564406	1.219413	-6.459953	-2.425691	-0.748291	0.057617	0.515869
1085.0	1.981741	-7.48493	12.683656	1.62772	-7.30049	-3.062748	-0.728027	0.041748	0.578857
1086.0	2.26899	-7.694485	12.931525	1.950777	-8.295931	-3.682457	-0.692383	0.02417	0.631104
1087.0	6.136944	-0.773025	12.389186	1.892632	-9.163371	-3.866073	-0.654785	0.012451	0.702881
1088.0	16.853265	3.130137	10.107252	1.173778	-9.869349	-3.516753	-0.608398	-0.000977	0.759277
1089.0	26.641986	5.664497	9.460798	0.141885	-9.972552	-2.83213	-0.553223	-0.018799	0.817871
1090.0	26.298019	0.86868	6.62206	-0.814453	-9.360333	-2.184728	-0.498047	-0.036377	0.861572
1091.0	20.879679	-2.499501	10.256567	-1.397331	-8.571973	-2.158622	-0.45166	-0.049561	0.89624
1092.0	12.390578	-7.241122	9.645847	-1.813169	-7.892105	-2.263738	-0.403076	-0.069092	0.926758
1093.0	9.247141	-4.916694	13.648194	-2.014977	-7.193756	-2.460036	-0.352295	-0.086426	0.94873
1094.0	3.261725	-5.103487	15.407357	-2.264415	-6.963436	-2.645222	-0.301025	-0.116699	0.970703
1095.0	7.891286	-5.473434	14.756686	-2.33867	-7.262876	-2.823379	-0.25	-0.140381	0.981689
1096.0	36.259255	-8.044716	13.989751	-1.962337	-5.762104	-2.374381	-0.229736	-0.157715	0.992676
1097.0	43.037491	-15.651447	18.078102	-1.229575	0.046227	-0.19169	-0.244873	-0.157715	0.988281
1098.0	25.990085	-14.807097	16.333701	-0.239497	4.66097	1.362314	-0.303711	-0.157715	0.979492
1099.0	12.140563	-12.381397	13.697911	0.675018	6.892093	1.899687	-0.380615	-0.138184	0.951172
1100.0	4.470819	-6.335021	10.859946	1.016551	7.80166	2.067389	-0.44873	-0.125244	0.927002
1101.0	0.786799	-2.863832	9.138809	0.740478	7.94833	2.152842	-0.519043	-0.10791	0.885742
1102.0	-1.580174	-1.227962	6.931215	0.180125	7.735195	2.210335	-0.580566	-0.10083	0.837891
1103.0	-3.293062	-0.018007	5.429407	-0.500309	7.10573	2.319565	-0.633301	-0.091797	0.785645
1104.0	-0.287026	0.328577	4.932804	-1.084287	6.411141	2.488085	-0.688232	-0.080566	0.731445
1105.0	3.706477	-0.928286	4.550552	-1.426806	6.071346	2.659858	-0.717041	-0.071289	0.679199
1106.0	7.193933	-2.867408	4.325922	-1.419443	6.088931	2.777451	-0.756836	-0.057617	0.614014
1107.0	9.584941	-4.097062	4.459567	-1.068849	6.316982	2.819745	-0.7771	-0.039795	0.557617
1108.0	10.440551	-3.484802	5.042628	-0.56687	6.563302	2.837742	-0.797363	-0.02832	0.496826
1109.0	10.687805	-1.479972	5.45389	-0.251064	6.671648	2.907584	-0.817871	-0.006104	0.44043
1110.0	10.612993	0.154166	5.489709	-0.209872	6.657953	3.015522	-0.833984	0.01416	0.379395
1111.0	10.696072	1.12701	5.636693	-0.343427	6.466318	3.138345	-0.841553	0.03418	0.322998
1112.0	11.123903	0.925798	5.890956	-0.488458	6.155108	3.226441	-0.842529	0.056396	0.264404
1113.0	11.647154	-0.355496	6.408225	-0.48084	5.814016	3.23073	-0.845703	0.080811	0.216553
1114.0	12.895708	-1.572545	7.194007	-0.299745	5.526356	3.120412	-0.840088	0.10083	0.166748
1115.0	14.010991	-1.736345	8.411296	-0.074299	5.326781	2.933791	-0.832275	0.123047	0.118896
1116.0	14.642478	-1.398469	9.534053	0.041786	5.167929	2.709397	-0.828613	0.138672	0.077637
1117.0	15.334414	-1.617927	10.64368	-0.007883	4.989338	2.43792	-0.814209	0.156494	0.03418
1118.0	16.598938	-1.296487	11.594996	-0.224046	4.773294	2.174042	-0.801514	0.165771	-0.009277
1119.0	18.636803	-1.397422	12.272332	-0.611104	4.53603	2.006744	-0.784912	0.181396	-0.039551
1120.0	22.324131	-1.772617	12.291854	-1.071704	4.334654	1.979778	-0.75708	0.194824	-0.080811
1121.0	27.371691	-2.148431	10.426614	-1.529123	4.356571	2.099136	-0.749268	0.216797	-0.109131
1122.0	31.568526	-1.937621	6.714387	-1.848879	4.711815	2.310195	-0.719727	0.234619	-0.150146
1123.0	32.154728	0.061599	1.846961	-2.008963	5.20942	2.596424	-0.692383	0.26123	-0.185059
1124.0	28.882098	4.264731	-3.278261	-2.140273	5.363181	3.066255	-0.663086	0.2854	-0.217529
1125.0	24.151176	4.966328	-9.529105	-2.213355	4.879603	3.450971	-0.629395	0.313721	-0.239258
1126.0	21.084934	4.935051	-16.313368	-1.811527	3.740452	3.305518	-0.61084	0.344238	-0.254639
1127.0	22.591909	6.236347	-21.461768	-1.164564	2.390304	2.678804	-0.598633	0.361572	-0.265625
1128.0	23.490089	8.499024	-21.798054	-0.601114	1.17076	1.762834	-0.590088	0.36377	-0.27417
1129.0	20.697172	6.402972	-18.889924	-0.213516	0.056336	0.811912	-0.590332	0.370361	-0.278564
1130.0	17.451376	-0.573488	-14.208412	0.399289	-0.878718	-0.128012	-0.598389	0.359375	-0.269775
1131.0	21.215841	-9.991905	-15.590853	2.973936	-1.731261	-1.341765	-0.610352	0.326904	-0.258789
1132.0	-7.073202	-5.155048	-1.299866	4.715937	-3.129559	-2.322905	-0.632324	0.281494	-0.245605
1133.0	7.554621	4.104275	20.602219	4.826798	-3.173678	-2.175844	-0.651123	0.255615	-0.239014
1134.0	-8.738399	13.814661	20.474027	3.027455	-3.111301	-1.96471	-0.665039	0.225098	-0.217285
1135.0	15.454436	18.641151	9.610919	1.803081	-4.845839	-2.031242	-0.692383	0.200928	-0.182617
1136.0	31.312805	14.92889	15.778454	0.995266	-4.531591	-1.865533	-0.715332	0.181152	-0.156494
1137.0	26.935464	6.706926	15.382764	0.309423	-3.412617	-1.503973	-0.728271	0.178467	-0.136963
1138.0	18.186105	2.397691	12.51036	-0.167419	-2.835579	-0.928148	-0.734375	0.16748	-0.121826
1139.0	10.652248	-0.814557	9.829669	-0.48182	-2.599396	-0.348639	-0.743164	0.169434	-0.095703
1140.0	6.258877	-4.521784	7.365198	-0.445123	-2.514542	-0.23693	-0.753662	0.162842	-0.089355
1141.0	9.198149	-8.834105	5.307617	-0.036432	-2.319461	-0.499772	-0.760254	0.164795	-0.074219
1142.0	14.428814	-7.791936	5.106742	0.422161	-1.805865	-0.606359	-0.761963	0.153809	-0.061035
1143.0	14.046522	-2.448599	7.61544	0.647462	-1.087708	-0.662868	-0.768311	0.149414	-0.054443
1144.0	13.676979	-1.433819	9.014998	0.561381	-0.266183	-0.666409	-0.772461	0.140625	-0.052246
1145.0	7.04759	-2.589999	8.232101	0.558354	-0.116635	-0.628119	-0.772217	0.134277	-0.050049
1146.0	6.58162	-0.406978	8.926238	0.51302	-0.003569	-0.592201	-0.771973	0.129883	-0.050049
1147.0	6.652025	-0.719407	8.559564	0.405348	-0.037331	-0.528552	-0.771729	0.125488	-0.050049
1148.0	6.716869	-1.274784	8.170817	0.360361	-0.008822	-0.474674	-0.769531	0.119141	-0.052246
1149.0	6.654702	-0.01213	8.887899	0.308401	-0.030595	-0.41331	-0.77124	0.112793	-0.054443
1150.0	6.073284	-0.062253	8.965324	0.17108	-0.067521	-0.326482	-0.773438	0.112793	-0.052246
1151.0	6.471416	-0.488807	8.240372	0.084327	-0.128046	-0.233	-0.77124	0.110352	-0.045654
1152.0	6.448566	-1.351333	7.804561	0.038698	-0.137738	-0.172403	-0.770996	0.104248	-0.054443
1153.0	6.380375	-1.540438	7.765485	0.027932	-0.137485	-0.144091	-0.773438	0.110352	-0.04126
1154.0	6.403828	-1.626718	7.68344	0.01721	-0.128895	-0.1223	-0.766602	0.104004	-0.039063
1155.0	6.48295	-1.757564	7.506685	0.028558	-0.108555	-0.117412	-0.775146	0.101807	-0.043457
1156.0	6.385436	-1.648614	7.516837	0.037341	-0.084487	-0.11207	-0.775146	0.101807	-0.045654
1157.0	6.326599	-1.503144	7.648076	0.03419	-0.062854	-0.108446	-0.768799	0.106201	-0.043457
1158.0	6.279657	-1.459285	7.67215	0.038388	-0.05851	-0.095958	-0.770996	0.106201	-0.050049
1159.0	6.285672	-1.465161	7.688656	0.034692	-0.05127	-0.098495	-0.775146	0.101807	-0.04126
1160.0	6.20603	-1.351278	7.737349	0.034236	-0.043567	-0.092688	-0.775146	0.097412	-0.039063
1161.0	6.192573	-1.134714	7.740937	0.022818	-0.048199	-0.075209	-0.775391	0.104004	-0.047852
1162.0	6.211959	-1.020274	7.758754	0.012995	-0.065044	-0.057637	-0.770996	0.101807	-0.04126
1163.0	6.124595	-1.089251	7.793785	-0.006759	-0.081148	-0.033615	-0.770996	0.101807	-0.04126
1164.0	6.050451	-1.032771	7.86351	-0.023738	-0.101129	-0.014784	-0.768799	0.106201	-0.047852
1165.0	6.081671	-1.252804	7.781555	-0.03752	-0.133637	-0.004078	-0.768799	0.101807	-0.043457
1166.0	6.136042	-1.437178	7.694142	-0.038998	-0.147472	-0.014168	-0.772949	0.097412	-0.04126
1167.0	6.157888	-1.506412	7.571482	-0.048055	-0.155835	-0.020039	-0.773193	0.104004	-0.04126
1168.0	6.189539	-1.706514	7.501199	-0.042194	-0.152023	-0.048206	-0.773193	0.104004	-0.037109
1169.0	6.141245	-1.862473	7.526554	-0.0354	-0.149084	-0.100001	-0.775391	0.105957	-0.039063
1170.0	6.088381	-1.707519	7.633837	-0.027835	-0.145737	-0.141126	-0.772949	0.097412	-0.034912
1171.0	6.133422	-1.507201	7.617964	-0.049029	-0.140004	-0.156811	-0.775391	0.10376	-0.030518
1172.0	6.206792	-1.592735	7.535408	-0.062992	-0.151676	-0.186517	-0.774902	0.095215	-0.032715
1173.0	6.16806	-1.811688	7.569247	-0.066744	-0.15585	-0.206289	-0.7771	0.093018	-0.026123
1174.0	6.082264	-1.784239	7.638852	-0.062446	-0.167835	-0.238778	-0.772705	0.095215	-0.030518
1175.0	6.066939	-1.954334	7.735715	-0.061806	-0.191352	-0.287407	-0.7771	0.097168	-0.023926
1176.0	6.061762	-1.699743	7.84684	-0.062059	-0.233522	-0.31849	-0.772461	0.088623	-0.021729
1177.0	5.999859	-1.123555	8.051761	-0.08195	-0.301336	-0.334109	-0.774902	0.09082	-0.026123
1178.0	6.076606	-0.863336	8.156296	-0.112774	-0.409937	-0.315716	-0.781006	0.084229	-0.021729
1179.0	6.056805	-0.976074	8.191929	-0.142225	-0.535466	-0.296284	-0.781006	0.082031	-0.017334
1180.0	6.158074	-1.397597	8.189357	-0.153848	-0.671819	-0.303571	-0.782959	0.079834	-0.010986
1181.0	5.890753	-1.270333	8.451963	-0.16356	-0.841012	-0.320226	-0.7854	0.083984	-0.008789
1182.0	6.105701	-1.322096	8.488883	-0.095336	-1.046582	-0.331846	-0.785156	0.081787	0.006348
1183.0	5.787998	-0.428994	8.783594	-0.112011	-1.318873	-0.290803	-0.795654	0.068604	0.019531
1184.0	5.977234	-0.471171	8.806043	-0.07064	-1.619701	-0.24513	-0.793457	0.072754	0.030273
1185.0	5.962282	-1.102887	8.970321	-0.022927	-1.960424	-0.223229	-0.804199	0.068359	0.04126
1186.0	5.776506	-1.796143	9.102988	0.036471	-2.33273	-0.277599	-0.806396	0.065918	0.060791
1187.0	5.669627	-2.635641	9.53998	0.102017	-2.738398	-0.411651	-0.808105	0.059082	0.084473
1188.0	5.219158	-2.96718	9.922844	0.206422	-3.191522	-0.597501	-0.810059	0.054443	0.11499
1189.0	4.837111	-3.026241	10.434911	0.352838	-3.686232	-0.824673	-0.818604	0.053955	0.145264
1190.0	4.444649	-2.973123	11.04603	0.472789	-4.33049	-1.069489	-0.82251	0.042725	0.179932
1191.0	3.172962	-3.533797	11.942627	0.653254	-5.048311	-1.368722	-0.821777	0.026855	0.225586
1192.0	2.652268	-5.50778	12.066999	0.913619	-5.895091	-1.8021	-0.821289	0.013428	0.273193
1193.0	2.431519	-6.91301	12.167049	1.362158	-6.77788	-2.357994	-0.811523	-0.010986	0.334229
1194.0	3.007377	-6.246876	13.263331	1.764467	-7.702892	-2.842148	-0.795166	-0.035645	0.401367
1195.0	4.187076	-3.02783	12.397107	1.927624	-8.63944	-3.217816	-0.776611	-0.057861	0.466553
1196.0	13.110741	1.357294	12.350404	1.369225	-9.357104	-3.074479	-0.747314	-0.080322	0.536133
1197.0	20.839069	2.491314	8.053695	0.661201	-9.714652	-2.68554	-0.709717	-0.091797	0.610107
1198.0	25.80064	3.501833	7.153908	-0.289181	-9.403808	-2.058276	-0.667725	-0.107422	0.659912
1199.0	22.56564	-0.344911	8.542881	-0.73851	-8.728727	-1.859131	-0.618896	-0.129395	0.714355
1200.0	15.603227	-2.95143	8.988451	-1.257012	-8.189072	-1.941973	-0.579102	-0.142822	0.755615
1201.0	11.108473	-4.719061	10.629585	-1.588461	-7.64037	-1.991487	-0.536621	-0.166748	0.78833
1202.0	7.250947	-3.098232	11.463	-2.021539	-6.846321	-2.012916	-0.494629	-0.186279	0.803711
1203.0	2.589762	-2.473303	13.429518	-2.390952	-6.768534	-2.084004	-0.441162	-0.212158	0.823486
1204.0	10.797224	-0.463244	12.794332	-2.947514	-7.234167	-2.186437	-0.387695	-0.242188	0.83667
1205.0	37.960606	-7.459747	13.148814	-2.856949	-4.907113	-1.647625	-0.363281	-0.25708	0.836914
1206.0	34.369825	-15.717996	14.074245	-1.939052	0.175494	-0.004736	-0.371582	-0.265625	0.81958
1207.0	23.357587	-15.050289	12.940554	-0.474853	3.896236	1.025891	-0.402344	-0.26123	0.808594
1208.0	13.417458	-11.577912	10.584339	0.740573	6.125632	1.431438	-0.441895	-0.252441	0.782471
1209.0	6.670474	-6.406092	8.30765	1.320719	7.169648	1.512775	-0.481689	-0.239258	0.760742
1210.0	3.375066	-2.530116	7.121693	1.268263	7.573526	1.52982	-0.523682	-0.226074	0.728027
1211.0	1.460399	0.248541	5.94448	0.760865	7.655813	1.579723	-0.558594	-0.22583	0.688965
1212.0	-1.038921	1.766067	4.712131	-0.058263	7.41283	1.704406	-0.595947	-0.216797	0.647705
1213.0	-0.318318	1.56932	4.005741	-0.852599	6.845972	1.883313	-0.631348	-0.205566	0.606445
1214.0	2.142519	0.211205	3.629411	-1.352385	6.40432	2.06571	-0.655518	-0.200684	0.565186
1215.0	4.347879	-1.829799	3.328245	-1.526042	6.170299	2.197254	-0.677734	-0.195801	0.519531
1216.0	6.272498	-4.245792	3.168957	-1.281267	6.112523	2.287536	-0.700195	-0.178223	0.476074
1217.0	7.668525	-5.192546	3.480663	-0.684343	6.137383	2.326557	-0.717773	-0.175537	0.428223
1218.0	8.700167	-4.045477	4.433489	-0.083315	6.166116	2.378995	-0.740234	-0.159912	0.38916
1219.0	9.070532	-1.542333	5.635551	0.216059	6.144989	2.518304	-0.751953	-0.144287	0.339355
1220.0	9.705681	0.652386	6.491574	0.128563	6.056146	2.711175	-0.763428	-0.126709	0.302246
1221.0	10.301753	1.610479	7.106733	-0.200011	5.882051	2.910579	-0.777344	-0.108887	0.256592
1222.0	11.104023	1.197736	7.395361	-0.506777	5.670279	3.038756	-0.791504	-0.08252	0.217529
1223.0	12.283185	-0.28932	7.704528	-0.599037	5.47098	3.056797	-0.790283	-0.060303	0.16748
1224.0	13.757371	-1.646064	7.911806	-0.444704	5.347432	2.927981	-0.797852	-0.036133	0.126221
1225.0	14.230905	-2.017094	8.391169	-0.161734	5.266699	2.693221	-0.801025	-0.011719	0.078369
1226.0	14.161034	-1.507897	9.308513	0.038327	5.125276	2.395007	-0.792969	-0.000488	0.032959
1227.0	14.658716	-0.92794	10.296249	0.063559	4.916961	2.084282	-0.787109	0.015137	0.004639
1228.0	15.347337	-0.366073	11.118535	-0.052217	4.675511	1.789278	-0.772705	0.032959	-0.04541
1229.0	16.070658	-0.125712	11.633485	-0.315571	4.35459	1.512843	-0.760254	0.048584	-0.073486
1230.0	18.359757	0.180704	12.365163	-0.665847	3.936513	1.291999	-0.745361	0.05542	-0.110352
1231.0	23.080511	1.33391	12.140456	-1.191285	3.567798	1.241246	-0.72876	0.075439	-0.143066
1232.0	29.307713	2.915902	9.795749	-1.894334	3.564316	1.443661	-0.712158	0.093018	-0.166992
1233.0	34.327492	4.103445	4.96605	-2.627651	4.144352	1.858904	-0.695801	0.119385	-0.197266
1234.0	34.356187	4.457599	-1.419053	-3.055569	4.985112	2.388481	-0.670898	0.150146	-0.238525
1235.0	29.02081	3.60514	-8.543013	-2.987103	5.539238	2.829018	-0.644043	0.185059	-0.277832
1236.0	22.178641	3.593964	-14.655356	-2.422915	5.21764	2.823423	-0.612305	0.211426	-0.297363
1237.0	17.993016	5.176512	-19.833248	-1.667328	4.020944	2.381071	-0.589355	0.230957	-0.319092
1238.0	15.699668	7.055201	-21.351464	-0.912705	2.307637	1.610766	-0.578857	0.244141	-0.327881
1239.0	16.164974	6.072258	-18.962833	-0.299578	0.596403	0.781931	-0.576904	0.246338	-0.334229
1240.0	18.594272	2.873878	-14.71585	0.428222	-0.59872	0.011287	-0.583008	0.239746	-0.329834
1241.0	19.264753	-1.648433	-9.100024	1.151703	-1.130837	-0.518051	-0.589355	0.231201	-0.323486
1242.0	17.356148	-4.701309	-7.811579	3.299897	-1.624577	-1.199311	-0.601318	0.205078	-0.314697
1243.0	-3.486058	-5.672255	9.001537	3.97645	-2.928931	-1.61167	-0.623779	0.166016	-0.299316
1244.0	0.296117	4.987571	21.394332	3.829488	-2.035904	-1.315584	-0.62915	0.140137	-0.286133
1245.0	-11.729016	10.13001	13.823839	2.267603	-2.949298	-1.32071	-0.654785	0.124512	-0.258057
1246.0	14.176508	16.405828	11.546399	1.47113	-5.079607	-1.481232	-0.679932	0.104736	-0.220947
1247.0	31.64446	14.302458	16.05322	0.511539	-4.095108	-0.91928	-0.695068	0.102051	-0.199463
1248.0	21.447138	7.21323	13.892948	-0.118531	-3.034833	-0.852939	-0.705566	0.091064	-0.186279
1249.0	15.082033	2.228808	12.75775	-0.58762	-2.735829	-0.670754	-0.720703	0.093018	-0.168945
1250.0	9.656619	-2.356128	9.193906	-0.857656	-2.511395	-0.155882	-0.727295	0.094971	-0.153809
1251.0	5.194469	-5.057574	6.568547	-0.799802	-2.545673	0.099118	-0.740479	0.098877	-0.134521
1252.0	9.096506	-9.356367	5.717586	-0.28611	-2.436026	-0.151203	-0.755615	0.098633	-0.121582
1253.0	14.965686	-7.217885	5.330662	0.17608	-1.821894	-0.339011	-0.759766	0.094238	-0.106201
1254.0	14.453544	-3.431011	6.700836	0.362105	-1.133666	-0.306918	-0.761963	0.089844	-0.104004
1255.0	10.579616	-3.053035	8.689634	0.382963	-0.622162	-0.419283	-0.759766	0.0896	-0.097656
1256.0	11.370429	-1.298668	7.966366	0.412188	-0.147873	-0.345378	-0.763672	0.081055	-0.093262
1257.0	6.915092	0.468433	8.836743	0.28317	-0.068024	-0.238393	-0.761719	0.083252	-0.104004
1258.0	6.638059	-1.878758	8.115513	0.152129	-0.036875	-0.187579	-0.763428	0.07251	-0.097412
1259.0	7.02687	-2.4916	7.711018	0.174371	0.007159	-0.189068	-0.759033	0.07666	-0.093262
1260.0	6.22453	-0.6813	8.603122	0.154599	-0.006391	-0.167059	-0.76123	0.074707	-0.099609
1261.0	6.022055	-1.041405	8.3754	0.065355	-0.056551	-0.126597	-0.76123	0.074463	-0.091064
1262.0	6.197744	-1.430392	8.069344	0.020849	-0.099294	-0.077878	-0.756836	0.07251	-0.097412
1263.0	6.158474	-1.111338	8.13605	-0.030738	-0.13966	-0.030585	-0.76123	0.074463	-0.091064
1264.0	6.308017	-1.443792	7.850115	-0.085485	-0.170048	0.005979	-0.76123	0.074707	-0.093262
1265.0	6.13059	-1.802105	7.731583	-0.096578	-0.197083	0.02636	-0.765869	0.078857	-0.093262
1266.0	6.210807	-1.957316	7.595008	-0.108764	-0.193332	0.033588	-0.763428	0.07666	-0.093262
1267.0	6.146219	-2.410903	7.300244	-0.085662	-0.168701	0.014862	-0.763428	0.074463	-0.088867
1268.0	6.155633	-2.684131	7.189179	-0.042985	-0.135287	-0.021363	-0.765625	0.078857	-0.08667
1269.0	6.087628	-2.681916	7.246482	0.005731	-0.086373	-0.068082	-0.77002	0.074463	-0.08667
1270.0	6.15067	-2.521784	7.373543	0.053491	-0.036488	-0.093886	-0.765869	0.078857	-0.091064
1271.0	6.115802	-2.365939	7.464351	0.085019	0.000118	-0.123769	-0.769775	0.072266	-0.088867
1272.0	6.171936	-2.162855	7.594212	0.111409	0.023223	-0.138108	-0.767578	0.072266	-0.084473
1273.0	6.168738	-1.824183	7.710604	0.109713	0.038063	-0.131974	-0.767578	0.070068	-0.084473
1274.0	6.174885	-1.595779	7.766685	0.088585	0.033014	-0.107928	-0.767578	0.072266	-0.088867
1275.0	6.112596	-1.4921	7.879379	0.050788	0.020428	-0.081112	-0.769531	0.065918	-0.084473
1276.0	6.020563	-1.544977	7.862075	0.018393	-0.01251	-0.058883	-0.767578	0.070313	-0.088867
1277.0	5.970666	-1.776762	7.790488	-0.005327	-0.036522	-0.048761	-0.769775	0.067871	-0.084473
1278.0	5.948715	-1.758138	7.801705	-0.019314	-0.059972	-0.043232	-0.767334	0.065918	-0.08667
1279.0	5.977271	-1.706056	7.776273	-0.035417	-0.093943	-0.037667	-0.760986	0.067871	-0.082275
1280.0	6.017672	-2.061979	7.661873	-0.05299	-0.11393	-0.032716	-0.760986	0.065918	-0.08667
1281.0	6.049925	-2.058885	7.689262	-0.049701	-0.124296	-0.046814	-0.771973	0.067871	-0.084473
1282.0	6.117581	-2.130631	7.620531	-0.061277	-0.115811	-0.058399	-0.765381	0.070068	-0.080078
1283.0	6.18045	-1.895589	7.682481	-0.051168	-0.123811	-0.066167	-0.769531	0.061523	-0.080078
1284.0	6.195838	-1.680663	7.759872	-0.076092	-0.142482	-0.054988	-0.765137	0.065918	-0.08667
1285.0	6.117021	-1.775453	7.768453	-0.08488	-0.175317	-0.049669	-0.769531	0.063721	-0.080078
1286.0	6.10407	-1.981099	7.648232	-0.099982	-0.206007	-0.064651	-0.767578	0.067871	-0.077881
1287.0	6.145866	-2.500189	7.448946	-0.085768	-0.236843	-0.097438	-0.776123	0.065674	-0.07373
1288.0	6.098521	-2.600939	7.506471	-0.060233	-0.242617	-0.16397	-0.773682	0.059082	-0.071533
1289.0	6.171819	-2.323552	7.557705	-0.04775	-0.266399	-0.216768	-0.77832	0.067627	-0.069336
1290.0	6.126731	-2.097987	7.692687	-0.049669	-0.31024	-0.246612	-0.771484	0.059082	-0.069336
1291.0	6.047186	-1.759142	7.987382	-0.077269	-0.38938	-0.251648	-0.775879	0.059082	-0.067139
1292.0	6.011763	-1.766129	8.078261	-0.107124	-0.509206	-0.241651	-0.775635	0.054932	-0.069336
1293.0	5.944211	-2.10909	8.167252	-0.124261	-0.647481	-0.252536	-0.780273	0.059082	-0.060547
1294.0	5.776574	-1.502091	8.556848	-0.121731	-0.841404	-0.258848	-0.777832	0.056641	-0.052002
1295.0	5.676028	-1.103383	8.884898	-0.079249	-1.081777	-0.251451	-0.788818	0.056641	-0.043213
1296.0	5.532296	-0.951393	9.095049	-0.187425	-1.441629	-0.199335	-0.786377	0.052246	-0.032471
1297.0	5.615012	-1.515397	9.075951	-0.184296	-1.792773	-0.194676	-0.790771	0.056152	-0.015137
1298.0	5.449844	-2.09632	9.218064	-0.183249	-2.182638	-0.242277	-0.803711	0.053711	-0.002197
1299.0	5.579026	-2.532117	9.531104	-0.146605	-2.611766	-0.336463	-0.805664	0.047119	0.021729
1300.0	4.839725	-2.942735	10.108957	-0.048818	-3.058023	-0.479478	-0.809814	0.040283	0.04126
1301.0	4.730275	-3.610909	10.356835	0.05876	-3.61146	-0.659155	-0.822754	0.041748	0.080322
1302.0	4.538963	-3.892948	10.378215	0.185367	-4.216544	-0.924108	-0.831055	0.032715	0.112793
1303.0	3.450384	-4.367296	11.162509	0.390298	-4.901635	-1.259176	-0.834717	0.014893	0.154053
1304.0	3.230794	-5.982588	11.535823	0.660182	-5.640274	-1.686842	-0.838379	0.001465	0.19751
1305.0	2.500651	-6.434658	11.85343	0.972202	-6.369774	-2.170533	-0.835205	-0.018799	0.258301
1306.0	2.199679	-7.779054	12.666171	1.419127	-7.269958	-2.770609	-0.829834	-0.041016	0.321289
1307.0	3.323326	-3.443629	14.012572	1.524288	-8.256698	-3.176571	-0.811279	-0.067871	0.39502
1308.0	6.774908	-1.526895	11.466217	1.315923	-9.108714	-3.205098	-0.792969	-0.088135	0.466797
1309.0	19.544877	3.619263	10.840766	0.572445	-9.837461	-2.824367	-0.763672	-0.106201	0.542725
1310.0	24.634066	3.092209	7.952147	-0.631337	-9.749977	-2.141544	-0.728027	-0.128418	0.60791
1311.0	24.314096	-0.097229	7.410391	-1.314743	-9.098231	-1.79086	-0.690186	-0.144043	0.660156
1312.0	17.69432	-2.803323	9.399761	-1.918858	-8.172123	-1.864959	-0.656494	-0.166016	0.703613
1313.0	11.779021	-6.93592	8.956591	-2.174319	-7.454703	-2.10219	-0.612305	-0.181396	0.736328
