Acquisition frequency: 100 Hz
PacketCounter	Acc_X	Acc_Y	Acc_Z	Gyr_X	Gyr_Y	Gyr_Z	Mag_X	Mag_Y	Mag_Z
0.0	4.36117	-1.490832	8.691893	-0.007771	0.007194	-0.00498	-0.57373	0.036865	-0.586914
1.0	4.345592	-1.493392	8.661004	-0.010118	0.004655	-0.005327	-0.573242	0.02832	-0.584717
2.0	4.356715	-1.503351	8.713648	-0.005843	0.007849	-0.007485	-0.57373	0.039063	-0.591064
3.0	4.37765	-1.479331	8.702197	-0.009062	0.005858	-0.003708	-0.569092	0.034668	-0.588867
4.0	4.342878	-1.475791	8.69933	-0.007746	0.009898	-0.003786	-0.573486	0.030518	-0.593262
5.0	4.395649	-1.48608	8.67467	-0.004283	0.006951	-0.00625	-0.569092	0.030518	-0.591064
6.0	4.357642	-1.493683	8.693173	-0.010489	0.008176	-0.005792	-0.573486	0.034912	-0.591064
7.0	4.356967	-1.494212	8.69342	-0.00711	0.009216	-0.005019	-0.568848	0.02832	-0.588867
8.0	4.352954	-1.505826	8.7151	-0.004785	0.009054	-0.005865	-0.573486	0.032715	-0.591064
9.0	4.358898	-1.483461	8.672637	-0.00724	0.007798	-0.004171	-0.571289	0.030518	-0.591064
10.0	4.35479	-1.495106	8.694357	-0.005157	0.012575	-0.006328	-0.571289	0.034912	-0.591064
11.0	4.352952	-1.476673	8.732383	-0.012437	0.00482	-0.004485	-0.564697	0.032715	-0.586914
12.0	4.371677	-1.48323	8.704536	-0.007742	0.009901	-0.003786	-0.573486	0.030518	-0.588867
13.0	4.367642	-1.494972	8.726198	-0.006472	0.008536	-0.006252	-0.569092	0.030518	-0.591064
14.0	4.355469	-1.485679	8.67398	-0.006471	0.008536	-0.006253	-0.575439	0.030518	-0.586914
15.0	4.367479	-1.514561	8.688977	-0.007106	0.009219	-0.00502	-0.571289	0.032715	-0.588867
16.0	4.350773	-1.497832	8.695899	-0.008794	0.008699	-0.005408	-0.571289	0.032471	-0.586914
17.0	4.370392	-1.454909	8.722336	-0.008158	0.008017	-0.006641	-0.573486	0.034912	-0.591064
18.0	4.364308	-1.497043	8.72751	-0.007871	0.008483	-0.002939	-0.573486	0.034668	-0.584717
19.0	4.366935	-1.486235	8.706403	-0.008792	0.0087	-0.005408	-0.571289	0.034668	-0.588867
20.0	4.363145	-1.497939	8.727938	-0.00546	0.004335	-0.007024	-0.571289	0.032715	-0.588867
21.0	4.369126	-1.475517	8.685502	-0.007475	0.012742	-0.005482	-0.571289	0.032715	-0.593262
22.0	4.346888	-1.500474	8.697386	-0.008922	0.007282	-0.004561	-0.564697	0.030518	-0.584717
23.0	4.367701	-1.476575	8.686039	-0.007869	0.008484	-0.00294	-0.569092	0.032715	-0.586914
24.0	4.361648	-1.51879	8.691167	-0.008921	0.007282	-0.004562	-0.569092	0.034912	-0.591064
25.0	4.34714	-1.471836	8.714473	-0.007233	0.007803	-0.004173	-0.571289	0.034668	-0.588867
26.0	4.381776	-1.495228	8.680115	-0.006969	0.010643	-0.005868	-0.569092	0.034912	-0.593262
27.0	4.379902	-1.476799	8.718157	-0.009052	0.005863	-0.003715	-0.571289	0.034668	-0.586914
28.0	4.357897	-1.501746	8.729906	-0.005544	0.008324	-0.003784	-0.569092	0.032715	-0.588867
29.0	4.344391	-1.473709	8.715527	-0.009927	0.011487	-0.003791	-0.571289	0.032471	-0.586914
30.0	4.393841	-1.495537	8.712289	-0.008282	0.006603	-0.005796	-0.571045	0.02832	-0.593262
31.0	4.34094	-1.505062	8.699564	-0.007734	0.009906	-0.003788	-0.569092	0.032715	-0.586914
32.0	4.358341	-1.492435	8.709648	-0.00723	0.007805	-0.004174	-0.569092	0.032715	-0.591064
33.0	4.345025	-1.464334	8.695191	-0.007229	0.007805	-0.004174	-0.569092	0.030273	-0.58252
34.0	4.360328	-1.481902	8.688836	-0.006964	0.010646	-0.005868	-0.571289	0.030518	-0.588867
35.0	4.390367	-1.497799	8.713651	-0.007865	0.008487	-0.002941	-0.571289	0.034668	-0.588867
36.0	4.339631	-1.477041	8.717334	-0.006724	0.005704	-0.00456	-0.573242	0.02832	-0.593262
37.0	4.355116	-1.494561	8.710897	-0.00554	0.008326	-0.003785	-0.573486	0.034668	-0.589111
38.0	4.373818	-1.500762	8.683173	-0.008782	0.008707	-0.005411	-0.575684	0.034912	-0.595459
39.0	4.357118	-1.484005	8.690087	-0.006458	0.008546	-0.006254	-0.56665	0.02832	-0.584717
40.0	4.371228	-1.482578	8.72153	-0.006457	0.008547	-0.006254	-0.575684	0.034668	-0.584717
41.0	4.386647	-1.499987	8.715148	-0.004902	0.007646	-0.005018	-0.571289	0.034668	-0.588867
42.0	4.355309	-1.484879	8.690845	-0.008276	0.006606	-0.005798	-0.569092	0.032715	-0.588867
43.0	4.370805	-1.502691	8.684356	-0.010318	0.007228	-0.001253	-0.571289	0.032715	-0.593262
44.0	4.336027	-1.499219	8.681387	-0.005538	0.008328	-0.003785	-0.569092	0.032715	-0.593262
45.0	4.368021	-1.484768	8.722763	-0.007463	0.012753	-0.005482	-0.573486	0.034668	-0.586914
46.0	4.352706	-1.486854	8.691811	-0.007266	0.002404	-0.006572	-0.573486	0.030518	-0.588867
47.0	4.386465	-1.491216	8.695145	-0.006454	0.008549	-0.006255	-0.573486	0.032715	-0.591064
48.0	4.351747	-1.487562	8.69217	-0.007356	0.006388	-0.003329	-0.571289	0.034912	-0.593262
49.0	4.365962	-1.486276	8.723537	-0.006586	0.007129	-0.005409	-0.573242	0.026123	-0.588867
50.0	4.366615	-1.505535	8.685971	-0.008643	0.010132	-0.006259	-0.573486	0.030518	-0.588867
51.0	4.349847	-1.488665	8.692932	-0.003212	0.00817	-0.004627	-0.573486	0.030518	-0.588867
52.0	4.383434	-1.493159	8.69634	-0.012281	0.006249	-0.00535	-0.571289	0.032471	-0.586914
53.0	4.368261	-1.495463	8.665278	-0.006717	0.005708	-0.004563	-0.575684	0.034668	-0.584717
54.0	4.366273	-1.477123	8.703356	-0.008362	0.010593	-0.002557	-0.571289	0.034668	-0.588867
55.0	4.378251	-1.506278	8.718285	-0.008907	0.007291	-0.004568	-0.569092	0.032715	-0.593262
56.0	4.350274	-1.479866	8.672633	-0.006583	0.007131	-0.005409	-0.573486	0.032715	-0.591064
57.0	4.359081	-1.520181	8.708825	-0.006582	0.007131	-0.005409	-0.569092	0.034912	-0.591064
58.0	4.367234	-1.467482	8.682943	-0.007219	0.007812	-0.004177	-0.571289	0.030518	-0.591064
59.0	4.359984	-1.490848	8.725747	-0.009953	0.006092	-0.006193	-0.571289	0.030518	-0.591064
60.0	4.363073	-1.480094	8.704456	-0.010353	0.001825	-0.003656	-0.571289	0.032471	-0.586914
61.0	4.359256	-1.492146	8.725889	-0.007722	0.009915	-0.003789	-0.573486	0.034912	-0.593262
62.0	4.378171	-1.498253	8.698114	-0.007124	0.003831	-0.007422	-0.573486	0.030518	-0.588867
63.0	4.361801	-1.481525	8.70485	-0.008399	0.005191	-0.004956	-0.569092	0.034668	-0.584717
64.0	4.379435	-1.468906	8.714871	-0.008265	0.006613	-0.005802	-0.571289	0.032471	-0.584717
65.0	4.360813	-1.482472	8.705184	-0.007217	0.007814	-0.004177	-0.567139	0.036865	-0.580322
66.0	4.360289	-1.482888	8.705375	-0.006712	0.005712	-0.004564	-0.569336	0.039063	-0.586914
67.0	4.359916	-1.483298	8.705493	-0.006846	0.004289	-0.003719	-0.569092	0.030518	-0.593262
68.0	4.356115	-1.495229	8.72693	-0.009815	0.007517	-0.00704	-0.573242	0.02832	-0.58667
69.0	4.359103	-1.484303	8.705728	-0.006979	0.002867	-0.002874	-0.564941	0.034912	-0.588867
70.0	4.374714	-1.501866	8.699231	-0.007082	0.009238	-0.005022	-0.571533	0.036865	-0.593262
71.0	4.338644	-1.479404	8.734058	-0.006073	0.005033	-0.005797	-0.571533	0.039063	-0.586914
72.0	4.373755	-1.502572	8.699591	-0.008262	0.006616	-0.005803	-0.571289	0.034912	-0.591064
73.0	4.376675	-1.491532	8.678448	-0.007623	0.005937	-0.007035	-0.573242	0.026123	-0.591064
74.0	4.356878	-1.486429	8.70648	-0.011765	0.004153	-0.005744	-0.568848	0.02832	-0.588867
75.0	4.394091	-1.479583	8.68848	-0.006843	0.004291	-0.00372	-0.569092	0.030518	-0.595459
76.0	4.374241	-1.474555	8.716525	-0.012268	0.006256	-0.005356	-0.573486	0.032471	-0.58252
77.0	4.357031	-1.507009	8.66893	-0.005528	0.008337	-0.003783	-0.568848	0.02832	-0.591064
78.0	4.38934	-1.492614	8.710201	-0.008801	0.003316	-0.007817	-0.571289	0.032715	-0.588867
79.0	4.351552	-1.500546	8.728293	-0.008393	0.005195	-0.004958	-0.569092	0.032715	-0.588867
80.0	4.370544	-1.506738	8.700484	-0.008897	0.007297	-0.00457	-0.573486	0.034668	-0.584717
81.0	4.355837	-1.459986	8.723917	-0.008896	0.007297	-0.00457	-0.571289	0.034668	-0.588867
82.0	4.353348	-1.49074	8.707508	-0.007345	0.006394	-0.003332	-0.573486	0.032471	-0.584717
83.0	4.402939	-1.51222	8.704368	-0.005393	0.009762	-0.004627	-0.571289	0.034912	-0.591064
84.0	4.37014	-1.478336	8.717941	-0.006706	0.005716	-0.004565	-0.575684	0.034668	-0.586914
85.0	4.367578	-1.508997	8.701582	-0.007715	0.009921	-0.003788	-0.569092	0.030518	-0.595459
86.0	4.370256	-1.497984	8.680572	-0.008121	0.008044	-0.006648	-0.566895	0.032715	-0.597656
87.0	4.350243	-1.492679	8.708727	-0.005932	0.006462	-0.006643	-0.569092	0.032471	-0.58252
88.0	4.383729	-1.496953	8.712282	-0.006941	0.010667	-0.005866	-0.569092	0.030518	-0.588867
89.0	4.366877	-1.480173	8.719265	-0.006435	0.008565	-0.006255	-0.568848	0.026123	-0.584717
90.0	4.351495	-1.482006	8.688376	-0.004616	0.01051	-0.006704	-0.573486	0.032715	-0.591064
91.0	4.365505	-1.480739	8.719856	-0.009026	0.005876	-0.003728	-0.573486	0.032471	-0.584717
92.0	4.384326	-1.48677	8.692186	-0.005255	0.011189	-0.005472	-0.571289	0.034668	-0.584717
93.0	4.398115	-1.485501	8.72378	-0.007712	0.009923	-0.003789	-0.573486	0.030518	-0.593262
94.0	4.341772	-1.5065	8.732137	-0.006298	0.009992	-0.007099	-0.569092	0.032715	-0.588867
95.0	4.367315	-1.489443	8.661975	-0.007071	0.009246	-0.005023	-0.569092	0.030518	-0.584717
96.0	4.381235	-1.48829	8.693484	-0.007845	0.008499	-0.002946	-0.57373	0.036865	-0.586914
97.0	4.359106	-1.513372	8.70507	-0.00707	0.009246	-0.005023	-0.571289	0.030518	-0.588867
98.0	4.360373	-1.483536	8.721948	-0.006565	0.007144	-0.005412	-0.575439	0.030518	-0.591064
99.0	4.379279	-1.489557	8.694253	-0.008753	0.008727	-0.005418	-0.571289	0.032715	-0.588867
100.0	4.341077	-1.497492	8.712474	-0.006429	0.00857	-0.006256	-0.573242	0.026123	-0.58667
101.0	4.381165	-1.478823	8.673618	-0.006529	0.012548	-0.003006	-0.571289	0.030518	-0.588867
102.0	4.359052	-1.503793	8.6852	-0.006058	0.005043	-0.005802	-0.571289	0.030518	-0.584717
103.0	4.375129	-1.47235	8.733223	-0.008246	0.006625	-0.005808	-0.571289	0.032471	-0.584717
104.0	4.376061	-1.491538	8.695533	-0.00875	0.008728	-0.005419	-0.573486	0.034912	-0.591064
105.0	4.355854	-1.486386	8.72372	-0.005519	0.008344	-0.003784	-0.571045	0.02832	-0.591064
106.0	4.371372	-1.503893	8.717294	-0.009792	0.007531	-0.007049	-0.564697	0.030518	-0.58667
107.0	4.340146	-1.488997	8.692856	-0.009927	0.006106	-0.006205	-0.575684	0.034668	-0.586914
108.0	4.373739	-1.493391	8.696383	-0.006425	0.008573	-0.006256	-0.571289	0.030518	-0.593262
109.0	4.373198	-1.493725	8.696598	-0.006695	0.005722	-0.00457	-0.571289	0.032471	-0.584717
110.0	4.37246	-1.494134	8.696899	-0.006527	0.012551	-0.003005	-0.573242	0.030273	-0.58252
111.0	4.371636	-1.49456	8.69724	-0.008106	0.008053	-0.006653	-0.571289	0.034668	-0.588867
112.0	4.371035	-1.494974	8.697471	-0.008106	0.008054	-0.006653	-0.569092	0.030518	-0.584717
113.0	4.357737	-1.466763	8.683099	-0.006558	0.007149	-0.005414	-0.575684	0.034912	-0.593262
114.0	4.366607	-1.507372	8.719081	-0.009152	0.004454	-0.002891	-0.575684	0.036865	-0.586914
115.0	4.350073	-1.490942	8.725827	-0.009922	0.006109	-0.006207	-0.571289	0.030518	-0.591064
116.0	4.352941	-1.479858	8.704776	-0.006422	0.008576	-0.006257	-0.567139	0.036865	-0.589111
117.0	4.368424	-1.497219	8.698396	-0.005515	0.008348	-0.003784	-0.569092	0.034668	-0.588867
118.0	4.385843	-1.484473	8.708632	-0.009145	0.006859	-0.008284	-0.569092	0.032715	-0.588867
119.0	4.351146	-1.481094	8.705463	-0.009519	0.007984	-0.003346	-0.575439	0.030273	-0.584717
120.0	4.366625	-1.498768	8.699033	-0.007837	0.008505	-0.002948	-0.575439	0.030273	-0.584717
121.0	4.365993	-1.499331	8.699253	-0.008878	0.007308	-0.004579	-0.571289	0.032471	-0.586914
122.0	4.352654	-1.471169	8.684903	-0.006418	0.008578	-0.006257	-0.573486	0.032471	-0.586914
123.0	4.368022	-1.488591	8.678574	-0.007564	0.011358	-0.004634	-0.569092	0.034668	-0.586914
124.0	4.365759	-1.470364	8.716767	-0.007594	0.005956	-0.007045	-0.571289	0.030518	-0.591064
125.0	4.365223	-1.470684	8.716982	-0.006417	0.008579	-0.006257	-0.569092	0.032715	-0.586914
126.0	4.346606	-1.484171	8.707206	-0.007193	0.00783	-0.004182	-0.577881	0.034912	-0.595459
127.0	4.340685	-1.526304	8.712014	-0.007057	0.009256	-0.005024	-0.566895	0.032471	-0.584717
128.0	4.36666	-1.460342	8.69654	-0.007193	0.00783	-0.004182	-0.571533	0.036865	-0.589111
129.0	4.375436	-1.500897	8.732544	-0.006687	0.005728	-0.004573	-0.573486	0.032715	-0.591064
130.0	4.35691	-1.514672	8.722666	-0.011837	0.008142	-0.002514	-0.573486	0.034668	-0.589111
131.0	4.364856	-1.461998	8.697168	-0.005374	0.009778	-0.004626	-0.569092	0.032715	-0.588867
132.0	4.358941	-1.504133	8.70196	-0.008872	0.007311	-0.004581	-0.571289	0.032715	-0.588867
133.0	4.360141	-1.474387	8.718899	-0.007316	0.008813	-0.008731	-0.566895	0.032471	-0.58252
134.0	4.34157	-1.487925	8.709078	-0.008871	0.007311	-0.004581	-0.573486	0.032715	-0.591064
135.0	4.340962	-1.488553	8.709274	-0.009512	0.007988	-0.003349	-0.564697	0.030518	-0.58667
136.0	4.354855	-1.487558	8.740776	-0.007189	0.007833	-0.004183	-0.571289	0.032471	-0.586914
137.0	4.391846	-1.480297	8.723176	-0.006547	0.007157	-0.005416	-0.573486	0.032471	-0.58252
138.0	4.360607	-1.465154	8.698768	-0.006547	0.007157	-0.005416	-0.571533	0.036865	-0.586914
139.0	4.356545	-1.477165	8.720226	-0.00783	0.008509	-0.00295	-0.567139	0.039063	-0.584717
140.0	4.357529	-1.496167	8.682545	-0.006409	0.008585	-0.006258	-0.569092	0.034668	-0.586914
141.0	4.38939	-1.481921	8.724137	-0.008868	0.007313	-0.004583	-0.573486	0.034668	-0.586914
142.0	4.354491	-1.478451	8.721034	-0.006777	0.012117	-0.006709	-0.568848	0.02832	-0.584717
143.0	4.386009	-1.512849	8.70808	-0.00705	0.009262	-0.005025	-0.571289	0.032471	-0.58252
144.0	4.356305	-1.467594	8.700512	-0.006912	0.01069	-0.005867	-0.573486	0.030518	-0.588867
145.0	4.384492	-1.513612	8.708711	-0.007185	0.007835	-0.004184	-0.571289	0.032471	-0.586914
146.0	4.351419	-1.479922	8.722318	-0.005367	0.009784	-0.004626	-0.569336	0.039063	-0.586914
147.0	4.384674	-1.48442	8.726083	-0.012198	0.011676	-0.00297	-0.571289	0.032715	-0.588867
148.0	4.349767	-1.481277	8.722912	-0.008864	0.007316	-0.004585	-0.569092	0.034668	-0.588867
149.0	4.365344	-1.498725	8.716487	-0.006404	0.008589	-0.006259	-0.5625	0.032715	-0.586914
150.0	4.379128	-1.497544	8.748081	-0.006145	0.009032	-0.002552	-0.573486	0.032715	-0.588867
151.0	4.351287	-1.470919	8.702461	-0.00822	0.006641	-0.005818	-0.573486	0.030518	-0.593262
152.0	4.366826	-1.488521	8.696032	-0.01091	0.010328	-0.005436	-0.569092	0.032471	-0.584717
153.0	4.362583	-1.500681	8.717533	-0.006144	0.009033	-0.002552	-0.571045	0.023926	-0.588867
154.0	4.37055	-1.44791	8.69214	-0.009504	0.007992	-0.003353	-0.571289	0.030518	-0.586914
155.0	4.368268	-1.478677	8.675543	-0.009898	0.006122	-0.00622	-0.573486	0.032715	-0.595459
156.0	4.3428	-1.515318	8.708088	-0.002141	0.0094	-0.002982	-0.571289	0.032715	-0.588867
157.0	4.363347	-1.490956	8.697361	-0.01077	0.011758	-0.006278	-0.569092	0.032715	-0.588867
158.0	4.384035	-1.466792	8.686536	-0.008216	0.006644	-0.005819	-0.573486	0.034912	-0.591064
159.0	4.362107	-1.492033	8.697798	-0.008859	0.007319	-0.004587	-0.568848	0.02832	-0.588867
160.0	4.379386	-1.479392	8.708161	-0.007041	0.009269	-0.005027	-0.567139	0.036865	-0.584717
161.0	4.360735	-1.492893	8.698338	-0.007939	0.009503	-0.007502	-0.573486	0.032471	-0.584717
162.0	4.370971	-1.503501	8.751138	-0.008463	0.009189	-0.001721	-0.575684	0.030518	-0.595459
163.0	4.341298	-1.506978	8.688804	-0.006258	0.010024	-0.0071	-0.568848	0.02832	-0.588867
164.0	4.376424	-1.481004	8.709375	-0.005497	0.008362	-0.003785	-0.573486	0.034912	-0.593262
165.0	4.372094	-1.492977	8.730934	-0.007405	0.012803	-0.005476	-0.569092	0.030518	-0.591064
166.0	4.356813	-1.49503	8.699937	-0.009498	0.007995	-0.003356	-0.569092	0.032715	-0.593262
167.0	4.373985	-1.482418	8.71036	-0.006899	0.010701	-0.005868	-0.571289	0.032471	-0.584717
168.0	4.369689	-1.494342	8.731905	-0.005357	0.009792	-0.004625	-0.577881	0.034668	-0.586914
169.0	4.341819	-1.467587	8.686334	-0.007174	0.007842	-0.004187	-0.566895	0.032715	-0.591064
170.0	4.336009	-1.509886	8.69094	-0.009496	0.007996	-0.003357	-0.569092	0.032715	-0.591064
171.0	4.367692	-1.495848	8.732646	-0.009611	0.008987	-0.007906	-0.564697	0.030518	-0.593262
172.0	4.373994	-1.472998	8.690546	-0.005494	0.008364	-0.003785	-0.571289	0.032715	-0.591064
173.0	4.366374	-1.496935	8.733119	-0.013496	0.00763	-0.002931	-0.569092	0.034668	-0.584717
174.0	4.351317	-1.499095	8.701987	-0.00639	0.0086	-0.00626	-0.573486	0.034668	-0.586914
175.0	4.39176	-1.480091	8.663399	-0.008712	0.008754	-0.005431	-0.568848	0.026123	-0.588867
176.0	4.346452	-1.511591	8.723703	-0.007033	0.009275	-0.005028	-0.571289	0.034668	-0.586914
177.0	4.367169	-1.487248	8.712956	-0.007171	0.007845	-0.004188	-0.573486	0.032715	-0.591064
178.0	4.364693	-1.469264	8.751198	-0.00871	0.008755	-0.005431	-0.573486	0.032715	-0.588867
179.0	4.367424	-1.506648	8.675587	-0.006363	0.014004	-0.00384	-0.569336	0.04126	-0.584717
180.0	4.348331	-1.471508	8.720703	-0.005213	0.011227	-0.005465	-0.57373	0.036865	-0.591064
181.0	4.363667	-1.488702	8.714462	-0.005213	0.011228	-0.005465	-0.568848	0.026123	-0.58667
182.0	4.341458	-1.513777	8.72581	-0.007029	0.009277	-0.005029	-0.571289	0.030518	-0.591064
183.0	4.349288	-1.46081	8.700643	-0.007534	0.011381	-0.004637	-0.571289	0.030518	-0.588867
184.0	4.346841	-1.491292	8.684142	-0.005489	0.008368	-0.003786	-0.571533	0.036865	-0.589111
185.0	4.346166	-1.491708	8.684408	-0.008706	0.008757	-0.005434	-0.571289	0.030518	-0.584717
186.0	4.343618	-1.473584	8.722701	-0.005599	0.009363	-0.008334	-0.573486	0.030518	-0.586914
187.0	4.362794	-1.479273	8.695109	-0.008983	0.005896	-0.003755	-0.566895	0.032715	-0.591064
188.0	4.3551	-1.502999	8.737706	-0.005209	0.011231	-0.005465	-0.571289	0.034668	-0.586914
189.0	4.361265	-1.480047	8.695745	-0.00767	0.009952	-0.003798	-0.569092	0.030518	-0.591064
190.0	4.360662	-1.480567	8.695959	-0.007443	0.004987	-0.002512	-0.573486	0.034912	-0.591064
191.0	4.360124	-1.481096	8.696139	-0.008702	0.008759	-0.005435	-0.573486	0.030518	-0.586914
192.0	4.356053	-1.493207	8.7175	-0.006658	0.005745	-0.004584	-0.564697	0.02832	-0.58667
193.0	4.358947	-1.481985	8.696577	-0.007669	0.009954	-0.003798	-0.569092	0.034912	-0.591064
194.0	4.358283	-1.482585	8.696808	-0.010518	0.006808	-0.005001	-0.569092	0.032715	-0.588867
195.0	4.354115	-1.494732	8.718207	-0.005345	0.009802	-0.004625	-0.571289	0.032715	-0.593262
196.0	4.356843	-1.483432	8.697384	-0.00856	0.010192	-0.006275	-0.573486	0.032715	-0.588867
197.0	4.340136	-1.467078	8.704157	-0.01029	0.001842	-0.003717	-0.573486	0.032715	-0.591064
198.0	4.370212	-1.483093	8.729055	-0.006742	0.012146	-0.006708	-0.569092	0.034668	-0.584717
199.0	4.355018	-1.48489	8.69805	-0.007021	0.009283	-0.00503	-0.569092	0.030518	-0.591064
200.0	4.368615	-1.48395	8.729709	-0.009343	0.009435	-0.004204	-0.575684	0.034668	-0.58252
201.0	4.353583	-1.485936	8.698589	-0.00716	0.007852	-0.004192	-0.573486	0.034668	-0.589111
202.0	4.370795	-1.473288	8.709062	-0.008696	0.008763	-0.005436	-0.575684	0.036865	-0.589111
203.0	4.368586	-1.503789	8.692417	-0.006514	0.00718	-0.005424	-0.573242	0.030518	-0.584717
204.0	4.353252	-1.456959	8.716247	-0.002128	0.009415	-0.002974	-0.571289	0.032471	-0.586914
205.0	4.347226	-1.498949	8.720921	-0.007383	0.012821	-0.005476	-0.571289	0.030518	-0.586914
206.0	4.353549	-1.476074	8.678919	-0.009866	0.00614	-0.006237	-0.571289	0.032471	-0.586914
207.0	4.363753	-1.486809	8.731654	-0.007017	0.009286	-0.005031	-0.573486	0.032715	-0.588867
208.0	4.352257	-1.477015	8.679407	-0.008693	0.008765	-0.005438	-0.564697	0.030518	-0.593262
209.0	4.362415	-1.487812	8.732152	-0.008833	0.007334	-0.004599	-0.571289	0.032715	-0.588867
210.0	4.347494	-1.489769	8.700979	-0.006265	0.007615	-0.001716	-0.573242	0.02832	-0.593262
211.0	4.36829	-1.465345	8.69032	-0.00651	0.007183	-0.005425	-0.571289	0.034668	-0.588867
212.0	4.342705	-1.502252	8.722605	-0.009441	0.010439	-0.008754	-0.573486	0.032715	-0.588867
213.0	4.363363	-1.477802	8.712024	-0.005478	0.008376	-0.003786	-0.573242	0.030273	-0.58252
214.0	4.344973	-1.491262	8.701982	-0.007539	0.005991	-0.007065	-0.573486	0.032715	-0.588867
215.0	4.362298	-1.478527	8.712434	-0.007154	0.007856	-0.004193	-0.571045	0.026123	-0.58667
216.0	4.361619	-1.478943	8.712703	-0.007013	0.009289	-0.005032	-0.569092	0.032715	-0.586914
217.0	4.360979	-1.479304	8.712963	-0.006507	0.007185	-0.005426	-0.575684	0.034668	-0.580322
218.0	4.342595	-1.492765	8.702912	-0.006507	0.007185	-0.005426	-0.569092	0.032715	-0.586914
219.0	4.359767	-1.479931	8.713463	-0.005336	0.009811	-0.004625	-0.569092	0.032715	-0.591064
220.0	4.361141	-1.498822	8.675637	-0.01218	0.006295	-0.005416	-0.571289	0.030518	-0.588867
221.0	4.338729	-1.475832	8.741646	-0.005476	0.008378	-0.003786	-0.568848	0.02832	-0.588867
222.0	4.377826	-1.486638	8.686328	-0.008181	0.006666	-0.005834	-0.566895	0.032715	-0.595459
223.0	4.33962	-1.495074	8.703999	-0.008827	0.007337	-0.004602	-0.573242	0.030518	-0.584717
224.0	4.342575	-1.483861	8.683088	-0.00715	0.007858	-0.004194	-0.568848	0.02832	-0.591064
225.0	4.356232	-1.482888	8.714728	-0.00715	0.007859	-0.004194	-0.573486	0.034668	-0.589111
226.0	4.359162	-1.471607	8.693845	-0.00715	0.007859	-0.004194	-0.573486	0.034668	-0.586914
227.0	4.372894	-1.470726	8.725434	-0.008966	0.005905	-0.003765	-0.573486	0.032715	-0.591064
228.0	4.377912	-1.477788	8.666466	-0.005473	0.00838	-0.003786	-0.573486	0.030518	-0.586914
229.0	4.353759	-1.484729	8.71565	-0.007654	0.009964	-0.0038	-0.573486	0.032715	-0.588867
230.0	4.370939	-1.471959	8.726205	-0.005855	0.006518	-0.006659	-0.567139	0.034912	-0.593262
231.0	4.370418	-1.472353	8.7264	-0.008823	0.007339	-0.004603	-0.567139	0.034912	-0.595459
232.0	4.348385	-1.497696	8.737458	-0.007006	0.009294	-0.005032	-0.569092	0.030518	-0.591064
233.0	4.354834	-1.474632	8.695501	-0.008034	0.008103	-0.006673	-0.564697	0.030518	-0.588867
234.0	4.350658	-1.486791	8.716847	-0.007146	0.007861	-0.004195	-0.566895	0.032715	-0.591064
235.0	4.348664	-1.517486	8.700023	-0.012312	0.004865	-0.004585	-0.571289	0.032715	-0.591064
236.0	4.369416	-1.493158	8.689443	-0.005188	0.011251	-0.005461	-0.569092	0.030518	-0.584717
237.0	4.386571	-1.480304	8.700039	-0.007526	0.006	-0.007069	-0.571045	0.02832	-0.595459
238.0	4.362644	-1.487223	8.749083	-0.006498	0.007192	-0.005428	-0.573486	0.032715	-0.595459
239.0	4.347846	-1.488959	8.71788	-0.005611	0.006949	-0.002949	-0.569336	0.036865	-0.589111
240.0	4.381321	-1.493103	8.721811	-0.007003	0.009297	-0.005033	-0.569092	0.030518	-0.593262
241.0	4.367893	-1.464871	8.707626	-0.007144	0.007863	-0.004196	-0.573486	0.030518	-0.588867
242.0	4.363673	-1.476995	8.72899	-0.005469	0.008384	-0.003786	-0.57373	0.036865	-0.589111
243.0	4.382833	-1.482429	8.701561	-0.005327	0.009819	-0.004624	-0.569092	0.032715	-0.588867
244.0	4.378703	-1.494628	8.722865	-0.009986	0.004717	-0.005411	-0.569336	0.036865	-0.584717
245.0	4.36533	-1.466419	8.708651	-0.004299	0.011011	-0.002982	-0.569092	0.032471	-0.584717
246.0	4.361106	-1.478549	8.73001	-0.00831	0.005239	-0.005002	-0.573486	0.030518	-0.588867
247.0	4.376897	-1.495954	8.723543	-0.008674	0.008779	-0.005443	-0.56665	0.02832	-0.588867
248.0	4.363437	-1.467759	8.709374	-0.006999	0.0093	-0.005033	-0.573486	0.030518	-0.593262
249.0	4.375546	-1.496768	8.724082	-0.006493	0.007195	-0.005429	-0.571289	0.030518	-0.593262
250.0	4.365771	-1.456661	8.688793	-0.00635	0.008631	-0.006266	-0.573486	0.034912	-0.591064
251.0	4.327398	-1.46507	8.706455	-0.008672	0.00878	-0.005444	-0.571289	0.030518	-0.593262
252.0	4.357317	-1.481114	8.731467	-0.009697	0.007589	-0.007087	-0.577637	0.030518	-0.588867
253.0	4.360403	-1.469805	8.710548	-0.006633	0.005762	-0.004593	-0.580078	0.034668	-0.591064
254.0	4.358368	-1.500206	8.693777	-0.006996	0.009302	-0.005034	-0.569336	0.039063	-0.593262
255.0	4.376828	-1.457499	8.721444	-0.007644	0.009972	-0.003802	-0.571289	0.032715	-0.591064
256.0	4.374608	-1.487959	8.704755	-0.006995	0.009303	-0.005034	-0.573486	0.032471	-0.586914
257.0	4.359641	-1.489763	8.673623	-0.007643	0.009972	-0.003802	-0.571289	0.030518	-0.588867
258.0	4.359017	-1.490302	8.673844	-0.009836	0.006156	-0.006252	-0.573486	0.032715	-0.595459
259.0	4.369123	-1.501177	8.726543	-0.006488	0.007199	-0.00543	-0.569092	0.030518	-0.586914
260.0	4.337869	-1.485929	8.702055	-0.005178	0.011261	-0.005459	-0.573486	0.032471	-0.584717
261.0	4.354789	-1.473151	8.712791	-0.007641	0.009974	-0.003802	-0.575439	0.030273	-0.584717
262.0	4.37405	-1.478654	8.685338	-0.006487	0.0072	-0.00543	-0.566895	0.032715	-0.591064
263.0	4.353505	-1.47387	8.713311	-0.006344	0.008636	-0.006267	-0.573242	0.02832	-0.58667
264.0	4.35504	-1.492448	8.675473	-0.007134	0.007869	-0.004199	-0.575684	0.032715	-0.591064
265.0	4.352119	-1.474635	8.713874	-0.005967	0.010496	-0.003391	-0.571289	0.030518	-0.586914
266.0	4.337112	-1.476418	8.682762	-0.007639	0.009975	-0.003803	-0.573486	0.030518	-0.591064
267.0	4.366954	-1.492351	8.707846	-0.006484	0.007201	-0.005431	-0.571045	0.02832	-0.588867
268.0	4.38385	-1.47969	8.718588	-0.00865	0.014186	-0.003011	-0.573486	0.032471	-0.586914
269.0	4.351072	-1.494524	8.677106	-0.004161	0.007054	-0.006251	-0.571289	0.034668	-0.584717
270.0	4.348287	-1.476702	8.715437	-0.009453	0.008019	-0.00338	-0.575684	0.030518	-0.595459
271.0	4.381714	-1.48096	8.719447	-0.006988	0.009308	-0.005036	-0.571289	0.032715	-0.591064
272.0	4.349107	-1.495767	8.677877	-0.006338	0.00864	-0.006267	-0.571289	0.032715	-0.591064
273.0	4.380342	-1.481691	8.720012	-0.00866	0.008788	-0.005448	-0.569336	0.04126	-0.593262
274.0	4.327763	-1.491759	8.706089	-0.010101	0.008689	-0.002149	-0.571289	0.032715	-0.588867
275.0	4.364625	-1.484149	8.689142	-0.005027	0.012704	-0.006294	-0.571289	0.032715	-0.588867
276.0	4.378041	-1.483086	8.72093	-0.006623	0.005768	-0.004597	-0.569092	0.030518	-0.586914
277.0	4.359667	-1.496661	8.710757	-0.007634	0.009979	-0.003804	-0.57373	0.036865	-0.589111
278.0	4.358975	-1.497194	8.711012	-0.0088	0.007353	-0.004614	-0.575684	0.036865	-0.589111
279.0	4.344312	-1.499029	8.679716	-0.00815	0.006685	-0.005846	-0.575684	0.032471	-0.586914
280.0	4.365062	-1.474498	8.669312	-0.006984	0.009311	-0.005036	-0.569092	0.030518	-0.586914
281.0	4.360736	-1.486763	8.690648	-0.008655	0.008791	-0.00545	-0.573486	0.030518	-0.586914
282.0	4.33866	-1.511971	8.701593	-0.003868	0.009934	-0.007922	-0.575439	0.030273	-0.580322
283.0	4.360587	-1.457411	8.708364	-0.009075	0.00988	-0.000506	-0.569092	0.034668	-0.586914
284.0	4.355087	-1.499803	8.712508	-0.008664	0.003392	-0.007889	-0.571045	0.02832	-0.588867
285.0	4.375953	-1.475298	8.702057	-0.007631	0.009981	-0.003805	-0.571289	0.030518	-0.593262
286.0	4.339844	-1.502128	8.681415	-0.00894	0.005918	-0.00378	-0.57373	0.037109	-0.597656
287.0	4.371207	-1.488228	8.723482	-0.007268	0.006439	-0.003367	-0.569092	0.032715	-0.591064
288.0	4.354243	-1.471971	8.730314	-0.009445	0.008024	-0.003384	-0.566895	0.032715	-0.593262
289.0	4.355922	-1.490618	8.692401	-0.006474	0.007209	-0.005433	-0.57373	0.036865	-0.586914
290.0	4.369479	-1.489639	8.724107	-0.006473	0.007209	-0.005434	-0.575684	0.036865	-0.589111
291.0	4.342117	-1.462745	8.678386	-0.008938	0.005919	-0.003781	-0.571045	0.02832	-0.58667
292.0	4.354196	-1.491825	8.693059	-0.005163	0.011274	-0.005457	-0.569092	0.034668	-0.588867
293.0	4.370999	-1.479136	8.703895	-0.009805	0.011568	-0.003822	-0.569092	0.030518	-0.588867
294.0	4.362926	-1.503295	8.746298	-0.006327	0.008649	-0.006269	-0.569092	0.030518	-0.584717
295.0	4.33541	-1.476218	8.700686	-0.005449	0.0084	-0.003788	-0.569092	0.032715	-0.591064
296.0	4.36512	-1.492092	8.725869	-0.005955	0.010506	-0.003391	-0.575439	0.030518	-0.588867
297.0	4.331528	-1.458816	8.739482	-0.006976	0.009317	-0.005037	-0.569092	0.032715	-0.588867
298.0	4.363655	-1.492965	8.726453	-0.007914	0.007109	-0.002137	-0.571289	0.030518	-0.586914
299.0	4.366691	-1.481422	8.705669	-0.004879	0.008754	-0.009567	-0.564941	0.034912	-0.591064
300.0	4.351968	-1.482871	8.674465	-0.005448	0.008401	-0.003788	-0.571533	0.036865	-0.584717
301.0	4.344062	-1.507004	8.716768	-0.008789	0.007359	-0.004619	-0.571289	0.032715	-0.591064
302.0	4.347052	-1.49563	8.69598	-0.006973	0.009319	-0.005038	-0.573486	0.034912	-0.591064
303.0	4.364028	-1.482879	8.706756	-0.006973	0.009319	-0.005038	-0.569092	0.032471	-0.584717
304.0	4.329259	-1.479674	8.703162	-0.008788	0.00736	-0.004619	-0.566895	0.034912	-0.588867
305.0	4.382798	-1.488854	8.679561	-0.008643	0.008799	-0.005454	-0.57373	0.036865	-0.589111
306.0	4.345784	-1.467506	8.714067	-0.007485	0.006027	-0.007083	-0.569092	0.032715	-0.588867
307.0	4.361632	-1.484767	8.707634	-0.007767	0.008549	-0.002972	-0.571289	0.030518	-0.586914
308.0	4.361193	-1.485244	8.707773	-0.008649	0.0034	-0.007897	-0.566895	0.034912	-0.591064
309.0	4.347942	-1.457006	8.693558	-0.008496	0.010239	-0.006288	-0.571289	0.030518	-0.588867
310.0	4.359981	-1.486251	8.708208	-0.009436	0.008029	-0.003389	-0.575439	0.030273	-0.584717
311.0	4.362997	-1.474938	8.687412	-0.007114	0.007883	-0.004204	-0.569092	0.032471	-0.584717
312.0	4.341048	-1.500446	8.698149	-0.008784	0.007362	-0.004621	-0.571289	0.034912	-0.591064
313.0	4.389867	-1.473319	8.750899	-0.006317	0.008657	-0.00627	-0.569092	0.034668	-0.588867
314.0	4.357444	-1.488241	8.709138	-0.01096	0.008948	-0.004639	-0.566895	0.030518	-0.593262
315.0	4.356815	-1.48878	8.70936	-0.006461	0.007218	-0.005436	-0.573242	0.02832	-0.591064
316.0	4.34344	-1.460418	8.695236	-0.005442	0.008406	-0.003788	-0.571289	0.030518	-0.588867
317.0	4.373087	-1.476439	8.720442	-0.010668	0.011828	-0.006307	-0.571289	0.034668	-0.588867
318.0	4.354605	-1.490244	8.710216	-0.009433	0.008031	-0.00339	-0.568848	0.02832	-0.588867
319.0	4.371712	-1.477684	8.720921	-0.007256	0.006446	-0.003372	-0.571289	0.030518	-0.586914
320.0	4.349775	-1.503089	8.731643	-0.006314	0.00866	-0.00627	-0.564697	0.02832	-0.591064
321.0	4.370449	-1.47846	8.721422	-0.008634	0.008805	-0.005456	-0.569092	0.034668	-0.588867
322.0	4.372188	-1.496902	8.683527	-0.006313	0.00866	-0.00627	-0.569092	0.030518	-0.586914
323.0	4.351532	-1.492441	8.711375	-0.008924	0.005926	-0.00379	-0.564697	0.032715	-0.588867
324.0	4.354632	-1.48101	8.690575	-0.005439	0.008408	-0.003788	-0.571289	0.034668	-0.586914
325.0	4.35034	-1.493338	8.711817	-0.008778	0.007366	-0.004623	-0.573486	0.030518	-0.593262
326.0	4.353373	-1.481998	8.691038	-0.00776	0.008554	-0.002974	-0.573242	0.030518	-0.584717
327.0	4.366811	-1.481214	8.722778	-0.006601	0.005782	-0.004604	-0.573242	0.026123	-0.58667
328.0	4.352341	-1.482869	8.691406	-0.008125	0.006701	-0.005855	-0.568848	0.026123	-0.584717
329.0	4.365782	-1.482072	8.723147	-0.007107	0.007889	-0.004206	-0.564941	0.034912	-0.593262
330.0	4.347523	-1.495594	8.712836	-0.006454	0.007223	-0.005437	-0.571289	0.030518	-0.586914
331.0	4.337883	-1.455329	8.677698	-0.006454	0.007224	-0.005438	-0.573242	0.026123	-0.591064
332.0	4.36781	-1.471445	8.702759	-0.012113	0.006326	-0.005461	-0.569092	0.032715	-0.586914
333.0	4.366021	-1.501911	8.685765	-0.006307	0.008665	-0.00627	-0.571289	0.032715	-0.593262
334.0	4.366481	-1.472313	8.703279	-0.005942	0.010517	-0.003389	-0.575439	0.026123	-0.593262
335.0	4.361999	-1.484601	8.724609	-0.006959	0.009331	-0.005039	-0.573486	0.034668	-0.586914
336.0	4.360149	-1.514859	8.707678	-0.007322	0.007479	-0.007921	-0.566895	0.032715	-0.588867
337.0	4.364545	-1.47348	8.704052	-0.008919	0.005929	-0.003793	-0.569092	0.034912	-0.593262
338.0	4.346369	-1.487208	8.693653	-0.008772	0.00737	-0.004625	-0.575684	0.036865	-0.589111
339.0	4.363347	-1.474477	8.704484	-0.005288	0.009854	-0.00462	-0.568848	0.02832	-0.588867
340.0	4.358912	-1.486901	8.72576	-0.010946	0.008956	-0.004646	-0.571289	0.032715	-0.595459
341.0	4.3443	-1.488778	8.694418	-0.008771	0.007371	-0.004626	-0.569092	0.032471	-0.58252
342.0	4.3778	-1.493022	8.69855	-0.009423	0.008036	-0.003395	-0.571289	0.030518	-0.588867
343.0	4.350431	-1.466095	8.652878	-0.007101	0.007893	-0.004207	-0.571289	0.030518	-0.588867
344.0	4.358833	-1.507124	8.688472	-0.006954	0.009335	-0.005039	-0.568848	0.02832	-0.591064
345.0	4.341796	-1.490722	8.695336	-0.007463	0.006043	-0.00709	-0.571289	0.030518	-0.588867
346.0	4.358865	-1.477944	8.706142	-0.006954	0.009335	-0.005039	-0.566895	0.032715	-0.591064
347.0	4.372226	-1.477218	8.737915	-0.009783	0.006187	-0.006278	-0.571045	0.02832	-0.591064
348.0	4.360233	-1.496819	8.668364	-0.0063	0.008671	-0.006271	-0.571289	0.032471	-0.586914
349.0	4.373516	-1.495903	8.70021	-0.005431	0.008416	-0.003788	-0.573486	0.032471	-0.584717
350.0	4.35638	-1.479436	8.707132	-0.006299	0.008672	-0.006271	-0.57373	0.036865	-0.586914
351.0	4.372243	-1.496491	8.700748	-0.006445	0.00723	-0.005439	-0.569092	0.032715	-0.591064
352.0	4.355187	-1.480115	8.707614	-0.007098	0.007895	-0.004208	-0.573486	0.030518	-0.591064
353.0	4.357021	-1.498399	8.669706	-0.006151	0.010115	-0.007103	-0.564697	0.032715	-0.586914
354.0	4.357378	-1.46868	8.687313	-0.003615	0.01038	-0.004199	-0.566895	0.030518	-0.593262
355.0	4.369268	-1.497665	8.70204	-0.007456	0.011445	-0.00464	-0.573486	0.032471	-0.584717
356.0	4.334411	-1.494562	8.69836	-0.008764	0.007375	-0.004629	-0.566895	0.032715	-0.586914
357.0	4.36529	-1.480532	8.740822	-0.002093	0.00946	-0.002947	-0.569336	0.036865	-0.584717
358.0	4.350764	-1.481924	8.709517	-0.007456	0.006047	-0.007093	-0.571289	0.032471	-0.584717
359.0	4.372758	-1.42727	8.716592	-0.006441	0.007233	-0.005441	-0.564697	0.030518	-0.588867
360.0	4.369888	-1.487411	8.682335	-0.007961	0.008154	-0.006693	-0.569092	0.030518	-0.588867
361.0	4.346424	-1.46512	8.748418	-0.008467	0.010261	-0.006293	-0.571289	0.030518	-0.591064
362.0	4.369663	-1.458527	8.700099	-0.010428	0.006855	-0.005052	-0.569092	0.030518	-0.586914
363.0	4.351386	-1.472144	8.68973	-0.005279	0.009862	-0.00462	-0.573486	0.032471	-0.586914
364.0	4.363368	-1.501203	8.704391	-0.008465	0.010262	-0.006293	-0.569092	0.034668	-0.588867
365.0	4.366344	-1.489625	8.683738	-0.005425	0.00842	-0.003788	-0.575439	0.030273	-0.584717
366.0	4.366883	-1.46012	8.701228	-0.008105	0.006714	-0.005863	-0.566895	0.032715	-0.591064
367.0	4.348688	-1.473628	8.690828	-0.00629	0.008678	-0.006273	-0.571045	0.02832	-0.593262
368.0	4.360766	-1.502658	8.705444	-0.006944	0.009342	-0.005041	-0.569336	0.036865	-0.591064
369.0	4.364956	-1.461164	8.702019	-0.006437	0.007236	-0.005442	-0.569092	0.034668	-0.586914
370.0	4.342901	-1.486547	8.712653	-0.005129	0.011308	-0.005451	-0.571289	0.034912	-0.593262
371.0	4.355947	-1.48559	8.744624	-0.006141	0.010123	-0.007104	-0.566895	0.034912	-0.591064
372.0	4.365398	-1.479846	8.664759	-0.006583	0.005794	-0.004611	-0.573486	0.034668	-0.584717
373.0	4.344438	-1.475476	8.69264	-0.007301	0.012894	-0.005472	-0.566895	0.032715	-0.586914
374.0	4.361219	-1.462625	8.703647	-0.004768	0.007759	-0.00502	-0.571289	0.030518	-0.591064
375.0	4.339185	-1.488096	8.71424	-0.007595	0.010008	-0.003811	-0.56665	0.02832	-0.58667
376.0	4.345862	-1.464578	8.672664	-0.00694	0.009345	-0.005043	-0.571533	0.036865	-0.591064
377.0	4.337719	-1.488749	8.714858	-0.003964	0.00854	-0.007083	-0.569092	0.032715	-0.586914
378.0	4.376031	-1.450769	8.715481	-0.008753	0.007381	-0.004635	-0.571045	0.02832	-0.591064
379.0	4.354023	-1.476311	8.726038	-0.005273	0.009868	-0.00462	-0.566895	0.032715	-0.586914
380.0	4.355801	-1.494664	8.688166	-0.009766	0.011595	-0.003834	-0.564697	0.030518	-0.58667
381.0	4.352383	-1.477407	8.72667	-0.008752	0.007382	-0.004636	-0.575684	0.032471	-0.586914
382.0	4.317678	-1.474339	8.722845	-0.007085	0.007903	-0.004213	-0.571289	0.030518	-0.588867
383.0	4.35118	-1.478404	8.727101	-0.008751	0.007382	-0.004636	-0.571045	0.026123	-0.593262
384.0	4.370776	-1.483597	8.699789	-0.006936	0.009348	-0.005043	-0.566895	0.032715	-0.588867
385.0	4.370094	-1.484005	8.700061	-0.007084	0.007904	-0.004213	-0.571289	0.032471	-0.58252
386.0	4.352904	-1.467583	8.706974	-0.004614	0.009207	-0.005851	-0.569092	0.034912	-0.591064
387.0	4.347358	-1.509625	8.710943	-0.006131	0.010131	-0.007105	-0.573486	0.030518	-0.586914
388.0	4.384528	-1.501576	8.694338	-0.008748	0.007383	-0.004637	-0.569092	0.034668	-0.586914
389.0	4.350975	-1.468627	8.707762	-0.006575	0.005798	-0.004615	-0.571289	0.030518	-0.588867
390.0	4.366887	-1.485647	8.701392	-0.005268	0.009872	-0.00462	-0.569092	0.034668	-0.584717
391.0	4.332058	-1.482358	8.697647	-0.006278	0.008688	-0.006275	-0.568848	0.02832	-0.593262
392.0	4.365554	-1.486208	8.701964	-0.006426	0.007244	-0.005445	-0.569092	0.034668	-0.588867
393.0	4.361132	-1.498607	8.72316	-0.008449	0.010274	-0.006298	-0.571289	0.032471	-0.584717
394.0	4.351352	-1.458375	8.688227	-0.008597	0.00883	-0.005468	-0.575439	0.030518	-0.586914
395.0	4.381085	-1.474349	8.713464	-0.006424	0.007245	-0.005445	-0.566895	0.030518	-0.588867
396.0	4.359205	-1.499953	8.723892	-0.008745	0.007386	-0.004639	-0.575684	0.032471	-0.584717
397.0	4.345908	-1.471726	8.70977	-0.005712	0.005539	-0.00213	-0.571289	0.034668	-0.58252
398.0	4.383311	-1.463743	8.693074	-0.009753	0.006202	-0.006295	-0.571045	0.02832	-0.58667
399.0	4.341194	-1.484803	8.730987	-0.008744	0.007386	-0.004639	-0.571289	0.032471	-0.584717
400.0	4.359928	-1.519823	8.686294	-0.008087	0.006725	-0.00587	-0.571045	0.02832	-0.588867
401.0	4.364086	-1.478373	8.682952	-0.006929	0.009354	-0.005044	-0.573242	0.026123	-0.588867
402.0	4.359743	-1.490773	8.704097	-0.00657	0.005802	-0.004616	-0.569092	0.030518	-0.586914
403.0	4.376739	-1.478061	8.715019	-0.008593	0.008833	-0.005469	-0.56665	0.02832	-0.588867
404.0	4.341954	-1.474934	8.711199	-0.005412	0.008431	-0.00379	-0.571045	0.02832	-0.58667
405.0	4.361822	-1.479962	8.683819	-0.007727	0.003174	-0.005444	-0.571289	0.030518	-0.586914
406.0	4.358564	-1.462621	8.72225	-0.007583	0.010017	-0.003813	-0.571289	0.032471	-0.586914
407.0	4.360662	-1.480894	8.684243	-0.008084	0.006727	-0.005871	-0.564697	0.02832	-0.591064
408.0	4.360082	-1.481252	8.684473	-0.00627	0.008695	-0.006275	-0.571289	0.032715	-0.588867
409.0	4.373288	-1.480495	8.716338	-0.008083	0.006728	-0.005872	-0.568848	0.026123	-0.588867
410.0	4.355141	-1.494142	8.705823	-0.007731	0.008573	-0.002984	-0.575684	0.032715	-0.588867
411.0	4.354446	-1.494669	8.70608	-0.008589	0.008836	-0.00547	-0.569092	0.032471	-0.584717
412.0	4.375011	-1.46996	8.696206	-0.008439	0.010282	-0.006299	-0.569092	0.034912	-0.591064
413.0	4.335541	-1.508721	8.695866	-0.006566	0.005805	-0.004618	-0.569092	0.030518	-0.588867
414.0	4.33973	-1.467292	8.692537	-0.008587	0.008837	-0.005471	-0.571289	0.032471	-0.586914
415.0	4.355671	-1.484378	8.686152	-0.006416	0.007251	-0.005447	-0.566895	0.030518	-0.58252
416.0	4.351258	-1.496778	8.707312	-0.006923	0.009359	-0.005045	-0.569092	0.030518	-0.591064
417.0	4.371965	-1.47207	8.697381	-0.008885	0.005945	-0.003814	-0.569092	0.032715	-0.591064
418.0	4.350223	-1.497944	8.707628	-0.010548	0.005424	-0.00424	-0.564697	0.032715	-0.586914
419.0	4.368124	-1.455469	8.735976	-0.005258	0.009882	-0.004618	-0.569092	0.030518	-0.586914
420.0	4.353824	-1.456769	8.704565	-0.005249	0.004485	-0.007081	-0.573486	0.034668	-0.584717
421.0	4.347745	-1.528939	8.690799	-0.012061	0.006349	-0.005496	-0.573486	0.032471	-0.58252
422.0	4.349119	-1.46993	8.725735	-0.00707	0.007915	-0.004216	-0.571289	0.030518	-0.591064
423.0	4.368926	-1.475033	8.698405	-0.009739	0.006211	-0.006301	-0.569092	0.030518	-0.593262
424.0	4.365619	-1.457914	8.736821	-0.010396	0.006872	-0.00507	-0.571045	0.02832	-0.595459
425.0	4.350399	-1.489394	8.687936	-0.007219	0.006469	-0.003388	-0.568848	0.026123	-0.58667
426.0	4.363684	-1.488916	8.719716	-0.010545	0.005426	-0.004242	-0.571289	0.032471	-0.586914
427.0	4.380605	-1.47626	8.730706	-0.005255	0.009885	-0.004617	-0.571289	0.032715	-0.588867
428.0	4.348854	-1.490821	8.688464	-0.008572	0.003445	-0.007936	-0.564941	0.034668	-0.584717
429.0	4.362147	-1.490315	8.720246	-0.010901	0.008981	-0.004668	-0.566895	0.030518	-0.588867
430.0	4.364415	-1.5086	8.682153	-0.00656	0.00581	-0.004619	-0.571289	0.032471	-0.584717
431.0	4.361032	-1.491292	8.720637	-0.006211	0.007652	-0.001729	-0.566895	0.030518	-0.584717
432.0	4.360397	-1.491742	8.720878	-0.007066	0.007918	-0.004216	-0.569092	0.030518	-0.586914
433.0	4.359796	-1.492237	8.721094	-0.008729	0.007396	-0.004644	-0.569092	0.030518	-0.586914
434.0	4.366638	-1.468337	8.679665	-0.002782	0.011196	-0.006247	-0.571289	0.032471	-0.584717
435.0	4.345595	-1.464062	8.707453	-0.008878	0.005949	-0.003817	-0.569092	0.034668	-0.588867
436.0	4.361404	-1.481444	8.70109	-0.011912	0.013199	-0.003863	-0.569092	0.034668	-0.588867
437.0	4.373438	-1.510793	8.715611	-0.006556	0.005812	-0.00462	-0.564941	0.034668	-0.584717
438.0	4.36388	-1.470293	8.68072	-0.006255	0.008707	-0.006275	-0.573486	0.032715	-0.591064
439.0	4.35569	-1.494769	8.722712	-0.006405	0.00726	-0.005448	-0.573486	0.032471	-0.584717
440.0	4.362749	-1.470968	8.681175	-0.008067	0.006739	-0.005876	-0.569092	0.032715	-0.588867
441.0	4.354607	-1.495577	8.723114	-0.007916	0.008187	-0.006704	-0.571289	0.032471	-0.586914
442.0	4.354114	-1.496223	8.723249	-0.011346	0.004641	-0.002188	-0.571289	0.034912	-0.591064
443.0	4.347418	-1.473655	8.650042	-0.005249	0.009891	-0.004616	-0.569092	0.030518	-0.597656
444.0	4.37414	-1.471954	8.713664	-0.008724	0.0074	-0.004646	-0.575439	0.02832	-0.588867
445.0	4.376584	-1.490224	8.67549	-0.009877	0.004771	-0.005479	-0.573486	0.032471	-0.584717
446.0	4.338176	-1.499429	8.692321	-0.007719	0.008582	-0.002986	-0.575439	0.02832	-0.593262
447.0	4.368756	-1.485742	8.735033	-0.007211	0.006474	-0.00339	-0.571289	0.032715	-0.593262
448.0	4.375848	-1.461991	8.693495	-0.008063	0.006742	-0.005877	-0.571289	0.032715	-0.593262
449.0	4.370566	-1.504353	8.697117	-0.008571	0.00885	-0.005474	-0.564941	0.034912	-0.588867
450.0	4.353318	-1.488378	8.703956	-0.011041	0.00754	-0.003845	-0.573242	0.030518	-0.584717
451.0	4.352509	-1.488853	8.704279	-0.004944	0.012791	-0.006269	-0.566895	0.032715	-0.588867
452.0	4.382165	-1.504972	8.72956	-0.012345	0.003462	-0.003853	-0.571289	0.032715	-0.588867
453.0	4.354414	-1.507552	8.6663	-0.003227	0.00686	-0.003762	-0.56665	0.026123	-0.58667
454.0	4.354645	-1.478129	8.684027	-0.010078	0.009779	-0.006731	-0.573486	0.034668	-0.584717
455.0	4.370632	-1.49526	8.677624	-0.00806	0.006744	-0.005879	-0.566895	0.034668	-0.58252
456.0	4.352554	-1.508902	8.667	-0.007715	0.008584	-0.002987	-0.566895	0.030518	-0.591064
457.0	4.348916	-1.491782	8.705574	-0.008566	0.008853	-0.005474	-0.569092	0.034668	-0.588867
458.0	4.383313	-1.465901	8.727473	-0.007399	0.006087	-0.00711	-0.575684	0.032715	-0.588867
459.0	4.372157	-1.485028	8.657606	-0.008868	0.005955	-0.003822	-0.564697	0.032715	-0.588867
460.0	4.347347	-1.493129	8.706126	-0.005394	0.008448	-0.003788	-0.571289	0.030518	-0.588867
461.0	4.367885	-1.468245	8.696445	-0.007563	0.010035	-0.003814	-0.569092	0.030518	-0.584717
462.0	4.367246	-1.468792	8.696673	-0.008866	0.005956	-0.003822	-0.573242	0.02832	-0.58667
463.0	4.345479	-1.494603	8.706806	-0.008056	0.006747	-0.00588	-0.571289	0.034668	-0.586914
464.0	4.382767	-1.486334	8.69044	-0.006902	0.009377	-0.005045	-0.575439	0.02832	-0.586914
465.0	4.344118	-1.495399	8.707349	-0.006902	0.009377	-0.005045	-0.571289	0.034912	-0.591064
466.0	4.348034	-1.453885	8.704312	-0.006901	0.009378	-0.005045	-0.569092	0.030518	-0.584717
467.0	4.36017	-1.483217	8.718754	-0.011033	0.007544	-0.00385	-0.573486	0.030518	-0.588867
468.0	4.358817	-1.513551	8.701417	-0.006544	0.005821	-0.004624	-0.571289	0.032471	-0.584717
469.0	4.397107	-1.475689	8.702458	-0.012033	0.006365	-0.005512	-0.569092	0.030273	-0.580322
470.0	4.358591	-1.484882	8.71926	-0.00373	0.008973	-0.003356	-0.566895	0.032715	-0.588867
471.0	4.361735	-1.473036	8.698721	-0.007051	0.00793	-0.004219	-0.566895	0.030518	-0.58667
472.0	4.360285	-1.503213	8.681455	-0.00705	0.00793	-0.004219	-0.571289	0.032471	-0.584717
473.0	4.373314	-1.502706	8.713379	-0.00871	0.007409	-0.004651	-0.569092	0.032715	-0.588867
474.0	4.36372	-1.462413	8.678562	-0.009369	0.008067	-0.00342	-0.571289	0.034668	-0.58252
475.0	4.359251	-1.4749	8.69965	-0.004766	0.008858	-0.009563	-0.575684	0.032715	-0.591064
476.0	4.354622	-1.487415	8.720812	-0.008876	0.011355	-0.001352	-0.571289	0.034668	-0.586914
477.0	4.357629	-1.475764	8.700316	-0.005388	0.008453	-0.003788	-0.566895	0.034668	-0.584717
478.0	4.353149	-1.488275	8.7214	-0.007896	0.008203	-0.006708	-0.571289	0.030518	-0.593262
479.0	4.356372	-1.476407	8.700837	-0.004727	0.007796	-0.005019	-0.567139	0.036865	-0.584717
480.0	4.351864	-1.488859	8.721942	-0.006895	0.009383	-0.005045	-0.571289	0.032715	-0.588867
481.0	4.354957	-1.477074	8.701432	-0.006894	0.009383	-0.005046	-0.573486	0.034668	-0.586914
482.0	4.370946	-1.494124	8.695057	-0.008706	0.007412	-0.004653	-0.569092	0.032715	-0.586914
483.0	4.36643	-1.506681	8.716144	-0.006081	0.010177	-0.007102	-0.569092	0.034668	-0.586914
484.0	4.331612	-1.503515	8.71218	-0.005386	0.008455	-0.003788	-0.566895	0.030518	-0.591064
485.0	4.38628	-1.482141	8.706824	-0.010872	0.008999	-0.004681	-0.569092	0.032715	-0.591064
486.0	4.36822	-1.495804	8.696138	-0.007231	0.007549	-0.00794	-0.571289	0.032715	-0.591064
487.0	4.38507	-1.483007	8.707286	-0.007044	0.007934	-0.004221	-0.568848	0.02832	-0.593262
488.0	4.345735	-1.521919	8.706499	-0.007044	0.007935	-0.004221	-0.573486	0.032715	-0.588867
489.0	4.36639	-1.496998	8.696851	-0.007889	0.008207	-0.00671	-0.571045	0.02832	-0.58667
490.0	4.38243	-1.513981	8.690468	-0.007043	0.007935	-0.004221	-0.569092	0.034668	-0.588867
491.0	4.365878	-1.468152	8.714892	-0.008549	0.008865	-0.005479	-0.569092	0.032471	-0.580322
492.0	4.347825	-1.481818	8.704192	-0.009547	0.007687	-0.007144	-0.566895	0.034668	-0.578125
493.0	4.364684	-1.469185	8.715316	-0.009546	0.007688	-0.007144	-0.569092	0.034668	-0.588867
494.0	4.342657	-1.495027	8.725475	-0.006551	0.011224	-0.002151	-0.573486	0.034912	-0.593262
495.0	4.345758	-1.483234	8.704982	-0.00638	0.00728	-0.005452	-0.571289	0.032471	-0.584717
496.0	4.362554	-1.470493	8.716162	-0.008546	0.008867	-0.00548	-0.568848	0.026123	-0.584717
497.0	4.374651	-1.499694	8.730618	-0.006887	0.009389	-0.005046	-0.571045	0.02832	-0.588867
498.0	4.364993	-1.459262	8.695913	-0.009359	0.008073	-0.003425	-0.571289	0.034668	-0.588867
499.0	4.339195	-1.497398	8.726791	-0.008545	0.008869	-0.005481	-0.573486	0.032715	-0.593262
500.0	4.380361	-1.476933	8.689758	-0.008697	0.007417	-0.004656	-0.575439	0.02832	-0.586914
501.0	4.362876	-1.460847	8.69671	-0.00724	0.012952	-0.005465	-0.571289	0.032715	-0.588867
502.0	4.34089	-1.486646	8.706829	-0.008188	0.005309	-0.005063	-0.569336	0.036865	-0.589111
503.0	4.34037	-1.487226	8.706989	-0.009357	0.008075	-0.003426	-0.571045	0.026123	-0.591064
504.0	4.39507	-1.465931	8.701711	-0.009356	0.008075	-0.003426	-0.571289	0.034668	-0.58252
505.0	4.34288	-1.476304	8.68666	-0.010046	0.009802	-0.00674	-0.571289	0.032471	-0.584717
506.0	4.355089	-1.505659	8.701022	-0.008847	0.005967	-0.003833	-0.571289	0.030518	-0.588867
507.0	4.375176	-1.510595	8.673743	-0.008847	0.005967	-0.003833	-0.57373	0.036865	-0.586914
508.0	4.354109	-1.50684	8.701308	-0.008693	0.00742	-0.004657	-0.573486	0.034668	-0.586914
509.0	4.370697	-1.494161	8.712604	-0.007236	0.012956	-0.005464	-0.573486	0.034668	-0.586914
510.0	4.369885	-1.494634	8.71293	-0.008692	0.007421	-0.004658	-0.571289	0.030273	-0.58252
511.0	4.355847	-1.496123	8.681337	-0.009688	0.006244	-0.006324	-0.569092	0.032715	-0.588867
512.0	4.35206	-1.479064	8.719957	-0.005222	0.009917	-0.004611	-0.573486	0.030518	-0.586914
513.0	4.371917	-1.483702	8.692857	-0.007875	0.008219	-0.006713	-0.569092	0.030518	-0.588867
514.0	4.350551	-1.479744	8.720594	-0.00573	0.012027	-0.004204	-0.571289	0.032471	-0.586914
515.0	4.370281	-1.484463	8.69355	-0.008536	0.008875	-0.005483	-0.568848	0.02832	-0.58252
516.0	4.365726	-1.497079	8.714595	-0.006216	0.008741	-0.006278	-0.571289	0.032471	-0.58252
517.0	4.352157	-1.468707	8.700756	-0.006698	0.009777	-0.001326	-0.564941	0.036865	-0.586914
518.0	4.343674	-1.493636	8.742576	-0.007872	0.008221	-0.006714	-0.568848	0.02832	-0.588867
519.0	4.350052	-1.499157	8.683719	-0.00606	0.010196	-0.007101	-0.566895	0.032715	-0.586914
520.0	4.362752	-1.498596	8.715824	-0.007538	0.010054	-0.003817	-0.571289	0.032471	-0.586914
521.0	4.348534	-1.499967	8.68434	-0.007029	0.007945	-0.004224	-0.571289	0.032715	-0.588867
522.0	4.361431	-1.499528	8.716324	-0.009527	0.007701	-0.007151	-0.569092	0.034668	-0.586914
523.0	4.364637	-1.487671	8.695837	-0.005217	0.009921	-0.004611	-0.569092	0.032715	-0.588867
524.0	4.376841	-1.51675	8.710234	-0.00652	0.005837	-0.004632	-0.569092	0.030518	-0.588867
525.0	4.346518	-1.471707	8.703067	-0.003914	0.014006	-0.00459	-0.571045	0.02832	-0.58667
526.0	4.362261	-1.48841	8.696902	-0.006056	0.010199	-0.007102	-0.564697	0.032715	-0.593262
527.0	4.327242	-1.485284	8.69293	-0.00557	0.013486	-0.005027	-0.569092	0.032715	-0.595459
528.0	4.377663	-1.475651	8.70884	-0.004243	0.012176	-0.007489	-0.569092	0.032471	-0.584717
529.0	4.35566	-1.501218	8.718919	-0.007202	0.00757	-0.007947	-0.569092	0.030518	-0.588867
530.0	4.317503	-1.510506	8.735287	-0.009807	-0.0006	-0.007991	-0.573486	0.034912	-0.593262
531.0	4.346029	-1.490621	8.666285	-0.007333	0.000722	-0.009607	-0.569336	0.036865	-0.584717
532.0	4.352159	-1.515068	8.739201	-0.019369	-0.008369	-0.005655	-0.571289	0.034668	-0.584717
533.0	4.412851	-1.452467	8.730131	-0.021884	-0.007534	-0.013128	-0.569092	0.034668	-0.586914
534.0	4.383484	-1.56329	8.745298	-0.026011	-0.009375	-0.01195	-0.571289	0.030518	-0.588867
535.0	4.346509	-1.573887	8.760851	-0.025192	-0.008573	-0.014004	-0.571289	0.034668	-0.586914
536.0	4.493049	-1.475185	8.789436	-0.023273	0.001332	-0.017269	-0.569092	0.030518	-0.591064
537.0	4.455981	-1.591474	8.714392	-0.016722	0.015284	-0.015091	-0.571289	0.032715	-0.591064
538.0	4.378457	-1.610145	8.747732	-0.01847	0.027711	-0.019643	-0.569092	0.034668	-0.58252
539.0	4.401858	-1.543793	8.735984	-0.024959	0.032476	-0.019731	-0.573486	0.034668	-0.586914
540.0	4.373327	-1.487255	8.709045	-0.016196	0.038373	-0.015463	-0.571533	0.036865	-0.589111
541.0	4.34378	-1.584819	8.705563	-0.014244	0.042893	-0.021212	-0.571045	0.026123	-0.584717
542.0	4.348762	-1.530472	8.683536	-0.005625	0.043027	-0.02315	-0.566895	0.034912	-0.588867
543.0	4.389737	-1.515557	8.759821	-0.016519	0.037641	-0.022915	-0.569336	0.036865	-0.589111
544.0	4.360971	-1.458893	8.733008	-0.025634	0.039626	-0.020576	-0.569092	0.032471	-0.584717
545.0	4.347753	-1.478793	8.664076	-0.033248	0.040677	-0.016976	-0.567139	0.039063	-0.589111
546.0	4.327913	-1.463788	8.671979	-0.018138	0.036052	-0.018813	-0.569092	0.032715	-0.586914
547.0	4.342019	-1.480457	8.666667	-0.006847	0.032491	-0.021119	-0.573486	0.034668	-0.589111
548.0	4.319308	-1.446684	8.712962	-0.010806	0.031014	-0.016229	-0.571289	0.030518	-0.591064
549.0	4.312047	-1.51874	8.699258	-0.017415	0.028928	-0.017996	-0.566895	0.032715	-0.586914
550.0	4.3666	-1.408162	8.748474	-0.010601	0.025996	-0.014998	-0.569092	0.032715	-0.586914
551.0	4.3259	-1.477442	8.729825	-0.024795	0.018465	-0.011121	-0.562744	0.034912	-0.588867
552.0	4.341214	-1.495413	8.723702	-0.022316	0.019796	-0.01273	-0.564697	0.032715	-0.588867
553.0	4.291949	-1.523543	8.670076	-0.012362	0.017539	-0.012567	-0.564941	0.034912	-0.588867
554.0	4.311401	-1.527711	8.643426	-0.004579	0.01796	-0.016979	-0.568848	0.026123	-0.588867
555.0	4.319566	-1.538963	8.696598	-0.00489	0.015045	-0.015339	-0.564697	0.030518	-0.58667
556.0	4.275231	-1.494044	8.658024	0.00302	0.021228	-0.013534	-0.569092	0.032715	-0.586914
557.0	4.325465	-1.453452	8.692476	0.00652	0.01834	-0.015961	-0.564697	0.030518	-0.58667
558.0	4.277017	-1.449937	8.656758	0.003413	0.012268	-0.015617	-0.5625	0.02832	-0.58667
559.0	4.335696	-1.38454	8.649597	0.006876	0.014774	-0.01555	-0.569336	0.036865	-0.58252
560.0	4.331041	-1.366595	8.688702	-0.002401	0.014194	-0.007862	-0.569092	0.032715	-0.588867
561.0	4.309402	-1.333278	8.734291	-0.010697	0.015879	-0.003045	-0.560547	0.034912	-0.588867
562.0	4.310959	-1.410683	8.660763	-0.01333	0.01309	-0.000619	-0.5625	0.032715	-0.584717
563.0	4.344166	-1.3854	8.683595	-0.012188	0.015724	0.000235	-0.566895	0.034668	-0.584717
564.0	4.256882	-1.452822	8.627937	-0.02143	0.010841	0.000883	-0.56665	0.02832	-0.591064
565.0	4.348239	-1.482141	8.571787	-0.012853	0.015283	0.006009	-0.566895	0.030518	-0.593262
566.0	4.337858	-1.411974	8.555673	0.008271	0.025654	0.011378	-0.56665	0.02832	-0.588867
567.0	4.262336	-1.351248	8.492364	0.022158	0.02919	0.013706	-0.564941	0.034912	-0.595459
568.0	4.344544	-1.496482	8.53755	0.055756	0.033246	0.015156	-0.566895	0.032715	-0.591064
569.0	4.385764	-1.416459	8.65068	0.097005	0.036279	0.013024	-0.564697	0.032715	-0.588867
570.0	4.344694	-1.512076	8.728389	0.11692	0.039377	0.006775	-0.5625	0.032715	-0.591064
571.0	4.355653	-1.507403	8.875562	0.121421	0.0431	0.008503	-0.564453	0.02417	-0.591064
572.0	4.351906	-1.372926	8.837928	0.098786	0.040152	-0.000201	-0.566895	0.030518	-0.591064
573.0	4.276083	-1.247045	8.810872	0.060798	0.042499	0.00982	-0.56665	0.02832	-0.58667
574.0	4.314863	-1.317119	8.835347	0.03661	0.037203	0.013492	-0.564697	0.030518	-0.591064
575.0	4.302147	-1.334427	8.766873	0.005436	0.032287	0.019507	-0.564453	0.02832	-0.584717
576.0	4.298288	-1.395197	8.732996	-0.014817	0.032793	0.025313	-0.566895	0.032715	-0.588867
577.0	4.328597	-1.430542	8.721446	-0.014333	0.036092	0.027385	-0.564453	0.026123	-0.588867
578.0	4.333208	-1.474432	8.758004	-0.02466	0.047331	0.029238	-0.56665	0.026367	-0.595459
579.0	4.302132	-1.479529	8.696021	-0.017385	0.054196	0.032269	-0.560303	0.02832	-0.593262
580.0	4.276294	-1.449069	8.742763	-0.030639	0.055413	0.031169	-0.571289	0.032715	-0.591064
581.0	4.283338	-1.511499	8.741356	-0.030624	0.055425	0.031165	-0.564697	0.032715	-0.591064
582.0	4.244403	-1.482977	8.755948	-0.039402	0.053847	0.033871	-0.56665	0.026367	-0.593262
583.0	4.25581	-1.534412	8.733453	-0.048494	0.050436	0.033674	-0.564697	0.02832	-0.588867
584.0	4.237822	-1.636251	8.761444	-0.051433	0.04691	0.028647	-0.5625	0.030518	-0.595459
585.0	4.3019	-1.588956	8.807917	-0.044111	0.049444	0.02467	-0.56665	0.026123	-0.591064
586.0	4.268286	-1.51896	8.819051	-0.045564	0.044981	0.020914	-0.567139	0.034912	-0.595459
587.0	4.246673	-1.566456	8.791159	-0.042224	0.040624	0.019329	-0.564697	0.030518	-0.595459
588.0	4.273851	-1.431967	8.794753	-0.041043	0.03786	0.017698	-0.562744	0.034912	-0.595459
589.0	4.185615	-1.413241	8.792132	-0.045494	0.034186	0.015938	-0.566895	0.032715	-0.595459
590.0	4.200506	-1.375704	8.821679	-0.055101	0.019898	0.020243	-0.564941	0.037109	-0.593262
591.0	4.215781	-1.398358	8.815051	-0.065186	0.00882	0.020404	-0.57373	0.04126	-0.591309
592.0	4.231419	-1.451424	8.790121	-0.072959	0.003021	0.022276	-0.571289	0.034912	-0.597656
593.0	4.222049	-1.542624	8.794554	-0.072767	-0.007416	0.021014	-0.569336	0.037109	-0.599854
594.0	4.248047	-1.541269	8.745367	-0.065129	-0.01497	0.019517	-0.569336	0.039063	-0.591064
595.0	4.21053	-1.55641	8.759556	-0.058813	-0.00821	0.016374	-0.569336	0.04126	-0.593262
596.0	4.236804	-1.553955	8.710407	-0.060282	-0.019168	0.01465	-0.578125	0.04126	-0.591309
597.0	4.216749	-1.585138	8.717869	-0.057781	-0.017833	0.013057	-0.576172	0.045654	-0.591309
598.0	4.231386	-1.589762	8.748102	-0.050156	-0.025395	0.01155	-0.574219	0.049805	-0.591309
599.0	4.241368	-1.599156	8.687246	-0.048157	-0.021946	0.010368	-0.572021	0.054199	-0.586914
600.0	4.225787	-1.616052	8.674309	-0.032105	-0.018963	0.008269	-0.572266	0.056152	-0.586914
601.0	4.249104	-1.564026	8.681866	-0.027964	-0.017119	0.007132	-0.563232	0.052002	-0.591309
602.0	4.228916	-1.592071	8.689917	-0.02449	-0.014622	0.007222	-0.559082	0.054199	-0.586914
603.0	4.244017	-1.535078	8.756753	-0.023188	-0.018131	0.013845	-0.554688	0.052246	-0.595459
604.0	4.223608	-1.526249	8.671125	-0.023835	-0.016373	0.010533	-0.560791	0.043457	-0.591064
605.0	4.271033	-1.590593	8.670975	-0.021684	-0.017972	0.010573	-0.556396	0.043457	-0.591064
606.0	4.24231	-1.576723	8.64464	-0.016722	-0.009921	0.009899	-0.560791	0.043457	-0.593262
607.0	4.214301	-1.569855	8.730049	-0.012913	-0.016407	0.007886	-0.562988	0.045654	-0.593262
608.0	4.216328	-1.541793	8.747027	-0.012903	-0.021806	0.005379	-0.562988	0.04126	-0.597656
609.0	4.253031	-1.517744	8.768463	-0.024307	-0.03155	0.007962	-0.562988	0.045654	-0.591309
610.0	4.261778	-1.419831	8.7999	-0.035861	-0.041648	0.006821	-0.560791	0.045654	-0.591309
611.0	4.188625	-1.500724	8.792607	-0.048074	-0.057588	0.008936	-0.556396	0.043457	-0.597656
612.0	4.211009	-1.522167	8.782461	-0.054825	-0.074094	0.01199	-0.562988	0.045654	-0.589111
613.0	4.239671	-1.5024	8.768875	-0.064521	-0.094084	0.009994	-0.562988	0.043457	-0.591064
614.0	4.209732	-1.547074	8.761287	-0.067273	-0.110191	0.012708	-0.562988	0.045654	-0.597656
615.0	4.166632	-1.487687	8.813654	-0.079395	-0.136857	0.009773	-0.565186	0.04126	-0.589111
616.0	4.169745	-1.60834	8.792928	-0.079763	-0.163841	0.006646	-0.565186	0.04126	-0.586914
617.0	4.142712	-1.666283	8.802504	-0.074636	-0.196759	0.001901	-0.565186	0.045654	-0.589111
618.0	4.036489	-1.611689	8.862931	-0.063976	-0.242087	-0.00247	-0.56958	0.047607	-0.584717
619.0	3.328224	-1.470848	9.233692	-0.066395	-0.339208	-0.016281	-0.578369	0.04541	-0.584717
620.0	3.858225	-1.600525	8.972631	-0.052385	-0.524394	-0.037036	-0.575928	0.04126	-0.586914
621.0	3.829035	-1.494224	9.002329	-0.1003	-0.642662	-0.047437	-0.578369	0.049561	-0.573975
622.0	3.7341	-1.517068	9.138568	-0.098127	-0.781343	-0.053973	-0.580566	0.049561	-0.56958
623.0	3.858497	-1.540559	9.160011	-0.117219	-0.938796	-0.068662	-0.580322	0.042969	-0.562988
624.0	3.963693	-1.406918	9.150401	-0.143159	-1.083133	-0.086841	-0.595703	0.044922	-0.556641
625.0	3.972646	-1.565674	9.053697	-0.167886	-1.234647	-0.106324	-0.598145	0.05127	-0.550049
626.0	4.125661	-1.625745	8.94344	-0.181913	-1.370932	-0.130623	-0.604248	0.044678	-0.543701
627.0	4.338987	-1.872199	8.857749	-0.183389	-1.517891	-0.172385	-0.613037	0.044678	-0.534912
628.0	4.271981	-1.93379	8.701337	-0.170089	-1.651523	-0.223994	-0.619629	0.046631	-0.528564
629.0	4.658097	-2.440644	8.497139	-0.018296	-1.776522	-0.344373	-0.630371	0.046387	-0.517578
630.0	4.529791	-2.20098	8.701098	0.19233	-1.887242	-0.475914	-0.638916	0.039795	-0.509033
631.0	4.240955	-2.043761	8.578383	0.365335	-2.182379	-0.604242	-0.647461	0.0354	-0.491699
632.0	4.439447	-2.003289	8.556144	0.461402	-2.546338	-0.658843	-0.658203	0.032959	-0.480713
633.0	3.887775	-1.471534	8.80065	0.515023	-2.82381	-0.581665	-0.671143	0.030518	-0.465576
634.0	4.821881	-2.20005	8.452411	0.447782	-3.386765	-0.565883	-0.687988	0.019531	-0.443848
635.0	5.825694	-2.197373	8.802097	0.483811	-3.641542	-0.910644	-0.698486	0.012695	-0.422119
636.0	3.744077	-2.15162	8.899094	0.805393	-3.744292	-1.11016	-0.707031	0.01001	-0.398438
637.0	5.743796	-2.207902	8.169987	1.224337	-4.406555	-1.270108	-0.715088	-0.005371	-0.36792
638.0	5.481852	-2.421238	8.897434	1.05462	-4.944168	-1.227196	-0.745361	-0.012451	-0.333252
639.0	8.794865	-3.944221	11.052862	1.33102	-5.70181	-1.765895	-0.750977	-0.032227	-0.298584
640.0	7.932236	-5.229963	11.934883	1.421367	-6.270359	-2.29944	-0.759033	-0.047852	-0.257324
641.0	9.829973	-4.674913	11.878832	1.597149	-6.955664	-2.814343	-0.766846	-0.070313	-0.202881
642.0	12.810213	-5.885255	13.214579	0.91198	-7.577736	-3.180892	-0.774902	-0.08374	-0.155273
643.0	13.806027	-2.07153	13.557632	1.263529	-8.204738	-3.3636	-0.771484	-0.110352	-0.09668
644.0	15.351825	-2.145531	17.056724	0.430461	-8.126527	-2.915619	-0.762451	-0.117432	-0.051025
645.0	18.59093	-5.473042	19.139741	0.126022	-8.309624	-2.414081	-0.746826	-0.124512	-0.005371
646.0	14.287912	-7.290065	17.401782	0.208615	-8.367843	-2.591892	-0.72876	-0.135986	0.048828
647.0	11.062814	-10.712003	14.445935	-0.122051	-7.287537	-2.956064	-0.702637	-0.135986	0.066162
648.0	6.24679	-20.659334	12.165899	2.345974	-5.014794	-2.610144	-0.683105	-0.13208	0.090088
649.0	26.807168	-12.725449	33.118718	5.100279	-4.222647	-1.050927	-0.656006	-0.101807	0.092041
650.0	19.486596	-7.738391	33.768828	1.983405	-0.494919	0.899226	-0.637939	-0.066895	0.063721
651.0	8.969273	-6.941779	25.96402	1.616646	1.162172	1.970947	-0.598145	-0.025391	0.024658
652.0	1.159054	-5.422516	16.731008	1.134356	2.354341	2.646071	-0.558838	0.022461	-0.008057
653.0	-2.955271	-2.182175	12.009064	1.297092	2.771033	2.72921	-0.514893	0.066162	-0.044922
654.0	-4.276702	-0.726945	9.600055	1.295469	2.910242	2.594162	-0.457764	0.109863	-0.066895
655.0	-3.361771	1.081548	9.32408	1.238965	2.947722	2.422569	-0.380859	0.144531	-0.073242
656.0	-1.621637	2.089909	9.790076	1.007911	3.15608	2.179643	-0.305664	0.175049	-0.071289
657.0	0.175488	2.534681	10.385229	0.748331	3.485108	1.862176	-0.230225	0.196533	-0.047363
658.0	1.693379	2.334182	10.835861	0.458688	3.943184	1.5238	-0.161377	0.215332	0.002441
659.0	2.75484	1.437316	10.651505	0.269975	4.41525	1.228635	-0.111328	0.221191	0.072021
660.0	3.48422	0.398225	10.310572	0.183756	4.842506	0.988346	-0.091553	0.219971	0.156494
661.0	4.469495	-0.343293	9.658965	0.195495	5.217471	0.815151	-0.097412	0.210449	0.236816
662.0	5.175002	-0.877131	8.804178	0.203328	5.513535	0.717244	-0.142334	0.189697	0.310547
663.0	6.006507	-1.265085	8.106593	0.191333	5.700381	0.692935	-0.213379	0.171631	0.35376
664.0	6.69316	-1.631835	7.741814	0.137684	5.800926	0.716786	-0.297363	0.151611	0.38623
665.0	7.436537	-2.025662	7.799747	0.084028	5.823894	0.77564	-0.383545	0.125488	0.377441
666.0	8.15778	-2.522526	8.231782	0.047219	5.810961	0.841382	-0.459229	0.112793	0.342773
667.0	9.026566	-2.796253	9.024828	0.026915	5.795148	0.914288	-0.522217	0.104736	0.288574
668.0	9.874823	-3.001777	9.940079	-0.01615	5.78813	0.991238	-0.565918	0.105469	0.225586
669.0	10.515626	-2.889127	10.688278	-0.08122	5.790834	1.068539	-0.601074	0.110352	0.166992
670.0	10.710126	-2.528904	11.124423	-0.211978	5.747464	1.140845	-0.621338	0.124268	0.097656
671.0	10.837562	-2.015604	11.503657	-0.384409	5.629808	1.177578	-0.62793	0.127197	0.030273
672.0	11.02277	-1.375278	12.113938	-0.602089	5.460146	1.184746	-0.624023	0.130371	-0.034668
673.0	10.843499	-0.786343	12.538867	-0.883696	5.245751	1.157667	-0.613037	0.124756	-0.097412
674.0	10.727217	-0.190045	12.879501	-1.214961	4.939183	1.103184	-0.602295	0.129639	-0.149414
675.0	10.816363	0.021718	13.451743	-1.617341	4.571928	1.047405	-0.591309	0.121826	-0.195068
676.0	12.456658	-0.640525	14.244192	-1.948483	4.156862	0.992449	-0.578125	0.11377	-0.233887
677.0	15.724168	-2.138376	15.710922	-2.062827	3.849895	0.933316	-0.569336	0.112305	-0.272949
678.0	19.22539	-3.676759	16.784843	-1.890335	3.718515	0.818797	-0.55835	0.108398	-0.309814
679.0	22.571036	-3.852204	17.198559	-1.507868	3.684204	0.658437	-0.547607	0.109131	-0.348633
680.0	25.470245	-2.501202	16.672847	-1.289983	3.761953	0.596688	-0.530273	0.107422	-0.37915
681.0	28.967101	-1.684605	14.297876	-1.322443	3.958096	0.642045	-0.514893	0.105713	-0.413574
682.0	35.304286	-1.765813	10.362461	-1.223816	4.303297	0.629618	-0.484619	0.110596	-0.446045
683.0	43.082429	1.598074	3.505786	-0.636488	4.744709	0.57216	-0.462891	0.109131	-0.480713
684.0	51.450706	11.931358	-7.081073	-0.083689	5.10175	1.436984	-0.430664	0.11377	-0.504639
685.0	49.253783	21.028159	-23.638666	-1.126404	6.23976	1.618239	-0.394043	0.127197	-0.534912
686.0	28.308217	17.759641	-35.271659	-7.130549	8.180839	1.038675	-0.34375	0.175049	-0.554688
687.0	8.111235	-4.181115	-42.766606	-10.004862	10.417765	-1.442532	-0.295166	0.207764	-0.582764
688.0	-15.80349	-21.804017	-35.555983	-1.837624	2.799235	-2.46065	-0.310059	0.201172	-0.576416
689.0	-3.863132	-13.402207	-16.552864	5.519835	-12.492979	-2.349848	-0.391113	0.159424	-0.526367
690.0	47.398966	-10.418502	3.927115	8.958696	-14.235031	-2.680925	-0.443115	0.098633	-0.498047
691.0	22.131231	13.396876	21.666942	2.26362	-1.227227	-1.876923	-0.445313	0.102783	-0.500244
692.0	-0.558965	-11.640951	18.073813	-0.215703	-1.460126	-0.637914	-0.462158	0.087646	-0.489258
693.0	4.622868	10.419366	4.322076	6.63565	-6.008859	1.223158	-0.487305	0.063477	-0.463379
694.0	14.14213	27.885231	18.770442	2.69741	-5.716082	1.133529	-0.511475	0.071777	-0.439453
695.0	25.680174	21.699847	27.622123	-3.148079	-2.679115	-0.364593	-0.518066	0.075928	-0.428711
696.0	11.503786	9.776958	20.840805	-0.013859	-2.328274	-1.618504	-0.531006	0.071289	-0.415771
697.0	12.653025	-8.31222	11.919137	-2.201634	-1.475919	-1.672869	-0.528809	0.071289	-0.417969
698.0	11.430337	-37.388542	3.166155	-0.613391	-0.427037	-1.6196	-0.534912	0.060547	-0.417725
699.0	2.500825	7.574205	15.014042	5.840784	-2.69813	-0.0616	-0.547119	0.038818	-0.398193
700.0	11.017383	13.541586	11.67542	1.330359	-1.639719	-0.745065	-0.549316	0.036621	-0.402588
701.0	11.209029	-9.959589	15.200134	-2.97067	2.146069	-0.67997	-0.544922	0.036865	-0.411133
702.0	2.726451	-3.091791	11.062046	3.067872	-1.754522	-0.512989	-0.55127	0.030029	-0.398193
703.0	9.842569	7.070713	12.444725	1.633637	-1.263606	-0.129524	-0.544434	0.025635	-0.393799
704.0	5.757045	-1.752006	9.953216	-2.575537	1.62605	-0.137536	-0.542725	0.034424	-0.400391
705.0	0.638734	-7.533271	7.009923	0.030563	-0.149351	-0.15561	-0.548828	0.028076	-0.400391
706.0	6.250192	0.076856	10.37196	1.551065	-1.074881	-0.04422	-0.546387	0.021484	-0.395996
707.0	5.455952	0.043201	9.403393	-0.791034	0.450063	-0.022231	-0.546875	0.032227	-0.402588
708.0	2.638802	-4.511499	8.114143	-0.412429	0.184081	-0.053815	-0.548828	0.027832	-0.393799
709.0	4.706843	-1.718967	8.977291	0.658416	-0.496498	-0.036918	-0.546631	0.025879	-0.398193
710.0	4.727804	-1.181814	8.884242	-0.205833	0.103772	-0.037985	-0.544678	0.030029	-0.393799
711.0	3.618959	-2.827986	8.570919	0.012577	-0.045921	-0.051994	-0.546875	0.030029	-0.395996
712.0	4.644688	-1.394705	8.934477	0.254732	-0.199077	-0.047979	-0.548828	0.025879	-0.400391
713.0	4.260844	-1.922467	8.845665	-0.029286	0.004285	-0.046036	-0.544434	0.025635	-0.391602
714.0	4.171051	-2.023348	8.845714	0.152417	-0.113515	-0.047891	-0.546875	0.030029	-0.395996
715.0	4.36727	-1.669397	8.937552	0.067783	-0.069003	-0.04471	-0.546631	0.023682	-0.395996
716.0	4.191355	-1.904797	8.841313	0.034888	-0.067297	-0.040346	-0.548584	0.021484	-0.393799
717.0	4.232545	-1.766214	8.806911	0.021778	-0.079809	-0.033907	-0.553223	0.025879	-0.400391
718.0	4.192975	-1.828015	8.785419	-0.018115	-0.076322	-0.031689	-0.551025	0.023438	-0.391602
719.0	4.201794	-1.846928	8.743533	-0.025444	-0.083257	-0.026424	-0.548584	0.021484	-0.393799
720.0	4.150138	-2.000777	8.669586	-0.042141	-0.078902	-0.038186	-0.550781	0.01709	-0.393799
721.0	4.162697	-1.971841	8.682628	-0.014022	-0.096608	-0.045862	-0.552979	0.021484	-0.400391
722.0	4.210578	-1.967026	8.662016	-0.019891	-0.090329	-0.056242	-0.552734	0.014893	-0.395996
723.0	4.190562	-1.857533	8.652435	0.000691	-0.09787	-0.062069	-0.565674	0.010742	-0.398193
724.0	4.251474	-1.761394	8.683585	0.009262	-0.103239	-0.062749	-0.574951	0.027588	-0.385254
725.0	4.275178	-1.617016	8.674425	-0.004499	-0.111454	-0.055495	-0.571533	0.05127	-0.385254
726.0	4.233547	-1.61968	8.654228	-0.018347	-0.113756	-0.054014	-0.556152	0.047119	-0.387451
727.0	4.213915	-1.475088	8.719481	-0.018899	-0.146418	-0.044802	-0.549072	0.032227	-0.391602
728.0	4.208022	-1.541133	8.758088	-0.067352	-0.152533	-0.037916	-0.553223	0.027832	-0.389404
729.0	4.147808	-1.714829	8.781207	-0.081971	-0.185611	-0.036249	-0.553223	0.027832	-0.385254
730.0	4.10532	-1.76581	8.759821	-0.084563	-0.235703	-0.036037	-0.555176	0.02124	-0.380859
731.0	3.72581	-1.460983	8.9651	-0.128979	-0.310724	-0.035262	-0.55957	0.023438	-0.385254
732.0	4.050053	-1.749588	8.836107	-0.135924	-0.4064	-0.030911	-0.55542	0.027588	-0.376465
733.0	3.874278	-1.807744	8.911435	-0.19364	-0.482651	-0.042541	-0.55957	0.02124	-0.380859
734.0	3.813316	-1.860212	9.012348	-0.191797	-0.596837	-0.057679	-0.566162	0.025391	-0.378662
735.0	3.935147	-1.724374	9.052352	-0.220365	-0.73497	-0.070149	-0.566162	0.023193	-0.370117
736.0	3.933052	-1.876049	8.954431	-0.2526	-0.86222	-0.09306	-0.566406	0.029541	-0.363525
737.0	4.018957	-1.893593	8.912509	-0.229971	-1.018281	-0.108941	-0.570068	0.016602	-0.359131
738.0	4.115164	-1.886599	8.962089	-0.248148	-1.136203	-0.140223	-0.578857	0.018555	-0.350586
739.0	3.972791	-2.002368	8.976447	-0.262913	-1.29661	-0.168858	-0.581055	0.016357	-0.337402
740.0	4.311141	-1.685269	8.852081	-0.124333	-1.469603	-0.234776	-0.585449	0.020508	-0.333252
741.0	4.515179	-1.362004	8.834182	-0.125419	-1.612964	-0.254696	-0.581055	0.020264	-0.324463
742.0	4.598137	-1.892184	8.781466	-0.128625	-1.799742	-0.29854	-0.596191	0.015869	-0.311523
743.0	4.237551	-2.813978	8.585262	-0.098393	-2.014196	-0.455271	-0.595947	0.013672	-0.304932
744.0	3.248335	-2.786124	9.078177	0.076908	-2.402682	-0.616918	-0.602539	0.013428	-0.291992
745.0	3.643469	-2.800893	8.715021	0.264583	-3.020494	-0.667356	-0.611084	0.008789	-0.270264
746.0	4.436686	-2.076341	9.12302	0.136301	-3.633665	-0.68447	-0.617188	-0.002441	-0.242188
747.0	4.270825	-1.653113	9.428029	0.145179	-3.9743	-1.20726	-0.62793	-0.004883	-0.229004
748.0	1.995752	-2.473426	9.786164	0.112519	-4.407413	-1.283737	-0.629639	-0.013916	-0.187988
749.0	2.022605	-3.303266	9.677711	0.562382	-5.170827	-1.300831	-0.635742	-0.022949	-0.164063
750.0	5.327042	-4.739965	10.173577	0.511973	-6.620857	-0.985256	-0.636963	-0.042969	-0.111816
751.0	7.019006	-3.299471	12.037267	0.598323	-7.188294	-2.407003	-0.640869	-0.052246	-0.068604
752.0	8.15683	-7.351802	15.217892	1.296324	-8.551569	-2.820077	-0.639893	-0.072266	-0.009766
753.0	16.907452	-5.637949	17.396416	1.764903	-9.607793	-3.032716	-0.625977	-0.094727	0.051025
754.0	15.433751	-3.679911	16.861441	0.761386	-9.732508	-3.278929	-0.605469	-0.112549	0.114014
755.0	19.860535	-2.378943	22.51017	2.371035	-10.339466	-2.32482	-0.587646	-0.124023	0.163818
756.0	22.51965	-5.218145	23.600491	0.497045	-9.658431	-1.284556	-0.558838	-0.131348	0.229004
757.0	15.857312	-11.53316	26.907126	0.777926	-8.493278	-1.624695	-0.527832	-0.142578	0.272461
758.0	1.926827	-9.874449	19.407701	0.073989	-7.16022	-3.020383	-0.503418	-0.153564	0.296387
759.0	12.053084	-18.124132	23.976121	3.936153	-5.910359	-3.139443	-0.477295	-0.149414	0.331055
760.0	30.799711	2.172065	51.492653	5.08896	-3.470966	-1.936287	-0.4729	-0.149414	0.331055
761.0	14.945036	1.007481	38.819697	-1.776302	3.029337	0.129092	-0.479248	-0.157715	0.291992
762.0	-5.019882	-10.404524	19.930236	-1.723571	3.620391	0.6391	-0.481445	-0.159424	0.270508
763.0	-6.205493	-4.154196	13.679885	0.123761	2.677699	0.614497	-0.48584	-0.161377	0.244385
764.0	-7.473222	-3.53687	9.036313	-0.796803	3.480293	0.712478	-0.483643	-0.163086	0.216309
765.0	-7.093111	-3.494095	7.696051	-0.0478	3.088163	0.728117	-0.481689	-0.160645	0.198975
766.0	-2.823125	-1.944225	9.283235	-0.061458	3.197211	0.744144	-0.481445	-0.166748	0.177246
767.0	-0.200338	-2.24884	10.261915	-0.192537	3.656577	0.813363	-0.479248	-0.168701	0.164307
768.0	2.404934	-2.154589	11.021172	-0.111599	4.094879	0.892193	-0.479248	-0.166504	0.146973
769.0	4.018879	-1.987849	11.136598	-0.197515	4.698932	1.000084	-0.488037	-0.164063	0.135986
770.0	4.893857	-1.817985	10.585961	-0.182326	5.193284	1.103395	-0.494873	-0.161865	0.12085
771.0	5.667695	-1.446529	9.743759	-0.178829	5.583272	1.208402	-0.51001	-0.159424	0.103516
772.0	6.197632	-1.45939	8.5564	-0.235544	5.891627	1.292473	-0.52124	-0.152832	0.088379
773.0	6.823926	-1.304836	7.736111	-0.188679	6.016475	1.354132	-0.538818	-0.148438	0.070801
774.0	7.479721	-1.073806	7.384062	-0.189024	6.067404	1.384121	-0.571777	-0.141602	0.040527
775.0	8.295713	-1.06461	7.56777	-0.18768	6.049925	1.370735	-0.604736	-0.138916	-0.011719
776.0	9.101655	-1.094124	8.240776	-0.205148	6.022459	1.334768	-0.625244	-0.12085	-0.081055
777.0	9.952173	-1.597176	9.184286	-0.216882	6.02208	1.286139	-0.604492	-0.095947	-0.15918
778.0	10.67156	-1.93336	10.100568	-0.186912	6.023661	1.25789	-0.538574	-0.064453	-0.241699
779.0	11.049016	-2.086257	10.889566	-0.195112	6.01077	1.270541	-0.407227	-0.0271	-0.271973
780.0	11.222087	-1.760668	11.417089	-0.233118	5.934067	1.306074	-0.264404	0.000732	-0.213379
781.0	11.57008	-1.214729	12.22048	-0.371351	5.816102	1.33305	-0.181641	0.003662	-0.085205
782.0	12.018532	-0.653737	13.251925	-0.534424	5.683756	1.343022	-0.194336	0.003662	0.055664
783.0	11.89829	-0.267338	13.576476	-0.770865	5.478975	1.314472	-0.252441	-0.008301	0.133545
784.0	12.346165	-0.060711	14.538314	-1.017099	5.201962	1.220912	-0.328125	-0.019775	0.163818
785.0	13.955917	-0.180481	15.618088	-1.259581	4.853112	1.139483	-0.375977	-0.021973	0.159424
786.0	16.854074	-1.175207	16.911884	-1.532516	4.574832	1.109566	-0.420166	-0.009277	0.152832
787.0	21.694308	-2.461497	18.416617	-1.499759	4.31631	1.082991	-0.455566	0.008057	0.135254
788.0	27.884775	-4.117225	19.600425	-1.249474	4.41949	1.064301	-0.487061	0.031982	0.104736
789.0	31.745048	-5.501967	18.294964	-0.82347	4.906583	0.942048	-0.529053	0.047607	0.059082
790.0	34.239945	-4.532738	14.615657	-0.197534	5.383607	0.652161	-0.566895	0.063232	0.000488
791.0	36.895964	0.005462	7.756041	0.22141	5.64163	0.426602	-0.587646	0.088135	-0.084229
792.0	40.32653	7.874825	-2.528931	0.113606	5.881389	0.728213	-0.601563	0.104248	-0.164551
793.0	42.828982	17.646762	-16.799286	0.707316	5.148444	2.117033	-0.59375	0.126709	-0.236084
794.0	40.519305	26.5832	-32.492911	-2.083988	4.665572	1.199575	-0.573242	0.15332	-0.283936
795.0	29.116775	10.536187	-42.775506	-11.342269	5.881637	-0.233608	-0.563965	0.19458	-0.318848
796.0	15.238788	-17.256464	-45.37304	-9.256928	5.806307	-2.953952	-0.564209	0.201172	-0.336182
797.0	-6.897187	-23.898762	-15.949831	-0.086561	-3.304069	-2.571492	-0.600586	0.185547	-0.301514
798.0	21.391567	-14.436831	-29.230088	10.32679	-15.247243	-3.61783	-0.648193	0.128418	-0.229736
799.0	34.186013	19.784703	29.560842	9.86668	-3.66159	-2.793178	-0.664795	0.104736	-0.220947
800.0	9.156276	8.089101	27.0465	-4.361167	-2.047877	-0.64401	-0.682129	0.106689	-0.208008
801.0	7.104213	-6.015197	1.98951	1.722098	-5.662705	0.561103	-0.705811	0.101563	-0.169189
802.0	19.083786	16.968351	25.540682	3.768654	-7.385184	1.478798	-0.725342	0.103271	-0.138672
803.0	28.13982	23.090148	27.198483	0.544871	-3.617298	-0.481647	-0.740234	0.094482	-0.123535
804.0	10.790174	10.138016	16.326075	-1.763173	-1.569875	-1.645662	-0.75293	0.085693	-0.110596
805.0	3.519859	-12.081575	5.910694	-2.702788	-1.438917	-2.112458	-0.769531	0.065918	-0.095215
806.0	17.927573	-33.355726	10.324773	2.053816	-2.046606	-1.328224	-0.782227	0.055176	-0.088867
807.0	9.523693	7.152097	15.118877	5.865	-2.501445	-0.906291	-0.788086	0.039795	-0.077881
808.0	11.589121	13.728343	18.577881	1.768014	-1.226171	-0.585	-0.794434	0.0354	-0.073486
809.0	15.097829	-0.895221	15.672471	-2.552164	1.944852	-0.371853	-0.791992	0.025146	-0.099609
810.0	-1.509867	-2.848734	9.342837	0.471639	-0.605491	-0.265347	-0.794434	0.035645	-0.080078
811.0	8.584626	-1.648389	10.237977	1.415251	-1.159311	-0.086682	-0.800537	0.024658	-0.080078
812.0	5.5286	0.445799	10.196989	-0.603272	0.413033	-0.07076	-0.796631	0.03125	-0.077881
813.0	3.24911	-3.146865	8.55509	-0.042829	0.076477	-0.098999	-0.802979	0.026855	-0.080078
814.0	4.770464	-1.332704	9.264808	0.419295	-0.219227	-0.056189	-0.803223	0.033203	-0.075684
815.0	4.323238	-1.7117	9.049031	0.067894	0.040223	-0.061857	-0.802734	0.020508	-0.080078
816.0	4.179574	-2.048677	8.747586	0.209646	-0.075375	-0.057795	-0.804932	0.020508	-0.077881
817.0	4.470118	-1.314518	9.077004	0.119236	-0.011154	-0.050181	-0.804932	0.024658	-0.080078
818.0	4.048763	-1.742604	8.853602	0.157881	-0.070978	-0.052012	-0.800293	0.018311	-0.077881
819.0	4.485198	-1.183793	9.070644	0.13615	-0.092696	-0.037142	-0.804932	0.022705	-0.080078
820.0	4.15887	-1.558727	9.012314	0.053798	-0.059832	-0.036365	-0.800537	0.024658	-0.075684
821.0	4.297284	-1.15709	9.016987	0.076233	-0.13041	-0.034075	-0.800537	0.020508	-0.075684
822.0	4.169245	-1.327481	9.000858	-0.007791	-0.106632	-0.031791	-0.80249	0.018311	-0.080078
823.0	4.124322	-1.412299	8.909914	-0.003218	-0.147354	-0.031866	-0.80249	0.013916	-0.079834
824.0	4.169495	-1.398766	8.83404	-0.030143	-0.158834	-0.029998	-0.804932	0.020264	-0.073486
825.0	4.142399	-1.435848	8.826497	-0.055652	-0.175341	-0.030013	-0.804932	0.020508	-0.080078
826.0	4.119828	-1.564148	8.801412	-0.066858	-0.194674	-0.039567	-0.798096	0.013916	-0.071289
827.0	4.131417	-1.628974	8.759607	-0.06851	-0.211785	-0.044521	-0.80249	0.018311	-0.073486
828.0	4.070544	-1.790799	8.733002	-0.050659	-0.239747	-0.069057	-0.80249	0.016113	-0.071289
829.0	4.120906	-1.547893	8.739399	-0.029835	-0.276758	-0.084342	-0.808838	0.011719	-0.071289
830.0	4.328036	-1.336834	8.736412	-0.033645	-0.295299	-0.097126	-0.812988	0.007324	-0.073486
831.0	4.390838	-1.242247	8.723085	-0.059229	-0.296418	-0.10932	-0.826416	0.018066	-0.062744
832.0	4.046394	-0.92626	8.896502	-0.086259	-0.316422	-0.117361	-0.816162	0.035156	-0.060547
833.0	4.520323	-1.15946	8.696081	-0.107942	-0.396288	-0.093198	-0.801025	0.033203	-0.060547
834.0	4.35422	-1.040258	8.780323	-0.133967	-0.402088	-0.06539	-0.79834	0.024414	-0.060547
835.0	4.48015	-1.088908	8.703303	-0.132839	-0.451678	-0.038177	-0.807129	0.022217	-0.053955
836.0	4.475971	-1.045416	8.699384	-0.150357	-0.48079	-0.009005	-0.807129	0.024414	-0.053955
837.0	4.516283	-1.260053	8.682845	-0.163399	-0.515252	0.002189	-0.80249	0.02002	-0.049561
838.0	4.445699	-1.357001	8.61803	-0.166703	-0.563459	-0.000807	-0.802734	0.022217	-0.043213
839.0	4.463042	-1.51693	8.647399	-0.173606	-0.599396	-0.017202	-0.80249	0.02002	-0.043213
840.0	4.396438	-1.566947	8.714082	-0.167677	-0.662097	-0.041979	-0.802734	0.021973	-0.034424
841.0	4.44024	-1.571249	8.708408	-0.150353	-0.754165	-0.070325	-0.807129	0.02417	-0.034424
842.0	4.406646	-1.53527	8.75984	-0.155161	-0.834542	-0.10365	-0.804688	0.019775	-0.025879
843.0	4.446498	-1.331269	8.849757	-0.133983	-0.958682	-0.12772	-0.804688	0.021973	-0.025879
844.0	4.443226	-1.297268	8.75336	-0.16822	-1.083428	-0.154091	-0.800537	0.023926	-0.014893
845.0	4.520727	-1.44786	8.676667	-0.186682	-1.209251	-0.177824	-0.80249	0.021729	-0.010742
846.0	4.42536	-1.426486	8.770108	-0.169558	-1.385299	-0.191285	-0.79834	0.023682	0.004639
847.0	4.694566	-1.544247	8.684832	-0.153057	-1.546211	-0.234297	-0.804932	0.027832	0.002441
848.0	4.474498	-1.209331	8.775843	-0.004023	-1.672892	-0.297223	-0.800293	0.023438	0.010986
849.0	4.679912	-1.263466	8.769906	0.051622	-1.984888	-0.276448	-0.798584	0.033936	0.030518
850.0	4.439216	-1.750137	8.796662	0.032689	-2.269174	-0.287184	-0.794189	0.031738	0.039307
851.0	4.457657	-2.577469	8.786725	0.062434	-2.656687	-0.397302	-0.789795	0.031738	0.050049
852.0	4.811398	-2.72712	8.943192	0.240824	-3.194577	-0.67247	-0.787354	0.029297	0.06958
853.0	3.159207	-1.424003	9.412988	0.427113	-3.437774	-0.98898	-0.782959	0.026855	0.08252
854.0	3.582868	-2.444681	9.219684	0.505884	-4.046173	-0.949342	-0.772217	0.029053	0.091309
855.0	3.08145	-2.033266	9.027075	0.738476	-4.707479	-1.124709	-0.763184	0.026367	0.128174
856.0	7.057737	-3.523987	9.595651	0.595533	-5.936546	-0.884241	-0.754639	0.032471	0.149902
857.0	6.267421	-2.724119	12.243577	0.995266	-6.422305	-2.092308	-0.737061	0.025879	0.177979
858.0	5.883519	-6.186891	13.39982	1.719341	-7.726911	-2.411647	-0.715088	0.02124	0.201904
859.0	9.872033	-4.045132	14.674342	2.088553	-8.885356	-2.733616	-0.690918	0.016602	0.232422
860.0	17.971567	-5.694058	17.172254	0.62047	-9.212784	-3.792368	-0.64917	0.012207	0.256348
861.0	13.336747	-1.838009	17.456863	1.904896	-10.5481	-3.129783	-0.605957	0.020752	0.275879
862.0	18.986099	-1.151408	24.598748	2.601247	-10.931416	-1.390575	-0.547607	0.033691	0.291016
863.0	24.980193	-4.920061	24.449742	0.699841	-10.196139	-0.630629	-0.485352	0.05542	0.291016
864.0	17.22656	-10.3346	30.608903	0.302951	-8.253722	-0.926549	-0.420898	0.075195	0.282471
865.0	3.166597	-5.850778	26.229423	0.065423	-6.741739	-2.61393	-0.344971	0.082031	0.262939
866.0	31.397364	-10.711778	46.798675	3.565725	-4.441619	-2.012811	-0.265137	0.099854	0.241455
867.0	25.015534	1.152435	45.460959	-0.727788	1.141763	-0.337384	-0.197266	0.091553	0.241455
868.0	-2.120779	-13.113818	23.362545	-2.944474	4.251766	0.371056	-0.127197	0.080566	0.27417
869.0	-6.405381	-9.177217	13.823299	0.523091	2.440897	0.077064	-0.091309	0.05835	0.341553
870.0	-6.412895	-4.112631	10.182118	0.056647	3.052612	0.739467	-0.092285	0.027344	0.411133
871.0	-5.290868	-3.33507	9.649555	0.1315	2.767305	0.97292	-0.116455	-0.018799	0.476318
872.0	-1.556883	-1.624354	11.351253	-0.021062	2.996033	1.151332	-0.181885	-0.064941	0.519775
873.0	0.752587	-1.127326	11.902459	-0.399474	3.650329	1.313413	-0.263184	-0.102051	0.537109
874.0	2.232342	-1.437649	11.597837	-0.543211	4.258505	1.412389	-0.353027	-0.145264	0.52417
875.0	3.238552	-1.10186	10.861763	-0.435983	4.771386	1.46039	-0.441162	-0.17749	0.500244
876.0	4.0025	-0.738928	9.802187	-0.357936	5.22402	1.500279	-0.52124	-0.192139	0.443848
877.0	4.518049	-0.246369	8.51353	-0.260743	5.531802	1.524914	-0.588135	-0.210938	0.385498
878.0	5.096633	0.357557	7.707147	-0.171114	5.697483	1.535272	-0.644287	-0.225342	0.32251
879.0	5.930554	0.944565	7.442398	-0.186364	5.803506	1.49734	-0.687988	-0.224609	0.246582
880.0	6.540393	1.176424	7.577856	-0.272523	5.890286	1.419942	-0.7229	-0.22583	0.181396
881.0	7.380086	1.229351	8.219279	-0.295425	5.907202	1.288504	-0.757568	-0.231689	0.116455
882.0	8.728148	0.949454	9.125841	-0.349562	5.961018	1.137111	-0.773193	-0.230469	0.029785
883.0	9.723546	0.21989	9.806624	-0.423838	6.094187	1.005188	-0.76709	-0.224854	-0.059082
884.0	10.51921	-0.397856	10.350546	-0.390985	6.159159	0.921192	-0.741943	-0.202393	-0.117676
885.0	10.961833	-1.030868	10.664452	-0.413746	6.216941	0.89253	-0.71875	-0.182373	-0.167725
886.0	11.402231	-1.125084	10.901429	-0.425036	6.17955	0.927878	-0.684814	-0.1604	-0.200195
887.0	11.601623	-1.300615	11.359879	-0.528918	6.109985	0.999568	-0.672852	-0.138428	-0.228516
888.0	11.941426	-1.262944	12.07914	-0.605488	5.96332	1.059023	-0.652344	-0.103516	-0.252441
889.0	12.123738	-1.028888	12.905399	-0.74512	5.771543	1.112741	-0.642578	-0.077148	-0.282959
890.0	12.344759	-0.723923	13.74583	-0.926239	5.469528	1.137304	-0.624023	-0.053223	-0.30249
891.0	14.100446	-0.575696	15.094078	-1.157844	5.066912	1.163405	-0.605225	-0.029297	-0.324219
892.0	17.83082	-1.216088	16.912207	-1.472314	4.769121	1.248137	-0.5979	0.001221	-0.348389
893.0	22.359297	-3.111594	18.283448	-1.598716	4.600992	1.342761	-0.590088	0.022949	-0.363525
894.0	27.683812	-4.563249	18.969703	-1.339677	4.543069	1.374132	-0.577637	0.03833	-0.374512
895.0	32.922232	-5.880644	18.013507	-1.040443	4.853818	1.395699	-0.565186	0.055908	-0.394043
896.0	34.920299	-6.898526	14.609372	-0.653431	5.364009	1.343275	-0.554932	0.071289	-0.428711
897.0	38.068307	-4.14902	8.798122	0.17511	5.414624	1.092385	-0.540039	0.075928	-0.446045
898.0	43.198171	3.022564	0.220617	0.635367	5.708215	1.045938	-0.518555	0.085205	-0.487305
899.0	47.185543	15.307507	-12.181253	1.589719	5.306935	2.851518	-0.501465	0.087646	-0.509033
900.0	47.944624	31.841873	-29.155027	-0.836825	5.255209	2.790151	-0.47876	0.118164	-0.528564
901.0	32.15115	18.854878	-41.493713	-10.483534	6.473925	1.443665	-0.44873	0.1875	-0.550537
902.0	15.023219	-12.10866	-46.43624	-10.458286	7.609609	-2.285567	-0.417725	0.226563	-0.563721
903.0	-4.245198	-21.225356	-26.306363	-1.8746	0.76034	-2.812819	-0.445068	0.20459	-0.544189
904.0	5.128479	-12.391969	-12.069406	6.362462	-13.449936	-3.243539	-0.531982	0.151611	-0.470215
905.0	44.291148	4.552817	9.971542	11.612261	-8.880912	-2.962759	-0.551758	0.099854	-0.461426
906.0	8.653056	11.00638	21.106141	-2.94403	-1.223006	-2.243026	-0.561279	0.116699	-0.444092
907.0	3.077187	-11.749577	14.842862	0.598134	-3.984096	-0.974836	-0.59082	0.098877	-0.409424
908.0	17.583485	7.659459	10.550284	4.198241	-7.555116	1.749539	-0.613037	0.108887	-0.361816
909.0	25.713813	16.347601	28.202154	-1.647954	-3.812536	0.907096	-0.619385	0.106445	-0.342285
910.0	14.259983	12.636864	22.31699	0.188454	-2.887854	-0.554983	-0.634521	0.106201	-0.320801
911.0	6.490772	6.693012	10.119214	-0.29127	-2.178558	-1.567729	-0.640869	0.099609	-0.307617
912.0	4.965416	-12.869596	6.014641	-3.754732	-1.703071	-1.878636	-0.645264	0.105713	-0.294678
913.0	21.736764	-30.575876	15.251852	2.488127	-1.989801	-0.908485	-0.653076	0.083984	-0.285889
914.0	6.299435	7.635593	10.046749	4.963865	-2.052854	-0.651907	-0.654785	0.073242	-0.272949
915.0	7.858119	10.800395	14.392261	0.05275	-0.858534	-0.82019	-0.654785	0.071045	-0.275146
916.0	13.250791	-5.783124	17.831528	-0.458976	0.825169	-0.555281	-0.656982	0.068848	-0.275146
917.0	3.381463	1.116458	10.307796	1.90832	-1.242619	-0.366023	-0.661133	0.064453	-0.268555
918.0	8.555582	-1.020423	10.773005	0.1398	-0.102039	-0.205058	-0.658691	0.060059	-0.266357
919.0	3.328049	-2.266222	9.757126	-0.422795	0.337578	-0.165352	-0.652344	0.064453	-0.268555
920.0	4.961614	-2.221618	9.376131	0.489703	-0.41638	-0.093938	-0.656738	0.062256	-0.266357
921.0	4.718743	-1.302275	9.241897	-0.030369	-0.025674	-0.068216	-0.656494	0.055908	-0.268555
922.0	4.113484	-2.542938	8.875734	-0.073589	-0.02398	-0.062767	-0.661133	0.064453	-0.270752
923.0	4.356087	-2.121803	8.765168	0.136273	-0.147559	-0.060649	-0.663086	0.060059	-0.26416
924.0	4.380253	-1.832983	8.833416	0.039584	-0.056186	-0.053111	-0.656738	0.064453	-0.266357
925.0	4.221103	-1.924677	8.730168	0.11189	-0.098924	-0.054299	-0.658691	0.055908	-0.268555
926.0	4.273226	-1.811695	8.823425	0.1289	-0.092547	-0.058889	-0.656494	0.058105	-0.270752
927.0	4.352073	-1.630671	9.073525	0.145218	-0.120221	-0.059089	-0.656738	0.064453	-0.270752
928.0	4.338394	-1.642125	9.080174	0.048887	-0.09301	-0.04841	-0.658691	0.057861	-0.26416
929.0	4.262167	-1.611289	8.980813	0.021788	-0.130068	-0.035916	-0.665039	0.053711	-0.268555
930.0	4.288473	-1.695608	8.87613	-0.038517	-0.117687	-0.029132	-0.656738	0.062256	-0.268555
931.0	4.240764	-1.762003	8.819426	-0.053698	-0.138818	-0.029652	-0.658691	0.060059	-0.261963
932.0	4.303446	-1.73875	8.754886	-0.057996	-0.13678	-0.02895	-0.656494	0.055908	-0.261963
933.0	4.246439	-1.77729	8.682947	-0.081367	-0.124889	-0.031166	-0.662842	0.051514	-0.26416
934.0	4.261803	-1.889229	8.618355	-0.056495	-0.138428	-0.040843	-0.658447	0.055664	-0.261963
935.0	4.273926	-1.820676	8.593424	-0.04577	-0.123645	-0.05555	-0.664795	0.049316	-0.26416
936.0	4.298592	-1.750701	8.601034	-0.033694	-0.119816	-0.066454	-0.6604	0.044922	-0.261963
937.0	4.300721	-1.72053	8.58067	-0.026163	-0.121345	-0.070016	-0.675537	0.044922	-0.261963
938.0	4.395979	-1.63297	8.615323	-0.017463	-0.116708	-0.073201	-0.683105	0.070557	-0.244629
939.0	4.333073	-1.539927	8.641282	-0.023262	-0.117013	-0.063867	-0.666016	0.083496	-0.240479
940.0	4.337913	-1.46238	8.676018	-0.036838	-0.139751	-0.049149	-0.65918	0.070801	-0.253418
941.0	4.230201	-1.561313	8.757032	-0.082296	-0.150573	-0.044004	-0.660889	0.060059	-0.253418
942.0	4.174348	-1.564282	8.760061	-0.079481	-0.209884	-0.031694	-0.664795	0.05127	-0.249023
943.0	3.945313	-1.402422	8.894121	-0.126191	-0.267625	-0.039354	-0.667236	0.057617	-0.244629
944.0	4.374856	-1.681202	8.630005	-0.113827	-0.330476	-0.034416	-0.665283	0.059814	-0.242432
945.0	4.209554	-1.678346	8.773162	-0.160807	-0.339613	-0.038603	-0.665039	0.05542	-0.242432
946.0	4.087447	-1.898181	8.802318	-0.148688	-0.403436	-0.050659	-0.671387	0.053223	-0.233887
947.0	4.029735	-1.8058	8.901274	-0.171977	-0.506221	-0.06419	-0.669189	0.053223	-0.23584
948.0	4.079099	-1.730064	8.896113	-0.188089	-0.613264	-0.074117	-0.671387	0.052979	-0.225098
949.0	4.068269	-1.706842	8.955651	-0.218451	-0.737725	-0.103915	-0.673584	0.051025	-0.227295
950.0	4.038145	-1.750084	9.024248	-0.24876	-0.868441	-0.120376	-0.675781	0.052979	-0.220703
951.0	4.143539	-1.666252	9.012921	-0.231722	-1.028078	-0.144049	-0.675781	0.052734	-0.207764
952.0	4.067395	-1.582535	9.014101	-0.250477	-1.17983	-0.162475	-0.682373	0.052734	-0.201416
953.0	3.941068	-1.551104	9.083278	-0.241018	-1.397706	-0.194167	-0.682129	0.050537	-0.192627
954.0	4.104419	-1.38082	8.953102	-0.128373	-1.686408	-0.257804	-0.686523	0.054443	-0.179688
955.0	4.408833	-1.471913	8.954521	-0.104183	-1.949421	-0.300114	-0.688721	0.050049	-0.166504
956.0	4.305371	-2.176228	8.874297	-0.1912	-2.19424	-0.366706	-0.688232	0.043457	-0.146973
957.0	3.609117	-2.808809	9.111767	-0.201821	-2.645865	-0.446613	-0.695068	0.047363	-0.129883
958.0	3.714834	-2.921011	9.029996	0.005071	-3.302758	-0.633765	-0.696777	0.040527	-0.10376
959.0	4.205094	-1.560817	8.977166	0.141211	-3.786534	-1.11797	-0.707275	0.031494	-0.079834
960.0	2.609625	-1.279028	9.879101	-0.193228	-3.997344	-1.172517	-0.702393	0.016113	-0.051514
961.0	2.587144	-2.728917	9.565853	0.091831	-4.779009	-1.072773	-0.706299	0.009277	-0.012451
962.0	2.76848	-2.784311	8.793627	-0.16435	-5.864224	-0.678658	-0.704102	0.008545	0.032959
963.0	8.364338	-3.512663	11.478117	0.169306	-6.645569	-1.671555	-0.701416	-0.002686	0.067627
964.0	4.029331	-5.690073	13.085392	0.231629	-7.603881	-2.189562	-0.685303	-0.016357	0.132813
965.0	9.105018	-4.690373	15.366626	1.794151	-9.141422	-2.528341	-0.669434	-0.030273	0.202393
966.0	19.868419	-3.87387	17.919924	0.009983	-9.42719	-3.350209	-0.639893	-0.056885	0.267578
967.0	13.03434	-6.277245	17.289278	1.148984	-10.509015	-2.923269	-0.606934	-0.063965	0.33252
968.0	18.447045	-1.925558	23.978631	3.045591	-11.096232	-1.203954	-0.563477	-0.060547	0.404297
969.0	25.594078	-3.767679	25.998095	0.274391	-10.022593	-0.662269	-0.515137	-0.067383	0.449707
970.0	14.446141	-13.618663	29.843027	-0.098662	-8.591241	-1.097138	-0.47583	-0.070068	0.497559
971.0	-2.06272	-7.802607	21.914868	-0.15819	-7.605463	-3.258537	-0.436035	-0.083252	0.534668
972.0	22.83039	-14.095497	35.569817	4.21479	-5.847561	-2.865906	-0.404053	-0.062012	0.560547
973.0	31.468097	4.924241	52.858226	2.486108	-1.569803	-1.603179	-0.421387	-0.064209	0.562744
974.0	8.689785	-3.577394	34.401029	-3.423218	4.364924	0.041933	-0.451172	-0.081299	0.543213
975.0	-8.914661	-12.095775	16.109862	-1.301703	3.510034	-0.178331	-0.475098	-0.083496	0.534424
976.0	-6.299831	-3.961587	12.80643	0.179646	2.938671	0.102458	-0.505859	-0.076904	0.525635
977.0	-6.530038	-3.828502	9.67861	-0.585051	3.58488	0.137045	-0.531982	-0.081299	0.510498
978.0	-4.515324	-3.437152	9.827844	-0.130317	3.273207	0.271355	-0.560303	-0.079102	0.503906
979.0	-0.016668	-2.467402	11.277662	-0.308043	3.680704	0.485892	-0.597412	-0.074707	0.490967
980.0	1.552679	-2.698161	11.251549	-0.542277	4.300638	0.770173	-0.634766	-0.065918	0.471191
981.0	3.053475	-2.749993	10.799519	-0.508222	4.756671	0.988613	-0.678467	-0.067627	0.425781
982.0	3.981051	-2.339733	10.058615	-0.432445	5.198987	1.187593	-0.718018	-0.056641	0.388672
983.0	4.679244	-1.866872	9.158931	-0.355636	5.539216	1.352149	-0.762451	-0.041016	0.334473
984.0	5.449034	-1.249027	8.353586	-0.260961	5.747956	1.479702	-0.797852	-0.029785	0.284424
985.0	6.626804	-0.421757	8.170321	-0.183953	5.846741	1.559632	-0.82666	-0.018066	0.217041
986.0	7.326515	0.242446	7.934856	-0.325596	6.033983	1.5492	-0.853271	-0.006592	0.158447
987.0	8.10368	0.595722	8.400762	-0.358813	6.064385	1.486383	-0.87085	-0.007813	0.089111
988.0	9.265735	0.912572	9.134105	-0.400837	6.103712	1.34907	-0.875732	-0.000488	0.017578
989.0	10.315907	0.918898	9.905673	-0.524702	6.202708	1.189495	-0.878174	0.004883	-0.062744
990.0	11.011978	0.27881	10.551392	-0.672838	6.329841	1.048093	-0.869873	0.012207	-0.127686
991.0	11.720497	-0.759983	11.041751	-0.722689	6.379604	0.956046	-0.857178	0.017334	-0.188477
992.0	12.359966	-1.680721	11.452036	-0.726098	6.392225	0.950008	-0.842285	0.024658	-0.24707
993.0	12.739092	-2.343277	12.052612	-0.7131	6.355133	1.005852	-0.825439	0.032227	-0.312012
994.0	13.22579	-2.506986	12.99903	-0.690457	6.24573	1.10445	-0.80835	0.037109	-0.361816
995.0	13.738699	-2.13651	14.177966	-0.77051	6.094424	1.24193	-0.782715	0.046631	-0.416016
996.0	14.523002	-2.042132	15.413379	-0.936782	5.888832	1.375938	-0.759033	0.053711	-0.459473
997.0	16.37246	-1.956543	16.577792	-1.112923	5.601352	1.53097	-0.731201	0.06543	-0.509277
998.0	19.462457	-2.537178	17.311445	-1.315119	5.298471	1.717235	-0.703369	0.074707	-0.550293
999.0	23.580225	-3.999549	17.809718	-1.407895	5.117614	1.888576	-0.671631	0.092529	-0.587402
1000.0	28.614673	-5.996859	17.892619	-1.118192	4.989934	1.964736	-0.639648	0.112305	-0.613281
1001.0	33.624981	-7.915864	16.056158	-0.623307	5.153346	1.936662	-0.603027	0.117188	-0.652344
1002.0	36.181054	-8.032622	11.235699	0.034385	5.529269	1.775039	-0.563965	0.120117	-0.684814
1003.0	39.190787	-3.477982	4.054752	1.212172	5.454709	1.37879	-0.526611	0.111816	-0.712891
1004.0	45.144293	6.945319	-7.479373	2.479361	5.181601	2.102181	-0.484863	0.099609	-0.743164
1005.0	49.108198	27.891186	-25.519583	3.156679	4.462771	3.574232	-0.449951	0.093506	-0.760254
1006.0	40.66536	32.546322	-37.955535	-4.868068	5.112538	2.466609	-0.404785	0.162842	-0.775635
1007.0	22.832948	0.291345	-46.139732	-14.333027	6.087437	-0.528907	-0.362793	0.257568	-0.776123
1008.0	5.813092	-25.878894	-42.536679	-6.924466	3.542839	-2.823947	-0.363281	0.270264	-0.767578
1009.0	-0.363875	-21.057805	-31.146765	7.153314	-10.516265	-4.136912	-0.478516	0.161865	-0.728271
1010.0	24.893469	13.809942	12.044399	12.199258	-14.957276	-5.013	-0.558594	0.094238	-0.680176
1011.0	47.249787	5.585011	32.406172	-2.960104	-1.832393	-1.880566	-0.554932	0.111328	-0.678223
1012.0	11.307364	-11.156386	20.282021	-2.924612	-2.282693	0.083192	-0.583496	0.119385	-0.645752
1013.0	9.3654	-4.836676	8.18307	2.560739	-6.29627	0.811229	-0.62207	0.10376	-0.617676
1014.0	27.508428	19.096717	32.198674	3.371608	-5.737806	0.80575	-0.643311	0.090576	-0.59375
1015.0	12.734185	21.106295	18.072862	-0.082217	-1.813261	-0.650923	-0.656006	0.085938	-0.580811
1016.0	3.062331	2.819116	8.521599	-3.341041	-1.191762	-1.798974	-0.649902	0.098877	-0.578613
1017.0	15.714783	-39.499047	8.660739	-2.549181	-0.085363	-1.339702	-0.662598	0.085938	-0.576416
1018.0	8.779108	-5.519864	11.978208	6.585723	-3.354053	-1.20493	-0.680664	0.051025	-0.548096
1019.0	5.856859	14.923763	10.491579	4.465502	-2.100427	-0.506979	-0.684326	0.031494	-0.545898
1020.0	20.313609	-0.501613	21.103163	-1.973486	0.936374	-0.779522	-0.671875	0.044678	-0.561035
1021.0	0.277895	-0.246156	9.363775	-0.575437	0.883694	-0.550445	-0.677979	0.033936	-0.563232
1022.0	5.930303	-2.446408	12.057477	1.658496	-1.407209	-0.194183	-0.677734	0.029541	-0.552246
1023.0	6.385342	0.622897	9.367981	0.368829	-0.129552	-0.131679	-0.679688	0.025391	-0.556641
1024.0	4.367143	-1.88536	9.602946	-0.687579	0.377837	-0.073524	-0.682129	0.027344	-0.554443
1025.0	3.665063	-2.687126	8.836897	0.180809	-0.212442	-0.042926	-0.682129	0.027344	-0.554443
1026.0	4.71433	-1.459517	8.921964	0.218279	-0.215138	-0.034291	-0.684326	0.029541	-0.548096
1027.0	4.311066	-2.398201	8.786515	-0.104342	0.07388	-0.055134	-0.681885	0.023193	-0.556641
1028.0	4.093177	-2.458684	8.741269	0.254677	-0.1238	-0.063527	-0.686279	0.022949	-0.552246
1029.0	4.614591	-1.647387	9.128308	0.291293	-0.098363	-0.071557	-0.677246	0.018799	-0.547852
1030.0	4.272769	-1.932968	9.001907	0.156282	0.021344	-0.084607	-0.67749	0.020996	-0.550049
1031.0	4.234674	-1.779072	9.095058	0.243423	-0.066113	-0.078658	-0.677246	0.016602	-0.554443
1032.0	4.287002	-1.505512	9.134141	0.127177	-0.049641	-0.061177	-0.681641	0.016602	-0.545654
1033.0	4.115547	-1.646148	8.942146	0.045659	-0.054156	-0.04769	-0.687988	0.012207	-0.550049
1034.0	4.213285	-1.560347	8.923624	0.042893	-0.087583	-0.038823	-0.675049	0.016602	-0.552246
1035.0	4.180859	-1.65864	8.824918	-0.022455	-0.07277	-0.03072	-0.679443	0.016602	-0.556641
1036.0	4.158355	-1.741328	8.795867	-0.016433	-0.094619	-0.035246	-0.675049	0.016602	-0.545654
1037.0	4.187323	-1.72501	8.691409	-0.00959	-0.092768	-0.033424	-0.687988	0.012207	-0.545654
1038.0	4.19257	-1.754054	8.670216	-0.012707	-0.085322	-0.045497	-0.681152	0.008057	-0.552246
1039.0	4.161445	-1.757056	8.681879	0.004646	-0.080994	-0.050378	-0.679443	0.014404	-0.554443
1040.0	4.180911	-1.730388	8.637263	0.026676	-0.078895	-0.065372	-0.687744	0.007813	-0.543457
1041.0	4.206168	-1.832532	8.609443	0.028107	-0.056677	-0.073354	-0.683105	0.001709	-0.556396
1042.0	4.246979	-1.593771	8.68649	0.08237	-0.084992	-0.062131	-0.698242	-0.000732	-0.552246
1043.0	4.299911	-1.402226	8.740079	0.050971	-0.066905	-0.056616	-0.713867	0.01001	-0.545654
1044.0	4.187978	-1.579717	8.692003	-0.01855	-0.050593	-0.057026	-0.699707	0.035645	-0.537109
1045.0	4.048892	-1.577888	8.820749	0.01563	-0.091339	-0.068009	-0.686768	0.035645	-0.532959
1046.0	4.188219	-1.417564	8.765072	0.018197	-0.13597	-0.059278	-0.681641	0.020752	-0.541504
1047.0	4.197469	-1.330791	8.89022	-0.028362	-0.151914	-0.055802	-0.683594	0.014404	-0.541504
1048.0	4.154856	-1.397247	8.831698	-0.06687	-0.180102	-0.054438	-0.685791	0.012207	-0.539307
1049.0	4.145536	-1.383418	8.796172	-0.075714	-0.227371	-0.045187	-0.689941	0.01001	-0.537109
1050.0	3.749635	-1.236848	9.045837	-0.13197	-0.281733	-0.036577	-0.690186	0.011963	-0.532715
1051.0	4.036118	-1.651637	8.816218	-0.131449	-0.403453	-0.039318	-0.694336	0.01001	-0.534912
1052.0	3.839958	-1.489224	9.061303	-0.148774	-0.469245	-0.049136	-0.701172	0.016113	-0.526367
1053.0	3.914178	-1.61459	8.952935	-0.158596	-0.595941	-0.065081	-0.703125	0.01416	-0.526367
1054.0	3.972577	-1.48971	9.000374	-0.168582	-0.710271	-0.0776	-0.705322	0.013916	-0.513184
1055.0	4.075914	-1.627216	8.933297	-0.182857	-0.825437	-0.091599	-0.716064	0.009521	-0.510986
1056.0	4.013556	-1.691013	8.976146	-0.202014	-0.947027	-0.103785	-0.71167	0.011475	-0.504639
1057.0	4.027802	-1.625557	8.987177	-0.184155	-1.096312	-0.116104	-0.713867	0.009277	-0.49585
1058.0	4.194765	-1.247093	8.911025	-0.17303	-1.27904	-0.103095	-0.727051	0.01123	-0.48291
1059.0	4.245169	-1.03462	8.964786	-0.217485	-1.445355	-0.08893	-0.733398	0.010986	-0.474365
1060.0	4.336144	-1.93695	8.928757	-0.342708	-1.562766	-0.125666	-0.737793	0.010986	-0.463379
1061.0	3.798115	-2.704482	8.970867	-0.224834	-1.758311	-0.290009	-0.744385	0.012695	-0.448242
1062.0	3.460318	-2.95105	9.078768	-0.120502	-2.147959	-0.516565	-0.752686	0.003906	-0.435303
1063.0	3.613718	-2.602652	9.084894	0.175723	-2.705892	-0.65588	-0.767822	-0.000732	-0.406982
1064.0	3.682961	-1.567045	9.608292	0.26523	-3.242179	-0.748978	-0.778076	-0.011963	-0.383301
1065.0	3.056709	-1.310495	9.845357	0.179597	-3.846135	-0.862932	-0.788574	-0.020996	-0.352783
1066.0	2.964205	-2.262008	9.91515	0.268968	-4.536492	-1.252112	-0.807861	-0.028076	-0.311768
1067.0	0.976793	-2.316767	10.142872	0.365439	-5.256461	-1.351891	-0.815918	-0.043701	-0.266113
1068.0	2.936378	-4.160887	11.394961	0.015971	-6.560178	-1.40255	-0.821777	-0.057373	-0.209717
1069.0	7.609889	-6.435989	11.089514	0.832859	-7.594127	-2.312715	-0.831299	-0.084229	-0.148926
1070.0	5.776171	-4.86994	15.476915	1.365389	-8.654019	-2.9101	-0.834473	-0.111084	-0.070801
1071.0	14.52487	-7.038439	17.469367	1.402349	-9.87369	-3.224524	-0.820313	-0.137939	0.020508
1072.0	16.880998	-5.745589	16.920141	1.28408	-10.518448	-3.503271	-0.799316	-0.169189	0.109619
1073.0	17.306186	-0.842344	20.287457	1.584391	-10.585655	-2.96275	-0.772217	-0.185303	0.192139
1074.0	20.668441	-4.960889	25.926315	0.468572	-9.997118	-1.986552	-0.734375	-0.207764	0.276855
1075.0	15.043372	-10.454147	22.590322	0.960154	-9.938383	-2.090885	-0.694824	-0.212891	0.346191
1076.0	4.919169	-9.268175	20.344046	0.160368	-8.029708	-2.842935	-0.650146	-0.237061	0.391846
1077.0	7.04428	-16.697849	24.225267	2.951358	-6.209283	-3.028807	-0.608643	-0.237793	0.448242
1078.0	32.234371	-3.370811	53.182339	5.193593	-4.62329	-1.938508	-0.595947	-0.229248	0.472168
1079.0	21.598717	0.7504	44.36459	-0.953159	1.560318	0.078461	-0.61084	-0.235352	0.439697
1080.0	1.949301	-11.161572	26.439795	-2.319546	3.92129	1.034237	-0.624023	-0.237305	0.420166
1081.0	-3.915182	-7.827241	15.657325	-0.18139	3.310563	1.21254	-0.641357	-0.237061	0.391846
1082.0	-6.15537	-4.438885	9.702754	-0.612758	3.857497	1.361748	-0.654785	-0.232422	0.372314
1083.0	-7.08402	-3.82522	7.36775	-0.060131	3.698388	1.532016	-0.672363	-0.227783	0.339844
1084.0	-3.654796	-1.242539	8.347478	0.038813	3.425743	1.575458	-0.692383	-0.221191	0.320313
1085.0	-0.32416	-0.926744	9.628355	-0.207597	3.841317	1.625852	-0.703613	-0.212158	0.289795
1086.0	2.444543	-0.774879	10.774465	-0.17278	4.20604	1.633021	-0.721436	-0.203369	0.261475
1087.0	4.442511	0.138358	11.004234	-0.111221	4.694276	1.639329	-0.741455	-0.191895	0.213867
1088.0	5.697826	0.474982	10.757159	-0.307555	5.338353	1.619993	-0.755127	-0.183105	0.18335
1089.0	5.830257	0.538886	9.670978	-0.276645	5.752204	1.563687	-0.770752	-0.171631	0.133545
1090.0	6.327993	1.14935	8.775879	-0.152254	5.968078	1.470825	-0.784424	-0.158203	0.096436
1091.0	7.01755	1.599029	8.309247	-0.173398	6.110511	1.364985	-0.800049	-0.15332	0.051025
1092.0	7.842697	1.827486	8.320789	-0.214108	6.141346	1.215631	-0.813232	-0.154785	-0.005371
1093.0	9.066559	1.739538	8.689474	-0.334469	6.207726	1.010357	-0.822021	-0.154297	-0.055176
1094.0	10.169803	0.972882	9.289116	-0.461094	6.295029	0.826311	-0.820313	-0.144775	-0.118164
1095.0	10.979941	-0.128457	10.006797	-0.470022	6.351827	0.68828	-0.818604	-0.137451	-0.178955
1096.0	11.848031	-1.083721	10.873365	-0.426808	6.393658	0.620802	-0.816895	-0.125977	-0.230957
1097.0	12.82331	-1.875303	11.587771	-0.406944	6.403081	0.673223	-0.804443	-0.116455	-0.287354
1098.0	13.137126	-2.794371	11.958356	-0.47511	6.420919	0.820458	-0.789551	-0.109375	-0.34375
1099.0	13.58406	-3.388643	12.651705	-0.422041	6.291383	1.00837	-0.772705	-0.093506	-0.391357
1100.0	14.117633	-3.1556	13.551969	-0.412306	6.145698	1.215971	-0.749512	-0.081787	-0.447754
1101.0	14.727245	-2.843865	14.871057	-0.425046	5.956032	1.372967	-0.723877	-0.07251	-0.50415
1102.0	16.004343	-2.562397	16.334056	-0.476793	5.762073	1.454673	-0.69165	-0.058838	-0.543213
1103.0	18.483419	-2.88646	17.812828	-0.457291	5.569519	1.505288	-0.672607	-0.047363	-0.58667
1104.0	22.506774	-3.344268	19.367397	-0.305916	5.43266	1.536483	-0.634033	-0.033936	-0.623535
1105.0	27.449383	-3.301279	20.352898	-0.034338	5.383032	1.584912	-0.599854	-0.022461	-0.658203
1106.0	31.764135	-2.605991	19.362528	0.056601	5.644535	1.673432	-0.565186	-0.019775	-0.686279
1107.0	33.03527	-3.685988	14.016646	0.002345	6.221576	1.664692	-0.522217	-0.008301	-0.727295
1108.0	33.632474	-2.778593	6.1298	0.533062	6.203075	1.539675	-0.480957	-0.005615	-0.753418
1109.0	41.145125	4.548179	-4.953961	1.638473	5.210321	1.641937	-0.447998	-0.013916	-0.7771
1110.0	45.075868	22.254907	-20.749627	2.613469	4.822315	2.355278	-0.412842	-0.02417	-0.794434
1111.0	41.566897	34.02534	-35.835602	-2.543149	4.275286	2.042686	-0.377686	0.023682	-0.816162
1112.0	27.846724	11.33333	-41.52277	-13.117186	4.933007	0.267675	-0.338623	0.135742	-0.831787
1113.0	14.360101	-18.628147	-37.674587	-10.317981	4.94937	-2.844214	-0.307861	0.185547	-0.84082
1114.0	-1.997739	-25.368841	-13.720011	1.743124	-4.187838	-3.046387	-0.377197	0.126709	-0.805908
1115.0	30.557551	-3.700054	10.853468	11.430658	-8.989755	-2.537973	-0.436768	0.033691	-0.788086
1116.0	29.859951	18.595734	-1.449836	5.001262	-4.877049	-0.712559	-0.468506	0.011963	-0.770752
1117.0	-0.981071	3.820804	7.005347	-6.371465	0.572847	-3.390366	-0.466309	0.065674	-0.770996
1118.0	-17.630409	-27.685892	5.368677	-1.182923	-6.373546	-2.203697	-0.525635	0.030273	-0.718994
1119.0	36.638646	10.63208	22.004405	4.682606	-10.385581	2.075543	-0.586426	0.022949	-0.675537
1120.0	30.050428	7.43691	20.273238	-2.970643	-2.356963	0.431194	-0.59375	0.048584	-0.667236
1121.0	8.432008	4.961364	21.674933	-1.271521	-2.720935	-0.702576	-0.617432	0.039795	-0.651855
1122.0	8.996098	5.280609	12.337692	1.001661	-3.837287	-1.260935	-0.634521	0.032959	-0.634521
1123.0	6.488111	-7.767638	6.175514	-2.965936	-1.881301	-1.57526	-0.645752	0.041504	-0.628174
1124.0	23.535141	-35.825161	15.458278	1.258349	-1.64965	-1.1609	-0.651123	0.010986	-0.608398
1125.0	7.499081	3.396075	9.633345	5.288454	-2.079468	-1.081239	-0.660645	-0.019043	-0.604004
1126.0	4.91677	12.710546	14.226841	1.841276	-1.220649	-0.79168	-0.664795	-0.027832	-0.597412
1127.0	18.127066	-2.820742	21.200985	0.737824	0.047256	-0.784728	-0.664307	-0.038574	-0.601807
1128.0	3.533543	3.482712	10.669373	0.537461	-0.17242	-0.35952	-0.670654	-0.042969	-0.601807
1129.0	7.025112	-3.383658	10.024412	-0.182608	-0.002923	-0.167001	-0.668457	-0.042969	-0.593018
1130.0	3.795549	-1.3047	10.105317	0.185794	-0.109325	-0.095384	-0.666504	-0.040771	-0.59082
1131.0	5.299507	-1.030161	9.621533	0.150759	-0.204976	-0.04665	-0.668701	-0.038574	-0.593018
1132.0	4.37738	-1.088957	9.245808	-0.177817	-0.027988	-0.002238	-0.668701	-0.036377	-0.601807
1133.0	4.362716	-2.115991	9.017671	-0.094427	-0.109887	0.031652	-0.673096	-0.036621	-0.593262
1134.0	4.283559	-1.897379	8.880709	-0.090005	-0.11185	0.030987	-0.675293	-0.038818	-0.591064
1135.0	4.29598	-2.084512	8.83411	-0.084416	-0.095397	0.028588	-0.668457	-0.040771	-0.591064
1136.0	4.250152	-1.870381	8.907011	-0.064978	-0.112802	0.023187	-0.668701	-0.036621	-0.588867
1137.0	4.24269	-1.954405	8.795501	-0.081506	-0.10306	0.019297	-0.673096	-0.038818	-0.593018
1138.0	4.236329	-1.853808	8.815409	-0.058397	-0.138022	0.013259	-0.668701	-0.038818	-0.588867
1139.0	4.309113	-1.815718	8.822608	-0.082902	-0.128561	0.009963	-0.668701	-0.036621	-0.588867
1140.0	4.265224	-1.856117	8.780807	-0.072718	-0.132572	0.005364	-0.668701	-0.034424	-0.588867
1141.0	4.240797	-1.701348	8.882928	-0.077394	-0.136	0.003586	-0.67749	-0.032471	-0.58667
1142.0	4.246257	-1.697133	8.822847	-0.098729	-0.135685	0.003758	-0.677734	-0.032227	-0.593262
1143.0	4.263579	-1.766397	8.811971	-0.118462	-0.139936	0.005645	-0.67749	-0.034424	-0.58667
1144.0	4.285683	-1.872486	8.723844	-0.127905	-0.144175	0.006191	-0.675293	-0.034668	-0.575928
1145.0	4.313787	-1.895617	8.597635	-0.121882	-0.133484	0.003858	-0.675049	-0.041016	-0.58667
1146.0	4.296727	-1.958043	8.581149	-0.116993	-0.123969	-0.000139	-0.67749	-0.034424	-0.593262
1147.0	4.271753	-2.006843	8.512644	-0.103893	-0.106765	-0.011298	-0.677246	-0.042969	-0.591064
1148.0	4.258851	-1.989896	8.571373	-0.085221	-0.112855	-0.026402	-0.687988	-0.047363	-0.588867
1149.0	4.284338	-1.942121	8.541763	-0.068644	-0.108619	-0.043208	-0.701172	-0.043213	-0.584473
1150.0	4.370845	-1.847677	8.526548	-0.051539	-0.100867	-0.048522	-0.712646	-0.026367	-0.571533
1151.0	4.329819	-1.806428	8.561281	-0.04976	-0.088419	-0.059544	-0.691895	0.001709	-0.567383
1152.0	4.298879	-1.883502	8.58918	-0.048386	-0.081433	-0.07304	-0.67627	-0.013184	-0.575928
1153.0	4.243124	-1.822732	8.630852	-0.045613	-0.096659	-0.085309	-0.675537	-0.02832	-0.57373
1154.0	4.331699	-1.750059	8.689058	-0.05236	-0.111957	-0.084276	-0.67749	-0.032471	-0.57373
1155.0	4.219658	-1.752974	8.677056	-0.07463	-0.137589	-0.085266	-0.679688	-0.034668	-0.569336
1156.0	4.08205	-1.817055	8.766914	-0.093038	-0.161074	-0.095599	-0.684082	-0.034668	-0.569336
1157.0	3.762971	-1.706331	8.935943	-0.138029	-0.255579	-0.105107	-0.688477	-0.032715	-0.571533
1158.0	4.116303	-1.812092	8.747797	-0.126015	-0.363664	-0.104964	-0.692627	-0.036865	-0.569336
1159.0	4.081048	-1.68391	8.818941	-0.180973	-0.430329	-0.099845	-0.699219	-0.037109	-0.564941
1160.0	4.042715	-1.78994	8.865475	-0.200015	-0.527986	-0.094744	-0.697021	-0.037109	-0.560791
1161.0	4.071136	-1.810856	8.88609	-0.222946	-0.639864	-0.094044	-0.699219	-0.035156	-0.554199
1162.0	4.101602	-1.946957	8.920081	-0.257591	-0.745153	-0.106302	-0.703613	-0.032959	-0.547607
1163.0	4.09011	-1.739592	8.966428	-0.258989	-0.875315	-0.112587	-0.706055	-0.028809	-0.545654
1164.0	3.942456	-1.770834	9.124877	-0.322651	-1.012674	-0.124839	-0.714355	-0.0354	-0.536865
1165.0	3.970735	-1.837806	9.032297	-0.304188	-1.232356	-0.15095	-0.71875	-0.033447	-0.526123
1166.0	4.004679	-1.500928	9.052625	-0.269945	-1.481218	-0.203207	-0.731934	-0.031494	-0.515137
1167.0	4.401519	-1.61427	8.909574	-0.258168	-1.733519	-0.251886	-0.733887	-0.035889	-0.497803
1168.0	4.403074	-1.921518	8.877293	-0.318406	-1.954418	-0.313725	-0.742432	-0.03833	-0.487061
1169.0	3.905814	-2.566469	8.992619	-0.418908	-2.241694	-0.389199	-0.755615	-0.038574	-0.476318
1170.0	3.463425	-3.180061	8.933442	-0.262253	-2.763737	-0.479807	-0.768311	-0.041016	-0.445801
1171.0	4.022603	-2.665851	9.025548	0.072776	-3.490639	-0.904792	-0.778809	-0.050049	-0.417725
1172.0	3.415158	-0.81933	9.748525	-0.075901	-3.926218	-1.165007	-0.791504	-0.059082	-0.387451
1173.0	2.876245	-2.31774	9.4563	-0.302281	-4.434866	-1.230201	-0.808594	-0.066162	-0.346191
1174.0	0.578926	-1.230969	9.28944	0.007166	-4.954011	-0.991322	-0.823486	-0.075439	-0.315674
1175.0	7.514494	-5.639455	9.04431	-0.073395	-6.231381	-1.049301	-0.837891	-0.089111	-0.250732
1176.0	3.069957	-3.008286	11.013816	-0.096122	-6.505995	-2.009632	-0.845703	-0.109375	-0.196533
1177.0	4.841483	-6.554934	11.975485	1.148379	-7.878419	-2.272458	-0.851318	-0.129639	-0.120605
1178.0	23.066662	-3.958923	15.39424	1.369575	-9.294387	-3.394658	-0.854248	-0.160889	-0.044434
1179.0	9.676229	-6.538553	20.598457	-1.133182	-8.966743	-3.039702	-0.837891	-0.187744	0.033691
1180.0	16.057737	-4.686374	18.987729	2.019092	-10.710365	-2.688517	-0.815674	-0.195557	0.133545
1181.0	19.834858	-1.767615	25.925171	3.883033	-11.054516	-0.640412	-0.795898	-0.19458	0.226807
1182.0	24.341073	-4.781653	26.362955	-0.655715	-9.630582	-0.172701	-0.760498	-0.201904	0.29834
1183.0	9.577134	-13.529415	27.132841	-1.261193	-8.387906	-1.311427	-0.724854	-0.221924	0.35498
1184.0	-3.884235	-5.780504	19.14141	0.644097	-7.036689	-2.994129	-0.689209	-0.237549	0.413574
1185.0	29.579272	-10.419214	46.288265	3.994597	-5.048891	-2.963429	-0.671631	-0.23999	0.44165
1186.0	25.912436	2.224705	46.188617	0.582836	-0.068026	-1.459219	-0.67334	-0.252686	0.426514
1187.0	3.579092	-7.113867	28.677384	-3.598452	4.591235	-0.357184	-0.696777	-0.271729	0.39209
1188.0	-9.126047	-12.096437	13.612874	-0.315543	2.987556	-0.862902	-0.705322	-0.275879	0.374756
1189.0	-5.818554	-3.608598	11.387276	0.408123	2.874138	-0.482491	-0.714111	-0.277588	0.353027
1190.0	-5.745569	-4.430707	8.798764	-0.353974	3.372795	-0.522074	-0.724609	-0.283691	0.324707
1191.0	-3.21927	-3.898429	8.99789	0.001399	3.044675	-0.384917	-0.737793	-0.285889	0.311768
1192.0	0.734818	-3.868397	10.003976	-0.330595	3.495919	-0.135677	-0.748291	-0.294189	0.285889
1193.0	2.121482	-4.939513	9.827889	-0.532167	4.049724	0.172981	-0.768066	-0.293701	0.251221
1194.0	3.593208	-5.044617	9.692132	-0.390214	4.457483	0.450438	-0.787842	-0.287109	0.227295
1195.0	4.544135	-4.627852	9.084135	-0.327351	4.88145	0.743923	-0.802979	-0.292969	0.188232
1196.0	5.399172	-4.131382	8.562092	-0.257721	5.187753	1.01715	-0.821045	-0.279785	0.15332
1197.0	6.443118	-3.432795	8.034856	-0.182718	5.424504	1.258567	-0.843506	-0.261963	0.109863
1198.0	7.335457	-2.499637	7.664434	-0.160321	5.5991	1.460827	-0.85498	-0.250732	0.066406
1199.0	7.866969	-1.774017	7.221947	-0.266824	5.781504	1.582623	-0.875244	-0.237305	0.031738
1200.0	8.367003	-1.396312	7.154544	-0.304871	5.833861	1.613801	-0.893311	-0.221924	-0.005127
1201.0	9.191388	-0.973902	7.874097	-0.319032	5.824507	1.571928	-0.908936	-0.212646	-0.05957
1202.0	10.17271	-0.648316	8.580432	-0.335203	5.836144	1.478213	-0.92041	-0.201172	-0.10498
1203.0	10.997122	-0.779481	9.268357	-0.479043	5.957419	1.363208	-0.927979	-0.178955	-0.167969
1204.0	11.529289	-1.691858	9.675296	-0.558104	6.022387	1.287366	-0.931152	-0.156738	-0.211426
1205.0	12.091449	-2.484684	10.092726	-0.536088	6.00069	1.276062	-0.936279	-0.138916	-0.254883
1206.0	12.423588	-3.005727	10.579579	-0.532157	5.955748	1.352336	-0.935059	-0.112793	-0.289795
1207.0	12.812273	-3.209427	11.382987	-0.524973	5.852027	1.475336	-0.939941	-0.101563	-0.324463
1208.0	13.225295	-2.912183	12.312546	-0.549475	5.718916	1.620911	-0.962402	-0.083984	-0.35498
1209.0	13.451655	-2.478849	13.288039	-0.626125	5.559947	1.73295	-0.998291	-0.059814	-0.405029
1210.0	13.967709	-2.175752	14.345876	-0.705329	5.341203	1.790164	-1.045898	-0.018311	-0.468262
1211.0	16.07143	-2.140096	15.686055	-0.740302	5.067227	1.810235	-1.0896	0.038818	-0.561768
1212.0	19.624423	-2.379898	16.978659	-0.669838	4.859909	1.812984	-1.109619	0.098145	-0.661865
1213.0	24.322609	-3.139225	18.028258	-0.505819	4.801468	1.7782	-1.107666	0.153564	-0.779053
1214.0	29.049755	-3.092831	17.641811	-0.130711	4.849706	1.672593	-1.087891	0.202637	-0.894287
1215.0	31.386546	-2.916267	14.667295	-0.109971	5.306586	1.521902	-1.037842	0.249512	-1.00708
1216.0	33.805236	-2.177833	10.19773	0.194421	5.471325	1.201683	-0.967529	0.285645	-1.115479
1217.0	37.138841	1.64616	2.521794	0.786989	5.497667	0.928298	-0.875	0.308838	-1.212891
1218.0	41.439017	9.962659	-8.429504	1.443775	4.96248	2.160097	-0.777832	0.322998	-1.275635
1219.0	47.15896	26.311712	-23.513962	0.688381	4.152368	2.537885	-0.68335	0.356445	-1.327637
1220.0	38.963826	26.34168	-37.327988	-6.647051	5.043709	1.516001	-0.59082	0.496826	-1.345703
1221.0	21.241709	-0.495765	-41.391142	-12.535705	6.224274	-0.690247	-0.501465	0.660645	-1.339844
1222.0	8.514231	-18.672156	-34.66343	-6.952924	4.604076	-3.401604	-0.480469	0.740479	-1.353027
1223.0	1.420956	-32.900913	-32.986288	3.78628	-7.858337	-3.224579	-0.66626	0.645264	-1.374756
1224.0	14.091634	1.669892	-6.674326	14.467358	-14.927859	-4.168508	-0.843506	0.496338	-1.38501
1225.0	40.365417	27.347547	39.611452	1.522979	-4.939399	-0.842262	-0.887207	0.556396	-1.391846
1226.0	14.888763	-0.419704	19.424782	-4.78854	-1.976579	0.901612	-0.919189	0.655029	-1.373047
1227.0	2.934741	-7.511944	-0.18572	1.21647	-6.320081	0.91446	-1.012451	0.648193	-1.366699
1228.0	28.843791	22.732892	36.8047	5.084304	-7.551413	0.620722	-1.091797	0.615479	-1.35791
1229.0	20.100525	27.085505	20.108032	0.573168	-2.667723	-1.036763	-1.140625	0.63916	-1.364502
1230.0	20.236822	-7.28254	19.443526	-5.096959	-0.239955	-1.586263	-1.141113	0.705811	-1.371338
1231.0	4.667477	-43.43346	-4.305347	-0.831508	-0.149838	-2.776075	-1.180176	0.649902	-1.38208
1232.0	5.814709	-1.401277	13.038472	8.171503	-3.234419	-0.918175	-1.241211	0.533691	-1.398926
1233.0	20.95525	24.150591	30.074009	4.55418	-2.870726	-0.502114	-1.251709	0.525146	-1.40332
1234.0	12.089083	-0.988663	6.770212	-3.479812	2.112676	-0.868213	-1.225342	0.572754	-1.422852
1235.0	-0.87112	-6.141776	12.347257	-0.879469	0.581453	-0.044127	-1.238037	0.562012	-1.420654
1236.0	7.257061	-1.502873	8.781008	2.36833	-1.579241	-0.083972	-1.252197	0.536133	-1.418457
1237.0	6.901089	2.16653	9.257889	-0.369578	0.4133	-0.062891	-1.244141	0.55127	-1.420654
1238.0	2.948629	-2.052495	9.759373	-0.912866	0.743203	-0.035996	-1.242188	0.557617	-1.422852
1239.0	3.547505	-2.741258	8.835757	0.693693	-0.418314	-0.022169	-1.243896	0.546875	-1.425049
1240.0	5.547626	-0.430617	8.979406	0.29812	-0.175807	-0.016853	-1.246094	0.549316	-1.431641
1241.0	4.063891	-1.921219	9.104108	-0.228962	0.221116	-0.015951	-1.241699	0.549072	-1.429443
1242.0	4.03022	-1.798972	8.93077	0.248363	-0.204553	-0.017791	-1.246094	0.544922	-1.425049
1243.0	4.805527	-1.063668	9.013058	0.049336	-0.078082	-0.006372	-1.248047	0.542725	-1.429443
1244.0	3.940067	-1.804651	8.911664	-0.042481	-0.058508	-0.011212	-1.250488	0.547119	-1.429443
1245.0	4.564923	-1.084444	8.918413	0.066563	-0.192817	0.001286	-1.252441	0.544922	-1.427246
1246.0	4.282662	-1.623357	8.830649	-0.10581	-0.094555	0.002472	-1.256836	0.546875	-1.429443
1247.0	4.292524	-1.539629	8.841659	-0.022241	-0.180971	0.0049	-1.252441	0.544922	-1.427246
1248.0	4.316756	-1.503978	8.829214	-0.094746	-0.15842	0.004885	-1.25708	0.549072	-1.422852
1249.0	4.207535	-1.584198	8.832973	-0.084609	-0.18863	0.002009	-1.261475	0.549072	-1.418457
1250.0	4.303114	-1.513663	8.772876	-0.10111	-0.198874	-0.002367	-1.265625	0.549072	-1.418457
1251.0	4.338407	-1.560449	8.718867	-0.116784	-0.214309	-0.002935	-1.26123	0.548828	-1.412109
1252.0	4.279677	-1.578853	8.738542	-0.121456	-0.230374	-0.006095	-1.263672	0.551025	-1.407715
1253.0	4.317609	-1.626789	8.682673	-0.133605	-0.246595	-0.014361	-1.265625	0.548828	-1.409912
1254.0	4.391947	-1.770846	8.612527	-0.1309	-0.253789	-0.031873	-1.274414	0.546631	-1.405518
1255.0	4.551502	-1.565976	8.57903	-0.118593	-0.254832	-0.041488	-1.282959	0.544434	-1.401123
1256.0	4.346624	-1.262335	8.731031	-0.158214	-0.236465	-0.043384	-1.300537	0.548584	-1.39917
1257.0	4.676844	-1.545848	8.424281	-0.164761	-0.281061	-0.030681	-1.314453	0.569824	-1.384033
1258.0	4.725043	-1.351454	8.528724	-0.201097	-0.227647	-0.020918	-1.297852	0.593506	-1.379883
1259.0	4.715865	-1.420377	8.508742	-0.199624	-0.204321	-0.006423	-1.284424	0.587158	-1.381836
1260.0	4.689059	-1.60885	8.421187	-0.206202	-0.178111	-0.001073	-1.290527	0.572021	-1.379639
1261.0	4.649749	-1.682777	8.451237	-0.197518	-0.149584	-0.000403	-1.290527	0.572021	-1.375488
1262.0	4.511161	-1.686751	8.524045	-0.181425	-0.142856	-0.007641	-1.290527	0.574219	-1.377441
1263.0	4.357452	-1.879117	8.546643	-0.177751	-0.138807	-0.026103	-1.301514	0.576172	-1.371094
1264.0	4.382784	-1.659828	8.552588	-0.121614	-0.192595	-0.031688	-1.296875	0.56958	-1.366699
1265.0	4.425046	-1.439257	8.589387	-0.13737	-0.219006	-0.019477	-1.299316	0.578125	-1.366699
1266.0	4.328248	-1.428781	8.70303	-0.146637	-0.268962	-0.00302	-1.308105	0.580322	-1.368896
1267.0	4.28478	-1.581948	8.73528	-0.160547	-0.356412	0.00648	-1.310547	0.584473	-1.358154
1268.0	4.245849	-1.558346	8.805167	-0.16477	-0.440979	0.006519	-1.321045	0.577881	-1.345215
1269.0	4.253146	-1.739355	8.794826	-0.204642	-0.54495	-0.0036	-1.321533	0.586426	-1.338623
1270.0	4.40007	-1.629601	8.800909	-0.198269	-0.662152	-0.009579	-1.325928	0.590576	-1.330078
1271.0	4.039417	-1.311263	9.120608	-0.260426	-0.795758	-0.000678	-1.339111	0.592529	-1.323486
1272.0	4.420348	-1.554306	8.761975	-0.236341	-0.96168	-0.028855	-1.347656	0.592285	-1.306152
1273.0	4.40579	-1.015049	9.065346	-0.208151	-1.109777	-0.030865	-1.36084	0.596436	-1.304199
1274.0	4.319671	-1.723547	8.953137	-0.331912	-1.231059	-0.070913	-1.380615	0.600342	-1.278076
1275.0	3.571876	-3.015428	9.009322	-0.38798	-1.41733	-0.234138	-1.402344	0.599854	-1.25
1276.0	2.979839	-3.05437	9.15038	-0.095225	-1.948402	-0.459233	-1.421387	0.588867	-1.230469
1277.0	3.297051	-2.52962	9.556695	0.037918	-2.566046	-0.563163	-1.447266	0.581787	-1.193604
1278.0	3.718758	-2.229962	9.828598	-0.11727	-3.222059	-0.671822	-1.481445	0.572266	-1.141602
1279.0	2.503728	-1.317815	10.254725	0.032539	-3.929627	-1.092806	-1.524414	0.556396	-1.085205
1280.0	2.2957	-2.001306	10.312804	0.060484	-4.808852	-1.294374	-1.569092	0.537842	-1.011475
1281.0	0.871465	-3.11941	11.63685	-0.145342	-5.475606	-1.433972	-1.614014	0.519287	-0.918457
1282.0	-0.478927	-3.515565	10.743721	-0.09429	-6.783695	-1.220713	-1.667236	0.496094	-0.807861
1283.0	12.076631	-4.58685	11.736711	0.581204	-8.479278	-2.09998	-1.719971	0.459717	-0.677734
1284.0	5.132918	-4.89983	16.122084	-0.052303	-8.726533	-2.66329	-1.763428	0.410156	-0.530029
1285.0	12.160901	-6.453169	16.123686	1.4688	-10.301026	-2.891923	-1.787354	0.360352	-0.365234
1286.0	19.860226	-1.884794	16.527973	0.798926	-10.412939	-2.947434	-1.784668	0.300049	-0.195801
1287.0	19.046105	-4.727005	22.679198	1.884844	-10.489008	-2.070993	-1.754883	0.267822	-0.039551
1288.0	22.197024	-5.652879	21.312398	1.462049	-9.630239	-1.170218	-1.704346	0.263916	0.101563
1289.0	17.006149	-13.65913	20.065428	2.222879	-8.445862	-1.463764	-1.635498	0.237305	0.188477
1290.0	-3.231105	-7.941188	17.085915	2.271887	-6.977035	-3.292887	-1.56665	0.202393	0.249268
1291.0	8.769396	-6.688538	22.121273	7.009121	-6.462699	-3.784819	-1.493652	0.17627	0.282227
1292.0	30.425984	16.696925	50.951081	6.116479	-3.880728	-2.514902	-1.408447	0.164063	0.25415
1293.0	18.081736	9.449833	37.498874	-2.366459	2.602486	-0.762101	-1.305908	0.155029	0.169922
1294.0	-0.500634	-6.896155	19.390914	-3.97158	4.359452	-0.346698	-1.203369	0.147461	0.118164
1295.0	-4.632161	-8.86732	9.69466	-1.322889	3.076629	-0.669492	-1.104736	0.132813	0.111816
1296.0	-4.00288	-7.17422	5.305659	-1.03536	3.4457	-0.331995	-1.025879	0.120117	0.122803
1297.0	-5.592552	-9.770797	2.501546	-0.367261	3.647624	-0.247555	-0.981934	0.106934	0.151123
1298.0	-2.894036	-7.195242	4.458221	1.152434	2.943519	4.6e-05	-0.963867	0.095703	0.192383
1299.0	1.125307	-4.118735	7.467651	1.21108	3.362753	0.301962	-0.985107	0.084473	0.225098
1300.0	2.378892	-2.468764	8.520553	0.653134	4.015168	0.735899	-1.017334	0.071533	0.216309
1301.0	2.994291	-1.734404	8.487883	0.2356	4.480936	1.086599	-1.06958	0.067383	0.190186
1302.0	3.676425	-1.676786	7.792928	-0.098731	4.925243	1.295312	-1.100342	0.072266	0.144775
1303.0	3.968291	-1.510568	7.128156	-0.143889	5.219184	1.336506	-1.126709	0.075195	0.077393
1304.0	4.907902	-0.881655	6.962232	0.013143	5.36544	1.250712	-1.153076	0.082275	0.025391
1305.0	5.964533	0.160452	7.13414	0.024671	5.5406	1.096747	-1.177246	0.083008	-0.033203
1306.0	6.833507	0.779988	7.512127	-0.182742	5.776868	0.918694	-1.214355	0.08374	-0.098389
1307.0	7.951912	0.920713	8.065426	-0.306842	5.860303	0.735439	-1.257813	0.076172	-0.200195
