Acquisition frequency: 100 Hz
PacketCounter	Acc_X	Acc_Y	Acc_Z	Gyr_X	Gyr_Y	Gyr_Z	Mag_X	Mag_Y	Mag_Z
1.0	6.756538	-1.385911	7.125913	-0.004211	0.007175	-0.00377	-0.677979	-0.005859	-0.320313
2.0	6.739418	-1.369872	7.111954	-0.008204	0.006703	-0.004424	-0.673584	-0.005859	-0.318115
3.0	6.760429	-1.422665	7.151602	-0.004924	0.011242	-0.004929	-0.68042	-0.003662	-0.318115
4.0	6.753224	-1.36388	7.14352	-0.003699	0.00699	-0.003624	-0.677979	-0.005859	-0.324463
5.0	6.765081	-1.388689	7.103881	-0.004087	0.010995	-0.003554	-0.676025	-0.003662	-0.320313
6.0	6.754068	-1.40889	7.113607	-0.004909	0.007479	-0.00283	-0.673584	-0.005859	-0.318115
7.0	6.747265	-1.396674	7.134214	-0.007382	0.010217	-0.005148	-0.68042	-0.003906	-0.315918
8.0	6.756993	-1.37662	7.125683	-0.002877	0.010505	-0.004346	-0.671631	-0.005859	-0.315918
9.0	6.762637	-1.38902	7.106143	-0.005746	0.007723	-0.004204	-0.678223	-0.003906	-0.315918
10.0	6.751708	-1.409165	7.115792	-0.003288	0.008746	-0.003984	-0.676025	-0.003662	-0.32666
11.0	6.776468	-1.382958	7.137696	-0.003662	0.008989	-0.001815	-0.673584	-0.005859	-0.318115
12.0	6.750469	-1.409225	7.116956	-0.003714	0.010749	-0.00572	-0.677979	-0.008057	-0.320313
13.0	6.753978	-1.376736	7.128519	-0.004498	0.009234	-0.00319	-0.675781	-0.008057	-0.32666
14.0	6.753328	-1.376711	7.12914	-0.00455	0.010993	-0.007095	-0.678223	-0.001709	-0.315918
15.0	6.746391	-1.364214	7.14991	-0.002877	0.010502	-0.004344	-0.68042	-0.003906	-0.315918
16.0	6.764374	-1.401276	7.090366	-0.004513	0.012993	-0.005287	-0.673828	-0.005859	-0.328857
17.0	6.736313	-1.382587	7.100651	-0.003324	0.006743	-0.00579	-0.676025	-0.005859	-0.32666
18.0	6.75693	-1.388771	7.111619	-0.003252	0.010743	-0.002175	-0.673828	-0.003662	-0.322266
19.0	6.739643	-1.396429	7.141463	-0.003749	0.008745	-0.007526	-0.677979	-0.005859	-0.318115
20.0	6.7558	-1.38865	7.112716	-0.004909	0.007473	-0.002828	-0.671631	-0.001465	-0.32251
21.0	6.738583	-1.396506	7.142448	-0.005334	0.009475	-0.004564	-0.677979	-0.008057	-0.32666
22.0	6.754554	-1.388896	7.113851	-0.005299	0.011475	-0.002756	-0.673584	-0.008057	-0.318115
23.0	6.753882	-1.388974	7.114474	-0.003287	0.008741	-0.003981	-0.673584	-0.008057	-0.324463
24.0	6.742599	-1.362604	7.095398	-0.00537	0.007474	-0.006371	-0.673828	-0.003662	-0.328857
25.0	6.75279	-1.388917	7.115522	-0.004924	0.011231	-0.004923	-0.68042	-0.003662	-0.32251
26.0	6.745817	-1.376719	7.136245	-0.004038	0.009225	0.000356	-0.673828	-0.003662	-0.318115
27.0	6.745262	-1.376852	7.136744	-0.005369	0.007473	-0.006371	-0.68042	-0.001709	-0.315918
28.0	6.740576	-1.409244	7.126322	-0.003713	0.010742	-0.005715	-0.677979	-0.010254	-0.322266
29.0	6.750472	-1.389087	7.117688	-0.004944	0.00547	-0.004635	-0.680176	-0.010254	-0.322266
30.0	6.743741	-1.376715	7.138208	-0.004123	0.008984	-0.005355	-0.677979	-0.008057	-0.324463
31.0	6.745326	-1.421567	7.107689	-0.004499	0.009226	-0.003186	-0.678223	-0.003662	-0.32251
32.0	6.763708	-1.38307	7.149767	-0.003663	0.00898	-0.001811	-0.677979	-0.008057	-0.320313
33.0	6.748356	-1.389285	7.119655	-0.005779	0.005714	-0.00601	-0.671631	-0.005859	-0.320313
34.0	6.737465	-1.409532	7.129207	-0.00571	0.009712	-0.002393	-0.676025	-0.003662	-0.322266
35.0	6.7411	-1.377131	7.140621	-0.003732	0.004981	-0.005427	-0.682373	-0.008057	-0.318115
36.0	6.721821	-1.415715	7.099378	-0.004943	0.005468	-0.004635	-0.669434	-0.001465	-0.320313
37.0	6.757049	-1.369315	7.112136	-0.004123	0.008981	-0.005353	-0.678223	-0.001465	-0.32251
38.0	6.735699	-1.409662	7.13085	-0.006956	0.008198	-0.003408	-0.671631	-0.001465	-0.32251
39.0	6.766732	-1.396013	7.132657	-0.006956	0.008198	-0.003408	-0.678223	-0.003662	-0.32666
40.0	6.738682	-1.377627	7.142808	-0.005334	0.009467	-0.004559	-0.673584	-0.010254	-0.320068
41.0	6.735968	-1.408523	7.072489	-0.004108	0.005222	-0.003259	-0.674072	0.000732	-0.32251
42.0	6.750337	-1.402546	7.10348	-0.005711	0.009709	-0.002391	-0.676025	-0.003662	-0.318115
43.0	6.758451	-1.384224	7.154513	-0.006187	0.003954	-0.00565	-0.682373	-0.005859	-0.320313
44.0	6.74319	-1.390406	7.12433	-0.006169	0.009711	-0.005934	-0.677979	-0.005859	-0.324463
45.0	6.74264	-1.390489	7.124834	-0.005744	0.007709	-0.004199	-0.671631	-0.003662	-0.322266
46.0	6.742112	-1.390518	7.125328	-0.004122	0.008979	-0.00535	-0.676025	-0.001465	-0.320313
47.0	6.741522	-1.390554	7.125879	-0.003665	0.008975	-0.001807	-0.677979	-0.005859	-0.324463
48.0	6.768397	-1.409202	7.116809	-0.005334	0.009464	-0.004557	-0.678223	-0.003662	-0.32251
49.0	6.740358	-1.39076	7.12694	-0.005744	0.007707	-0.004199	-0.680176	-0.005859	-0.320313
50.0	6.739831	-1.390773	7.127436	-0.004956	0.009222	-0.006725	-0.678223	-0.001465	-0.320313
51.0	6.755888	-1.383013	7.098884	-0.005302	0.011461	-0.002747	-0.675781	-0.005859	-0.318115
52.0	6.732169	-1.378704	7.148739	-0.00779	0.008437	-0.004781	-0.680176	-0.010254	-0.320313
53.0	6.744241	-1.4036	7.10906	-0.005712	0.009703	-0.002388	-0.678223	-0.001709	-0.315918
54.0	6.747691	-1.371239	7.120644	-0.003287	0.008731	-0.003972	-0.671631	-0.003662	-0.324463
55.0	6.757945	-1.397577	7.140676	-0.003697	0.006974	-0.003615	-0.677979	-0.005859	-0.318115
56.0	6.736341	-1.391359	7.13062	-0.005365	0.007463	-0.006365	-0.673828	-0.003662	-0.32666
57.0	6.742299	-1.403696	7.110883	-0.004107	0.005218	-0.003257	-0.673584	-0.008057	-0.324463
58.0	6.714425	-1.385383	7.120809	-0.006532	0.006189	-0.001672	-0.675781	-0.005859	-0.322266
59.0	6.756164	-1.39801	7.142277	-0.003256	0.010727	-0.002161	-0.680176	-0.005859	-0.320313
60.0	6.728067	-1.379524	7.152442	-0.004531	0.007218	-0.004989	-0.676025	-0.003662	-0.328857
61.0	6.740382	-1.404175	7.112605	-0.004941	0.005461	-0.004632	-0.678223	-0.003662	-0.320313
62.0	6.733585	-1.391861	7.133125	-0.003287	0.008729	-0.00397	-0.676025	-0.003662	-0.324463
63.0	6.76013	-1.363771	7.095503	-0.000831	0.009755	-0.003744	-0.676025	-0.001465	-0.32251
64.0	6.753711	-1.397883	7.144622	-0.006184	0.003949	-0.00565	-0.675781	-0.008057	-0.324463
65.0	6.711016	-1.385495	7.123999	-0.003287	0.008728	-0.00397	-0.676025	-0.001465	-0.320313
66.0	6.737921	-1.404083	7.114955	-0.00738	0.010186	-0.005137	-0.677979	-0.005859	-0.322266
67.0	6.745821	-1.385672	7.166143	-0.003318	0.00673	-0.00578	-0.676025	-0.003662	-0.322266
68.0	6.736975	-1.404012	7.115864	-0.004531	0.007215	-0.004988	-0.673828	-0.001465	-0.32251
69.0	6.746987	-1.38389	7.107175	-0.004107	0.005215	-0.003256	-0.677979	-0.005859	-0.322266
70.0	6.740232	-1.371627	7.127631	-0.003697	0.00697	-0.003612	-0.678223	-0.001465	-0.32666
71.0	6.740107	-1.418055	7.156694	-0.002075	0.008241	-0.00476	-0.678223	-0.003662	-0.324463
72.0	6.755904	-1.363793	7.099523	-0.00776	0.010424	-0.002968	-0.673584	-0.008057	-0.322266
73.0	6.734682	-1.404287	7.117981	-0.00247	0.002729	-0.002316	-0.680176	-0.006104	-0.313721
74.0	6.749009	-1.3982	7.149002	-0.004924	0.01121	-0.004908	-0.671631	-0.005859	-0.322266
75.0	6.75486	-1.410517	7.129398	-0.005773	0.005701	-0.006006	-0.675781	-0.010254	-0.315918
76.0	6.748095	-1.398228	7.149859	-0.003697	0.006969	-0.003611	-0.677979	-0.005859	-0.315918
77.0	6.747266	-1.351807	7.121707	-0.00491	0.007453	-0.002819	-0.678223	-0.003906	-0.315918
78.0	6.75354	-1.410692	7.130614	-0.00453	0.007212	-0.004986	-0.673584	-0.010254	-0.318115
79.0	6.731988	-1.404547	7.120477	-0.007818	0.006428	-0.00659	-0.678223	-0.001709	-0.315918
80.0	6.741857	-1.384399	7.111942	-0.002878	0.010479	-0.004322	-0.677979	-0.005859	-0.322266
81.0	6.747623	-1.396634	7.092446	-0.003288	0.008723	-0.003966	-0.677979	-0.005859	-0.320313
82.0	6.761895	-1.390438	7.123536	-0.003316	0.006727	-0.005777	-0.678223	-0.001465	-0.320313
83.0	6.733945	-1.372052	7.133489	-0.006533	0.006179	-0.001671	-0.680176	-0.005859	-0.322266
84.0	6.739911	-1.384514	7.113763	-0.00453	0.00721	-0.004985	-0.675781	-0.005859	-0.322266
85.0	6.771004	-1.370543	7.115681	-0.003697	0.006966	-0.003609	-0.673828	-0.005859	-0.324463
86.0	6.732597	-1.3723	7.134713	-0.005743	0.007694	-0.004193	-0.676025	-0.001465	-0.32251
87.0	6.742833	-1.398857	7.154698	-0.006957	0.008177	-0.003402	-0.673584	-0.005859	-0.318115
88.0	6.71694	-1.378644	7.104911	-0.00539	0.005457	-0.008172	-0.675781	-0.005859	-0.318115
89.0	6.769069	-1.370922	7.117449	-0.007352	0.012171	-0.00332	-0.673828	-0.005859	-0.324463
90.0	6.747709	-1.411482	7.135976	-0.002441	0.004722	-0.000502	-0.675781	-0.008057	-0.318115
91.0	6.736454	-1.385131	7.116917	-0.003711	0.010719	-0.005693	-0.676025	-0.003662	-0.322266
92.0	6.757052	-1.391184	7.127984	-0.003315	0.006724	-0.005775	-0.675781	-0.008057	-0.32666
93.0	6.750252	-1.3789	7.14845	-0.006984	0.006179	-0.005213	-0.676025	0.000488	-0.32251
94.0	6.751971	-1.377259	7.08903	-0.006152	0.005935	-0.003837	-0.671631	-0.005859	-0.320313
95.0	6.739059	-1.399393	7.158149	-0.005743	0.00769	-0.004192	-0.678223	-0.003662	-0.320313
96.0	6.750958	-1.377428	7.089962	-0.002879	0.010473	-0.004316	-0.684814	-0.001465	-0.32251
97.0	6.754657	-1.391422	7.130207	-0.004952	0.009205	-0.006713	-0.675781	-0.005859	-0.322266
98.0	6.722649	-1.405286	7.129149	-0.003315	0.006723	-0.005774	-0.677979	-0.005859	-0.324463
99.0	6.774533	-1.350871	7.113109	-0.003697	0.006962	-0.003607	-0.678223	-0.003662	-0.324463
100.0	6.759679	-1.403493	7.11148	-0.003288	0.008717	-0.003961	-0.677979	-0.008057	-0.324463
101.0	6.74627	-1.378831	7.152221	-0.002906	0.008477	-0.006127	-0.680176	-0.010254	-0.320313
102.0	6.752161	-1.390982	7.132657	-0.003288	0.008716	-0.00396	-0.677979	-0.005859	-0.324463
103.0	6.768557	-1.383256	7.103938	-0.006943	0.004416	-0.001317	-0.68457	-0.003662	-0.32251
104.0	6.730188	-1.385086	7.122852	-0.002906	0.008476	-0.006127	-0.678223	-0.003662	-0.320313
105.0	6.767648	-1.383312	7.104793	-0.005743	0.007686	-0.004191	-0.677979	-0.005859	-0.324463
106.0	6.754317	-1.358767	7.145422	-0.003314	0.006721	-0.005772	-0.675781	-0.008057	-0.322266
107.0	6.728615	-1.384942	7.124366	-0.004517	0.01295	-0.005251	-0.673828	-0.003662	-0.320313
108.0	6.752977	-1.358642	7.146711	-0.003288	0.008714	-0.003959	-0.678223	-0.003662	-0.328857
109.0	6.754983	-1.403347	7.115969	-0.003697	0.006959	-0.003605	-0.673828	-0.003662	-0.318115
110.0	6.748041	-1.391229	7.136507	-0.006957	0.008167	-0.003399	-0.677979	-0.005859	-0.322266
111.0	6.726361	-1.385149	7.126453	-0.004119	0.008956	-0.005334	-0.673584	-0.005859	-0.313721
112.0	6.746939	-1.391447	7.137506	-0.006126	0.007923	-0.002023	-0.676025	-0.001465	-0.320313
113.0	6.763274	-1.383727	7.108876	-0.005742	0.007683	-0.004189	-0.68042	-0.003662	-0.318115
114.0	6.746019	-1.391728	7.138321	-0.005768	0.005689	-0.006003	-0.675781	-0.008057	-0.322266
115.0	6.762404	-1.383829	7.109683	-0.005334	0.009437	-0.004542	-0.675781	-0.005859	-0.322266
116.0	6.734263	-1.365498	7.119727	-0.005742	0.007682	-0.004189	-0.677979	-0.005859	-0.32666
117.0	6.740534	-1.424415	7.128615	-0.005334	0.009436	-0.004541	-0.676025	-0.003662	-0.324463
118.0	6.754251	-1.371797	7.131344	-0.003288	0.008711	-0.003956	-0.677979	-0.005859	-0.322266
119.0	6.747189	-1.359569	7.152001	-0.005334	0.009435	-0.004541	-0.676025	-0.001465	-0.32251
120.0	6.738606	-1.377954	7.1016	-0.006175	0.003932	-0.00565	-0.673828	-0.001465	-0.32666
121.0	6.759347	-1.384142	7.112529	-0.003288	0.00871	-0.003955	-0.680176	-0.008057	-0.324463
122.0	6.731098	-1.365715	7.122678	-0.004925	0.011188	-0.004892	-0.673828	-0.005859	-0.324463
123.0	6.779238	-1.390313	7.124272	-0.004527	0.007198	-0.004978	-0.677979	-0.005859	-0.324463
124.0	6.751128	-1.371855	7.134289	-0.004119	0.008952	-0.00533	-0.675781	-0.005859	-0.322266
125.0	6.72554	-1.398091	7.113104	-0.002458	0.008466	-0.002578	-0.678223	-0.003906	-0.315918
126.0	6.75009	-1.37193	7.135256	-0.00532	0.005681	-0.00246	-0.673584	-0.008057	-0.318115
127.0	6.739296	-1.39225	7.144568	-0.003697	0.006954	-0.003602	-0.673828	-0.003662	-0.320313
128.0	6.759742	-1.351884	7.126975	-0.006174	0.00393	-0.00565	-0.673584	-0.008057	-0.322266
129.0	6.72396	-1.398369	7.114543	-0.003288	0.008708	-0.003953	-0.678223	-0.003662	-0.324463
130.0	6.758834	-1.351724	7.127867	-0.000858	0.007745	-0.005534	-0.676025	-0.003662	-0.322266
131.0	6.754403	-1.384061	7.11724	-0.004504	0.009188	-0.003163	-0.671631	-0.005859	-0.322266
132.0	6.768456	-1.377948	7.148472	-0.002903	0.008468	-0.006119	-0.676025	-0.001465	-0.320313
133.0	6.753358	-1.383901	7.118263	-0.004527	0.007194	-0.004977	-0.680176	-0.005859	-0.322266
134.0	6.714887	-1.385765	7.137146	-0.005742	0.007675	-0.004187	-0.671631	-0.005859	-0.322266
135.0	6.762869	-1.363848	7.110126	-0.004105	0.005197	-0.00325	-0.673828	-0.005859	-0.320313
136.0	6.735006	-1.392058	7.148648	-0.004518	0.012937	-0.00524	-0.677979	-0.005859	-0.315918
137.0	6.75111	-1.384071	7.120362	-0.004926	0.011182	-0.004888	-0.675781	-0.008057	-0.320313
138.0	6.7402	-1.40433	7.12978	-0.004105	0.005196	-0.003249	-0.676025	-0.003662	-0.324463
139.0	6.726723	-1.3799	7.170403	-0.003288	0.008704	-0.003951	-0.676025	-0.001465	-0.320313
140.0	6.774529	-1.357888	7.143596	-0.005334	0.009427	-0.004537	-0.676025	-0.001465	-0.32251
141.0	6.738679	-1.404516	7.131181	-0.00532	0.005676	-0.002459	-0.677979	-0.005859	-0.318115
142.0	6.742088	-1.37232	7.142743	-0.006958	0.008152	-0.003395	-0.676025	-0.003662	-0.318115
143.0	6.748062	-1.384625	7.123142	-0.004948	0.009188	-0.006702	-0.677979	-0.01001	-0.324463
144.0	6.730648	-1.392617	7.152643	-0.002037	0.006464	-0.000847	-0.669434	-0.003662	-0.324463
145.0	6.751027	-1.35223	7.135165	-0.005763	0.005679	-0.006001	-0.68042	-0.001465	-0.32251
146.0	6.75101	-1.398759	7.163954	-0.00331	0.00671	-0.005765	-0.675781	-0.005859	-0.318115
147.0	6.746451	-1.384553	7.124683	-0.004104	0.005194	-0.003248	-0.676025	-0.003662	-0.322266
148.0	6.718402	-1.366274	7.134548	-0.005742	0.00767	-0.004185	-0.673584	-0.01001	-0.324463
149.0	6.766686	-1.390873	7.136085	-0.004526	0.00719	-0.004974	-0.68042	-0.003662	-0.32666
150.0	6.755515	-1.364491	7.116991	-0.003696	0.006947	-0.003598	-0.675781	-0.005859	-0.320313
151.0	6.723543	-1.378475	7.115762	-0.002072	0.008221	-0.004738	-0.677734	-0.012207	-0.322266
152.0	6.73763	-1.372285	7.146956	-0.007013	0.007915	-0.009102	-0.671631	-0.005859	-0.324463
153.0	6.750212	-1.396664	7.107232	-0.00163	0.008216	-0.001195	-0.673828	-0.003662	-0.320313
154.0	6.743139	-1.384537	7.12782	-0.005742	0.007668	-0.004184	-0.678223	-0.003662	-0.324463
155.0	6.732301	-1.404584	7.137189	-0.000469	0.007503	-0.007692	-0.675781	-0.005859	-0.324463
156.0	6.752646	-1.363812	7.119843	-0.003309	0.006708	-0.005763	-0.676025	-0.001465	-0.320313
157.0	6.7484	-1.396144	7.109055	-0.005355	0.007429	-0.006349	-0.677979	-0.008057	-0.324463
158.0	6.734872	-1.371636	7.149678	-0.003309	0.006707	-0.005763	-0.673584	-0.008057	-0.322266
159.0	6.751384	-1.363511	7.121097	-0.005355	0.007428	-0.006349	-0.68042	-0.001709	-0.313721
160.0	6.740684	-1.383781	7.130289	-0.004512	0.003437	-0.002898	-0.673828	-0.005859	-0.320313
161.0	6.740339	-1.383874	7.130597	-0.0074	0.008148	-0.006935	-0.671631	-0.005859	-0.320313
162.0	6.750263	-1.363882	7.122089	-0.00488	0.005665	0.001084	-0.680176	-0.010254	-0.324463
163.0	6.739478	-1.384249	7.131338	-0.003309	0.006706	-0.005762	-0.676025	-0.003906	-0.313721
164.0	6.770534	-1.370087	7.133491	-0.004526	0.007185	-0.004972	-0.671387	-0.008057	-0.322266
165.0	6.727948	-1.357791	7.112601	-0.004933	0.005431	-0.004623	-0.673828	-0.003662	-0.322266
166.0	6.727915	-1.404431	7.141354	-0.004526	0.007184	-0.004971	-0.675781	-0.008057	-0.318115
167.0	6.741688	-1.351833	7.144065	-0.006978	0.006151	-0.005209	-0.678223	-0.003662	-0.32251
168.0	6.758579	-1.390499	7.143837	-0.003697	0.006942	-0.003595	-0.675781	-0.005859	-0.322266
169.0	6.747551	-1.364095	7.124618	-0.004123	0.003198	-0.005063	-0.677979	-0.005859	-0.318115
170.0	6.761789	-1.358178	7.155602	-0.008195	0.006628	-0.004419	-0.669189	-0.01001	-0.324463
171.0	6.746897	-1.364393	7.12518	-0.004104	0.005188	-0.003246	-0.678223	-0.003662	-0.324463
172.0	6.742697	-1.39692	7.114312	-0.005742	0.007661	-0.004181	-0.673828	-0.003662	-0.320313
173.0	6.735689	-1.384873	7.134796	-0.006978	0.006149	-0.005208	-0.675781	-0.008057	-0.318115
174.0	6.745694	-1.364793	7.126242	-0.00615	0.005907	-0.003832	-0.675781	-0.008057	-0.320313
175.0	6.75195	-1.377215	7.1064	-0.00943	0.005115	-0.005446	-0.677979	-0.005859	-0.322266
176.0	6.741165	-1.397796	7.115591	-0.004475	0.007413	0.000738	-0.671387	-0.010254	-0.322266
177.0	6.740818	-1.397956	7.115889	-0.004123	0.003197	-0.005062	-0.673828	-0.003662	-0.320313
178.0	6.77622	-1.398173	7.157445	-0.006557	0.004153	-0.003483	-0.676025	-0.005859	-0.32666
179.0	6.750681	-1.377988	7.107455	-0.006978	0.006147	-0.005207	-0.677979	-0.010254	-0.322266
180.0	6.73339	-1.386322	7.136684	-0.007774	0.00463	-0.002694	-0.676025	-0.001465	-0.32666
181.0	6.750084	-1.37853	7.107917	-0.007385	0.004394	-0.004859	-0.675781	-0.005859	-0.318115
182.0	6.749838	-1.378743	7.108109	-0.006557	0.004152	-0.003483	-0.673828	-0.003662	-0.315918
183.0	6.743017	-1.366737	7.128403	-0.005339	0.003674	-0.004272	-0.675781	-0.010254	-0.315918
184.0	6.763864	-1.373102	7.139236	-0.008602	0.00487	-0.004069	-0.675781	-0.005859	-0.322266
185.0	6.749015	-1.379463	7.108751	-0.006539	0.00614	-0.001665	-0.675781	-0.008057	-0.320313
186.0	6.769698	-1.385932	7.119722	-0.008195	0.006623	-0.004416	-0.677979	-0.010254	-0.318115
187.0	6.720832	-1.408489	7.147222	-0.009412	0.0071	-0.003626	-0.673828	-0.005859	-0.320313
188.0	6.748986	-1.349864	7.180837	-0.000856	0.007737	-0.005516	-0.682617	-0.003662	-0.320313
189.0	6.773772	-1.428786	7.029745	-0.006556	0.00415	-0.003482	-0.677979	-0.005859	-0.322266
190.0	6.765321	-1.342047	7.152432	-0.006946	0.004385	-0.001317	-0.673828	-0.003662	-0.320313
191.0	6.708639	-1.382622	7.129012	-0.004525	0.007179	-0.004965	-0.677979	-0.005859	-0.315918
192.0	6.767479	-1.386838	7.121654	-0.006166	0.003913	-0.005647	-0.682373	-0.005859	-0.320313
193.0	6.746005	-1.380702	7.111367	-0.003291	0.00869	-0.003935	-0.677979	-0.005859	-0.318115
194.0	6.756243	-1.40724	7.131285	-0.008194	0.00662	-0.004415	-0.676025	-0.001709	-0.315918
195.0	6.738355	-1.368779	7.132418	-0.002884	0.010442	-0.004281	-0.673584	-0.008057	-0.324463
196.0	6.754774	-1.360633	7.104015	-0.003697	0.006936	-0.003588	-0.678223	-0.003662	-0.320313
197.0	6.737298	-1.368911	7.133391	-0.006133	0.007889	-0.00201	-0.673828	-0.003662	-0.322266
198.0	6.753799	-1.360919	7.104888	-0.005352	0.007418	-0.00634	-0.676025	-0.003662	-0.322266
199.0	6.767699	-1.354855	7.136207	-0.002884	0.010441	-0.00428	-0.677979	-0.008057	-0.322266
200.0	6.752673	-1.360822	7.105977	-0.003697	0.006935	-0.003588	-0.68042	-0.001709	-0.315918
201.0	6.731431	-1.401572	7.124059	-0.008178	0.008605	-0.002596	-0.68042	-0.003662	-0.320313
202.0	6.734473	-1.369331	7.135978	-0.000823	0.01171	-0.001873	-0.673828	-0.003662	-0.324463
203.0	6.754932	-1.37542	7.147243	-0.005351	0.007416	-0.006339	-0.675781	-0.005859	-0.318115
204.0	6.722976	-1.389509	7.145876	-0.003291	0.008686	-0.003933	-0.673828	-0.003662	-0.320313
205.0	6.753898	-1.375448	7.148215	-0.004915	0.007409	-0.002798	-0.678223	-0.003662	-0.320313
206.0	6.739026	-1.381596	7.117807	-0.006975	0.006138	-0.005204	-0.677979	-0.005859	-0.315918
207.0	6.759788	-1.387763	7.128775	-0.003712	0.004945	-0.005406	-0.677979	-0.006104	-0.311523
208.0	6.748583	-1.361472	7.109737	-0.007772	0.010354	-0.002941	-0.677979	-0.005859	-0.318115
209.0	6.758751	-1.388025	7.129707	-0.001652	0.006216	-0.002999	-0.673584	-0.01001	-0.324463
210.0	6.747905	-1.408209	7.138984	-0.004944	0.009166	-0.006683	-0.675781	-0.005859	-0.322266
211.0	6.730013	-1.369691	7.140115	-0.004915	0.007407	-0.002797	-0.675781	-0.008057	-0.320313
212.0	6.73979	-1.349437	7.131865	-0.003711	0.010677	-0.005652	-0.675781	-0.008057	-0.324463
213.0	6.756491	-1.388036	7.131847	-0.006554	0.009875	-0.003729	-0.671631	-0.003662	-0.320313
214.0	6.734804	-1.381987	7.121727	-0.003291	0.008683	-0.00393	-0.680176	-0.01001	-0.328857
215.0	6.751265	-1.373785	7.093359	-0.004117	0.008924	-0.005306	-0.68042	-0.003662	-0.32251
216.0	6.744185	-1.361576	7.113889	-0.003711	0.004943	-0.005405	-0.671631	-0.003662	-0.318115
217.0	6.750428	-1.373635	7.094185	-0.003291	0.008682	-0.003929	-0.675781	-0.005859	-0.320313
218.0	6.732754	-1.38179	7.123702	-0.004929	0.01115	-0.004861	-0.677979	-0.008057	-0.324463
219.0	6.742615	-1.361468	7.115397	-0.003711	0.004942	-0.005405	-0.680176	-0.008057	-0.318115
220.0	6.742194	-1.361403	7.115809	-0.003291	0.008681	-0.003929	-0.671631	-0.005859	-0.320313
221.0	6.762743	-1.367588	7.126987	-0.005742	0.007644	-0.004172	-0.675781	-0.008057	-0.320313
222.0	6.730781	-1.381769	7.125571	-0.004117	0.008921	-0.005304	-0.678223	-0.003662	-0.320313
223.0	6.740618	-1.361531	7.117277	-0.004916	0.007403	-0.002795	-0.676025	-0.003662	-0.322266
224.0	6.754418	-1.35581	7.148598	-0.007773	0.010345	-0.002938	-0.675781	-0.008057	-0.320313
225.0	6.756668	-1.400404	7.117839	-0.00413	0.012665	-0.007367	-0.675781	-0.008057	-0.322266
226.0	6.745233	-1.374036	7.099047	-0.004077	0.009148	0.000402	-0.677979	-0.005859	-0.322266
227.0	6.748727	-1.388431	7.139117	-0.003303	0.006693	-0.005748	-0.677979	-0.005859	-0.322266
228.0	6.758586	-1.368102	7.130829	-0.005335	0.009393	-0.004514	-0.675781	-0.005859	-0.322266
229.0	6.743579	-1.374239	7.100579	-0.005728	0.009627	-0.00235	-0.673828	-0.005859	-0.320313
230.0	6.774404	-1.360155	7.103076	-0.004942	0.009159	-0.006678	-0.673828	-0.005859	-0.320313
231.0	6.725354	-1.382436	7.130564	-0.00329	0.008677	-0.003926	-0.675781	-0.005859	-0.315918
232.0	6.762979	-1.380342	7.112874	-0.005347	0.007406	-0.006335	-0.677979	-0.008057	-0.320313
233.0	6.755852	-1.368391	7.133364	-0.006541	0.006122	-0.001662	-0.682617	-0.001709	-0.315918
234.0	6.741039	-1.374602	7.102921	-0.005741	0.007639	-0.00417	-0.675781	-0.008057	-0.324463
235.0	6.723367	-1.382873	7.132353	-0.004929	0.011142	-0.004856	-0.680176	-0.005859	-0.320313
236.0	6.750531	-1.401182	7.123507	-0.005741	0.007638	-0.004169	-0.673828	-0.001465	-0.320313
237.0	6.736566	-1.377086	7.164236	-0.005335	0.00939	-0.004512	-0.675781	-0.008057	-0.32666
238.0	6.753051	-1.368891	7.13592	-0.004116	0.008915	-0.0053	-0.676025	-0.001465	-0.32251
239.0	6.731381	-1.362836	7.125765	-0.006554	0.009863	-0.003724	-0.678223	-0.003662	-0.32251
240.0	6.758609	-1.381215	7.116857	-0.002046	0.006443	-0.000828	-0.671387	-0.007813	-0.32666
241.0	6.758061	-1.381351	7.117351	-0.007379	0.010102	-0.0051	-0.678223	-0.003662	-0.32666
242.0	6.740283	-1.389917	7.146801	-0.008168	0.010568	-0.000771	-0.673584	-0.008057	-0.318115
243.0	6.71857	-1.38402	7.136649	-0.004115	0.008914	-0.005299	-0.675781	-0.005859	-0.322266
244.0	6.787612	-1.367776	7.120995	-0.006565	0.007875	-0.005544	-0.678223	-0.003662	-0.320313
245.0	6.734567	-1.375975	7.108791	-0.006554	0.00986	-0.003722	-0.682129	-0.014648	-0.318115
246.0	6.754996	-1.382251	7.120085	-0.005335	0.009386	-0.00451	-0.677979	-0.005859	-0.324463
247.0	6.754488	-1.382448	7.120529	-0.007366	0.006356	-0.003038	-0.68457	-0.005859	-0.320313
248.0	6.73962	-1.38852	7.090178	-0.002884	0.010423	-0.004263	-0.674072	0.000732	-0.324463
249.0	6.753318	-1.38251	7.121627	-0.00329	0.008672	-0.003921	-0.678223	-0.003662	-0.32251
250.0	6.75271	-1.382619	7.122182	-0.00573	0.009617	-0.002345	-0.675781	-0.008057	-0.322266
251.0	6.731072	-1.376513	7.111997	-0.002894	0.008438	-0.006084	-0.680176	-0.005859	-0.324463
252.0	6.737292	-1.388624	7.092369	-0.00696	0.008105	-0.003379	-0.678223	0.000732	-0.328857
253.0	6.744226	-1.370759	7.143904	-0.004104	0.010894	-0.003473	-0.680176	-0.010254	-0.320313
254.0	6.753978	-1.350539	7.135742	-0.00574	0.007632	-0.004167	-0.676025	-0.001465	-0.32251
255.0	6.739412	-1.403486	7.133574	-0.007774	0.010328	-0.002933	-0.675781	-0.008057	-0.318115
256.0	6.738353	-1.357004	7.106041	-0.005324	0.011366	-0.002685	-0.677979	-0.008057	-0.324463
257.0	6.748329	-1.383638	7.126135	-0.007378	0.010094	-0.005096	-0.671631	-0.003662	-0.320313
258.0	6.741085	-1.371696	7.146687	-0.004101	0.005167	-0.003236	-0.675781	-0.007813	-0.331055
259.0	6.736692	-1.357412	7.107537	-0.00451	0.009141	-0.00313	-0.671387	-0.010254	-0.320068
260.0	6.74677	-1.383951	7.12755	-0.005334	0.00938	-0.004506	-0.673828	-0.003662	-0.324463
261.0	6.731942	-1.389993	7.097179	-0.005739	0.007629	-0.004165	-0.680176	-0.005859	-0.322266
262.0	6.738949	-1.372186	7.148607	-0.00696	0.008101	-0.003378	-0.671631	-0.005859	-0.322266
263.0	6.75553	-1.364049	7.120285	-0.00329	0.008667	-0.003917	-0.677979	-0.005859	-0.322266
264.0	6.733863	-1.357867	7.110131	-0.002884	0.010418	-0.004257	-0.680176	-0.005859	-0.324463
265.0	6.743917	-1.384444	7.130154	-0.009827	0.009051	-0.005343	-0.682617	-0.001709	-0.320313
266.0	6.729081	-1.390568	7.09978	-0.001643	0.008187	-0.001163	-0.673584	-0.008057	-0.320313
267.0	6.753183	-1.364392	7.122445	-0.005739	0.007627	-0.004165	-0.680176	-0.005859	-0.322266
268.0	6.773737	-1.370645	7.133644	-0.005739	0.007626	-0.004164	-0.675781	-0.010254	-0.320068
269.0	6.720726	-1.378894	7.121314	-0.006554	0.009848	-0.003717	-0.677979	-0.008057	-0.318115
270.0	6.765731	-1.358995	7.154843	-0.005731	0.009608	-0.00234	-0.677979	-0.005859	-0.324463
271.0	6.736907	-1.417815	7.121775	-0.00451	0.009136	-0.003127	-0.678223	-0.003662	-0.320313
272.0	6.729112	-1.359353	7.114344	-0.010216	0.011262	-0.001355	-0.675781	-0.005859	-0.315918
273.0	6.745861	-1.398268	7.114273	-0.007377	0.010086	-0.005092	-0.675781	-0.005859	-0.322266
274.0	6.755573	-1.378186	7.106164	-0.004085	0.009127	0.000414	-0.675781	-0.008057	-0.32666
275.0	6.737863	-1.386825	7.135413	-0.010231	0.007295	-0.005003	-0.678223	-0.001465	-0.32251
276.0	6.765182	-1.40538	7.126477	-0.009003	0.008806	-0.003965	-0.673584	-0.007813	-0.32666
277.0	6.715765	-1.381406	7.125506	-0.006959	0.008094	-0.003375	-0.68042	-0.003662	-0.32666
278.0	6.767603	-1.373583	7.138898	-0.005731	0.009605	-0.002338	-0.671387	-0.007813	-0.32666
279.0	6.745939	-1.367655	7.128681	-0.003687	0.008894	-0.001748	-0.68042	-0.003662	-0.324463
280.0	6.745369	-1.367844	7.129184	-0.007781	0.008333	-0.004751	-0.673828	-0.005859	-0.322266
281.0	6.741097	-1.400629	7.118323	-0.009812	0.013006	-0.001691	-0.673584	-0.010254	-0.322266
282.0	6.750849	-1.380619	7.110181	-0.004099	0.005161	-0.003233	-0.676025	-0.001465	-0.320313
283.0	6.743634	-1.368685	7.130664	-0.005737	0.007621	-0.004161	-0.677979	-0.005859	-0.320313
284.0	6.743125	-1.368884	7.131107	-0.006959	0.008091	-0.003374	-0.677979	-0.005859	-0.318115
285.0	6.732148	-1.389538	7.140278	-0.007775	0.010312	-0.002925	-0.677979	-0.01001	-0.324463
286.0	6.752501	-1.395953	7.151645	-0.006553	0.009841	-0.003712	-0.675781	-0.010254	-0.320068
287.0	6.762236	-1.375757	7.143564	-0.005332	0.00937	-0.004498	-0.673828	-0.001465	-0.32251
288.0	6.719615	-1.363695	7.122485	-0.006136	0.00785	-0.001997	-0.678223	-0.001709	-0.318115
289.0	6.746792	-1.38215	7.113733	-0.007369	0.01206	-0.003262	-0.673584	-0.01001	-0.324463
290.0	6.739315	-1.370343	7.134428	-0.005737	0.007619	-0.00416	-0.673828	-0.003662	-0.322266
291.0	6.73525	-1.402964	7.123396	-0.009002	0.008798	-0.003963	-0.673584	-0.008057	-0.320313
292.0	6.738193	-1.370856	7.135389	-0.003688	0.008889	-0.001744	-0.673584	-0.008057	-0.324463
293.0	6.727257	-1.391412	7.144521	-0.006958	0.008087	-0.003373	-0.677979	-0.005859	-0.322266
294.0	6.743891	-1.383236	7.116272	-0.006153	0.009607	-0.005873	-0.676025	-0.003662	-0.322266
295.0	6.726182	-1.391753	7.145468	-0.007363	0.006337	-0.003035	-0.675781	-0.005859	-0.320313
296.0	6.732473	-1.403922	7.125832	-0.001239	0.009928	-0.00149	-0.678223	-0.003662	-0.324463
297.0	6.718243	-1.379999	7.166571	-0.009828	0.007054	-0.007165	-0.675781	-0.01001	-0.324463
298.0	6.741767	-1.383906	7.118155	-0.005732	0.009596	-0.002332	-0.675781	-0.005859	-0.324463
299.0	6.755429	-1.378237	7.149524	-0.006141	0.005866	-0.003821	-0.669434	-0.005859	-0.320313
300.0	6.737297	-1.416709	7.107469	-0.006958	0.008084	-0.003371	-0.673584	-0.005859	-0.315918
301.0	6.733454	-1.372554	7.139535	-0.004915	0.007375	-0.002781	-0.678223	-0.003662	-0.32251
302.0	6.732883	-1.372762	7.140034	-0.005732	0.009594	-0.002331	-0.675781	-0.008057	-0.322266
303.0	6.739108	-1.384931	7.120472	-0.005331	0.009364	-0.004494	-0.68042	-0.001709	-0.318115
304.0	6.738662	-1.385138	7.120854	-0.008589	0.004823	-0.004074	-0.671387	-0.008057	-0.320068
305.0	6.759254	-1.391383	7.132045	-0.00493	0.009133	-0.006656	-0.675781	-0.008057	-0.318115
306.0	6.737799	-1.385246	7.121649	-0.004098	0.005155	-0.00323	-0.676025	-0.001465	-0.328857
307.0	6.758326	-1.391533	7.132895	-0.005732	0.009592	-0.00233	-0.673828	-0.003662	-0.322266
308.0	6.736761	-1.385765	7.122531	-0.008585	0.0068	-0.002247	-0.673828	-0.003662	-0.322266
309.0	6.746634	-1.365766	7.114324	-0.006958	0.008081	-0.00337	-0.680176	-0.005859	-0.320313
310.0	6.728931	-1.374448	7.143434	-0.006542	0.006092	-0.001657	-0.675781	-0.008057	-0.322266
311.0	6.766703	-1.372547	7.125913	-0.005316	0.007602	-0.000616	-0.682617	-0.001709	-0.318115
312.0	6.755768	-1.393119	7.135008	-0.005331	0.009361	-0.004491	-0.673828	-0.003662	-0.324463
313.0	6.75526	-1.393335	7.135447	-0.006542	0.006091	-0.001656	-0.677979	-0.008057	-0.322266
314.0	6.712639	-1.381162	7.114353	-0.004119	0.01263	-0.007325	-0.674072	0.000488	-0.320313
315.0	6.743384	-1.367084	7.117152	-0.006944	0.006319	0.000507	-0.671631	-0.003662	-0.320313
316.0	6.732488	-1.387755	7.126183	-0.00533	0.009359	-0.00449	-0.675781	-0.005859	-0.318115
317.0	6.721577	-1.408245	7.135259	-0.004915	0.00737	-0.002778	-0.676025	-0.003662	-0.322266
318.0	6.741823	-1.367634	7.118525	-0.006556	0.007849	-0.005531	-0.676025	-0.003906	-0.313721
319.0	6.752	-1.394188	7.138366	-0.003692	0.006902	-0.003563	-0.673584	-0.005859	-0.318115
320.0	6.730469	-1.388148	7.128013	-0.003689	0.00888	-0.001736	-0.676025	-0.001465	-0.324463
321.0	6.740684	-1.4148	7.147796	-0.008185	0.004588	-0.006237	-0.682129	-0.012451	-0.318115
322.0	6.753992	-1.362311	7.151224	-0.007371	0.012042	-0.003251	-0.675781	-0.005859	-0.320313
323.0	6.735765	-1.400715	7.109281	-0.006555	0.007847	-0.00553	-0.673584	-0.008057	-0.318115
324.0	6.735262	-1.400895	7.109722	-0.006958	0.008075	-0.003367	-0.673828	-0.001465	-0.32666
325.0	6.759243	-1.374814	7.132552	-0.003692	0.0069	-0.003562	-0.678223	-0.001465	-0.32251
326.0	6.727355	-1.389119	7.130763	-0.00533	0.009356	-0.004487	-0.676025	-0.001465	-0.32251
327.0	6.758212	-1.375045	7.133484	-0.008183	0.006563	-0.004409	-0.677979	-0.008057	-0.324463
328.0	6.726387	-1.389344	7.131632	-0.002884	0.00842	-0.006059	-0.677979	-0.008057	-0.320313
329.0	6.746922	-1.395543	7.1429	-0.006543	0.006084	-0.001655	-0.677979	-0.010254	-0.322266
330.0	6.725395	-1.389691	7.1325	-0.007373	0.01006	-0.005077	-0.673828	-0.003662	-0.322266
331.0	6.745847	-1.395917	7.143842	-0.003692	0.006898	-0.003561	-0.673828	-0.003662	-0.320313
332.0	6.734711	-1.369393	7.124916	-0.004107	0.008886	-0.005272	-0.676025	-0.003662	-0.318115
333.0	6.741125	-1.381335	7.105266	-0.003692	0.006898	-0.003561	-0.677979	-0.008057	-0.320313
334.0	6.744318	-1.395929	7.145283	-0.00533	0.009352	-0.004485	-0.675781	-0.008057	-0.320313
335.0	6.750692	-1.408009	7.125647	-0.004915	0.007364	-0.002774	-0.675781	-0.005859	-0.322266
336.0	6.753673	-1.375689	7.137658	-0.00697	0.007853	-0.009067	-0.673828	-0.001465	-0.324463
337.0	6.721811	-1.390139	7.135791	-0.006542	0.008058	0.000174	-0.673828	-0.001709	-0.318115
338.0	6.742356	-1.396502	7.147023	-0.005735	0.005625	-0.00598	-0.673828	-0.001465	-0.324463
339.0	6.759266	-1.388063	7.118712	-0.004511	0.007135	-0.004936	-0.675781	-0.008057	-0.320313
340.0	6.748466	-1.408441	7.127671	-0.004511	0.007135	-0.004936	-0.673584	-0.008057	-0.318115
341.0	6.744439	-1.364182	7.159878	-0.00533	0.00935	-0.004483	-0.682373	-0.008057	-0.324463
342.0	6.73327	-1.414218	7.097769	-0.002479	0.010165	-0.006388	-0.675781	-0.005859	-0.324463
343.0	6.739745	-1.396436	7.149498	-0.005735	0.009576	-0.002321	-0.673584	-0.005859	-0.313721
344.0	6.735508	-1.382012	7.11046	-0.003692	0.006895	-0.003559	-0.677979	-0.005859	-0.320313
345.0	6.756	-1.388056	7.121812	-0.006564	0.009598	-0.009399	-0.673584	-0.005859	-0.318115
346.0	6.748581	-1.375952	7.142422	-0.003287	0.006666	-0.005721	-0.68042	-0.001465	-0.32251
347.0	6.734037	-1.381762	7.111901	-0.004511	0.009108	-0.003105	-0.673828	-0.005859	-0.32666
348.0	6.730185	-1.384431	7.172099	-0.003288	0.008642	-0.003891	-0.669434	-0.005859	-0.322266
349.0	6.732873	-1.381828	7.112991	-0.00533	0.009346	-0.004482	-0.673828	-0.005859	-0.324463
350.0	6.742957	-1.408443	7.132882	-0.005735	0.007597	-0.004149	-0.675781	-0.008057	-0.315918
351.0	6.721427	-1.402452	7.122496	-0.004512	0.009107	-0.003104	-0.678223	-0.003662	-0.32251
352.0	6.707035	-1.378472	7.163223	-0.002881	0.006438	-0.007882	-0.673828	-0.003662	-0.318115
353.0	6.748435	-1.420435	7.114143	-0.008183	0.008527	-0.002578	-0.677979	-0.008057	-0.324463
354.0	6.733879	-1.349863	7.126794	-0.002457	0.002691	-0.002301	-0.680176	-0.005859	-0.322266
355.0	6.758047	-1.400311	7.106281	-0.004512	0.009106	-0.003104	-0.677979	-0.005859	-0.318115
356.0	6.729475	-1.382431	7.116088	-0.006554	0.009809	-0.003695	-0.677979	-0.010254	-0.320068
357.0	6.728909	-1.382622	7.116587	-0.004916	0.007356	-0.002771	-0.676025	-0.003906	-0.313721
358.0	6.756358	-1.40066	7.107818	-0.002063	0.008174	-0.004673	-0.677979	-0.005859	-0.324463
359.0	6.7419	-1.376616	7.148601	-0.002882	0.008412	-0.00605	-0.673584	-0.008057	-0.318115
360.0	6.727288	-1.382513	7.118139	-0.007779	0.010272	-0.002909	-0.673828	-0.005859	-0.320313
361.0	6.719889	-1.370742	7.138638	-0.004093	0.003167	-0.005055	-0.680176	-0.005859	-0.320313
362.0	6.737046	-1.409209	7.138314	-0.00329	0.010613	-0.002057	-0.671631	-0.001465	-0.32251
363.0	6.73286	-1.394736	7.099284	-0.006956	0.006083	-0.005193	-0.678223	-0.001465	-0.320313
364.0	6.711456	-1.359011	7.160096	-0.004106	0.008875	-0.005264	-0.673828	-0.005859	-0.322266
365.0	6.745792	-1.389058	7.131287	-0.005737	0.009567	-0.002316	-0.673584	-0.008057	-0.315918
366.0	6.766201	-1.395357	7.142683	-0.005734	0.007592	-0.004147	-0.673828	-0.003662	-0.322266
367.0	6.723808	-1.383165	7.121301	-0.001649	0.006185	-0.002963	-0.676025	-0.003662	-0.32666
368.0	6.727093	-1.397931	7.161113	-0.006948	0.004321	-0.001322	-0.671631	-0.005859	-0.322266
369.0	6.775294	-1.375677	7.135249	-0.010632	0.009449	-0.001007	-0.678223	-0.003662	-0.324463
370.0	6.712022	-1.404622	7.130932	-0.003287	0.008636	-0.003885	-0.671631	-0.005859	-0.322266
371.0	6.7601	-1.381889	7.105292	-0.007372	0.010041	-0.005069	-0.678223	-0.003662	-0.32251
372.0	6.717683	-1.387401	7.183238	-0.010229	0.011195	-0.001337	-0.673828	-0.003662	-0.322266
373.0	6.817803	-1.339424	7.071759	-0.006551	0.007827	-0.005522	-0.676025	-0.003662	-0.320313
374.0	6.706218	-1.438009	7.121374	-0.006141	0.007815	-0.001983	-0.680176	-0.008057	-0.320313
375.0	6.719319	-1.385578	7.125067	-0.008597	0.010503	-0.004283	-0.678223	-0.001465	-0.32251
376.0	6.732672	-1.380098	7.156622	-0.006141	0.007814	-0.001983	-0.677979	-0.005859	-0.32666
377.0	6.735487	-1.377651	7.097482	-0.005737	0.009562	-0.002313	-0.682373	-0.008057	-0.315918
378.0	6.749087	-1.419145	7.156886	-0.008183	0.008515	-0.002575	-0.671631	-0.003662	-0.322266
379.0	6.710031	-1.3749	7.147107	-0.006137	0.00584	-0.003814	-0.675781	-0.005859	-0.320313
380.0	6.734052	-1.378453	7.098689	-0.006137	0.005839	-0.003814	-0.673828	-0.003662	-0.324463
381.0	6.744281	-1.405018	7.118419	-0.002466	0.006421	-0.004336	-0.678223	-0.003662	-0.318115
382.0	6.729827	-1.38118	7.159088	-0.003691	0.006885	-0.003551	-0.676025	-0.003662	-0.322266
383.0	6.74674	-1.372709	7.130923	-0.00655	0.007824	-0.00552	-0.678223	0.000732	-0.324463
384.0	6.753256	-1.384801	7.111231	-0.006141	0.007811	-0.001981	-0.673828	-0.003662	-0.322266
385.0	6.73541	-1.393632	7.140202	-0.008179	0.006539	-0.004406	-0.677979	-0.005859	-0.320313
386.0	6.752227	-1.385249	7.112121	-0.004926	0.01108	-0.004801	-0.673828	-0.003662	-0.32666
387.0	6.734113	-1.394072	7.141339	-0.008188	0.010484	-0.000741	-0.675781	-0.008057	-0.315918
388.0	6.705406	-1.376542	7.15113	-0.006963	0.01002	-0.001525	-0.677979	-0.008057	-0.320313
389.0	6.757171	-1.39811	7.09378	-0.005329	0.009332	-0.004471	-0.677979	-0.005859	-0.324463
390.0	6.721443	-1.368208	7.123786	-0.002479	0.012125	-0.004536	-0.673828	-0.005859	-0.32666
391.0	6.738378	-1.406625	7.12369	-0.004512	0.009093	-0.003094	-0.676025	-0.003662	-0.318115
392.0	6.751571	-1.400895	7.155431	-0.004521	0.012825	-0.005128	-0.675781	-0.005859	-0.320313
393.0	6.719153	-1.368093	7.125968	-3.4e-05	0.01317	-0.004271	-0.677979	-0.005859	-0.315918
394.0	6.739343	-1.374183	7.137631	-0.005738	0.009554	-0.002309	-0.675781	-0.005859	-0.324463
395.0	6.728364	-1.394551	7.146663	-0.001248	0.009688	-0.007152	-0.671631	-0.001709	-0.318115
396.0	6.724204	-1.379582	7.107799	-0.001657	0.009912	-0.00499	-0.676025	-0.003662	-0.322266
397.0	6.716611	-1.414469	7.156508	-0.002892	0.014106	-0.00624	-0.675781	-0.008057	-0.322266
398.0	6.757437	-1.379436	7.151439	-0.00207	0.011896	-0.006695	-0.675781	-0.005859	-0.320313
399.0	6.756615	-1.379159	7.152268	0.000782	0.012929	-0.002891	-0.673584	-0.008057	-0.322266
400.0	6.693061	-1.40751	7.148165	-0.001263	0.015388	-0.007351	-0.673828	-0.005859	-0.320313
401.0	6.744305	-1.351854	7.13466	0.001611	0.008747	-0.005179	-0.678223	-0.001465	-0.324463
402.0	6.77169	-1.369355	7.126181	-0.001659	0.011668	-0.008855	-0.675781	-0.008057	-0.32666
403.0	6.732473	-1.371601	7.144607	-0.001671	0.013852	-0.001322	-0.675781	-0.008057	-0.322266
404.0	6.731525	-1.371526	7.145514	-0.002076	0.013864	-0.00486	-0.677979	-0.005859	-0.322266
405.0	6.734488	-1.415491	7.11452	-0.001253	0.011654	-0.005316	-0.673828	-0.003662	-0.320313
406.0	6.719529	-1.391383	7.155587	0.000376	0.012938	-0.006426	-0.673828	-0.005859	-0.324463
407.0	6.729259	-1.41733	7.175891	0.004863	0.013285	-0.005565	-0.675781	-0.008057	-0.322266
408.0	6.756371	-1.387631	7.139724	0.002023	0.008519	-0.007338	-0.671387	-0.007813	-0.328857
409.0	6.724312	-1.40108	7.13806	0.006492	0.016326	-0.010541	-0.676025	-0.003662	-0.324463
410.0	6.71624	-1.387895	7.159351	0.008945	0.0154	-0.012107	-0.675781	-0.008057	-0.320313
411.0	6.77117	-1.375579	7.114384	0.007719	0.014103	-0.007457	-0.671631	-0.005859	-0.322266
412.0	6.76657	-1.376855	7.175224	0.014247	0.017265	-0.013731	-0.671387	-0.01001	-0.32666
413.0	6.713581	-1.412509	7.091858	0.020766	0.020641	-0.014304	-0.677979	-0.008057	-0.320313
414.0	6.795478	-1.339943	7.082058	0.031369	0.024373	-0.017551	-0.669434	-0.005859	-0.32666
415.0	6.807587	-1.423989	7.171709	0.045999	0.043799	-0.020204	-0.671387	-0.008057	-0.322266
416.0	6.846033	-1.336324	7.141949	0.068043	0.048819	-0.032835	-0.669189	-0.01001	-0.331055
417.0	6.869225	-1.515434	6.940153	0.072479	0.062505	-0.030527	-0.673828	-0.005859	-0.324463
418.0	6.711863	-1.318824	7.284483	0.095323	0.072949	-0.041955	-0.669189	-0.007813	-0.32666
419.0	6.691751	-1.500155	7.161889	0.109993	0.080913	-0.044162	-0.673828	-0.005859	-0.324463
420.0	6.644463	-1.447227	7.217589	0.10884	0.071438	-0.052495	-0.673584	-0.012207	-0.324463
421.0	6.482862	-1.402062	7.324078	0.088551	0.049894	-0.057436	-0.671387	-0.01001	-0.32666
422.0	6.642415	-1.37795	7.13908	0.066186	0.031279	-0.055467	-0.675537	-0.012207	-0.322266
423.0	6.635146	-1.434225	7.118865	0.065839	0.023579	-0.060602	-0.671143	-0.014404	-0.324463
424.0	6.647087	-1.342341	7.195107	0.068349	0.014952	-0.063747	-0.67334	-0.016602	-0.324463
425.0	6.754344	-1.221021	7.108355	0.046698	0.015167	-0.059234	-0.675537	-0.012207	-0.322266
426.0	6.802831	-1.005066	7.181254	0.042523	0.020998	-0.045403	-0.671387	-0.012207	-0.328857
427.0	6.727951	-1.188427	7.061695	0.035889	0.036659	-0.043676	-0.675537	-0.014404	-0.320068
428.0	6.767498	-1.008463	7.184115	0.043534	0.044014	-0.029967	-0.677734	-0.012207	-0.324463
429.0	6.69702	-1.145294	7.187377	0.020277	0.035557	-0.020286	-0.677734	-0.012207	-0.32666
430.0	6.607471	-1.1686	7.232983	0.013315	0.032682	-0.011884	-0.669189	-0.01001	-0.32666
431.0	6.578608	-1.180605	7.172375	-0.013581	0.017971	-0.001498	-0.671387	-0.010254	-0.322266
432.0	6.697287	-1.281833	7.217377	-0.025756	0.005325	0.001208	-0.67334	-0.014404	-0.328857
433.0	6.761557	-1.361396	7.109329	-0.01886	0.014134	-0.001717	-0.671387	-0.012207	-0.320068
434.0	6.68035	-1.213507	7.230297	-0.008278	0.01982	-0.003093	-0.673096	-0.020752	-0.328857
435.0	6.618665	-1.32008	7.182918	-0.011432	0.00565	-0.006136	-0.666992	-0.014404	-0.331055
436.0	6.729546	-1.267937	7.162695	-0.006504	0.003785	-0.009229	-0.675537	-0.016602	-0.322266
437.0	6.724726	-1.223375	7.194415	-0.007773	0.009934	-0.008674	-0.67334	-0.014404	-0.324463
438.0	6.697385	-1.282496	7.160954	-0.009815	0.010625	-0.009282	-0.671143	-0.016357	-0.333252
439.0	6.70553	-1.231756	7.224345	-0.004972	0.018403	-0.008944	-0.673584	-0.01001	-0.328857
440.0	6.767641	-1.185508	7.131532	-0.000441	0.0148	-0.011705	-0.671387	-0.012207	-0.32666
441.0	6.676117	-1.243086	7.164416	-0.00176	0.024906	-0.0075	-0.675293	-0.018799	-0.324463
442.0	6.695857	-1.295218	7.205361	-0.002532	0.019447	-0.008663	-0.671143	-0.016602	-0.32666
443.0	6.74113	-1.148157	7.195686	-0.003404	0.027331	-0.008437	-0.677734	-0.014404	-0.328857
444.0	6.687503	-1.203819	7.211761	-0.011197	0.028381	-0.00347	-0.669189	-0.012207	-0.32666
445.0	6.696054	-1.231051	7.233249	-0.016949	0.02874	0.002105	-0.668945	-0.014404	-0.32666
446.0	6.735312	-1.19732	7.229283	-0.015742	0.030249	0.00316	-0.673584	-0.012207	-0.324463
447.0	6.707645	-1.288134	7.126075	-0.016218	0.03444	0.008967	-0.67334	-0.014404	-0.322266
448.0	6.654722	-1.283044	7.224941	-0.017902	0.037116	0.013722	-0.669189	-0.012207	-0.32666
449.0	6.644308	-1.22671	7.218733	-0.023179	0.033277	0.01349	-0.67334	-0.014404	-0.32666
450.0	6.690996	-1.252946	7.223162	-0.025592	0.030247	0.011385	-0.669189	-0.012207	-0.331055
451.0	6.649758	-1.211491	7.213848	-0.026426	0.032443	0.011832	-0.669189	-0.012207	-0.32666
452.0	6.607812	-1.233708	7.331693	-0.030053	0.022475	0.014571	-0.664795	-0.012207	-0.328857
453.0	6.625375	-1.212109	7.204734	-0.041409	0.011328	0.014748	-0.675537	-0.012207	-0.328857
454.0	6.653105	-1.327171	7.252643	-0.034462	0.010753	0.014101	-0.671143	-0.014404	-0.328857
455.0	6.616574	-1.253978	7.253063	-0.036413	0.001814	0.010043	-0.671387	-0.01001	-0.328857
456.0	6.579585	-1.336931	7.226567	-0.041285	-0.003989	0.011513	-0.669189	-0.012207	-0.328857
457.0	6.596779	-1.30216	7.267849	-0.042362	-0.02451	0.009244	-0.673584	-0.01001	-0.328857
458.0	6.634488	-1.336162	7.236594	-0.056187	-0.034741	0.010963	-0.669189	-0.01001	-0.32666
459.0	6.69587	-1.250317	7.171634	-0.050473	-0.034858	0.011089	-0.677979	-0.008057	-0.32666
460.0	6.715987	-1.246685	7.140172	-0.060301	-0.036857	0.017489	-0.673584	-0.01001	-0.328857
461.0	6.682638	-1.222192	7.165841	-0.053787	-0.033497	0.016963	-0.671387	-0.007813	-0.328857
462.0	6.717518	-1.289739	7.122464	-0.06198	-0.034225	0.022269	-0.673584	-0.01001	-0.32666
463.0	6.725396	-1.277279	7.171045	-0.051809	-0.022854	0.017189	-0.671387	-0.007813	-0.32666
464.0	6.717511	-1.332022	7.106218	-0.044495	-0.016004	0.016009	-0.677979	-0.01001	-0.328857
465.0	6.675378	-1.294346	7.153565	-0.038366	-0.012631	0.011938	-0.673828	-0.005859	-0.328857
466.0	6.700471	-1.36589	7.230663	-0.047358	-0.016841	0.017893	-0.67334	-0.014404	-0.324463
467.0	6.712853	-1.379364	7.149433	-0.04531	-0.012084	0.012614	-0.673584	-0.01001	-0.32666
468.0	6.660307	-1.362365	7.205246	-0.044078	-0.012551	0.011842	-0.675537	-0.012207	-0.32666
469.0	6.699778	-1.363709	7.186448	-0.046088	-0.01755	0.011433	-0.673828	-0.005859	-0.322266
470.0	6.710801	-1.300145	7.148781	-0.042445	-0.011283	0.010751	-0.671387	-0.008057	-0.324463
471.0	6.682193	-1.256988	7.227554	-0.047763	-0.014913	0.016211	-0.677979	-0.005859	-0.322266
472.0	6.68331	-1.261675	7.225705	-0.046939	-0.022588	0.021642	-0.671387	-0.008057	-0.322266
473.0	6.720176	-1.295938	7.194661	-0.045693	-0.021306	0.01701	-0.675537	-0.012451	-0.320068
474.0	6.740621	-1.415141	7.148288	-0.044074	-0.021782	0.019774	-0.671387	-0.012207	-0.32666
475.0	6.74489	-1.434003	7.185972	-0.035526	-0.015374	0.017816	-0.675781	-0.008057	-0.324463
476.0	6.720664	-1.387172	7.205229	-0.028549	-0.016146	0.011443	-0.669189	-0.008057	-0.320068
477.0	6.718377	-1.374848	7.164399	-0.018762	-0.013909	0.010723	-0.676025	-0.003906	-0.315918
478.0	6.712212	-1.411632	7.21096	-0.007706	-0.016059	0.005544	-0.675781	-0.008057	-0.318115
479.0	6.702886	-1.38605	7.190264	-0.008509	-0.019546	0.006186	-0.677734	-0.012207	-0.32666
480.0	6.735375	-1.325155	7.164002	0.000493	-0.022759	0.004265	-0.669189	-0.008057	-0.324463
481.0	6.692783	-1.439315	7.183529	0.009113	-0.029682	0.000826	-0.680176	-0.005859	-0.318115
482.0	6.701269	-1.374015	7.205133	0.01241	-0.036523	0.000829	-0.676025	-0.003662	-0.324463
483.0	6.718521	-1.396699	7.162575	0.013239	-0.038729	0.000372	-0.675781	-0.005859	-0.322266
484.0	6.672548	-1.418677	7.185715	0.018159	-0.040565	-0.002746	-0.673584	-0.007813	-0.32666
485.0	6.721413	-1.426183	7.14571	0.018194	-0.044506	-0.006417	-0.675781	-0.005859	-0.315918
486.0	6.755853	-1.409943	7.145816	0.017784	-0.042534	-0.008113	-0.676025	-0.003662	-0.32666
487.0	6.689288	-1.425152	7.157825	0.02308	-0.042417	-0.005859	-0.682129	-0.012451	-0.315918
488.0	6.688718	-1.379392	7.186708	0.008872	-0.054653	-0.00947	-0.676025	-0.005859	-0.32666
489.0	6.7558	-1.378722	7.117369	0.006798	-0.050032	-0.00639	-0.677979	-0.008057	-0.318115
490.0	6.700321	-1.374554	7.120205	0.005197	-0.057022	-0.00509	-0.680176	-0.010254	-0.322266
491.0	6.746205	-1.386212	7.138551	-0.002573	-0.054271	-0.003931	-0.677979	-0.010254	-0.320068
492.0	6.736532	-1.391868	7.103582	-0.002957	-0.057997	-0.005436	-0.673584	-0.010254	-0.320068
493.0	6.783124	-1.43298	7.050367	-0.002556	-0.054505	-0.009616	-0.676025	-0.003662	-0.322266
494.0	6.741003	-1.393866	7.155647	-0.000914	-0.055199	-0.012552	-0.675781	-0.008057	-0.315918
495.0	6.783658	-1.372891	7.035248	-0.003769	-0.056039	-0.010656	-0.677979	-0.008057	-0.320313
496.0	6.790225	-1.310561	7.114738	0.000701	-0.051959	-0.011816	-0.677979	-0.008057	-0.320313
497.0	6.766471	-1.339146	7.148011	-0.006226	-0.053385	-0.012938	-0.676025	-0.003906	-0.309326
498.0	6.861217	-1.357003	7.069068	-0.009527	-0.04654	-0.012934	-0.677979	-0.008057	-0.320313
499.0	6.843009	-1.321698	7.126436	-0.014467	-0.03901	-0.009988	-0.682373	-0.005859	-0.320313
500.0	6.779659	-1.307376	7.150152	-0.025862	-0.04453	-0.009934	-0.675781	-0.008057	-0.320313
501.0	6.765622	-1.31733	7.175331	-0.024228	-0.045006	-0.007179	-0.675781	-0.008057	-0.315918
502.0	6.870625	-1.363511	7.115524	-0.030748	-0.046446	-0.004757	-0.68457	-0.003906	-0.318115
503.0	6.769104	-1.323775	7.227821	-0.030317	-0.050414	-0.004885	-0.677979	-0.010254	-0.313721
504.0	6.78813	-1.425498	7.139498	-0.033533	-0.058931	-0.008157	-0.677979	-0.005859	-0.315918
505.0	6.784882	-1.339423	7.198746	-0.033885	-0.068168	-0.00377	-0.677734	-0.012451	-0.313721
506.0	6.825273	-1.37101	7.163848	-0.036297	-0.075168	-0.009522	-0.677979	-0.008057	-0.318115
507.0	6.837734	-1.384426	7.138148	-0.026104	-0.072939	-0.006772	-0.677979	-0.010254	-0.315918
508.0	6.748603	-1.294406	7.312346	-0.02448	-0.073848	-0.015404	-0.677979	-0.008301	-0.309326
509.0	6.846461	-1.39065	7.18578	-0.063892	-0.102052	-0.016968	-0.680176	-0.008057	-0.318115
510.0	6.770873	-1.403792	7.333781	-0.012604	-0.086144	-0.028454	-0.679932	-0.010254	-0.307129
511.0	6.778738	-1.402665	7.326728	-0.01201	-0.116965	-0.031476	-0.680176	-0.006104	-0.311523
512.0	6.779959	-1.439593	7.42492	-0.009378	-0.150701	-0.041427	-0.682373	-0.008057	-0.320313
513.0	6.647146	-1.535646	7.422046	0.008171	-0.161358	-0.058281	-0.682373	-0.006104	-0.304932
514.0	6.965393	-1.251335	7.468729	-0.031578	-0.203386	-0.070318	-0.675781	-0.008057	-0.309326
515.0	6.988395	-1.279806	7.534067	-0.071506	-0.161319	-0.077838	-0.680176	-0.006104	-0.304932
516.0	6.145048	-0.800149	8.719562	0.068452	-0.197959	-0.060537	-0.682373	-0.006104	-0.304932
517.0	6.015483	-0.915361	8.675642	-0.375671	-0.47179	-0.057139	-0.682373	-0.006104	-0.300781
518.0	7.809118	-0.905888	7.480677	-0.29639	-0.393854	-0.024816	-0.68457	-0.008301	-0.300781
519.0	6.773662	-1.55372	8.243866	-0.05176	-0.459235	0.04515	-0.693115	-0.006348	-0.296387
520.0	5.12903	-1.146743	9.655878	0.388207	-0.738181	0.081457	-0.682373	-0.008301	-0.296387
521.0	5.077432	-1.54179	9.79889	0.269665	-1.372962	0.020249	-0.695313	-0.006592	-0.279053
522.0	6.051134	-1.570584	9.147883	0.225444	-1.792836	-0.010232	-0.695313	-0.006592	-0.270264
523.0	6.334158	-0.596334	9.527108	0.198282	-2.108325	-0.018786	-0.699463	-0.009033	-0.250977
524.0	4.838694	-2.075159	9.550746	0.139762	-2.54678	-0.10295	-0.710449	-0.00708	-0.23999
525.0	5.412923	-1.182955	9.873092	0.214607	-3.114007	-0.203214	-0.717041	-0.003174	-0.218506
526.0	5.514564	-2.387367	8.845295	0.321153	-3.592691	-0.298016	-0.721191	-0.007813	-0.187988
527.0	5.2465	-1.778843	9.815424	0.504499	-4.1883	-0.388748	-0.729736	-0.012695	-0.157715
528.0	5.496035	-3.349109	9.50802	0.608279	-4.891671	-0.527493	-0.733887	-0.015137	-0.133789
529.0	8.297721	-4.181925	10.004249	0.87072	-5.585803	-0.754276	-0.744629	-0.02002	-0.090576
530.0	10.664874	-4.405384	11.123972	1.034843	-6.20002	-1.018263	-0.748779	-0.022705	-0.047119
531.0	13.3884	-4.682726	11.85644	1.127312	-6.6771	-1.28172	-0.748047	-0.03418	-0.003662
532.0	12.636285	-3.771115	12.922661	1.533867	-7.069822	-1.582	-0.745605	-0.04126	0.039551
533.0	13.896412	-1.609579	15.092936	1.318539	-7.327068	-1.578658	-0.736572	-0.043945	0.087402
534.0	17.389417	-0.599205	16.991329	0.786564	-7.336475	-1.391531	-0.727539	-0.051025	0.126465
535.0	16.097611	-2.487004	15.842814	-0.067483	-6.935046	-1.011274	-0.709961	-0.053467	0.167725
536.0	11.426079	-6.026626	15.597382	-0.092282	-6.587254	-0.943307	-0.692627	-0.049561	0.195801
537.0	-5.532165	-4.729732	15.682377	0.244421	-6.883121	-0.957794	-0.673096	-0.045654	0.228271
538.0	-19.18282	-2.216866	11.462506	0.153441	-9.198599	-1.402799	-0.646973	-0.043945	0.276123
539.0	38.056487	-8.42812	16.113725	-0.411106	-10.10082	-1.063772	-0.607666	-0.044189	0.300049
540.0	39.740896	-11.983131	5.54021	0.548552	-4.314131	0.235085	-0.591309	-0.018066	0.289063
541.0	18.830507	-4.47422	19.565116	2.400685	0.401974	0.9933	-0.579346	0.005859	0.265137
542.0	10.62029	-6.333559	19.949548	1.879428	2.220723	1.433769	-0.556641	0.038818	0.212891
543.0	1.0657	-2.099028	16.33104	2.460354	3.060665	1.603249	-0.524902	0.059082	0.169678
544.0	-4.087106	0.7083	13.03854	2.227847	3.286495	1.443347	-0.495605	0.083252	0.130371
545.0	-4.127344	1.912333	11.565255	1.818525	3.214823	1.070311	-0.452881	0.105469	0.0979
546.0	-0.818737	3.069428	11.124417	1.43577	3.34283	0.736166	-0.407959	0.121094	0.074219
547.0	1.897377	3.888222	10.893145	0.87886	3.725821	0.395783	-0.352051	0.138672	0.050293
548.0	3.86478	3.444593	10.278858	0.227487	4.282306	0.048176	-0.298096	0.151855	0.048096
549.0	4.816008	2.298559	9.529831	-0.273953	4.910732	-0.296577	-0.237793	0.171143	0.072021
550.0	5.294482	1.000855	8.713606	-0.613537	5.476346	-0.596762	-0.189941	0.175293	0.095947
551.0	5.69668	-0.241991	7.781124	-0.808674	5.915893	-0.831582	-0.155518	0.185547	0.143555
552.0	6.059919	-1.111323	7.062172	-0.943544	6.229184	-1.01967	-0.148438	0.17627	0.204346
553.0	6.588269	-1.373399	6.549016	-1.022367	6.419965	-1.08657	-0.16333	0.168701	0.273682
554.0	7.010457	-1.497441	6.400355	-1.052932	6.481485	-0.993556	-0.197266	0.148682	0.319336
555.0	7.754753	-1.835808	6.798181	-1.065311	6.389218	-0.764964	-0.259521	0.128418	0.362549
556.0	8.636595	-3.363643	7.091572	-1.039233	6.219614	-0.460968	-0.332764	0.108643	0.373291
557.0	8.811663	-4.675023	7.134376	-0.809654	5.94975	-0.217034	-0.401611	0.086914	0.366943
558.0	9.748653	-4.803121	7.407607	-0.596512	5.510285	0.091586	-0.461914	0.06958	0.351807
559.0	10.149638	-5.271097	7.883829	-0.292902	5.11873	0.451434	-0.524902	0.063477	0.3125
560.0	10.931446	-4.893382	7.515375	-0.048476	4.745276	0.805175	-0.57251	0.057373	0.269287
561.0	12.965893	-3.560709	7.957247	-0.059277	4.550209	1.218818	-0.610107	0.06665	0.221436
562.0	15.12824	-2.754609	8.382427	-0.194216	4.723096	1.62306	-0.632324	0.078125	0.165039
563.0	15.785065	-1.238375	10.798429	-0.458178	4.866092	2.012733	-0.652832	0.095947	0.102051
564.0	16.101157	-0.688691	11.987128	-0.869097	4.845171	2.315746	-0.655762	0.112061	0.036865
565.0	16.466983	-0.056368	11.637664	-1.398271	4.608614	2.522904	-0.654297	0.12793	-0.023926
566.0	17.613584	-1.714808	9.9143	-1.709864	4.40438	2.525506	-0.641602	0.133057	-0.080322
567.0	19.310887	-1.936523	9.547803	-1.71809	4.333133	2.441871	-0.626709	0.140137	-0.125732
568.0	21.229475	-3.36742	9.244604	-1.541811	4.349542	2.291026	-0.605469	0.149414	-0.177734
569.0	23.497046	-3.915204	8.255356	-1.262606	4.398212	2.043886	-0.596436	0.143555	-0.216797
570.0	23.860917	-4.912488	5.759466	-0.881227	4.547813	1.734157	-0.574707	0.14209	-0.257813
571.0	21.765133	-4.893829	1.992858	-0.351857	4.577921	1.328291	-0.557129	0.134033	-0.294678
572.0	20.39082	-2.206204	-1.068855	0.104871	4.317706	0.92838	-0.539307	0.123779	-0.329346
573.0	22.491725	0.985338	-3.937617	0.150468	3.873194	0.658485	-0.52417	0.12207	-0.355225
574.0	26.124529	4.137324	-8.991386	-0.067895	3.437177	0.488706	-0.506592	0.114014	-0.381104
575.0	25.351707	6.998541	-16.312979	-0.446677	2.954958	0.23393	-0.5	0.112061	-0.39624
576.0	22.271458	8.865632	-19.804972	-0.887141	2.039995	-0.148741	-0.490967	0.103516	-0.40918
577.0	19.711569	3.681584	-17.946135	-1.360552	0.8453	-0.651158	-0.486572	0.105957	-0.413574
578.0	18.108047	-1.205815	-12.018761	-0.971095	-0.18711	-1.238386	-0.48877	0.105957	-0.413574
579.0	9.6503	-10.863729	-2.627599	0.005639	-1.489242	-1.803171	-0.507568	0.086182	-0.402832
580.0	22.879897	8.679201	3.534302	0.348233	-4.707296	-1.962395	-0.529053	0.077393	-0.385498
581.0	6.293445	-8.392969	-23.246616	-0.275664	-3.42363	-0.507143	-0.539551	0.070557	-0.370117
582.0	-12.455514	-20.423564	18.804085	2.379588	-4.400644	-2.273874	-0.560303	0.044434	-0.339844
583.0	23.37418	6.61084	16.616056	2.708146	-6.215039	-1.741526	-0.577148	0.031006	-0.309326
584.0	39.311566	16.126052	15.642103	2.136042	-3.121041	0.137729	-0.585938	0.030762	-0.298584
585.0	12.486075	6.60152	12.250653	-0.25854	-3.611719	0.263233	-0.605469	0.030273	-0.276855
586.0	7.396687	3.68614	6.302824	0.639754	-2.83581	-1.241314	-0.609375	0.023682	-0.257324
587.0	11.437158	8.927659	14.11587	-0.036236	-2.833708	-1.126336	-0.615479	0.010498	-0.23999
588.0	9.087871	-2.834425	8.948352	-0.942554	-2.734874	-0.245408	-0.62207	0.014648	-0.227051
589.0	5.482309	-15.238351	4.061817	-1.658232	-2.743408	-0.380854	-0.632813	0.01416	-0.203125
590.0	29.964703	-23.922182	-1.041521	-1.950102	-2.91399	-2.356762	-0.634521	0.001221	-0.196533
591.0	3.969132	3.252373	11.304712	5.23178	0.690863	-0.274495	-0.634033	-0.011719	-0.194336
592.0	4.897923	8.75283	12.954595	1.020878	-1.575876	-1.394362	-0.640381	-0.018311	-0.192139
593.0	17.529862	-0.038002	8.452038	0.126819	-0.720402	-0.654539	-0.64209	-0.0271	-0.181396
594.0	6.010224	4.934258	10.506107	0.281632	-0.17024	-0.216079	-0.637939	-0.024902	-0.179199
595.0	9.105189	0.029432	7.82795	-0.384373	-0.415136	0.010973	-0.635986	-0.018311	-0.183594
596.0	6.724847	-3.067142	6.647916	-0.024377	-0.100277	-0.048045	-0.637695	-0.03125	-0.181396
597.0	6.641551	-0.1017	8.444868	-0.054381	-0.163611	-0.019488	-0.635498	-0.029053	-0.18335
598.0	7.053631	-1.875692	7.038984	-0.063631	-0.100334	0.001477	-0.639893	-0.029297	-0.179199
599.0	6.661866	-1.02716	7.697552	-0.014358	-0.074089	0.005732	-0.639893	-0.0271	-0.174805
600.0	6.704243	-1.694206	7.295069	-0.027906	-0.039798	0.017004	-0.641846	-0.031494	-0.174805
601.0	6.560959	-1.505674	7.44969	-0.001851	-0.029246	0.01544	-0.635742	-0.024902	-0.174805
602.0	6.557759	-1.59112	7.256913	-0.006745	-0.027209	0.018471	-0.639893	-0.024902	-0.174805
603.0	6.41691	-1.583745	7.352192	0.009344	-0.026247	0.010172	-0.639893	-0.0271	-0.174805
604.0	6.170996	-1.802044	7.346085	-0.000523	-0.062597	0.002343	-0.637695	-0.0271	-0.179199
605.0	6.184468	-1.81458	7.321284	0.00489	-0.112963	-0.01469	-0.64209	-0.024902	-0.181396
606.0	6.247632	-1.838125	7.257802	0.032218	-0.159087	-0.041908	-0.64209	-0.024902	-0.181396
607.0	6.461703	-1.749588	7.355384	0.063476	-0.193349	-0.064357	-0.64209	-0.024902	-0.172607
608.0	6.684686	-1.475354	7.392552	0.076497	-0.183629	-0.070971	-0.64209	-0.029297	-0.17041
609.0	6.647132	-1.34787	7.437759	0.065816	-0.163686	-0.055244	-0.641846	-0.033447	-0.174805
610.0	6.723467	-1.347356	7.363417	0.054622	-0.149339	-0.042827	-0.64209	-0.029297	-0.172607
611.0	6.782035	-1.17269	7.318249	0.03318	-0.134532	-0.025804	-0.64209	-0.027344	-0.161865
612.0	6.721289	-1.351565	7.224582	0.017148	-0.1161	-0.008554	-0.644287	-0.0271	-0.168213
613.0	6.643907	-1.291261	7.299866	-0.007977	-0.121118	0.000107	-0.639893	-0.025146	-0.164063
614.0	6.51347	-1.465865	7.33179	0.014045	-0.104822	0.006433	-0.639893	-0.025146	-0.16626
615.0	6.975897	-1.720056	6.57963	-0.029948	-0.113915	0.01209	-0.64209	-0.025146	-0.16626
616.0	6.351452	-1.132985	7.673652	0.020664	-0.104014	-0.001661	-0.644287	-0.0271	-0.16626
617.0	6.627909	-1.468398	7.097005	-0.011176	-0.118026	0.002162	-0.644287	-0.027344	-0.164063
618.0	6.767189	-1.372983	7.068382	-0.013686	-0.120982	9.2e-05	-0.646484	-0.025146	-0.16626
619.0	6.774634	-1.237117	7.090391	-0.009298	-0.107055	0.01016	-0.64209	-0.027344	-0.161865
620.0	6.792184	-1.252246	7.004391	-0.019913	-0.089121	0.018258	-0.64209	-0.029541	-0.161865
621.0	6.690622	-1.339039	7.140877	-0.027782	-0.076166	0.024778	-0.648682	-0.025146	-0.159668
622.0	6.57853	-1.355196	7.286807	-0.041489	-0.083867	0.032051	-0.639893	-0.029297	-0.161865
623.0	6.559003	-1.556989	7.157669	-0.077802	-0.113406	0.035659	-0.646484	-0.025146	-0.161865
624.0	6.344295	-1.738972	7.34239	-0.090899	-0.146861	0.030143	-0.646484	-0.027344	-0.157471
625.0	6.481177	-1.696029	7.397956	-0.082835	-0.201213	0.002088	-0.642334	-0.020752	-0.159668
626.0	6.601569	-1.996472	7.277912	-0.092699	-0.236765	-0.020755	-0.639893	-0.027344	-0.159668
627.0	6.558153	-1.837194	7.526684	-0.058027	-0.255583	-0.044493	-0.644287	-0.023193	-0.153076
628.0	6.923834	-1.917739	7.248544	-0.026974	-0.271126	-0.069878	-0.644287	-0.025146	-0.153076
629.0	6.792943	-1.905399	7.570925	0.033086	-0.269326	-0.093879	-0.64624	-0.029541	-0.148926
630.0	6.794943	-1.537294	7.703776	0.028737	-0.259448	-0.12401	-0.639893	-0.025146	-0.150879
631.0	6.933541	-1.335039	7.532208	-0.077868	-0.275382	-0.12984	-0.653076	-0.023193	-0.148926
632.0	6.57634	-0.75368	7.885313	-0.155312	-0.306447	-0.123273	-0.64624	-0.029541	-0.146729
633.0	7.261144	-1.443177	7.216921	-0.174757	-0.358779	-0.115539	-0.648438	-0.027588	-0.137939
634.0	5.270162	0.113395	10.412275	0.351355	-0.431372	-0.132837	-0.641846	-0.033936	-0.140137
635.0	7.124344	-2.289578	7.351686	-0.240771	-0.808936	-0.114387	-0.648438	-0.031982	-0.137939
636.0	8.038277	-1.238299	7.320998	0.08625	-0.56125	-0.140434	-0.64624	-0.031982	-0.133545
637.0	7.762562	-1.456561	9.097472	-0.382123	-0.371286	-0.108425	-0.650635	-0.027832	-0.125
638.0	5.525355	-2.080758	11.84547	-0.218375	-0.455875	-0.098994	-0.648193	-0.03418	-0.127197
639.0	3.175858	-2.013349	13.39408	0.604281	-1.330203	-0.274725	-0.652588	-0.036621	-0.114014
640.0	2.76818	-2.028686	14.155204	0.547709	-2.603032	-0.443457	-0.658936	-0.039063	-0.092529
641.0	3.479447	-3.745811	12.848252	0.560573	-3.627409	-0.72977	-0.65625	-0.047852	-0.070801
642.0	2.95037	-3.047852	13.845402	0.837607	-4.663549	-1.076825	-0.660156	-0.059082	-0.038086
643.0	2.14512	-3.180813	14.69452	1.044819	-5.917389	-1.336516	-0.657471	-0.068359	0.005371
644.0	5.49692	-5.928954	15.34549	0.857324	-7.406807	-1.666611	-0.650391	-0.081787	0.052979
645.0	9.84174	-7.053204	16.88687	1.050262	-8.442469	-2.089883	-0.645264	-0.095459	0.109375
646.0	15.062458	-4.016315	19.172438	1.161535	-9.179766	-2.278827	-0.627197	-0.109131	0.167969
647.0	16.093313	-4.516853	18.608652	0.840447	-9.31033	-2.285836	-0.607178	-0.120605	0.222412
648.0	14.958955	3.069555	20.039406	0.764787	-9.111209	-1.827698	-0.582764	-0.131836	0.268066
649.0	14.865743	-4.600608	19.185757	-0.832848	-8.885496	-1.159617	-0.552002	-0.136719	0.313477
650.0	-0.449798	-7.786248	19.206839	-0.926655	-8.451918	-1.241639	-0.527344	-0.1521	0.352783
651.0	-24.386726	-9.384809	17.346925	-0.525325	-10.251952	-2.173079	-0.478516	-0.172119	0.413574
652.0	46.045396	-15.409775	16.186806	-0.974743	-11.716161	-3.308845	-0.438477	-0.189697	0.439697
653.0	40.436132	-6.666283	8.401531	3.00579	-4.253001	-0.695939	-0.430664	-0.170166	0.446045
654.0	17.937753	-6.240423	28.585733	2.282439	1.292679	1.165462	-0.441895	-0.161621	0.44165
655.0	11.196503	-3.304587	21.809177	1.995116	3.129198	1.553959	-0.453369	-0.148438	0.411377
656.0	-9.956407	-3.039026	18.086806	2.199099	3.692611	1.91991	-0.473389	-0.137451	0.389648
657.0	-8.903463	0.729009	14.730063	1.622791	3.179475	1.598909	-0.491211	-0.126465	0.363525
658.0	-6.415417	0.982452	12.57289	1.116562	2.980338	1.434246	-0.497803	-0.124023	0.346191
659.0	-3.682753	1.669671	12.01367	0.708653	2.964302	1.168921	-0.500244	-0.121582	0.320068
660.0	0.35903	1.365354	11.33319	0.268911	3.293002	0.829853	-0.502197	-0.127686	0.296143
661.0	4.05221	1.729732	10.887444	-0.114441	4.023457	0.51579	-0.512939	-0.133789	0.270264
662.0	5.678801	2.066111	10.861078	-0.553646	4.868702	0.385371	-0.510498	-0.139648	0.233398
663.0	5.708086	0.64422	10.167272	-0.885691	5.582619	0.302945	-0.512451	-0.150146	0.200928
664.0	5.859244	-0.721979	9.102036	-0.946626	6.075401	0.162009	-0.518555	-0.164795	0.168457
665.0	6.431242	-0.996575	8.136597	-0.895451	6.406336	0.025336	-0.511719	-0.172852	0.140381
666.0	7.204216	-0.656225	7.798533	-0.832489	6.608563	-0.010477	-0.517578	-0.191895	0.116699
667.0	8.262481	-0.53122	7.623195	-0.858182	6.67359	0.069393	-0.52832	-0.197998	0.090576
668.0	8.950286	-0.845099	7.837462	-0.843688	6.621597	0.233243	-0.529785	-0.212891	0.073486
669.0	9.507957	-3.863386	7.019995	-0.661657	6.522416	0.304742	-0.542969	-0.210449	0.049561
670.0	10.116709	-2.807716	7.75015	-0.280057	6.22016	0.319271	-0.553711	-0.220947	0.030029
671.0	10.045071	-3.00555	9.229084	-0.179349	5.879436	0.492091	-0.571289	-0.214111	-0.000244
672.0	12.118983	-3.53321	9.245665	0.038088	5.57634	0.600212	-0.584961	-0.19873	-0.030762
673.0	13.624827	-1.349433	9.92279	-0.054223	5.465069	0.792807	-0.583984	-0.174561	-0.076416
674.0	16.249671	-0.578173	10.235145	-0.370942	5.653417	1.056403	-0.557129	-0.139404	-0.124268
675.0	16.855465	-0.157614	11.694627	-0.815139	5.811104	1.26493	-0.496094	-0.082764	-0.144043
676.0	17.228973	-0.795335	12.829956	-1.19905	5.744131	1.332585	-0.435303	-0.024902	-0.124512
677.0	18.344894	-0.8334	13.657076	-1.514996	5.511977	1.355657	-0.397705	0.019775	-0.068359
678.0	20.482576	-1.490969	13.644452	-1.691052	5.252144	1.414005	-0.403564	0.061768	-0.003662
679.0	23.218625	-1.951898	12.658467	-1.691664	5.135719	1.558555	-0.435303	0.0979	0.030762
680.0	22.889818	-4.883711	11.916318	-1.4374	5.157463	1.68618	-0.466797	0.125488	0.043701
681.0	27.262258	0.131517	6.343783	-0.788365	4.341878	1.241449	-0.50708	0.15332	0.036865
682.0	26.280765	-2.969542	2.82971	-1.264869	5.408675	2.151072	-0.534424	0.183594	0.015137
683.0	24.268607	-8.541242	-1.912602	0.075592	5.106733	1.318192	-0.559326	0.203613	-0.032715
684.0	25.802882	1.928564	-1.590729	0.395804	4.573276	0.967701	-0.577393	0.221191	-0.06543
685.0	30.242405	6.662652	-11.572684	-0.11358	4.001162	0.90836	-0.591064	0.234619	-0.100098
686.0	29.129587	8.850614	-21.513844	-0.459857	3.439291	0.699225	-0.598145	0.24585	-0.13501
687.0	23.645435	9.067215	-24.714784	-0.641591	2.526245	0.134725	-0.607422	0.260986	-0.147949
688.0	22.152915	4.852347	-20.248034	-0.821563	0.940069	-0.62481	-0.62085	0.267334	-0.150146
689.0	22.377493	1.555334	-12.311921	-0.152691	-0.160865	-1.150195	-0.634033	0.273682	-0.150391
690.0	9.436785	-4.83472	4.254001	0.38749	-2.035502	-1.592858	-0.651367	0.273193	-0.113525
691.0	37.723644	22.709847	-4.262798	-0.583078	-6.698454	-0.277334	-0.671631	0.289551	-0.063721
692.0	-14.343904	-18.67243	-39.399385	-3.320466	-1.126667	-0.511094	-0.68042	0.29541	-0.020508
693.0	-10.873484	-16.585826	45.250411	2.31759	-9.589089	-3.01194	-0.703857	0.289795	0.066162
694.0	87.983511	19.453737	-5.670781	4.142623	-6.123025	-1.237882	-0.710938	0.300537	0.076904
695.0	1.547606	7.754405	31.724285	0.146018	-2.548348	1.590577	-0.708984	0.312744	0.131104
696.0	10.805565	2.372773	0.446402	-0.162178	-4.25255	-0.243652	-0.707031	0.320801	0.165771
697.0	5.942461	8.803955	15.865813	-0.107771	-3.73353	-0.412623	-0.714111	0.333252	0.200439
698.0	5.039922	-1.700168	6.039732	-1.169833	-3.831418	-0.334641	-0.711914	0.334717	0.243652
699.0	9.42927	-8.545508	6.314494	-1.5261	-4.082878	-0.556009	-0.714111	0.340576	0.297852
700.0	44.432919	-27.497132	4.246271	-3.869888	-4.680897	-2.582907	-0.713135	0.314209	0.328369
701.0	7.227873	-5.254439	2.946763	5.617964	1.98778	0.319955	-0.707031	0.327393	0.315186
702.0	2.501285	19.86264	18.271644	4.050719	-2.017702	-1.922715	-0.708984	0.325195	0.323975
703.0	18.942131	0.26385	7.567429	-1.740254	-0.336505	-0.18066	-0.706787	0.322998	0.328369
704.0	3.702399	-3.106422	7.566967	0.279366	-0.124358	-0.342807	-0.710938	0.318604	0.332764
705.0	8.843773	-0.892943	8.838631	0.060416	-0.233521	-0.195931	-0.706543	0.318359	0.339111
706.0	6.218378	-1.457141	7.729367	0.153395	-0.081818	-0.136763	-0.70874	0.318359	0.334717
707.0	7.37873	-0.51042	7.930449	-0.037051	-0.17663	-0.057225	-0.70459	0.320557	0.339111
708.0	6.586217	-1.659946	7.45599	-0.060925	-0.095342	0.003949	-0.70874	0.318604	0.332764
709.0	6.735301	-1.314621	8.026916	-0.098618	-0.111869	0.039485	-0.70459	0.322754	0.343506
710.0	6.454388	-2.776032	7.051502	-0.102008	-0.101311	0.024307	-0.706543	0.318359	0.350098
711.0	6.385441	-2.002054	7.505534	-0.033054	-0.099385	-0.009731	-0.706787	0.32251	0.350098
712.0	6.468489	-2.146703	7.283267	-0.03952	-0.114219	-0.022522	-0.706543	0.316162	0.350098
713.0	6.430115	-1.828956	7.504225	-0.02	-0.13389	-0.036401	-0.707031	0.329102	0.3479
714.0	6.602331	-1.605066	7.463105	-0.029358	-0.14353	-0.035971	-0.700195	0.320557	0.345703
715.0	6.601749	-1.656282	7.390944	-0.03954	-0.150824	-0.029313	-0.70459	0.322754	0.345703
716.0	6.705474	-1.698471	7.348799	-0.021213	-0.141079	-0.027739	-0.708984	0.320313	0.350098
717.0	6.832075	-1.411048	7.52449	-0.006281	-0.122212	-0.022291	-0.70459	0.32251	0.356445
718.0	6.662698	-1.824654	7.305299	0.001847	-0.089119	-0.018544	-0.706543	0.318359	0.3479
719.0	6.407755	-1.705386	7.467213	0.012928	-0.10345	-0.031059	-0.702393	0.32251	0.352051
720.0	6.555717	-1.942616	7.119517	0.018919	-0.109895	-0.038562	-0.70459	0.32251	0.354248
721.0	6.472619	-1.637581	7.308337	0.028842	-0.123898	-0.056078	-0.70874	0.320313	0.352051
722.0	6.692887	-1.559635	7.13797	-0.020842	-0.163164	-0.052061	-0.706787	0.320313	0.352051
723.0	6.470987	-1.549577	7.228959	0.041874	-0.123434	-0.051007	-0.706299	0.311768	0.356445
724.0	6.078559	-1.835677	7.583531	0.057177	-0.154773	-0.058178	-0.704346	0.318115	0.354248
725.0	7.259176	-2.283067	6.071228	-0.071778	-0.208218	-0.058178	-0.704346	0.316162	0.356445
726.0	6.046068	-1.382335	7.6427	0.106066	-0.142793	-0.088082	-0.70874	0.320313	0.354248
727.0	6.879306	-1.742916	6.782701	0.036137	-0.200684	-0.074012	-0.699951	0.313965	0.358643
728.0	6.627042	-1.452048	7.162606	0.053696	-0.200097	-0.068021	-0.706787	0.320313	0.356445
729.0	6.729257	-1.594905	7.004296	0.040551	-0.214071	-0.06479	-0.702393	0.320313	0.358643
730.0	6.75869	-1.536766	7.05164	0.041833	-0.224227	-0.059474	-0.704346	0.318115	0.365234
731.0	6.67596	-1.535208	7.160045	0.043445	-0.224977	-0.056545	-0.704346	0.320313	0.367432
732.0	6.644665	-1.741962	7.149783	0.051965	-0.24036	-0.063464	-0.702148	0.313965	0.358643
733.0	6.569597	-1.784268	7.167226	0.043456	-0.264319	-0.070516	-0.702148	0.318115	0.363037
734.0	6.580399	-1.614814	7.219802	0.009555	-0.303153	-0.077732	-0.697998	0.320313	0.365234
735.0	6.340922	-1.693647	7.471863	-0.066429	-0.330261	-0.065222	-0.701904	0.313721	0.371826
736.0	6.447467	-2.063784	7.226641	-0.243464	-0.396348	-0.123398	-0.701904	0.313721	0.375977
737.0	6.758256	-1.727012	7.442652	-0.314335	-0.432374	-0.121042	-0.69751	0.311523	0.371826
738.0	6.916577	-1.511683	7.597829	-0.300186	-0.418741	-0.151607	-0.701904	0.309326	0.375977
739.0	7.093374	-1.908652	7.253291	-0.393239	-0.390289	-0.151482	-0.693115	0.307129	0.380371
740.0	6.269506	-1.199553	8.54023	-0.077867	-0.443593	-0.164036	-0.697021	0.296387	0.382568
741.0	6.462497	-0.624373	8.560419	-0.351656	-0.718048	-0.149375	-0.697021	0.300537	0.38916
742.0	8.545832	-1.391226	6.244189	-0.094573	-0.564626	-0.138308	-0.699463	0.302734	0.386963
743.0	7.252246	-1.407328	8.096628	0.113056	-0.47966	-0.117608	-0.695068	0.302734	0.391357
744.0	6.765378	-1.581945	8.847106	0.493096	-0.573907	-0.137584	-0.701416	0.300537	0.386963
745.0	6.404271	-1.859226	9.767149	0.592222	-0.76495	-0.099393	-0.699463	0.304688	0.393555
746.0	5.566951	-1.086502	11.432102	0.7583	-1.154057	-0.104727	-0.704102	0.309082	0.386963
747.0	4.776075	-1.250415	12.464399	0.536453	-1.871302	-0.143653	-0.69751	0.313477	0.395508
748.0	4.03248	-1.36129	13.166246	0.446375	-2.71618	-0.239319	-0.690674	0.304688	0.4021
749.0	3.330191	-2.238283	13.108917	0.30849	-3.694671	-0.412654	-0.690918	0.308838	0.419434
750.0	3.099997	-3.010042	13.163758	0.558849	-4.758115	-0.63241	-0.684082	0.306396	0.441162
751.0	1.698262	-4.866655	14.170262	0.899398	-6.003553	-0.945551	-0.670898	0.303955	0.467285
752.0	4.231757	-5.776265	15.490422	1.109139	-7.715495	-1.3032	-0.661621	0.290771	0.495361
753.0	13.752261	-6.854967	16.895913	1.111965	-8.907483	-1.619201	-0.637451	0.288086	0.541016
754.0	17.436854	-4.258461	19.258943	1.250772	-9.406172	-1.857933	-0.612793	0.266113	0.569336
755.0	17.072787	-3.773463	18.784315	0.994442	-9.561734	-1.894124	-0.588135	0.255127	0.599854
756.0	14.88353	3.468032	21.528538	0.769437	-9.499124	-1.493766	-0.569824	0.231201	0.623779
757.0	14.392424	-5.794498	21.207905	-0.836845	-9.18514	-0.886498	-0.544922	0.207275	0.643555
758.0	-2.204469	-6.481819	19.044434	-1.106502	-8.618576	-0.911482	-0.522217	0.183594	0.658691
759.0	-28.349625	-6.272417	16.705766	-1.153472	-11.067584	-1.604761	-0.46875	0.157471	0.700195
760.0	57.195861	-16.993654	13.350684	-2.519305	-11.892075	-2.386128	-0.439453	0.127197	0.708984
761.0	47.274209	-14.148384	7.764867	2.954458	-2.844606	-0.516634	-0.451172	0.14502	0.65918
762.0	16.976461	-0.162989	33.754033	3.69022	1.60674	1.286033	-0.471436	0.158691	0.598389
763.0	9.161478	-4.441856	21.28989	1.591485	3.601652	2.028242	-0.471924	0.168213	0.5354
764.0	-10.700963	-3.461052	16.925575	1.940939	3.576794	1.908233	-0.461426	0.175537	0.474609
765.0	-9.345698	-0.732726	13.257047	1.976246	3.227648	1.386774	-0.444336	0.184814	0.437744
766.0	-5.499618	2.459766	12.531857	1.659639	3.006489	0.953367	-0.413574	0.174561	0.407715
767.0	-2.958814	3.519174	11.847364	1.016081	3.103161	0.611215	-0.393799	0.172607	0.401123
768.0	0.818995	3.179412	11.215659	0.247399	3.515043	0.2121	-0.373047	0.142578	0.396973
769.0	4.453325	3.485915	11.103731	-0.345292	4.286871	-0.044737	-0.376709	0.125244	0.405762
770.0	5.528668	2.328489	10.481866	-0.910672	5.149958	-0.136628	-0.40332	0.077881	0.403809
771.0	5.120309	-0.047849	9.410283	-1.099502	5.831671	-0.289621	-0.432129	0.034668	0.395264
772.0	5.145308	-1.108732	8.417045	-0.990918	6.243152	-0.515429	-0.460938	-0.008057	0.367188
773.0	5.936055	-0.672137	7.680192	-0.855735	6.492976	-0.676787	-0.493652	-0.065674	0.337158
774.0	6.970559	0.144386	7.652006	-0.827929	6.633195	-0.655034	-0.529053	-0.110596	0.306885
775.0	8.044263	-0.016481	7.540689	-0.906863	6.670063	-0.490851	-0.546875	-0.159668	0.270264
776.0	9.47286	-1.048929	7.910641	-0.973908	6.612777	-0.276397	-0.569336	-0.197998	0.227051
777.0	10.397243	-2.160477	8.250421	-0.878109	6.497196	-0.067814	-0.589844	-0.231934	0.181641
778.0	10.827447	-5.11328	7.665916	-0.571271	6.397253	0.053267	-0.606201	-0.261475	0.140625
779.0	11.810494	-3.835474	9.063085	-0.20419	6.130736	0.099933	-0.609863	-0.280273	0.106201
780.0	12.673698	-4.020167	8.83254	0.103572	6.182474	0.288175	-0.626709	-0.297119	0.069336
781.0	14.071236	-3.531867	8.43432	0.108381	6.195353	0.532569	-0.639893	-0.294678	0.038818
782.0	13.718745	-1.9822	9.804372	0.003158	6.188668	0.845424	-0.657959	-0.283203	-0.010986
783.0	14.209824	-1.287075	11.357883	-0.403278	5.932349	1.182563	-0.676758	-0.248291	-0.054443
784.0	17.132401	-0.699723	13.372867	-0.923296	5.551155	1.482096	-0.682129	-0.224121	-0.102295
785.0	21.135337	-0.369172	14.245466	-1.451632	5.40196	1.762337	-0.688477	-0.18042	-0.152344
786.0	23.224872	-2.497478	13.434739	-1.833469	5.4705	2.076188	-0.681396	-0.140869	-0.20459
787.0	23.288531	-3.673688	12.499548	-1.681265	5.481499	2.273934	-0.672119	-0.099365	-0.246094
788.0	24.705105	-3.241021	10.960477	-1.440385	5.280277	2.423702	-0.65625	-0.062256	-0.285156
789.0	26.520706	-3.148937	8.397959	-1.343215	5.062695	2.537165	-0.633789	-0.0271	-0.322266
790.0	26.74317	-5.385943	3.625691	-1.103966	4.957756	2.415265	-0.619629	-0.000977	-0.348389
791.0	25.892638	-4.932343	-0.973491	-0.466026	4.893221	1.99368	-0.596924	0.031738	-0.374512
792.0	27.037438	-0.62612	-5.932337	-0.107777	4.667713	1.452216	-0.580078	0.042969	-0.402588
793.0	31.014942	5.482825	-13.037209	-0.158426	4.27715	0.928143	-0.562988	0.049805	-0.422119
794.0	29.727977	9.654911	-21.415712	-0.480608	3.78857	0.368484	-0.545898	0.060791	-0.435303
795.0	24.372536	10.109444	-23.528494	-1.199801	2.535441	-0.375015	-0.539795	0.07373	-0.446045
796.0	21.592083	2.991294	-20.531464	-1.420816	0.917127	-1.223964	-0.537598	0.06958	-0.452637
797.0	21.67432	-0.260407	-11.675042	-0.832566	-0.388143	-1.778848	-0.541748	0.067139	-0.435303
798.0	22.162297	-3.353234	-5.443679	-0.562078	-1.183776	-1.718216	-0.548096	0.060547	-0.424316
799.0	18.750946	-8.282692	0.664676	-0.247849	-1.349626	-1.292592	-0.556641	0.056152	-0.40918
800.0	14.910814	-1.442321	6.375264	1.776398	-4.516618	-1.390074	-0.586426	0.044678	-0.378906
801.0	-5.305184	0.185664	-25.469755	-0.207479	-3.476276	0.930819	-0.586914	0.052979	-0.357178
802.0	-13.782822	-14.289418	45.621729	1.470367	-6.993054	-0.796206	-0.618896	0.043701	-0.307373
803.0	66.529237	16.061668	-9.31843	2.372021	-7.720985	-1.458941	-0.629639	0.036865	-0.279053
804.0	7.755998	20.174137	32.282499	2.798615	-1.060726	1.668309	-0.640381	0.038574	-0.257568
805.0	7.479939	1.826758	0.20483	-3.473461	-5.666648	-0.918399	-0.646729	0.035889	-0.225098
806.0	8.443186	0.498593	12.870504	0.312644	-3.513051	-1.116317	-0.659424	0.029053	-0.190186
807.0	9.96312	-6.269604	4.960333	-1.029207	-4.22704	-0.677664	-0.661865	0.032959	-0.162109
808.0	14.378176	-10.218613	4.695726	-0.157699	-3.763362	-0.844458	-0.667969	0.026123	-0.140381
809.0	24.645289	-15.253794	9.241494	-0.371466	-3.770496	-2.086708	-0.671631	0.010742	-0.114258
810.0	20.637876	-4.878655	4.113039	2.182824	-0.19136	-0.952146	-0.671143	-0.002197	-0.114258
811.0	2.695833	12.061163	13.792298	2.753688	-1.465174	-1.678469	-0.670898	-0.008789	-0.105713
812.0	16.551329	4.386277	11.749553	0.139977	-1.016077	-0.556163	-0.677246	-0.017578	-0.101318
813.0	7.171409	-4.281139	5.822086	0.355968	-0.275729	-0.370782	-0.675049	-0.013184	-0.101318
814.0	8.870973	1.809041	10.51947	0.273437	-0.42307	-0.258178	-0.677246	-0.017578	-0.094727
815.0	6.833529	-2.775838	6.969779	0.051928	-0.254229	-0.138656	-0.672852	-0.015381	-0.090332
816.0	6.826417	-0.518588	8.350294	0.102691	-0.269078	-0.108803	-0.677002	-0.019775	-0.092529
817.0	7.132338	-1.693141	7.151296	-0.062263	-0.247029	-0.051407	-0.672852	-0.015381	-0.088135
818.0	6.729961	-0.873367	8.028194	-0.003349	-0.177368	-0.031121	-0.672607	-0.019775	-0.090332
819.0	6.579881	-1.741843	7.417503	-0.089595	-0.190254	0.010409	-0.672607	-0.021973	-0.092529
820.0	6.418549	-2.054093	7.310732	-0.048678	-0.175234	-0.004359	-0.672607	-0.019775	-0.090332
821.0	6.490509	-1.733614	7.398989	-0.075365	-0.229442	-0.004935	-0.672607	-0.02417	-0.081787
822.0	6.508944	-1.781218	7.353504	-0.0054	-0.238407	-0.033736	-0.679199	-0.017578	-0.086182
823.0	6.487763	-2.083972	7.166547	0.020013	-0.253563	-0.053207	-0.677002	-0.017822	-0.07959
824.0	6.764759	-1.604026	7.307136	0.034168	-0.28319	-0.068884	-0.677002	-0.022217	-0.075195
825.0	6.796854	-1.609726	7.210572	0.063345	-0.25907	-0.068973	-0.674805	-0.022217	-0.077393
826.0	6.935495	-1.434539	7.242927	0.076789	-0.228226	-0.065013	-0.678955	-0.02417	-0.081787
827.0	6.861517	-1.473876	7.202468	0.077865	-0.20928	-0.054678	-0.676758	-0.024414	-0.068604
828.0	6.880167	-1.419947	7.159923	0.06781	-0.181765	-0.043263	-0.674561	-0.026367	-0.075195
829.0	6.85614	-1.353413	7.095712	0.053846	-0.160237	-0.031069	-0.674805	-0.017822	-0.068604
830.0	6.820182	-1.320648	7.082472	0.037073	-0.137568	-0.020969	-0.672852	-0.015869	-0.068848
831.0	6.883536	-1.577664	6.869882	-0.018859	-0.144493	-0.001743	-0.674805	-0.02002	-0.06665
832.0	6.753441	-1.236136	7.374917	-0.02365	-0.163927	-0.005579	-0.678955	-0.024414	-0.06665
833.0	6.739	-1.548143	6.955683	-0.029042	-0.164713	0.019237	-0.677002	-0.018066	-0.06665
834.0	6.645527	-1.701324	7.140376	-0.010362	-0.125176	-0.004017	-0.676758	-0.026611	-0.062256
835.0	6.857765	-1.641157	6.753558	-0.028799	-0.148402	-0.002655	-0.672607	-0.022461	-0.055664
836.0	6.826972	-1.180636	7.055451	0.001299	-0.141789	-0.005159	-0.674805	-0.020264	-0.060059
837.0	6.789267	-1.499344	7.036009	-0.016491	-0.14774	0.000967	-0.677002	-0.022217	-0.064453
838.0	6.75697	-1.556874	7.173429	-0.025154	-0.150002	0.000983	-0.672363	-0.024414	-0.066406
839.0	6.60607	-1.677465	7.223637	-0.060747	-0.172412	-0.009526	-0.674805	-0.022217	-0.060059
840.0	6.611447	-1.747478	7.130142	-0.084926	-0.207213	-0.015402	-0.678955	-0.022217	-0.062256
841.0	6.645252	-1.654729	7.144154	-0.100929	-0.228821	-0.040683	-0.672363	-0.024414	-0.062256
842.0	6.51936	-1.891016	7.298788	-0.190257	-0.27782	-0.056986	-0.678955	-0.022461	-0.05127
843.0	6.850449	-1.787895	7.260301	-0.226688	-0.297276	-0.088008	-0.674561	-0.022461	-0.049072
844.0	6.831329	-1.799373	7.371789	-0.313644	-0.326477	-0.104235	-0.674561	-0.024658	-0.05127
845.0	7.067816	-1.528832	7.242994	-0.348249	-0.321129	-0.115765	-0.679199	-0.020508	-0.044922
846.0	6.76535	-1.910539	7.820621	-0.163738	-0.326219	-0.124535	-0.681152	-0.024658	-0.05127
847.0	6.22152	-0.395574	9.054256	-0.247198	-0.514546	-0.124859	-0.681152	-0.024658	-0.042725
848.0	7.800129	-1.857153	6.410586	-0.217767	-0.514334	-0.130521	-0.680908	-0.029053	-0.03833
849.0	7.046161	-0.91325	7.92322	-0.259895	-0.507012	-0.105255	-0.68335	-0.024902	-0.029785
850.0	7.125297	-1.139995	8.239937	-0.241205	-0.559263	-0.115353	-0.680908	-0.029297	-0.031738
851.0	7.862964	-1.305978	8.005464	-0.169094	-0.535433	-0.124295	-0.678955	-0.022949	-0.025391
852.0	7.082605	-1.471793	9.091112	0.566883	-0.603609	-0.128513	-0.680908	-0.029297	-0.023193
853.0	5.522689	-1.50711	11.242416	0.869462	-0.844197	-0.06384	-0.683105	-0.027344	-0.014404
854.0	3.994858	-1.47221	13.028554	0.689512	-1.702433	-0.139123	-0.682861	-0.031738	-0.001465
855.0	4.396993	-1.273726	13.340912	0.431367	-2.643226	-0.217777	-0.678467	-0.030029	0.024414
856.0	3.680905	-2.225105	13.188989	0.294239	-3.529075	-0.346714	-0.680664	-0.032471	0.046143
857.0	2.371683	-3.434796	13.633787	0.410049	-4.638364	-0.598537	-0.677979	-0.039307	0.083008
858.0	2.411212	-4.112474	14.0728	0.724812	-5.919072	-0.90061	-0.673584	-0.040039	0.126465
859.0	4.400115	-4.492032	16.08493	1.009041	-7.548438	-1.187655	-0.664551	-0.044922	0.185059
860.0	12.076953	-7.688861	17.180999	0.772543	-8.833317	-1.494147	-0.644531	-0.056641	0.248047
861.0	15.727203	-5.500682	18.862871	1.513716	-9.527508	-1.827943	-0.613525	-0.063721	0.315186
862.0	15.905259	-4.3412	20.312017	1.440189	-9.802054	-1.832225	-0.584961	-0.064453	0.369385
863.0	16.754939	2.523315	21.554377	1.332526	-9.687113	-1.469532	-0.541504	-0.064941	0.427979
864.0	12.515866	-2.131085	21.711069	-0.322183	-9.463071	-0.686235	-0.508301	-0.074463	0.490967
865.0	-2.425163	-6.690399	19.095275	-0.811018	-9.062054	-0.553352	-0.459961	-0.079102	0.532227
866.0	-27.52041	-3.293055	19.221782	-0.571721	-11.240174	-1.402897	-0.378906	-0.090332	0.588867
867.0	49.116621	-15.382734	10.955034	-2.726079	-12.253976	-2.837887	-0.326172	-0.101318	0.630127
868.0	47.075262	-18.518987	7.733029	3.282178	-3.590883	-1.900203	-0.322754	-0.080078	0.643066
869.0	22.311205	7.767442	35.987449	5.874354	1.041126	-0.176709	-0.332764	-0.045654	0.64502
870.0	13.771655	3.045783	25.465186	0.482644	3.461928	1.065834	-0.369873	-0.039307	0.640625
871.0	-7.935816	-4.260737	16.973039	0.252122	3.896624	1.377432	-0.396729	-0.021973	0.629639
872.0	-7.962438	-2.656027	13.029366	0.880904	3.659586	0.911358	-0.419189	-0.00708	0.62085
873.0	-4.905216	-0.331077	11.516281	0.780146	3.521849	0.556902	-0.443848	0.012207	0.618652
874.0	-2.870285	1.377442	10.706109	0.486511	3.55091	0.311758	-0.476807	0.020996	0.601074
875.0	0.741046	2.688088	10.453177	-0.034313	3.754379	0.215728	-0.505371	0.027588	0.592529
876.0	4.123451	2.118293	10.136328	-0.565723	4.331526	0.260082	-0.547119	0.033936	0.574951
877.0	5.730868	0.46684	9.489269	-0.868197	5.052089	0.233442	-0.584473	0.042969	0.546631
878.0	5.964517	-1.197067	8.977745	-0.85717	5.708058	0.088391	-0.632568	0.043213	0.509766
879.0	6.054122	-1.469641	8.358778	-0.677945	6.187166	-0.099008	-0.674316	0.054443	0.468506
880.0	6.308582	-0.84646	7.821511	-0.515706	6.487813	-0.219315	-0.720215	0.054932	0.414063
881.0	6.965973	0.226468	7.607082	-0.506038	6.646888	-0.201699	-0.757568	0.059814	0.357666
882.0	7.939279	0.731526	7.950968	-0.64171	6.696946	-0.050682	-0.790283	0.060547	0.28833
883.0	9.257499	-0.157305	8.016902	-0.78855	6.703414	0.125274	-0.810059	0.05957	0.210205
884.0	10.088	-1.177404	8.370614	-0.781672	6.675959	0.249495	-0.823242	0.060303	0.138672
885.0	10.728082	-1.981314	8.985679	-0.660314	6.611604	0.304919	-0.827637	0.052734	0.071533
886.0	11.636388	-2.385443	9.509218	-0.519368	6.53985	0.339803	-0.822998	0.041016	-0.010742
887.0	12.279784	-2.463	9.742375	-0.380064	6.470635	0.404011	-0.814209	0.0354	-0.069336
888.0	12.909204	-1.648586	9.951158	-0.362901	6.407995	0.53222	-0.803223	0.029785	-0.134277
889.0	14.268817	-0.640149	10.873217	-0.52739	6.325408	0.757555	-0.783691	0.030518	-0.188477
890.0	15.369292	0.430481	12.003258	-0.868603	6.174198	1.020787	-0.774902	0.024902	-0.238281
891.0	17.647716	0.520711	13.835483	-1.373546	5.909037	1.223123	-0.755615	0.030029	-0.285889
892.0	20.497005	-0.402751	15.140082	-1.870268	5.677094	1.358177	-0.74292	0.039307	-0.333496
893.0	23.966062	-1.748319	14.269624	-2.211152	5.517575	1.548223	-0.719727	0.057129	-0.374756
894.0	26.329894	-1.746547	11.635483	-2.252699	5.395261	1.814383	-0.696533	0.074707	-0.405273
895.0	26.977749	-1.183382	8.368065	-2.246274	5.167056	2.09852	-0.675537	0.090332	-0.439941
896.0	27.781662	-2.139898	4.860347	-2.133873	4.867826	2.290007	-0.654785	0.112549	-0.472412
897.0	28.007986	-3.991337	0.271701	-1.819122	4.615099	2.410962	-0.618652	0.134521	-0.50293
898.0	27.045631	-4.292356	-4.25902	-1.144119	4.40523	2.312946	-0.590576	0.141602	-0.533203
899.0	28.014871	-1.554448	-9.469643	-0.456281	4.141303	1.94516	-0.567139	0.152588	-0.554932
900.0	30.293121	3.815298	-15.067066	0.047426	3.913234	1.414908	-0.54126	0.157227	-0.574463
901.0	27.713139	7.771301	-19.75873	-0.009673	3.2437	0.808313	-0.523682	0.155518	-0.587402
902.0	22.118307	6.754485	-21.868656	-0.252067	2.033501	-0.049968	-0.512695	0.14917	-0.59375
903.0	21.22135	3.275156	-18.117108	-0.166294	0.494148	-0.963664	-0.508301	0.146973	-0.59375
904.0	22.81155	0.8477	-11.467672	0.181824	-0.617245	-1.497708	-0.522705	0.129639	-0.59375
905.0	22.492192	-4.114175	-3.44842	0.443592	-0.873438	-1.385353	-0.522461	0.118896	-0.589355
906.0	18.065667	-2.777572	0.530035	1.49562	-3.46071	-2.223029	-0.558594	0.096924	-0.567627
907.0	3.74635	8.48731	-35.552405	0.642275	-3.059492	-0.487471	-0.564697	0.090332	-0.556641
908.0	-17.328354	-16.800189	47.842478	0.463714	-6.899995	-2.752647	-0.616211	0.072266	-0.515625
909.0	71.829727	7.066549	-3.141892	1.377975	-7.261039	-2.122102	-0.634766	0.050293	-0.480713
910.0	8.426762	8.812808	27.356376	2.259859	-1.753859	1.340884	-0.650146	0.050049	-0.467773
911.0	11.497125	4.051405	2.63431	-0.94052	-4.841685	-0.418971	-0.66748	0.051758	-0.435303
912.0	6.92373	7.430728	14.785532	0.122012	-3.627475	-0.542654	-0.688965	0.044678	-0.409424
913.0	4.750107	-1.376906	6.363634	-1.245374	-3.83695	-0.356504	-0.699707	0.044434	-0.383301
914.0	7.167176	-8.767972	4.860909	-1.233244	-4.190661	-0.427424	-0.715088	0.046143	-0.357422
915.0	25.962576	-23.809759	12.612203	-2.350921	-4.928335	-1.80637	-0.732178	0.039063	-0.324951
916.0	34.500886	-8.935118	-7.924002	2.795371	0.704564	-0.622889	-0.727295	0.026367	-0.339844
917.0	-12.804372	13.066064	18.956708	4.201956	-1.927258	-1.782813	-0.734863	-0.001953	-0.315918
918.0	26.885261	7.022931	10.616974	-0.218665	-1.059925	-0.537389	-0.739014	-0.006104	-0.315918
919.0	2.507284	-2.80755	7.595784	0.065573	-0.058976	-0.236811	-0.736816	-0.006104	-0.313721
920.0	9.810702	-0.727125	9.327163	0.013243	-0.432199	-0.208107	-0.736816	-0.008301	-0.313721
921.0	5.861707	-1.536611	7.566346	0.162666	-0.221536	-0.155392	-0.745605	-0.006104	-0.315918
922.0	7.748958	-0.118059	8.070157	-0.058415	-0.278716	-0.023194	-0.739014	-0.008301	-0.30957
923.0	6.646068	-1.83203	7.612873	-0.089885	-0.192915	0.019533	-0.743408	-0.006348	-0.307373
924.0	6.767745	-1.567129	7.882269	-0.119026	-0.165531	0.037217	-0.743164	-0.008545	-0.30957
925.0	6.786824	-2.47454	7.067281	-0.107627	-0.134361	0.025801	-0.73877	-0.008545	-0.305176
926.0	6.371263	-1.80229	7.673074	-0.067869	-0.132029	0.008613	-0.741211	-0.006348	-0.302979
927.0	6.512473	-2.071447	7.336174	-0.055976	-0.127653	-0.002672	-0.747559	-0.010742	-0.302979
928.0	6.483608	-1.844905	7.433268	-0.037195	-0.145203	-0.015978	-0.745361	-0.008545	-0.307373
929.0	6.502575	-1.877172	7.292952	-0.020828	-0.165744	-0.037258	-0.743164	-0.008545	-0.302979
930.0	6.587513	-1.669098	7.290524	0.005701	-0.161625	-0.046317	-0.747559	-0.008545	-0.296387
931.0	6.599706	-1.859789	7.259072	0.036337	-0.168822	-0.059675	-0.741211	-0.006348	-0.296387
932.0	6.64153	-1.721623	7.232381	0.078059	-0.165342	-0.074521	-0.745117	-0.012939	-0.294189
933.0	6.635322	-1.715898	7.251447	0.100357	-0.15378	-0.083032	-0.745117	-0.015137	-0.294189
934.0	6.702172	-1.562022	7.288928	0.0959	-0.142501	-0.082294	-0.747314	-0.015137	-0.294189
935.0	6.56445	-1.558325	7.326436	0.072431	-0.14228	-0.0712	-0.747559	-0.010742	-0.294189
936.0	6.716501	-1.730806	7.12053	0.031542	-0.150287	-0.06416	-0.745361	-0.008545	-0.294189
937.0	6.094685	-1.377395	7.792514	0.020127	-0.16105	-0.066155	-0.745361	-0.010742	-0.290039
938.0	7.015223	-2.197457	6.442322	-0.006221	-0.20565	-0.05777	-0.749512	-0.013184	-0.285645
939.0	6.507506	-1.346998	7.333914	0.042377	-0.170654	-0.076144	-0.758057	-0.017334	-0.287842
940.0	6.639092	-1.423467	7.172281	-0.017569	-0.195689	-0.063966	-0.751709	-0.012939	-0.292236
941.0	6.769794	-1.607701	7.04812	-0.033322	-0.210226	-0.055323	-0.749512	-0.010986	-0.279053
942.0	6.861099	-1.632415	6.680942	-0.001459	-0.179468	-0.061165	-0.753906	-0.015137	-0.285645
943.0	6.597827	-1.276017	7.316235	-0.006994	-0.182751	-0.049773	-0.751709	-0.013184	-0.276855
944.0	6.777763	-1.519805	7.066872	-0.01575	-0.18685	-0.045868	-0.751709	-0.015381	-0.28125
945.0	6.745219	-1.536498	7.020531	-0.033019	-0.177887	-0.042608	-0.749268	-0.017334	-0.28125
946.0	6.649325	-1.696791	7.048385	-0.063214	-0.200331	-0.045417	-0.749268	-0.017578	-0.274658
947.0	6.635101	-1.691568	7.141707	-0.075804	-0.199339	-0.050657	-0.751709	-0.01123	-0.272705
948.0	6.605361	-1.785543	7.202352	-0.123969	-0.22236	-0.057066	-0.753662	-0.019775	-0.272705
949.0	6.529499	-1.641971	7.448061	-0.196228	-0.245359	-0.065005	-0.753662	-0.017578	-0.274658
950.0	6.785573	-1.493634	7.423091	-0.303445	-0.298316	-0.06057	-0.758057	-0.019775	-0.268311
951.0	6.860726	-1.419467	7.471391	-0.378719	-0.314583	-0.056599	-0.756104	-0.013428	-0.270508
952.0	6.899464	-1.184245	7.697732	-0.456036	-0.332049	-0.043238	-0.755859	-0.015625	-0.266113
953.0	6.569049	-1.884162	7.995021	-0.262808	-0.382221	-0.053281	-0.755859	-0.015625	-0.261719
954.0	6.164759	-0.603243	9.079006	-0.413576	-0.647437	-0.049685	-0.762695	-0.011475	-0.255371
955.0	7.928622	-1.70211	6.792303	-0.317395	-0.591388	-0.064143	-0.764893	-0.011475	-0.255371
956.0	7.296199	-1.262315	7.867371	-0.258974	-0.519002	-0.058049	-0.760254	-0.013672	-0.248779
957.0	6.75778	-1.891156	8.765694	0.096274	-0.567686	-0.075719	-0.760498	-0.011719	-0.240234
958.0	6.895823	-1.799365	9.359268	0.383643	-0.710525	-0.09563	-0.760254	-0.013916	-0.233643
959.0	6.368938	-1.888254	10.214854	0.530205	-0.870479	-0.047152	-0.768555	-0.022705	-0.222656
960.0	5.107423	-1.204408	12.00679	0.509973	-1.337294	-0.046489	-0.766357	-0.024902	-0.216309
961.0	4.329439	-1.079732	12.727307	0.212608	-2.152544	-0.066573	-0.770996	-0.016602	-0.196777
962.0	4.06902	-0.473591	13.288073	0.025364	-3.059667	-0.110429	-0.781738	-0.02124	-0.170654
963.0	3.293337	-1.102944	13.555239	0.065666	-4.04092	-0.173711	-0.781494	-0.023926	-0.133789
964.0	1.523285	-3.274928	13.738531	0.27338	-5.292129	-0.335568	-0.791992	-0.033203	-0.086182
965.0	2.027256	-4.623522	14.94575	0.636035	-6.743679	-0.618833	-0.789551	-0.036133	-0.03418
966.0	6.574482	-6.073558	16.050358	0.632165	-8.370871	-0.882788	-0.786621	-0.052002	0.0354
967.0	15.14271	-6.805909	17.457907	0.719472	-9.408551	-1.163023	-0.772949	-0.05957	0.115479
968.0	18.330352	-8.031299	18.257389	0.969429	-9.740275	-1.593669	-0.759277	-0.073486	0.191406
969.0	18.327154	-4.404917	21.601733	1.589685	-9.727886	-1.807564	-0.734863	-0.080811	0.271729
970.0	14.643821	0.422893	23.053092	0.67705	-9.341858	-1.265885	-0.695068	-0.090088	0.328125
971.0	5.878816	-4.257494	22.108064	-0.266363	-9.092455	-0.71661	-0.659912	-0.099365	0.391113
972.0	-21.048326	-4.274275	19.622206	-0.608951	-9.726121	-0.87819	-0.602783	-0.11084	0.452148
973.0	2.070071	-6.407416	17.460711	-1.885087	-13.196939	-2.77932	-0.535645	-0.150146	0.517334
974.0	55.495028	-28.288428	-0.726283	-0.973354	-6.628902	-3.027911	-0.511475	-0.154785	0.552246
975.0	38.440899	8.130116	32.430756	9.085744	-0.026771	-2.377981	-0.510986	-0.114014	0.554199
976.0	17.774647	16.604695	37.330494	0.601764	2.518967	0.197061	-0.516846	-0.130859	0.530273
977.0	-3.129333	-8.081671	18.316262	-4.007951	4.151673	1.197604	-0.536133	-0.137207	0.510742
978.0	-11.161839	-11.719904	11.920434	-0.39707	3.769472	0.575094	-0.549316	-0.136963	0.491211
979.0	-6.499998	-3.351118	12.360156	0.615473	3.582678	0.054724	-0.560303	-0.134521	0.467529
980.0	-3.254595	0.002201	11.469585	0.494389	3.494427	-0.10173	-0.579834	-0.136475	0.454346
981.0	-0.505413	1.08682	10.57232	0.036652	3.650995	0.039881	-0.591064	-0.13208	0.437012
982.0	2.813675	-0.087404	9.745736	-0.342443	4.14218	0.179255	-0.610352	-0.140381	0.404541
983.0	4.583183	-0.779753	9.539115	-0.507362	4.785894	0.239064	-0.625732	-0.137695	0.367676
984.0	5.217495	-1.422126	9.286074	-0.506925	5.379722	0.251613	-0.640625	-0.148193	0.335205
985.0	5.844307	-1.581673	8.80711	-0.403911	5.813834	0.231062	-0.668945	-0.147705	0.30249
986.0	6.477399	-1.433256	8.122613	-0.277727	6.128036	0.219106	-0.682129	-0.151367	0.254883
987.0	7.153448	-0.878823	7.738742	-0.181849	6.329024	0.237883	-0.690674	-0.157227	0.205078
988.0	8.15354	-0.414402	7.69968	-0.161741	6.443457	0.289875	-0.708008	-0.158936	0.163818
989.0	9.393134	0.029744	8.119248	-0.239176	6.50078	0.42213	-0.712646	-0.158203	0.118408
990.0	10.308666	-0.943048	8.279905	-0.258131	6.502526	0.527054	-0.729736	-0.168457	0.070557
991.0	10.897063	-1.724827	8.887789	-0.182787	6.424691	0.563969	-0.734131	-0.167969	0.029541
992.0	11.65485	-2.722978	9.492886	-0.044051	6.280234	0.551698	-0.747559	-0.165283	-0.016113
993.0	12.657606	-3.757571	9.481438	0.181399	6.156291	0.539679	-0.754395	-0.158203	-0.055176
994.0	13.348513	-2.299255	9.805806	0.389974	6.003171	0.619146	-0.75	-0.157471	-0.10498
995.0	14.259989	-1.630049	9.86937	0.305174	5.972629	0.830081	-0.754883	-0.150391	-0.15918
996.0	15.192483	-0.986451	10.253782	0.105183	5.907533	1.022106	-0.746582	-0.138916	-0.209229
997.0	16.280746	-0.260737	12.366259	-0.163932	5.786415	1.133976	-0.742676	-0.131836	-0.259033
998.0	19.163681	1.164291	14.519179	-0.705119	5.651329	1.254955	-0.728027	-0.118164	-0.308838
999.0	21.4403	-0.304574	14.598248	-1.50317	5.540833	1.33421	-0.711426	-0.102295	-0.361084
1000.0	22.641257	-1.636885	12.868582	-1.906943	5.454233	1.374714	-0.69043	-0.086426	-0.404297
1001.0	24.278908	-2.444814	10.21306	-2.034542	5.290568	1.398771	-0.669189	-0.072998	-0.445557
1002.0	26.048435	-2.93644	7.686849	-2.052628	5.131722	1.444962	-0.639404	-0.057373	-0.482422
1003.0	27.150541	-3.453693	4.018573	-1.950976	5.017512	1.4889	-0.622803	-0.037354	-0.519287
1004.0	26.166629	-2.910696	-0.348285	-1.763253	4.852011	1.476334	-0.591064	-0.015381	-0.54541
1005.0	25.706018	-1.364967	-4.672597	-1.548999	4.536146	1.356029	-0.570068	0.0	-0.571533
1006.0	28.66554	1.168926	-9.739117	-1.399293	4.121667	1.088683	-0.544434	0.013428	-0.595215
1007.0	30.731471	4.377259	-16.803543	-1.264789	3.753471	0.656069	-0.523193	0.026855	-0.619141
1008.0	26.984099	6.262915	-21.612186	-1.328627	3.167382	-0.02007	-0.499512	0.03125	-0.62793
1009.0	23.864376	5.409969	-22.941218	-1.560657	2.022825	-0.987079	-0.493408	0.040039	-0.640869
1010.0	23.183212	3.07383	-18.826102	-1.506136	0.925953	-1.861096	-0.490967	0.038086	-0.649658
1011.0	22.795748	0.785943	-10.692268	-1.292708	-0.028346	-2.186577	-0.490723	0.031494	-0.640869
1012.0	22.897377	-3.271861	-5.285229	-1.187653	-0.635605	-1.929452	-0.49707	0.0271	-0.643066
1013.0	9.736682	-17.016601	3.28063	-0.630763	-1.161153	-1.689023	-0.511719	0.011963	-0.63208
1014.0	20.988033	6.939008	7.016087	3.410755	-6.462135	-1.019834	-0.552734	0.000488	-0.593018
1015.0	-11.572919	-3.525658	-10.733785	0.419291	-2.686502	1.714882	-0.561768	0.013184	-0.578125
1016.0	-19.830404	-21.381142	45.687194	-2.214257	-7.172739	-0.246155	-0.618164	0.012451	-0.534668
1017.0	76.963775	25.345194	-28.524631	6.64793	-6.84515	-1.500301	-0.631592	-0.037354	-0.515137
1018.0	-1.865302	27.941768	45.812183	1.940912	-2.095896	1.853977	-0.65625	-0.018555	-0.482666
1019.0	21.605464	-0.677302	-0.650941	-5.434986	-4.972052	-0.688043	-0.67627	-0.006104	-0.458984
1020.0	3.039723	2.584464	14.765253	0.78302	-3.157018	-1.052233	-0.691162	-0.012939	-0.430664
1021.0	6.052937	-10.257338	2.095432	-1.408701	-3.971127	-0.467627	-0.710693	-0.009277	-0.404785
1022.0	8.187937	-18.817777	8.422784	-0.354876	-4.184395	-0.952152	-0.71875	-0.026855	-0.378662
1023.0	45.524965	-18.882961	-8.221354	-0.365279	-3.001152	-2.985908	-0.720215	-0.041992	-0.37207
1024.0	-9.784414	1.925342	14.633688	5.214867	0.083382	-1.100951	-0.729736	-0.07666	-0.356689
1025.0	17.918501	17.553964	17.971315	2.565644	-1.906014	-1.760101	-0.736084	-0.083252	-0.348145
1026.0	12.832534	-5.010437	5.070959	-0.628555	-0.693248	-0.736804	-0.731445	-0.091797	-0.341553
1027.0	7.372153	0.406451	10.483938	1.054772	-0.401822	-0.805284	-0.731201	-0.098389	-0.334961
1028.0	9.377294	1.849729	9.52218	-0.026699	-0.530771	-0.291619	-0.737549	-0.098389	-0.339355
1029.0	6.659258	-2.445083	7.760964	0.15855	-0.39775	-0.244214	-0.737305	-0.10498	-0.330566
1030.0	7.28008	-0.411212	8.174632	0.026094	-0.390635	-0.144943	-0.744141	-0.10083	-0.324219
1031.0	7.535614	-1.273346	7.210984	-0.078731	-0.303468	-0.063831	-0.737305	-0.10498	-0.326416
1032.0	7.033309	-0.859153	7.70642	-0.012145	-0.17006	-0.031472	-0.739502	-0.107178	-0.328369
1033.0	6.723053	-1.898711	7.211726	-0.048889	-0.164923	-0.008551	-0.741943	-0.10083	-0.322021
1034.0	6.595957	-1.87629	7.196793	0.023285	-0.14033	-0.023708	-0.739502	-0.107178	-0.319824
1035.0	6.51962	-1.692842	7.342664	0.024133	-0.165368	-0.021887	-0.746094	-0.103027	-0.319824
1036.0	6.635426	-1.787116	7.250218	0.027957	-0.174553	-0.022177	-0.746094	-0.105225	-0.319824
1037.0	6.683003	-1.693161	7.285259	0.046586	-0.170646	-0.028199	-0.739502	-0.10498	-0.322021
1038.0	6.682762	-1.692492	7.243463	0.066455	-0.16531	-0.033147	-0.739258	-0.109619	-0.308838
1039.0	6.707342	-1.543201	7.298601	0.076642	-0.154244	-0.035918	-0.743896	-0.107178	-0.317627
1040.0	6.728952	-1.729718	7.205798	0.064328	-0.15518	-0.033766	-0.743896	-0.105225	-0.311035
1041.0	6.768139	-1.620609	7.261742	0.060847	-0.146215	-0.029789	-0.739502	-0.107422	-0.311035
1042.0	6.790912	-1.642746	7.063553	0.061204	-0.13308	-0.028342	-0.750244	-0.109375	-0.31543
1043.0	6.722482	-1.531363	7.050612	0.049134	-0.12254	-0.020875	-0.748047	-0.107422	-0.311035
1044.0	6.700354	-1.357911	7.251863	-0.033211	-0.164163	-0.001893	-0.741455	-0.11377	-0.308838
1045.0	6.780196	-1.787542	6.911015	0.06271	-0.085883	-0.013192	-0.743652	-0.109619	-0.306885
1046.0	6.729411	-1.396259	7.087721	0.001011	-0.109047	-3.6e-05	-0.748047	-0.109619	-0.306885
1047.0	6.5815	-1.624371	7.110564	-0.037509	-0.139586	0.006194	-0.743408	-0.114014	-0.300293
1048.0	6.720433	-1.775634	6.939067	-0.028004	-0.137758	0.00203	-0.743652	-0.107422	-0.304688
1049.0	6.81682	-1.409914	7.054475	-0.026879	-0.140097	0.005221	-0.743652	-0.109619	-0.30249
1050.0	6.818113	-1.387377	7.024	-0.069553	-0.14221	0.017379	-0.752441	-0.107422	-0.304688
1051.0	6.827833	-1.393555	7.013328	-0.069182	-0.142352	0.021015	-0.745605	-0.114014	-0.300293
1052.0	6.751735	-1.447379	7.124552	-0.066481	-0.143179	0.034635	-0.743652	-0.111816	-0.304688
1053.0	6.728754	-1.664794	7.145418	-0.096511	-0.163873	0.039223	-0.750244	-0.105469	-0.30249
1054.0	6.596042	-1.986407	7.193046	-0.097031	-0.185042	0.030559	-0.748047	-0.109619	-0.300293
1055.0	6.533216	-1.963986	7.282583	-0.107629	-0.217802	0.013375	-0.748291	-0.101074	-0.293945
1056.0	6.44385	-1.893781	7.50794	-0.160119	-0.274626	-0.012432	-0.748291	-0.103271	-0.295898
1057.0	6.642961	-2.095233	7.361921	-0.211977	-0.335561	-0.028822	-0.754883	-0.103516	-0.287354
1058.0	6.748236	-1.731402	7.541164	-0.225514	-0.356257	-0.05181	-0.754639	-0.103516	-0.285156
1059.0	6.489446	-1.731889	7.790363	-0.472967	-0.433943	-0.086835	-0.759033	-0.105713	-0.285156
1060.0	7.39668	-1.503905	7.15737	-0.446195	-0.41321	-0.096474	-0.756836	-0.105713	-0.280762
1061.0	7.189196	-2.165624	7.470451	-0.243389	-0.41646	-0.116898	-0.752441	-0.10376	-0.272217
1062.0	5.530253	0.188576	10.206247	-0.051009	-0.584628	-0.118067	-0.75708	-0.097168	-0.274414
1063.0	8.357234	-2.284106	5.974629	-0.267757	-0.712873	-0.125311	-0.759033	-0.10376	-0.27002
1064.0	7.789578	-0.93003	7.960042	0.085422	-0.465766	-0.125098	-0.756592	-0.110107	-0.265625
1065.0	7.073434	-1.757596	9.310204	0.414975	-0.477501	-0.09839	-0.759033	-0.105957	-0.259277
1066.0	6.207454	-1.697851	10.402213	0.770087	-0.664808	-0.037568	-0.763184	-0.105957	-0.25708
1067.0	4.400131	-1.415309	12.529333	0.620795	-1.308544	-0.049674	-0.762939	-0.112549	-0.246094
1068.0	4.859265	-1.549465	12.462787	0.256056	-2.135175	-0.088621	-0.769531	-0.113037	-0.224365
1069.0	4.05813	-1.751805	13.278396	0.132666	-2.951386	-0.197882	-0.775879	-0.117676	-0.189697
1070.0	2.546068	-1.617349	14.082963	0.3075	-4.068433	-0.38169	-0.781982	-0.122559	-0.155029
1071.0	2.214809	-4.34408	13.206725	0.370539	-5.327106	-0.595998	-0.786133	-0.125244	-0.118164
1072.0	2.190444	-5.24063	14.657391	0.983098	-6.751275	-0.961789	-0.792236	-0.134766	-0.05542
1073.0	8.003284	-5.574185	16.992401	1.047856	-8.38958	-1.218073	-0.793945	-0.14209	0.018311
1074.0	14.742225	-6.692382	17.708213	0.950607	-9.323134	-1.511465	-0.788818	-0.1604	0.094238
1075.0	17.981089	-5.38238	18.669856	1.18473	-9.601525	-1.791833	-0.766113	-0.176514	0.172607
1076.0	17.11471	-3.311625	21.220751	1.150638	-9.563029	-1.792021	-0.748291	-0.186035	0.241943
1077.0	15.702046	0.208906	22.518145	0.370757	-9.13867	-1.269886	-0.72168	-0.193115	0.309326
1078.0	4.527633	-5.626163	20.75705	-0.564033	-8.797071	-0.814367	-0.684082	-0.20459	0.37207
1079.0	-24.093725	-5.211675	17.533144	-0.439112	-9.793473	-1.209056	-0.637939	-0.214111	0.44165
1080.0	6.402671	-5.914428	18.338089	-1.440581	-13.192285	-3.002959	-0.568848	-0.249023	0.50708
1081.0	46.99507	-23.779684	2.26453	-0.448254	-7.727765	-2.969187	-0.53125	-0.264404	0.5354
1082.0	40.954053	2.4768	25.23234	6.420308	-0.822882	-3.280314	-0.527832	-0.241211	0.563477
1083.0	20.423863	14.862428	35.206157	2.050183	2.036624	-0.514593	-0.542969	-0.240967	0.541748
1084.0	1.972951	-2.671203	19.679733	-2.412509	3.953362	0.758507	-0.561768	-0.261963	0.513672
1085.0	-7.87586	-8.515282	12.516854	-1.11844	4.072208	0.633418	-0.585938	-0.257568	0.489746
1086.0	-7.400742	-5.268542	10.327511	-0.193289	3.842527	0.216487	-0.594482	-0.263672	0.470215
1087.0	-4.114681	-1.682737	9.594644	-0.060835	3.699077	-0.05051	-0.618408	-0.267822	0.448486
1088.0	-1.973864	-0.058867	9.063508	-0.282875	3.696684	-0.058355	-0.633301	-0.27417	0.435547
1089.0	1.570724	-0.122841	8.385812	-0.625693	3.918903	0.057484	-0.657227	-0.276123	0.418213
1090.0	4.518993	-0.888043	7.991923	-0.78964	4.453186	0.157102	-0.676758	-0.282227	0.389893
1091.0	5.650923	-1.474526	7.980164	-0.839485	5.075171	0.214999	-0.689697	-0.28418	0.355225
1092.0	6.315014	-1.66496	7.846491	-0.767576	5.586678	0.242407	-0.71582	-0.287842	0.316162
1093.0	7.032346	-1.554621	7.46197	-0.671029	5.995734	0.284095	-0.735352	-0.291748	0.2771
1094.0	7.528905	-1.273171	6.990624	-0.620258	6.282812	0.364913	-0.761719	-0.29126	0.225098
1095.0	7.957792	-0.354496	6.822078	-0.617907	6.435017	0.490361	-0.776855	-0.290771	0.188232
1096.0	8.430184	-0.085464	7.098331	-0.703119	6.478791	0.644362	-0.798584	-0.294434	0.140625
1097.0	9.33588	-0.601314	7.576731	-0.75661	6.415227	0.752545	-0.816406	-0.291748	0.094971
1098.0	10.267724	-0.949723	8.527247	-0.714363	6.27729	0.769186	-0.831543	-0.293213	0.045166
1099.0	11.419367	-1.838791	8.950443	-0.646433	6.127151	0.696827	-0.844727	-0.290771	0.010254
1100.0	12.562813	-3.069061	9.174688	-0.351282	6.038148	0.519961	-0.868896	-0.292236	-0.035156
1101.0	14.01359	-1.293278	9.074423	-0.303231	5.910307	0.497087	-0.888916	-0.283203	-0.074219
1102.0	14.368036	-0.389357	9.34673	-0.450984	5.905895	0.680672	-0.913086	-0.280762	-0.111084
1103.0	14.951127	-0.39534	9.424281	-0.635009	6.01009	0.908688	-0.944092	-0.267334	-0.161133
1104.0	14.953071	-0.343661	10.450372	-0.863123	5.901975	1.061076	-0.97998	-0.24292	-0.217773
1105.0	16.913159	-0.300787	12.666442	-1.14829	5.609167	1.064159	-1.018555	-0.208008	-0.27417
1106.0	20.074533	0.404841	13.968152	-1.520276	5.437943	1.02802	-1.054443	-0.18335	-0.350342
1107.0	22.31312	0.06045	13.768804	-1.967914	5.402166	1.059283	-1.062744	-0.143555	-0.426514
1108.0	23.706941	-0.519835	12.483643	-2.143729	5.454707	1.089127	-1.072266	-0.121094	-0.508789
1109.0	25.265937	-0.821379	11.078167	-2.203308	5.411294	1.110565	-1.05835	-0.096191	-0.593506
1110.0	26.749999	-1.488416	8.673364	-2.153408	5.418101	1.139542	-1.044189	-0.071289	-0.676025
1111.0	25.378853	-2.093247	4.863195	-1.90553	5.466266	1.13489	-1.014648	-0.052979	-0.745361
1112.0	22.887133	-1.66566	0.534272	-1.515665	5.261478	0.983936	-0.978516	-0.030273	-0.823486
1113.0	24.651042	0.401676	-4.227016	-1.188934	4.846275	0.697369	-0.942139	-0.020752	-0.88623
1114.0	29.829385	4.259474	-12.032883	-1.097768	4.395098	0.408685	-0.908203	0.001709	-0.949219
1115.0	28.00372	8.146126	-20.295811	-1.056249	3.841791	0.193862	-0.878418	0.015625	-1.001221
1116.0	24.18685	10.474908	-23.567117	-1.315375	2.49427	-0.072484	-0.851074	0.037842	-1.04248
1117.0	21.534906	4.278249	-19.754649	-1.436433	0.908506	-0.467982	-0.851807	0.055176	-1.066406
1118.0	20.018311	0.229934	-11.547997	-0.747982	-0.385664	-0.855298	-0.869873	0.068359	-1.090332
1119.0	20.298171	-1.126392	-4.397476	-0.312519	-1.267502	-0.760635	-0.895996	0.070801	-1.105469
1120.0	19.573991	-3.637079	0.003748	0.186801	-1.486536	-0.257562	-0.92041	0.079346	-1.116455
1121.0	8.076337	-8.42621	10.474384	1.655993	-2.867882	-0.21497	-0.978516	0.068115	-1.092773
1122.0	8.905987	14.038848	-21.285877	1.244751	-5.022589	2.203107	-1.0271	0.084961	-1.086426
1123.0	-29.748339	-17.785579	28.264444	2.158401	-4.417444	-0.314113	-1.119873	0.0625	-1.047363
1124.0	35.611663	18.969475	4.015741	3.418732	-8.958388	-1.078134	-1.218262	0.018555	-1.001953
1125.0	47.556698	27.983195	23.709283	2.968414	-1.526216	2.043689	-1.24585	0.057129	-0.991211
1126.0	-4.523765	1.629652	6.621072	-4.013409	-6.461403	0.073249	-1.315918	0.075439	-0.939453
1127.0	19.795817	8.098983	11.332587	1.56761	-3.449266	-1.172909	-1.366943	0.044678	-0.911133
1128.0	8.63319	7.564482	13.404281	-0.804249	-3.912082	-0.930084	-1.408447	0.04834	-0.878906
1129.0	4.373975	-17.26714	3.14314	-2.469526	-3.899295	-0.985165	-1.454346	0.053955	-0.835449
1130.0	11.389002	-15.952594	0.473505	0.365846	-3.622061	-1.234377	-1.496826	0.027588	-0.796387
1131.0	21.138577	-13.526463	8.259734	0.743974	-3.983805	-2.40882	-1.53833	-0.020508	-0.757324
1132.0	24.391586	2.271455	6.756605	3.251258	0.005914	-1.287614	-1.543457	-0.059082	-0.768066
1133.0	10.817115	19.759159	21.919446	3.743737	-2.462391	-1.583376	-1.570068	-0.096191	-0.730957
1134.0	9.915179	5.177795	6.809402	-1.669846	-0.629802	0.334326	-1.571045	-0.070557	-0.729004
1135.0	8.570656	-7.955781	5.088868	-0.93731	-0.859615	-0.157381	-1.583984	-0.074951	-0.713867
1136.0	7.663049	0.469731	9.110096	0.180642	-0.439583	-0.088753	-1.583984	-0.072754	-0.713867
1137.0	7.610012	-2.114272	6.758282	-0.025574	-0.387413	-0.043255	-1.590576	-0.075195	-0.707275
1138.0	6.984526	-0.583481	7.59986	0.12967	-0.23208	-0.06175	-1.588135	-0.081543	-0.705078
1139.0	7.046571	-1.080079	7.187983	0.052779	-0.205357	-0.01654	-1.594727	-0.07959	-0.696289
1140.0	6.894261	-1.392904	7.185513	0.069553	-0.147659	-0.017009	-1.592529	-0.077393	-0.700684
1141.0	6.822029	-1.409584	7.306221	0.013103	-0.158847	0.001478	-1.592773	-0.075439	-0.694336
1142.0	6.764026	-1.837452	7.232229	0.054367	-0.134623	-0.009734	-1.594727	-0.077393	-0.694336
1143.0	6.910895	-1.294215	7.279613	0.079128	-0.134542	-0.021366	-1.59668	-0.081787	-0.692139
1144.0	6.967216	-1.636873	7.053285	0.082705	-0.105923	-0.0262	-1.594482	-0.083984	-0.692139
1145.0	6.861782	-1.21418	7.262711	0.107048	-0.082916	-0.030703	-1.594482	-0.082031	-0.68335
1146.0	6.789162	-1.47115	7.150578	0.098029	-0.077719	-0.027062	-1.596436	-0.090576	-0.687744
1147.0	6.794382	-1.585209	7.132391	0.113255	-0.07781	-0.032781	-1.599121	-0.079834	-0.687744
1148.0	6.783923	-1.472759	7.211352	0.126109	-0.06766	-0.039201	-1.60083	-0.088379	-0.685547
1149.0	6.757174	-1.537987	7.122624	0.120764	-0.069507	-0.037645	-1.59668	-0.086182	-0.687744
1150.0	6.733821	-1.431941	7.169831	0.103124	-0.072466	-0.034012	-1.59668	-0.086182	-0.687744
1151.0	6.836663	-1.227651	7.051389	0.084613	-0.076898	-0.027901	-1.596436	-0.090576	-0.678955
1152.0	6.801748	-1.208945	7.023074	0.050041	-0.084689	-0.015385	-1.60083	-0.090576	-0.678955
1153.0	6.694491	-0.961706	7.243418	-0.007083	-0.112557	-0.003124	-1.598389	-0.092773	-0.674561
1154.0	6.748609	-1.372488	7.08891	0.049412	-0.086014	-0.003629	-1.600586	-0.092773	-0.672607
1155.0	6.824719	-1.435026	6.877151	-0.001821	-0.103023	0.00275	-1.60083	-0.088623	-0.67041
1156.0	6.920344	-1.35184	6.760138	-0.015336	-0.113255	0.002186	-1.598633	-0.088623	-0.674805
1157.0	6.992453	-1.354754	6.6885	0.020217	-0.10164	0.003955	-1.605225	-0.088623	-0.674805
1158.0	6.726682	-0.852902	7.17211	0.010771	-0.105706	0.006296	-1.605225	-0.088623	-0.666016
1159.0	6.865568	-1.091026	6.909302	-0.000572	-0.112294	0.025044	-1.603027	-0.088623	-0.666016
1160.0	6.677844	-1.07313	7.05365	-0.063208	-0.145244	0.052598	-1.609375	-0.093018	-0.661621
1161.0	6.694969	-1.142148	7.050408	-0.102562	-0.18688	0.077147	-1.60083	-0.08667	-0.661621
1162.0	6.835768	-1.316858	7.030896	-0.158566	-0.222656	0.098919	-1.609863	-0.082275	-0.666016
1163.0	6.938337	-1.572991	6.98317	-0.156859	-0.216007	0.09776	-1.607666	-0.080322	-0.655273
1164.0	6.947504	-1.728784	7.051732	-0.120153	-0.192355	0.079345	-1.609863	-0.080322	-0.653076
1165.0	6.999933	-1.906182	6.974872	-0.062478	-0.169251	0.043633	-1.618652	-0.075928	-0.650879
1166.0	6.994281	-1.747545	7.188494	0.020179	-0.132486	0.006519	-1.611816	-0.08252	-0.653076
1167.0	6.995842	-1.809594	7.15746	0.045377	-0.117821	-0.015822	-1.614014	-0.08252	-0.648682
1168.0	6.817988	-1.241243	7.545698	0.029305	-0.114857	-0.045439	-1.620605	-0.084717	-0.646484
1169.0	6.838017	-1.45096	7.399727	-0.085607	-0.146922	-0.04629	-1.616211	-0.08252	-0.644531
1170.0	6.691682	-1.16355	7.743674	-0.272948	-0.229474	-0.068824	-1.620605	-0.080566	-0.640137
1171.0	6.537308	-1.644511	8.42215	-0.184399	-0.314213	-0.086978	-1.622803	-0.082764	-0.633545
1172.0	6.557647	-0.286066	8.626172	-0.337168	-0.544684	-0.078608	-1.627197	-0.078613	-0.629395
1173.0	7.076695	-1.514715	6.923681	-0.245722	-0.550421	-0.072708	-1.629395	-0.076416	-0.620605
1174.0	6.814341	-0.844953	7.990402	-0.331301	-0.708033	-0.069538	-1.627197	-0.07666	-0.614014
1175.0	7.469361	-1.764759	7.219284	-0.271597	-0.759509	-0.0987	-1.627441	-0.07251	-0.601074
1176.0	8.216113	-1.995627	6.989687	-0.139512	-0.595777	-0.147484	-1.629395	-0.074707	-0.598877
1177.0	8.561494	-1.528607	8.50347	-0.132896	-0.306331	-0.184299	-1.625	-0.076904	-0.588135
1178.0	6.132542	-2.362674	11.563224	0.165381	-0.273065	-0.221561	-1.624756	-0.081055	-0.590332
1179.0	4.022294	-1.366286	13.004437	0.611524	-1.028078	-0.310245	-1.624512	-0.092041	-0.572754
1180.0	4.020628	-0.948156	13.027799	0.257199	-2.209706	-0.38419	-1.630615	-0.097168	-0.529541
1181.0	5.347784	-0.726763	12.970267	0.2837	-2.991969	-0.45021	-1.641113	-0.104004	-0.492676
1182.0	2.940355	-1.210203	13.439595	0.37098	-3.999547	-0.570292	-1.651611	-0.109375	-0.42334
1183.0	3.344616	-1.797342	13.001174	0.406567	-5.37405	-0.70283	-1.659668	-0.123535	-0.332275
1184.0	6.447623	-4.841109	13.478942	0.387684	-6.359063	-0.880248	-1.667725	-0.133545	-0.241211
1185.0	7.468872	-6.145708	14.691529	0.785879	-7.474412	-1.164749	-1.6604	-0.149902	-0.128418
1186.0	9.12419	-4.453646	15.458519	1.456122	-8.362822	-1.367364	-1.652832	-0.171143	-0.004639
1187.0	12.006314	-2.87059	15.894058	1.605554	-9.080729	-1.396142	-1.628174	-0.179199	0.123291
1188.0	14.833303	-1.496479	16.701458	1.470838	-9.149387	-1.208585	-1.597412	-0.182861	0.251221
1189.0	17.528565	-0.169565	18.45486	0.864725	-8.858449	-0.707772	-1.542725	-0.179932	0.357666
1190.0	10.881561	-0.503374	16.944523	0.542469	-8.195654	-0.056628	-1.48877	-0.165771	0.444336
1191.0	-7.984779	-1.366956	19.621388	-0.295717	-8.580758	0.091605	-1.419434	-0.153809	0.539795
1192.0	-21.126377	0.066053	14.122674	-0.930162	-10.338483	-0.646457	-1.348877	-0.168213	0.656982
1193.0	46.823644	-15.293688	12.108472	-2.517114	-10.201389	-2.587015	-1.275635	-0.202881	0.704834
1194.0	44.738457	-6.16684	2.181188	3.668911	-0.871699	-3.046973	-1.246826	-0.15918	0.654785
1195.0	20.439938	18.263715	38.76786	3.456066	1.624712	-0.466336	-1.218994	-0.151611	0.583496
1196.0	5.212969	-4.868368	16.191473	-4.159076	3.355709	0.451887	-1.180664	-0.139404	0.488037
1197.0	-6.554907	-8.931314	10.099266	-0.819747	3.571717	0.324717	-1.140381	-0.114502	0.412109
1198.0	-7.150339	-4.48393	8.680718	-0.088441	3.406607	-0.062575	-1.095459	-0.098633	0.35791
1199.0	-3.66856	-1.66808	8.770863	0.107733	3.173779	-0.203799	-1.036865	-0.093506	0.316895
1200.0	-0.680768	-0.506478	8.112079	0.098443	3.250302	-0.126438	-0.985107	-0.083984	0.277832
1201.0	1.607703	0.575597	7.527631	-0.03174	3.609861	0.122631	-0.941895	-0.077148	0.25415
1202.0	3.540748	-0.673773	7.323285	-0.186726	4.271426	0.327693	-0.902588	-0.083252	0.232422
1203.0	4.115123	-1.981216	7.456598	-0.060415	4.911255	0.332155	-0.867432	-0.091553	0.22168
1204.0	4.985932	-1.387683	7.913684	0.203084	5.359193	0.246306	-0.855957	-0.104004	0.202393
1205.0	5.897003	0.086327	7.663796	0.230662	5.710704	0.221699	-0.855469	-0.119141	0.200195
1206.0	6.501973	0.655592	6.922666	0.088817	5.976761	0.225829	-0.868408	-0.12085	0.172119
1207.0	6.648318	-0.116506	6.437351	-0.061198	6.142636	0.172399	-0.890137	-0.127197	0.148193
1208.0	6.791787	-1.247003	6.589236	-0.089912	6.185892	0.028793	-0.92041	-0.130859	0.100586
1209.0	7.678884	-2.089735	6.967878	0.055844	6.086679	-0.149191	-0.937988	-0.130127	0.039795
1210.0	9.285162	-1.635785	8.016039	0.207162	5.876488	-0.225811	-0.94043	-0.129395	-0.023193
1211.0	10.829629	-1.810778	8.452227	0.136542	5.6842	-0.155792	-0.929688	-0.130371	-0.09668
1212.0	11.944819	-2.832049	8.411968	-0.006187	5.517508	0.027702	-0.916748	-0.127441	-0.144531
1213.0	12.682609	-4.214227	7.972387	-0.030153	5.350036	0.279161	-0.9104	-0.126953	-0.185547
1214.0	13.473663	-4.448349	7.384801	-0.052476	5.094998	0.630107	-0.911377	-0.100586	-0.227051
1215.0	14.642729	-5.067499	7.337587	-0.194624	4.78284	1.127038	-0.919678	-0.059082	-0.274902
1216.0	15.589328	-6.194182	7.727521	-0.394355	4.48664	1.772337	-0.919678	-0.006592	-0.340088
1217.0	16.936886	-8.443689	7.627583	-0.582704	4.23829	2.45839	-0.900635	0.061035	-0.407715
1218.0	17.932353	-10.078818	7.583144	-0.51006	4.042269	3.150736	-0.844727	0.130859	-0.462158
1219.0	17.975191	-12.002297	6.60323	-0.276716	3.854154	3.779542	-0.774414	0.166016	-0.490234
1220.0	17.78085	-13.028242	5.416169	0.154569	3.625256	4.27496	-0.706055	0.200684	-0.490234
1221.0	17.304303	-14.388374	4.099487	0.729905	3.428304	4.631132	-0.650391	0.224609	-0.483887
1222.0	16.6923	-14.369704	3.759363	1.419301	3.270858	4.890932	-0.622559	0.237305	-0.475342
1223.0	16.429205	-13.909051	4.11133	2.03398	3.080179	5.126678	-0.599121	0.252197	-0.458008
1224.0	16.539379	-14.040368	4.325259	2.501103	2.856529	5.271478	-0.577637	0.262939	-0.449219
1225.0	16.496484	-13.952108	4.092684	2.863394	2.67074	5.32921	-0.570068	0.291016	-0.455811
1226.0	16.586772	-14.230948	3.267486	3.004103	2.481903	5.390536	-0.555908	0.317139	-0.471191
1227.0	16.564102	-15.82086	1.703965	3.073389	2.279567	5.399269	-0.546143	0.343262	-0.486572
1228.0	16.383486	-16.391477	0.549627	3.248562	2.043328	5.377395	-0.516602	0.369385	-0.501709
1229.0	16.348624	-15.029343	-0.437114	3.22302	1.790594	5.470404	-0.493896	0.397705	-0.523438
1230.0	16.143949	-14.595313	-1.309127	2.764237	1.603248	5.67979	-0.455322	0.415283	-0.538574
1231.0	15.277827	-13.798376	-1.570991	2.205386	1.330279	5.923518	-0.419434	0.441406	-0.553955
1232.0	15.508267	-10.136457	-1.654332	1.696576	0.954483	6.212092	-0.383301	0.461182	-0.5625
1233.0	17.177927	-4.747803	-2.869239	0.744218	0.828332	6.513657	-0.347412	0.491211	-0.560547
1234.0	17.07352	-8.94209	-5.422569	-0.425005	0.688067	6.368552	-0.309082	0.515137	-0.55835
1235.0	14.419797	-14.03659	-8.166252	-0.156662	0.318684	5.491539	-0.274658	0.525879	-0.556152
1236.0	14.522674	-12.84042	-9.963843	0.584802	-0.188483	4.272942	-0.255127	0.530273	-0.556152
1237.0	14.584375	-9.836165	-9.916368	0.722209	-0.533872	3.385741	-0.233643	0.534668	-0.556152
1238.0	13.881061	-10.027193	-8.798271	0.463416	-0.852198	2.990268	-0.220459	0.534668	-0.549805
1239.0	13.508975	-12.444401	-6.805219	0.340437	-1.268587	2.972091	-0.213867	0.534424	-0.534424
1240.0	10.225413	-16.819375	1.505337	0.695439	-1.414632	3.147711	-0.205322	0.534424	-0.530273
1241.0	6.80571	-27.803566	-0.101412	2.985761	-5.429173	2.411378	-0.22876	0.52124	-0.521484
1242.0	11.10098	7.404345	-46.281368	6.335568	-3.652736	4.777594	-0.209961	0.485107	-0.542969
1243.0	7.816938	36.683033	56.20324	4.167559	-8.913344	7.693935	-0.210449	0.499512	-0.499756
1244.0	39.297188	-7.964423	-7.066418	-8.912033	-8.174712	8.530446	-0.195068	0.556885	-0.439209
1245.0	12.917243	-17.59475	4.554696	0.692772	-5.328717	5.921889	-0.19458	0.546143	-0.437012
1246.0	21.591084	12.213013	11.970807	5.125084	-6.166866	3.358469	-0.196289	0.531006	-0.434814
1247.0	22.845834	14.678189	17.543315	1.763466	-4.415652	1.663905	-0.202393	0.522461	-0.434814
1248.0	15.337591	17.155797	17.298584	1.0293	-3.260098	0.678992	-0.215576	0.524414	-0.421875
1249.0	5.709752	5.073406	12.202852	0.288957	-2.68642	-0.206776	-0.221924	0.521973	-0.413086
1250.0	21.004513	-16.946732	7.969673	-1.570891	-3.306381	-1.950737	-0.239258	0.519775	-0.402344
1251.0	13.166926	-12.382193	4.549282	1.396457	-0.350553	-0.718618	-0.247559	0.510986	-0.402344
1252.0	3.395456	-3.640198	4.581066	0.852947	-1.375882	-0.999153	-0.258301	0.502441	-0.4021
1253.0	11.43181	5.176744	14.471166	1.444309	-0.736229	-0.983824	-0.253662	0.498047	-0.404297
1254.0	8.881408	1.044383	8.565141	0.326141	-0.798196	-0.493278	-0.262207	0.49585	-0.4021
1255.0	8.927975	1.006141	8.942431	0.217636	-0.559689	-0.254251	-0.264648	0.498047	-0.404297
1256.0	8.068092	-0.571264	7.499447	-0.058336	-0.368433	-0.048275	-0.270752	0.491455	-0.399902
1257.0	7.452246	-1.370447	7.084003	0.022488	-0.307898	-0.045802	-0.266602	0.493652	-0.395752
1258.0	6.868574	-0.75612	7.532815	-0.015112	-0.1877	0.008998	-0.272949	0.491455	-0.395752
1259.0	6.503543	-1.204353	7.572907	-0.058941	-0.186938	0.023228	-0.273193	0.49585	-0.400146
1260.0	7.089276	-1.197799	7.195414	-0.068146	-0.170389	0.039954	-0.270996	0.493652	-0.397949
1261.0	6.970083	-1.093356	7.141573	-0.057555	-0.10068	0.056312	-0.264404	0.49585	-0.393555
1262.0	6.661272	-1.478486	7.114213	-0.055414	-0.068058	0.057197	-0.26416	0.491455	-0.391357
1263.0	6.576427	-1.992516	7.184035	-0.051002	-0.073024	0.041997	-0.264404	0.498047	-0.393555
1264.0	6.541173	-2.216394	7.281524	-0.039697	-0.099174	0.024704	-0.268799	0.493652	-0.391357
1265.0	6.535058	-2.213679	7.187574	0.003053	-0.104201	-0.003571	-0.268799	0.49585	-0.395752
1266.0	6.553171	-2.139977	6.949382	0.039765	-0.135733	-0.029796	-0.270996	0.49585	-0.393555
1267.0	6.699379	-1.946464	7.081326	0.079386	-0.145847	-0.057637	-0.275391	0.49585	-0.400146
1268.0	6.780022	-1.830809	7.115971	0.076038	-0.141305	-0.064246	-0.275146	0.489258	-0.395752
1269.0	6.597673	-1.900272	7.203006	0.085818	-0.143297	-0.081301	-0.277344	0.493652	-0.38916
1270.0	6.541223	-1.878618	7.315847	0.115509	-0.174806	-0.106281	-0.274902	0.487061	-0.393555
1271.0	6.704199	-1.694808	7.324696	0.152112	-0.201912	-0.140058	-0.281738	0.491455	-0.38916
1272.0	6.788876	-1.707207	7.245553	0.155453	-0.22165	-0.155369	-0.279541	0.491455	-0.395752
1273.0	6.746582	-1.592717	7.296349	0.144648	-0.192872	-0.164069	-0.277344	0.491455	-0.391357
1274.0	6.810516	-1.536963	7.402894	0.10701	-0.183295	-0.161652	-0.283691	0.489258	-0.400146
1275.0	6.986263	-1.588877	7.134658	0.10281	-0.189743	-0.168642	-0.285889	0.489258	-0.391357
1276.0	7.039297	-1.43549	6.869943	0.136362	-0.122321	-0.167227	-0.287842	0.48291	-0.397949
1277.0	7.063143	-1.024718	6.966835	0.133584	-0.090475	-0.140748	-0.283447	0.48291	-0.397949
1278.0	7.108138	-0.717406	6.658938	0.144801	-0.019507	-0.11185	-0.290039	0.48291	-0.397949
1279.0	6.830386	-0.976505	6.95203	0.119196	-0.005063	-0.0939	-0.285889	0.485107	-0.395752
1280.0	6.736173	-1.068966	7.000179	0.117856	-0.00141	-0.076249	-0.283447	0.48291	-0.393555
1281.0	6.918139	-1.069109	6.859028	0.100726	-0.008197	-0.053594	-0.289795	0.476563	-0.4021
1282.0	6.780583	-0.900353	6.916144	0.052352	-0.013655	-0.032513	-0.288086	0.485107	-0.397949
1283.0	6.814864	-1.162393	7.113747	-0.000498	-0.026591	-0.006007	-0.290039	0.48291	-0.399902
1284.0	6.803462	-1.28709	7.055023	0.003346	-0.030726	-0.004788	-0.288086	0.487305	-0.400146
1285.0	6.904241	-0.997483	6.934934	-0.021583	-0.036018	0.009466	-0.287842	0.480713	-0.395752
1286.0	6.844412	-1.068742	7.009354	-0.069872	-0.039443	0.034884	-0.285645	0.480713	-0.391357
1287.0	6.84881	-1.071232	7.074108	-0.104641	-0.048776	0.053374	-0.285645	0.48291	-0.393555
1288.0	6.730745	-1.302271	7.07566	-0.134737	-0.065294	0.062824	-0.290039	0.484863	-0.395752
1289.0	6.796561	-1.536965	7.036225	-0.132487	-0.07562	0.069201	-0.292236	0.482666	-0.391357
1290.0	6.831507	-1.254303	7.00033	-0.115193	-0.090161	0.070716	-0.290283	0.489258	-0.393555
1291.0	6.612902	-1.150677	7.160196	-0.175455	-0.126687	0.098988	-0.285645	0.48291	-0.393555
1292.0	6.772811	-1.478173	7.066157	-0.249834	-0.177459	0.124968	-0.290283	0.487061	-0.384766
1293.0	6.946937	-1.423752	7.003626	-0.217301	-0.180274	0.121907	-0.288086	0.487061	-0.386963
1294.0	6.916163	-1.049546	7.007732	-0.224688	-0.178711	0.132851	-0.29248	0.491211	-0.386963
1295.0	6.928042	-1.184319	6.931793	-0.302033	-0.180801	0.168532	-0.288086	0.489014	-0.380615
1296.0	7.038637	-1.482439	6.517083	-0.296585	-0.171954	0.179297	-0.290527	0.493408	-0.378418
1297.0	7.232443	-0.751474	6.559028	-0.134967	-0.12792	0.203111	-0.28833	0.493408	-0.376221
1298.0	5.98891	1.416371	9.067798	-0.064944	-0.183777	0.380961	-0.281982	0.497803	-0.380615
1299.0	7.520883	-1.789528	6.498713	0.230258	-0.47588	0.877664	-0.279541	0.495605	-0.384766
1300.0	7.373647	5.447289	9.574145	1.717521	-0.705485	1.780205	-0.281738	0.495605	-0.391357
1301.0	8.703575	3.544082	6.465751	2.674267	-0.922567	2.912376	-0.264404	0.493896	-0.406494
1302.0	7.316618	5.187742	9.082573	4.003869	-1.041285	4.016702	-0.249023	0.489746	-0.421631
