Acquisition frequency: 100 Hz
PacketCounter	Acc_X	Acc_Y	Acc_Z	Gyr_X	Gyr_Y	Gyr_Z	Mag_X	Mag_Y	Mag_Z
0.0	9.683979	-0.078326	2.52814	0.004706	0.002501	0.001896	-0.503174	0.111816	-0.61499
1.0	9.693281	-0.038274	2.513028	0.002841	0.00404	2.1e-05	-0.498535	0.109619	-0.617432
2.0	9.67691	-0.072214	2.473671	-0.003042	0.001164	0.001879	-0.500732	0.109619	-0.61499
3.0	9.688605	-0.067091	2.494573	0.002368	0.002118	0.00144	-0.500732	0.109619	-0.61499
4.0	9.695742	-0.090339	2.496574	0.002048	0.000381	-0.000597	-0.500977	0.114014	-0.612793
5.0	9.701626	-0.13654	2.533891	0.006143	0.001143	-0.00179	-0.505371	0.109375	-0.612549
6.0	9.69568	-0.089849	2.496833	0.003835	0.002495	-0.001261	-0.503174	0.111816	-0.61499
7.0	9.675462	-0.094689	2.50976	0.006877	0.001332	-0.00314	-0.50293	0.109619	-0.612549
8.0	9.68	-0.065803	2.528736	0.00541	0.000955	-0.000439	-0.503174	0.111816	-0.61499
9.0	9.683851	-0.094539	2.476475	0.004524	0.000582	0.004367	-0.500977	0.111816	-0.619629
10.0	9.672746	-0.042576	2.527172	0.004308	0.004417	-0.002681	-0.498535	0.109619	-0.617432
11.0	9.698756	-0.083675	2.551933	0.003943	0.000578	0.002263	-0.500732	0.109619	-0.617432
12.0	9.655074	-0.099502	2.523336	0.004416	0.0025	0.000843	-0.498535	0.111816	-0.617432
13.0	9.69529	-0.089127	2.498371	0.004948	0.007893	0.001391	-0.500732	0.109619	-0.61499
14.0	9.703512	-0.089279	2.465757	0.006001	0.009819	0.002077	-0.500732	0.109619	-0.617432
15.0	9.691537	-0.094561	2.44598	0.006735	0.010008	0.000726	-0.498535	0.111816	-0.61499
16.0	9.695878	-0.06586	2.465702	0.004367	0.007889	-0.000714	-0.498535	0.109619	-0.610352
17.0	9.680007	-0.042594	2.498263	0.000651	0.012337	0.004481	-0.500977	0.111816	-0.617432
18.0	9.672597	-0.019467	2.497307	-0.000308	0.007123	-0.001627	-0.503174	0.111816	-0.617432
19.0	9.680881	-0.019706	2.464513	0.000118	0.006944	0.003934	-0.50293	0.109619	-0.619629
20.0	9.648816	-0.030484	2.457122	-0.005138	0.006172	0.000916	-0.500977	0.114014	-0.615234
21.0	9.686451	-0.066544	2.502937	-0.004144	0.004627	-0.000366	-0.496338	0.111816	-0.612793
22.0	9.674659	-0.072009	2.482464	-0.003042	0.001164	0.001877	-0.498535	0.111816	-0.61499
23.0	9.700652	-0.113245	2.507221	-0.002415	0.00327	-0.002998	-0.503174	0.114014	-0.617432
24.0	9.733802	-0.079542	2.480096	-0.003622	0.00116	-0.000228	-0.503174	0.114014	-0.617432
25.0	9.669923	-0.100516	2.464328	-0.002096	0.005009	-0.000961	-0.505371	0.114014	-0.617432
26.0	9.720623	-0.107807	2.495344	-0.000106	0.001918	-0.003524	-0.507568	0.109375	-0.61499
27.0	9.668451	-0.123037	2.500381	-0.001207	0.005381	-0.005767	-0.498779	0.114014	-0.608154
28.0	9.708712	-0.112258	2.475393	0.000947	0.003845	-0.002839	-0.503174	0.114014	-0.617432
29.0	9.692996	-0.08862	2.507278	0.003835	0.002496	-0.00126	-0.503174	0.111816	-0.617432
30.0	9.713139	-0.083239	2.494732	0.00541	0.000956	-0.000436	-0.503174	0.114014	-0.610596
31.0	9.662337	-0.075497	2.464139	0.00483	0.000951	-0.002542	-0.500977	0.111816	-0.612793
32.0	9.67403	-0.07007	2.48497	0.003942	0.000579	0.002264	-0.500977	0.114014	-0.615234
33.0	9.653803	-0.075224	2.497848	0.005149	0.00269	-0.000506	-0.503174	0.114014	-0.610596
34.0	9.661014	-0.098213	2.499595	0.005873	-0.005984	-0.002265	-0.496582	0.118408	-0.622314
35.0	9.681331	-0.09291	2.48637	0.004724	-0.004622	0.002472	-0.500977	0.114014	-0.619873
36.0	9.665855	-0.069602	2.517307	0.002617	-0.008476	0.001101	-0.503174	0.111572	-0.608154
37.0	9.661494	-0.098232	2.497736	0.003671	-0.006549	0.001786	-0.498779	0.114014	-0.615234
38.0	9.681808	-0.093026	2.484507	0.007506	-0.004052	0.000525	-0.500977	0.114014	-0.617432
39.0	9.702077	-0.087748	2.471452	0.003883	-0.002893	0.000297	-0.503174	0.111816	-0.617432
40.0	9.702142	-0.087816	2.471195	0.007091	-0.002501	0.003911	-0.496582	0.116211	-0.613037
41.0	9.693741	-0.087597	2.50443	0.005351	-0.002516	-0.002404	-0.498779	0.116211	-0.610596
42.0	9.695083	-0.064165	2.468873	0.003042	-0.001164	-0.001877	-0.498779	0.114014	-0.612793
43.0	9.68214	-0.092532	2.483232	0.004724	-0.004621	0.002472	-0.503174	0.111816	-0.612793
44.0	9.643203	-0.079714	2.472786	0.005138	-0.006171	-0.000915	-0.50293	0.109619	-0.61499
45.0	9.682429	-0.092343	2.482112	0.004404	-0.006359	0.000436	-0.500732	0.109619	-0.610352
46.0	9.702723	-0.087103	2.468937	0.003883	-0.002892	0.000297	-0.500977	0.114014	-0.610596
47.0	9.691069	-0.092186	2.447925	0.004037	-0.002709	-0.003159	-0.500977	0.116211	-0.615234
48.0	9.691109	-0.091842	2.44778	0.007718	-0.000395	-0.000966	-0.500977	0.111816	-0.61499
49.0	9.701645	-0.10944	2.503547	0.009341	-0.007324	0.001418	-0.505371	0.114014	-0.617432
50.0	9.734938	-0.075664	2.475755	0.003042	-0.001164	-0.001878	-0.501221	0.118408	-0.619873
51.0	9.67117	-0.096476	2.45959	0.008559	-0.002123	0.001209	-0.501221	0.118408	-0.619873
52.0	9.668592	-0.044518	2.476367	0.006984	-0.000583	0.000385	-0.503174	0.111572	-0.608154
53.0	9.69147	-0.090953	2.446383	0.012122	-0.006753	-0.00053	-0.500977	0.114014	-0.619873
54.0	9.696161	-0.062219	2.464684	0.008086	-0.004043	0.002629	-0.503174	0.116211	-0.613037
55.0	9.663072	-0.095712	2.491721	0.009553	-0.003667	-7.3e-05	-0.496582	0.116211	-0.619873
56.0	9.676177	-0.067175	2.476679	0.006772	-0.004236	0.001875	-0.505371	0.11377	-0.608154
57.0	9.664557	-0.072267	2.455512	0.012595	-0.004831	-0.001951	-0.500977	0.111816	-0.61499
58.0	9.664686	-0.071877	2.455016	0.0085	-0.005594	-0.000757	-0.503174	0.114014	-0.608154
59.0	9.696704	-0.060967	2.46258	0.01102	-0.003291	-0.002775	-0.503174	0.114014	-0.617432
60.0	9.696786	-0.060521	2.462268	0.011601	-0.003284	-0.000671	-0.503174	0.114014	-0.608154
61.0	9.698112	-0.036932	2.426633	0.011493	-0.00137	-0.004197	-0.505371	0.111572	-0.612793
62.0	9.715808	-0.077314	2.484511	0.012334	-0.003095	-0.002022	-0.500977	0.111816	-0.619629
63.0	9.717117	-0.053764	2.448926	0.007137	-0.0004	-0.003073	-0.498779	0.114014	-0.615234
64.0	9.696977	-0.058636	2.461559	0.008559	-0.002118	0.001207	-0.500732	0.111816	-0.608154
65.0	9.678084	-0.040504	2.438832	0.004828	0.000951	-0.002546	-0.505371	0.111572	-0.610352
66.0	9.701515	-0.029484	2.480448	0.00252	0.002302	-0.002019	-0.503174	0.116211	-0.615234
67.0	9.696917	-0.057762	2.461816	0.003514	0.000757	-0.0033	-0.505371	0.111816	-0.61499
68.0	9.67799	-0.039478	2.439225	0.004828	0.000952	-0.002546	-0.505371	0.114014	-0.615234
69.0	9.70143	-0.028343	2.480794	0.006876	0.001334	-0.003144	-0.505371	0.114014	-0.619873
70.0	9.70985	-0.02804	2.44739	0.010498	0.000178	-0.002917	-0.507813	0.116211	-0.612793
71.0	9.708619	-0.050538	2.482712	0.004769	-0.002522	-0.004509	-0.503418	0.118408	-0.619873
72.0	9.724267	-0.073432	2.451068	0.009184	-1.6e-05	-0.003671	-0.507568	0.109375	-0.612549
73.0	9.696978	-0.054913	2.461644	0.003564	-0.004629	-0.001736	-0.505371	0.111816	-0.61499
74.0	9.65801	-0.041924	2.451269	0.003564	-0.004629	-0.001736	-0.505615	0.116211	-0.610596
75.0	9.681686	-0.030989	2.491918	0.00256	-0.011943	-0.000853	-0.500732	0.107422	-0.612549
76.0	9.70596	-0.054674	2.42599	0.000311	-0.007119	0.001636	-0.503174	0.114014	-0.612793
77.0	9.697682	-0.05463	2.458875	0.001364	-0.005191	0.002318	-0.500977	0.116211	-0.617676
78.0	9.693317	-0.083381	2.439326	-0.001796	-0.010974	0.000271	-0.503174	0.116211	-0.610596
79.0	9.693518	-0.083471	2.438522	-0.001265	-0.005581	0.000811	-0.500977	0.111816	-0.612793
80.0	9.749001	-0.062197	2.487573	0.000994	-0.001545	-0.00128	-0.507813	0.11377	-0.608154
81.0	9.698186	-0.054872	2.456878	0.001896	0.000203	0.002858	-0.505371	0.114014	-0.612793
82.0	9.72554	-0.072961	2.446024	0.003041	-0.001163	-0.001879	-0.501221	0.118408	-0.608398
83.0	9.698235	-0.054636	2.456692	-0.00032	-0.001741	-0.002033	-0.500977	0.114014	-0.610596
84.0	9.710018	-0.049118	2.477262	0.002308	-0.00135	-0.000527	-0.505615	0.120605	-0.613037
85.0	9.702868	-0.025608	2.475194	0.003774	-0.000976	-0.00323	-0.503174	0.111572	-0.605713
86.0	9.718491	-0.048768	2.443574	0.004356	-0.000968	-0.001126	-0.498779	0.114014	-0.608154
87.0	9.698364	-0.053791	2.4562	-0.001053	-0.001928	-0.000682	-0.503174	0.111816	-0.61499
88.0	9.698455	-0.053657	2.455844	-0.001113	-0.005401	-0.002644	-0.503174	0.114014	-0.608154
89.0	9.698516	-0.053318	2.45561	0.002199	0.000562	-0.004055	-0.505371	0.109375	-0.612549
90.0	9.653647	-0.092005	2.462319	-0.001053	-0.001928	-0.000682	-0.503174	0.114014	-0.608154
91.0	9.678498	-0.057986	2.467827	0.003504	-0.008101	-0.003699	-0.505615	0.118408	-0.613037
92.0	9.690369	-0.052295	2.488068	-0.000321	-0.001741	-0.002033	-0.503174	0.116211	-0.608154
93.0	9.697596	-0.075283	2.489865	0.000412	-0.001553	-0.003385	-0.507813	0.11377	-0.608154
94.0	9.709908	-0.1039	2.40394	0.004768	-0.00252	-0.004511	-0.507813	0.116211	-0.610596
95.0	9.678799	-0.056426	2.466681	0.006343	-0.004057	-0.003687	-0.507568	0.111572	-0.612793
96.0	9.71079	-0.045359	2.474308	0.004768	-0.00252	-0.004511	-0.503174	0.111816	-0.612793
97.0	9.718042	-0.068147	2.476027	0.005349	-0.002512	-0.002407	-0.500732	0.111816	-0.610352
98.0	9.722638	-0.039219	2.494648	-0.001896	-0.000204	-0.002857	-0.503174	0.116211	-0.608154
99.0	9.746662	-0.062653	2.42956	0.001727	-0.001358	-0.002632	-0.498535	0.111816	-0.612793
100.0	9.7265	-0.067584	2.442361	0.000471	0.00192	-0.001423	-0.503174	0.111572	-0.608154
101.0	9.754936	-0.062501	2.396626	-0.000574	0.00885	-0.001708	-0.507813	0.118408	-0.610596
102.0	9.754641	-0.062443	2.397827	-0.001038	0.015788	0.000111	-0.500732	0.111816	-0.605713
103.0	9.738631	-0.038836	2.430981	-0.001148	0.017701	-0.003417	-0.509766	0.109375	-0.612549
104.0	9.713581	-0.072448	2.426347	-0.002883	0.0102	-0.001181	-0.505371	0.114014	-0.612793
105.0	9.687212	-0.031233	2.402706	-0.000835	0.010584	-0.00178	-0.505615	0.116211	-0.610596
106.0	9.678587	-0.030806	2.43698	0.001996	0.005769	-0.002164	-0.507813	0.118408	-0.610596
107.0	9.651046	-0.01229	2.448508	0.001625	0.009414	-0.005763	-0.503174	0.114014	-0.612793
108.0	9.665235	-0.058446	2.45321	-0.003674	0.00654	-0.001793	-0.505615	0.116211	-0.610596
109.0	9.685243	-0.053296	2.441085	-0.003093	0.006548	0.000312	-0.505615	0.116211	-0.615234
110.0	9.680523	-0.081956	2.423051	-0.002622	0.008469	-0.001111	-0.503174	0.111572	-0.605713
111.0	9.667407	-0.110397	2.438326	-0.00257	0.003083	0.000455	-0.505371	0.114014	-0.615234
112.0	9.703749	-0.071272	2.465411	-0.006774	0.004229	-0.001877	-0.503418	0.118408	-0.608398
113.0	9.712148	-0.071514	2.432107	-0.003361	-0.000579	-0.000156	-0.503418	0.118408	-0.610596
114.0	9.71535	-0.065879	2.486628	-0.000313	0.00712	-0.001637	-0.51001	0.115967	-0.608154
115.0	9.711986	-0.07128	2.432758	-0.001895	-0.000203	-0.002859	-0.507813	0.11377	-0.612793
116.0	9.684582	-0.053007	2.443711	0.00021	0.003654	-0.001494	-0.510254	0.118164	-0.608398
117.0	9.762651	-0.078243	2.464028	-0.001365	0.005191	-0.002319	-0.503174	0.114014	-0.605957
118.0	9.707143	-0.099372	2.41527	-0.000575	0.008853	-0.001708	-0.505371	0.114014	-0.610596
119.0	9.699775	-0.075994	2.414006	0.001263	0.005583	-0.000812	-0.503174	0.111816	-0.610352
120.0	9.72429	-0.041964	2.420768	0.00352	0.00962	-0.002903	-0.505371	0.114014	-0.615234
121.0	9.679233	-0.0808	2.428237	0.003157	0.005786	0.002047	-0.503418	0.118408	-0.608398
122.0	9.682267	-0.075284	2.483321	-0.000518	0.012328	0.000253	-0.500732	0.111816	-0.605713
123.0	9.671602	-0.057765	2.428005	0.001109	0.005403	0.002644	-0.500977	0.114014	-0.610596
124.0	9.703352	-0.047416	2.436554	0.00447	0.005982	0.002801	-0.503174	0.114014	-0.608154
125.0	9.711697	-0.047851	2.403562	0.002684	0.003866	0.00347	-0.500977	0.116211	-0.610596
126.0	9.737661	-0.08927	2.428756	-0.0012	0.006753	0.003169	-0.505615	0.118408	-0.613037
127.0	9.710039	-0.071521	2.440512	-0.002246	0.013687	0.002883	-0.500977	0.114014	-0.605957
128.0	9.698008	-0.077223	2.421056	0.00269	0.012729	0.003866	-0.503174	0.116211	-0.608154
129.0	9.729591	-0.066856	2.430283	-0.000517	0.01233	0.000252	-0.503174	0.114014	-0.612793
130.0	9.724753	-0.095466	2.412819	0.00127	0.014448	-0.000417	-0.505371	0.11377	-0.608154
131.0	9.717243	-0.072007	2.412149	0.009249	0.012327	-0.001308	-0.505615	0.116211	-0.610596
132.0	9.693565	-0.082338	2.371832	0.01492	0.011557	-0.001674	-0.51001	0.11377	-0.612793
133.0	9.749896	-0.037444	2.386923	0.012554	0.009432	-0.003111	-0.501221	0.118408	-0.615234
134.0	9.691783	-0.104215	2.409246	0.013868	0.009629	-0.002357	-0.503418	0.118408	-0.610596
135.0	9.685664	-0.057525	2.372803	0.010824	0.010792	-0.000483	-0.507813	0.114014	-0.615234
136.0	9.695758	-0.07498	2.430121	0.009093	0.012152	0.002146	-0.503174	0.114014	-0.610596
137.0	9.679762	-0.051382	2.462768	0.008514	0.012143	4e-05	-0.507568	0.109375	-0.612549
138.0	9.675023	-0.079808	2.444989	0.013973	0.007719	0.001172	-0.503174	0.114014	-0.605957
139.0	9.695019	-0.074538	2.433081	0.009616	0.008686	0.002291	-0.505615	0.116211	-0.610596
140.0	9.699275	-0.045803	2.452764	0.010089	0.010608	0.000867	-0.500977	0.114014	-0.615234
141.0	9.714746	-0.069144	2.422267	0.010351	0.008874	0.00094	-0.503174	0.111816	-0.612793
142.0	9.698811	-0.045613	2.454599	0.013555	0.009278	0.004555	-0.500977	0.114014	-0.608154
143.0	9.692749	-0.09726	2.472246	0.012977	0.009269	0.002449	-0.501221	0.118408	-0.615234
144.0	9.705539	-0.068866	2.458422	0.012241	0.009082	0.0038	-0.503418	0.118408	-0.617676
145.0	9.703924	-0.092106	2.49492	0.0082	0.011794	0.006949	-0.505615	0.116211	-0.610596
146.0	9.681708	-0.080384	2.418857	0.011032	0.006976	0.006574	-0.505371	0.109375	-0.612549
147.0	9.665771	-0.057128	2.45113	0.009932	0.010434	0.004321	-0.51001	0.115967	-0.610596
148.0	9.70866	-0.09892	2.409923	0.013816	0.007547	0.004628	-0.499023	0.120605	-0.61084
149.0	9.704414	-0.070152	2.462825	0.01308	0.007362	0.005978	-0.499023	0.120605	-0.620117
150.0	9.721307	-0.071026	2.396743	0.014132	0.009294	0.006659	-0.503418	0.118408	-0.610596
151.0	9.699439	-0.099323	2.446025	0.014345	0.01295	0.00516	-0.500977	0.114014	-0.617432
152.0	9.71221	-0.071068	2.432363	0.012242	0.009087	0.003798	-0.508057	0.122803	-0.613037
153.0	9.680108	-0.081629	2.425213	0.01429	0.009472	0.003203	-0.505371	0.111816	-0.61499
154.0	9.711718	-0.071035	2.434327	0.018703	0.011986	0.004043	-0.505371	0.114014	-0.612793
155.0	9.695713	-0.047435	2.466774	0.015602	0.009672	0.003957	-0.507813	0.118408	-0.615234
156.0	9.699567	-0.076501	2.415568	0.013554	0.009289	0.004552	-0.505615	0.116211	-0.605957
157.0	9.682189	-0.075946	2.483365	0.013554	0.00929	0.004552	-0.505615	0.120605	-0.615479
158.0	9.683363	-0.053089	2.448778	0.015602	0.009674	0.003956	-0.505615	0.116211	-0.610596
159.0	9.74951	-0.084014	2.449424	0.014345	0.012959	0.005155	-0.503174	0.114014	-0.612793
160.0	9.698487	-0.076854	2.41989	0.016132	0.015079	0.004484	-0.503174	0.114014	-0.612793
161.0	9.68959	-0.076543	2.454552	0.016914	0.009876	0.004712	-0.503174	0.111816	-0.61499
162.0	9.708119	-0.094473	2.478457	0.017229	0.011625	0.006741	-0.500977	0.116211	-0.610596
163.0	9.696187	-0.100081	2.458853	0.017966	0.011812	0.00539	-0.499023	0.120605	-0.61084
164.0	9.688754	-0.076841	2.457839	0.018963	0.010263	0.004116	-0.505615	0.116211	-0.615234
165.0	9.675389	-0.105066	2.473747	0.022063	0.012582	0.0042	-0.496582	0.118408	-0.613037
166.0	9.676553	-0.082221	2.439337	0.02085	0.010479	0.006977	-0.503418	0.120605	-0.61084
167.0	9.695046	-0.100109	2.46335	0.022638	0.0126	0.006305	-0.503418	0.118408	-0.615234
168.0	9.707866	-0.071924	2.449618	0.022422	0.008947	0.007809	-0.503174	0.116211	-0.608154
169.0	9.700467	-0.048736	2.448474	0.023636	0.011053	0.00503	-0.503174	0.114014	-0.619873
170.0	9.727537	-0.066992	2.43922	0.016708	0.015109	0.00658	-0.503418	0.120605	-0.608398
171.0	9.70696	-0.072356	2.453191	0.016491	0.011456	0.008085	-0.507813	0.11377	-0.610596
172.0	9.673311	-0.106033	2.481816	0.01854	0.011841	0.007491	-0.499023	0.120605	-0.613037
173.0	9.686098	-0.077833	2.468255	0.018443	0.013746	0.003956	-0.505615	0.118408	-0.608398
174.0	9.704487	-0.095683	2.492596	0.018019	0.015315	0.007333	-0.498779	0.114014	-0.615234
175.0	9.705634	-0.073113	2.458409	0.015656	0.013181	0.005899	-0.503418	0.120605	-0.615479
176.0	9.692155	-0.101551	2.47464	0.018757	0.015502	0.005982	-0.500977	0.116211	-0.610596
177.0	9.651303	-0.111778	2.501246	0.022159	0.010698	0.007731	-0.501221	0.118408	-0.610596
178.0	9.664179	-0.083599	2.487383	0.021845	0.008947	0.005703	-0.498779	0.116211	-0.610596
179.0	9.671127	-0.10676	2.490282	0.021791	0.00546	0.003756	-0.505615	0.118408	-0.617676
180.0	9.707265	-0.067484	2.517726	0.017486	0.009918	0.00681	-0.498779	0.118408	-0.615234
181.0	9.677824	-0.130177	2.494145	0.018484	0.008367	0.00554	-0.501221	0.120605	-0.615479
182.0	9.670503	-0.107006	2.492695	0.018743	0.006633	0.005619	-0.500977	0.114014	-0.610596
183.0	9.661704	-0.106742	2.526597	0.019098	0.002998	0.009235	-0.503174	0.114014	-0.612793
184.0	9.689046	-0.125188	2.516333	0.023142	0.000277	0.006102	-0.498779	0.114014	-0.610596
185.0	9.676281	-0.056279	2.476544	0.019411	0.004756	0.011259	-0.494385	0.116211	-0.613037
186.0	9.706453	-0.068934	2.520816	0.015956	0.006071	0.00756	-0.505615	0.118408	-0.615234
187.0	9.722115	-0.093182	2.490112	0.013427	0.003771	0.009585	-0.503174	0.116211	-0.617676
188.0	9.703217	-0.076065	2.467842	0.012391	0.010714	0.00926	-0.503418	0.120605	-0.61084
189.0	9.74186	-0.089473	2.479483	0.012187	0.015943	0.011123	-0.500977	0.111816	-0.612793
190.0	9.734267	-0.067036	2.479121	0.00779	0.022303	0.010635	-0.503418	0.118408	-0.619873
191.0	9.690252	-0.083958	2.452424	0.009101	0.022506	0.01139	-0.498779	0.118408	-0.613037
192.0	9.673936	-0.060872	2.485579	0.005113	0.01841	0.007178	-0.503418	0.118408	-0.617676
193.0	9.661938	-0.067075	2.466429	0.006202	0.01496	0.009447	-0.500977	0.111816	-0.612793
194.0	9.68471	-0.056606	2.509435	0.00768	0.015323	0.006747	-0.503418	0.120605	-0.617676
195.0	9.652536	-0.067744	2.502476	0.002305	0.008966	0.008772	-0.503174	0.111816	-0.612793
196.0	9.679672	-0.08672	2.493044	0.001475	0.010682	0.006583	-0.501221	0.122803	-0.61084
197.0	9.651989	-0.068962	2.504551	0.001956	0.0126	0.005152	-0.501221	0.118408	-0.610596
198.0	9.645579	-0.120958	2.522805	0.001475	0.010683	0.006583	-0.508057	0.120605	-0.615479
199.0	9.677191	-0.111032	2.531893	0.000423	0.008745	0.005908	-0.503418	0.118408	-0.613037
200.0	9.658344	-0.093601	2.50959	0.005208	0.006198	0.001432	-0.501221	0.122803	-0.615479
201.0	9.665268	-0.116997	2.512471	0.0084	0.006623	0.005052	-0.494141	0.114014	-0.615234
202.0	9.698644	-0.084113	2.485497	0.003987	0.0041	0.004212	-0.505615	0.118408	-0.613037
203.0	9.657959	-0.094323	2.511045	0.002934	0.002162	0.003538	-0.500977	0.116211	-0.610596
204.0	9.703914	-0.130673	2.524006	0.001937	0.003718	0.004805	-0.508057	0.120605	-0.613037
205.0	9.685125	-0.1133	2.501509	0.00216	0.007372	0.003291	-0.498779	0.118408	-0.617676
206.0	9.720998	-0.132485	2.458747	0.004007	0.012986	0.004558	-0.501465	0.125	-0.608643
207.0	9.700427	-0.137638	2.472396	0.006261	0.008137	0.002106	-0.503418	0.118408	-0.617676
208.0	9.704694	-0.109006	2.49172	0.008142	0.008361	0.00497	-0.503418	0.120605	-0.61084
209.0	9.677068	-0.090832	2.502987	0.009364	0.010459	0.002189	-0.503174	0.116211	-0.610596
210.0	9.665342	-0.096507	2.482874	0.008916	0.003151	0.005217	-0.505615	0.120605	-0.606201
211.0	9.675128	-0.113655	2.539649	0.009825	0.003491	0.000413	-0.503418	0.120605	-0.606201
212.0	9.66347	-0.119218	2.519274	0.007347	0.004687	0.004377	-0.501221	0.118408	-0.605957
213.0	9.683644	-0.114544	2.507179	0.003728	0.005839	0.004129	-0.501221	0.118408	-0.615234
214.0	9.664846	-0.097239	2.484774	0.004041	0.007599	0.006152	-0.501221	0.118408	-0.608398
215.0	9.701896	-0.133125	2.531626	0.00273	0.007397	0.005395	-0.498779	0.116211	-0.615234
216.0	9.68306	-0.115797	2.509377	0.003213	0.009314	0.003963	-0.500977	0.116211	-0.613037
217.0	9.70487	-0.088624	2.461884	-0.000631	0.006813	0.005229	-0.501221	0.118408	-0.615234
218.0	9.682678	-0.116542	2.510815	-0.001771	0.006769	0.001016	-0.503174	0.114014	-0.615234
219.0	9.695751	-0.08853	2.496605	0.00085	0.007173	0.002531	-0.498779	0.118408	-0.615234
220.0	9.702617	-0.112085	2.499659	-0.000148	0.008731	0.003797	-0.501221	0.120605	-0.61084
221.0	9.683793	-0.094802	2.477416	-0.002199	0.008349	0.004388	-0.503174	0.114014	-0.610596
222.0	9.661566	-0.122846	2.526393	-0.003252	0.006409	0.003714	-0.508057	0.120605	-0.61084
223.0	9.670182	-0.123747	2.493642	-0.001771	0.006769	0.001016	-0.498779	0.118408	-0.613037
224.0	9.670013	-0.124133	2.494278	-0.002682	0.006432	0.00582	-0.496582	0.116211	-0.608398
225.0	9.708831	-0.137395	2.505144	-0.000429	0.00158	0.003372	-0.498779	0.116211	-0.617676
226.0	9.683105	-0.096854	2.480025	-0.000117	0.003339	0.005395	-0.501221	0.120605	-0.61084
227.0	9.674167	-0.096633	2.513961	-0.004078	0.008126	0.001524	-0.503418	0.118408	-0.613037
228.0	9.710208	-0.115817	2.470802	-0.003306	0.002913	0.001773	-0.500977	0.116211	-0.617676
229.0	9.717183	-0.139317	2.473404	0.001365	0.003699	0.002698	-0.498535	0.111816	-0.612793
230.0	9.696721	-0.144531	2.486502	-0.001201	0.006793	0.003122	-0.503418	0.118408	-0.605957
231.0	9.701017	-0.115915	2.505689	0.000281	0.007152	0.000425	-0.500977	0.114014	-0.612793
232.0	9.700956	-0.116306	2.505906	-0.003448	-0.002637	0.006826	-0.501221	0.122803	-0.615479
233.0	9.68939	-0.122386	2.485226	-0.000943	0.005055	0.003205	-0.503418	0.118408	-0.615234
234.0	9.657437	-0.133232	2.477357	0.002191	0.001984	0.004888	-0.501221	0.122803	-0.61084
235.0	9.700778	-0.117433	2.506544	-0.000257	0.001738	-8.3e-05	-0.496582	0.116211	-0.622314
236.0	9.689182	-0.123064	2.486002	5.5e-05	0.003497	0.00194	-0.508057	0.120605	-0.61084
237.0	9.668785	-0.128161	2.49883	-0.000998	0.001558	0.001265	-0.501221	0.120605	-0.615479
238.0	9.689077	-0.123378	2.486396	-0.000998	0.001558	0.001265	-0.503662	0.122803	-0.613281
239.0	9.668748	-0.128457	2.498962	-0.000484	-0.001917	0.001432	-0.505615	0.120605	-0.61084
240.0	9.682076	-0.100227	2.483905	-0.001622	-0.001962	-0.002781	-0.505615	0.116211	-0.608154
241.0	9.668831	-0.128338	2.498646	-0.003361	-0.000583	-0.000167	-0.501221	0.120605	-0.613037
242.0	9.668915	-0.128462	2.498314	-0.004641	-0.006178	0.000673	-0.505371	0.111572	-0.608154
243.0	9.689284	-0.123505	2.485584	-0.002393	0.003252	-0.003031	-0.501221	0.120605	-0.608398
244.0	9.689279	-0.123476	2.485606	-0.005155	-0.002702	0.000506	-0.505859	0.122803	-0.615479
245.0	9.716732	-0.141886	2.47503	-0.005724	-0.002724	-0.0016	-0.499023	0.120605	-0.613037
246.0	9.689418	-0.12362	2.485056	-0.006465	-0.002904	-0.000252	-0.501221	0.120605	-0.61084
247.0	9.708094	-0.141433	2.507774	-0.004157	-0.00426	-0.00076	-0.505615	0.118408	-0.617676
248.0	9.678055	-0.129134	2.463601	-0.001622	-0.001961	-0.002782	-0.501465	0.125	-0.613281
249.0	9.696714	-0.146487	2.486414	0.000117	-0.003339	-0.005396	-0.499023	0.120605	-0.617676
250.0	9.718871	-0.118697	2.437831	-0.000226	-0.003655	0.001514	-0.503662	0.122803	-0.61792
251.0	9.696872	-0.146112	2.485819	-0.00014	-0.001601	-0.005479	-0.499023	0.122803	-0.61792
252.0	9.696921	-0.145659	2.485655	-0.000881	-0.001781	-0.00413	-0.503662	0.122803	-0.61084
253.0	9.68993	-0.122042	2.483134	0.000686	-0.003317	-0.003289	-0.501221	0.120605	-0.617676
254.0	9.687292	-0.12778	2.428572	0.002994	-0.004672	-0.003797	-0.505615	0.120605	-0.61084
255.0	9.685697	-0.149877	2.463726	0.006043	-0.005848	-0.005654	-0.505859	0.122803	-0.61084
256.0	9.678788	-0.125996	2.460885	0.005303	-0.006028	-0.004305	-0.505615	0.120605	-0.61084
257.0	9.68604	-0.148845	2.462439	0.009007	-0.009077	-0.000518	-0.505615	0.120605	-0.606201
258.0	9.683655	-0.09642	2.47789	0.00818	-0.007361	-0.002707	-0.501221	0.122803	-0.61084
259.0	9.679377	-0.124673	2.458633	0.002939	-0.008168	-0.005738	-0.503174	0.116211	-0.613037
260.0	9.722945	-0.108188	2.486982	0.002254	-0.004852	-0.002449	-0.503418	0.120605	-0.61084
261.0	9.672621	-0.100644	2.455167	0.001201	-0.006791	-0.003123	-0.503662	0.122803	-0.613281
262.0	9.686885	-0.146825	2.459235	0.000686	-0.003316	-0.003289	-0.501465	0.125	-0.615479
263.0	9.668378	-0.128704	2.435777	0.001684	-0.004873	-0.004555	-0.499023	0.122803	-0.608398
264.0	9.680175	-0.122851	2.455581	0.003059	-0.015454	-0.000602	-0.503418	0.120605	-0.613037
265.0	9.667217	-0.150561	2.469367	0.00704	-0.007403	-0.006922	-0.501221	0.122803	-0.615479
266.0	9.667438	-0.149922	2.468539	0.003767	-0.009882	-0.003549	-0.505615	0.116211	-0.610596
267.0	9.667729	-0.149413	2.467431	0.005022	-0.013175	-0.004732	-0.503174	0.114014	-0.608154
268.0	9.727333	-0.156799	2.46389	0.0038	-0.015271	-0.001951	-0.505859	0.122803	-0.61084
269.0	9.720589	-0.133131	2.460329	0.006075	-0.011235	-0.004059	-0.501465	0.125	-0.615479
270.0	9.727963	-0.155713	2.46147	0.009123	-0.012408	-0.005917	-0.503662	0.122803	-0.608398
271.0	9.68481	-0.171118	2.431506	0.007128	-0.009295	-0.003385	-0.503662	0.125	-0.608643
272.0	9.70114	-0.136255	2.469677	0.013884	-0.013513	-0.001458	-0.501221	0.118408	-0.605957
273.0	9.701494	-0.135622	2.468319	0.015621	-0.014889	-0.004074	-0.508057	0.120605	-0.61084
274.0	9.694748	-0.111886	2.46474	0.012147	-0.012135	0.001157	-0.505859	0.125	-0.608643
275.0	9.706599	-0.106109	2.484414	0.010578	-0.0106	0.000317	-0.501221	0.120605	-0.608398
276.0	9.706865	-0.105856	2.483386	0.009267	-0.010803	-0.00044	-0.505615	0.118408	-0.608398
277.0	9.731601	-0.130097	2.418046	0.013423	-0.006541	0.000312	-0.505615	0.116211	-0.610596
278.0	9.744937	-0.101649	2.402627	0.009546	-0.003654	-1.8e-05	-0.501221	0.118408	-0.610596
279.0	9.740481	-0.130212	2.384019	0.012391	0.000404	-2.3e-05	-0.507813	0.118408	-0.615234
280.0	9.692841	-0.116621	2.406896	0.013479	-0.003044	0.00225	-0.507813	0.116211	-0.612793
281.0	9.717722	-0.082415	2.412355	0.014071	-0.004468	-0.004577	-0.505615	0.120605	-0.61084
282.0	9.690414	-0.063497	2.422444	0.014699	-0.000947	-0.000534	-0.503662	0.122803	-0.61084
283.0	9.690483	-0.062975	2.422182	0.013332	-0.004646	-0.003227	-0.501221	0.120605	-0.61084
284.0	9.695119	-0.033552	2.440077	0.01154	-0.006765	-0.002549	-0.503418	0.120605	-0.60376
285.0	9.670481	-0.066844	2.433705	0.009232	-0.005411	-0.00204	-0.501465	0.125	-0.615479
286.0	9.690926	-0.061405	2.420449	0.008918	-0.007171	-0.004061	-0.503662	0.125	-0.613281
287.0	9.698217	-0.084077	2.421963	0.005815	-0.009494	-0.004138	-0.508057	0.120361	-0.599121
288.0	9.666568	-0.093952	2.412997	0.009915	-0.008727	-0.005327	-0.510254	0.122803	-0.606201
289.0	9.705753	-0.105781	2.422545	0.006721	-0.009159	-0.008944	-0.505615	0.116211	-0.605957
290.0	9.73786	-0.094368	2.429727	0.005243	-0.009517	-0.006244	-0.503418	0.120605	-0.606201
291.0	9.707836	-0.081497	2.384953	0.009601	-0.010485	-0.007349	-0.503662	0.122803	-0.61084
292.0	9.706491	-0.103081	2.419705	0.012962	-0.009896	-0.007189	-0.508057	0.122803	-0.606201
293.0	9.722538	-0.125951	2.38761	0.01527	-0.011247	-0.0077	-0.505859	0.122803	-0.61084
294.0	9.715672	-0.101614	2.384386	0.016064	-0.007571	-0.007115	-0.505615	0.120605	-0.61084
295.0	9.736137	-0.095616	2.370991	0.016064	-0.00757	-0.007115	-0.503418	0.120605	-0.608398
296.0	9.716021	-0.099507	2.383053	0.018428	-0.005424	-0.00569	-0.505859	0.122803	-0.60376
297.0	9.695858	-0.103625	2.395311	0.019315	-0.003636	-0.001565	-0.508057	0.122803	-0.608398
298.0	9.697613	-0.080293	2.35884	0.024134	-0.011567	-0.004436	-0.505615	0.120605	-0.61084
299.0	9.70793	-0.096217	2.414207	0.022085	-0.01195	-0.003841	-0.503418	0.118408	-0.610596
300.0	9.708185	-0.095363	2.413216	0.019518	-0.008863	-0.003416	-0.507813	0.115967	-0.605957
301.0	9.717047	-0.095372	2.379036	0.018521	-0.007305	-0.002151	-0.507813	0.116211	-0.610596
302.0	9.728832	-0.089046	2.399054	0.017209	-0.00751	-0.002906	-0.510498	0.127197	-0.608643
303.0	9.7088	-0.093082	2.41083	0.022822	-0.011765	-0.005193	-0.510254	0.122803	-0.608398
304.0	9.72933	-0.087139	2.397104	0.023875	-0.009822	-0.004526	-0.505859	0.127197	-0.606445
305.0	9.722474	-0.062745	2.393729	0.025609	-0.011197	-0.007142	-0.498535	0.111816	-0.610352
306.0	9.7111	-0.067219	2.372076	0.020992	-0.008496	-0.006121	-0.505371	0.11377	-0.603516
307.0	9.722898	-0.060635	2.392061	0.021881	-0.006704	-0.001998	-0.51001	0.115967	-0.612793
308.0	9.723098	-0.05977	2.391271	0.023874	-0.009814	-0.004528	-0.508057	0.125	-0.608643
309.0	9.707198	-0.093352	2.351389	0.022303	-0.008285	-0.005369	-0.507813	0.118408	-0.610596
310.0	9.698755	-0.091547	2.384046	0.024927	-0.007869	-0.003862	-0.508057	0.120605	-0.606201
311.0	9.700475	-0.068033	2.347428	0.027972	-0.009037	-0.005725	-0.505615	0.120605	-0.60376
312.0	9.707816	-0.090197	2.348961	0.026497	-0.00939	-0.003023	-0.505615	0.115967	-0.603516
313.0	9.692366	-0.065179	2.378764	0.029583	-0.015938	-0.003271	-0.51001	0.115967	-0.615234
314.0	9.702855	-0.080918	2.433856	0.029898	-0.01417	-0.001255	-0.505615	0.118408	-0.60376
315.0	9.693062	-0.06325	2.375977	0.03006	-0.01402	-0.004713	-0.510254	0.120605	-0.608398
316.0	9.693399	-0.062249	2.37463	0.029898	-0.014164	-0.001257	-0.512451	0.120361	-0.596924
317.0	9.72565	-0.050793	2.381076	0.024173	-0.016907	-0.002828	-0.507813	0.11377	-0.608154
318.0	9.712918	-0.078131	2.39472	0.024489	-0.01514	-0.000812	-0.51001	0.118164	-0.605957
319.0	9.733447	-0.072795	2.380815	0.01993	-0.008945	0.002136	-0.508057	0.120605	-0.608398
320.0	9.706331	-0.054006	2.390104	0.020609	-0.012265	-0.001143	-0.51001	0.115967	-0.608154
321.0	9.718213	-0.047788	2.409828	0.018358	-0.007419	0.001294	-0.512207	0.115967	-0.608154
322.0	9.715369	-0.053989	2.354869	0.020349	-0.01053	-0.001233	-0.51001	0.118164	-0.605957
323.0	9.71106	-0.082598	2.335795	0.017622	-0.007593	0.002645	-0.507813	0.118408	-0.610596
324.0	9.731485	-0.077461	2.322249	0.020666	-0.008761	0.000781	-0.512451	0.118164	-0.60376
325.0	9.695763	-0.057623	2.365078	0.022397	-0.010139	-0.001835	-0.505615	0.115967	-0.603516
326.0	9.7234	-0.075327	2.353662	0.02554	-0.013183	-0.000153	-0.510498	0.125	-0.606201
327.0	9.728207	-0.045738	2.370714	0.021661	-0.010312	-0.000484	-0.510254	0.120361	-0.601563
328.0	9.696578	-0.055835	2.361774	0.023232	-0.011833	0.000357	-0.505615	0.118408	-0.60376
329.0	9.703989	-0.078442	2.363126	0.022656	-0.011865	-0.001748	-0.510254	0.118164	-0.610596
330.0	9.708771	-0.049017	2.380281	0.019194	-0.009103	0.003483	-0.514648	0.115967	-0.603516
331.0	9.701857	-0.025682	2.376911	0.019194	-0.009102	0.003483	-0.51001	0.115967	-0.610596
332.0	9.736516	-0.067139	2.368396	0.017363	-0.005847	0.00255	-0.510254	0.120361	-0.606201
333.0	9.697648	-0.054327	2.357413	0.018358	-0.007402	0.001287	-0.507813	0.115967	-0.608154
334.0	9.74142	-0.037674	2.385065	0.014521	-0.009908	0.002583	-0.505615	0.120605	-0.601563
335.0	9.709674	-0.048141	2.376612	0.014219	-0.002803	0.000865	-0.503662	0.122803	-0.606201
336.0	9.737142	-0.066462	2.365843	0.009907	-0.007216	0.003606	-0.505859	0.122803	-0.60376
337.0	9.698261	-0.053855	2.354902	0.011118	-0.005133	0.000808	-0.512207	0.115967	-0.605957
338.0	9.710072	-0.047649	2.374997	0.014896	-0.006126	-0.002411	-0.505615	0.120605	-0.60376
339.0	9.718795	-0.048282	2.340817	0.017881	-0.009305	0.00273	-0.51001	0.11377	-0.608154
340.0	9.71759	-0.070266	2.375935	0.013684	-0.008207	0.000387	-0.51001	0.115967	-0.603516
341.0	9.706103	-0.075884	2.35451	0.012949	-0.008382	0.001741	-0.507813	0.118164	-0.60376
342.0	9.71339	-0.099012	2.356382	0.010383	-0.005305	0.002161	-0.514648	0.120361	-0.606201
343.0	9.718069	-0.06978	2.373991	0.011853	-0.004954	-0.000547	-0.503174	0.114014	-0.605957
344.0	9.72671	-0.070686	2.340091	0.014321	-0.004667	0.00441	-0.507568	0.111572	-0.603516
345.0	9.739947	-0.042477	2.32412	0.013106	-0.008242	-0.001717	-0.508057	0.122803	-0.608398
346.0	9.731579	-0.041113	2.356916	0.011118	-0.005128	0.000806	-0.51001	0.11377	-0.605957
347.0	9.738807	-0.06414	2.359045	0.010859	-0.003396	0.000714	-0.507813	0.115967	-0.603516
348.0	9.751999	-0.035973	2.343243	0.007757	-0.005727	0.000661	-0.510254	0.120361	-0.601563
349.0	9.747466	-0.065005	2.325035	0.00704	0.002969	0.002302	-0.512451	0.118164	-0.608398
350.0	9.706996	-0.074699	2.350862	0.003938	0.000638	0.002249	-0.508057	0.120361	-0.601563
351.0	9.738926	-0.064178	2.358553	0.004456	-0.002825	0.002434	-0.505371	0.11377	-0.603516
352.0	9.699917	-0.051934	2.348114	0.005094	0.000715	0.006456	-0.51001	0.118164	-0.60376
353.0	9.711643	-0.046414	2.368591	-0.000217	-0.003638	0.001539	-0.51001	0.11377	-0.608154
354.0	9.686986	-0.080431	2.362825	0.000301	-0.007101	0.001724	-0.507813	0.115967	-0.603516
355.0	9.70728	-0.07581	2.349656	0.000578	3.8e-05	0.002104	-0.505615	0.116211	-0.605957
356.0	9.683922	-0.087651	2.30828	0.003144	-0.003038	0.001684	-0.514893	0.122559	-0.613037
357.0	9.714489	-0.09923	2.351839	0.001572	-0.001519	0.000842	-0.508057	0.120605	-0.608398
358.0	9.7145	-0.099295	2.351788	0.002626	0.000425	0.001499	-0.514648	0.118164	-0.601318
359.0	9.708795	-0.054057	2.313146	0.005769	-0.002612	0.003183	-0.507813	0.118164	-0.605957
360.0	9.740744	-0.043661	2.320757	0.004776	-0.001055	0.004445	-0.512451	0.120361	-0.60376
361.0	9.747853	-0.067055	2.323352	0.001054	0.001944	0.000657	-0.512695	0.125	-0.61084
362.0	9.747821	-0.067234	2.323481	0.004517	0.000677	0.004352	-0.512207	0.11377	-0.603516
363.0	9.760878	-0.039529	2.308243	0.002945	0.002196	0.00351	-0.507813	0.11377	-0.603516
364.0	9.764702	-0.069954	2.257218	0.003481	0.007603	0.003981	-0.512451	0.118164	-0.601318
365.0	9.75599	-0.069269	2.291481	0.002488	0.009161	0.005242	-0.507813	0.118164	-0.605957
366.0	9.735546	-0.074634	2.305257	-0.000554	0.010332	0.007107	-0.51709	0.120361	-0.601563
367.0	9.74132	-0.023989	2.288221	-0.003498	0.008137	0.003597	-0.505615	0.116211	-0.605957
368.0	9.732559	-0.023391	2.322642	-0.00139	0.012026	0.00491	-0.512451	0.122559	-0.601563
369.0	9.708942	-0.0357	2.282405	-0.000296	0.008602	0.0072	-0.51001	0.115967	-0.605957
370.0	9.721875	-0.008237	2.267784	-0.010797	0.006901	0.001201	-0.512207	0.11377	-0.601318
371.0	9.707208	-0.058913	2.319678	-0.005765	0.004114	0.00574	-0.510254	0.120361	-0.601563
372.0	9.695405	-0.065521	2.299526	-0.006758	0.005672	0.007001	-0.510498	0.125	-0.606201
373.0	9.68932	-0.117629	2.317715	-0.008031	9e-05	0.007883	-0.51001	0.11377	-0.601318
374.0	9.699539	-0.134803	2.374407	-0.008867	0.001784	0.005686	-0.508057	0.122803	-0.601563
375.0	9.696351	-0.142469	2.320475	-0.002623	0.001075	0.007425	-0.510254	0.120605	-0.608398
376.0	9.714045	-0.086123	2.323221	-0.001629	-0.000483	0.006164	-0.51709	0.122559	-0.60376
377.0	9.739961	-0.127324	2.348786	-0.003996	-0.002639	0.004757	-0.512939	0.129395	-0.604004
378.0	9.721196	-0.110524	2.3255	0.003044	0.000327	0.007061	-0.512451	0.120361	-0.601563
379.0	9.745984	-0.077436	2.330858	3e-06	0.0015	0.008925	-0.51709	0.120361	-0.606201
380.0	9.768622	-0.125773	2.302861	0.002848	0.005562	0.008886	-0.510254	0.122559	-0.601563
381.0	9.795754	-0.145088	2.29335	0.00627	0.009663	0.010951	-0.507813	0.115967	-0.605957
382.0	9.740893	-0.109151	2.314757	0.009153	0.008356	0.012543	-0.512207	0.11377	-0.601318
383.0	9.740659	-0.109958	2.315703	0.012415	0.010821	0.00914	-0.51001	0.115967	-0.605957
384.0	9.707078	-0.143533	2.344661	0.01098	0.005106	0.013479	-0.510254	0.122803	-0.606201
385.0	9.767569	-0.130247	2.307073	0.016929	0.011499	0.013492	-0.51709	0.120361	-0.606201
386.0	9.719695	-0.117448	2.331426	0.016415	0.014965	0.013305	-0.508057	0.120605	-0.606201
387.0	9.735004	-0.142777	2.301876	0.017506	0.011542	0.015595	-0.507813	0.118164	-0.60376
388.0	9.709814	-0.177538	2.298	0.023137	0.016164	0.013598	-0.507813	0.115967	-0.605957
389.0	9.745936	-0.138758	2.325523	0.01747	0.016917	0.013959	-0.51001	0.115967	-0.605957
390.0	9.774323	-0.136141	2.281084	0.019838	0.019077	0.015365	-0.512695	0.125	-0.606201
391.0	9.74502	-0.140723	2.32924	0.015644	0.020174	0.013019	-0.505615	0.116211	-0.605957
392.0	9.725828	-0.12405	2.307949	0.019423	0.019172	0.009804	-0.505615	0.120605	-0.60376
393.0	9.732406	-0.14793	2.312509	0.017692	0.020564	0.012414	-0.508057	0.122803	-0.60376
394.0	9.756787	-0.114627	2.319774	0.025569	0.02033	0.007995	-0.512451	0.120361	-0.608398
395.0	9.754674	-0.136678	2.358113	0.028323	0.026259	0.0044	-0.505615	0.120605	-0.606201
396.0	9.749442	-0.165555	2.342714	0.029635	0.026477	0.00515	-0.505859	0.125	-0.606201
397.0	9.728521	-0.169982	2.358208	0.030116	0.028386	0.0037	-0.505615	0.116211	-0.605957
398.0	9.717802	-0.153588	2.304339	0.032001	0.028648	0.006553	-0.508057	0.120605	-0.608398
399.0	9.696877	-0.158302	2.319821	0.02947	0.026364	0.008602	-0.510254	0.120361	-0.60376
400.0	9.767114	-0.160549	2.340819	0.024798	0.025555	0.0077	-0.512451	0.118164	-0.608398
401.0	9.734505	-0.171272	2.335842	0.028446	0.033308	0.008211	-0.507813	0.11377	-0.605957
402.0	9.742339	-0.172865	2.305935	0.031702	0.0373	0.013725	-0.503418	0.118408	-0.605957
403.0	9.718753	-0.125707	2.337474	0.032952	0.034009	0.012566	-0.512451	0.120361	-0.606201
404.0	9.686068	-0.136641	2.332787	0.038874	0.031532	0.012311	-0.510254	0.122559	-0.60376
405.0	9.71095	-0.177589	2.361946	0.036084	0.030986	0.014261	-0.508057	0.122803	-0.606201
406.0	9.737479	-0.196681	2.355172	0.034262	0.034246	0.013309	-0.510254	0.122803	-0.608398
407.0	9.756931	-0.192788	2.345963	0.028172	0.036615	0.017012	-0.505859	0.122803	-0.61084
408.0	9.755846	-0.193908	2.350376	0.029067	0.052715	0.019721	-0.505859	0.122803	-0.61084
409.0	9.809147	-0.232559	2.335974	0.024516	0.058945	0.02262	-0.508057	0.125	-0.604004
410.0	9.785499	-0.261012	2.390934	0.020534	0.065228	0.02762	-0.508057	0.122803	-0.608398
411.0	9.779184	-0.292485	2.379949	0.025811	0.075004	0.030876	-0.508057	0.120605	-0.61084
412.0	9.761511	-0.270324	2.41788	0.021139	0.074208	0.02996	-0.505859	0.122803	-0.60376
413.0	9.823288	-0.251918	2.441705	0.012718	0.083328	0.032485	-0.510254	0.118408	-0.613037
414.0	9.827903	-0.278229	2.453573	0.001721	0.100926	0.033739	-0.505615	0.118408	-0.608398
415.0	9.750449	-0.323121	2.517581	-0.009841	0.118491	0.032878	-0.503662	0.122803	-0.615479
416.0	9.735821	-0.33245	2.508683	-0.013471	0.125055	0.030942	-0.503662	0.122803	-0.613281
417.0	9.727754	-0.364793	2.504116	-0.037569	0.151311	0.021283	-0.503662	0.125	-0.620117
418.0	9.678118	-0.346144	2.59601	-0.030081	0.172435	0.017173	-0.501465	0.127197	-0.613281
419.0	9.582465	-0.350282	2.605874	-0.032891	0.177669	0.004954	-0.501465	0.125	-0.615479
420.0	9.520672	-0.335322	2.678362	-0.034002	0.183366	-0.013417	-0.503662	0.125	-0.615479
421.0	9.568803	-0.363803	2.532888	-0.041327	0.19519	-0.035252	-0.501465	0.125	-0.61792
422.0	9.582821	-0.348518	2.395979	-0.04799	0.219565	-0.05285	-0.503662	0.127197	-0.613281
423.0	9.52116	-0.387781	2.402539	-0.033596	0.219191	-0.071336	-0.496582	0.118408	-0.615234
424.0	9.485688	-0.45019	2.34471	-0.006209	0.205287	-0.098668	-0.501465	0.125	-0.61792
425.0	9.510294	-0.517883	2.284955	0.027306	0.192223	-0.115229	-0.494385	0.120605	-0.622314
426.0	9.545374	-0.517676	2.314224	0.051491	0.173994	-0.135579	-0.494385	0.116211	-0.626953
427.0	9.556497	-0.615863	2.213088	0.072195	0.162132	-0.148848	-0.498779	0.114014	-0.626709
428.0	9.589566	-0.56006	2.254956	0.078094	0.141866	-0.149518	-0.494385	0.116211	-0.619873
429.0	9.713603	-0.657509	2.291266	0.055483	0.117851	-0.140166	-0.496338	0.111816	-0.626709
430.0	9.855423	-0.773588	2.152318	0.048737	0.116169	-0.119094	-0.491699	0.107422	-0.619629
431.0	9.879582	-0.794816	2.04645	0.075826	0.104522	-0.094424	-0.493896	0.107422	-0.628906
432.0	9.859767	-0.693431	2.010805	0.110663	0.074607	-0.070985	-0.494141	0.114014	-0.626709
433.0	9.828929	-0.525022	2.128016	0.138783	0.039913	-0.049815	-0.496338	0.114014	-0.62915
434.0	9.801142	-0.41793	2.172031	0.135675	-0.005937	-0.033004	-0.500977	0.111816	-0.626709
435.0	9.822172	-0.407939	2.159438	0.130443	-0.016282	-0.014797	-0.494141	0.109619	-0.628906
436.0	9.762255	-0.404376	2.104438	0.134911	-0.013809	-0.004926	-0.491943	0.111816	-0.628906
437.0	9.702564	-0.319488	2.081429	0.151727	-0.02498	-0.00243	-0.498291	0.103027	-0.626465
438.0	9.707064	-0.286942	2.09578	0.147706	-0.05451	0.001725	-0.500977	0.111816	-0.624268
439.0	9.796337	-0.302341	2.136154	0.141316	-0.052212	0.008753	-0.496094	0.107422	-0.626465
440.0	9.827786	-0.376962	2.253937	0.134599	-0.024809	0.014295	-0.494141	0.109619	-0.628906
441.0	9.744864	-0.397062	2.103592	0.139507	0.002991	0.021299	-0.493652	0.103027	-0.628662
442.0	9.68538	-0.388653	2.104463	0.148533	0.002991	0.021216	-0.498535	0.107422	-0.626465
443.0	9.640485	-0.426295	2.110713	0.163321	-0.026467	0.024004	-0.493652	0.103027	-0.631104
444.0	9.695914	-0.388367	2.068448	0.180669	-0.037477	0.028626	-0.498291	0.103027	-0.624023
445.0	9.66558	-0.3164	2.087298	0.18798	-0.055797	0.0344	-0.493896	0.105225	-0.631104
446.0	9.7491	-0.301885	2.176983	0.19192	-0.078302	0.038137	-0.498291	0.105225	-0.626465
447.0	9.87557	-0.266124	2.151242	0.191179	-0.06224	0.043266	-0.498291	0.10083	-0.626221
448.0	9.830696	-0.231391	2.131282	0.182402	-0.033358	0.045624	-0.496094	0.103027	-0.621826
449.0	9.818311	-0.177104	2.175085	0.178025	-0.032321	0.046622	-0.496338	0.109619	-0.626709
450.0	9.764433	-0.131284	2.24452	0.168382	-0.00712	0.039418	-0.50708	0.096191	-0.623779
451.0	9.722539	-0.068567	2.389566	0.159945	-0.008524	0.023674	-0.491211	0.096436	-0.628418
452.0	9.713571	0.018223	2.452684	0.14384	0.001043	0.014306	-0.493408	0.096436	-0.623779
453.0	9.660483	0.078898	2.433985	0.127694	0.021363	0.001415	-0.493408	0.096436	-0.630859
454.0	9.547278	0.145754	2.561986	0.10382	0.0509	-0.01056	-0.502686	0.098389	-0.621582
455.0	9.408721	0.254641	2.518503	0.079193	0.053356	-0.021392	-0.5	0.091797	-0.623535
456.0	9.367434	0.261261	2.457514	0.051772	0.058805	-0.028465	-0.495605	0.093994	-0.621338
457.0	9.272751	0.243264	2.346883	0.035418	0.061051	-0.038047	-0.489014	0.096436	-0.621582
458.0	9.300832	0.239899	2.2525	0.024605	0.040984	-0.037347	-0.49585	0.096436	-0.628418
459.0	9.295186	0.204787	2.18471	0.008569	0.021711	-0.043296	-0.493164	0.089844	-0.635254
460.0	9.41453	0.122224	2.066389	0.011424	0.020477	-0.041629	-0.493408	0.094238	-0.623779
461.0	9.432673	0.036804	2.116986	0.030028	0.024142	-0.037861	-0.491211	0.094238	-0.630615
462.0	9.49769	0.001096	2.069049	0.039866	0.01352	-0.035742	-0.490967	0.092041	-0.625977
463.0	9.515818	-0.167058	2.089101	0.065202	0.013138	-0.029839	-0.495361	0.087402	-0.628174
464.0	9.577999	-0.306278	2.048408	0.104774	0.020959	-0.01732	-0.497803	0.094238	-0.628418
465.0	9.635165	-0.320565	2.142039	0.155378	0.027471	-0.010908	-0.490967	0.089844	-0.630615
466.0	9.741241	-0.183121	2.274412	0.179217	0.021494	-0.000546	-0.495117	0.083008	-0.625732
467.0	9.949318	-0.116753	2.262785	0.211223	0.040572	0.005725	-0.49292	0.085205	-0.625732
468.0	10.106124	-0.12947	2.336222	0.241158	0.084447	0.016195	-0.495361	0.085205	-0.630371
469.0	10.286598	-0.024544	2.4467	0.260222	0.108266	0.018382	-0.488525	0.085449	-0.625732
470.0	10.422831	-0.030532	2.448781	0.27975	0.148428	0.017198	-0.490723	0.085449	-0.632568
471.0	10.434256	0.095237	2.389351	0.30692	0.222621	0.009582	-0.49292	0.080811	-0.634766
472.0	10.297922	0.256127	2.34202	0.324544	0.277025	-0.005559	-0.488281	0.078613	-0.632324
473.0	10.170848	0.48731	2.237968	0.331747	0.289857	-0.00696	-0.486084	0.078857	-0.632324
474.0	9.905489	0.593636	2.248614	0.32813	0.318606	0.001288	-0.490479	0.076416	-0.630127
475.0	9.734131	0.649622	2.257537	0.331767	0.325525	0.013992	-0.48584	0.072021	-0.63916
476.0	9.813796	0.77413	2.228824	0.315277	0.322759	0.018401	-0.479248	0.07666	-0.632324
477.0	9.68483	0.884829	2.080385	0.249454	0.354913	0.032553	-0.472168	0.067871	-0.638916
478.0	9.539334	1.030755	2.010388	0.183761	0.285463	0.033747	-0.474365	0.072266	-0.636963
479.0	9.559066	1.0652	2.035956	0.100827	0.197432	0.024935	-0.476318	0.063477	-0.636475
480.0	9.877061	1.050942	2.013777	-0.000806	0.13733	-0.013734	-0.474365	0.070068	-0.643799
481.0	10.075747	1.138678	2.014319	-0.045923	0.181359	-0.065398	-0.476563	0.070068	-0.636719
482.0	10.238537	1.116762	2.02108	-0.14065	0.194782	-0.132211	-0.472168	0.072266	-0.641602
483.0	10.215202	1.008858	1.868227	-0.15482	0.210903	-0.201087	-0.467529	0.065674	-0.645996
484.0	10.041573	1.112191	2.027373	-0.127224	0.227151	-0.260934	-0.469971	0.070068	-0.641357
485.0	9.777289	0.933495	2.076307	-0.141024	0.202106	-0.312828	-0.471924	0.065674	-0.641357
486.0	9.642699	0.751064	2.148224	-0.137671	0.177446	-0.345223	-0.469727	0.063477	-0.643555
487.0	9.533874	0.666818	2.143317	-0.091849	0.189525	-0.364725	-0.465088	0.061279	-0.647949
488.0	9.399487	0.518824	2.117744	-0.087308	0.196407	-0.380427	-0.467529	0.065674	-0.645996
489.0	9.274956	0.409983	2.015236	-0.05308	0.158875	-0.381057	-0.464844	0.059082	-0.655029
490.0	9.226833	0.466014	1.954942	-0.055696	0.11136	-0.37157	-0.464844	0.054688	-0.645508
491.0	9.277126	0.504127	1.909069	-0.0525	0.079737	-0.347626	-0.469238	0.05249	-0.647705
492.0	9.313028	0.544361	1.780887	-0.016928	0.049856	-0.314527	-0.464844	0.059082	-0.643311
493.0	9.333594	0.607301	1.789565	0.010001	0.030746	-0.283159	-0.457764	0.050293	-0.645264
494.0	9.312074	0.658573	1.819179	0.039444	0.01948	-0.255719	-0.4646	0.050293	-0.647705
495.0	9.355804	0.536503	1.684643	0.055794	0.010664	-0.234593	-0.462402	0.050293	-0.652344
496.0	9.311744	0.610744	1.62961	0.091971	0.041258	-0.215821	-0.457764	0.050293	-0.645264
497.0	9.297271	0.67593	1.734868	0.084888	0.04346	-0.19647	-0.459961	0.050293	-0.645264
498.0	9.431852	0.691143	1.623825	0.097097	0.074002	-0.183444	-0.457764	0.045898	-0.645264
499.0	9.451315	0.805648	1.556703	0.101222	0.106349	-0.155276	-0.453369	0.050293	-0.647705
500.0	9.440193	0.771307	1.476397	0.088575	0.125536	-0.139399	-0.459961	0.045898	-0.635986
501.0	9.448766	0.915207	1.460804	0.078896	0.125221	-0.117954	-0.457764	0.045898	-0.6521
502.0	9.492108	0.966806	1.577485	0.052428	0.124534	-0.095996	-0.455322	0.041504	-0.64502
503.0	9.511936	0.939115	1.508801	0.04233	0.133252	-0.080321	-0.455322	0.041504	-0.647217
504.0	9.510132	1.038527	1.457098	0.03153	0.132591	-0.068744	-0.457275	0.037109	-0.642578
505.0	9.415941	1.137909	1.444342	0.012698	0.126334	-0.036444	-0.448486	0.041504	-0.651855
506.0	9.441232	1.122426	1.336659	-0.026776	0.08559	-0.007869	-0.455322	0.041504	-0.64502
507.0	9.772938	1.000108	1.332572	-0.063366	0.060205	-0.001457	-0.452881	0.041504	-0.649658
508.0	9.979624	0.989269	1.087169	-0.071893	0.104221	-0.010624	-0.448486	0.043701	-0.647461
509.0	9.705209	0.84025	0.990226	-0.126879	0.089155	-0.014084	-0.446289	0.043701	-0.64502
510.0	9.972832	1.062462	0.967167	-0.121483	0.038903	-0.018013	-0.44165	0.041504	-0.64502
511.0	10.044609	1.189332	1.062649	-0.124886	0.04551	-0.023881	-0.450684	0.043701	-0.640381
512.0	10.198921	1.266455	0.804507	-0.147132	0.019939	-0.034337	-0.453125	0.048096	-0.645264
513.0	10.249417	1.390346	0.908025	-0.144203	-0.012457	-0.052827	-0.450928	0.045898	-0.647461
514.0	10.377049	1.45711	0.85609	-0.126226	-0.072565	-0.072916	-0.441895	0.043701	-0.642822
515.0	10.489823	1.499444	0.70189	-0.112848	-0.13006	-0.086761	-0.441895	0.043701	-0.647461
516.0	10.515252	1.307599	0.696083	-0.114216	-0.167053	-0.102574	-0.443848	0.041504	-0.637939
517.0	10.617816	1.05909	0.532795	-0.113674	-0.234826	-0.11555	-0.444092	0.043701	-0.635742
518.0	10.949725	0.88111	0.293722	-0.148217	-0.290654	-0.121257	-0.44873	0.045898	-0.638184
519.0	11.40634	0.614469	0.028986	-0.207863	-0.291609	-0.131381	-0.446289	0.043701	-0.638184
520.0	11.694484	0.739929	-0.361106	-0.199856	-0.197262	-0.142152	-0.446289	0.045898	-0.633545
521.0	11.674262	1.059547	-0.425394	-0.22662	-0.124263	-0.150878	-0.448486	0.043701	-0.633545
522.0	11.736857	1.506864	0.109279	-0.176448	-0.0952	-0.16878	-0.441895	0.045898	-0.626709
523.0	11.710163	2.056962	1.435251	-0.095977	-0.087891	-0.212074	-0.446289	0.041504	-0.633301
524.0	12.123906	1.987053	1.728085	-0.037455	-0.123476	-0.306569	-0.443848	0.041504	-0.621826
525.0	11.988373	1.401705	2.012797	0.039377	0.057344	-0.417326	-0.439209	0.037109	-0.624023
526.0	10.998586	0.786181	2.557936	0.058637	0.130336	-0.494321	-0.438965	0.032715	-0.633057
527.0	10.58892	0.435221	3.033324	0.090973	0.011334	-0.542936	-0.438965	0.032715	-0.626221
528.0	10.673992	-0.054208	3.427546	0.099982	-0.050614	-0.594223	-0.438965	0.02832	-0.625977
529.0	10.447776	-0.429903	3.665057	0.15044	0.019516	-0.629727	-0.434326	0.026123	-0.625977
530.0	9.974149	-0.059058	4.235608	0.182988	0.093606	-0.621048	-0.436279	0.021729	-0.630371
531.0	9.228579	0.337511	4.230215	0.073711	0.085013	-0.561175	-0.440918	0.021484	-0.62793
532.0	8.638149	0.785872	4.606795	0.035128	0.057343	-0.494126	-0.436523	0.023926	-0.625732
533.0	8.526674	1.303375	5.282569	-0.048562	0.052026	-0.417795	-0.431641	0.017334	-0.625488
534.0	8.174837	1.280539	5.002099	-0.183596	0.11557	-0.336658	-0.434082	0.019531	-0.62793
535.0	7.721203	1.229615	4.098926	-0.263751	0.129298	-0.268552	-0.429199	0.012939	-0.627686
536.0	7.729473	1.943996	4.190313	-0.224164	0.014295	-0.264031	-0.434082	0.019531	-0.630371
537.0	8.14614	1.599064	4.213893	-0.379564	-0.144604	-0.260627	-0.429443	0.015137	-0.634766
538.0	9.131445	1.025334	3.717629	-0.224394	-0.315494	-0.291317	-0.427246	0.019531	-0.62793
539.0	10.661684	1.481347	3.638849	-0.12949	-0.64384	-0.302225	-0.427002	0.015137	-0.62085
540.0	12.125374	1.243751	2.889405	-0.232604	-0.845543	-0.26529	-0.438232	0.014893	-0.616211
541.0	13.211426	1.010815	3.605608	-0.123347	-0.535391	-0.171221	-0.436035	0.014893	-0.61377
542.0	12.339201	0.526418	3.089817	0.071785	-0.165277	-0.066556	-0.433838	0.012695	-0.611328
543.0	11.22381	0.705749	2.547541	0.08803	-0.289271	0.003977	-0.436035	0.014893	-0.609131
544.0	10.522223	0.209412	3.389329	0.026152	-0.212942	0.06141	-0.433838	0.014893	-0.616211
545.0	9.981849	0.129659	3.615024	0.080167	-0.03158	0.123234	-0.436035	0.010498	-0.618408
546.0	9.868252	0.030369	3.156499	0.030295	-0.043975	0.218949	-0.434082	0.021484	-0.607178
547.0	9.424332	-0.226877	2.70928	0.125206	0.099873	0.300095	-0.433838	0.012695	-0.616211
548.0	8.890091	0.243871	2.75206	0.099238	-0.042804	0.384444	-0.433838	0.01709	-0.606934
549.0	9.185492	-0.103362	2.703304	0.046819	-0.227547	0.482129	-0.431641	0.01709	-0.609375
550.0	9.20031	-0.038073	2.668621	0.195401	-0.112766	0.555116	-0.434082	0.021484	-0.609375
551.0	8.492058	0.109965	2.767745	0.248899	0.04143	0.616846	-0.429688	0.023926	-0.614258
552.0	7.799112	0.112098	2.610233	0.268815	-0.004317	0.648776	-0.441162	0.028076	-0.607422
553.0	8.103208	0.071926	2.520935	0.288112	-0.153724	0.662524	-0.436523	0.028076	-0.60498
554.0	7.537105	-0.053079	2.089458	0.298289	-0.160831	0.678748	-0.438965	0.028076	-0.607422
555.0	7.548191	-0.129742	2.570392	0.375025	-0.236406	0.686025	-0.436768	0.030518	-0.614502
556.0	7.741715	0.113852	2.262589	0.418804	-0.314277	0.67892	-0.439209	0.034668	-0.600586
557.0	7.696986	0.031416	2.278426	0.388982	-0.323075	0.674558	-0.43457	0.030518	-0.607422
558.0	7.940254	0.131766	2.369781	0.432866	-0.324446	0.656242	-0.441406	0.034668	-0.605225
559.0	8.228464	0.706472	2.104921	0.465174	-0.252747	0.642603	-0.437012	0.037109	-0.603027
560.0	8.132031	0.847323	1.888769	0.394706	-0.177333	0.642289	-0.445801	0.034668	-0.603027
561.0	8.054063	0.828912	1.644137	0.33136	-0.149182	0.597222	-0.439209	0.034668	-0.600586
562.0	7.995196	0.800986	1.192198	0.269424	-0.126487	0.545933	-0.439453	0.041504	-0.60083
563.0	7.729655	0.730081	0.866663	0.200498	-0.127554	0.463783	-0.443604	0.034668	-0.603027
564.0	7.787998	0.954719	0.605068	0.16418	-0.170137	0.366932	-0.437256	0.041504	-0.596191
565.0	7.666659	0.983744	0.549122	0.1304	-0.119007	0.25312	-0.439453	0.041504	-0.596191
566.0	7.615293	1.036636	0.571278	0.075723	-0.071278	0.13633	-0.446045	0.039063	-0.596191
567.0	7.544894	1.010366	0.348096	0.037273	-0.050566	0.023905	-0.439453	0.041504	-0.596191
568.0	7.454035	1.005754	0.335887	0.021546	-0.058801	-0.082218	-0.439453	0.043701	-0.591797
569.0	7.106075	0.948426	0.45423	0.002311	-0.074967	-0.188506	-0.443604	0.036865	-0.596191
570.0	7.407486	0.883945	0.668244	-0.030198	-0.237682	-0.285026	-0.44165	0.043701	-0.596436
571.0	8.038034	0.685903	0.782519	-0.121687	-0.375598	-0.351372	-0.443604	0.036865	-0.60083
572.0	8.809733	0.343018	1.049978	-0.138386	-0.427254	-0.38259	-0.44165	0.04126	-0.593994
573.0	9.577378	0.118447	1.475154	-0.144009	-0.386357	-0.386348	-0.441162	0.032471	-0.591309
574.0	10.049547	-0.362803	2.833559	-0.104975	-0.012436	-0.345099	-0.441406	0.036865	-0.59375
575.0	10.238342	-0.348659	2.058942	-0.079225	0.024455	-0.276697	-0.439209	0.036865	-0.591553
576.0	10.338105	-0.609776	1.163073	-0.317571	-0.313731	-0.205373	-0.448242	0.036865	-0.589111
577.0	10.538106	-0.779563	1.038913	-0.276334	-0.321527	-0.126566	-0.439209	0.039063	-0.596191
578.0	11.569035	0.192224	0.155973	-0.278409	-0.443853	-0.021236	-0.443604	0.034668	-0.595947
579.0	13.028754	0.662522	-0.720331	-0.531414	-0.501881	0.108583	-0.445801	0.032471	-0.58667
580.0	14.051659	0.309762	-1.39566	-0.558374	-0.463128	0.216495	-0.444092	0.047852	-0.584961
581.0	14.673335	-0.717568	-0.668131	-0.394926	-0.323386	0.296961	-0.446289	0.045654	-0.575439
582.0	15.623842	-1.183227	1.903916	-0.092716	-0.256146	0.3506	-0.446533	0.052246	-0.575684
583.0	17.002186	0.377884	1.138839	0.162838	-0.106277	0.425441	-0.444092	0.047852	-0.58252
584.0	16.275675	1.226176	0.749415	0.245891	0.103585	0.55937	-0.44873	0.050049	-0.584961
585.0	13.9953	2.487773	3.78685	0.231526	0.166352	0.668886	-0.44458	0.056885	-0.583008
586.0	12.120804	1.584524	3.311573	-0.235569	0.310292	0.761431	-0.445068	0.070068	-0.585693
587.0	10.732606	1.024492	1.214395	0.012494	0.300026	0.699959	-0.437988	0.061279	-0.587646
588.0	9.876873	0.947167	2.495412	-0.068696	-0.014273	0.633414	-0.438232	0.070068	-0.588135
589.0	10.747103	-0.342727	3.083484	-0.185495	-0.335743	0.590131	-0.442871	0.072266	-0.585693
590.0	11.021648	-1.30152	3.550675	-0.055933	-0.134212	0.57344	-0.440918	0.081055	-0.59082
591.0	10.543947	-1.946384	4.007186	0.244934	0.079724	0.554229	-0.438721	0.078857	-0.585938
592.0	10.542111	-1.209477	5.03928	0.363789	0.150594	0.554119	-0.438965	0.085449	-0.586182
593.0	10.991763	-0.67927	5.444282	0.301734	0.274502	0.580402	-0.429688	0.081055	-0.588379
594.0	11.48051	-0.154437	5.244106	0.388621	0.381959	0.609505	-0.432129	0.087646	-0.586426
595.0	11.622355	0.772559	4.759771	0.450487	0.563433	0.655044	-0.43457	0.087646	-0.593262
596.0	11.584862	1.588942	4.454743	0.319006	0.529577	0.717552	-0.428223	0.098877	-0.591309
597.0	11.544402	1.329581	4.409294	0.052269	0.347451	0.760303	-0.427979	0.094482	-0.595947
598.0	11.410951	0.585814	4.281074	-0.005587	0.295361	0.735332	-0.428223	0.098877	-0.595947
599.0	11.079378	-0.069466	3.906335	-0.045019	0.299941	0.650109	-0.423584	0.098877	-0.595947
600.0	10.995369	-0.783196	3.728162	-0.160473	0.180359	0.447112	-0.424316	0.112061	-0.598877
601.0	10.594742	-0.723971	3.326958	-0.028392	0.328044	0.251232	-0.421631	0.103271	-0.60083
602.0	9.786363	-0.06576	3.475893	0.041127	0.559083	0.059593	-0.419922	0.116455	-0.605957
603.0	9.290972	0.338558	3.044665	-0.073757	0.461167	-0.119532	-0.419678	0.112061	-0.608154
604.0	9.20035	0.256895	2.697112	-0.016906	0.451431	-0.257785	-0.417725	0.116455	-0.605957
605.0	8.827928	0.867347	2.885474	0.118911	0.551484	-0.312512	-0.413086	0.114258	-0.610596
606.0	8.335748	0.726733	2.667895	0.026426	0.587356	-0.339603	-0.412842	0.109863	-0.617432
607.0	8.28586	0.663604	2.182257	0.009189	0.403262	-0.369545	-0.406006	0.105469	-0.617188
608.0	7.696555	0.883611	2.337673	0.005041	0.43186	-0.380346	-0.410645	0.112061	-0.619873
609.0	7.05887	0.998214	2.430462	-0.066859	0.358018	-0.390748	-0.403564	0.105469	-0.624268
610.0	6.818132	1.007326	2.287979	-0.146945	0.218828	-0.415206	-0.406006	0.109863	-0.628906
611.0	6.970877	1.166489	2.375266	-0.164798	0.165923	-0.404898	-0.408203	0.107666	-0.624268
612.0	6.819153	1.153076	2.273913	-0.189765	0.191405	-0.377457	-0.40625	0.112061	-0.62207
613.0	6.736195	1.050093	2.166563	-0.366679	0.094921	-0.383043	-0.399414	0.110107	-0.631348
614.0	6.942734	0.985292	1.869314	-0.409084	0.002987	-0.367386	-0.40625	0.112061	-0.62207
615.0	7.123259	0.710494	1.710405	-0.456183	0.006189	-0.338422	-0.401855	0.114258	-0.617676
616.0	7.337992	0.320147	1.572815	-0.398401	0.036962	-0.291368	-0.4021	0.123291	-0.622559
617.0	7.482705	-0.002252	1.218727	-0.370443	0.014422	-0.261674	-0.401855	0.116699	-0.626953
618.0	7.473741	-0.214579	1.12718	-0.342042	-0.011774	-0.222628	-0.406738	0.125488	-0.622559
619.0	7.626533	-0.451202	1.219103	-0.201114	0.039685	-0.187932	-0.399658	0.118896	-0.622314
620.0	7.570908	-0.319457	1.269787	-0.135011	0.154385	-0.142762	-0.402344	0.127686	-0.625
621.0	7.393253	-0.306244	1.167572	-0.105551	0.18401	-0.099546	-0.399902	0.125488	-0.625
622.0	7.335329	-0.26328	1.196909	-0.074241	0.226675	-0.060596	-0.402344	0.129883	-0.622803
623.0	7.428855	-0.082714	1.19446	-0.075917	0.22122	4.7e-05	-0.390869	0.125488	-0.629639
624.0	7.447794	-0.140902	1.019891	-0.145255	0.186223	0.073634	-0.402588	0.134277	-0.625244
625.0	7.227907	0.046986	0.903562	-0.154938	0.139247	0.15128	-0.393311	0.129883	-0.629639
626.0	7.190587	0.035161	0.842249	-0.201488	0.041531	0.218947	-0.398193	0.138672	-0.623047
627.0	6.92335	0.181072	0.610452	-0.1723	0.022124	0.304169	-0.38501	0.143066	-0.62793
628.0	6.644202	0.309039	0.610428	-0.225072	-0.058081	0.402334	-0.391846	0.145264	-0.62793
629.0	8.148909	0.052669	0.761192	-0.392087	-0.45495	0.419257	-0.392334	0.158447	-0.619141
630.0	9.536882	-0.154745	2.224063	-0.024089	-0.172474	0.438402	-0.39209	0.151855	-0.621338
631.0	10.067243	0.943434	2.206458	-0.00587	-0.163228	0.38237	-0.39209	0.15625	-0.621338
632.0	9.083357	0.58924	2.604674	0.242349	0.042726	0.378006	-0.394531	0.158447	-0.619141
633.0	9.325075	-0.881777	1.392873	0.308888	-0.149644	0.307313	-0.389893	0.154053	-0.612061
634.0	10.310224	-2.109658	-0.449776	0.308386	-0.54226	0.152281	-0.396729	0.15625	-0.616699
635.0	11.939998	-1.892171	-0.749466	0.281734	-0.785084	-0.024681	-0.396729	0.15625	-0.609863
636.0	13.018766	-0.988555	-1.266849	0.279785	-0.739451	-0.136715	-0.405518	0.154053	-0.612061
637.0	13.635417	0.645777	-1.842897	0.210199	-0.677156	-0.21345	-0.400879	0.149658	-0.609619
638.0	14.623696	2.896402	0.267978	0.133012	-0.738539	-0.303877	-0.406006	0.162842	-0.60083
639.0	15.928136	4.707588	4.471005	0.222332	-0.758909	-0.434619	-0.410156	0.154053	-0.602783
640.0	17.972688	3.020138	3.593848	-0.044145	-0.626493	-0.614474	-0.417236	0.160645	-0.600586
641.0	17.198841	0.660627	4.563972	0.111861	0.226579	-0.807912	-0.405518	0.151855	-0.607422
642.0	13.631755	-0.300703	7.692841	0.185206	0.528834	-1.00342	-0.407715	0.147461	-0.602539
643.0	12.236968	-3.205966	5.936977	-0.153961	0.268494	-1.135704	-0.409668	0.140869	-0.606934
644.0	9.852999	-4.291156	3.592351	0.190268	0.385632	-1.141771	-0.409668	0.143066	-0.609375
645.0	7.997313	-1.426249	4.649997	0.213051	-0.179955	-1.061687	-0.407227	0.138672	-0.606934
646.0	8.695199	-0.318152	3.693643	-0.209642	-0.795328	-0.940919	-0.414063	0.138672	-0.604492
647.0	9.894004	1.184718	4.727975	0.048989	-0.563205	-0.842899	-0.411621	0.134033	-0.594971
648.0	9.769338	2.976088	5.982854	-0.051556	-0.160744	-0.73499	-0.413818	0.13623	-0.604492
649.0	9.831044	1.686417	5.542906	-0.429861	0.005473	-0.659265	-0.416016	0.134033	-0.597412
650.0	10.747803	1.45507	4.800649	-0.160356	0.179554	-0.699672	-0.418213	0.131836	-0.597412
651.0	11.47299	1.498963	4.537257	-0.138934	0.200101	-0.754068	-0.413574	0.129639	-0.601807
652.0	12.187935	0.967994	3.481881	-0.030465	-0.056297	-0.799	-0.418457	0.134033	-0.599609
653.0	12.831913	1.111932	3.000347	0.094131	-0.243748	-0.768336	-0.417969	0.123047	-0.599365
654.0	12.832182	1.296706	3.624686	0.105058	-0.305627	-0.665238	-0.420166	0.123047	-0.594727
655.0	13.210857	0.914446	3.722856	0.164695	-0.220893	-0.496589	-0.419922	0.118652	-0.599121
656.0	12.913902	0.485569	3.018891	0.258165	-0.28548	-0.318469	-0.422363	0.125244	-0.592529
657.0	11.85925	-0.375022	3.82705	0.262619	0.198128	-0.154107	-0.42041	0.127441	-0.604004
658.0	10.132576	-0.684941	3.887998	0.296543	0.567775	-0.007522	-0.417969	0.125244	-0.604004
659.0	8.152896	-0.931453	3.086251	0.100149	0.655812	0.126216	-0.41333	0.118652	-0.60376
660.0	7.772777	-1.456931	2.241128	0.08387	0.356711	0.207605	-0.411377	0.127441	-0.604004
661.0	7.830656	-1.132098	2.213405	0.188827	0.331009	0.299266	-0.408936	0.123047	-0.606201
662.0	7.555392	-1.063333	1.899006	0.259298	0.276956	0.384592	-0.413574	0.129639	-0.606445
663.0	6.691956	-0.784	1.580459	0.359047	0.226509	0.409444	-0.408936	0.123047	-0.608643
664.0	6.83288	-0.685595	1.49537	0.420859	-0.118669	0.446613	-0.413818	0.131836	-0.604248
665.0	7.49058	-0.493943	1.503976	0.49656	-0.298051	0.471758	-0.411621	0.13208	-0.618164
666.0	7.257132	-0.406993	1.588863	0.567462	-0.155733	0.499825	-0.411377	0.13208	-0.611328
667.0	6.711883	-0.199495	1.551599	0.590036	-0.245905	0.493531	-0.413574	0.125244	-0.611084
668.0	6.73623	-0.047536	1.445134	0.537048	-0.41607	0.486574	-0.413818	0.134033	-0.602051
669.0	6.819561	-0.102078	1.390504	0.469194	-0.380533	0.460898	-0.413574	0.127441	-0.608643
670.0	6.847001	0.197355	1.570456	0.44351	-0.309924	0.412804	-0.41626	0.13623	-0.604492
671.0	6.824302	0.085116	1.427877	0.359009	-0.243693	0.343712	-0.413574	0.127441	-0.613281
672.0	7.049784	0.381862	1.365128	0.433599	-0.121118	0.27703	-0.425293	0.13623	-0.606689
673.0	7.083574	0.92241	1.273859	0.383956	-0.048798	0.22609	-0.411133	0.125244	-0.611084
674.0	7.286434	1.054092	1.214607	0.330286	-0.013581	0.182328	-0.413574	0.129639	-0.606445
675.0	7.474145	1.013062	1.126193	0.309146	0.085113	0.148798	-0.413818	0.134033	-0.608887
676.0	7.494879	0.79935	0.916431	0.274864	0.198477	0.116305	-0.416016	0.131836	-0.608887
677.0	7.330878	0.306729	0.612041	0.273381	0.224439	0.069906	-0.406982	0.129883	-0.606445
678.0	7.158915	0.071737	0.379062	0.265504	0.248406	0.007264	-0.409424	0.134277	-0.611328
679.0	7.301715	-0.001557	0.411594	0.271999	0.183702	-0.073858	-0.404541	0.125488	-0.615723
680.0	7.03095	-0.114432	0.238144	0.303514	0.190047	-0.144263	-0.406738	0.125488	-0.611084
681.0	6.895973	0.344539	0.591896	0.30162	0.078248	-0.218088	-0.404297	0.12085	-0.61084
682.0	7.649767	0.167115	0.517756	0.26264	-0.073037	-0.272389	-0.40918	0.127686	-0.622803
683.0	8.217128	0.431456	0.516181	0.376201	0.034524	-0.304294	-0.406494	0.121094	-0.620117
684.0	8.739281	0.532571	1.131042	0.277642	-0.042166	-0.299277	-0.401855	0.118896	-0.620117
685.0	9.740332	-0.206839	2.414533	0.176438	0.046659	-0.266322	-0.404053	0.116455	-0.613037
686.0	10.491139	0.240821	1.918039	0.008125	-0.222695	-0.224894	-0.408691	0.118896	-0.626953
687.0	10.855699	-0.181854	1.948615	-0.278747	-0.198116	-0.166174	-0.408691	0.116455	-0.622314
688.0	11.036196	0.767869	0.673666	-0.25873	-0.259425	-0.110041	-0.41333	0.118652	-0.617676
689.0	12.217459	1.557028	-0.570886	-0.558118	-0.54109	-0.018176	-0.413086	0.116455	-0.605957
690.0	13.472515	1.202558	-1.917541	-0.65208	-0.730137	0.075495	-0.416016	0.129639	-0.608887
691.0	13.998456	0.101167	-2.137825	-0.358735	-0.496788	0.194199	-0.41333	0.123047	-0.606201
692.0	14.111939	-1.568742	2.459845	0.016998	-0.144466	0.323278	-0.416016	0.131836	-0.613525
693.0	15.525303	-1.185702	3.894332	0.50062	-0.150344	0.453318	-0.413574	0.129639	-0.611084
694.0	17.447407	1.716344	2.646934	0.487083	-0.060844	0.639933	-0.418457	0.134033	-0.611328
695.0	16.117274	2.98571	4.641655	0.385574	0.052742	0.897805	-0.416016	0.134033	-0.608887
696.0	13.190926	3.799411	4.60644	0.250302	0.306043	1.014197	-0.41626	0.136475	-0.620605
697.0	9.658959	3.941689	1.394999	0.100226	0.196114	0.956478	-0.411621	0.136475	-0.618408
698.0	8.791902	1.889088	3.293498	-0.492083	-0.286647	0.902527	-0.416504	0.145264	-0.614014
699.0	10.625405	-1.116377	3.274685	-0.221203	-0.538433	0.75238	-0.414551	0.151855	-0.614258
700.0	11.428077	-1.410846	4.782302	0.065782	-0.069983	0.633069	-0.414551	0.154053	-0.616699
701.0	11.406424	-2.059302	6.858896	0.049996	0.199042	0.588867	-0.412354	0.151855	-0.614258
702.0	12.382143	-1.499035	6.129225	0.283253	0.251527	0.595468	-0.417236	0.160645	-0.619385
703.0	13.229176	-0.471625	5.612377	0.173562	0.309759	0.691652	-0.403564	0.160645	-0.619385
704.0	13.786129	0.462755	5.82501	0.039631	0.255677	0.827194	-0.406006	0.165039	-0.619385
705.0	13.553299	1.061901	4.533097	0.0961	0.357664	0.882593	-0.403809	0.162842	-0.624023
706.0	13.032376	1.243282	4.451705	-0.023454	0.20783	0.850075	-0.404053	0.169434	-0.626465
707.0	12.091873	0.482814	4.229477	-0.153149	0.157986	0.737723	-0.399658	0.173828	-0.62207
708.0	10.725944	-0.247357	4.226683	-0.093134	0.321617	0.607008	-0.395508	0.182861	-0.629395
709.0	11.097287	-0.434408	4.283238	-0.11563	0.089647	0.396676	-0.406738	0.182861	-0.629395
710.0	11.113765	0.258543	3.293998	-0.053155	0.243417	0.209555	-0.397949	0.187256	-0.634277
711.0	10.180663	0.44565	3.584549	-0.070308	0.328516	0.049395	-0.397705	0.178467	-0.62915
712.0	9.609672	0.451594	3.469338	-0.069521	0.399531	-0.108958	-0.395264	0.178467	-0.63623
713.0	9.076956	1.138019	3.092712	-0.018643	0.461485	-0.226368	-0.395752	0.185059	-0.641113
714.0	8.435039	1.182674	2.922977	-0.038818	0.573704	-0.2661	-0.395508	0.185059	-0.638672
715.0	8.090882	1.325749	2.450537	-0.095092	0.507854	-0.310744	-0.38623	0.178467	-0.645508
716.0	8.45204	1.615166	1.952663	-0.113982	0.155122	-0.304935	-0.390869	0.180664	-0.643311
717.0	8.255968	1.116632	2.045106	-0.24287	0.117762	-0.307417	-0.393311	0.180664	-0.645508
718.0	7.488757	0.870257	2.178248	-0.181227	0.247129	-0.331008	-0.393311	0.180664	-0.647949
719.0	6.31711	1.557572	2.426466	-0.417053	0.28219	-0.396268	-0.391113	0.182861	-0.647949
720.0	6.539405	1.02964	1.912512	-0.650867	-0.002139	-0.418013	-0.395752	0.185059	-0.645752
721.0	6.928795	1.256226	1.710215	-0.542009	-0.026832	-0.445471	-0.397705	0.180664	-0.650146
722.0	6.867385	1.471838	2.05421	-0.649264	0.054226	-0.436618	-0.400146	0.185059	-0.645752
723.0	6.85898	1.12521	1.73863	-0.662568	0.050352	-0.421537	-0.397949	0.185059	-0.645752
724.0	6.918381	1.408347	1.585212	-0.586	0.045047	-0.387864	-0.397949	0.189453	-0.643555
725.0	6.736134	0.833657	1.385505	-0.744338	0.025438	-0.340691	-0.393555	0.187256	-0.648193
726.0	6.877894	0.262803	1.385336	-0.629226	0.072826	-0.292734	-0.398193	0.193848	-0.636719
727.0	6.862375	0.318471	1.385224	-0.604422	0.153948	-0.237111	-0.398193	0.19165	-0.648193
728.0	6.716921	0.01155	1.208928	-0.653504	0.209408	-0.18479	-0.395996	0.193848	-0.63916
729.0	6.722847	-0.354925	1.174476	-0.633042	0.229994	-0.132025	-0.391602	0.198242	-0.648438
730.0	6.753872	-0.427986	1.02446	-0.596942	0.251477	-0.087783	-0.401123	0.207031	-0.648926
731.0	6.715777	-0.480838	0.961216	-0.595559	0.300284	-0.033648	-0.38501	0.202637	-0.644043
732.0	6.815062	-0.413498	0.931997	-0.561599	0.292171	0.029648	-0.39209	0.209229	-0.644287
733.0	6.823026	-0.333615	1.002837	-0.548958	0.359177	0.098138	-0.387695	0.211426	-0.646729
734.0	6.823543	-0.036127	1.03694	-0.565188	0.288693	0.171	-0.387939	0.216064	-0.64917
735.0	6.843859	-0.088306	1.136034	-0.602723	0.19958	0.263286	-0.385742	0.218262	-0.653809
736.0	6.713617	-0.124019	1.323543	-0.578417	0.132713	0.362396	-0.383789	0.227051	-0.642578
737.0	7.09854	-0.064734	1.081133	-0.702444	-0.107361	0.42936	-0.38623	0.231445	-0.642822
738.0	8.102392	-0.104761	1.667983	-0.762033	-0.311017	0.455643	-0.384521	0.242432	-0.643311
739.0	8.12867	0.145012	2.856158	-0.419308	0.195517	0.508702	-0.384277	0.240234	-0.647705
740.0	9.22707	1.594312	3.198681	-0.140192	0.223856	0.511101	-0.380127	0.246826	-0.645752
741.0	8.955939	0.852421	0.672695	-0.421543	-0.166754	0.53324	-0.384521	0.242432	-0.647949
742.0	9.902832	-1.648345	0.451683	0.110351	-0.165498	0.44813	-0.382813	0.255615	-0.650635
743.0	10.446654	-2.051875	-0.698961	0.146433	-0.307138	0.272056	-0.382568	0.251221	-0.645752
744.0	12.104215	-3.590538	-1.736594	-0.147041	-0.678694	0.060036	-0.387207	0.253418	-0.641357
745.0	13.905389	-3.004252	-1.937345	0.159627	-0.707725	-0.172895	-0.395752	0.244629	-0.643311
746.0	14.332409	-0.743449	-0.105445	0.419881	-0.532248	-0.351641	-0.393555	0.246826	-0.641113
747.0	15.050544	1.1803	3.276135	0.549468	-0.665119	-0.530896	-0.402344	0.238037	-0.635986
748.0	17.568862	0.978402	3.142078	0.514023	-0.703295	-0.751616	-0.406738	0.235596	-0.635986
749.0	17.326312	-0.454798	4.999231	0.707204	-0.160772	-0.980202	-0.40625	0.224609	-0.644775
750.0	15.118393	-0.723149	6.691792	0.969749	-0.183718	-1.206064	-0.412842	0.218018	-0.637695
751.0	13.397291	-1.15205	4.773848	0.545153	-0.018337	-1.248287	-0.412354	0.207031	-0.639648
752.0	9.563011	-1.585346	3.293068	0.31908	0.181295	-1.107771	-0.414307	0.200439	-0.639404
753.0	9.332538	0.622624	4.20448	0.058491	-0.553944	-1.05972	-0.41626	0.196045	-0.636719
754.0	10.159447	1.572057	4.841841	-0.098316	-0.581263	-0.992937	-0.420898	0.198242	-0.63916
755.0	10.40162	2.446217	5.738693	-0.257731	-0.160626	-0.966454	-0.425293	0.191406	-0.638916
756.0	10.243235	2.009102	5.94626	-0.473863	0.300524	-0.925074	-0.434326	0.193604	-0.641357
757.0	10.251147	1.759127	5.648566	-0.235099	0.498654	-0.953585	-0.429443	0.187012	-0.636475
758.0	10.955369	1.343006	4.716188	-0.180466	0.406699	-1.024704	-0.425049	0.189209	-0.636475
759.0	11.972038	-1.027649	3.577485	-0.173084	0.142128	-1.100685	-0.422363	0.178223	-0.638428
760.0	13.678207	-1.673977	3.920112	0.259869	-0.245979	-1.105378	-0.427002	0.178223	-0.647705
761.0	14.384222	-0.918163	4.196239	0.325	-0.178806	-1.031728	-0.426514	0.167236	-0.64502
762.0	13.46919	-0.877101	3.658755	0.381484	0.10609	-0.812941	-0.435303	0.165039	-0.637939
763.0	13.464064	0.230015	3.383493	0.521611	-0.333058	-0.53934	-0.432617	0.154053	-0.642334
764.0	13.774833	0.322203	3.497896	0.369965	-0.288369	-0.237426	-0.437256	0.15625	-0.644531
765.0	11.880048	-0.072394	4.132726	0.605723	0.421953	0.028297	-0.432617	0.151855	-0.646729
766.0	9.276281	0.702106	3.948781	0.520118	0.596783	0.242788	-0.437012	0.147461	-0.646729
767.0	8.015183	-0.210346	3.262813	0.17495	0.446226	0.372224	-0.426025	0.154053	-0.646973
768.0	7.853735	-0.575891	2.844856	0.294931	0.485953	0.434435	-0.43042	0.154053	-0.653809
769.0	7.704993	-0.301915	1.980419	0.326037	0.266388	0.508402	-0.426025	0.15625	-0.660889
770.0	7.387926	-0.217462	1.634534	0.327741	0.056052	0.565997	-0.432617	0.151855	-0.660645
771.0	6.956277	-0.497253	1.832475	0.413789	0.008318	0.579173	-0.423828	0.158447	-0.65625
772.0	6.919135	-0.160851	1.986076	0.559579	-0.158076	0.578734	-0.428467	0.158447	-0.658691
773.0	7.207597	-0.252754	2.031843	0.486585	-0.196536	0.60516	-0.43042	0.151855	-0.656006
774.0	7.188808	-0.515891	1.746378	0.555639	-0.18467	0.630438	-0.43042	0.151855	-0.663086
775.0	6.537313	-0.424227	1.636894	0.580251	-0.125779	0.631379	-0.434814	0.149658	-0.656006
776.0	6.314842	-0.350762	1.639174	0.556302	-0.241444	0.622194	-0.441895	0.158447	-0.65625
777.0	6.303892	-0.280311	1.501662	0.540601	-0.223655	0.579641	-0.430664	0.15625	-0.65625
778.0	6.140601	-0.114806	1.434662	0.505374	-0.193105	0.531204	-0.435059	0.158447	-0.649414
779.0	6.234126	-0.004979	1.284129	0.469069	-0.269826	0.451452	-0.435059	0.154053	-0.65625
780.0	6.432992	0.37966	1.433257	0.549367	-0.13752	0.368746	-0.434814	0.149658	-0.656006
781.0	6.292812	0.888563	1.268001	0.525196	-0.102487	0.292684	-0.439453	0.154053	-0.653809
782.0	6.608423	1.211635	1.293676	0.433758	-0.121502	0.228189	-0.439453	0.151855	-0.656006
783.0	6.838274	1.077812	1.005859	0.352056	-0.01128	0.167782	-0.435059	0.154053	-0.658447
784.0	6.833984	0.931303	0.681271	0.298618	0.087201	0.100344	-0.439209	0.149658	-0.656006
785.0	7.140542	0.800042	0.301582	0.264031	0.063373	0.054482	-0.441406	0.145264	-0.653564
786.0	7.112133	0.515482	0.182614	0.25472	0.127456	-0.006808	-0.445801	0.145264	-0.6604
787.0	6.773225	0.537693	0.399556	0.271025	0.134293	-0.085785	-0.437012	0.147461	-0.656006
788.0	6.876898	0.490627	0.644005	0.216906	0.017518	-0.180663	-0.438965	0.143066	-0.657959
789.0	7.121932	0.359359	0.760041	0.234678	0.026211	-0.266147	-0.438721	0.136475	-0.662354
790.0	7.150035	0.380039	0.808849	0.285663	0.088193	-0.351005	-0.443115	0.131836	-0.666992
791.0	7.852957	0.456798	0.6426	0.266474	-0.021001	-0.421022	-0.449707	0.129639	-0.664551
792.0	9.209119	0.334368	0.959886	0.138872	-0.337585	-0.451526	-0.440918	0.134033	-0.657715
793.0	10.362195	-0.28434	2.387997	0.140206	-0.234619	-0.420762	-0.449707	0.125244	-0.657471
794.0	10.883768	-0.01809	2.647982	0.143693	-0.026385	-0.368996	-0.449707	0.125244	-0.662109
795.0	11.184841	0.646624	1.427453	-0.090601	-0.124404	-0.26269	-0.447266	0.123047	-0.659668
796.0	11.973905	1.339478	0.141772	-0.35282	-0.353292	-0.13544	-0.449951	0.131836	-0.657715
797.0	12.807158	2.010851	-0.819995	-0.576136	-0.521627	-0.024807	-0.449707	0.129639	-0.657471
798.0	13.402501	1.8087	-1.784893	-0.733052	-0.576291	0.101212	-0.461182	0.134033	-0.648438
799.0	13.511824	0.230017	-3.678771	-0.502614	-0.464951	0.195811	-0.458984	0.13623	-0.648438
800.0	13.587104	-1.192625	-4.392772	0.020417	-0.35033	0.254568	-0.461182	0.134033	-0.648438
801.0	14.500209	-2.267241	1.331434	0.243909	-0.276586	0.301283	-0.458984	0.131836	-0.645996
802.0	15.797698	-2.289184	6.818867	0.375757	-0.137623	0.381016	-0.461182	0.134033	-0.645996
803.0	17.676915	1.845902	3.065883	0.536552	0.080078	0.521901	-0.460938	0.127441	-0.652832
804.0	15.54185	3.180196	2.897292	0.446273	0.466099	0.81784	-0.458984	0.131836	-0.645996
805.0	12.160886	3.917751	6.654736	0.048241	0.363522	0.99138	-0.45459	0.138428	-0.655518
806.0	9.534925	3.64639	2.653561	-0.1373	0.218694	0.948596	-0.457031	0.140625	-0.655762
807.0	8.616496	2.559433	3.732672	-0.540381	0.037831	0.901259	-0.459229	0.142822	-0.651123
808.0	10.050414	-0.033764	3.940703	-0.382614	-0.445935	0.777338	-0.462158	0.158203	-0.646973
809.0	11.47307	-0.555587	5.088951	-0.243747	-0.113852	0.709881	-0.459717	0.151611	-0.64917
810.0	11.668841	-1.491411	6.899682	-0.230608	0.181924	0.681402	-0.457764	0.158203	-0.646973
811.0	12.399234	-2.025528	5.92716	-0.060317	0.234176	0.68353	-0.455566	0.162842	-0.651855
812.0	13.280173	-0.901043	5.342682	0.064565	0.293071	0.704779	-0.453369	0.165039	-0.64502
813.0	13.919259	0.252638	5.542167	-0.015062	0.287213	0.745582	-0.448975	0.165039	-0.654297
814.0	14.394718	0.595391	4.340063	0.036985	0.27034	0.728444	-0.453613	0.169434	-0.649658
815.0	13.532728	0.189287	3.878179	-0.096922	0.395121	0.643829	-0.446777	0.167236	-0.654297
816.0	11.431861	-0.272025	4.071935	-0.058788	0.458806	0.537039	-0.453613	0.169434	-0.656738
817.0	10.949676	-0.807598	3.707159	-0.134246	0.137509	0.361116	-0.456055	0.176025	-0.656982
818.0	11.569538	-0.521947	3.431367	-0.036746	0.14734	0.161255	-0.456299	0.178223	-0.659424
819.0	10.917791	0.254899	3.106534	0.005109	0.403039	-0.019374	-0.449219	0.171631	-0.661377
820.0	9.839479	0.369455	2.983621	-0.081162	0.407502	-0.164301	-0.460693	0.178223	-0.66626
821.0	9.16398	0.328599	2.929762	0.023662	0.548141	-0.283823	-0.446777	0.165039	-0.665771
822.0	8.267237	1.278961	2.575141	0.012916	0.537863	-0.389596	-0.451416	0.169434	-0.668213
823.0	8.059143	1.349012	2.347996	-0.091306	0.342974	-0.399797	-0.446777	0.165039	-0.663574
824.0	7.587722	1.489503	2.354129	0.02709	0.484563	-0.414593	-0.448975	0.162842	-0.66333
825.0	6.529874	1.734904	2.164431	-0.103893	0.472891	-0.434774	-0.44873	0.160645	-0.667969
826.0	6.23064	1.474017	2.284027	-0.233239	0.289144	-0.450863	-0.450928	0.15625	-0.674805
827.0	6.367913	1.420231	2.256151	-0.308256	0.281046	-0.473218	-0.448486	0.154053	-0.674805
828.0	5.901284	1.340154	2.06151	-0.383868	0.292374	-0.464691	-0.44873	0.158447	-0.672607
829.0	5.751633	1.359374	2.034531	-0.561585	0.095559	-0.451687	-0.446533	0.160645	-0.67041
830.0	6.007326	1.054875	1.828215	-0.620819	-0.072711	-0.426557	-0.448975	0.165039	-0.665771
831.0	6.222324	1.00277	1.94795	-0.553335	-0.014323	-0.387344	-0.453125	0.15625	-0.670166
832.0	6.245007	0.860755	1.707355	-0.601826	-0.05266	-0.355906	-0.455566	0.158447	-0.667969
833.0	6.673795	0.677846	1.560056	-0.585565	-0.104265	-0.30744	-0.453125	0.158447	-0.665527
834.0	6.935011	0.347888	1.320839	-0.557295	-0.034409	-0.245819	-0.455566	0.158447	-0.674805
835.0	6.921313	-0.025337	1.384818	-0.521984	0.085144	-0.186077	-0.453125	0.158447	-0.665527
836.0	6.842232	-0.237837	1.337583	-0.468444	0.126726	-0.138925	-0.457764	0.162842	-0.665771
837.0	6.948391	-0.416107	1.326449	-0.491139	0.125436	-0.08233	-0.455566	0.160645	-0.665771
838.0	7.138063	-0.560962	1.374555	-0.47333	0.16127	-0.021782	-0.455811	0.165039	-0.663574
839.0	7.243511	-0.580685	1.420609	-0.474425	0.189557	0.045691	-0.448975	0.167236	-0.670654
840.0	7.211098	-0.509083	1.10535	-0.464696	0.223442	0.096219	-0.456055	0.171631	-0.663818
841.0	7.372182	-0.009192	0.978486	-0.441247	0.189486	0.155527	-0.451416	0.169434	-0.670654
842.0	7.388284	0.029458	0.991782	-0.497359	0.150519	0.219128	-0.45166	0.178223	-0.66626
843.0	7.231015	0.293031	1.128358	-0.48475	0.159559	0.278926	-0.453857	0.173828	-0.663818
844.0	6.999055	0.299836	0.986932	-0.522664	0.111828	0.362346	-0.454102	0.178223	-0.668701
845.0	7.116632	-0.025485	0.744304	-0.495472	0.025941	0.445454	-0.454102	0.182617	-0.666504
846.0	7.805285	0.052932	0.59082	-0.486234	-0.247791	0.490026	-0.454346	0.187012	-0.668945
847.0	8.997009	-0.354688	1.384793	-0.461688	-0.303147	0.498892	-0.458984	0.191406	-0.664551
848.0	9.852448	-0.527599	2.219217	-0.031829	-0.030579	0.484083	-0.45459	0.191406	-0.666748
849.0	9.847754	-0.602492	1.70318	0.250439	0.210976	0.451638	-0.449707	0.184814	-0.664307
850.0	10.830274	-2.202019	-0.270756	0.251568	-0.078683	0.309654	-0.459229	0.193604	-0.662354
851.0	12.097233	-3.36249	-1.749045	0.473684	-0.348415	0.118257	-0.460938	0.184814	-0.664307
852.0	12.911091	-2.910409	-1.480859	0.47582	-0.382039	-0.060766	-0.465332	0.18042	-0.661865
853.0	13.050334	-1.814534	-1.356178	0.417513	-0.47459	-0.176477	-0.469727	0.178223	-0.66626
854.0	13.542496	0.3087	0.359925	0.516723	-0.55145	-0.271715	-0.480713	0.171387	-0.661377
855.0	14.286766	2.553151	4.600928	0.64091	-0.673161	-0.389789	-0.478027	0.1604	-0.66333
856.0	16.843402	2.219508	4.110159	0.472135	-0.688723	-0.579385	-0.484619	0.156006	-0.653809
857.0	17.019777	0.402433	4.759233	0.565772	0.125548	-0.817077	-0.479492	0.142822	-0.657959
858.0	13.896317	0.122379	7.247489	0.918599	0.282781	-1.114151	-0.490479	0.134033	-0.662354
859.0	11.613819	-0.539634	4.992584	0.359939	0.278579	-1.209898	-0.485596	0.120605	-0.661865
860.0	8.206675	-1.998721	2.717592	0.256557	0.089421	-1.153228	-0.492188	0.118408	-0.664063
861.0	9.041136	0.751967	4.166421	0.303317	-0.859011	-1.147548	-0.493896	0.107422	-0.658936
862.0	10.706911	2.401904	5.217229	0.022752	-0.888048	-1.090351	-0.500488	0.103027	-0.656494
863.0	11.415492	2.745612	5.94836	-0.155718	-0.313029	-1.042338	-0.500244	0.096436	-0.654053
864.0	10.915027	2.295049	7.182114	-0.198146	0.192604	-1.004426	-0.502441	0.092041	-0.64917
865.0	11.310133	1.58241	6.3471	-0.175952	0.217577	-1.046786	-0.50415	0.083252	-0.6604
866.0	13.169322	0.995126	4.690191	-0.13885	0.04665	-1.107574	-0.503906	0.076416	-0.65332
867.0	15.092737	-0.330082	4.182264	-0.108064	-0.24228	-1.084049	-0.506104	0.074219	-0.655518
868.0	15.539931	-0.528237	4.021768	0.159012	-0.149323	-0.993454	-0.505615	0.063232	-0.650391
869.0	14.145363	0.318278	4.020235	0.270502	0.124812	-0.815919	-0.51001	0.056641	-0.652588
870.0	12.999533	1.16535	3.978595	0.21131	-0.16593	-0.56712	-0.512451	0.061035	-0.652588
871.0	12.898675	0.483794	3.869478	0.128498	-0.03526	-0.301191	-0.511963	0.050049	-0.649902
872.0	12.245302	0.55318	3.87006	0.382099	0.284513	-0.078256	-0.507324	0.050049	-0.656982
873.0	10.665685	0.389272	3.324585	0.317965	0.330483	0.153452	-0.505127	0.047852	-0.6521
874.0	9.29455	-0.452544	3.936779	0.157965	0.505247	0.293008	-0.509766	0.052246	-0.652344
875.0	8.250896	-1.199085	2.906358	0.249234	0.589799	0.401753	-0.505127	0.047852	-0.661377
876.0	7.285892	-1.094722	2.239601	0.221603	0.410246	0.46282	-0.503174	0.054443	-0.659424
877.0	7.031679	-1.318883	2.115274	0.152541	0.188324	0.532434	-0.505127	0.050049	-0.661621
878.0	6.874698	-1.142957	1.785045	0.396031	0.054	0.562848	-0.511963	0.052246	-0.664063
879.0	6.182929	-0.852059	2.162698	0.454525	0.171085	0.580685	-0.50293	0.050049	-0.663818
880.0	5.804533	-0.462412	2.16812	0.481003	0.019799	0.612357	-0.509766	0.054443	-0.659424
881.0	6.173314	-0.438523	1.780871	0.461447	-0.286699	0.645584	-0.507324	0.050049	-0.661621
882.0	6.37919	-0.31091	1.44306	0.572862	-0.297111	0.661333	-0.514404	0.054443	-0.659424
883.0	6.154	0.064497	1.679259	0.583132	-0.333404	0.672199	-0.518799	0.052246	-0.656982
884.0	6.192381	0.048555	1.572594	0.514148	-0.396886	0.688159	-0.516602	0.056641	-0.659424
885.0	6.256428	0.245502	1.529006	0.446158	-0.39768	0.665814	-0.523193	0.052246	-0.654541
886.0	6.211426	0.063497	1.422925	0.418031	-0.330343	0.607291	-0.525879	0.058838	-0.652588
887.0	6.201176	0.212255	1.389986	0.487416	-0.209015	0.543603	-0.523193	0.052246	-0.656982
888.0	6.358958	0.659336	1.430011	0.446182	-0.186382	0.461248	-0.52124	0.054443	-0.654785
889.0	6.581666	0.815908	1.300409	0.34466	-0.173086	0.397331	-0.523193	0.052246	-0.649902
890.0	6.74371	0.87989	0.917841	0.261642	-0.086367	0.319758	-0.528076	0.056641	-0.654785
891.0	7.112787	1.212019	0.658112	0.165445	-0.04973	0.245873	-0.532227	0.047607	-0.6521
892.0	6.861443	0.997233	0.075044	0.092614	0.035633	0.179562	-0.532471	0.056396	-0.650146
893.0	6.472681	0.99805	0.019821	0.064752	0.057225	0.089445	-0.532227	0.047607	-0.656738
894.0	6.512148	0.986068	0.032397	0.027345	-0.05324	-0.016221	-0.536865	0.052002	-0.652344
895.0	6.348242	0.862568	0.243256	0.049266	-0.074058	-0.119354	-0.529785	0.047607	-0.647461
896.0	6.192956	0.807841	0.934769	0.091065	-0.131424	-0.229408	-0.538818	0.043213	-0.6521
897.0	5.237388	0.398808	1.43938	0.066623	0.118239	-0.367218	-0.533936	0.034424	-0.651611
898.0	6.924455	1.193188	1.194336	0.052053	-0.414099	-0.468795	-0.540771	0.041016	-0.654297
899.0	9.379468	-0.074015	1.408208	-0.186409	-0.653215	-0.48378	-0.542725	0.032227	-0.646973
900.0	10.952235	-0.508119	2.386124	0.054707	-0.32744	-0.45233	-0.547363	0.034424	-0.642334
901.0	11.516715	0.277505	1.478822	-0.049074	-0.235617	-0.377861	-0.544922	0.027832	-0.64917
902.0	12.893988	0.676344	0.708644	-0.387779	-0.410568	-0.241333	-0.556152	0.030029	-0.639893
903.0	13.076468	1.093476	-0.097003	-0.444491	-0.267984	-0.113457	-0.551514	0.025635	-0.639648
904.0	13.602846	1.279864	-1.020674	-0.671711	-0.380004	-0.009122	-0.556152	0.030029	-0.637451
905.0	13.934101	0.182039	-2.781244	-0.663976	-0.356626	0.066881	-0.551758	0.032227	-0.637695
906.0	13.321781	-1.317187	-4.01501	-0.347187	-0.231172	0.117742	-0.558838	0.036621	-0.644775
907.0	13.658353	-2.36175	0.71108	-0.176766	-0.293843	0.192413	-0.561035	0.036621	-0.635498
908.0	15.598299	-3.076881	3.81681	0.105571	-0.386731	0.322936	-0.561035	0.041016	-0.633301
909.0	18.180917	0.451581	2.45782	0.590836	-0.09203	0.474369	-0.561035	0.038818	-0.628662
910.0	17.045743	3.090931	3.071488	0.441621	0.07324	0.725806	-0.565918	0.047607	-0.633545
911.0	15.142816	4.270528	5.061491	0.020457	0.18832	0.946193	-0.565918	0.04541	-0.633545
912.0	11.297379	3.343186	1.273779	0.005623	0.347002	0.898292	-0.561768	0.054199	-0.63623
913.0	9.097693	2.6381	2.06354	-0.261605	0.218389	0.792577	-0.557373	0.058594	-0.634033
914.0	9.9218	-0.650613	3.038181	-0.287932	-0.282633	0.664693	-0.564453	0.065186	-0.636475
915.0	11.12534	-1.333954	3.201133	0.131673	-0.055945	0.518571	-0.564209	0.060791	-0.638672
916.0	10.720536	-2.175723	6.218851	0.071911	0.360346	0.496522	-0.560059	0.06958	-0.643555
917.0	11.378691	-1.760897	6.274224	0.333287	0.334435	0.481338	-0.560059	0.067383	-0.641357
918.0	12.713723	-0.925824	5.476321	0.177818	0.302344	0.604718	-0.566895	0.071777	-0.63916
919.0	13.525584	-0.170505	5.45861	0.056083	0.316863	0.754722	-0.560303	0.076172	-0.643799
920.0	13.891786	0.994511	4.524651	0.085328	0.323648	0.835018	-0.556152	0.082764	-0.641846
921.0	13.837884	0.722278	4.017278	-0.133552	0.197162	0.82372	-0.553955	0.087402	-0.644287
922.0	13.388734	-0.314394	4.256064	-0.236577	0.193905	0.687241	-0.563477	0.098389	-0.649414
923.0	12.248989	-0.688807	3.918244	-0.159134	0.368823	0.512772	-0.556641	0.098389	-0.651611
924.0	11.006558	-0.516562	3.949075	-0.110739	0.365873	0.339383	-0.554688	0.10498	-0.651855
925.0	11.052643	0.101716	3.621258	-0.078947	0.274453	0.140731	-0.552246	0.100586	-0.654053
926.0	10.635921	0.546107	2.989824	-0.080523	0.329289	-0.015681	-0.548096	0.107178	-0.663574
927.0	9.810653	0.698928	3.278393	-0.046819	0.459222	-0.158699	-0.55249	0.10498	-0.656494
928.0	9.132369	1.298656	3.000716	0.03186	0.53092	-0.237916	-0.550293	0.10498	-0.658936
929.0	8.481608	1.301966	2.588253	-0.026488	0.58528	-0.260037	-0.547607	0.098389	-0.660889
930.0	7.950021	1.197717	2.053358	-0.052948	0.438382	-0.263497	-0.543457	0.107178	-0.663574
931.0	7.551431	1.158746	2.238371	-0.100344	0.304548	-0.26898	-0.541016	0.098389	-0.667969
932.0	6.866526	1.053871	2.4573	-0.086162	0.411265	-0.274103	-0.54126	0.10498	-0.668213
933.0	6.388363	1.037784	2.221733	-0.219355	0.275662	-0.322245	-0.53418	0.098389	-0.672607
934.0	6.105705	0.888797	2.282283	-0.30593	0.308519	-0.372564	-0.539063	0.10498	-0.670654
935.0	5.73363	1.139145	2.171445	-0.362023	0.322019	-0.400837	-0.534424	0.102783	-0.67749
936.0	5.493158	1.267915	2.063249	-0.444196	0.174924	-0.415245	-0.536621	0.10498	-0.675293
937.0	5.521671	1.228895	1.929261	-0.516945	0.002683	-0.430829	-0.536377	0.098389	-0.672607
938.0	5.606961	1.151215	1.776755	-0.530108	-0.016901	-0.43822	-0.534424	0.102783	-0.67041
939.0	5.893796	1.089665	1.772877	-0.559042	-0.065882	-0.426936	-0.539063	0.107178	-0.672852
940.0	6.173943	0.979689	1.790084	-0.55055	-0.044971	-0.378166	-0.539063	0.109375	-0.670654
941.0	6.467332	0.66061	1.677449	-0.582574	0.037325	-0.33692	-0.532227	0.107178	-0.67749
942.0	6.517423	0.374673	1.449762	-0.563161	0.113994	-0.286473	-0.539307	0.115967	-0.675537
943.0	6.707763	0.23578	1.355851	-0.567799	0.119083	-0.228536	-0.534424	0.10498	-0.67749
944.0	6.887755	0.014498	1.267557	-0.556871	0.14177	-0.154421	-0.541504	0.111572	-0.675537
945.0	6.801265	-0.307686	0.83383	-0.576304	0.206485	-0.095248	-0.539307	0.115967	-0.67334
946.0	6.890128	-0.30745	0.454454	-0.575873	0.16164	-0.026304	-0.533203	0.129395	-0.678467
947.0	7.071159	-0.274073	0.242601	-0.568886	0.090941	0.061169	-0.535156	0.125	-0.678223
948.0	7.370669	-0.263273	0.431615	-0.54784	0.067791	0.142165	-0.5354	0.127197	-0.678223
949.0	7.320263	-0.366898	0.317766	-0.526245	0.062612	0.234208	-0.533203	0.129395	-0.680664
950.0	6.939733	-0.543464	0.504298	-0.470948	0.094455	0.339173	-0.53125	0.135986	-0.67627
951.0	7.125375	-0.754564	0.779865	-0.41951	-0.010039	0.427665	-0.533691	0.144775	-0.672119
952.0	7.911287	-0.434057	1.282894	-0.368897	-0.203121	0.508364	-0.533936	0.14917	-0.672119
953.0	8.667747	-0.432961	2.169561	-0.253314	-0.261731	0.555736	-0.538574	0.151367	-0.667725
954.0	9.535247	-0.828239	3.812863	0.204439	0.237216	0.618597	-0.529541	0.151367	-0.674561
955.0	10.243458	-0.440814	1.156437	0.348999	0.172037	0.528742	-0.531738	0.14917	-0.674561
956.0	10.392426	-2.863996	-1.546009	0.024535	-0.48551	0.38859	-0.536621	0.160156	-0.670166
957.0	12.845012	-3.450206	-1.348907	0.55295	-0.680271	0.10127	-0.538574	0.14917	-0.669922
958.0	13.534094	-2.461257	-0.968948	0.36518	-0.525025	-0.108681	-0.54541	0.153564	-0.665283
959.0	13.975355	-1.568271	-1.637599	0.352988	-0.264377	-0.22646	-0.545166	0.146973	-0.665039
960.0	13.962037	0.465433	-2.31538	0.257988	-0.08435	-0.26835	-0.543213	0.153564	-0.665283
961.0	14.249186	2.595539	-1.95564	0.033834	-0.203351	-0.310473	-0.547363	0.144775	-0.662598
962.0	14.609166	4.963733	3.781246	0.28898	-0.146838	-0.391257	-0.551758	0.144775	-0.662598
963.0	14.36337	5.054984	6.777872	0.463126	-0.203097	-0.543409	-0.549316	0.138184	-0.662354
964.0	15.465123	2.115666	4.67753	0.301054	-0.104081	-0.782509	-0.551514	0.137939	-0.662354
965.0	13.059703	-1.320545	5.057349	0.593408	0.514635	-1.028814	-0.548584	0.122559	-0.659668
966.0	10.105939	-1.531715	6.604426	0.522162	0.15894	-1.202435	-0.555176	0.118164	-0.661621
967.0	9.94045	-2.50557	4.758625	0.013257	-0.391304	-1.230228	-0.547852	0.10498	-0.661133
968.0	9.965537	-1.882307	4.368806	0.225184	-0.4648	-1.202985	-0.554932	0.107178	-0.656738
969.0	10.776899	0.161013	5.59274	-0.016315	-0.527435	-1.15628	-0.561035	0.096191	-0.65625
970.0	11.370095	-0.109628	5.637707	-0.237404	-0.117039	-1.077585	-0.559082	0.098389	-0.658691
971.0	10.975709	0.430463	6.006866	-0.165213	0.424487	-1.024242	-0.561035	0.093994	-0.658447
972.0	11.080851	1.221231	5.272662	-0.105244	0.425464	-0.963668	-0.558594	0.0896	-0.663086
973.0	12.922953	1.762501	4.404844	0.019056	-0.06065	-0.916848	-0.555908	0.080566	-0.657959
974.0	14.388631	0.786757	3.624605	0.091015	-0.153758	-0.837044	-0.553711	0.078613	-0.662598
975.0	14.033081	0.613639	4.057866	0.321154	0.031165	-0.734691	-0.557861	0.071777	-0.653076
976.0	13.778669	0.966846	4.33413	0.279468	-0.093281	-0.544359	-0.562256	0.06958	-0.650635
977.0	13.454915	0.281624	3.847392	0.250811	0.076887	-0.270636	-0.557373	0.058594	-0.657227
978.0	13.065758	0.008071	3.331721	0.463146	0.054615	-0.007231	-0.564453	0.067383	-0.655273
979.0	12.169805	-0.067983	3.597234	0.444703	0.272819	0.18938	-0.555176	0.060791	-0.657227
980.0	10.542322	-0.454067	3.343712	0.469235	0.423852	0.373439	-0.55542	0.067383	-0.664551
981.0	9.184006	-0.894145	3.330461	0.389781	0.542033	0.486349	-0.551025	0.072021	-0.664551
982.0	7.840902	-1.369568	2.558791	0.412489	0.559134	0.547915	-0.55127	0.074219	-0.664795
983.0	7.632475	-1.077615	1.931011	0.509492	0.252099	0.60538	-0.548828	0.069824	-0.666992
984.0	7.028014	-1.033787	1.913899	0.512597	0.149394	0.605283	-0.555664	0.073975	-0.664795
985.0	6.650873	-1.075739	2.232405	0.63066	0.131356	0.625652	-0.549072	0.074219	-0.671631
986.0	6.382843	-0.550022	2.062812	0.708077	0.021289	0.63788	-0.553467	0.074219	-0.669434
987.0	6.274946	-0.197914	2.119837	0.595089	-0.072275	0.639135	-0.555908	0.076172	-0.664795
988.0	6.528322	-0.289632	1.839109	0.694681	-0.147538	0.653602	-0.546875	0.078613	-0.662598
989.0	5.93911	0.08804	1.55749	0.741803	-0.076613	0.654273	-0.551514	0.080811	-0.662598
990.0	5.760237	0.341118	1.807059	0.677019	-0.23972	0.624876	-0.560547	0.078369	-0.664795
991.0	6.215016	0.448	1.608199	0.601226	-0.400894	0.579183	-0.556152	0.083008	-0.662842
992.0	6.295699	0.373154	1.690863	0.622834	-0.262094	0.526449	-0.55835	0.080566	-0.65332
993.0	6.107377	0.636464	1.851667	0.565365	-0.19021	0.445548	-0.560303	0.076172	-0.653076
994.0	6.243537	0.600167	1.71529	0.449351	-0.185916	0.363669	-0.55835	0.082764	-0.651123
995.0	6.259936	0.663532	1.505546	0.414819	-0.142541	0.279794	-0.562744	0.080566	-0.651123
996.0	6.384347	0.912408	1.420132	0.344281	-0.090401	0.198323	-0.562744	0.080566	-0.65332
997.0	6.609303	0.884553	1.116545	0.247069	-0.030739	0.119268	-0.564941	0.080566	-0.657959
998.0	6.754239	1.117701	0.699481	0.249793	0.054909	0.039717	-0.562988	0.087158	-0.656006
999.0	6.859131	1.106496	0.311702	0.170022	0.079842	-0.023574	-0.555908	0.080566	-0.651123
1000.0	6.890863	1.121094	0.232192	0.165791	0.126046	-0.099266	-0.560547	0.082764	-0.651123
1001.0	6.651857	1.005975	0.344159	0.120638	0.129444	-0.17931	-0.560303	0.078369	-0.655518
1002.0	6.422027	0.888527	0.423008	0.144116	0.104022	-0.272332	-0.5625	0.076172	-0.650879
1003.0	6.390061	0.949694	0.574486	0.108806	0.029652	-0.366941	-0.557861	0.071777	-0.657715
1004.0	7.333029	0.950428	0.734463	0.069818	-0.212963	-0.430867	-0.567139	0.076172	-0.64624
1005.0	7.932087	0.016116	1.33406	-0.0095	-0.092826	-0.471828	-0.562256	0.06958	-0.652832
1006.0	9.100864	-0.057484	1.54026	0.04537	-0.158744	-0.465374	-0.564697	0.071777	-0.645996
1007.0	11.138567	0.372667	0.474196	-0.223166	-0.739146	-0.459877	-0.564697	0.071777	-0.643799
1008.0	12.509365	0.027141	1.486788	-0.189716	-0.514023	-0.365168	-0.571289	0.06958	-0.634277
1009.0	12.551696	0.973489	1.272221	-0.208105	-0.183136	-0.2347	-0.571289	0.071777	-0.634521
1010.0	12.7989	1.182865	-0.632933	-0.679528	-0.306878	-0.11246	-0.571533	0.073975	-0.632324
1011.0	13.596048	1.28793	-2.042132	-0.823546	-0.53613	-0.033532	-0.573486	0.06958	-0.627441
1012.0	13.746884	0.609122	-3.249326	-0.663989	-0.455608	0.025859	-0.580811	0.082764	-0.62793
1013.0	13.133748	-0.625809	-4.449408	-0.196225	-0.394918	0.068426	-0.583008	0.080566	-0.623047
1014.0	13.102395	-1.411975	-3.356431	0.133706	-0.426285	0.107561	-0.583252	0.084961	-0.625732
1015.0	13.82791	-2.57264	4.739308	0.05815	-0.311899	0.17531	-0.587891	0.089355	-0.621094
1016.0	15.182478	-3.408487	8.884414	0.130512	-0.244807	0.304926	-0.585693	0.089355	-0.621094
1017.0	17.410682	1.005458	2.778804	0.671811	0.288896	0.49589	-0.587646	0.082764	-0.62085
1018.0	14.752168	3.739262	4.504701	0.442312	0.603069	0.906721	-0.581543	0.100342	-0.623779
1019.0	11.352281	3.829762	6.339015	-0.293659	0.046542	1.17364	-0.588379	0.104736	-0.619385
1020.0	8.969798	3.664488	2.239382	-0.105415	0.1998	1.085339	-0.580078	0.120117	-0.622314
1021.0	7.842031	2.382067	2.672945	-0.318086	-0.083446	0.976083	-0.58667	0.11792	-0.615234
1022.0	10.705815	-0.049805	3.738775	-0.250894	-0.637196	0.889368	-0.5896	0.133301	-0.613525
1023.0	11.71937	-1.628581	5.46772	0.036203	-0.134623	0.812928	-0.587402	0.133301	-0.613525
1024.0	11.252778	-2.737182	6.891821	-0.005415	0.255316	0.764023	-0.587646	0.139893	-0.611328
1025.0	11.853999	-2.865495	5.928608	0.2232	0.212602	0.706264	-0.583252	0.144531	-0.618652
1026.0	12.78848	-1.269246	6.311164	0.185662	0.294843	0.681482	-0.583496	0.146729	-0.62085
1027.0	13.982032	-0.118494	5.54133	0.118227	0.252628	0.639969	-0.583496	0.148926	-0.621094
1028.0	15.151823	0.798961	3.696568	0.220198	0.2299	0.53042	-0.58374	0.155518	-0.621338
1029.0	14.096188	0.602084	3.865922	0.137821	0.370188	0.440741	-0.57251	0.15332	-0.621338
1030.0	11.817439	0.528442	4.095374	0.057148	0.305003	0.305472	-0.579346	0.157715	-0.623779
1031.0	12.043058	0.493135	3.976217	-0.057822	0.021318	0.126062	-0.579102	0.15332	-0.621094
1032.0	12.272284	1.006703	3.266551	-0.04614	0.170505	-0.014087	-0.57251	0.157715	-0.619141
1033.0	11.014812	1.391695	3.065745	-0.005259	0.426669	-0.159108	-0.57251	0.155518	-0.621338
1034.0	10.247037	1.458495	2.934342	-0.121467	0.403324	-0.277095	-0.574707	0.155518	-0.625977
1035.0	9.712256	1.357216	2.552408	-0.146706	0.401744	-0.355393	-0.572266	0.151123	-0.628174
1036.0	8.763259	1.611897	2.650724	-0.105079	0.497986	-0.362949	-0.568115	0.155518	-0.639893
1037.0	7.752185	1.600252	2.199173	-0.128991	0.506764	-0.361478	-0.567871	0.15332	-0.635254
1038.0	7.14312	1.789754	1.987278	-0.16974	0.370416	-0.387319	-0.563232	0.151123	-0.637451
1039.0	6.604374	1.649478	2.026665	-0.344025	0.360454	-0.379203	-0.567871	0.151123	-0.637451
1040.0	6.278427	1.179795	1.938171	-0.485285	0.310559	-0.401754	-0.568115	0.157715	-0.639893
1041.0	6.12499	1.220467	1.819545	-0.604143	0.203429	-0.442179	-0.563477	0.15332	-0.637451
1042.0	5.820606	0.617367	1.614711	-0.744823	0.134934	-0.45906	-0.565918	0.159912	-0.640137
1043.0	6.004394	0.489311	1.672654	-0.697489	0.007316	-0.484076	-0.570313	0.155518	-0.637451
1044.0	5.930783	0.742156	1.553602	-0.712317	-0.066107	-0.49312	-0.570313	0.157715	-0.639893
1045.0	6.018131	0.690849	1.593801	-0.733354	-0.102959	-0.464837	-0.574707	0.155518	-0.635254
1046.0	6.162114	0.50321	1.451219	-0.703582	-0.125567	-0.436442	-0.570557	0.159912	-0.633057
1047.0	6.395644	0.373983	1.323869	-0.619282	-0.087402	-0.382142	-0.568115	0.159912	-0.635498
1048.0	6.854472	0.462491	1.489548	-0.588493	-0.010499	-0.315195	-0.570557	0.162109	-0.626221
1049.0	6.836727	0.015821	1.246431	-0.682384	0.093431	-0.248	-0.577393	0.162109	-0.630859
1050.0	6.891081	-0.27598	1.021683	-0.620173	0.15488	-0.183073	-0.570801	0.166504	-0.626465
1051.0	6.876964	-0.412761	0.771768	-0.565604	0.15317	-0.109917	-0.570557	0.164307	-0.630859
1052.0	6.976841	-0.495969	0.730796	-0.515275	0.146262	-0.046174	-0.568848	0.17749	-0.62915
1053.0	7.048859	-0.47985	0.72413	-0.475807	0.183655	0.023085	-0.571045	0.175293	-0.635986
1054.0	7.225298	-0.365731	0.683713	-0.487252	0.125503	0.096275	-0.573486	0.181885	-0.631592
1055.0	7.213162	-0.470439	0.641943	-0.49253	0.095798	0.185241	-0.569092	0.179932	-0.633789
1056.0	7.191996	-0.345011	1.006783	-0.482639	0.085217	0.263103	-0.571533	0.186523	-0.634033
1057.0	7.016279	-0.317442	1.021868	-0.534252	0.051486	0.345915	-0.567383	0.193115	-0.63208
1058.0	7.046471	-0.286967	0.900518	-0.509143	0.056774	0.437977	-0.569824	0.199707	-0.632324
1059.0	7.222889	0.097947	1.098963	-0.410748	-0.003195	0.522085	-0.569824	0.201904	-0.627686
1060.0	8.238466	0.464009	2.215948	-0.281187	-0.050644	0.579689	-0.574707	0.208496	-0.632568
1061.0	10.770013	0.371229	2.290413	-0.319088	-0.294187	0.556634	-0.568115	0.212891	-0.623535
1062.0	11.01331	-0.065771	1.388679	0.025686	0.053995	0.537957	-0.568115	0.215088	-0.632813
1063.0	10.746293	-1.484725	0.128931	0.022642	-0.029745	0.405492	-0.570557	0.219482	-0.628418
1064.0	11.500975	-2.70082	-1.624019	0.237789	-0.289721	0.173196	-0.572754	0.215088	-0.625732
1065.0	12.222235	-2.409505	-1.591745	0.280631	-0.414959	-0.037014	-0.574951	0.217285	-0.635254
1066.0	12.783602	-1.720671	-2.101343	0.214028	-0.494041	-0.170563	-0.57959	0.217285	-0.628174
1067.0	13.504543	-0.030929	-2.367844	0.20354	-0.460154	-0.245463	-0.581543	0.210693	-0.625732
1068.0	14.13045	1.968001	-1.164472	0.050029	-0.46621	-0.286939	-0.581543	0.212891	-0.616455
1069.0	14.435565	4.138208	4.763287	0.242645	-0.370213	-0.365904	-0.585938	0.208252	-0.611572
1070.0	15.114815	3.98778	6.523969	0.158758	-0.354253	-0.513089	-0.583496	0.204102	-0.62085
1071.0	15.363009	1.530644	4.787033	0.117746	0.133031	-0.743852	-0.583252	0.199463	-0.623047
1072.0	11.845345	-0.39988	5.710363	0.466252	0.579737	-0.980044	-0.592041	0.190674	-0.629639
1073.0	9.32094	-0.599551	6.983349	0.232837	0.023705	-1.142475	-0.591797	0.184082	-0.622314
1074.0	8.935755	-2.604469	4.402407	-0.214253	-0.476574	-1.145935	-0.595703	0.173096	-0.626465
1075.0	9.401482	-0.950467	4.513215	0.066095	-0.684971	-1.151586	-0.600098	0.166504	-0.621582
1076.0	10.613676	0.916132	5.541921	-0.392151	-0.780777	-1.112975	-0.608887	0.164063	-0.612305
1077.0	11.398899	0.567265	5.738966	-0.508555	-0.259211	-1.111245	-0.608887	0.161865	-0.605225
1078.0	11.051712	1.156245	6.940396	-0.354622	0.276384	-1.15028	-0.61084	0.157471	-0.614502
1079.0	11.347789	1.238994	5.69567	-0.364673	0.157126	-1.185149	-0.610596	0.146484	-0.62085
1080.0	13.766415	1.476808	4.509752	-0.270328	-0.319775	-1.172635	-0.614746	0.14209	-0.62085
1081.0	15.983655	0.643408	4.04855	-0.282281	-0.477851	-1.067135	-0.619141	0.135498	-0.618164
1082.0	16.215665	0.555919	3.768185	-0.042526	-0.162386	-0.899033	-0.621094	0.128906	-0.613281
1083.0	14.504946	0.967948	3.780532	-0.015952	0.027858	-0.654469	-0.618652	0.126709	-0.615479
1084.0	13.397486	0.504614	3.959552	-0.090428	0.027248	-0.360646	-0.618652	0.124512	-0.61084
1085.0	13.193568	0.077672	3.37449	0.023288	0.016457	-0.126587	-0.614258	0.126709	-0.61792
1086.0	12.276031	-0.641531	3.255648	0.146471	0.34923	0.09797	-0.623047	0.122314	-0.624756
1087.0	10.744423	-1.075025	3.182384	0.363001	0.583914	0.294377	-0.614014	0.124512	-0.627197
1088.0	9.305596	-1.302713	2.706936	0.209464	0.498474	0.413213	-0.611816	0.124512	-0.627197
1089.0	7.997109	-2.541522	2.584447	0.217762	0.6043	0.498532	-0.612061	0.126709	-0.638672
1090.0	7.51403	-2.394527	2.185393	0.492307	0.525913	0.558091	-0.603027	0.128906	-0.634277
1091.0	6.902321	-2.42502	1.425498	0.660551	0.430264	0.611728	-0.605225	0.126709	-0.645752
1092.0	6.326255	-1.967604	1.162957	0.807196	0.13602	0.651302	-0.60083	0.131104	-0.645996
1093.0	6.295237	-1.515928	1.596937	0.767048	-0.21522	0.668861	-0.607422	0.126709	-0.648193
1094.0	6.69328	-1.273903	1.740018	0.838146	-0.329742	0.670203	-0.609863	0.131104	-0.643555
1095.0	7.07583	-0.721387	1.397799	0.993926	-0.332207	0.67965	-0.607422	0.124512	-0.641113
1096.0	7.016951	-0.149169	1.325999	0.987827	-0.305843	0.675896	-0.612061	0.126709	-0.647949
1097.0	6.653035	0.249391	1.340126	0.95282	-0.319341	0.66132	-0.607422	0.126709	-0.650391
1098.0	6.628346	0.317657	1.436349	0.831365	-0.379877	0.632781	-0.614258	0.126709	-0.641113
1099.0	6.670609	0.467348	1.431318	0.821228	-0.247584	0.581345	-0.612061	0.128906	-0.638916
1100.0	6.551002	0.91157	1.538573	0.761829	-0.114523	0.508904	-0.618652	0.124512	-0.643311
1101.0	6.524782	1.305142	1.317906	0.668248	-0.061045	0.423271	-0.616211	0.11792	-0.643066
1102.0	6.543994	1.43275	1.230321	0.565672	-0.016679	0.3224	-0.614014	0.120117	-0.645508
1103.0	6.90724	1.620583	1.010107	0.527507	-0.002778	0.208879	-0.616211	0.120117	-0.650146
1104.0	6.996469	1.690093	0.888448	0.416852	0.128173	0.123063	-0.618164	0.111328	-0.647461
1105.0	6.842016	1.483577	0.655035	0.307456	0.215896	0.034371	-0.618164	0.111328	-0.654541
1106.0	6.722046	1.32689	0.538669	0.237758	0.263933	-0.069767	-0.615967	0.115723	-0.649902
1107.0	6.862157	1.271999	0.442806	0.23362	0.273929	-0.178417	-0.611084	0.104736	-0.654297
1108.0	6.883183	1.049088	0.351416	0.177711	0.294864	-0.279289	-0.606934	0.111328	-0.663818
1109.0	6.822642	1.02872	0.730532	0.195814	0.338445	-0.368561	-0.613281	0.104736	-0.665771
1110.0	6.573565	0.829549	0.728086	0.158126	0.356022	-0.45237	-0.606201	0.095947	-0.663086
1111.0	7.184584	0.864226	1.077302	0.135207	0.205617	-0.515518	-0.606201	0.09375	-0.672363
1112.0	8.159874	0.9021	0.981237	0.144352	0.123148	-0.535231	-0.612793	0.089355	-0.665283
1113.0	9.25118	0.793598	1.107283	0.027185	-0.103001	-0.495343	-0.610107	0.082764	-0.665039
1114.0	10.717447	0.591216	1.396063	-0.021109	-0.381523	-0.44978	-0.612549	0.082764	-0.665039
1115.0	11.363541	0.028244	2.716069	-0.131959	-0.114392	-0.376533	-0.610107	0.082764	-0.671875
1116.0	10.988452	0.92304	2.007668	-0.025848	0.116246	-0.30352	-0.616699	0.075928	-0.674072
1117.0	10.908335	1.673283	0.178752	-0.476841	0.007413	-0.202429	-0.610107	0.078369	-0.68335
1118.0	11.575213	2.066834	-0.683914	-0.792498	-0.247524	-0.118039	-0.619141	0.08252	-0.671875
1119.0	12.418344	1.85653	-1.749214	-0.918296	-0.460802	-0.022319	-0.619385	0.087158	-0.669922
1120.0	13.273945	0.481816	-3.818176	-0.607362	-0.502724	0.081127	-0.621826	0.091309	-0.663086
1121.0	13.280529	-0.942757	-4.603478	0.001811	-0.291004	0.178621	-0.626221	0.086914	-0.672119
1122.0	13.392065	-2.044436	0.418543	0.199644	-0.267077	0.266083	-0.628662	0.091309	-0.669922
1123.0	14.895746	-3.802766	6.728864	-0.055538	-0.398105	0.40993	-0.630371	0.08252	-0.665039
1124.0	17.777972	-2.150073	3.04541	0.350712	-0.120133	0.597617	-0.628662	0.093506	-0.674805
1125.0	15.931359	0.844875	2.863467	0.636096	0.663177	0.871835	-0.630859	0.091309	-0.674561
1126.0	13.254109	2.609317	7.140813	0.215082	0.2489	1.122169	-0.626709	0.100342	-0.675049
1127.0	12.284812	3.150529	3.896727	0.041971	0.003983	1.197403	-0.626953	0.104736	-0.672852
1128.0	8.601448	3.944349	4.227139	-0.034442	0.347034	1.12007	-0.629395	0.113525	-0.677734
1129.0	7.468961	1.649282	3.27977	-0.36276	-0.195193	0.944805	-0.627197	0.113525	-0.682373
1130.0	8.982011	-0.354277	2.659492	-0.012667	-0.245258	0.735445	-0.627686	0.122314	-0.685059
1131.0	9.605989	-0.979537	4.709117	0.153713	-0.194133	0.569996	-0.63208	0.120117	-0.677979
1132.0	9.648063	-2.732685	6.265568	0.003549	0.011048	0.460461	-0.627441	0.120117	-0.685059
1133.0	10.73507	-2.829204	6.565088	0.291089	0.087759	0.376952	-0.634277	0.122314	-0.682617
1134.0	12.055745	-1.48404	6.0385	0.288151	0.190021	0.390226	-0.63208	0.122314	-0.682617
1135.0	13.66355	0.583416	5.066263	0.308206	0.214626	0.443968	-0.63208	0.120117	-0.691895
1136.0	15.056939	1.737769	4.182554	0.23468	0.188262	0.513	-0.632324	0.128906	-0.692139
1137.0	14.496189	1.709387	4.164228	0.150104	0.305028	0.517986	-0.627686	0.124512	-0.689697
1138.0	12.742709	1.13556	4.350325	0.07361	0.269102	0.477491	-0.62793	0.128906	-0.69458
1139.0	11.826007	0.560813	4.239894	-0.071685	0.102477	0.40819	-0.632324	0.126709	-0.696777
1140.0	11.586706	0.757627	3.85689	0.002117	0.106123	0.294172	-0.630127	0.131104	-0.699219
1141.0	10.906862	1.28951	3.779625	-0.144386	0.197058	0.125047	-0.630127	0.128906	-0.699219
1142.0	10.635276	0.766716	3.370756	-0.1772	0.234734	-0.045916	-0.623779	0.137695	-0.701904
1143.0	10.235876	1.192699	3.295228	-0.167549	0.431722	-0.210379	-0.625488	0.124512	-0.701416
1144.0	9.23577	1.293956	2.968859	-0.285183	0.473428	-0.323249	-0.621094	0.126709	-0.708496
1145.0	8.211962	1.417659	2.550679	-0.30233	0.461496	-0.382665	-0.625732	0.131104	-0.715576
1146.0	7.530923	1.656615	2.662527	-0.300994	0.506293	-0.432087	-0.623535	0.131104	-0.710938
1147.0	7.151286	1.717277	2.437184	-0.492904	0.380385	-0.479442	-0.62085	0.122314	-0.715332
1148.0	7.051306	1.422846	2.17584	-0.54539	0.260643	-0.49391	-0.618652	0.122314	-0.715332
1149.0	7.111053	1.500399	2.136586	-0.600527	0.148994	-0.512821	-0.620605	0.115723	-0.715088
1150.0	6.751692	1.416409	2.12146	-0.705575	0.126539	-0.521666	-0.62085	0.122314	-0.717529
1151.0	6.378425	1.245213	1.908787	-0.829238	0.015589	-0.53737	-0.623047	0.120117	-0.719727
1152.0	6.483403	0.83417	1.857942	-0.906273	-0.116042	-0.523808	-0.623047	0.122314	-0.715332
1153.0	6.850063	0.801455	1.743013	-0.847255	-0.149315	-0.532079	-0.625244	0.122314	-0.712891
1154.0	6.989763	0.789049	1.534681	-0.884798	-0.11223	-0.515131	-0.625488	0.122314	-0.715332
1155.0	7.089756	0.405541	1.347883	-0.886231	-0.08451	-0.458367	-0.629883	0.120117	-0.710449
1156.0	7.147582	-0.016114	1.165315	-0.825509	-0.040269	-0.384755	-0.632324	0.124512	-0.712891
1157.0	7.183719	-0.103701	1.241951	-0.71479	0.010335	-0.288351	-0.63208	0.122314	-0.708252
1158.0	7.127193	-0.4736	1.26687	-0.71197	0.05711	-0.185053	-0.636963	0.128906	-0.715576
1159.0	6.927252	-0.808849	1.203452	-0.690135	0.087363	-0.098907	-0.630127	0.126709	-0.710693
1160.0	6.847443	-0.862587	1.347992	-0.666509	0.108514	-0.009637	-0.632568	0.131104	-0.713135
1161.0	6.8485	-0.863722	1.260345	-0.690537	0.153769	0.069342	-0.632813	0.137695	-0.711182
1162.0	6.83361	-0.759381	1.089631	-0.66588	0.199883	0.145083	-0.632813	0.137695	-0.71582
1163.0	6.936361	-0.451753	0.852144	-0.645091	0.161869	0.216491	-0.632813	0.140137	-0.720459
1164.0	7.062732	-0.298185	0.598265	-0.61621	0.143219	0.294698	-0.628662	0.151123	-0.718506
1165.0	7.009293	-0.292661	0.421192	-0.590169	0.056966	0.36335	-0.631104	0.151123	-0.716309
1166.0	7.195924	-0.323213	0.554171	-0.534104	-0.012787	0.421298	-0.631348	0.157715	-0.714111
1167.0	7.436638	-0.221243	0.473447	-0.558137	-0.088531	0.457725	-0.633789	0.162109	-0.714355
1168.0	8.236009	-0.471486	0.235965	-0.589923	-0.235637	0.486444	-0.633789	0.166504	-0.716797
1169.0	8.228602	-0.22249	0.106189	-0.481663	-0.274115	0.503707	-0.63623	0.168701	-0.705322
1170.0	9.265445	0.161017	1.326959	-0.406553	-0.31499	0.495495	-0.636475	0.175293	-0.700928
1171.0	10.169976	0.198906	1.4685	-0.337896	-0.220435	0.467803	-0.641113	0.17749	-0.700928
1172.0	10.239922	0.529505	1.919844	-0.066921	0.099464	0.450372	-0.641357	0.181885	-0.703613
1173.0	10.196018	0.283405	1.009462	-0.114505	-0.122767	0.41433	-0.641357	0.184082	-0.708252
1174.0	10.738458	-0.709325	0.173581	0.080047	-0.118828	0.394094	-0.641357	0.181885	-0.703613
1175.0	11.030654	-0.703932	-0.516525	-0.089524	-0.237991	0.328658	-0.645752	0.184082	-0.698975
1176.0	11.740267	-1.33489	-0.946199	-0.346595	-0.42544	0.22651	-0.641602	0.188477	-0.701416
1177.0	12.435937	-0.760038	-1.378157	-0.266317	-0.479145	0.068913	-0.652832	0.186279	-0.696777
1178.0	12.766763	0.919388	-1.940582	-0.333189	-0.428974	-0.073509	-0.655273	0.190674	-0.696777
1179.0	12.982516	2.166026	-2.230414	-0.576216	-0.350697	-0.188091	-0.657227	0.186279	-0.696777
1180.0	13.307389	3.61593	0.597587	-0.510944	-0.30234	-0.318588	-0.657227	0.188477	-0.689697
1181.0	13.267201	4.688342	6.931828	-0.167108	-0.180135	-0.469692	-0.668213	0.181641	-0.691895
1182.0	13.544144	3.090522	5.105044	-0.044899	-0.208949	-0.625988	-0.661377	0.179443	-0.689453
1183.0	12.711064	-0.783435	4.439713	-0.059006	0.407847	-0.813011	-0.660889	0.16626	-0.696045
1184.0	9.786539	-4.209194	6.838971	0.521398	0.294534	-1.108943	-0.664795	0.153076	-0.690918
1185.0	10.006128	-5.503755	7.244787	0.396133	-0.728264	-1.398281	-0.666748	0.14209	-0.685791
1186.0	9.258479	-6.651809	2.529071	0.433563	-0.532673	-1.468079	-0.675049	0.124268	-0.682861
1187.0	7.192607	-2.252131	2.325059	0.84746	-0.82849	-1.434611	-0.678711	0.106689	-0.67041
1188.0	8.688379	0.815075	4.490333	0.165891	-1.343641	-1.318803	-0.685303	0.097656	-0.665527
1189.0	10.241352	1.257251	5.468003	0.012584	-0.884234	-1.234646	-0.693848	0.091064	-0.662842
1190.0	9.55986	2.822923	5.900721	0.024745	-0.147822	-1.161877	-0.697998	0.082275	-0.667236
1191.0	9.486207	4.348341	6.270672	-0.035524	-0.037952	-1.093285	-0.697754	0.075684	-0.662354
1192.0	10.689927	4.395255	5.310563	-0.102953	-0.289789	-1.030365	-0.690674	0.066895	-0.659668
1193.0	12.847886	2.953324	4.179499	-0.129035	-0.480543	-0.980868	-0.697266	0.060303	-0.657227
1194.0	14.57049	0.814591	4.79764	-0.06674	-0.355388	-0.939776	-0.708008	0.049072	-0.654297
1195.0	14.313289	-0.594458	4.420242	0.089501	-0.14936	-0.855221	-0.700928	0.038086	-0.654053
1196.0	13.059013	-0.513369	4.044594	0.164077	-0.154173	-0.733297	-0.707275	0.033691	-0.644531
1197.0	12.328792	-1.096736	4.682911	0.077095	-0.286875	-0.594871	-0.70459	0.022705	-0.648682
1198.0	13.048841	-1.39018	4.22951	0.357488	-0.413301	-0.441942	-0.707031	0.022705	-0.641846
1199.0	12.187307	-1.274259	4.241617	0.348872	-0.089846	-0.272552	-0.70459	0.018311	-0.64624
1200.0	10.615457	-1.574589	4.691034	0.338397	0.180709	-0.122234	-0.706787	0.016113	-0.63916
1201.0	9.781531	-1.722236	4.012776	0.332064	0.292061	0.004758	-0.704102	0.009521	-0.652832
1202.0	9.943381	-1.567438	3.182884	0.585672	0.273918	0.100587	-0.704102	0.009521	-0.645996
1203.0	9.986539	-1.279957	2.871099	0.733623	0.248431	0.161367	-0.701904	0.011719	-0.653076
1204.0	9.545458	-0.765328	2.737373	0.915353	0.202292	0.192875	-0.699463	0.005127	-0.648193
1205.0	9.061977	-0.374364	2.634158	0.948782	0.098487	0.206188	-0.701416	-0.001709	-0.650146
1206.0	8.845833	-0.253743	2.264902	1.00169	-0.072633	0.2095	-0.703613	-0.006104	-0.656982
1207.0	8.993867	-0.210805	1.917578	1.073988	-0.118377	0.206208	-0.698975	-0.008301	-0.649902
1208.0	9.130727	-0.239488	1.690019	1.138612	-0.194512	0.215356	-0.69873	-0.012695	-0.654541
1209.0	9.600336	0.064427	1.716376	1.286232	-0.230044	0.225914	-0.70752	-0.019287	-0.647217
1210.0	9.698253	0.431014	1.68181	1.325655	-0.147936	0.257284	-0.705322	-0.019287	-0.642578
1211.0	9.650734	0.483831	1.917222	1.353541	-0.017294	0.309134	-0.704834	-0.030273	-0.639893
1212.0	9.457673	0.523389	2.139166	1.391355	0.219834	0.348224	-0.70459	-0.036865	-0.646484
1213.0	8.848458	0.638814	2.185961	1.386912	0.382365	0.353794	-0.699951	-0.039063	-0.644287
1214.0	8.636151	0.741443	2.219681	1.392822	0.395048	0.339609	-0.695557	-0.036865	-0.644287
1215.0	8.509257	0.567777	2.195741	1.422712	0.476402	0.308383	-0.699463	-0.052246	-0.645996
1216.0	8.307589	0.429995	2.303914	1.464703	0.568026	0.255676	-0.697021	-0.054443	-0.648193
1217.0	8.009755	0.400308	2.067316	1.521437	0.594549	0.202938	-0.691895	-0.069824	-0.649902
1218.0	7.716845	0.264586	1.761201	1.586969	0.570254	0.151138	-0.691895	-0.069824	-0.65918
1219.0	7.579442	0.106718	1.534111	1.65421	0.532367	0.100845	-0.69165	-0.076416	-0.658936
1220.0	7.922745	-0.034905	1.558269	1.72964	0.479597	0.057611	-0.682129	-0.087402	-0.654053
1221.0	8.409239	-0.016342	1.398277	1.808571	0.463849	0.035191	-0.681885	-0.098633	-0.660645
1222.0	8.901858	0.029798	1.382792	1.86606	0.465609	0.033616	-0.678955	-0.114014	-0.662354
1223.0	9.244525	0.296266	1.239807	1.988899	0.496486	0.038727	-0.678467	-0.122803	-0.662109
1224.0	9.724677	0.48449	1.060648	2.063943	0.494734	0.065365	-0.676025	-0.129395	-0.652344
1225.0	10.011958	0.552671	1.187336	2.103253	0.539111	0.10859	-0.67334	-0.140381	-0.663574
1226.0	9.99876	0.429002	1.204983	2.113675	0.57165	0.165898	-0.670654	-0.151367	-0.65625
1227.0	9.948894	0.476464	0.930217	2.191796	0.581591	0.216766	-0.672363	-0.164551	-0.658203
1228.0	9.651347	0.480763	1.159705	2.277405	0.668032	0.272046	-0.66748	-0.17334	-0.653076
1229.0	9.677642	0.498862	1.170553	2.183495	0.586511	0.325767	-0.664795	-0.182373	-0.655029
1230.0	10.075635	0.224753	1.20448	2.141316	0.55589	0.363658	-0.660156	-0.188965	-0.650146
1231.0	10.277471	0.148873	1.444466	2.122777	0.555241	0.400161	-0.657227	-0.204346	-0.64502
1232.0	10.500714	-0.129815	1.919466	2.082035	0.562905	0.424965	-0.657227	-0.206543	-0.647217
1233.0	10.970873	-0.388455	1.803663	2.075108	0.590467	0.476856	-0.652344	-0.213135	-0.646973
1234.0	10.996589	-0.178824	1.692508	2.103528	0.721275	0.529163	-0.654297	-0.219727	-0.646729
1235.0	10.488092	-0.369609	1.501508	2.111625	0.745449	0.564608	-0.65625	-0.226318	-0.644287
1236.0	10.169811	-0.377891	1.163964	2.181005	0.690007	0.576947	-0.648926	-0.239502	-0.645996
1237.0	9.697536	-0.468796	0.848732	2.218255	0.634891	0.556963	-0.644531	-0.241699	-0.641357
1238.0	9.52378	-0.569044	0.396082	2.297752	0.555492	0.509012	-0.644043	-0.252686	-0.634033
1239.0	9.590982	-0.630137	0.043393	2.351196	0.514107	0.439337	-0.650391	-0.263916	-0.628906
1240.0	9.772848	-0.760995	-0.089662	2.414936	0.517602	0.362549	-0.650146	-0.268311	-0.628662
1241.0	9.951863	-1.045584	0.610306	2.45341	0.540606	0.277669	-0.640381	-0.285889	-0.623535
1242.0	10.464757	-0.879068	3.509582	2.495907	0.517474	0.206018	-0.642334	-0.29248	-0.614014
1243.0	11.621345	1.017942	3.419152	2.638606	0.489235	0.172564	-0.639404	-0.310059	-0.608643
1244.0	11.993122	1.632357	1.488194	2.527975	0.622458	0.259825	-0.636963	-0.31665	-0.608398
1245.0	11.71415	1.49221	3.351001	2.497276	0.585421	0.372459	-0.636475	-0.327881	-0.605713
1246.0	12.210733	2.602069	3.436311	2.252369	0.42311	0.499128	-0.633789	-0.334473	-0.589111
1247.0	11.97153	2.84646	1.728717	2.222983	0.580237	0.627927	-0.635742	-0.341064	-0.584229
1248.0	11.889011	4.03992	2.190987	2.32298	0.483924	0.709134	-0.644775	-0.341064	-0.577393
1249.0	12.19023	3.544353	1.866024	2.180826	0.514159	0.762142	-0.635498	-0.352051	-0.576904
1250.0	11.1078	3.035431	2.696528	2.336891	0.76199	0.757947	-0.632813	-0.36084	-0.572021
1251.0	10.301572	2.77081	3.636442	2.236475	0.700391	0.718124	-0.632568	-0.367676	-0.560059
1252.0	10.618395	2.554652	3.072125	2.159487	0.781446	0.671693	-0.636963	-0.367676	-0.560059
1253.0	10.848016	3.438142	3.357768	2.174027	0.799064	0.606186	-0.634521	-0.374268	-0.557373
1254.0	10.658438	3.931993	3.503612	2.074273	0.919213	0.540131	-0.636719	-0.374268	-0.550537
1255.0	9.976742	4.168118	3.899087	2.077214	1.041977	0.483528	-0.634277	-0.380859	-0.547852
1256.0	9.666875	3.983532	3.817253	1.957076	1.041894	0.446593	-0.631836	-0.385254	-0.540771
1257.0	9.561048	3.785801	3.709579	1.858422	1.072404	0.428938	-0.626953	-0.394043	-0.540527
1258.0	9.406972	3.405135	3.708837	1.775829	1.063195	0.428504	-0.624268	-0.402832	-0.547119
1259.0	9.280864	3.047122	3.491233	1.771958	1.074324	0.455499	-0.624268	-0.402832	-0.54248
1260.0	9.763565	2.996187	3.246477	1.728599	0.87613	0.506941	-0.624023	-0.407227	-0.530762
1261.0	10.032751	2.596158	3.279991	1.705332	0.893307	0.576362	-0.624023	-0.411621	-0.535156
1262.0	9.844786	2.22982	3.435205	1.71639	0.931443	0.637817	-0.621826	-0.409424	-0.540039
1263.0	9.514922	1.963762	3.384337	1.728803	0.942252	0.679631	-0.619141	-0.416016	-0.532715
1264.0	9.165281	1.575698	3.406742	1.708912	0.932738	0.71115	-0.619141	-0.416016	-0.525635
1265.0	8.914015	1.342544	3.267236	1.752622	0.931532	0.726711	-0.623779	-0.418213	-0.520996
1266.0	8.647707	1.454924	3.136165	1.828612	0.938195	0.725282	-0.623535	-0.422607	-0.525391
1267.0	8.317331	1.651758	3.188871	1.890754	0.924475	0.717445	-0.625732	-0.420654	-0.518555
1268.0	8.131645	1.871263	3.177149	1.943154	0.900519	0.714046	-0.623291	-0.425049	-0.518555
1269.0	7.932972	1.994514	2.962123	2.008654	0.924974	0.705363	-0.621094	-0.425049	-0.502197
1270.0	7.618571	2.098389	2.735177	2.077124	0.931564	0.686785	-0.625732	-0.425049	-0.502197
1271.0	7.431625	2.086147	2.803012	2.106211	0.863347	0.669796	-0.623047	-0.433838	-0.499512
1272.0	7.478244	1.904561	2.7272	2.120889	0.78071	0.669982	-0.627441	-0.436035	-0.49707
1273.0	7.396449	1.787067	2.729485	2.148858	0.731893	0.671976	-0.627441	-0.438232	-0.485352
1274.0	7.327533	1.834929	2.718056	2.176388	0.67618	0.690414	-0.626953	-0.447021	-0.480469
1275.0	7.43463	1.876339	2.511851	2.201967	0.611868	0.729	-0.624756	-0.444824	-0.471191
1276.0	7.797155	1.820927	2.606928	2.19625	0.553949	0.758515	-0.629395	-0.442627	-0.462158
1277.0	8.167824	1.585913	2.657424	2.222758	0.530512	0.790526	-0.631348	-0.447266	-0.450195
1278.0	8.499561	1.399792	2.521493	2.260392	0.537204	0.832904	-0.631348	-0.447266	-0.450195
1279.0	8.603255	1.258761	2.425673	2.310028	0.512679	0.877104	-0.635742	-0.45166	-0.436279
1280.0	8.657797	1.31774	2.413672	2.325377	0.489339	0.917711	-0.642822	-0.447266	-0.431641
1281.0	8.690348	1.214439	2.457655	2.344532	0.42573	0.96219	-0.64917	-0.45166	-0.415283
1282.0	8.772623	1.326172	2.725948	2.363826	0.388904	1.013631	-0.649414	-0.449463	-0.408447
1283.0	8.817946	1.541534	2.74678	2.404807	0.399595	1.053513	-0.651611	-0.449707	-0.396729
1284.0	8.770872	1.6124	2.747772	2.447052	0.395967	1.08904	-0.658447	-0.44751	-0.389893
1285.0	8.820578	1.599085	2.867582	2.474941	0.363876	1.110258	-0.667725	-0.443115	-0.373779
1286.0	9.005373	1.537038	2.909761	2.508003	0.360359	1.12534	-0.669678	-0.445313	-0.369141
1287.0	9.122028	1.663714	3.027217	2.547315	0.377674	1.138137	-0.679199	-0.436523	-0.355469
1288.0	9.19614	1.672314	2.990491	2.566256	0.37999	1.14448	-0.681396	-0.436523	-0.348389
1289.0	9.328955	1.65388	2.913463	2.597899	0.350764	1.137473	-0.688477	-0.427734	-0.334961
1290.0	9.472883	1.761932	2.997827	2.633424	0.330633	1.139735	-0.684082	-0.427734	-0.327881
1291.0	9.642258	1.653572	3.079631	2.659354	0.308087	1.142778	-0.688721	-0.418945	-0.318848
1292.0	9.536709	1.603027	2.984725	2.755763	0.330573	1.153758	-0.697754	-0.419189	-0.302734
1293.0	9.471469	1.663548	2.924903	2.794448	0.311808	1.167878	-0.700439	-0.412598	-0.289063
1294.0	9.443636	1.45889	2.903978	2.851473	0.264565	1.192383	-0.707275	-0.406006	-0.284668
1295.0	9.331235	1.50306	3.11137	2.927766	0.227149	1.209364	-0.712158	-0.399414	-0.268555
1296.0	9.216081	2.037538	3.524845	2.981406	0.221208	1.211628	-0.7146	-0.39502	-0.254883
1297.0	9.125767	2.267077	3.647959	2.944657	0.218602	1.198887	-0.723877	-0.388428	-0.24585
1298.0	9.002046	2.63388	3.471212	2.974167	0.231368	1.180652	-0.724121	-0.379639	-0.232178
1299.0	8.888851	3.10568	3.465435	2.934	0.239684	1.150492	-0.731201	-0.375244	-0.225342
1300.0	8.922192	3.24236	3.02285	2.898113	0.177473	1.106363	-0.733398	-0.371094	-0.20459
1301.0	9.013306	3.564162	2.784938	2.910934	0.159361	1.070803	-0.729248	-0.364258	-0.200195
1302.0	9.164811	3.562177	2.499739	2.910738	0.094877	1.050175	-0.743164	-0.353271	-0.200684
1303.0	9.732012	3.078517	2.896597	2.86421	0.027891	1.067031	-0.741211	-0.346924	-0.175293
1304.0	10.192168	2.56621	3.219973	2.884589	0.113016	1.130527	-0.750732	-0.33374	-0.168701
1305.0	10.275024	2.125911	2.917431	2.903048	0.187049	1.234744	-0.755615	-0.322754	-0.155273
1306.0	10.026797	1.708137	2.581087	2.946379	0.18168	1.336548	-0.758301	-0.311768	-0.151123
1307.0	9.564336	1.506356	2.618863	2.950421	0.166049	1.418482	-0.763184	-0.305176	-0.144287
1308.0	9.162389	1.390355	2.576667	2.960307	0.154963	1.460348	-0.765869	-0.294189	-0.135498
1309.0	8.938081	1.331149	2.514737	2.939212	0.159764	1.46775	-0.773193	-0.281006	-0.119629
1310.0	8.787632	1.448059	2.752369	2.901288	0.217936	1.4557	-0.773682	-0.27002	-0.115479
1311.0	8.663522	1.583627	2.7325	2.856308	0.247142	1.443287	-0.785645	-0.247803	-0.111572
1312.0	8.826191	1.982635	2.783349	2.830288	0.291997	1.426396	-0.783691	-0.241211	-0.10498
1313.0	8.859623	2.589379	3.047002	2.777179	0.387463	1.435856	-0.791016	-0.230225	-0.09375
1314.0	8.988786	3.098906	3.070869	2.666135	0.35058	1.448505	-0.791748	-0.212646	-0.087402
1315.0	9.295224	3.403138	2.95105	2.576391	0.323379	1.457628	-0.796387	-0.203857	-0.092285
1316.0	9.464969	3.808293	3.143015	2.453685	0.305094	1.448862	-0.799561	-0.186279	-0.08374
1317.0	9.624759	3.94912	3.143745	2.31135	0.254224	1.426825	-0.806641	-0.173096	-0.07959
1318.0	9.887964	4.046515	3.141287	2.216355	0.203859	1.384186	-0.807129	-0.164307	-0.079834
1319.0	9.975015	3.9462	2.895972	2.101465	0.171771	1.333115	-0.810059	-0.146729	-0.073486
1320.0	9.913513	3.795938	2.736695	2.017958	0.148493	1.279815	-0.810547	-0.135742	-0.069336
1321.0	9.696095	3.651789	2.754057	1.936538	0.098416	1.220407	-0.813232	-0.124512	-0.069824
1322.0	9.52071	3.385383	2.964752	1.812515	0.059231	1.15715	-0.820313	-0.115967	-0.067627
1323.0	9.549572	3.052479	3.098735	1.73436	0.051949	1.090279	-0.816406	-0.102539	-0.063477
1324.0	9.477696	2.880831	3.157038	1.675785	0.066159	1.030067	-0.816406	-0.098145	-0.059082
1325.0	9.303879	2.686093	3.610506	1.589648	-0.001057	0.956109	-0.817139	-0.084961	-0.05957
1326.0	9.626804	2.699113	4.071927	1.476255	-0.146111	0.878037	-0.821777	-0.080566	-0.057373
1327.0	10.677181	2.908169	3.928515	1.351045	-0.229547	0.798979	-0.817871	-0.065186	-0.055664
