Acquisition frequency: 100 Hz
PacketCounter	Acc_X	Acc_Y	Acc_Z	Gyr_X	Gyr_Y	Gyr_Z	Mag_X	Mag_Y	Mag_Z
0.0	6.580986	0.836462	7.274329	-0.067797	-0.042127	0.016259	-0.436768	0.073975	-0.105713
1.0	6.649886	0.877263	7.327284	-0.063277	-0.045529	0.017779	-0.441406	0.080322	-0.10791
2.0	6.62008	0.848053	7.297619	-0.063006	-0.03169	0.020216	-0.443604	0.078125	-0.105713
3.0	6.605364	0.859001	7.302443	-0.055174	-0.024217	0.016907	-0.439209	0.078125	-0.105713
4.0	6.608091	0.797767	7.261425	-0.049029	-0.019062	0.018649	-0.441162	0.071777	-0.109863
5.0	6.624732	0.861252	7.314702	-0.038685	-0.010117	0.017615	-0.445801	0.08252	-0.10791
6.0	6.599073	0.847603	7.267671	-0.040587	-0.006975	0.020366	-0.439209	0.078369	-0.112061
7.0	6.594053	0.774101	7.246731	-0.022724	-0.000241	0.017093	-0.441406	0.080322	-0.110107
8.0	6.632903	0.836466	7.275559	-0.022823	0.001457	0.01507	-0.446045	0.08252	-0.110107
9.0	6.633656	0.777848	7.235881	-0.01546	0.007163	0.01607	-0.441406	0.080322	-0.105713
10.0	6.642756	0.802089	7.289516	-0.004311	0.008652	0.013313	-0.443604	0.080322	-0.105713
11.0	6.60877	0.805914	7.282614	-3e-05	0.012813	0.014315	-0.443604	0.078125	-0.103516
12.0	6.607919	0.805275	7.283457	0.005505	0.01337	0.011048	-0.443604	0.078125	-0.10791
13.0	6.613403	0.818988	7.265184	0.011689	0.014384	0.009293	-0.441406	0.080322	-0.105713
14.0	6.593217	0.778058	7.323362	0.013573	0.01331	0.008292	-0.445801	0.078125	-0.109863
15.0	6.605165	0.80647	7.285823	0.024173	0.012636	0.006048	-0.439209	0.080322	-0.101318
16.0	6.614293	0.805707	7.319434	0.028002	0.012934	0.009578	-0.445801	0.078125	-0.105713
17.0	6.669683	0.827859	7.322317	0.033655	0.009712	0.006577	-0.44165	0.08252	-0.10791
18.0	6.629348	0.82095	7.334114	0.030572	0.008166	0.006574	-0.443604	0.080322	-0.105713
19.0	6.635716	0.80855	7.295212	0.037502	0.007931	0.008348	-0.441406	0.078125	-0.103516
20.0	6.662233	0.792152	7.322102	0.036322	0.003237	0.005592	-0.443604	0.078125	-0.103516
21.0	6.661564	0.822532	7.342044	0.033142	0.003391	0.003568	-0.441406	0.080322	-0.10791
22.0	6.657766	0.84056	7.289885	0.035009	0.004387	0.004319	-0.437012	0.078125	-0.103516
23.0	6.645142	0.787068	7.308169	0.026879	0.002002	0.001545	-0.441406	0.080322	-0.103516
24.0	6.673964	0.85646	7.303422	0.035712	-0.001385	0.000567	-0.441406	0.080322	-0.112061
25.0	6.674122	0.830882	7.283435	0.030892	0.00917	-0.00529	-0.443604	0.080322	-0.10791
26.0	6.626647	0.83913	7.334497	0.029559	0.012399	-0.004808	-0.439209	0.078125	-0.109863
27.0	6.648898	0.838932	7.309872	0.032547	0.015632	-0.00684	-0.434814	0.078125	-0.103516
28.0	6.64074	0.856303	7.349778	0.030586	0.016325	-0.00962	-0.445801	0.078125	-0.103516
29.0	6.646376	0.844636	7.311509	0.031234	0.016781	-0.008114	-0.443604	0.078125	-0.109863
30.0	6.65147	0.861086	7.293235	0.030568	0.018394	-0.007876	-0.443604	0.078125	-0.109863
31.0	6.633531	0.852472	7.280459	0.03348	0.021241	-0.013686	-0.441406	0.078125	-0.103516
32.0	6.652328	0.823593	7.327636	0.033576	0.019541	-0.011664	-0.445801	0.080322	-0.110107
33.0	6.663014	0.882064	7.310369	0.028472	0.024925	-0.009194	-0.443359	0.07373	-0.105713
34.0	6.631743	0.845742	7.336406	0.02398	0.026231	-0.012488	-0.443359	0.073975	-0.10791
35.0	6.653656	0.817327	7.292763	0.02522	0.024688	-0.014997	-0.445801	0.080322	-0.10791
36.0	6.627268	0.879485	7.359194	0.022042	0.024839	-0.017023	-0.443604	0.078125	-0.109863
37.0	6.632383	0.867712	7.321506	0.021417	0.022296	-0.020282	-0.443359	0.073975	-0.112061
38.0	6.630393	0.870793	7.322942	0.027563	0.027444	-0.018552	-0.436768	0.073975	-0.105713
39.0	6.651559	0.870809	7.299394	0.019394	0.029211	-0.01783	-0.441162	0.07373	-0.103516
40.0	6.642292	0.888269	7.340115	0.026992	0.027359	-0.016292	-0.441406	0.075928	-0.10791
41.0	6.623105	0.907703	7.347804	0.020614	0.029738	-0.018597	-0.443604	0.078125	-0.103516
42.0	6.621962	0.853835	7.309929	0.020041	0.02966	-0.016334	-0.443604	0.076172	-0.112061
43.0	6.58906	0.874161	7.375976	0.023699	0.031266	-0.018611	-0.441406	0.080322	-0.105713
44.0	6.623572	0.873274	7.294456	0.026783	0.032797	-0.018623	-0.443359	0.073975	-0.109863
45.0	6.597718	0.879402	7.321431	0.026258	0.028561	-0.01985	-0.447754	0.073975	-0.10791
46.0	6.588681	0.869193	7.342523	0.029773	0.036009	-0.020672	-0.443359	0.071777	-0.103516
47.0	6.625618	0.881412	7.333353	0.026666	0.036544	-0.018928	-0.437012	0.076172	-0.109863
48.0	6.59985	0.859463	7.340984	0.029014	0.039295	-0.022483	-0.443604	0.075928	-0.10791
49.0	6.632009	0.943946	7.31921	0.030997	0.036522	-0.021449	-0.438965	0.073975	-0.109863
50.0	6.60043	0.880398	7.326233	0.032191	0.039129	-0.020471	-0.443604	0.076172	-0.112061
51.0	6.609674	0.939754	7.309857	0.037807	0.040043	-0.019967	-0.438965	0.06958	-0.107666
52.0	6.594124	0.888321	7.330955	0.036469	0.043261	-0.019511	-0.441162	0.071777	-0.112061
53.0	6.606173	0.932473	7.367179	0.039524	0.046865	-0.017786	-0.438965	0.06958	-0.109863
54.0	6.609935	0.922043	7.330846	0.042026	0.043763	-0.022794	-0.443359	0.071777	-0.109863
55.0	6.605741	0.954552	7.353116	0.039037	0.045093	-0.013502	-0.43457	0.071777	-0.112061
56.0	6.573834	0.891009	7.36054	0.034036	0.042148	-0.018032	-0.443359	0.071777	-0.114258
57.0	6.582221	0.978472	7.3638	0.038611	0.039166	-0.012691	-0.443359	0.073975	-0.109863
58.0	6.5897	0.951752	7.379457	0.029885	0.038782	-0.011468	-0.438721	0.067383	-0.109863
59.0	6.597333	0.92453	7.395062	0.026254	0.035094	-0.010937	-0.441162	0.071777	-0.105713
60.0	6.573812	0.987141	7.370152	0.024484	0.032409	-0.009653	-0.438965	0.06958	-0.109863
61.0	6.581909	0.959353	7.385423	0.02213	0.029661	-0.0061	-0.439209	0.075928	-0.101318
62.0	6.556842	0.935874	7.39257	0.016429	0.030413	-0.00866	-0.441162	0.06958	-0.112061
63.0	6.548079	0.924164	7.413512	0.015913	0.026183	-0.009869	-0.438965	0.071777	-0.116455
64.0	6.58288	0.950094	7.351578	0.018445	0.025568	-0.009347	-0.445557	0.069824	-0.118652
65.0	6.574397	0.938497	7.372264	0.014088	0.023096	-0.012362	-0.443359	0.071777	-0.105713
66.0	6.565078	0.955276	7.412544	0.015948	0.024094	-0.011613	-0.438721	0.063232	-0.114258
67.0	6.570751	0.942319	7.375027	0.014761	0.021478	-0.012592	-0.445313	0.067383	-0.114258
68.0	6.598508	0.98327	7.35161	0.017328	0.018783	-0.013804	-0.438965	0.073975	-0.116455
69.0	6.574315	0.959897	7.357967	0.012387	0.016247	-0.014551	-0.438721	0.067383	-0.112061
70.0	6.555954	0.978387	7.36458	0.018088	0.015492	-0.011991	-0.436768	0.073975	-0.109863
71.0	6.587815	0.975736	7.373724	0.012352	0.018324	-0.01282	-0.441162	0.06958	-0.112061
72.0	6.563768	0.952084	7.379989	0.013785	0.013424	-0.011228	-0.438965	0.071777	-0.114258
73.0	6.568256	0.995728	7.381181	0.011167	0.015707	-0.013799	-0.436768	0.071777	-0.109863
74.0	6.560471	0.983763	7.401269	0.008809	0.012968	-0.01024	-0.441162	0.071777	-0.112061
75.0	6.590617	0.967235	7.338264	0.010032	0.013499	-0.010999	-0.443604	0.078125	-0.112061
76.0	6.558221	0.986589	7.402887	0.009359	0.01511	-0.010776	-0.43457	0.071777	-0.114258
77.0	6.58174	0.956588	7.359172	0.007538	0.012025	-0.013262	-0.438721	0.06543	-0.109863
78.0	6.579769	0.986284	7.379503	0.008223	0.012903	-0.007975	-0.438721	0.067627	-0.114258
79.0	6.545543	0.991897	7.37203	0.002561	0.01157	-0.012275	-0.441162	0.06958	-0.114258
80.0	6.588347	0.958605	7.394463	0.010157	0.00974	-0.010692	-0.438477	0.061035	-0.118652
81.0	6.543757	0.994242	7.373299	0.001975	0.011507	-0.010008	-0.436768	0.069824	-0.116455
82.0	6.553362	0.965136	7.387538	0.002013	0.009424	-0.011742	-0.438721	0.063232	-0.114258
83.0	6.581881	1.004919	7.363578	0.003284	0.010365	-0.008722	-0.438965	0.06958	-0.112061
84.0	6.55833	0.980258	7.369539	0.001426	0.009362	-0.009475	-0.436768	0.06958	-0.114258
85.0	6.581285	0.97805	7.345202	0.000156	0.00842	-0.012496	-0.436768	0.06958	-0.105713
86.0	6.556813	0.981842	7.370677	0.000791	0.00889	-0.010986	-0.438721	0.067627	-0.116455
87.0	6.555992	0.982588	7.371308	0.000117	0.010501	-0.010763	-0.441406	0.076172	-0.112061
88.0	6.555229	0.983367	7.371883	0.001465	0.007278	-0.01121	-0.438721	0.06543	-0.114258
89.0	6.570712	0.996095	7.386252	0.000243	0.006746	-0.010452	-0.438965	0.073975	-0.109863
90.0	6.570109	0.9968	7.386693	0.000243	0.006746	-0.010452	-0.441162	0.071777	-0.116455
91.0	6.537243	0.973409	7.359371	-0.004186	0.008432	-0.010001	-0.432617	0.073975	-0.114258
92.0	6.552626	0.98586	7.373864	-0.000431	0.008356	-0.01023	-0.436523	0.067383	-0.112061
93.0	6.574622	1.011953	7.369097	-0.000431	0.008355	-0.010231	-0.438965	0.06958	-0.112061
94.0	6.584456	0.982357	7.383236	-0.006632	0.007367	-0.008486	-0.43457	0.069824	-0.118652
95.0	6.567656	0.970646	7.369906	-0.002329	0.009433	-0.00925	-0.436768	0.067627	-0.114258
96.0	6.573648	0.984772	7.351141	0.000285	0.004662	-0.012188	-0.440918	0.06543	-0.114258
97.0	6.582428	0.983812	7.384849	-0.00237	0.011514	-0.007517	-0.438965	0.073975	-0.109863
98.0	6.555042	1.001962	7.35801	-0.005997	0.007836	-0.006977	-0.436768	0.069824	-0.116455
99.0	6.564913	0.972174	7.372148	-0.002243	0.007761	-0.007205	-0.440918	0.06543	-0.116455
100.0	6.570899	0.98601	7.353433	-0.002876	0.007289	-0.008717	-0.434326	0.06543	-0.112061
101.0	6.563647	0.972696	7.373206	-0.005997	0.007835	-0.006979	-0.436768	0.06958	-0.112061
102.0	6.562991	0.972686	7.373791	-0.005363	0.008306	-0.005468	-0.443359	0.06958	-0.109863
103.0	6.551953	1.002887	7.360635	-0.002159	0.003596	-0.010674	-0.43457	0.06958	-0.112061
104.0	6.584637	0.998764	7.369356	-0.004774	0.008365	-0.007737	-0.438477	0.061035	-0.109863
105.0	6.550683	1.003262	7.361715	-0.006039	0.009914	-0.005246	-0.441162	0.06958	-0.112061
106.0	6.569928	0.97183	7.40911	-0.005407	0.007893	-0.00925	-0.441162	0.073975	-0.109863
107.0	6.58359	0.970699	7.351616	-0.002242	0.007759	-0.007207	-0.438965	0.071777	-0.109863
108.0	6.565766	0.987342	7.357837	-0.004141	0.008836	-0.006227	-0.438721	0.067627	-0.116455
109.0	6.550766	0.98881	7.416465	-0.00663	0.007359	-0.008494	-0.440918	0.067627	-0.114258
110.0	6.597691	0.983064	7.367272	-0.002832	0.007697	-0.004938	-0.438721	0.06543	-0.114258
111.0	6.546624	1.004229	7.365193	-0.002328	0.009428	-0.009255	-0.440918	0.067627	-0.114258
112.0	6.586863	0.985311	7.33525	-0.003507	0.006813	-0.010232	-0.441162	0.06958	-0.116455
113.0	6.545327	1.004941	7.366248	-0.003465	0.007224	-0.006451	-0.438721	0.06543	-0.114258
114.0	6.580101	0.94397	7.335907	-0.004816	0.00795	-0.011523	-0.438721	0.065186	-0.105469
115.0	6.554493	0.975626	7.380958	-0.003551	0.008893	-0.008499	-0.436768	0.06958	-0.114258
116.0	6.551023	0.991045	7.329111	-0.003507	0.006812	-0.010234	-0.440918	0.067627	-0.114258
117.0	6.593	0.98559	7.371134	-0.000428	0.008349	-0.010236	-0.438721	0.06543	-0.109863
118.0	6.568623	0.988806	7.396466	-0.011604	0.004399	-0.013033	-0.443359	0.071777	-0.114258
119.0	6.568327	0.98914	7.396684	-0.0008	0.000375	-0.011124	-0.441162	0.06958	-0.109863
120.0	6.558697	0.99086	7.363666	-0.012109	0.002667	-0.008717	-0.436768	0.06958	-0.109863
121.0	6.591721	0.986247	7.37219	-0.009533	-1.8e-05	-0.009919	-0.438721	0.067627	-0.118652
122.0	6.550774	1.005277	7.402699	-0.011893	-0.002755	-0.006358	-0.438965	0.069824	-0.116455
123.0	6.569351	0.959961	7.377272	-0.014926	-0.006376	-0.008093	-0.438721	0.06543	-0.114258
124.0	6.568887	0.987768	7.39637	-0.014664	-0.013878	-0.00747	-0.443359	0.071777	-0.109863
125.0	6.592443	1.012694	7.390412	-0.015973	-0.012743	-0.008761	-0.438721	0.067383	-0.109863
126.0	6.578255	0.971612	7.356269	-0.016062	-0.008583	-0.005291	-0.441162	0.06958	-0.112061
127.0	6.58559	0.984352	7.336521	-0.016563	-0.012808	-0.006494	-0.436768	0.06958	-0.109863
128.0	6.578776	0.998243	7.374659	-0.019008	-0.013878	-0.004982	-0.438965	0.06958	-0.114258
129.0	6.57411	0.955289	7.373638	-0.017284	-0.009121	-0.004536	-0.43457	0.06958	-0.109863
130.0	6.580272	0.996301	7.373587	-0.017239	-0.011203	-0.006274	-0.434814	0.073975	-0.109863
131.0	6.591014	0.924016	7.294858	-0.016649	-0.011141	-0.008545	-0.438721	0.06543	-0.112061
132.0	6.582741	0.966907	7.352875	-0.008683	-0.007461	-0.011573	-0.443359	0.071777	-0.112061
133.0	6.557458	0.956576	7.305533	-0.008227	-0.001157	-0.008631	-0.438965	0.071777	-0.112061
134.0	6.582949	0.96701	7.352676	-0.007637	-0.001095	-0.010902	-0.436768	0.06958	-0.109863
135.0	6.580016	0.982655	7.300308	-0.002071	-0.000563	-0.014154	-0.438965	0.071777	-0.107666
136.0	6.588095	1.010072	7.353262	-0.002161	0.003598	-0.010678	-0.441162	0.06958	-0.109863
137.0	6.571706	0.998569	7.339534	-0.003383	0.003062	-0.009922	-0.441162	0.071777	-0.105713
138.0	6.581875	0.968953	7.353382	-0.004739	0.006278	-0.009473	-0.436768	0.067627	-0.116455
139.0	6.570726	0.999232	7.340321	-0.001574	0.00615	-0.007427	-0.436768	0.073975	-0.105713
140.0	6.587255	0.983237	7.335175	-0.001708	0.009901	-0.007736	-0.436523	0.067383	-0.112061
141.0	6.579844	0.969964	7.355065	-0.00424	0.010501	-0.008269	-0.438965	0.06958	-0.109863
142.0	6.625414	0.993197	7.325666	0.002047	0.009836	-0.00796	-0.438965	0.06958	-0.112061
143.0	6.577011	0.999487	7.376065	0.003901	0.010843	-0.007203	-0.43457	0.071777	-0.107666
144.0	6.577313	0.971604	7.357112	-0.003608	0.010971	-0.006757	-0.43457	0.067627	-0.116455
145.0	6.599095	0.997483	7.352615	-0.002339	0.009426	-0.009252	-0.438721	0.067383	-0.105469
146.0	6.598303	0.997772	7.353286	-0.001666	0.010308	-0.003954	-0.441162	0.06958	-0.112061
147.0	6.574941	0.972319	7.359138	-0.004151	0.008826	-0.006226	-0.443115	0.065186	-0.107666
148.0	6.596804	0.998042	7.354594	-0.002298	0.009834	-0.005468	-0.443115	0.065186	-0.109863
149.0	6.595992	0.998132	7.35531	-0.004198	0.010906	-0.004489	-0.438965	0.073975	-0.114258
150.0	6.595073	0.998183	7.356127	-0.004285	0.012576	-0.006536	-0.438965	0.06958	-0.109863
151.0	6.595371	0.969791	7.33727	-0.004789	0.010842	-0.002219	-0.440918	0.067383	-0.107666
152.0	6.57725	0.985955	7.343784	-0.003614	0.013457	-0.001238	-0.436768	0.06958	-0.114258
153.0	6.582941	0.999497	7.325427	-0.001035	0.010778	-0.002441	-0.436523	0.06543	-0.109863
154.0	6.574246	1.014131	7.365088	-0.004837	0.01292	-0.000483	-0.436523	0.06543	-0.112061
155.0	6.575728	0.957144	7.326619	-0.005467	0.012447	-0.001998	-0.438965	0.071777	-0.114258
156.0	6.589453	0.997114	7.361307	-0.006194	0.016133	-3.7e-05	-0.440918	0.067383	-0.112061
157.0	6.589693	0.968372	7.342558	-0.006011	0.010303	-0.001466	-0.443359	0.06958	-0.112061
158.0	6.571578	0.984292	7.349083	-0.006738	0.013988	0.000494	-0.438965	0.071777	-0.112061
159.0	6.603709	0.979361	7.358485	-0.007416	0.015594	0.000717	-0.438965	0.071777	-0.107666
160.0	6.569498	0.983279	7.351078	-0.003527	0.011782	0.000806	-0.438721	0.067383	-0.109863
161.0	6.56859	0.982816	7.351951	-0.00859	0.012978	-0.000267	-0.438965	0.06958	-0.112061
162.0	6.607387	0.991347	7.34218	-0.008009	0.015528	0.002985	-0.440918	0.063232	-0.112061
163.0	6.575944	0.979702	7.387137	-0.007874	0.011779	0.003293	-0.441162	0.073975	-0.114258
164.0	6.572339	0.994303	7.335647	-0.006058	0.012378	0.000268	-0.438965	0.06958	-0.112061
165.0	6.575478	0.950236	7.369109	-0.006603	0.010236	0.000799	-0.438965	0.071777	-0.109863
166.0	6.613101	0.987295	7.378972	-0.001771	0.016943	0.005041	-0.440918	0.06543	-0.114258
167.0	6.580013	0.962945	7.351946	-0.006142	0.014047	-0.001781	-0.43457	0.071777	-0.112061
168.0	6.561699	0.978858	7.358629	-0.003624	0.015933	0.004279	-0.441162	0.06958	-0.112061
169.0	6.587249	0.960389	7.387145	-0.006687	0.011904	-0.00125	-0.441162	0.06958	-0.112061
170.0	6.592958	0.973605	7.368882	-0.004205	0.013383	0.001025	-0.436768	0.071777	-0.112061
171.0	6.57478	0.989511	7.375439	-0.005428	0.012846	0.001779	-0.441162	0.071777	-0.114258
172.0	6.58837	0.987792	7.318389	-0.00733	0.013915	0.002755	-0.438721	0.067383	-0.112061
173.0	6.555681	1.004513	7.382933	-0.008504	0.011301	0.001771	-0.441162	0.071777	-0.116455
174.0	6.573318	0.958868	7.358465	-0.010371	0.012776	0.006531	-0.443359	0.06958	-0.112061
175.0	6.58858	0.970007	7.373271	-0.004616	0.007491	0.001865	-0.443359	0.071777	-0.112061
176.0	6.57194	0.957171	7.359917	-0.012224	0.011768	0.005768	-0.439209	0.076172	-0.112061
177.0	6.588445	0.939795	7.355051	-0.009677	0.008687	0.000785	-0.441162	0.06958	-0.109863
178.0	6.570519	0.955327	7.361425	-0.009726	0.010762	0.002522	-0.436523	0.067383	-0.112061
179.0	6.580345	0.92457	7.37567	-0.007824	0.009693	0.001546	-0.438721	0.06543	-0.114258
180.0	6.562404	0.940341	7.382021	-0.007229	0.009758	-0.000723	-0.438965	0.06958	-0.112061
181.0	6.551096	0.969904	7.369254	-0.006005	0.010294	-0.001477	-0.438965	0.073975	-0.109863
182.0	6.567678	0.953297	7.364222	-0.005277	0.006613	-0.003437	-0.440918	0.067383	-0.109863
183.0	6.567076	0.953026	7.364795	-0.008485	0.008815	-0.003756	-0.436768	0.071777	-0.112061
184.0	6.599556	0.948468	7.373896	-0.003507	0.00929	-0.004721	-0.441162	0.06958	-0.114258
185.0	6.581592	0.964725	7.380201	-0.007261	0.009351	-0.00451	-0.443359	0.06958	-0.107666
186.0	6.571652	0.966367	7.347583	-0.003456	0.007214	-0.00646	-0.438965	0.069824	-0.116455
187.0	6.579118	0.992807	7.401025	-0.010883	0.005664	-0.00399	-0.441162	0.071777	-0.114258
188.0	6.568171	1.021891	7.388014	-0.018309	0.004114	-0.001522	-0.438721	0.067383	-0.109863
189.0	6.572043	0.97652	7.420848	-0.031158	-0.004207	-0.001037	-0.441162	0.071777	-0.107666
190.0	6.56438	0.948033	7.367842	-0.024904	-0.00527	-0.004493	-0.436768	0.073975	-0.109863
191.0	6.604626	0.95546	7.357078	-0.026692	-0.005473	0.002311	-0.438965	0.073975	-0.112061
192.0	6.573124	0.92939	7.328786	-0.029222	-0.004879	0.001767	-0.439209	0.076172	-0.112061
193.0	6.554966	0.972251	7.354125	-0.021149	-0.005333	-0.004709	-0.438965	0.06958	-0.112061
194.0	6.592524	0.922633	7.394872	-0.02411	-0.008151	0.001107	-0.438721	0.067383	-0.109863
195.0	6.599862	0.934605	7.375392	-0.023463	-0.010158	-0.002903	-0.441162	0.06958	-0.109863
196.0	6.569252	1.063689	7.426394	-0.031895	-0.017676	0.002661	-0.443359	0.073975	-0.114258
197.0	6.572062	0.918382	7.417449	-0.045882	-0.028224	0.005925	-0.434814	0.073975	-0.107666
198.0	6.599733	0.997646	7.359353	-0.042588	-0.032106	0.008279	-0.443359	0.073975	-0.114258
199.0	6.582055	0.911722	7.322987	-0.045712	-0.031589	0.009999	-0.434814	0.073975	-0.107666
200.0	6.622944	0.945154	7.330593	-0.047066	-0.02839	0.010442	-0.434814	0.073975	-0.114258
201.0	6.616755	0.91521	7.276278	-0.032318	-0.021124	0.008994	-0.441406	0.078125	-0.112061
202.0	6.604835	0.884907	7.313532	-0.030053	-0.014226	0.008934	-0.438965	0.071777	-0.107666
203.0	6.612357	0.896244	7.29396	-0.02091	-0.007906	0.006937	-0.438965	0.073975	-0.107666
204.0	6.606089	0.880713	7.312907	-0.018052	-0.000932	0.004613	-0.438965	0.06958	-0.109863
205.0	6.590069	0.867756	7.298942	-0.010751	0.001917	-0.003677	-0.43457	0.071777	-0.109863
206.0	6.587389	0.923596	7.338987	-0.007639	0.003859	0.000124	-0.445557	0.073975	-0.114258
207.0	6.628075	0.904219	7.308807	-0.005871	0.006545	-0.00115	-0.441162	0.071777	-0.105713
208.0	6.596987	0.892709	7.35326	-0.008486	0.008818	-0.003732	-0.441162	0.073975	-0.109863
209.0	6.60959	0.920212	7.31576	0.003403	0.00912	-0.002844	-0.438965	0.073975	-0.114258
210.0	6.602176	0.906688	7.335482	-0.004187	0.010907	-0.004466	-0.445557	0.071777	-0.112061
211.0	6.578708	0.881211	7.341143	-0.000434	0.010852	-0.004676	-0.441406	0.076172	-0.112061
212.0	6.616384	0.918979	7.351158	0.00074	0.013464	-0.003683	-0.43457	0.06958	-0.105469
213.0	6.598231	0.935732	7.357696	0.00332	0.010796	-0.004886	-0.443604	0.075928	-0.10791
214.0	6.581258	0.924231	7.344406	0.000691	0.015534	-0.001939	-0.437012	0.076172	-0.112061
215.0	6.613051	0.920221	7.354002	0.00608	0.021912	-0.00372	-0.438965	0.073975	-0.107666
216.0	6.602052	0.922625	7.32226	0.00102	0.023101	-0.004805	-0.436768	0.071777	-0.112061
217.0	6.593631	0.909371	7.342832	0.006031	0.023979	-0.001979	-0.436768	0.071777	-0.105713
218.0	6.574412	0.926332	7.350271	0.005815	0.029401	-0.004321	-0.438965	0.071777	-0.112061
219.0	6.62384	0.878299	7.335007	0.009486	0.03102	-0.006573	-0.436768	0.071777	-0.109863
220.0	6.609569	0.937959	7.343577	0.014382	0.033179	-0.009575	-0.441162	0.071777	-0.112061
221.0	6.590999	0.9276	7.331583	0.012429	0.036308	-0.006861	-0.438965	0.073975	-0.112061
222.0	6.574934	0.90149	7.371917	0.009952	0.034828	-0.009151	-0.445801	0.078369	-0.116455
223.0	6.5882	0.914815	7.388289	0.01055	0.034896	-0.011423	-0.441162	0.073975	-0.112061
224.0	6.592292	0.930299	7.371351	0.018139	0.033108	-0.009791	-0.438965	0.071777	-0.114258
225.0	6.591244	0.903801	7.353408	0.010139	0.029001	-0.010603	-0.441162	0.07373	-0.103516
226.0	6.571782	0.921632	7.360868	0.012669	0.028403	-0.01006	-0.438965	0.06958	-0.114258
227.0	6.585573	0.935047	7.376754	0.008968	0.026384	-0.011601	-0.438965	0.073975	-0.107666
228.0	6.576893	0.922742	7.397372	0.007798	0.023772	-0.012595	-0.43457	0.071777	-0.116455
229.0	6.581787	0.938017	7.379756	0.012857	0.022582	-0.011503	-0.443359	0.073975	-0.116455
230.0	6.580055	0.939562	7.381104	0.006628	0.021157	-0.013591	-0.438965	0.06958	-0.109863
231.0	6.562606	0.928994	7.368126	0.007387	0.017881	-0.011769	-0.43457	0.067383	-0.107666
232.0	6.594291	0.92578	7.377851	0.002329	0.019066	-0.012866	-0.436768	0.071777	-0.112061
233.0	6.566368	0.94514	7.351417	0.007988	0.017949	-0.014039	-0.441162	0.06958	-0.107666
234.0	6.582307	0.93012	7.346821	0.006242	0.015666	-0.008977	-0.443359	0.071777	-0.114258
235.0	6.583456	0.915716	7.400101	0.003689	0.015859	-0.013313	-0.438721	0.06543	-0.109863
236.0	6.578384	0.960599	7.368609	0.004994	0.014726	-0.012017	-0.436768	0.071777	-0.112061
237.0	6.570588	0.947745	7.388487	-0.00238	0.011088	-0.011311	-0.438965	0.071777	-0.109863
238.0	6.602762	0.944217	7.397844	0.004449	0.012584	-0.01149	-0.440918	0.067627	-0.116455
239.0	6.551378	0.965567	7.395611	-0.001053	0.010355	-0.006227	-0.437012	0.076172	-0.109863
240.0	6.562549	0.907642	7.389897	-0.004829	0.010007	-0.009815	-0.436523	0.06543	-0.116455
241.0	6.582916	0.961821	7.405564	-0.003525	0.008875	-0.008517	-0.439209	0.076172	-0.112061
242.0	6.541491	0.93987	7.34439	-0.007144	0.005186	-0.008012	-0.436768	0.071777	-0.114258
243.0	6.583306	0.933745	7.386653	-0.007143	0.005185	-0.008012	-0.436768	0.06958	-0.114258
244.0	6.580515	0.948971	7.334769	-0.013348	0.004156	-0.006317	-0.438721	0.067627	-0.116455
245.0	6.582471	0.933002	7.387491	-0.010274	0.005705	-0.006295	-0.438965	0.073975	-0.114258
246.0	6.555778	0.950636	7.360155	-0.013835	-5.5e-05	-0.007531	-0.438721	0.067383	-0.112061
247.0	6.571544	0.962147	7.374508	-0.013233	1.4e-05	-0.0098	-0.443359	0.073975	-0.109863
248.0	6.563371	0.976084	7.413435	-0.015604	-0.002738	-0.006257	-0.439209	0.076172	-0.12085
249.0	6.592855	0.900675	7.401351	-0.018735	-0.002219	-0.00454	-0.436768	0.06958	-0.112061
250.0	6.579841	0.985988	7.427381	-0.019628	-0.012313	-0.004924	-0.438965	0.071777	-0.109863
251.0	6.599772	0.93999	7.401049	-0.027464	-0.01977	-0.001652	-0.438721	0.067383	-0.112061
252.0	6.568248	0.942405	7.391251	-0.026022	-0.024646	-5.3e-05	-0.443359	0.073975	-0.112061
253.0	6.602392	0.923522	7.326194	-0.025261	-0.027922	0.001767	-0.441406	0.076172	-0.109863
254.0	6.580067	0.924073	7.349589	-0.024367	-0.017831	0.002154	-0.441162	0.073975	-0.114258
255.0	6.581382	0.922505	7.348609	-0.020035	-0.018205	-0.004104	-0.436768	0.073975	-0.107666
256.0	6.591709	0.919078	7.380996	-0.020101	-0.013277	0.006959	-0.437012	0.076172	-0.114258
257.0	6.607606	0.957332	7.414053	-0.024115	-0.025719	-0.001039	-0.438965	0.073975	-0.107666
258.0	6.577918	0.931428	7.384039	-0.028306	-0.029097	0.005514	-0.441162	0.073975	-0.107666
259.0	6.594949	0.928176	7.324458	-0.033283	-0.029597	0.006456	-0.443115	0.067383	-0.112061
260.0	6.597291	0.925233	7.322721	-0.035674	-0.032758	0.006201	-0.441162	0.06958	-0.114258
261.0	6.61833	0.878158	7.295278	-0.029554	-0.030049	0.002457	-0.439209	0.075928	-0.10791
262.0	6.587192	0.879845	7.285258	-0.035321	-0.024814	0.007118	-0.440918	0.067383	-0.112061
263.0	6.620723	0.901149	7.312424	-0.02485	-0.022071	0.000908	-0.441406	0.078125	-0.103516
264.0	6.592848	0.973666	7.323862	-0.025042	-0.016261	0.002357	-0.441406	0.075928	-0.105713
265.0	6.633911	0.906974	7.415867	-0.036733	-0.019559	0.009307	-0.441406	0.076172	-0.109863
266.0	6.622635	0.989485	7.441232	-0.047442	-0.034412	0.011077	-0.436768	0.073975	-0.109863
267.0	6.662843	0.896003	7.387673	-0.052763	-0.040036	0.020405	-0.441406	0.080322	-0.110107
268.0	6.6556	0.920558	7.372125	-0.057516	-0.045977	0.02367	-0.438965	0.069824	-0.116455
269.0	6.614967	0.949384	7.348407	-0.057327	-0.034672	0.02052	-0.443604	0.080322	-0.112061
270.0	6.628264	0.759652	7.278463	-0.059918	-0.034867	0.012385	-0.447998	0.080322	-0.112061
271.0	6.623553	0.855297	7.285281	-0.042515	-0.014756	0.010165	-0.443604	0.078125	-0.10791
272.0	6.609918	0.812278	7.250429	-0.033988	-0.01132	0.001148	-0.445801	0.078369	-0.118652
273.0	6.631913	0.863282	7.265457	-0.035314	-0.007739	0.005395	-0.441406	0.078125	-0.112061
274.0	6.609868	0.835166	7.269963	-0.024142	-0.006187	0.002752	-0.441406	0.078125	-0.103516
275.0	6.640761	0.88489	7.31849	-0.022427	-0.001429	0.003242	-0.439209	0.075928	-0.10791
276.0	6.643386	0.826906	7.278474	-0.023785	0.001771	0.003704	-0.441162	0.073975	-0.107666
277.0	6.632564	0.8553	7.265807	-0.017639	0.004886	0.003764	-0.439209	0.078369	-0.112061
278.0	6.672149	0.863271	7.255644	-0.017588	0.002821	0.00201	-0.441406	0.076172	-0.114258
279.0	6.625259	0.838815	7.285646	-0.013461	0.008295	-0.002776	-0.441406	0.078125	-0.10791
280.0	6.616868	0.852412	7.32517	-0.004515	0.003326	-0.001604	-0.441406	0.078125	-0.112061
281.0	6.646958	0.863619	7.281881	-0.005297	0.009054	0.002134	-0.441406	0.078125	-0.103516
282.0	6.639782	0.849224	7.301349	-0.007723	0.005515	-0.001918	-0.439209	0.078369	-0.112061
283.0	6.60618	0.853301	7.293389	-0.004566	0.00539	0.000149	-0.437012	0.076172	-0.109863
284.0	6.639019	0.848592	7.302117	-0.002665	0.004337	-0.000828	-0.443604	0.076172	-0.109863
285.0	6.645308	0.862536	7.283515	-0.000847	0.004969	-0.00384	-0.437012	0.076172	-0.114258
286.0	6.631604	0.834867	7.321715	-0.00022	0.005432	-0.002318	-0.44165	0.08252	-0.10791
287.0	6.605945	0.82547	7.274634	0.000376	0.005517	-0.004585	-0.438965	0.073975	-0.107666
288.0	6.644013	0.8635	7.284582	0.009134	0.006361	-0.001938	-0.439209	0.075928	-0.10791
289.0	6.612798	0.852729	7.328807	0.007064	0.010782	-0.005034	-0.443604	0.080322	-0.105713
290.0	6.669023	0.846792	7.313096	0.005758	0.011917	-0.006326	-0.441406	0.078125	-0.112061
291.0	6.652086	0.835891	7.299648	0.006302	0.014064	-0.00684	-0.438965	0.073975	-0.105713
292.0	6.648272	0.892793	7.340852	0.001839	0.015324	-0.010201	-0.443359	0.073975	-0.112061
293.0	6.673741	0.874996	7.369075	-0.002372	0.011534	-0.007453	-0.441406	0.078125	-0.109863
294.0	6.647671	0.865478	7.322396	-0.007974	0.010562	-0.008033	-0.443604	0.080322	-0.10791
295.0	6.640136	0.851552	7.342113	-0.006124	0.011573	-0.007256	-0.445801	0.078125	-0.105713
296.0	6.630081	0.853783	7.309628	-0.004765	0.008373	-0.007718	-0.443604	0.076172	-0.109863
297.0	6.646585	0.837584	7.304463	-0.007347	0.011024	-0.006513	-0.445557	0.071533	-0.103516
298.0	6.62837	0.853887	7.311168	-0.003052	0.013131	-0.007224	-0.443604	0.076172	-0.109863
299.0	6.627336	0.854383	7.312047	0.001297	0.013174	-0.009688	-0.443604	0.076172	-0.112061
300.0	6.61951	0.841132	7.331935	-6.3e-05	0.016372	-0.009228	-0.441162	0.071777	-0.107666
301.0	6.640916	0.867787	7.32825	0.005021	0.012753	-0.013676	-0.441406	0.078125	-0.109863
302.0	6.601246	0.831528	7.31953	0.005509	0.016962	-0.012438	-0.441406	0.078125	-0.10791
303.0	6.613184	0.860585	7.282828	0.00861	0.018901	-0.008614	-0.441406	0.075928	-0.10791
304.0	6.653973	0.855297	7.325804	0.005916	0.022851	-0.01324	-0.439209	0.078369	-0.112061
305.0	6.636389	0.845211	7.312851	0.012225	0.01978	-0.01843	-0.437012	0.075928	-0.105713
306.0	6.625339	0.849284	7.281086	0.010128	0.026636	-0.015992	-0.443604	0.078125	-0.109863
307.0	6.649558	0.833119	7.310303	0.017413	0.031981	-0.018708	-0.439209	0.080322	-0.10791
308.0	6.61377	0.840229	7.303875	0.019779	0.034752	-0.02224	-0.447998	0.078125	-0.10791
309.0	6.640103	0.88297	7.282622	0.021464	0.03912	-0.025545	-0.443604	0.078125	-0.10791
310.0	6.623272	0.858683	7.323166	0.030482	0.049598	-0.023984	-0.441162	0.073975	-0.109863
311.0	6.645846	0.844475	7.353667	0.033532	0.050762	-0.027751	-0.443359	0.073975	-0.10791
312.0	6.623108	0.892964	7.38254	0.033615	0.049071	-0.025721	-0.439453	0.08252	-0.116455
313.0	6.616788	0.952579	7.4252	0.022338	0.034514	-0.017931	-0.441406	0.078125	-0.105713
314.0	6.622899	0.940382	7.387858	0.001687	0.018639	-0.014324	-0.445557	0.071777	-0.109863
315.0	6.607336	0.90137	7.354503	0.001305	0.01314	-0.009723	-0.443604	0.075928	-0.105713
316.0	6.606338	0.901852	7.35534	-0.005518	0.011616	-0.00957	-0.438965	0.073975	-0.109863
317.0	6.645284	0.911706	7.345818	-0.002367	0.011499	-0.007492	-0.441162	0.07373	-0.105713
318.0	6.590277	0.862341	7.32251	-0.007966	0.010521	-0.008083	-0.441162	0.07373	-0.105713
319.0	6.638456	0.870162	7.346117	0.000222	0.008851	-0.008688	-0.441406	0.075928	-0.103516
320.0	6.588704	0.862995	7.323849	-0.003592	0.01095	-0.006749	-0.439209	0.076172	-0.109863
321.0	6.610342	0.889317	7.32	0.000746	0.010607	-0.012999	-0.445557	0.075928	-0.109863
322.0	6.602746	0.876228	7.339604	0.000143	0.010526	-0.010731	-0.439209	0.076172	-0.112061
323.0	6.617614	0.888932	7.354678	0.003213	0.012086	-0.010695	-0.436768	0.071777	-0.114258
324.0	6.609058	0.86375	7.302214	2e-06	0.014264	-0.011026	-0.439209	0.076172	-0.112061
325.0	6.606438	0.892834	7.323096	0.005725	0.011115	-0.013933	-0.438965	0.073975	-0.112061
326.0	6.605296	0.89385	7.324002	0.001784	0.01734	-0.008498	-0.439209	0.076172	-0.114258
327.0	6.628193	0.892571	7.300341	0.005042	0.01271	-0.01371	-0.437012	0.073975	-0.114258
328.0	6.596229	0.88221	7.344746	0.006204	0.015319	-0.012705	-0.441406	0.076172	-0.109863
329.0	6.619053	0.881259	7.321124	0.00867	0.0168	-0.0104	-0.437012	0.076172	-0.112061
330.0	6.631786	0.92252	7.356659	0.006062	0.019055	-0.013002	-0.443359	0.071777	-0.112061
331.0	6.609457	0.870004	7.342303	0.006746	0.017457	-0.013228	-0.443604	0.080322	-0.103516
332.0	6.619841	0.927256	7.325679	0.009211	0.018938	-0.010923	-0.434814	0.076172	-0.112061
333.0	6.581041	0.902927	7.389032	0.001977	0.01114	-0.013754	-0.443604	0.078125	-0.105713
334.0	6.610909	0.915377	7.346315	0.000702	0.013045	-0.007469	-0.438965	0.071777	-0.116455
335.0	6.601695	0.92994	7.385972	-0.005991	0.00739	-0.010819	-0.441162	0.071777	-0.112061
336.0	6.587892	0.901901	7.424109	-0.014421	-0.000177	-0.00532	-0.437012	0.076172	-0.112061
337.0	6.604899	0.873015	7.346047	-0.014147	-0.008042	-0.008523	-0.443359	0.073975	-0.112061
338.0	6.579667	0.902635	7.390291	-0.019744	-0.009026	-0.009121	-0.438965	0.073975	-0.109863
339.0	6.646112	0.881234	7.334783	-0.019535	-0.014829	-0.010577	-0.445557	0.075928	-0.10791
340.0	6.620649	0.898742	7.306427	-0.01831	-0.014283	-0.011322	-0.447998	0.078125	-0.114258
341.0	6.61489	0.884272	7.324522	-0.015161	-0.014396	-0.00924	-0.445557	0.075928	-0.103516
342.0	6.622495	0.897617	7.304892	-0.014607	-0.011867	-0.005966	-0.438965	0.071777	-0.107666
343.0	6.590092	0.90142	7.295617	-0.011553	-0.010691	-0.009722	-0.436768	0.073975	-0.107666
344.0	6.628925	0.93903	7.30491	-0.007865	-0.00866	-0.008157	-0.438965	0.06958	-0.112061
345.0	6.641727	0.880833	7.297589	-0.009235	-0.00547	-0.007707	-0.445801	0.076172	-0.112061
346.0	6.600566	0.89892	7.327645	-0.010459	-0.006019	-0.006965	-0.441162	0.07373	-0.105713
347.0	6.624856	0.896401	7.3029	-0.011289	-0.000685	-0.007032	-0.438965	0.071777	-0.109863
348.0	6.602463	0.870404	7.307388	-0.007471	-0.002779	-0.00897	-0.438965	0.073975	-0.109863
349.0	6.607692	0.912211	7.308451	-0.011143	-0.004425	-0.006741	-0.445557	0.075928	-0.105713
350.0	6.625067	0.895798	7.302783	-0.010211	0.003601	-0.008067	-0.439209	0.075928	-0.105713
351.0	6.607328	0.911878	7.308822	-0.007078	0.003103	-0.009779	-0.441406	0.075928	-0.105713
352.0	6.606989	0.912219	7.309086	-0.002101	0.003623	-0.010708	-0.441162	0.073975	-0.112061
353.0	6.623899	0.896365	7.303773	-0.005366	0.008245	-0.005493	-0.443359	0.071533	-0.101318
354.0	6.616622	0.882583	7.323161	-0.001547	0.006154	-0.007431	-0.441406	0.076172	-0.112061
355.0	6.631834	0.894957	7.337959	-0.000943	0.006235	-0.0097	-0.443359	0.07373	-0.105713
356.0	6.622199	0.89746	7.305179	-0.002233	0.007748	-0.007205	-0.441162	0.073975	-0.109863
357.0	6.613083	0.911932	7.344787	-0.00047	0.010441	-0.008466	-0.443604	0.078125	-0.103516
358.0	6.620878	0.898324	7.306271	-0.002705	0.003541	-0.008441	-0.443359	0.07373	-0.105713
359.0	6.636105	0.91049	7.32108	-0.004762	0.008324	-0.007765	-0.443604	0.078125	-0.10791
360.0	6.619691	0.898736	7.307296	-0.008528	0.007963	-0.011377	-0.441406	0.078125	-0.10791
361.0	6.628111	0.896739	7.341104	-0.008447	0.006287	-0.009333	-0.443604	0.078125	-0.101318
362.0	6.627657	0.896728	7.341515	-0.009604	0.003674	-0.010344	-0.443604	0.078125	-0.105713
363.0	6.618149	0.89871	7.308696	-0.010976	0.006862	-0.009893	-0.441406	0.075928	-0.105713
364.0	6.617649	0.898697	7.30915	-0.00838	0.004223	-0.011087	-0.441406	0.075928	-0.10791
365.0	6.612211	0.856812	7.308296	-0.009066	0.005816	-0.010862	-0.445557	0.075928	-0.10791
366.0	6.625664	0.897126	7.343265	-0.000336	0.006315	-0.011972	-0.441162	0.073975	-0.109863
367.0	6.622588	0.913846	7.291727	-0.002395	0.011095	-0.011295	-0.441406	0.078125	-0.112061
368.0	6.615145	0.900653	7.311175	0.004035	0.006757	-0.010628	-0.439209	0.076172	-0.109863
369.0	6.625128	0.871586	7.324887	0.002582	0.011619	-0.012222	-0.441162	0.073975	-0.114258
370.0	6.613387	0.902717	7.312511	0.003806	0.012168	-0.012965	-0.437012	0.073975	-0.112061
371.0	6.645562	0.899618	7.321946	0.002582	0.011617	-0.012224	-0.441162	0.071777	-0.105713
372.0	6.627064	0.916879	7.328468	0.006872	0.013735	-0.012924	-0.443359	0.071777	-0.112061
373.0	6.603446	0.892319	7.333867	0.008645	0.016816	-0.010387	-0.443359	0.071777	-0.112061
374.0	6.615704	0.921606	7.296998	0.005718	0.01112	-0.013936	-0.441406	0.078125	-0.10791
375.0	6.623495	0.920806	7.331202	0.004811	0.018511	-0.012252	-0.436768	0.06958	-0.109863
376.0	6.628774	0.935827	7.31349	0.006126	0.017775	-0.007153	-0.441162	0.06958	-0.109863
377.0	6.620541	0.922971	7.333597	0.00719	0.021671	-0.011987	-0.438965	0.071777	-0.107666
378.0	6.627183	0.910211	7.29614	0.008274	0.026344	-0.009227	-0.441162	0.073975	-0.112061
379.0	6.625086	0.911435	7.297891	0.009428	0.028953	-0.00822	-0.445557	0.075928	-0.109863
380.0	6.60923	0.884974	7.337632	0.014792	0.035354	-0.009958	-0.441162	0.073975	-0.109863
381.0	6.613138	0.900865	7.32107	0.01778	0.03859	-0.011965	-0.438965	0.07373	-0.103516
382.0	6.610077	0.903133	7.323555	0.020767	0.041825	-0.013973	-0.441162	0.073975	-0.107666
383.0	6.58427	0.879624	7.330778	0.018626	0.048266	-0.015359	-0.443359	0.071777	-0.105713
384.0	6.603084	0.908277	7.329225	0.02751	0.045027	-0.016166	-0.438721	0.067383	-0.112061
385.0	6.621973	0.937185	7.327574	0.025599	0.046062	-0.015211	-0.443604	0.078125	-0.105713
386.0	6.611684	0.926057	7.349269	0.026829	0.046995	-0.012162	-0.436768	0.06958	-0.112061
387.0	6.566436	0.947023	7.382104	0.025065	0.043904	-0.014705	-0.441162	0.071777	-0.105713
388.0	6.618532	0.959316	7.31687	0.020852	0.040112	-0.011965	-0.443604	0.078125	-0.112061
389.0	6.577734	0.935679	7.381445	0.016562	0.037991	-0.011274	-0.434814	0.073975	-0.112061
390.0	6.572902	0.965596	7.403826	0.01595	0.037909	-0.009008	-0.441162	0.073975	-0.116455
391.0	6.585727	0.967117	7.348228	0.008059	0.031292	-0.015436	-0.439209	0.076172	-0.109863
392.0	6.594102	0.938398	7.363486	0.00438	0.030041	-0.009416	-0.436768	0.06958	-0.109863
393.0	6.567627	0.94191	7.389647	0.015182	0.025768	-0.01116	-0.438965	0.071777	-0.109863
394.0	6.590123	0.941047	7.366709	0.002232	0.021482	-0.00733	-0.438721	0.067383	-0.112061
395.0	6.570988	0.957922	7.373574	0.006676	0.019867	-0.007721	-0.436768	0.072021	-0.12085
396.0	6.597855	0.912806	7.382501	0.0043	0.016708	-0.007986	-0.438965	0.069824	-0.116455
397.0	6.545915	0.93364	7.380152	0.003685	0.016631	-0.005717	-0.438721	0.067383	-0.112061
398.0	6.593505	0.942201	7.404461	-0.000449	0.010391	-0.008516	-0.438965	0.073975	-0.112061
399.0	6.55068	0.948738	7.362954	0.002537	0.01402	-0.006723	-0.445557	0.071777	-0.114258
400.0	6.57604	0.931304	7.391535	-0.002287	0.00937	-0.009305	-0.43457	0.071777	-0.116455
401.0	6.575192	0.931831	7.392223	0.001389	0.01141	-0.007729	-0.436768	0.071777	-0.116455
402.0	6.581159	0.946469	7.374025	0.000857	0.008875	-0.011005	-0.443359	0.06958	-0.112061
403.0	6.554109	0.964949	7.346809	-0.002902	0.009293	-0.007036	-0.438965	0.071777	-0.114258
404.0	6.564272	0.935268	7.360627	-0.00397	0.004621	-0.009788	-0.438721	0.067627	-0.116455
405.0	6.592788	0.987552	7.410095	-0.005967	0.007724	-0.007084	-0.43457	0.071777	-0.112061
406.0	6.596698	0.930985	7.370234	-0.017306	-0.005532	-0.005133	-0.434326	0.06543	-0.116455
407.0	6.577432	0.974443	7.39558	-0.011708	-0.00493	-0.008314	-0.438965	0.073975	-0.107666
408.0	6.566283	0.905584	7.340816	-0.02167	-0.005986	-0.006495	-0.443359	0.071777	-0.109863
409.0	6.58705	0.958684	7.356213	-0.014698	-0.008166	-0.006311	-0.441162	0.06958	-0.107666
410.0	6.578686	0.960038	7.322607	-0.013625	-0.00389	-0.007358	-0.434814	0.073975	-0.109863
411.0	6.596365	0.94348	7.317033	-0.011867	-0.000809	-0.004822	-0.441162	0.073975	-0.112061
412.0	6.598258	0.927222	7.369312	-0.008188	0.000837	-0.007044	-0.436768	0.071777	-0.107666
413.0	6.596029	0.943248	7.317366	-0.003972	0.004622	-0.009788	-0.434814	0.076172	-0.109863
414.0	6.580028	0.943437	7.375422	-0.006431	0.003919	-0.004507	-0.438965	0.06958	-0.112061
415.0	6.588373	0.929424	7.336961	-0.005963	0.007328	-0.010882	-0.43457	0.067383	-0.109863
416.0	6.570232	0.945941	7.342951	0.001619	0.005624	-0.009168	-0.438965	0.071777	-0.107666
417.0	6.593984	0.944553	7.31904	0.000238	0.008802	-0.008732	-0.440918	0.067383	-0.107666
418.0	6.601965	0.943119	7.352996	-0.00229	0.009369	-0.009305	-0.441162	0.071777	-0.112061
419.0	6.568103	0.947604	7.344642	0.000848	0.009273	-0.007203	-0.447754	0.071777	-0.112061
420.0	6.593649	0.930005	7.373086	-0.002296	0.009763	-0.005505	-0.441162	0.06958	-0.105713
421.0	6.599763	0.944306	7.35482	0.000313	0.007135	-0.006681	-0.436768	0.073975	-0.105713
422.0	6.574462	0.946781	7.379956	-0.000689	0.016176	-0.007074	-0.434814	0.073975	-0.112061
423.0	6.589066	0.947285	7.323116	0.003912	0.010843	-0.007154	-0.445557	0.073975	-0.112061
424.0	6.59479	0.973976	7.377259	-0.001143	0.011976	-0.0083	-0.434814	0.076172	-0.116455
425.0	6.580398	0.934653	7.343451	0.002619	0.011562	-0.012269	-0.438965	0.073975	-0.112061
426.0	6.579381	0.935494	7.344256	0.00192	0.013545	-0.008251	-0.437012	0.073975	-0.114258
427.0	6.584832	0.9623	7.398603	0.002455	0.015682	-0.008775	-0.441162	0.073975	-0.112061
428.0	6.568159	0.951089	7.385013	0.002538	0.01362	-0.010523	-0.441162	0.06958	-0.109863
429.0	6.593584	0.921845	7.341482	0.001311	0.01307	-0.009784	-0.438965	0.073975	-0.112061
430.0	6.597061	0.964513	7.343715	0.002981	0.018214	-0.005499	-0.438965	0.071777	-0.103516
431.0	6.595909	0.96511	7.34467	0.001385	0.011404	-0.007732	-0.441162	0.071777	-0.112061
432.0	6.572632	0.939773	7.34975	0.001312	0.013068	-0.009786	-0.441162	0.06958	-0.114258
433.0	6.580244	0.938278	7.384004	-0.001844	0.013954	-0.00429	-0.445557	0.071777	-0.116455
434.0	6.59745	1.020372	7.420555	-0.007193	0.007161	-0.006357	-0.436768	0.06958	-0.114258
435.0	6.566106	1.00731	7.46395	-0.028566	-0.005109	-0.000864	-0.436768	0.06958	-0.109863
436.0	6.590765	0.917247	7.469957	-0.027938	-0.020011	0.000359	-0.445557	0.071777	-0.112061
437.0	6.575861	1.040208	7.587304	-0.049982	-0.04608	0.00575	-0.441162	0.06958	-0.109863
438.0	6.58466	0.880478	7.502039	-0.086482	-0.085352	0.010939	-0.443359	0.071777	-0.116455
439.0	6.68008	1.189809	7.510418	-0.072592	-0.103048	0.012704	-0.445557	0.073975	-0.109863
440.0	6.588188	0.750405	7.146863	-0.104167	-0.09491	0.025538	-0.445313	0.067383	-0.109863
441.0	6.595457	0.949661	7.297966	-0.090318	-0.067626	0.016897	-0.443604	0.075928	-0.105713
442.0	6.667874	0.808898	7.25023	-0.073084	-0.061199	0.012376	-0.441162	0.073975	-0.107666
443.0	6.594996	0.853415	7.288541	-0.054173	-0.050002	0.008368	-0.441406	0.075928	-0.10791
444.0	6.629381	0.87289	7.315181	-0.055332	-0.03762	0.003904	-0.445801	0.078369	-0.114258
445.0	6.656559	0.878495	7.361022	-0.049128	-0.036149	0.00605	-0.443359	0.073975	-0.109863
446.0	6.655032	0.918336	7.327382	-0.058625	-0.033432	0.005296	-0.443604	0.078125	-0.109863
447.0	6.641843	0.913376	7.383759	-0.057099	-0.024955	0.005506	-0.447754	0.073975	-0.109863
448.0	6.75265	0.980312	7.41209	-0.060847	-0.024577	0.009467	-0.439209	0.078125	-0.103516
449.0	6.740516	0.933882	7.376735	-0.095076	-0.012561	0.017725	-0.443604	0.080322	-0.103516
450.0	6.712119	0.885998	7.400054	-0.084366	0.00027	0.014309	-0.441406	0.075928	-0.10791
451.0	6.904172	0.925479	7.44301	-0.100299	0.023425	0.020878	-0.439209	0.080322	-0.101318
452.0	6.755113	0.893038	7.376723	-0.102377	0.059698	0.02997	-0.439209	0.076172	-0.112061
453.0	6.830766	1.011992	7.477817	-0.110343	0.086254	0.029843	-0.439209	0.080322	-0.10791
454.0	6.826042	0.847326	7.40287	-0.144025	0.130712	0.034543	-0.441406	0.078125	-0.109863
455.0	6.770262	0.783228	7.42232	-0.133969	0.174348	0.016982	-0.437012	0.080322	-0.105713
456.0	6.603926	0.713721	7.238921	-0.126439	0.204952	0.017413	-0.432861	0.084717	-0.105713
457.0	6.614893	0.610239	7.381876	-0.103672	0.1833	0.010663	-0.443604	0.080322	-0.10791
458.0	6.676994	0.570128	7.301034	-0.080471	0.181955	0.013269	-0.439209	0.080322	-0.105713
459.0	6.608802	0.542565	7.307702	-0.052454	0.169562	0.014339	-0.437256	0.08252	-0.114258
460.0	6.598565	0.52165	7.370448	-0.028046	0.153475	0.015869	-0.437256	0.08252	-0.112061
461.0	6.635198	0.641289	7.395806	0.002416	0.142253	0.015581	-0.432617	0.078369	-0.112061
462.0	6.525772	0.757027	7.296398	0.015548	0.141885	0.021794	-0.434814	0.078125	-0.109863
463.0	6.373052	0.815628	7.327104	0.034703	0.11668	0.015691	-0.443604	0.078125	-0.109863
464.0	6.349634	0.804905	7.319046	0.018853	0.10662	0.015685	-0.432861	0.084717	-0.116455
465.0	6.394288	0.768579	7.380726	0.027061	0.089338	0.010985	-0.437256	0.08252	-0.114258
466.0	6.467066	0.904354	7.359397	0.02773	0.089062	0.004903	-0.434814	0.078369	-0.114258
467.0	6.520642	0.871111	7.329842	-0.00349	0.087178	0.012411	-0.430664	0.082764	-0.116455
468.0	6.32469	0.790165	7.39314	0.008092	0.07937	0.00881	-0.430664	0.08252	-0.112061
469.0	6.294885	0.677862	7.43076	0.011249	0.078893	0.007137	-0.439453	0.08252	-0.112061
470.0	6.471578	0.754778	7.468031	-0.010608	0.049015	-0.008646	-0.432861	0.08252	-0.10791
471.0	6.225509	0.632001	7.377552	0.015293	0.042787	-0.012464	-0.433105	0.086914	-0.114258
472.0	6.311431	0.749215	7.438225	0.023686	0.021482	-0.020602	-0.430664	0.080322	-0.112061
473.0	6.526225	0.796667	7.461974	0.007302	0.024643	-0.019718	-0.437012	0.078125	-0.105713
474.0	6.465682	0.821398	7.425923	0.010509	0.022503	-0.019329	-0.428467	0.078369	-0.116455
475.0	6.23273	0.766523	7.389114	0.006975	0.001466	-0.021055	-0.437012	0.078369	-0.114258
476.0	6.278661	0.803514	7.433886	0.006813	-0.010121	-0.021723	-0.432861	0.080566	-0.114258
477.0	6.465737	0.826928	7.425261	0.000977	-0.020689	-0.021342	-0.435059	0.080322	-0.105713
478.0	6.348775	0.787339	7.377821	0.002699	-0.032939	-0.019146	-0.432861	0.080322	-0.10791
479.0	6.341948	0.801922	7.414307	-0.002444	-0.04509	-0.018983	-0.430664	0.084717	-0.110107
480.0	6.4799	0.758473	7.42837	-0.007901	-0.063806	-0.025629	-0.423828	0.076172	-0.112061
481.0	6.453847	0.736079	7.39433	-0.009185	-0.062701	-0.026965	-0.435059	0.080322	-0.109863
482.0	6.608098	0.802105	7.46538	-0.004314	-0.074108	-0.032293	-0.437012	0.076172	-0.109863
483.0	6.634379	0.749368	7.362286	-0.010879	-0.066143	-0.033367	-0.432617	0.073975	-0.109863
484.0	6.489436	0.777474	7.450185	-0.005202	-0.067173	-0.034442	-0.437256	0.080322	-0.109863
485.0	6.508473	0.808064	7.408767	-0.003127	-0.07192	-0.035111	-0.432861	0.08252	-0.103516
486.0	6.541915	0.76419	7.411281	-0.001708	-0.075451	-0.039368	-0.435059	0.08252	-0.114258
487.0	6.513376	0.788202	7.344695	0.002001	-0.088155	-0.05161	-0.434814	0.075928	-0.103516
488.0	6.427945	0.61768	7.330483	0.000869	-0.090782	-0.052674	-0.439209	0.080322	-0.10791
489.0	6.282482	0.682298	7.313388	0.02501	-0.098737	-0.065046	-0.434814	0.076172	-0.112061
490.0	6.17979	0.829219	7.309048	0.043782	-0.112176	-0.085461	-0.435059	0.080322	-0.109863
491.0	6.238297	1.012263	7.390976	0.02457	-0.129537	-0.102036	-0.438965	0.071533	-0.101318
492.0	6.433384	0.848343	7.286497	0.005662	-0.139976	-0.107982	-0.439209	0.078125	-0.10791
493.0	6.464607	0.882028	7.273912	0.011003	-0.133255	-0.105901	-0.437012	0.078125	-0.105713
494.0	6.311349	1.05909	7.337523	-0.000474	-0.127974	-0.107876	-0.439209	0.080322	-0.109863
495.0	6.281255	1.119606	7.164472	-0.021824	-0.13959	-0.112342	-0.441406	0.078125	-0.105713
496.0	6.319565	1.250948	7.103763	-0.050902	-0.159757	-0.104034	-0.441406	0.075928	-0.10791
497.0	6.399348	0.693685	7.068968	-0.082732	-0.214756	-0.102315	-0.439209	0.078125	-0.10791
498.0	6.674351	0.554601	7.10024	-0.02572	-0.256927	-0.108702	-0.441406	0.076172	-0.109863
499.0	6.991984	0.871637	7.367759	-0.002447	-0.206859	-0.113204	-0.439453	0.08252	-0.103516
500.0	7.001162	0.809752	7.333706	-0.029072	-0.12354	-0.141353	-0.445557	0.075928	-0.105713
501.0	6.902138	0.556689	7.40822	0.02498	-0.039993	-0.148836	-0.441406	0.075928	-0.103516
502.0	7.096572	0.497357	7.385274	0.095041	0.034301	-0.16052	-0.438965	0.071777	-0.109863
503.0	6.955985	0.581025	7.519845	0.137738	0.092733	-0.167079	-0.441162	0.071533	-0.101318
504.0	6.816096	0.686031	7.513423	0.11338	0.103896	-0.176008	-0.438965	0.073975	-0.107666
505.0	6.835277	0.7364	7.424622	0.104698	0.102323	-0.18274	-0.443359	0.06958	-0.112061
506.0	6.75187	0.991927	7.394712	0.117294	0.101188	-0.18206	-0.440918	0.065186	-0.107666
507.0	6.788913	1.025997	7.299556	0.093669	0.099345	-0.170787	-0.436523	0.065186	-0.107666
508.0	6.743176	1.231244	7.309106	0.09872	0.099363	-0.158266	-0.438477	0.061035	-0.109863
509.0	6.722359	1.277698	7.301794	0.084258	0.101565	-0.137038	-0.438721	0.063232	-0.112061
510.0	6.685653	1.250651	7.330122	0.067156	0.094731	-0.115277	-0.440918	0.063232	-0.112061
511.0	6.637152	1.477014	7.359061	0.064315	0.090108	-0.090063	-0.438477	0.061035	-0.112061
512.0	6.583215	1.389766	7.370592	0.025847	0.084427	-0.060385	-0.440674	0.061035	-0.112061
513.0	6.627687	1.306171	7.356929	0.010975	0.070886	-0.040995	-0.434326	0.063232	-0.112061
514.0	6.610657	1.338487	7.348209	0.006993	0.063707	-0.016748	-0.432129	0.061035	-0.116455
515.0	6.554747	1.357077	7.348851	-0.011597	0.060126	0.005535	-0.438721	0.063232	-0.107666
516.0	6.589526	1.30764	7.393369	-0.022645	0.045007	0.026849	-0.438721	0.06543	-0.114258
517.0	6.618939	1.241814	7.455897	-0.032159	0.035902	0.042773	-0.440674	0.058838	-0.107666
518.0	6.618679	1.010089	7.444106	-0.044677	0.013955	0.044394	-0.440674	0.061035	-0.112061
519.0	6.595327	1.063967	7.41885	-0.03073	-0.000122	0.042094	-0.440674	0.061035	-0.109863
520.0	6.593323	1.300946	7.380795	-0.036202	-0.014123	0.046654	-0.438721	0.063232	-0.109863
521.0	6.645224	1.361808	7.353462	-0.042355	-0.02784	0.07471	-0.438477	0.061035	-0.112061
522.0	6.614927	1.59264	7.428978	-0.051661	-0.052384	0.107595	-0.436523	0.063232	-0.118652
523.0	6.678448	1.504878	7.38877	-0.084083	-0.066562	0.153999	-0.440918	0.06543	-0.114258
524.0	6.657009	1.531422	7.378012	-0.109553	-0.081611	0.194653	-0.440918	0.067383	-0.112061
525.0	6.67889	1.311277	7.321991	-0.132229	-0.090143	0.229128	-0.445313	0.065186	-0.109863
526.0	6.684538	1.253246	7.388163	-0.156278	-0.096003	0.260145	-0.445557	0.073975	-0.112061
527.0	6.669397	0.98818	7.319715	-0.166317	-0.106716	0.266516	-0.443604	0.076172	-0.118652
528.0	6.602735	0.666516	7.348661	-0.159795	-0.111246	0.266933	-0.443359	0.071777	-0.109863
529.0	6.707064	0.758462	7.308462	-0.13346	-0.112429	0.254156	-0.445557	0.073975	-0.112061
530.0	6.618161	0.559513	7.261105	-0.137327	-0.109722	0.246164	-0.447998	0.078125	-0.110107
531.0	6.673841	0.376425	7.211634	-0.104997	-0.106694	0.223943	-0.447998	0.08252	-0.103516
532.0	6.553686	0.424643	7.245099	-0.066392	-0.091505	0.193315	-0.450195	0.08252	-0.110107
533.0	6.62662	0.401808	7.257381	-0.016803	-0.070425	0.163814	-0.445801	0.078125	-0.10791
534.0	6.680591	0.475129	7.175329	-0.003159	-0.056388	0.13568	-0.445801	0.080322	-0.10791
535.0	6.648951	0.72063	7.292294	0.026715	-0.040293	0.121455	-0.447998	0.080322	-0.105713
536.0	6.646803	0.489066	7.272236	0.025567	-0.043652	0.112752	-0.443848	0.084473	-0.103516
537.0	6.669647	0.577164	7.378948	0.065793	-0.051694	0.091158	-0.450195	0.082275	-0.101318
538.0	6.687547	0.605643	7.337731	0.080397	-0.058653	0.079813	-0.446045	0.08667	-0.101318
539.0	6.706502	0.645727	7.368328	0.081384	-0.068463	0.072436	-0.447998	0.08252	-0.103516
540.0	6.743991	0.671621	7.391782	0.112668	-0.085748	0.064259	-0.448242	0.084473	-0.101318
541.0	6.586839	0.71849	7.486705	0.114653	-0.104306	0.060943	-0.452637	0.084473	-0.101318
542.0	6.731215	0.765761	7.462318	0.140671	-0.129473	0.060183	-0.452637	0.084717	-0.110107
543.0	6.681161	0.947343	7.499862	0.135255	-0.164495	0.066308	-0.448242	0.08667	-0.094971
544.0	6.714532	0.908637	7.459841	0.131809	-0.199509	0.082843	-0.456787	0.080322	-0.103516
545.0	6.769474	0.989922	7.546834	0.15657	-0.238116	0.091516	-0.450195	0.080322	-0.101318
546.0	6.787295	1.528987	7.675912	0.156818	-0.283915	0.118402	-0.457031	0.088867	-0.099121
547.0	6.891132	0.68057	7.173787	-0.03389	-0.316393	0.163493	-0.458984	0.082275	-0.090576
548.0	6.744813	1.399077	7.667589	0.140251	-0.366604	0.180492	-0.457031	0.088623	-0.090576
549.0	6.437511	1.062384	7.751121	0.068975	-0.408535	0.233994	-0.461426	0.088623	-0.083984
550.0	6.460047	1.782793	8.231494	-0.058963	-0.562268	0.314232	-0.456787	0.086426	-0.07959
551.0	6.798321	0.717735	7.485606	-0.105571	-0.649751	0.353116	-0.463379	0.086182	-0.077637
552.0	6.72687	0.851575	7.708971	-0.050506	-0.713516	0.361624	-0.467773	0.083984	-0.068848
553.0	6.606651	0.702089	7.760571	-0.060696	-0.826178	0.374658	-0.46582	0.092529	-0.06665
554.0	6.594727	0.892743	7.838875	-0.055684	-0.945934	0.407465	-0.470459	0.096924	-0.066895
555.0	6.793374	0.418853	7.640852	-0.087643	-1.065648	0.420464	-0.472656	0.101074	-0.053711
556.0	6.680954	0.53596	7.427008	-0.017236	-1.190413	0.412097	-0.470459	0.101074	-0.051514
557.0	7.073012	1.100175	7.727195	0.244882	-1.323667	0.420213	-0.483643	0.107178	-0.036621
558.0	6.733158	0.991009	8.312171	-0.320565	-1.525177	0.515987	-0.486084	0.109131	-0.027832
559.0	6.063756	0.849942	8.816776	0.047057	-1.696889	0.56184	-0.481689	0.109131	-0.01709
560.0	6.144081	0.500249	8.521324	-0.14259	-2.013583	0.607742	-0.490479	0.113037	-0.001953
561.0	6.40683	0.323864	8.434256	-0.061108	-2.307452	0.609169	-0.495361	0.12793	0.008789
562.0	6.563199	1.36004	8.664265	0.003973	-2.585324	0.64623	-0.499756	0.13208	0.026123
563.0	6.120018	1.139012	8.928768	-0.122099	-2.914136	0.706009	-0.508301	0.129639	0.043457
564.0	5.58641	0.485887	9.150674	-0.136291	-3.29918	0.699417	-0.502197	0.140137	0.058594
565.0	4.727617	0.68206	10.084853	-0.150676	-3.627956	0.701069	-0.508789	0.144043	0.086914
566.0	3.87389	0.976163	11.100733	-0.339499	-4.154528	0.698326	-0.513428	0.152344	0.117188
567.0	1.872701	1.646582	11.643512	-0.618735	-4.966684	0.666436	-0.515869	0.158447	0.140869
568.0	1.840381	2.085298	9.466419	-0.927863	-5.711533	0.763943	-0.51416	0.175049	0.17334
569.0	2.750671	-1.253817	6.264619	-1.003162	-6.166967	0.905749	-0.512451	0.185303	0.214355
570.0	5.133124	-4.343423	4.244071	-0.395199	-6.705843	0.849239	-0.512451	0.189209	0.249023
571.0	11.792474	-0.786467	3.574006	-0.040495	-7.563498	0.750598	-0.501953	0.20166	0.29248
572.0	22.137115	-3.194757	1.454255	-0.405305	-7.693266	0.697786	-0.484863	0.209717	0.329346
573.0	24.460651	-4.777456	1.712622	0.27542	-7.051518	0.460709	-0.473877	0.213623	0.368164
574.0	22.757617	-3.648761	4.289887	0.557695	-6.163144	-0.004721	-0.458496	0.210938	0.398682
575.0	20.753048	-3.978817	6.088183	0.906541	-5.285228	-0.370464	-0.435059	0.22583	0.431152
576.0	16.670839	-2.292089	7.751694	1.246322	-4.679171	-0.546602	-0.417725	0.227783	0.448486
577.0	13.958637	-0.821378	6.825349	1.483579	-4.526329	-0.624342	-0.391357	0.225342	0.474609
578.0	17.86945	-0.28607	11.834473	1.369323	-3.834462	-0.495163	-0.365479	0.229492	0.491943
579.0	21.971149	-4.781071	17.805191	1.611813	-0.704195	-0.243064	-0.343994	0.238037	0.498535
580.0	9.114592	3.64442	18.129314	1.504632	1.591964	-0.488896	-0.320068	0.240234	0.496338
581.0	5.805755	-5.432866	11.520345	1.443377	2.324055	-0.671016	-0.298828	0.253418	0.496338
582.0	0.491629	1.939828	12.109682	1.897921	2.426319	-0.804812	-0.285889	0.255615	0.494141
583.0	1.303843	1.830485	10.584036	1.371326	2.440505	-0.938454	-0.262451	0.270508	0.502686
584.0	1.334341	1.916352	9.44759	1.17185	2.403352	-1.042509	-0.25415	0.279297	0.502686
585.0	2.034845	2.446554	9.097229	0.958976	2.567617	-1.185074	-0.237061	0.289795	0.522217
586.0	2.502553	2.193099	9.002451	0.688621	2.82329	-1.349659	-0.224365	0.29834	0.535156
587.0	3.001708	2.041061	8.872673	0.541594	3.127102	-1.511149	-0.222412	0.306641	0.548096
588.0	3.337492	1.984103	8.818081	0.313816	3.486678	-1.610396	-0.227051	0.317139	0.567627
589.0	3.292042	1.345749	8.368682	0.159324	3.780527	-1.647098	-0.238037	0.321045	0.591309
590.0	3.20383	1.053254	8.057564	0.044102	4.039918	-1.609749	-0.253906	0.33374	0.602051
591.0	3.682947	1.05637	7.936707	0.021659	4.201452	-1.519175	-0.277832	0.333496	0.621582
592.0	4.431478	1.461793	8.018505	-0.103058	4.345903	-1.357405	-0.305908	0.333252	0.630127
593.0	5.558785	1.335012	8.047254	-0.287966	4.581903	-1.182447	-0.336426	0.333008	0.632324
594.0	6.536715	0.98827	8.022471	-0.451382	4.828573	-1.04892	-0.379883	0.330811	0.636719
595.0	7.513515	0.737951	7.952218	-0.6478	5.064002	-0.935844	-0.421143	0.326416	0.62793
596.0	8.368129	0.676252	7.680214	-0.754929	5.26237	-0.855541	-0.468994	0.322021	0.612549
597.0	8.783834	0.684601	7.790703	-0.675119	5.398923	-0.851007	-0.520508	0.304932	0.595215
598.0	9.820425	1.035042	8.196574	-0.852899	5.349094	-0.847088	-0.563721	0.292236	0.55835
599.0	11.098798	0.270222	8.093852	-0.866108	5.344742	-0.85285	-0.608887	0.279785	0.519531
600.0	11.323595	0.271989	8.461158	-0.819775	5.194727	-0.804753	-0.658936	0.271729	0.465088
601.0	11.37022	0.501297	8.760363	-1.11139	5.009619	-0.610552	-0.687012	0.266113	0.402344
602.0	11.399926	-0.264415	8.704631	-1.127131	4.732133	-0.44602	-0.711182	0.264893	0.328613
603.0	13.530573	-0.180475	9.575137	-1.036299	4.410702	-0.289874	-0.706543	0.254883	0.259277
604.0	15.849416	1.276542	10.173571	-0.956888	4.162728	-0.22095	-0.684814	0.249512	0.185791
605.0	16.248768	2.698984	9.245759	-1.377144	4.09568	-0.13829	-0.658447	0.243896	0.140137
606.0	13.594377	2.225666	6.284264	-1.754866	3.774683	-0.02089	-0.616455	0.223145	0.099121
607.0	13.20242	1.639574	5.008221	-1.8038	3.048361	0.021778	-0.574463	0.20874	0.066895
608.0	14.434355	0.552075	4.05317	-1.693113	2.255482	0.020471	-0.545166	0.180908	0.062744
609.0	17.074967	-0.216719	3.342803	-1.30579	1.648477	-0.03612	-0.515869	0.155029	0.067139
610.0	19.598425	0.216187	2.458298	-0.637047	1.424861	-0.133365	-0.501953	0.131348	0.073975
611.0	20.784524	3.040791	1.992819	-0.203364	1.501517	-0.151105	-0.48999	0.105713	0.071777
612.0	21.903666	4.656231	0.821693	-0.389443	1.767427	-0.082637	-0.482666	0.088379	0.072021
613.0	21.94843	3.630678	-1.308354	-0.795177	2.182123	0.048264	-0.47998	0.075439	0.076416
614.0	20.503759	2.035125	-4.029221	-1.053069	2.422207	0.177763	-0.473389	0.071533	0.061279
615.0	18.531337	-0.699129	-6.710585	-1.013779	2.35663	0.263646	-0.466797	0.071533	0.061279
616.0	18.56318	-1.283266	-8.046405	-0.49814	2.086977	0.361454	-0.464111	0.056641	0.046143
617.0	18.944258	-0.558551	-8.493941	0.009444	1.902859	0.503808	-0.462158	0.058838	0.043945
618.0	18.282709	-0.805043	-8.780303	0.498045	1.790006	0.625421	-0.459717	0.05249	0.041748
619.0	16.266673	-0.123273	-9.072648	1.192213	1.588211	0.639559	-0.453369	0.054688	0.033203
620.0	9.973153	3.799477	-7.79832	1.680395	1.05519	0.586226	-0.457275	0.04834	0.028809
621.0	6.105437	5.419217	-11.198913	0.314538	-1.113746	0.258004	-0.46582	0.043701	0.043945
622.0	-7.844831	-0.850717	-4.064132	1.048575	-3.785367	-0.08232	-0.47876	0.04126	0.065674
623.0	3.729886	4.244112	18.908739	2.107768	-6.63245	-0.986639	-0.497559	0.019043	0.104736
624.0	29.88375	19.344907	15.843287	0.738626	-3.451655	-1.295497	-0.503906	0.020996	0.115723
625.0	12.07259	-5.810006	-5.027341	-1.634854	-2.271104	-0.179199	-0.514648	0.016602	0.133057
626.0	16.309096	3.558525	10.812841	1.169947	-3.679199	0.249517	-0.52124	0.018311	0.152344
627.0	9.063938	3.126834	13.847289	-0.836787	-2.200723	0.352167	-0.525391	0.013916	0.158936
628.0	25.968087	-8.582061	9.975591	-0.232325	-1.895757	-0.306544	-0.529785	0.015869	0.169678
629.0	13.84726	-4.773428	3.037403	0.687528	-0.316029	-0.328375	-0.525391	0.011475	0.178467
630.0	9.092769	6.845684	11.531858	0.885996	-0.433534	-0.298415	-0.533936	0.009277	0.178467
631.0	4.952931	2.343126	6.794754	0.029065	-0.621478	-0.258053	-0.535889	0.00708	0.185059
632.0	9.461137	3.57367	7.365515	0.096787	-0.314313	-0.018489	-0.533691	0.00708	0.185059
633.0	7.320098	2.919313	7.444057	-0.161988	-0.305298	0.114673	-0.533936	0.013428	0.189209
634.0	7.328867	1.611808	7.110545	-0.235656	-0.215242	0.21447	-0.533936	0.011475	0.185059
635.0	7.30748	2.554714	7.284043	-0.185081	-0.143525	0.255697	-0.536377	0.015625	0.187012
636.0	7.000455	3.303377	7.594916	-0.399786	-0.123164	0.315381	-0.536621	0.022217	0.184814
637.0	7.076746	2.347002	7.604984	-0.595149	-0.096645	0.387986	-0.536377	0.017822	0.182861
638.0	6.689188	1.121338	7.643446	-0.687173	-0.095748	0.409449	-0.536621	0.022217	0.182617
639.0	6.589639	0.207408	7.477775	-0.679373	-0.112176	0.377356	-0.532227	0.024414	0.180664
640.0	6.506467	-0.74713	7.43372	-0.595766	-0.10635	0.302863	-0.538818	0.026611	0.182617
641.0	6.735076	-0.584681	7.424415	-0.468485	-0.09177	0.216116	-0.532471	0.028564	0.182617
642.0	6.86814	-0.06181	7.342848	-0.368969	-0.052954	0.179819	-0.536865	0.030762	0.187012
643.0	6.372998	0.664942	7.584353	-0.37025	-0.037415	0.176821	-0.539063	0.030762	0.187012
644.0	6.56144	0.391368	7.557885	-0.41743	-0.07109	0.178074	-0.537109	0.035156	0.184814
645.0	6.529626	-0.401075	7.49623	-0.39914	-0.060742	0.161452	-0.535156	0.041504	0.189209
646.0	6.65176	-0.024433	7.431378	-0.288204	-0.064176	0.130957	-0.537354	0.041504	0.182617
647.0	6.742387	0.067719	7.526408	-0.2975	-0.047442	0.117429	-0.532715	0.037354	0.184814
648.0	6.57934	-0.268924	7.441606	-0.254734	-0.043319	0.085037	-0.537354	0.039307	0.184814
649.0	6.537995	0.003481	7.478406	-0.18447	-0.034222	0.045386	-0.541748	0.045898	0.187012
650.0	6.516426	0.007986	7.448189	-0.196655	-0.035186	0.010645	-0.537354	0.041504	0.193359
651.0	6.56982	-0.066296	7.356575	-0.153999	-0.035664	-0.011803	-0.532959	0.041504	0.191406
652.0	6.570468	0.07918	7.406701	-0.1364	-0.041354	-0.022548	-0.537109	0.039307	0.189209
653.0	6.589703	0.127318	7.388436	-0.114417	-0.046996	-0.035591	-0.532959	0.039307	0.189209
654.0	6.506339	-0.134941	7.377265	-0.120552	-0.050764	-0.047098	-0.539307	0.037109	0.193604
655.0	6.382264	-0.256276	7.354093	-0.058463	-0.073779	-0.070604	-0.539551	0.041504	0.189209
656.0	6.516351	-0.107544	7.388907	-0.002138	-0.083683	-0.082689	-0.537109	0.037109	0.193604
657.0	6.596001	-0.100546	7.384196	0.017897	-0.087704	-0.087361	-0.532715	0.037109	0.197754
658.0	6.617604	0.019095	7.404568	0.064252	-0.100441	-0.099677	-0.537109	0.037109	0.193604
659.0	6.560162	0.088785	7.347775	0.073684	-0.116123	-0.092338	-0.530762	0.043701	0.193359
660.0	6.694053	-0.093201	7.342555	0.102581	-0.129809	-0.1067	-0.532959	0.041504	0.195557
661.0	6.441622	0.534992	7.46099	0.140104	-0.153168	-0.078079	-0.530273	0.030762	0.189209
662.0	6.88715	-0.05638	7.175767	0.120062	-0.145589	-0.073729	-0.532471	0.026367	0.193604
663.0	6.618559	0.095372	7.407151	0.174665	-0.173138	-0.083989	-0.542969	0.02002	0.191406
664.0	6.579564	-0.103931	7.367317	0.182499	-0.206176	-0.09527	-0.54541	0.026123	0.202148
665.0	6.45265	-0.646369	7.153381	0.24043	-0.247876	-0.1366	-0.543457	0.032715	0.204346
666.0	6.41039	-0.70836	7.233599	0.345293	-0.296814	-0.216138	-0.534424	0.02417	0.204346
667.0	6.256691	-1.44869	6.939354	0.44182	-0.331154	-0.340068	-0.538818	0.026123	0.20874
668.0	6.455522	-1.32864	6.940783	0.644884	-0.346751	-0.477376	-0.54541	0.026123	0.206543
669.0	6.262421	-1.069381	6.998576	0.704195	-0.363309	-0.622446	-0.540771	0.021729	0.213135
670.0	6.711019	-0.706022	6.802921	0.789249	-0.315962	-0.750699	-0.540527	0.010986	0.221924
671.0	7.153195	0.463028	7.04266	0.874029	-0.218681	-0.822181	-0.538086	0.008789	0.217529
672.0	7.172734	1.911302	7.621671	0.816755	-0.104651	-0.795365	-0.538086	0.004639	0.215332
673.0	7.133406	1.147693	7.415972	0.699785	-0.060949	-0.765413	-0.541992	-0.00415	0.217529
674.0	7.037106	2.619225	7.839154	0.810052	-0.098363	-0.686575	-0.546143	-0.008545	0.224121
675.0	7.168904	3.184124	7.834742	0.625731	-0.188218	-0.502969	-0.541748	-0.012695	0.224121
676.0	7.164634	3.877806	8.237587	0.548077	-0.324163	-0.261289	-0.545898	-0.01709	0.219727
677.0	6.809418	3.535252	8.475078	0.345084	-0.498247	-0.029396	-0.537354	-0.012695	0.226318
678.0	5.869031	3.311668	11.396172	-0.479935	-0.771014	0.272093	-0.539795	-0.00415	0.230469
679.0	5.241627	1.833547	6.574042	0.782876	-1.187623	0.254309	-0.545898	-0.013184	0.243652
680.0	7.339315	4.991085	8.957066	-0.510901	-1.299895	0.639017	-0.550537	-0.004639	0.252197
681.0	6.290712	2.123707	8.553521	0.136357	-1.603311	0.774152	-0.544189	-0.002441	0.260986
682.0	6.607564	3.692673	9.292358	-0.248118	-1.873309	0.974819	-0.552979	0.003662	0.271729
683.0	5.796426	2.230896	9.260812	-0.185623	-2.235195	1.135619	-0.553223	0.01001	0.286865
684.0	5.546064	2.668134	10.190051	-0.251771	-2.654562	1.310364	-0.555664	0.018311	0.304199
685.0	5.5404	1.570022	10.423138	-0.379986	-3.108912	1.429719	-0.562744	0.028809	0.317139
686.0	4.701059	0.154354	10.476512	-0.473946	-3.50972	1.39009	-0.556396	0.034912	0.34082
687.0	4.496092	0.477768	10.899181	-0.282091	-4.001787	1.331655	-0.563232	0.043213	0.364746
688.0	3.463576	1.095941	11.903589	-0.315077	-4.479474	1.317706	-0.561279	0.053467	0.39917
689.0	1.512528	1.540607	14.080983	-0.419363	-5.180982	1.240516	-0.558838	0.051025	0.431885
690.0	-2.26891	2.215636	16.14768	-0.6772	-6.236785	1.189058	-0.552734	0.061279	0.4729
691.0	-3.693321	5.649136	11.368343	-1.300358	-7.465174	1.446847	-0.544189	0.066895	0.522705
692.0	-0.146609	-8.380124	4.599209	-1.647604	-8.181307	1.473826	-0.53125	0.074951	0.574707
693.0	8.824702	0.182889	4.25173	0.242175	-9.643531	1.680311	-0.507324	0.078613	0.633301
694.0	26.334449	-0.372936	0.909769	-1.243113	-10.367702	1.620194	-0.481201	0.084473	0.6875
695.0	32.975372	-8.173742	2.052991	-0.846201	-9.324729	1.112622	-0.453125	0.092529	0.72876
696.0	29.321736	-11.673239	5.671132	0.260857	-7.741118	0.330384	-0.431641	0.096436	0.765625
697.0	23.563677	-5.854547	10.167257	1.672551	-6.287026	-0.448145	-0.405518	0.098145	0.793701
698.0	16.715916	-3.782471	9.029272	2.414872	-6.169792	-1.020327	-0.377197	0.100098	0.819824
699.0	18.285794	-1.509847	14.190574	3.713907	-5.669113	-0.816338	-0.356201	0.119385	0.837158
700.0	26.148043	-0.399841	24.289743	3.108852	-1.438668	-0.08287	-0.365234	0.132324	0.830566
701.0	9.075517	6.67002	21.594884	1.307653	1.537824	-0.007465	-0.376221	0.132324	0.81958
702.0	1.502515	-4.924175	14.521994	1.612976	1.898749	0.34472	-0.395996	0.13916	0.802246
703.0	-1.48604	2.122773	14.643378	1.354399	1.900048	0.491966	-0.400879	0.150146	0.784912
704.0	2.061757	-0.199305	13.268379	1.103095	1.919699	0.377776	-0.414063	0.148193	0.760986
705.0	2.486774	0.142312	11.831129	1.402954	2.263599	0.07122	-0.427246	0.152588	0.739258
706.0	4.157973	2.093208	12.223642	1.485996	2.941005	-0.384785	-0.438232	0.150879	0.706787
707.0	4.216801	3.446851	11.950302	1.260489	3.701316	-0.866436	-0.450928	0.140625	0.674316
708.0	3.977465	3.623615	11.240143	0.812804	4.366321	-1.285366	-0.461182	0.123779	0.637451
709.0	4.521409	3.303513	10.226694	0.446917	4.931148	-1.566824	-0.462646	0.103027	0.594238
710.0	4.864398	2.818289	9.097771	0.143083	5.420434	-1.707606	-0.459473	0.073242	0.557617
711.0	5.253039	2.350574	8.067394	-0.029308	5.839102	-1.832729	-0.443359	0.050049	0.527344
712.0	4.807771	2.254353	7.337943	-0.21184	6.1069	-1.894285	-0.44043	0.029053	0.488525
713.0	5.525821	2.188054	6.932835	-0.341227	6.209937	-1.909242	-0.42627	-0.000488	0.464844
714.0	6.326169	2.576344	6.945123	-0.518987	6.286243	-1.895623	-0.405518	-0.02832	0.447754
715.0	7.225116	2.350799	7.055078	-0.748515	6.300344	-1.878004	-0.380615	-0.053711	0.432617
716.0	8.318996	2.45616	7.654117	-0.9578	6.269966	-1.894868	-0.360107	-0.077393	0.432861
717.0	10.078092	1.20461	7.759406	-1.243118	6.133851	-1.914782	-0.344238	-0.098877	0.435059
718.0	11.88126	0.309341	7.96775	-1.30476	6.110916	-2.047144	-0.334229	-0.126953	0.448242
719.0	12.172835	0.491598	8.176744	-1.35822	5.962758	-2.13382	-0.342529	-0.137939	0.461426
720.0	13.395009	0.057985	8.068517	-1.49776	5.720863	-2.172734	-0.357178	-0.15332	0.476563
721.0	13.56784	-0.783781	8.008641	-1.591539	5.433154	-2.105399	-0.37915	-0.146973	0.48291
722.0	13.987722	-1.549615	8.405173	-1.548735	5.049645	-1.911778	-0.414551	-0.13623	0.474121
723.0	16.952029	-0.092038	9.682285	-1.526398	4.685088	-1.491358	-0.441162	-0.123047	0.447998
724.0	20.43533	-0.184336	9.388936	-2.0927	4.66778	-0.918743	-0.468018	-0.103271	0.41748
725.0	18.837255	-2.747696	6.90303	-2.295261	4.63706	-0.362379	-0.486328	-0.081543	0.382813
726.0	16.408979	-2.584353	3.982159	-1.90109	4.099024	0.059563	-0.50708	-0.05542	0.354492
727.0	15.453084	-0.93496	1.889535	-1.551679	3.063629	0.322753	-0.523438	-0.024902	0.330322
728.0	19.121744	1.665335	1.806835	-1.057599	2.070262	0.335288	-0.535645	0.007568	0.317139
729.0	24.73925	3.671377	2.061979	-0.672722	1.792733	0.134547	-0.556885	0.046387	0.301758
730.0	28.459191	6.115019	1.420046	-0.564203	2.316974	-0.099771	-0.569092	0.078857	0.275635
731.0	25.527454	3.026874	-2.30646	-0.853052	3.224437	-0.207616	-0.587402	0.104736	0.269043
732.0	21.089728	-1.122702	-6.017958	-0.403686	3.194811	-0.091348	-0.599365	0.126465	0.240723
733.0	21.575817	-0.672049	-7.198458	0.064846	2.816518	0.189034	-0.608887	0.150635	0.216553
734.0	22.353332	0.247086	-8.272312	0.126842	2.703892	0.526305	-0.62085	0.174316	0.197021
735.0	21.137799	-0.536916	-10.093924	0.407622	2.658818	0.777266	-0.621826	0.196289	0.173096
736.0	17.300902	0.248549	-11.59334	0.951851	2.468016	0.875126	-0.626953	0.218018	0.159912
737.0	13.841836	3.165003	-12.019716	1.091842	1.494678	0.956304	-0.63208	0.237305	0.148926
738.0	13.94718	3.460941	-10.138233	0.491308	0.335466	1.064093	-0.630859	0.263184	0.144531
739.0	16.900877	2.075678	-10.979583	-0.066388	-1.129739	0.910555	-0.634033	0.291016	0.161621
740.0	-4.661852	-2.458858	-7.721782	1.909661	-3.042802	1.081306	-0.648193	0.318604	0.194092
741.0	-17.977161	2.300337	25.584699	1.918532	-6.770434	0.578922	-0.666016	0.334961	0.250244
742.0	42.2301	10.545873	12.679763	2.245206	-5.435844	-0.051072	-0.673584	0.358154	0.267578
743.0	10.638104	0.897372	-5.957853	-0.800636	-2.143489	1.34331	-0.670166	0.383545	0.299805
744.0	20.505135	-1.017925	6.037943	1.434036	-4.734289	1.697461	-0.666748	0.41333	0.330078
745.0	8.926699	13.217865	18.165838	0.329151	-2.516943	1.059989	-0.667725	0.436768	0.349365
746.0	9.09031	-0.139612	1.96409	-0.580448	-2.862635	0.897032	-0.668213	0.455811	0.375488
747.0	18.252089	-2.112568	12.865346	-0.250528	-2.972847	0.675316	-0.671143	0.472656	0.394775
748.0	23.916887	-4.703759	7.395662	-0.02386	-0.609838	-0.845708	-0.672852	0.461914	0.392578
749.0	6.888747	-4.750538	6.310588	0.868189	-0.773304	-0.529268	-0.670898	0.466064	0.401367
750.0	4.764338	8.388895	8.802772	1.126098	-0.605197	-0.547325	-0.671143	0.472412	0.412109
751.0	10.262924	3.591496	7.843368	-0.607172	-0.8139	-0.428654	-0.668945	0.476563	0.418701
752.0	8.770357	-0.370999	6.817982	0.151087	-0.482952	-0.246964	-0.67749	0.472412	0.416504
753.0	8.184507	3.078141	8.062328	-0.101571	-0.401247	-0.150692	-0.67334	0.472412	0.416504
754.0	7.579903	1.085905	7.071123	-0.231851	-0.279216	-0.098485	-0.675537	0.476563	0.425049
755.0	7.554924	1.966136	7.819721	-0.200076	-0.206459	-0.079719	-0.675537	0.47876	0.425049
756.0	7.971869	1.347203	7.198495	-0.317357	-0.171003	-0.018436	-0.675537	0.47876	0.427246
757.0	7.244112	0.515055	7.497821	-0.353488	-0.089739	0.03274	-0.677979	0.480713	0.427246
758.0	6.669282	-0.31855	7.37187	-0.229955	-0.117037	-0.011106	-0.677734	0.474365	0.427246
759.0	7.566008	0.58035	7.348619	-0.139764	-0.087069	-0.016955	-0.680176	0.480713	0.431641
760.0	6.917189	0.532573	7.454104	-0.142128	-0.061968	0.018782	-0.675537	0.476563	0.427246
761.0	7.279908	1.454201	7.60947	-0.130363	-0.056939	0.054592	-0.676025	0.487061	0.436035
762.0	6.835141	0.432475	7.395873	-0.259575	-0.040917	0.110002	-0.682373	0.485107	0.429443
763.0	6.875037	0.792137	7.433347	-0.158407	-0.061988	0.122213	-0.675781	0.48291	0.436035
764.0	6.954801	0.734879	7.288687	-0.208649	-0.057245	0.160048	-0.676025	0.489258	0.433838
765.0	6.821312	0.726468	7.38919	-0.223908	-0.065238	0.183844	-0.673584	0.485107	0.437988
766.0	6.557889	0.209589	7.357042	-0.238862	-0.065073	0.176883	-0.678223	0.489258	0.431641
767.0	6.558959	-0.14944	7.357271	-0.216863	-0.073002	0.135824	-0.68042	0.489258	0.435791
768.0	6.342712	-0.450468	7.318799	-0.138084	-0.093477	0.080099	-0.676025	0.489258	0.442383
769.0	6.2932	-0.462695	7.254089	-0.071013	-0.102952	0.014838	-0.684814	0.493408	0.44458
770.0	6.344391	-0.416191	7.203677	0.010254	-0.121686	-0.055428	-0.682617	0.489258	0.440186
771.0	6.239206	-0.437783	7.185357	0.091418	-0.143823	-0.121711	-0.68042	0.489258	0.442383
772.0	6.337175	-0.525326	7.115734	0.196325	-0.169367	-0.191506	-0.678223	0.489258	0.446777
773.0	6.760985	0.337818	7.291984	0.272676	-0.179045	-0.219563	-0.682617	0.489258	0.44458
774.0	6.732229	0.119602	7.226149	0.229143	-0.164244	-0.236576	-0.680176	0.487061	0.448975
775.0	6.881966	0.441738	7.209739	0.301496	-0.150404	-0.253857	-0.674072	0.493408	0.446777
776.0	6.844452	0.562656	7.230341	0.25669	-0.134324	-0.251633	-0.671387	0.484863	0.448975
777.0	6.939245	0.492234	7.160116	0.282564	-0.126341	-0.259645	-0.67334	0.474121	0.448975
778.0	6.858789	0.608329	7.191519	0.280298	-0.114105	-0.254399	-0.684082	0.476074	0.453369
779.0	6.884889	0.396477	7.189626	0.269749	-0.110369	-0.260496	-0.682373	0.482666	0.453369
780.0	6.69809	0.494667	7.318671	0.262855	-0.11394	-0.279102	-0.684326	0.478271	0.446777
781.0	6.877239	0.144381	7.083237	0.303668	-0.10919	-0.306648	-0.675781	0.482666	0.453369
782.0	6.780362	0.313893	7.138081	0.325616	-0.109891	-0.341937	-0.677734	0.478271	0.451172
783.0	6.874472	0.084413	7.08778	0.365114	-0.115099	-0.383007	-0.677734	0.480469	0.451172
784.0	6.892536	0.448926	7.237476	0.45678	-0.114336	-0.420645	-0.681885	0.474121	0.448975
785.0	7.200681	0.961719	7.344873	0.458939	-0.11944	-0.414572	-0.675537	0.476074	0.455566
786.0	6.970942	1.295852	7.548881	0.422299	-0.133208	-0.387098	-0.67749	0.471924	0.44458
787.0	7.20614	1.385142	7.580442	0.412268	-0.180621	-0.345708	-0.673096	0.467773	0.446777
788.0	7.072098	2.388215	7.846261	0.396338	-0.232574	-0.262123	-0.67749	0.469727	0.453369
789.0	6.882906	2.549038	7.780548	0.27679	-0.311891	-0.125996	-0.67749	0.474121	0.451172
790.0	7.246101	2.322566	7.701884	0.247585	-0.417303	0.011222	-0.670654	0.465332	0.457764
791.0	6.409441	3.819698	8.857805	0.217411	-0.543672	0.182402	-0.670898	0.467529	0.455566
792.0	5.390037	4.173395	8.800162	-0.198242	-0.908344	0.434435	-0.668945	0.478271	0.466309
793.0	5.840953	-0.092124	7.85814	-0.563181	-1.110656	0.599699	-0.671143	0.480225	0.474854
794.0	8.139072	5.228177	9.25473	0.156234	-1.405787	0.707389	-0.671143	0.47998	0.48584
795.0	6.537437	2.252557	7.921212	-0.376768	-1.493351	0.962936	-0.665039	0.488525	0.496582
796.0	6.504669	3.787687	9.069771	-0.205336	-1.797788	1.128705	-0.66748	0.494873	0.507324
797.0	5.767751	2.810623	9.281404	-0.543692	-2.098752	1.348803	-0.663574	0.507568	0.526855
798.0	5.558459	2.57733	9.632932	-0.511683	-2.496992	1.509152	-0.661621	0.515869	0.544189
799.0	5.368139	2.672611	10.580932	-0.626993	-2.923097	1.674427	-0.657471	0.52417	0.565918
800.0	4.770685	1.748752	11.045773	-0.723655	-3.455722	1.811338	-0.651367	0.532471	0.5896
801.0	2.799165	1.176206	11.514474	-0.850028	-4.062496	1.836622	-0.647461	0.551514	0.619873
802.0	2.575289	3.915543	14.064122	-0.844396	-4.977576	1.930087	-0.639404	0.568115	0.656738
803.0	0.026765	7.673899	15.102744	-1.732526	-5.927356	2.293997	-0.62915	0.584717	0.704346
804.0	-1.128601	1.003507	10.369527	-3.034121	-6.713369	2.716198	-0.612305	0.603516	0.764893
805.0	0.497889	-11.511038	6.481582	-1.589496	-7.316797	2.355287	-0.582764	0.628662	0.814697
806.0	3.282047	0.275815	8.860103	-0.522163	-8.340701	2.423535	-0.546387	0.649414	0.875244
807.0	15.652971	-2.883917	6.188556	-1.950787	-9.782687	2.357498	-0.499023	0.665771	0.946777
808.0	29.432616	-12.419453	2.086369	-1.728576	-9.363848	1.841367	-0.455566	0.671875	1.000977
809.0	27.92059	-12.154198	4.572996	0.060048	-8.231928	0.884809	-0.418701	0.677979	1.029297
810.0	25.360668	-5.683362	9.038534	1.771736	-7.121279	-0.014539	-0.390381	0.679932	1.044434
811.0	21.201993	-1.399491	12.468063	2.099977	-6.359738	-0.521615	-0.368164	0.669189	1.048828
812.0	15.770593	-4.913462	10.102185	2.80925	-5.58823	-0.734802	-0.360107	0.682129	1.053223
813.0	26.436971	5.787688	22.668614	2.487384	-3.057635	-0.302266	-0.372559	0.667236	1.04248
814.0	6.552033	9.74989	22.909426	1.376076	1.433871	-0.921406	-0.421631	0.643555	1.035889
815.0	3.932782	-2.151412	14.580022	-1.273629	1.371796	-1.402931	-0.464111	0.613281	1.022949
816.0	-3.924341	-1.659872	12.33462	0.114077	1.518941	-1.41184	-0.506836	0.589844	1.007813
817.0	0.80625	-0.872584	11.602551	-0.310022	1.271148	-1.678194	-0.549316	0.563965	0.994873
818.0	2.302234	-2.984946	10.155112	0.099922	1.501252	-1.768633	-0.585449	0.540283	0.979736
819.0	3.574047	-2.587813	9.840688	0.737314	1.87319	-1.862908	-0.636719	0.516846	0.949463
820.0	3.781501	-1.723758	9.722392	1.162537	2.461697	-1.935673	-0.681641	0.489258	0.908447
821.0	3.949973	0.391045	9.968184	1.413466	2.948189	-1.972139	-0.722168	0.470215	0.869385
822.0	4.649975	2.251618	10.157496	1.147689	3.45716	-1.93741	-0.753662	0.436523	0.813232
823.0	5.748317	2.953501	10.034566	0.614842	4.046241	-1.882616	-0.791748	0.405029	0.750488
824.0	5.871962	2.289911	9.3277	0.078963	4.650936	-1.87609	-0.81665	0.366943	0.689941
825.0	5.605725	1.519467	8.521978	-0.16891	5.140115	-1.90874	-0.8396	0.335693	0.609863
826.0	5.638569	2.050317	8.050994	-0.349245	5.4625	-1.900147	-0.844971	0.304443	0.53833
827.0	6.549075	2.455897	7.274383	-0.689857	5.616788	-1.932366	-0.844238	0.277588	0.458252
828.0	6.420517	3.022746	7.204196	-1.127984	5.782041	-1.897352	-0.822021	0.263428	0.38916
829.0	7.405891	1.788977	6.855124	-1.544151	5.748777	-1.904903	-0.79541	0.251465	0.326416
830.0	8.910835	-0.312426	6.531819	-1.583451	5.674694	-1.913841	-0.758545	0.250244	0.274414
831.0	9.997622	-1.003712	7.146927	-1.687299	5.683829	-1.984715	-0.717285	0.249023	0.224609
832.0	12.111868	-1.269283	5.934256	-1.340305	5.548427	-1.822832	-0.671143	0.23877	0.192139
833.0	13.403665	0.419051	8.411804	-1.200541	5.627397	-1.696459	-0.616211	0.219971	0.166504
834.0	13.060994	-0.648874	7.15422	-1.411903	5.527368	-1.371968	-0.571777	0.196533	0.168701
835.0	14.059234	-0.068064	7.304797	-1.392474	5.444587	-1.022595	-0.524658	0.166504	0.177734
836.0	12.013143	-1.357662	7.127226	-1.427236	5.090641	-0.636389	-0.49292	0.13208	0.184326
837.0	12.950377	-1.010469	8.355788	-1.230485	4.673269	-0.300069	-0.461182	0.097412	0.208496
838.0	16.309258	0.256193	9.763168	-1.18032	4.444239	-0.057475	-0.446533	0.062744	0.230469
839.0	17.521975	1.553247	9.170116	-1.416961	4.55182	0.147767	-0.443115	0.032471	0.247803
840.0	15.312419	1.886444	7.400001	-1.828058	4.386654	0.404492	-0.446777	0.010986	0.248047
841.0	14.820959	-0.587501	5.133975	-1.947548	3.783423	0.607403	-0.456543	-0.015137	0.259033
842.0	15.300548	-1.078154	4.212945	-1.428066	3.035457	0.592941	-0.464844	-0.023926	0.265381
843.0	17.995449	-0.193082	4.00002	-0.803396	2.343878	0.369833	-0.475342	-0.034668	0.265381
844.0	23.153308	2.873706	3.959535	-0.184128	2.193354	0.03846	-0.485596	-0.051758	0.265625
845.0	25.398846	5.854259	2.224946	-0.313078	2.731859	-0.286822	-0.502686	-0.0625	0.250488
846.0	23.025298	4.339598	-1.069533	-0.747015	3.197317	-0.452386	-0.512939	-0.077393	0.237549
847.0	21.518061	1.051303	-4.281582	-0.755664	3.190696	-0.489978	-0.517334	-0.077148	0.222168
848.0	21.263789	-0.383774	-6.824119	-0.464571	3.016019	-0.375308	-0.525879	-0.085693	0.205078
849.0	21.405608	0.266276	-8.908357	-0.111725	2.825057	-0.089037	-0.519531	-0.078857	0.185547
850.0	20.508492	-0.19574	-11.444386	0.231146	2.605709	0.150756	-0.532471	-0.085205	0.170166
851.0	17.33086	0.663213	-14.081452	0.903696	2.168642	0.217749	-0.532471	-0.084961	0.161621
852.0	13.637757	2.798223	-15.14054	1.225278	0.964206	0.164173	-0.534668	-0.087158	0.163818
853.0	17.845357	5.205132	-13.346549	1.221541	-0.494327	0.081126	-0.538818	-0.089355	0.168213
854.0	21.185066	5.661327	-10.653689	0.851183	-0.979552	-0.1119	-0.549072	-0.104736	0.181152
855.0	14.780434	8.960348	-4.727262	0.863448	-1.4276	-0.270247	-0.555664	-0.10083	0.200684
856.0	-19.122179	7.321687	26.099013	0.118118	-1.687346	-0.216479	-0.557617	-0.107422	0.213623
857.0	-36.465156	-4.359525	22.220828	-0.072515	-6.527819	-2.137447	-0.568115	-0.114746	0.281006
858.0	62.130481	11.573059	-0.803494	3.231814	-5.69731	-1.55085	-0.573975	-0.12793	0.29834
859.0	4.649313	-1.110636	-7.071015	-2.93756	-1.782374	1.68934	-0.581055	-0.113281	0.324219
860.0	20.02813	-4.488804	14.893256	1.173539	-4.723786	1.37308	-0.583252	-0.111572	0.348145
861.0	7.88322	11.481193	15.397433	-0.292289	-2.308529	0.798693	-0.585938	-0.101074	0.369629
862.0	10.472364	-3.784275	0.156418	-0.831282	-3.084592	0.801823	-0.590332	-0.099121	0.384766
863.0	15.965772	-3.62446	16.151997	-0.661906	-2.862212	0.848118	-0.594727	-0.095215	0.410889
864.0	23.14524	-7.234996	5.334199	0.123416	-0.973084	-0.285427	-0.592285	-0.099609	0.417236
865.0	10.614586	-1.192357	7.277828	0.808742	-0.848619	-0.318579	-0.588135	-0.097412	0.421631
866.0	2.58282	4.878382	8.157897	0.671489	-0.550671	-0.321764	-0.594238	-0.104004	0.43042
867.0	10.753921	3.778722	8.176382	-0.21631	-0.978486	-0.435443	-0.592041	-0.104004	0.434814
868.0	9.242059	-0.919935	6.693994	0.016641	-0.410395	-0.315051	-0.594238	-0.104004	0.432617
869.0	7.19203	2.5861	8.018197	0.141286	-0.359585	-0.296694	-0.592041	-0.106445	0.443359
870.0	7.896332	2.129174	7.501991	-0.115194	-0.281711	-0.271346	-0.5896	-0.110596	0.443359
871.0	8.128608	1.166913	7.295773	-0.192466	-0.196246	-0.198492	-0.591797	-0.108398	0.443359
872.0	7.567671	0.581255	7.412098	-0.123195	-0.126946	-0.15823	-0.585205	-0.112793	0.438965
873.0	7.219145	0.834048	7.497252	-0.101069	-0.110445	-0.15494	-0.592041	-0.108398	0.438965
874.0	7.086781	0.717883	7.408133	-0.093122	-0.099578	-0.158559	-0.589355	-0.116943	0.441162
875.0	7.010658	0.436843	7.350294	-0.074545	-0.092339	-0.156133	-0.589355	-0.116943	0.441162
876.0	7.035362	0.415596	7.267776	-0.006304	-0.070407	-0.153457	-0.587158	-0.119141	0.443359
877.0	6.92266	0.991304	7.500067	0.006453	-0.059548	-0.144497	-0.589355	-0.11499	0.449951
878.0	6.960801	0.730206	7.3125	-0.016648	-0.065885	-0.133402	-0.586914	-0.123535	0.449951
879.0	6.86202	0.951602	7.326349	0.008457	-0.05059	-0.122061	-0.582764	-0.116943	0.443359
880.0	6.692917	0.96902	7.292037	-0.025751	-0.038155	-0.114558	-0.587158	-0.116943	0.441162
881.0	6.530923	0.84066	7.284133	-0.037122	-0.026762	-0.13244	-0.584961	-0.121338	0.445557
882.0	6.359535	0.426923	7.351308	-0.064081	-0.008447	-0.173031	-0.586914	-0.123535	0.447754
883.0	6.270941	0.038018	7.277303	-0.03355	0.005519	-0.251659	-0.582764	-0.119385	0.447754
884.0	6.215397	-0.10715	7.263562	0.026825	0.026336	-0.332025	-0.589111	-0.123535	0.445557
885.0	6.191649	0.153922	7.141578	0.102159	0.026988	-0.403242	-0.589111	-0.12793	0.441406
886.0	6.166439	0.391668	7.123492	0.15742	0.022139	-0.449978	-0.584473	-0.134277	0.447754
887.0	6.282538	0.870729	7.207614	0.1913	0.011703	-0.46762	-0.577881	-0.136475	0.447998
888.0	6.608212	1.091631	7.086366	0.173956	0.004331	-0.450422	-0.579834	-0.136475	0.449951
889.0	6.455179	0.946767	7.145558	0.124092	-0.009557	-0.414784	-0.575684	-0.136475	0.447998
890.0	6.38146	0.708517	7.041079	0.151592	-0.027677	-0.391679	-0.568848	-0.142822	0.452393
891.0	6.543797	0.96401	7.292978	0.151683	-0.044175	-0.38252	-0.564209	-0.147217	0.45459
892.0	6.695655	0.873653	7.160996	0.14103	-0.006489	-0.370355	-0.568115	-0.160156	0.452393
893.0	6.71843	0.668169	7.056608	0.164859	0.021604	-0.377671	-0.570068	-0.164551	0.456787
894.0	6.980711	0.602119	6.921639	0.243269	0.049835	-0.393735	-0.578857	-0.162354	0.45874
895.0	7.292557	1.302406	7.012279	0.379518	0.091821	-0.385788	-0.579102	-0.160156	0.456787
896.0	7.35817	1.671563	7.431079	0.369472	0.152457	-0.34692	-0.578857	-0.162354	0.460938
897.0	6.938684	1.740662	7.455552	0.410253	0.118616	-0.294147	-0.574707	-0.157959	0.45459
898.0	7.05113	2.285267	7.70072	0.31326	0.053399	-0.217202	-0.572266	-0.162354	0.460938
899.0	6.77997	1.745664	7.65995	0.262239	-0.002244	-0.148974	-0.572266	-0.164551	0.456787
900.0	6.717922	1.808042	7.685167	0.276485	-0.05936	-0.114121	-0.574463	-0.164551	0.463135
901.0	6.543689	2.161749	8.088982	0.250286	-0.121832	-0.077366	-0.570068	-0.164551	0.460938
902.0	6.577679	1.936051	7.659655	0.176392	-0.228072	-0.025116	-0.570313	-0.160156	0.460938
903.0	6.591716	2.095947	7.924338	0.207168	-0.280922	0.032943	-0.565918	-0.162354	0.465332
904.0	6.62019	2.02377	7.933952	0.196317	-0.35716	0.080762	-0.574463	-0.162598	0.469727
905.0	6.854362	2.330226	8.086189	0.157802	-0.454715	0.148989	-0.570313	-0.1604	0.469727
906.0	6.526631	2.287584	8.139635	0.133718	-0.538336	0.210799	-0.57251	-0.15625	0.476074
907.0	6.56724	2.611494	8.224247	0.152344	-0.662647	0.296678	-0.570313	-0.15625	0.478271
908.0	5.4653	3.413752	9.258518	-0.046939	-0.930462	0.491365	-0.579346	-0.147705	0.480469
909.0	6.15973	2.802171	8.633892	-0.156174	-1.287063	0.670078	-0.572998	-0.145752	0.493408
910.0	6.93896	3.466445	8.175371	-0.21219	-1.485155	0.812423	-0.572998	-0.141602	0.502197
911.0	5.82925	0.944417	8.310093	-0.454759	-1.608445	0.933967	-0.577637	-0.139404	0.508545
912.0	7.144094	3.615576	9.43678	-0.021079	-1.964334	1.001929	-0.571289	-0.128906	0.521484
913.0	5.630792	1.737774	9.291956	-0.424674	-2.176551	1.142921	-0.576172	-0.114014	0.530029
914.0	5.240427	1.030799	9.817921	-0.123324	-2.630556	1.172247	-0.576416	-0.112061	0.547363
915.0	4.988536	2.67817	11.53033	-0.189355	-3.194726	1.310621	-0.574463	-0.103516	0.564697
916.0	3.712578	-0.740397	11.270764	-0.388813	-3.780977	1.284883	-0.572754	-0.088867	0.588623
917.0	3.625377	0.510284	12.043228	0.02051	-4.524653	1.147867	-0.562012	-0.082764	0.614502
918.0	2.256038	2.766363	14.572939	-0.173989	-5.271975	1.198449	-0.557861	-0.074463	0.644775
919.0	-0.758897	2.079134	16.447859	-0.544971	-6.369691	1.193018	-0.542969	-0.066406	0.683838
920.0	-3.631407	5.606141	14.908457	-0.855223	-7.691682	1.421022	-0.519287	-0.053955	0.729248
921.0	-2.636779	-1.759473	7.911617	-1.754586	-8.281339	1.62062	-0.501953	-0.050293	0.772705
922.0	3.82556	-7.975664	5.744313	-0.095848	-9.151572	1.414585	-0.465332	-0.042236	0.818359
923.0	18.216133	-4.128273	2.317978	-0.218815	-10.42407	1.145807	-0.419922	-0.029785	0.876709
924.0	34.047336	-10.006611	2.703211	0.145064	-9.755799	0.394748	-0.378418	-0.030273	0.915771
925.0	27.203009	-11.245991	3.252556	2.353033	-8.26702	-0.570053	-0.33374	-0.002686	0.954834
926.0	23.448377	2.088694	12.254986	3.873018	-7.726606	-0.85394	-0.305908	0.01001	0.98291
927.0	19.239843	0.942694	9.217299	3.91981	-7.346842	-0.979713	-0.252686	0.044434	1.004639
928.0	19.93587	6.567776	16.038746	4.424484	-5.84403	-0.942426	-0.238525	0.072266	1.015381
929.0	27.067199	13.281665	27.727364	0.585769	-0.709931	-0.42554	-0.251465	0.067871	1.013184
930.0	7.270148	9.048124	22.82107	-1.152226	2.544675	-0.876534	-0.272949	0.059326	1.000244
931.0	-0.040739	-10.13135	13.218312	-1.242619	2.593467	-0.869338	-0.297119	0.063721	0.984863
932.0	-3.411467	-3.407931	13.114691	0.47772	2.489704	-0.756867	-0.321045	0.068115	0.969727
933.0	1.532492	-0.705952	12.62156	0.581205	2.407874	-0.788359	-0.341064	0.074707	0.954346
934.0	3.221101	-1.76315	10.873602	0.66717	2.786486	-0.727338	-0.365234	0.083496	0.945557
935.0	5.243725	-0.471663	10.314414	0.974519	3.384204	-0.681616	-0.385498	0.094482	0.921631
936.0	5.721951	0.233743	9.988016	0.897637	4.114145	-0.707144	-0.41626	0.101074	0.908691
937.0	5.133204	0.376073	9.655517	0.795899	4.71144	-0.783927	-0.442627	0.109863	0.878174
938.0	4.603602	0.168866	9.107681	0.652952	5.127398	-0.887061	-0.471436	0.118896	0.847656
939.0	4.576277	0.535253	8.843695	0.626803	5.397554	-0.963894	-0.502197	0.123535	0.812988
940.0	5.97485	1.727191	8.602512	0.443027	5.677491	-0.995384	-0.532715	0.123779	0.773926
941.0	6.820241	2.386662	7.932307	0.034031	6.089597	-1.008988	-0.55249	0.126465	0.728271
942.0	6.976355	2.266905	7.120448	-0.467594	6.392498	-1.010725	-0.580811	0.122559	0.691406
943.0	6.507003	1.898923	6.668497	-0.848819	6.5085	-0.961759	-0.593994	0.123047	0.650391
944.0	6.695541	1.30198	6.710109	-1.064517	6.428306	-0.91013	-0.615479	0.11499	0.606934
945.0	7.004555	1.339913	7.388049	-1.417329	6.320489	-0.793975	-0.626465	0.117676	0.574463
946.0	10.250989	0.01945	7.422217	-0.927005	6.035752	-1.012887	-0.645752	0.109375	0.544189
947.0	11.989536	1.965383	8.488117	-1.296721	6.036512	-0.998403	-0.669678	0.101074	0.507324
948.0	12.873462	0.589582	7.959675	-1.372036	5.892499	-1.005622	-0.68042	0.095215	0.463867
949.0	12.938587	0.974941	8.192169	-1.543599	5.69839	-0.812254	-0.704346	0.093506	0.427002
950.0	12.866517	0.275569	8.620947	-1.600631	5.366473	-0.627359	-0.712891	0.0896	0.398926
951.0	13.595327	-0.065924	9.449725	-1.509776	4.899774	-0.526449	-0.726074	0.090088	0.355469
952.0	17.675324	2.843266	10.890744	-1.407873	4.566772	-0.546209	-0.741699	0.099121	0.318604
953.0	19.228334	4.171676	9.460836	-1.981085	4.733748	-0.573637	-0.757568	0.112549	0.283691
954.0	16.753572	3.222611	6.758567	-2.325393	4.461738	-0.572634	-0.76416	0.115234	0.244629
955.0	16.446324	2.307835	4.550268	-2.451102	3.794457	-0.471032	-0.771729	0.134766	0.216553
956.0	17.839227	0.465676	3.075402	-2.355208	2.954327	-0.411157	-0.7854	0.148193	0.179443
957.0	22.379136	-0.888223	2.592493	-1.748918	2.300911	-0.460249	-0.78125	0.155029	0.14917
958.0	27.866108	-0.137976	1.861939	-1.248938	2.443785	-0.490518	-0.783936	0.16626	0.116455
959.0	27.12132	0.708568	-0.644873	-0.955243	3.144998	-0.37507	-0.773438	0.175537	0.075439
960.0	23.603784	-1.296127	-4.242598	-0.993915	3.412037	-0.087921	-0.769531	0.184814	0.027588
961.0	22.770491	-2.715452	-6.53139	-0.194335	3.251678	0.216633	-0.750488	0.193848	-0.002686
962.0	22.010635	0.068307	-7.429329	0.25315	3.177426	0.445573	-0.735596	0.200928	-0.035156
963.0	19.432079	-0.29496	-10.240991	0.528359	2.914444	0.556857	-0.718018	0.199219	-0.067627
964.0	16.115989	-0.102792	-13.191074	1.111836	2.199591	0.552078	-0.707275	0.20166	-0.091553
965.0	14.342114	1.935591	-14.166246	1.656843	0.922067	0.481249	-0.698486	0.19751	-0.098145
966.0	17.39736	4.975038	-11.989062	1.541041	-0.304867	0.433565	-0.698486	0.195313	-0.095947
967.0	16.967026	6.394221	-8.487237	1.231446	-1.190356	0.331474	-0.707275	0.20166	-0.084961
968.0	9.038901	-1.511789	-10.124976	0.75137	-2.326738	0.296489	-0.713623	0.195068	-0.074219
969.0	-24.217848	1.743467	24.307046	2.154133	-4.512995	0.885478	-0.72876	0.196533	-0.026611
970.0	11.434638	2.77213	15.518341	1.72538	-7.417986	-0.297179	-0.759033	0.193359	0.027588
971.0	39.969859	5.159614	3.429685	1.360397	-2.727062	1.098738	-0.757324	0.201904	0.029785
972.0	7.306878	-6.31856	-3.341914	0.169528	-3.243405	2.985375	-0.762207	0.2229	0.068604
973.0	18.656639	-1.384716	15.014227	1.843529	-3.565681	2.923853	-0.763184	0.246338	0.088135
974.0	8.029715	8.342614	12.707697	0.801774	-2.056213	2.536078	-0.770264	0.263428	0.10083
975.0	9.770852	-4.02421	1.486947	0.696227	-2.532082	2.545063	-0.770996	0.282471	0.126953
976.0	16.692227	9.895737	9.302765	2.945931	-2.859867	0.945369	-0.775146	0.275879	0.135498
977.0	22.104514	23.4559	15.803959	-1.768796	-0.300222	-2.005573	-0.779053	0.26709	0.146484
978.0	4.544888	-28.653308	-1.482336	-2.175886	-0.741796	-0.255227	-0.779053	0.26709	0.148682
979.0	7.596169	12.578949	11.204979	4.302745	-0.781678	-0.821434	-0.782715	0.251953	0.153076
980.0	8.613558	8.779171	8.936776	-2.260302	-0.632805	-0.345884	-0.780762	0.258301	0.161621
981.0	9.593509	-6.053478	4.547197	0.336492	-0.421665	-0.283263	-0.787109	0.251709	0.159424
982.0	7.698444	7.639698	9.390695	0.128471	-0.301028	-0.117571	-0.787109	0.249512	0.168213
983.0	7.819206	0.777477	6.750271	-0.633102	-0.227102	0.012149	-0.780762	0.258057	0.17041
984.0	7.340015	0.039671	7.354506	-0.309487	-0.163785	0.051975	-0.787354	0.255859	0.168213
985.0	6.579091	0.69573	7.505161	-0.243789	-0.126536	0.019334	-0.780762	0.258057	0.174561
986.0	6.676043	0.162384	7.598288	-0.300571	-0.111463	-0.004166	-0.785156	0.255859	0.172363
987.0	6.130788	-0.048048	7.538309	-0.181996	-0.145784	-0.082856	-0.787354	0.257813	0.181152
988.0	6.095797	-0.616216	7.404587	-0.155581	-0.215044	-0.19825	-0.787109	0.253662	0.176758
989.0	5.818208	-1.551026	7.143717	0.002262	-0.281716	-0.33448	-0.791504	0.251465	0.18335
990.0	5.868048	-0.966046	7.202523	0.252094	-0.301446	-0.471267	-0.791016	0.238525	0.181152
991.0	6.563555	0.458242	7.362391	0.281928	-0.265856	-0.54813	-0.788818	0.240723	0.185547
992.0	6.801534	1.026443	7.130621	0.283734	-0.184282	-0.529522	-0.797119	0.231934	0.181152
993.0	6.540268	0.763737	7.688029	0.162442	-0.225496	-0.534936	-0.794922	0.231934	0.187744
994.0	7.064267	-0.20744	7.020242	0.2177	-0.184103	-0.577065	-0.796631	0.216797	0.189941
995.0	7.053734	1.059347	7.359962	0.326035	-0.110569	-0.610297	-0.794434	0.216797	0.192139
996.0	7.259626	0.813867	7.128265	0.232345	-0.018186	-0.610704	-0.796387	0.212646	0.192139
997.0	7.434469	0.819366	7.05775	0.312576	0.056934	-0.608917	-0.793945	0.203857	0.192139
998.0	7.259352	1.795485	7.333173	0.36637	0.121887	-0.55403	-0.795898	0.199707	0.192139
999.0	7.183311	1.797948	7.36822	0.261051	0.112084	-0.471231	-0.798096	0.19751	0.183594
1000.0	6.993405	2.327311	7.343914	0.314667	0.117663	-0.373034	-0.795654	0.193359	0.185791
1001.0	7.025072	3.00034	7.439839	0.150684	0.075014	-0.240935	-0.795654	0.190918	0.192383
1002.0	6.732165	2.387089	7.182685	0.079026	0.065975	-0.132834	-0.789063	0.191162	0.192383
1003.0	6.784171	2.685633	7.455534	0.013413	0.030857	-0.040529	-0.79126	0.193115	0.192383
1004.0	6.610911	1.642573	7.237485	-0.083184	0.015607	0.024311	-0.793701	0.199707	0.192139
1005.0	6.690771	1.77932	7.232202	-0.02061	-0.001009	0.047043	-0.787109	0.193359	0.185791
1006.0	6.586964	1.89123	7.369654	-0.056358	-0.004507	0.095282	-0.78418	0.176025	0.185791
1007.0	6.686851	1.101889	7.590827	-0.139133	-0.011566	0.106167	-0.792969	0.176025	0.192383
1008.0	6.377147	0.312916	7.450216	-0.07368	-0.003656	0.05403	-0.803711	0.176025	0.192383
1009.0	6.57706	0.901696	7.412011	0.020724	-0.020375	0.005048	-0.795654	0.193115	0.192383
1010.0	6.590524	1.178262	7.445247	0.0174	-0.024998	-0.014844	-0.797607	0.188965	0.187988
1011.0	6.586193	0.894713	7.28431	0.046262	-0.036864	-0.036228	-0.799805	0.188965	0.192383
1012.0	6.621534	1.08283	7.422623	0.092574	-0.047422	-0.048689	-0.793457	0.190918	0.192383
1013.0	6.558459	1.095036	7.448721	0.111714	-0.059497	-0.057261	-0.797852	0.195313	0.190186
1014.0	6.586316	1.123426	7.489381	0.138028	-0.108799	-0.071221	-0.793457	0.190918	0.192383
1015.0	6.541632	1.184525	7.541077	0.17776	-0.10523	-0.071274	-0.795654	0.190918	0.194336
1016.0	6.677555	1.029033	7.463175	0.195923	-0.148807	-0.08548	-0.795166	0.182373	0.19458
1017.0	6.55696	1.21057	7.625438	0.27322	-0.157921	-0.098759	-0.797607	0.186768	0.192383
1018.0	6.730101	1.24483	7.682567	0.280888	-0.210935	-0.084999	-0.799561	0.182373	0.187988
1019.0	6.389827	1.86282	8.082318	0.36122	-0.270889	-0.071096	-0.79541	0.186768	0.192383
1020.0	6.824683	1.735226	8.086794	0.298396	-0.392955	-0.030664	-0.799805	0.186523	0.196533
1021.0	6.501406	1.932686	8.308694	0.392444	-0.512999	-0.001533	-0.801758	0.182129	0.211914
1022.0	5.443527	3.29401	9.071255	0.176223	-0.78744	0.120195	-0.801758	0.180176	0.205322
1023.0	4.991827	-0.199723	9.237065	-0.779955	-1.06551	0.304566	-0.797363	0.184082	0.227051
1024.0	6.368068	3.286514	7.79389	1.147491	-1.512569	0.096309	-0.799805	0.186035	0.237793
1025.0	7.036393	4.403168	8.486129	-0.419026	-1.548373	0.449938	-0.802002	0.190186	0.246338
1026.0	6.208951	2.124349	7.862354	0.393472	-1.806228	0.557182	-0.804199	0.192139	0.263672
1027.0	6.836338	5.025401	8.959653	0.080238	-2.033329	0.82823	-0.806641	0.202637	0.283203
1028.0	6.240087	3.591639	9.211043	0.010211	-2.379565	1.113453	-0.809326	0.213135	0.302734
1029.0	5.804798	3.433407	10.44997	-0.129008	-2.801213	1.353451	-0.80542	0.22583	0.326416
1030.0	4.514996	0.881407	10.227529	-0.232238	-3.258202	1.385884	-0.799072	0.231934	0.352539
1031.0	4.881193	2.428954	11.296084	0.006596	-3.809124	1.383884	-0.799805	0.250732	0.382813
1032.0	4.273934	2.152975	11.385444	-0.243566	-4.39044	1.431912	-0.795654	0.259033	0.415283
1033.0	2.704779	1.840304	12.668592	-0.30394	-5.035558	1.421478	-0.789307	0.269043	0.460693
1034.0	0.571637	1.048453	14.750173	-0.626095	-5.857803	1.362332	-0.778564	0.274902	0.508301
1035.0	-2.807808	0.62111	16.731364	-0.730935	-6.962541	1.301112	-0.754883	0.287109	0.569092
1036.0	-4.114033	2.494571	11.575796	-0.863398	-8.151198	1.45905	-0.733154	0.290771	0.627441
1037.0	1.718765	-4.715232	3.525133	-1.059417	-9.065347	1.52857	-0.702881	0.300537	0.701172
1038.0	17.431453	0.297711	2.325227	0.229534	-10.341294	1.618506	-0.657227	0.302246	0.757568
1039.0	34.118308	-1.019823	3.391841	-1.339987	-10.038946	1.427946	-0.609131	0.303467	0.833496
1040.0	33.321265	-7.938049	4.35721	-0.904935	-8.232431	0.89633	-0.582764	0.298584	0.881348
1041.0	25.634821	-6.839308	8.02076	0.479557	-6.790577	0.197062	-0.543457	0.296143	0.907471
1042.0	20.309462	-6.061409	9.764314	1.66111	-6.159832	-0.506588	-0.512695	0.289551	0.933594
1043.0	14.663583	0.296291	11.755218	3.317404	-5.500263	-0.905886	-0.482666	0.304688	0.944336
1044.0	28.005211	7.091544	23.97771	1.168931	-2.454253	-0.404856	-0.47998	0.291504	0.950928
1045.0	9.054263	5.963244	23.68041	0.999611	1.59127	-0.52532	-0.49292	0.2854	0.933594
1046.0	2.871391	-2.459788	14.650142	-1.122619	1.746899	-0.483038	-0.500732	0.263916	0.927246
1047.0	-0.818994	-3.722735	13.168118	0.684948	2.140196	-0.322979	-0.513428	0.253418	0.901123
1048.0	1.283351	1.897737	13.143028	0.569535	2.142446	-0.397811	-0.52832	0.244873	0.896973
1049.0	2.814059	1.625109	11.616325	0.317289	2.526876	-0.484408	-0.54541	0.234375	0.875244
1050.0	3.111735	1.933603	10.281765	0.408348	3.085591	-0.61022	-0.555908	0.223633	0.860107
1051.0	3.550786	3.704586	10.208279	0.192779	3.692755	-0.773883	-0.577637	0.217529	0.832031
1052.0	3.162295	3.166672	9.284658	-0.08313	4.24793	-0.992737	-0.603027	0.196289	0.803711
1053.0	3.241008	3.275305	8.785679	-0.205732	4.641977	-1.142091	-0.62207	0.181641	0.777832
1054.0	3.749345	3.792101	8.347697	-0.314049	4.9432	-1.199407	-0.645508	0.168945	0.740967
1055.0	4.648727	3.956081	7.708247	-0.485666	5.244294	-1.212179	-0.664551	0.150146	0.697754
1056.0	4.754919	4.291611	7.108526	-0.584764	5.531442	-1.216012	-0.687988	0.137695	0.663086
1057.0	5.515373	5.131309	6.886363	-0.753512	5.683495	-1.199805	-0.698486	0.121094	0.619873
1058.0	6.434088	5.479185	6.770684	-1.066306	5.881719	-1.160035	-0.717285	0.102295	0.572266
1059.0	6.282031	4.5183	6.641498	-1.277815	5.991746	-1.146654	-0.727783	0.089844	0.526611
1060.0	6.908449	4.314719	7.090553	-1.20253	5.93552	-1.174236	-0.738281	0.075439	0.479004
1061.0	8.51316	4.160745	7.489994	-1.159305	5.841697	-1.31673	-0.741943	0.05249	0.429199
1062.0	10.067179	3.991339	7.784419	-1.032375	5.804024	-1.565915	-0.745605	0.033691	0.379639
1063.0	11.427092	4.219148	8.023939	-0.965889	5.772281	-1.801352	-0.74707	0.015137	0.332031
1064.0	12.917421	4.647582	8.317665	-1.112566	5.702987	-1.850476	-0.742188	-0.003662	0.282227
1065.0	13.463953	3.010176	8.168983	-1.266112	5.637376	-1.778037	-0.728516	-0.022217	0.234619
1066.0	13.274624	1.722387	8.264538	-1.140207	5.485795	-1.6266	-0.721191	-0.043213	0.191406
1067.0	12.678923	1.555718	9.073108	-0.94033	5.120801	-1.428031	-0.705811	-0.053223	0.150391
1068.0	16.313615	2.733744	11.001762	-1.013694	4.682153	-1.180162	-0.68335	-0.069824	0.113525
1069.0	20.716021	2.397795	10.941063	-1.48887	4.728018	-0.921145	-0.663818	-0.07373	0.076904
1070.0	20.365187	0.818638	8.24469	-1.80105	4.842962	-0.586605	-0.645996	-0.081787	0.042236
1071.0	18.958065	-0.672465	5.358292	-1.894739	4.408683	-0.14401	-0.628906	-0.076904	0.018311
1072.0	19.888119	-2.212799	3.029729	-1.714921	3.689282	0.177837	-0.613281	-0.085205	-0.007568
1073.0	21.768084	-0.558214	1.672197	-1.245175	3.096882	0.287496	-0.60083	-0.069824	-0.020752
1074.0	25.84179	2.316226	1.138775	-1.199597	2.783796	0.214432	-0.587891	-0.06958	-0.040039
1075.0	28.011168	2.513328	-1.350705	-1.435221	3.228301	0.024202	-0.577148	-0.064941	-0.05957
1076.0	25.111046	1.542318	-4.367901	-1.400113	3.553308	-0.137816	-0.560059	-0.060303	-0.074707
1077.0	23.2613	0.265586	-7.145334	-1.035642	3.512673	-0.221817	-0.544922	-0.060059	-0.103027
1078.0	21.019688	0.273234	-10.939572	-0.597142	3.355464	-0.231206	-0.536377	-0.057617	-0.11377
1079.0	13.87467	0.860184	-15.240225	-0.3031	2.429798	-0.075577	-0.52124	-0.055176	-0.128906
1080.0	17.130617	0.570696	-16.241586	-0.504967	0.438671	0.159268	-0.529785	-0.055176	-0.126709
1081.0	23.537862	1.404465	-14.162531	-0.590955	-0.459104	0.32331	-0.527832	-0.048828	-0.120361
1082.0	17.917068	-3.746088	-12.208183	-0.791805	-0.65084	0.506056	-0.532471	-0.046875	-0.115967
1083.0	10.563088	-8.460357	-11.16972	0.923796	-2.384199	0.549918	-0.54541	-0.049316	-0.098633
1084.0	-17.256363	1.847928	18.178195	3.385398	-4.305042	1.254935	-0.575195	-0.062988	-0.05542
1085.0	-4.580901	3.082634	22.938899	2.134671	-7.49515	0.338798	-0.605225	-0.067871	-0.007568
1086.0	43.888397	9.950757	1.091521	2.261007	-3.760865	1.12209	-0.612061	-0.061768	0.007568
1087.0	11.264816	-5.868053	-7.566678	-0.628876	-3.190717	3.369892	-0.628174	-0.036621	0.046387
1088.0	18.191232	-1.236994	14.699524	2.530319	-4.297737	3.385033	-0.643799	-0.026123	0.072266
1089.0	7.407999	13.53963	13.304854	0.692367	-2.602606	2.461483	-0.648682	-0.011475	0.095947
1090.0	10.026129	-5.157497	-1.535884	0.30382	-3.366836	2.120766	-0.659668	-0.007568	0.115479
1091.0	34.665485	22.041991	19.814827	2.75457	-2.105374	-1.863856	-0.65918	-0.022461	0.113281
1092.0	7.567487	-12.936651	2.281452	-3.943321	0.389104	-1.091556	-0.654541	-0.026855	0.12207
1093.0	8.319775	-8.928803	5.883965	3.748995	-1.185647	-0.979152	-0.664795	-0.042236	0.130859
1094.0	5.050845	19.412059	13.533738	0.293883	-0.491367	-1.260505	-0.662354	-0.050781	0.135254
1095.0	9.942157	-8.274192	3.668006	-0.836627	-0.605764	-0.868349	-0.657959	-0.052979	0.139648
1096.0	7.351391	5.590978	8.862836	1.142816	-0.404604	-0.787301	-0.659424	-0.065918	0.135254
1097.0	7.926102	2.408955	7.013363	-0.419874	-0.342182	-0.592115	-0.657227	-0.065918	0.14624
1098.0	8.313115	0.214668	6.476379	0.226887	-0.27177	-0.523016	-0.666016	-0.068115	0.148193
1099.0	6.150805	2.639613	7.136278	0.24295	-0.197179	-0.401937	-0.659424	-0.070313	0.144043
1100.0	7.771685	3.161193	7.37865	0.095516	-0.232667	-0.336709	-0.656738	-0.078857	0.152588
1101.0	7.625111	2.414148	6.995748	-0.011543	-0.169159	-0.251895	-0.66333	-0.076904	0.154785
1102.0	8.718436	1.30074	6.941237	-0.086513	-0.099809	-0.17189	-0.658936	-0.081055	0.150635
1103.0	6.98477	1.487159	7.559869	0.101685	-0.073861	-0.135145	-0.661133	-0.081055	0.154785
1104.0	7.454427	1.816656	7.313456	-0.005894	-0.027904	-0.078647	-0.65918	-0.076904	0.156982
1105.0	7.154381	2.204515	7.585155	-0.044556	-0.01027	-0.024932	-0.65918	-0.076904	0.156982
1106.0	6.871982	1.301108	7.390282	-0.147999	-0.037103	0.021932	-0.661133	-0.081055	0.152588
1107.0	6.695905	0.786381	7.528072	-0.105777	-0.069528	0.007852	-0.658936	-0.078857	0.150635
1108.0	6.657696	0.520773	7.382586	-0.057244	-0.073113	-0.019699	-0.65918	-0.07251	0.156982
1109.0	6.79385	0.825763	7.34297	0.007294	-0.050534	-0.044919	-0.658936	-0.081055	0.154785
1110.0	6.743723	0.870056	7.401927	-0.028551	-0.033723	-0.052497	-0.66333	-0.081055	0.150635
1111.0	6.639807	0.755087	7.283729	0.015221	-0.024956	-0.071897	-0.663086	-0.085449	0.152832
1112.0	6.639049	1.065881	7.307356	0.055857	-0.022779	-0.088607	-0.658691	-0.087646	0.156982
1113.0	6.581764	1.086551	7.316323	0.05293	-0.020034	-0.098727	-0.656738	-0.081055	0.152588
1114.0	6.620787	0.972752	7.258529	0.065615	-0.011983	-0.106873	-0.658691	-0.085449	0.15918
1115.0	6.596422	0.962118	7.262668	0.097492	-0.006696	-0.12689	-0.658447	-0.092041	0.15918
1116.0	6.547557	0.930609	7.272577	0.123117	0.001012	-0.149568	-0.656738	-0.083496	0.161377
1117.0	6.651485	1.232761	7.239593	0.177423	0.001285	-0.156641	-0.660889	-0.087646	0.156982
1118.0	6.697874	1.839963	7.326987	0.159214	-0.012715	-0.122087	-0.65625	-0.089844	0.165771
1119.0	6.679136	1.741018	7.279118	0.093475	-0.021674	-0.077456	-0.654297	-0.087646	0.15918
1120.0	6.783703	1.861182	7.232826	0.107786	-0.03322	-0.036407	-0.649658	-0.096191	0.157227
1121.0	6.840562	2.292857	7.287251	0.064757	-0.038034	0.029165	-0.653809	-0.102539	0.155029
1122.0	6.791459	2.03718	7.235391	-0.020006	-0.04133	0.102211	-0.662354	-0.10498	0.159424
1123.0	6.740824	1.885133	7.338746	-0.060871	-0.04168	0.154597	-0.6604	-0.096436	0.165771
1124.0	6.701186	1.505911	7.379543	-0.103085	-0.045795	0.187589	-0.665283	-0.087646	0.15918
1125.0	6.567477	0.793802	7.398582	-0.126364	-0.072759	0.178131	-0.663086	-0.083496	0.161377
1126.0	6.557961	0.673928	7.295293	-0.015272	-0.103452	0.126057	-0.66748	-0.085693	0.163574
1127.0	6.472165	0.731804	7.5862	-0.032304	-0.130324	0.086889	-0.665283	-0.083496	0.163574
1128.0	6.419406	0.14951	7.365836	0.01229	-0.165845	0.022891	-0.663086	-0.085693	0.165771
1129.0	6.54833	0.609009	7.365487	0.118772	-0.179143	-0.037198	-0.658691	-0.083252	0.15918
1130.0	6.690698	0.916115	7.36654	0.128899	-0.193639	-0.061309	-0.660889	-0.087891	0.167969
1131.0	6.634084	1.062006	7.396154	0.180955	-0.20503	-0.075168	-0.665039	-0.089844	0.167969
1132.0	6.754107	1.350874	7.398439	0.180582	-0.228745	-0.067646	-0.665039	-0.089844	0.167969
1133.0	6.862577	1.515966	7.441375	0.191928	-0.257264	-0.039461	-0.660889	-0.085693	0.174316
1134.0	6.959173	2.053078	7.624156	0.223322	-0.309353	0.022805	-0.673828	-0.090088	0.176514
1135.0	6.858831	2.531044	7.954171	0.167017	-0.381665	0.131608	-0.656494	-0.083496	0.170166
1136.0	6.861293	1.886422	7.873959	0.122284	-0.488643	0.22999	-0.667236	-0.085938	0.1875
1137.0	5.716219	3.230435	9.13579	0.080424	-0.715477	0.369917	-0.667725	-0.075195	0.189453
1138.0	6.083156	2.805764	8.559564	-0.093916	-1.087688	0.549791	-0.67627	-0.077393	0.196045
1139.0	7.016818	3.052871	8.286285	-0.131294	-1.287038	0.705912	-0.670166	-0.066895	0.211182
1140.0	6.976393	3.35098	8.386019	-0.210499	-1.462946	0.871454	-0.674805	-0.060547	0.215332
1141.0	6.175292	2.409622	8.702241	-0.257917	-1.62564	1.01816	-0.683838	-0.052246	0.230469
1142.0	6.566475	3.415333	9.343207	-0.318402	-1.949045	1.158604	-0.684082	-0.043701	0.247803
1143.0	5.715566	2.809735	9.550563	-0.432797	-2.242401	1.340347	-0.691162	-0.03125	0.267334
1144.0	5.574044	3.365752	10.507062	-0.443999	-2.730202	1.547942	-0.689453	-0.018555	0.288818
1145.0	4.270814	0.934688	10.502847	-0.704828	-3.179272	1.626322	-0.694092	-0.008057	0.314941
1146.0	3.935148	1.608318	10.307706	-0.4423	-3.801467	1.589504	-0.69873	0.002197	0.345215
1147.0	4.188637	3.828349	11.662568	-0.672892	-4.445296	1.698286	-0.695068	0.023193	0.381836
1148.0	2.48992	2.697682	12.287534	-1.051443	-5.12304	1.857613	-0.695557	0.035645	0.416504
1149.0	0.096163	3.744621	13.816287	-1.374117	-6.017437	2.052062	-0.687012	0.045654	0.464111
1150.0	-0.075009	-0.648919	10.973457	-2.076197	-6.741318	2.218512	-0.678711	0.057861	0.516113
1151.0	-0.159466	-6.846967	8.803287	-1.460644	-7.315448	2.054571	-0.657471	0.074463	0.578857
1152.0	4.868506	-2.93579	6.746205	-0.847996	-8.55002	1.903812	-0.642334	0.080078	0.641846
1153.0	18.833684	-1.004027	4.912784	-1.418228	-9.615645	1.883025	-0.60376	0.09668	0.697998
1154.0	30.07611	-8.372559	3.511717	-1.563153	-8.97142	1.359186	-0.577393	0.09375	0.760986
1155.0	28.019146	-9.55256	4.764855	-0.276415	-7.736497	0.849287	-0.540527	0.104004	0.804443
1156.0	23.952898	-3.500024	10.325182	0.870232	-6.733599	0.104924	-0.512207	0.105713	0.852051
1157.0	18.234111	-4.136213	11.305755	1.493263	-6.184737	-0.466293	-0.486572	0.116211	0.878174
1158.0	15.396704	-2.602375	10.724049	2.697078	-5.791404	-0.902606	-0.451904	0.126709	0.90625
1159.0	25.609444	6.472191	21.661931	1.596377	-2.858101	-0.472309	-0.445557	0.128662	0.910645
1160.0	11.85655	10.907947	23.95592	1.287782	0.431825	-0.969358	-0.454346	0.128906	0.90625
1161.0	5.969906	-3.29793	14.436617	-1.777379	1.714155	-1.227741	-0.460205	0.111816	0.893311
1162.0	-1.255793	-3.39522	13.349069	0.576703	1.771076	-1.237386	-0.46875	0.107422	0.888916
1163.0	0.81331	-0.351667	12.357486	0.296519	1.912705	-1.36136	-0.481934	0.109619	0.882568
1164.0	1.44805	-1.38037	10.855634	0.479921	2.010441	-1.378896	-0.492188	0.096924	0.867432
1165.0	2.582963	-1.164439	9.792701	0.957459	2.36132	-1.407303	-0.505371	0.094727	0.858643
1166.0	3.864661	1.087915	9.77966	1.100628	2.902513	-1.448461	-0.524658	0.088623	0.839111
1167.0	4.08749	2.021035	9.442956	0.944702	3.532229	-1.508722	-0.539795	0.082275	0.817383
1168.0	3.7356	2.673649	9.11197	0.674245	4.121363	-1.577383	-0.567627	0.06958	0.800049
1169.0	3.783655	2.772731	8.507854	0.377962	4.56805	-1.627526	-0.586914	0.061279	0.765381
1170.0	4.280337	3.031986	8.118553	0.132411	4.940779	-1.642498	-0.605957	0.044434	0.739502
1171.0	4.664645	2.964159	7.467972	-0.100884	5.293331	-1.608425	-0.634033	0.03833	0.700439
1172.0	5.433846	3.022589	7.182766	-0.33016	5.504761	-1.615808	-0.653076	0.021484	0.667969
1173.0	6.410113	2.799898	6.791143	-0.542951	5.711646	-1.599592	-0.669922	0.004883	0.626953
1174.0	7.202246	1.972042	6.391029	-0.765638	5.777256	-1.548828	-0.693359	-0.009766	0.585693
1175.0	7.294641	2.153757	6.426889	-0.3821	5.805907	-1.507574	-0.701904	-0.019775	0.535889
1176.0	9.140265	2.736696	7.994213	-1.061594	5.886177	-1.606278	-0.712158	-0.036377	0.488281
1177.0	10.714348	0.56188	6.924265	-0.884226	5.871032	-1.490842	-0.720703	-0.044434	0.440674
1178.0	11.542622	0.99876	7.391659	-0.8066	5.874101	-1.542315	-0.731201	-0.056641	0.390869
1179.0	12.666487	0.74023	7.468537	-0.761266	5.770307	-1.468017	-0.732666	-0.077393	0.338867
1180.0	13.340932	1.251295	7.669961	-0.75826	5.66147	-1.309934	-0.730225	-0.085449	0.29126
1181.0	13.304963	1.26536	7.919825	-0.770111	5.518258	-1.087591	-0.72583	-0.091309	0.241455
1182.0	12.901627	1.437865	8.390751	-0.806036	5.214955	-0.896832	-0.716553	-0.105713	0.196045
1183.0	15.002787	1.977802	10.209522	-0.89379	4.769913	-0.792627	-0.712158	-0.109375	0.150635
1184.0	20.079488	3.358154	10.869537	-1.219487	4.726199	-0.817191	-0.694824	-0.11084	0.111572
1185.0	19.684417	4.191825	9.150051	-1.909853	4.936868	-0.831723	-0.681641	-0.114502	0.072754
1186.0	18.535987	3.041262	6.404117	-2.670459	4.541058	-0.630249	-0.673096	-0.114014	0.035889
1187.0	19.492753	-1.056105	3.602424	-3.115889	3.916119	-0.403725	-0.649658	-0.104736	-0.005371
1188.0	20.787492	-3.523145	1.577388	-2.680925	3.349984	-0.342138	-0.634521	-0.100098	-0.029297
1189.0	21.850732	-2.106205	0.653643	-2.209827	2.935569	-0.347926	-0.626221	-0.095459	-0.052979
1190.0	24.066758	-0.610934	-0.453259	-2.039968	2.742141	-0.376874	-0.611328	-0.086426	-0.081299
1191.0	25.37187	-0.205306	-2.606767	-2.061716	2.924238	-0.365517	-0.602783	-0.081787	-0.103027
1192.0	23.787476	-1.172506	-5.728677	-1.855554	2.993757	-0.294059	-0.589844	-0.081299	-0.126709
1193.0	22.44892	-1.920861	-7.797702	-1.408236	2.85061	-0.223704	-0.570801	-0.065918	-0.148438
1194.0	21.442395	-2.187876	-9.58878	-0.761268	2.616712	-0.167239	-0.55542	-0.072021	-0.163574
1195.0	17.947814	-1.384781	-11.330758	-0.099846	2.244309	-0.090664	-0.55127	-0.06543	-0.176758
1196.0	15.587768	-0.317122	-12.222805	0.275885	1.23055	0.010842	-0.546631	-0.073975	-0.1875
1197.0	17.174743	0.272189	-11.183301	0.479047	0.235155	0.140227	-0.546875	-0.069824	-0.176514
1198.0	17.753365	1.40833	-8.661011	0.487522	-0.411678	0.301228	-0.551025	-0.073975	-0.174316
1199.0	17.565684	0.755426	-6.404041	0.564244	-0.82206	0.429944	-0.55542	-0.072021	-0.170166
1200.0	15.070232	-1.072718	-2.013204	0.919326	-0.934841	0.545515	-0.557373	-0.080811	-0.15918
1201.0	9.330031	5.830484	6.995877	1.372616	-1.260213	0.504979	-0.568115	-0.080811	-0.156982
1202.0	-43.575099	-1.850993	39.861125	1.958584	-1.788435	0.792207	-0.584961	-0.092041	-0.133301
1203.0	-24.924558	-3.54216	2.626139	3.281796	-6.876412	-1.759641	-0.618652	-0.121094	-0.059326
1204.0	65.514731	18.088064	2.425184	3.39416	-6.233075	0.3259	-0.635986	-0.119141	-0.044189
1205.0	4.719648	-5.288242	-5.113199	-0.462113	-2.142431	2.457649	-0.6521	-0.100342	-0.01416
1206.0	17.344504	5.512366	19.594907	2.200603	-3.7402	2.193997	-0.667236	-0.096436	0.011963
1207.0	5.371937	7.880896	7.421756	0.394936	-2.277804	2.114027	-0.678955	-0.072998	0.03125
1208.0	9.438233	-4.899275	2.815468	0.402716	-3.086275	2.580292	-0.694092	-0.077881	0.059326
1209.0	31.88574	23.373823	17.392313	3.021834	-2.369658	-1.444688	-0.693604	-0.088623	0.061523
1210.0	7.30776	-10.372363	3.517726	-4.472134	0.043205	-0.788222	-0.694092	-0.080078	0.061523
1211.0	6.459236	-11.557059	4.023328	3.246306	-1.196755	-0.67996	-0.69751	-0.097412	0.076904
1212.0	6.297326	22.293698	14.72343	0.610441	-0.60917	-0.942337	-0.699463	-0.104004	0.081299
1213.0	10.655335	-8.353912	3.625886	-1.685326	-0.631823	-0.549283	-0.695068	-0.104004	0.085449
1214.0	8.040133	2.227944	8.159633	1.159912	-0.262383	-0.548997	-0.694824	-0.110352	0.085693
1215.0	8.06678	4.199364	7.566024	-0.287797	-0.283115	-0.376221	-0.699463	-0.108398	0.083496
1216.0	8.595208	1.18867	6.762677	-0.018864	-0.242107	-0.232494	-0.698975	-0.114746	0.089844
1217.0	7.678913	2.499434	7.355443	-0.023168	-0.176025	-0.093099	-0.699219	-0.110596	0.089844
1218.0	7.370498	1.625282	7.536646	-0.185551	-0.169756	-0.03474	-0.697021	-0.110596	0.089844
1219.0	6.933899	0.931784	7.495646	-0.119194	-0.15494	-0.033929	-0.701416	-0.108398	0.092041
1220.0	7.83795	2.181498	7.564959	-0.067815	-0.197269	0.017994	-0.694824	-0.110596	0.089844
1221.0	7.387955	2.300827	7.707013	-0.249389	-0.119594	0.119441	-0.697021	-0.110596	0.096436
1222.0	6.82183	0.80552	7.634532	-0.320344	-0.107867	0.154241	-0.701416	-0.110596	0.098633
1223.0	7.052293	0.959862	7.261046	-0.209731	-0.064057	0.154179	-0.70166	-0.104248	0.094238
1224.0	6.970806	1.647509	7.408542	-0.261952	-0.027121	0.203894	-0.699219	-0.110596	0.103027
1225.0	6.489309	1.523059	7.530766	-0.326966	-0.016744	0.252475	-0.699707	-0.102051	0.092041
1226.0	6.392242	0.807956	7.450816	-0.429025	-0.010724	0.268478	-0.701904	-0.097656	0.092041
1227.0	6.352211	0.094816	7.302831	-0.398722	-0.004355	0.246002	-0.704102	-0.095459	0.094238
1228.0	6.206363	-0.277943	7.38809	-0.339932	-0.016035	0.198345	-0.704346	-0.093506	0.096436
1229.0	6.368619	-0.009896	7.350122	-0.242378	-0.034061	0.152196	-0.702148	-0.091309	0.098389
1230.0	6.430046	0.183039	7.398252	-0.219037	-0.030749	0.110059	-0.701904	-0.097656	0.092041
1231.0	6.335861	-0.048419	7.299768	-0.177112	-0.047754	0.075723	-0.700195	-0.089111	0.094238
1232.0	6.374763	0.059791	7.365178	-0.114013	-0.060894	0.024603	-0.699951	-0.091309	0.092041
1233.0	6.403963	0.005688	7.372253	-0.059918	-0.07168	-0.020323	-0.70459	-0.084961	0.098389
1234.0	6.46003	0.097043	7.326967	-0.005624	-0.084521	-0.052161	-0.702148	-0.089111	0.098389
1235.0	6.519954	0.178376	7.367266	0.037322	-0.098465	-0.081813	-0.689209	-0.089111	0.098389
1236.0	6.658026	0.32177	7.324833	0.060246	-0.104388	-0.092917	-0.693359	-0.091309	0.094238
1237.0	6.610345	0.429319	7.261161	0.080224	-0.108128	-0.089807	-0.690674	-0.104248	0.096436
1238.0	6.669366	0.245524	7.271256	0.08084	-0.126063	-0.086232	-0.703369	-0.117188	0.10083
1239.0	6.630023	0.396632	7.364116	0.139373	-0.139632	-0.092605	-0.718994	-0.108643	0.10083
1240.0	6.766996	0.604829	7.355147	0.135479	-0.140821	-0.086842	-0.710693	-0.093506	0.100586
1241.0	6.729921	0.61521	7.317827	0.151122	-0.153831	-0.082353	-0.701904	-0.0979	0.107178
1242.0	6.788912	0.866105	7.392927	0.154361	-0.157447	-0.061396	-0.701904	-0.0979	0.109375
1243.0	6.703445	0.597026	7.30273	0.144533	-0.150845	-0.046013	-0.704102	-0.095703	0.107178
1244.0	6.715909	0.768399	7.36611	0.171627	-0.160293	-0.023739	-0.708008	-0.106445	0.107178
1245.0	6.623552	0.599894	7.403954	0.159429	-0.175012	-0.006374	-0.704346	-0.091309	0.107178
1246.0	6.624239	0.314492	7.279479	0.188811	-0.204434	-0.018367	-0.708496	-0.0979	0.107178
1247.0	6.541745	0.552673	7.553048	0.23794	-0.237723	-0.042257	-0.701904	-0.0979	0.109375
1248.0	6.762039	0.147431	7.220935	0.211227	-0.28058	-0.062335	-0.710693	-0.0979	0.115967
1249.0	6.762473	1.01085	7.679376	0.294032	-0.296831	-0.054184	-0.708252	-0.102295	0.120117
1250.0	6.900536	1.173859	7.827238	0.224815	-0.361567	-0.003904	-0.706055	-0.104492	0.118164
1251.0	6.747591	0.882939	7.9199	0.255074	-0.428438	0.030857	-0.710449	-0.102295	0.122314
1252.0	6.979248	1.116167	8.075657	0.309916	-0.511306	0.076633	-0.7146	-0.102539	0.131104
1253.0	7.264274	1.601026	8.213453	0.385979	-0.598509	0.150441	-0.712646	-0.100342	0.133301
1254.0	6.311977	3.258681	8.910913	0.461049	-0.719341	0.266027	-0.716797	-0.102783	0.148438
1255.0	5.071982	4.380109	9.667085	-0.151617	-1.178455	0.58229	-0.72583	-0.094238	0.154785
1256.0	7.367999	2.946475	8.255917	-0.347778	-1.46747	0.830173	-0.724121	-0.08374	0.167725
1257.0	7.334583	2.948377	8.294253	-0.341555	-1.539101	1.020634	-0.724121	-0.07959	0.178467
1258.0	6.854028	3.260806	9.134377	-0.484461	-1.726194	1.23556	-0.733643	-0.0625	0.191406
1259.0	5.655673	3.666364	9.34164	-0.423794	-1.991644	1.464379	-0.736084	-0.050049	0.210938
1260.0	6.119607	4.45401	10.409616	-0.768456	-2.393034	1.814181	-0.740967	-0.035156	0.226074
1261.0	4.0928	2.700819	10.810359	-1.007	-2.826412	2.06627	-0.743652	-0.020508	0.249756
1262.0	4.569425	5.007458	11.123021	-1.008446	-3.421489	2.338786	-0.753174	-0.001465	0.277832
1263.0	3.898873	9.264971	12.751247	-1.574693	-4.04366	2.929711	-0.760742	0.02832	0.308105
1264.0	0.693197	11.317858	14.84213	-2.808301	-4.941628	3.759989	-0.759521	0.055664	0.346924
1265.0	-1.769081	-1.89486	10.466507	-4.228459	-5.908428	4.083437	-0.760986	0.0979	0.398682
1266.0	1.104135	-8.103279	9.569921	-2.326562	-7.157703	3.727198	-0.751221	0.125244	0.457031
1267.0	0.643664	-4.397784	9.689269	-1.814562	-7.999224	3.503525	-0.73877	0.145752	0.528564
1268.0	9.315943	-8.921636	7.754738	-1.588654	-9.476277	3.213781	-0.717285	0.157715	0.61084
1269.0	21.821142	-11.479352	7.306424	-1.40781	-9.716332	2.613232	-0.680908	0.17627	0.682373
1270.0	23.705449	-13.988177	4.919109	-0.224992	-9.016636	1.626829	-0.661377	0.183838	0.749512
1271.0	25.061181	-9.508913	8.140545	1.720366	-8.329473	0.742279	-0.624756	0.196289	0.797363
1272.0	23.758912	-1.049287	13.486637	2.803728	-7.047656	0.167882	-0.588135	0.206787	0.836182
1273.0	18.53719	-2.973663	14.143492	2.711238	-6.128464	-0.282748	-0.558105	0.221436	0.864502
1274.0	14.776246	3.081348	14.894176	3.943486	-4.384672	-0.314594	-0.539063	0.238525	0.890381
1275.0	21.355899	16.925202	25.118064	1.263693	-1.043438	-0.673518	-0.538574	0.227783	0.884033
1276.0	5.954012	15.874009	24.311804	-1.316775	2.242143	-2.095676	-0.557129	0.197754	0.871094
1277.0	-1.678475	-3.321735	12.638542	-2.309468	2.035431	-2.76934	-0.569092	0.167725	0.864746
1278.0	-3.149723	0.136861	13.486993	-1.13773	1.914628	-3.354771	-0.583252	0.139893	0.854004
1279.0	1.617912	-1.68718	12.410219	-0.883937	2.014681	-3.726292	-0.593018	0.109863	0.843262
1280.0	2.601342	-3.549921	10.868553	0.100452	2.337559	-3.821589	-0.602783	0.083984	0.830322
1281.0	3.724479	-2.796235	10.559444	0.99852	2.944077	-3.74674	-0.619629	0.064941	0.811035
1282.0	3.912885	-1.935473	9.903972	1.61324	3.523525	-3.487054	-0.634277	0.047852	0.791504
1283.0	4.230977	-0.017618	9.653115	1.982016	4.060166	-3.13124	-0.651123	0.033203	0.765625
1284.0	4.518876	1.41421	9.355597	1.825491	4.561042	-2.77902	-0.672119	0.013916	0.746094
1285.0	4.557752	1.809113	8.566926	1.546022	4.985672	-2.493666	-0.689453	0.005859	0.711426
1286.0	4.44644	2.430729	7.91863	1.202887	5.279339	-2.289836	-0.712646	-0.010986	0.678955
1287.0	5.067932	2.871525	7.595369	0.757169	5.432309	-2.188431	-0.723145	-0.025635	0.639893
1288.0	5.428947	2.856022	7.469823	0.286066	5.526024	-2.174833	-0.742188	-0.040283	0.601074
1289.0	6.277226	2.398119	7.686853	-0.180794	5.5133	-2.275369	-0.754639	-0.061279	0.557617
1290.0	7.671473	1.776159	8.141805	-0.52276	5.457628	-2.420811	-0.760498	-0.080078	0.518799
1291.0	9.63189	1.524804	8.579972	-0.801702	5.479295	-2.581119	-0.774658	-0.107666	0.486328
1292.0	11.609212	1.264092	8.827897	-1.082413	5.547274	-2.713043	-0.771729	-0.130615	0.443115
1293.0	12.641382	0.599615	8.548472	-1.385842	5.506956	-2.706466	-0.781494	-0.164551	0.397705
1294.0	13.738574	-0.647627	7.92119	-1.463164	5.315206	-2.534184	-0.778564	-0.181152	0.354492
1295.0	14.197406	-0.523968	8.286072	-1.419007	5.122584	-2.181232	-0.786377	-0.208496	0.313477
1296.0	15.772248	0.685488	9.1829	-1.488836	4.806651	-1.716024	-0.790283	-0.220947	0.274658
1297.0	19.0079	0.426963	9.817954	-1.903783	4.716143	-1.249587	-0.798828	-0.229248	0.23999
1298.0	20.564604	-2.39361	8.576506	-1.957646	4.832526	-0.929548	-0.809326	-0.243652	0.196533
1299.0	19.508159	-1.796007	6.563238	-1.588655	4.797078	-0.588207	-0.820068	-0.247559	0.16626
1300.0	18.538742	-0.28478	4.374735	-1.585012	4.3545	-0.11021	-0.837646	-0.24707	0.125
1301.0	18.201364	-0.667771	2.235689	-1.548315	3.706396	0.270673	-0.859863	-0.238037	0.08374
1302.0	19.245067	-1.209672	0.878756	-1.20887	3.051258	0.327203	-0.877441	-0.235352	0.049072
1303.0	20.91356	1.188637	0.458851	-0.530055	2.602538	0.088678	-0.899414	-0.230713	0.018555
1304.0	24.074538	4.988005	0.68932	-0.780851	2.562183	-0.275578	-0.912598	-0.230225	-0.022461
1305.0	24.34312	1.581396	-2.091865	-1.3178	2.841531	-0.553204	-0.917236	-0.225342	-0.063721
1306.0	22.796598	-2.232664	-4.76596	-1.039325	3.032762	-0.693588	-0.916992	-0.235596	-0.109131
1307.0	20.443081	-2.975334	-7.112822	-0.556611	3.024797	-0.661397	-0.906006	-0.237061	-0.150391
1308.0	17.66905	-1.7943	-9.535881	-0.290903	2.632514	-0.459402	-0.908447	-0.234619	-0.182861
1309.0	16.915504	-0.451264	-11.164098	-0.436242	1.852266	-0.219602	-0.906494	-0.227783	-0.213379
1310.0	17.539203	0.389415	-11.768608	-0.821316	0.998489	-0.046528	-0.915283	-0.225098	-0.239258
1311.0	18.763628	0.248935	-11.189154	-1.220218	0.265548	0.065264	-0.92041	-0.209961	-0.250244
1312.0	16.903964	-5.011761	-9.383222	-1.236015	-0.110777	0.114419	-0.937988	-0.205811	-0.252441
1313.0	13.822339	-3.667093	-9.107838	-0.2972	-1.209455	0.19042	-0.951416	-0.192871	-0.248291
1314.0	-4.386039	-4.862702	-3.565294	2.443544	-3.591227	0.910195	-0.99707	-0.19165	-0.200684
1315.0	-16.210543	10.298899	29.356787	2.947196	-6.211336	1.290993	-1.049561	-0.186279	-0.133545
1316.0	37.370629	0.403538	6.258922	0.590785	-5.498907	1.010675	-1.084961	-0.169678	-0.094727
1317.0	22.272222	3.233319	-2.872656	0.968893	-2.390335	2.976231	-1.112793	-0.120605	-0.071045
1318.0	13.191459	-9.442734	8.992715	0.783854	-3.833606	3.605775	-1.146729	-0.086914	-0.032471
1319.0	11.807742	8.964795	17.305726	1.799314	-2.286271	3.092417	-1.161377	-0.044434	-0.002197
1320.0	20.796962	14.313159	1.463606	3.078901	-3.001279	0.237837	-1.17334	-0.068359	0.026123
1321.0	26.572141	20.442201	15.554012	-3.539504	-0.249942	-1.408984	-1.171631	-0.057617	0.017334
1322.0	-1.492696	-31.51392	-1.594093	-1.776941	-0.431018	0.151792	-1.177979	-0.062012	0.030273
1323.0	8.140478	19.44276	13.702627	4.206559	-1.286324	-0.926267	-1.175293	-0.077393	0.043457
1324.0	8.191708	2.717697	6.809189	-3.116547	-0.626747	-0.128862	-1.186279	-0.073242	0.047607
1325.0	8.103097	-5.472394	5.952249	0.518271	-0.566737	-0.319925	-1.190674	-0.073242	0.056396
1326.0	7.282844	4.151374	8.911313	-0.233577	-0.392033	-0.267902	-1.186279	-0.073242	0.058594
1327.0	7.546905	-0.515958	6.441176	-0.338529	-0.275281	-0.253502	-1.19043	-0.077637	0.058594
1328.0	6.392808	0.911115	7.527342	-0.186156	-0.17717	-0.226462	-1.19043	-0.077637	0.060791
