Acquisition frequency: 100 Hz
PacketCounter	Acc_X	Acc_Y	Acc_Z	Gyr_X	Gyr_Y	Gyr_Z	Mag_X	Mag_Y	Mag_Z
0.0	6.557272	-2.921611	6.838506	-0.008492	0.004637	-0.008874	-0.599365	0.278076	-0.143799
1.0	6.533883	-2.8963	6.836272	-0.006391	0.002405	-0.006613	-0.594971	0.276123	-0.145996
2.0	6.558097	-2.8953	6.860896	-0.007452	0.002407	-0.00986	-0.601563	0.275879	-0.141602
3.0	6.556985	-2.917486	6.887087	-0.00744	0.002365	-0.012018	-0.597168	0.273926	-0.145996
4.0	6.558226	-2.89495	6.860921	-0.007375	0.006733	-0.00787	-0.601563	0.273926	-0.145996
5.0	6.557006	-2.919112	6.863099	-0.004133	0.00652	-0.008922	-0.601318	0.273926	-0.143799
6.0	6.55772	-2.894559	6.861569	-0.004101	0.008703	-0.006847	-0.597168	0.275879	-0.139404
7.0	6.556209	-2.916653	6.888179	-0.005193	0.00652	-0.012168	-0.601318	0.273926	-0.143799
8.0	6.557175	-2.891897	6.886491	-0.004164	0.004333	-0.010996	-0.599365	0.278076	-0.145996
9.0	6.55738	-2.89345	6.862362	-0.006278	0.006602	-0.011098	-0.605957	0.278076	-0.141602
10.0	6.556202	-2.917322	6.864628	-0.002992	0.008532	-0.012233	-0.599609	0.280273	-0.143799
11.0	6.581287	-2.893372	6.863612	-0.002948	0.010674	-0.012317	-0.59082	0.278076	-0.141602
12.0	6.555334	-2.914132	6.890078	-0.000834	0.008403	-0.012215	-0.597168	0.278076	-0.137207
13.0	6.556022	-2.889138	6.888746	-0.002948	0.010671	-0.012317	-0.601318	0.271729	-0.141602
14.0	6.555245	-2.916538	6.842613	-0.000777	0.010501	-0.014456	-0.599365	0.275879	-0.141602
15.0	6.531208	-2.888595	6.865349	-0.001876	0.010626	-0.011228	-0.601318	0.271729	-0.148193
16.0	6.554321	-2.913198	6.868174	-0.001906	0.008441	-0.013303	-0.599365	0.273682	-0.141602
17.0	6.554005	-2.912597	6.868731	-0.002961	0.010708	-0.010159	-0.597168	0.273926	-0.143799
18.0	6.554545	-2.885919	6.891501	-0.003133	0.00214	-0.009825	-0.599121	0.271729	-0.139404
19.0	6.529558	-2.910774	6.868794	-0.005234	0.004364	-0.012085	-0.597168	0.275879	-0.139404
20.0	6.530542	-2.886168	6.867004	-0.007405	0.004531	-0.009946	-0.601563	0.278076	-0.145996
21.0	6.578562	-2.913988	6.845494	-0.003048	0.006421	-0.009991	-0.597168	0.278076	-0.145996
22.0	6.553693	-2.910838	6.869775	-0.005219	0.006588	-0.007852	-0.599365	0.278076	-0.145996
23.0	6.554245	-2.884387	6.892428	-0.005247	0.004404	-0.009927	-0.599609	0.280273	-0.145996
24.0	6.578769	-2.887223	6.868613	-0.009547	0.006879	-0.005733	-0.601563	0.275879	-0.143799
25.0	6.553222	-2.910676	6.870293	-0.005261	0.004445	-0.007769	-0.604004	0.282471	-0.143799
26.0	6.577723	-2.913501	6.846507	-0.00739	0.006753	-0.005713	-0.599365	0.273682	-0.139404
27.0	6.552103	-2.906855	6.919476	-0.005177	0.008727	-0.007934	-0.597168	0.276123	-0.145996
28.0	6.578388	-2.891043	6.820865	-0.007432	0.00461	-0.00563	-0.597168	0.273926	-0.150146
29.0	6.552462	-2.912599	6.846955	-0.006262	0.008809	-0.006865	-0.599365	0.278076	-0.145996
30.0	6.527115	-2.907867	6.895594	-0.005233	0.006626	-0.005693	-0.601318	0.271729	-0.145996
31.0	6.553439	-2.862028	6.86814	-0.006304	0.006666	-0.006782	-0.60376	0.275879	-0.143799
32.0	6.551973	-2.884525	6.89453	-0.007432	0.004608	-0.005631	-0.597412	0.280273	-0.148193
33.0	6.552503	-2.888525	6.845841	-0.009631	0.00259	-0.005568	-0.601318	0.273682	-0.13501
34.0	6.527654	-2.886003	6.869818	-0.005303	0.004569	-0.001294	-0.601563	0.278076	-0.143799
35.0	6.550983	-2.911538	6.872062	-0.011774	0.00267	-0.007746	-0.597168	0.278076	-0.143799
36.0	6.549915	-2.936006	6.873989	-0.005233	0.006624	-0.005692	-0.601318	0.271729	-0.141602
37.0	6.527432	-2.888603	6.845685	-0.009618	0.004813	-0.001334	-0.599365	0.278076	-0.141602
38.0	6.574888	-2.915253	6.848485	-0.010592	0.009092	-0.004745	-0.599365	0.275879	-0.137207
39.0	6.525073	-2.910015	6.89662	-0.009548	0.006868	-0.005732	-0.594971	0.273926	-0.145996
40.0	6.573819	-2.913925	6.873313	-0.00842	0.008925	-0.006883	-0.605957	0.280273	-0.139404
41.0	6.574759	-2.89175	6.847302	-0.009604	0.004768	-0.003492	-0.601563	0.280273	-0.139404
42.0	6.549424	-2.887523	6.895696	-0.009562	0.006907	-0.003574	-0.601563	0.275879	-0.141602
43.0	6.548364	-2.914137	6.873457	-0.009521	0.009047	-0.003655	-0.597168	0.275879	-0.141602
44.0	6.573068	-2.889357	6.896417	-0.011802	0.002747	-0.003432	-0.601563	0.278076	-0.137207
45.0	6.572942	-2.889796	6.896354	-0.009588	0.004723	-0.005651	-0.594971	0.275879	-0.141602
46.0	6.572376	-2.918272	6.84961	-0.010649	0.006986	-0.002505	-0.603516	0.273682	-0.139404
47.0	6.5482	-2.891673	6.87187	-0.009562	0.006904	-0.003573	-0.601563	0.275879	-0.141602
48.0	6.547847	-2.892318	6.871936	-0.012863	0.005007	-0.000286	-0.603516	0.271484	-0.137207
49.0	6.546595	-2.917437	6.873742	-0.011776	0.004925	-0.001355	-0.597168	0.273926	-0.145996
50.0	6.571657	-2.894666	6.872288	-0.011761	0.004883	-0.003513	-0.605713	0.273682	-0.143799
51.0	6.547187	-2.896247	6.847665	-0.011694	0.009203	-0.001516	-0.594971	0.276123	-0.145996
52.0	6.545359	-2.919435	6.874071	-0.013836	0.009281	-0.003695	-0.597168	0.276123	-0.145996
53.0	6.544876	-2.920073	6.87426	-0.009578	0.00694	-0.001414	-0.599365	0.273926	-0.145996
54.0	6.569081	-2.923522	6.850532	-0.012781	0.00928	-0.000447	-0.599365	0.278076	-0.139404
55.0	6.568201	-2.922539	6.875025	-0.013893	0.007179	-0.001457	-0.594727	0.271729	-0.145996
56.0	6.544123	-2.926087	6.825948	-0.011776	0.004919	-0.001356	-0.592773	0.276123	-0.150146
57.0	6.543698	-2.897136	6.897101	-0.01502	0.005118	-0.000308	-0.60376	0.275879	-0.137207
58.0	6.567969	-2.900798	6.873228	-0.013852	0.009315	-0.001536	-0.605957	0.278076	-0.145996
59.0	6.542614	-2.926908	6.85027	-0.013974	0.002896	-0.001298	-0.599365	0.278076	-0.137207
60.0	6.542278	-2.927551	6.850316	-0.009521	0.009034	-0.003651	-0.603516	0.273926	-0.145996
61.0	6.541604	-2.926381	6.874692	-0.015045	0.002934	-0.002388	-0.597168	0.275879	-0.143799
62.0	6.542265	-2.902774	6.872843	-0.010648	0.006973	-0.002503	-0.599365	0.278076	-0.141602
63.0	6.566695	-2.906056	6.848984	-0.01176	0.004872	-0.003514	-0.597168	0.273682	-0.139404
64.0	6.54078	-2.928329	6.874646	-0.013917	0.00499	-0.003535	-0.599365	0.278076	-0.139404
65.0	6.540617	-2.928985	6.874522	-0.0118	0.002731	-0.003435	-0.601563	0.275879	-0.143799
66.0	6.566129	-2.908081	6.848666	-0.016074	0.005106	-0.003557	-0.594971	0.276123	-0.145996
67.0	6.541065	-2.906105	6.872578	-0.011719	0.007007	-0.003591	-0.60376	0.280273	-0.137207
68.0	6.564691	-2.933706	6.850386	-0.013941	0.002807	-0.005615	-0.601563	0.280273	-0.137207
69.0	6.564136	-2.932348	6.874732	-0.012715	0.009105	-0.009075	-0.594971	0.273926	-0.145996
70.0	6.564127	-2.934411	6.850625	-0.011645	0.009064	-0.007985	-0.597168	0.273926	-0.150146
71.0	6.56498	-2.912206	6.824779	-0.010592	0.009063	-0.004737	-0.60376	0.275879	-0.141602
72.0	6.539326	-2.908091	6.873392	-0.010534	0.011161	-0.006973	-0.594971	0.276123	-0.145996
73.0	6.563457	-2.911022	6.849978	-0.010494	0.013298	-0.00705	-0.60376	0.275879	-0.141602
74.0	6.537647	-2.934663	6.851695	-0.007387	0.006726	-0.005705	-0.60376	0.275879	-0.141602
75.0	6.561962	-2.909629	6.875232	-0.007244	0.015317	-0.003856	-0.60376	0.278076	-0.139404
76.0	6.560423	-2.934005	6.877568	-0.007311	0.008784	-0.010099	-0.60376	0.275879	-0.141602
77.0	6.537063	-2.910622	6.851241	-0.007444	0.004625	-0.00347	-0.601563	0.280273	-0.137207
78.0	6.560233	-2.936042	6.853656	-0.008417	0.0089	-0.006873	-0.597168	0.273926	-0.145996
79.0	6.561161	-2.913676	6.827824	-0.008474	0.0068	-0.004638	-0.595215	0.27832	-0.150146
80.0	6.559582	-2.93645	6.854104	-0.009526	0.006799	-0.007887	-0.603516	0.273682	-0.141602
81.0	6.534704	-2.935769	6.854028	-0.009425	0.013249	-0.005958	-0.599365	0.275879	-0.143799
82.0	6.584308	-2.91514	6.829229	-0.009526	0.006797	-0.007887	-0.599365	0.278076	-0.141602
83.0	6.557882	-2.935213	6.879476	-0.007347	0.008857	-0.005782	-0.599365	0.275879	-0.139404
84.0	6.559142	-2.914516	6.829406	-0.007347	0.008856	-0.005782	-0.599609	0.280273	-0.137207
85.0	6.53398	-2.911799	6.853681	-0.005153	0.008662	-0.010075	-0.597412	0.282471	-0.141602
86.0	6.556758	-2.934942	6.880663	-0.004083	0.008623	-0.008984	-0.601563	0.275879	-0.141602
87.0	6.557741	-2.912125	6.854982	-0.00731	0.008775	-0.010098	-0.599609	0.280273	-0.139404
88.0	6.556102	-2.934548	6.881456	-0.005171	0.008698	-0.007917	-0.605957	0.275879	-0.143799
89.0	6.532731	-2.910941	6.855236	-0.00628	0.006598	-0.008931	-0.599365	0.275879	-0.145996
90.0	6.55554	-2.934305	6.882095	-0.007329	0.008811	-0.00794	-0.60376	0.278076	-0.145996
91.0	6.555479	-2.936028	6.858209	-0.005151	0.010872	-0.005834	-0.597168	0.275879	-0.141602
92.0	6.555854	-2.911886	6.856888	-0.011663	0.009076	-0.00583	-0.60376	0.275879	-0.143799
93.0	6.554526	-2.936421	6.858952	-0.00519	0.008734	-0.005758	-0.594727	0.271729	-0.141602
94.0	6.579372	-2.912988	6.858103	-0.007348	0.008847	-0.005782	-0.601318	0.273682	-0.141602
95.0	6.554554	-2.912261	6.857972	-0.008417	0.008883	-0.006873	-0.597168	0.278076	-0.139404
96.0	6.554073	-2.912384	6.858379	-0.008378	0.011018	-0.006948	-0.599609	0.282471	-0.143799
97.0	6.552234	-2.935181	6.884868	-0.007367	0.008883	-0.003623	-0.597168	0.278076	-0.141602
98.0	6.527802	-2.936191	6.860421	-0.00519	0.00873	-0.005757	-0.599365	0.275879	-0.137207
99.0	6.553144	-2.91456	6.835143	-0.009544	0.006819	-0.005731	-0.599365	0.275879	-0.143799
100.0	6.551503	-2.937445	6.861401	-0.007406	0.006745	-0.003548	-0.599365	0.275879	-0.145996
101.0	6.552487	-2.915111	6.835537	-0.009543	0.006818	-0.005731	-0.60376	0.280029	-0.13501
102.0	6.550874	-2.938002	6.861762	-0.009543	0.006817	-0.005731	-0.60376	0.275879	-0.141602
103.0	6.574969	-2.939123	6.862429	-0.009543	0.006816	-0.005731	-0.601563	0.275879	-0.143799
104.0	6.549805	-2.93684	6.886473	-0.007406	0.006742	-0.003548	-0.594971	0.275879	-0.141602
105.0	6.550717	-2.914494	6.860688	-0.009505	0.00895	-0.005805	-0.599609	0.280273	-0.141602
106.0	6.574392	-2.94152	6.838766	-0.005266	0.004455	-0.005607	-0.601807	0.280273	-0.148193
107.0	6.548781	-2.937457	6.887183	-0.009526	0.008987	-0.003647	-0.60376	0.275879	-0.141602
108.0	6.549452	-2.941093	6.838607	-0.007441	0.002392	-0.007715	-0.601563	0.275879	-0.145996
109.0	6.548832	-2.939448	6.863093	-0.008416	0.008872	-0.006871	-0.597168	0.276123	-0.154541
110.0	6.549804	-2.916873	6.837357	-0.005228	0.006588	-0.00568	-0.599121	0.271729	-0.145996
111.0	6.548212	-2.939566	6.863634	-0.008454	0.006735	-0.006797	-0.60376	0.280273	-0.139404
112.0	6.523861	-2.912821	6.886074	-0.00628	0.008797	-0.004688	-0.601563	0.278076	-0.139404
113.0	6.547372	-2.939746	6.864357	-0.008358	0.010965	-0.009103	-0.605957	0.275879	-0.141602
114.0	6.571523	-2.940635	6.865082	-0.007461	0.002426	-0.005558	-0.592529	0.267334	-0.139404
115.0	6.546774	-2.940012	6.864814	-0.005195	0.010932	-0.001511	-0.599365	0.276123	-0.148193
116.0	6.546879	-2.941986	6.840687	-0.009618	0.002536	-0.005584	-0.597168	0.276123	-0.148193
117.0	6.595018	-2.942	6.866233	-0.005169	0.008681	-0.007912	-0.603516	0.273682	-0.143799
118.0	6.54592	-2.940267	6.865519	-0.006296	0.00662	-0.006772	-0.601563	0.278076	-0.145996
119.0	6.54681	-2.917671	6.839883	-0.006243	0.010927	-0.00476	-0.597168	0.278076	-0.148193
120.0	6.545054	-2.940373	6.866299	-0.006296	0.006619	-0.006772	-0.601563	0.278076	-0.145996
121.0	6.569118	-2.941249	6.86712	-0.008416	0.008862	-0.006871	-0.599365	0.278076	-0.143799
122.0	6.569996	-2.918645	6.841505	-0.003055	0.008645	-0.003569	-0.599365	0.275879	-0.141602
123.0	6.543616	-2.938791	6.891522	-0.009574	0.002455	-0.009902	-0.599365	0.273926	-0.150146
124.0	6.569955	-2.892595	6.864591	-0.005154	0.010849	-0.005826	-0.599365	0.275879	-0.139404
125.0	6.544558	-2.943822	6.81895	-0.00637	0.002347	-0.006626	-0.594971	0.275879	-0.143799
126.0	6.544811	-2.917792	6.841744	-0.006296	0.006615	-0.006772	-0.60376	0.280273	-0.137207
127.0	6.543699	-2.942121	6.84367	-0.005228	0.006579	-0.005679	-0.599609	0.282471	-0.143799
128.0	6.543269	-2.942173	6.844059	-0.007312	0.010955	-0.005851	-0.594971	0.278076	-0.145996
129.0	6.567546	-2.916934	6.867754	-0.005169	0.008673	-0.00791	-0.601563	0.280273	-0.139404
130.0	6.542165	-2.940322	6.869074	-0.005279	0.002271	-0.007692	-0.597168	0.278076	-0.139404
131.0	6.543346	-2.917501	6.84327	-0.005169	0.008672	-0.00791	-0.601563	0.278076	-0.148193
132.0	6.541695	-2.940083	6.869624	-0.005228	0.006576	-0.005679	-0.605957	0.280273	-0.139404
133.0	6.541458	-2.94	6.869885	-0.006273	0.006572	-0.00893	-0.605957	0.276123	-0.148193
134.0	6.542172	-2.915507	6.868408	-0.00631	0.004438	-0.008857	-0.610352	0.278076	-0.143799
135.0	6.541729	-2.941223	6.84594	-0.001958	0.006355	-0.008876	-0.60376	0.280273	-0.141602
136.0	6.541473	-2.940992	6.846284	-0.008395	0.008811	-0.009029	-0.601563	0.27832	-0.150391
137.0	6.566448	-2.917279	6.845493	-0.005183	0.006496	-0.009995	-0.601563	0.278076	-0.143799
138.0	6.540466	-2.939012	6.871252	-0.007327	0.008774	-0.007936	-0.595215	0.280273	-0.143799
139.0	6.540567	-2.940511	6.847356	-0.005111	0.010761	-0.010139	-0.601563	0.273926	-0.148193
140.0	6.564934	-2.942564	6.824248	-0.000783	0.012717	-0.007998	-0.597168	0.276123	-0.145996
141.0	6.538269	-2.962345	6.874642	-0.005123	0.008587	-0.012225	-0.597168	0.273926	-0.148193
142.0	6.53927	-2.939134	6.849185	-0.000796	0.010544	-0.010084	-0.603516	0.273926	-0.145996
143.0	6.539709	-2.91426	6.848125	-0.001922	0.008483	-0.008947	-0.599365	0.275879	-0.143799
144.0	6.539332	-2.913804	6.84868	-0.002953	0.010648	-0.010112	-0.597168	0.275879	-0.143799
145.0	6.538216	-2.937769	6.850777	-0.004115	0.006455	-0.008903	-0.601563	0.276123	-0.148193
146.0	6.562661	-2.912085	6.874479	-0.000831	0.008408	-0.010012	-0.599365	0.278076	-0.139404
147.0	6.537174	-2.935139	6.876039	-0.002989	0.008513	-0.01004	-0.60376	0.275879	-0.143799
148.0	6.538251	-2.912073	6.850448	-0.003048	0.006419	-0.00781	-0.597168	0.278076	-0.139404
149.0	6.586855	-2.913368	6.851886	-0.007339	0.00659	-0.010024	-0.608154	0.278076	-0.150391
150.0	6.561334	-2.936717	6.853356	-0.002978	0.010682	-0.007953	-0.597168	0.278076	-0.143799
151.0	6.561645	-2.912053	6.85232	-0.004045	0.010714	-0.009046	-0.599365	0.278076	-0.145996
152.0	6.536043	-2.935332	6.853894	-0.003013	0.008548	-0.007881	-0.594971	0.273926	-0.143799
153.0	6.560176	-2.90977	6.87783	-0.001877	0.012778	-0.006931	-0.595215	0.280273	-0.145996
154.0	6.534435	-2.932973	6.879566	-0.002953	0.010639	-0.010111	-0.599121	0.269531	-0.139404
155.0	6.559012	-2.934917	6.856349	-0.002988	0.008506	-0.010039	-0.604004	0.280273	-0.150391
156.0	6.535897	-2.885024	6.852958	-0.002988	0.008505	-0.010039	-0.601563	0.275879	-0.145996
157.0	6.557852	-2.932433	6.881642	-0.003013	0.008544	-0.007881	-0.603516	0.273682	-0.143799
158.0	6.558614	-2.93542	6.833395	-0.004079	0.008576	-0.008975	-0.599365	0.275879	-0.143799
159.0	6.533414	-2.932728	6.857515	-0.004113	0.006444	-0.008903	-0.60376	0.276123	-0.148193
160.0	6.558907	-2.910388	6.832526	-0.002988	0.008502	-0.010039	-0.601563	0.278076	-0.139404
161.0	6.558585	-2.910005	6.832998	-0.003013	0.008541	-0.007881	-0.599365	0.275879	-0.145996
162.0	6.557631	-2.907975	6.857892	-0.002954	0.010632	-0.01011	-0.60376	0.275879	-0.141602
163.0	6.5334	-2.908575	6.83344	-0.00517	0.008643	-0.00791	-0.599365	0.276123	-0.148193
164.0	6.556206	-2.931778	6.860374	-0.005179	0.006472	-0.009997	-0.597168	0.273682	-0.139404
165.0	6.532902	-2.907821	6.834236	-0.001837	0.010517	-0.013332	-0.597168	0.278076	-0.139404
166.0	6.556382	-2.90645	6.859732	-0.005171	0.00864	-0.00791	-0.594727	0.271729	-0.143799
167.0	6.555295	-2.93049	6.861796	-0.002987	0.008496	-0.010038	-0.601563	0.275879	-0.143799
168.0	6.579311	-2.930824	6.862946	-0.004046	0.010698	-0.009045	-0.597412	0.280273	-0.141602
169.0	6.553894	-2.928228	6.887202	-0.003039	0.008575	-0.005723	-0.597168	0.273926	-0.143799
170.0	6.554799	-2.905203	6.861773	-0.002954	0.010624	-0.010109	-0.601563	0.275879	-0.145996
171.0	6.57872	-2.905673	6.86296	-0.007295	0.010869	-0.008012	-0.597168	0.273682	-0.141602
172.0	6.553887	-2.904867	6.862787	-0.005171	0.008635	-0.007911	-0.597168	0.278076	-0.145996
173.0	6.554009	-2.90633	6.838949	-0.003007	0.010702	-0.005793	-0.594971	0.275879	-0.141602
174.0	6.552248	-2.928954	6.86536	-0.00523	0.006544	-0.005682	-0.60376	0.278076	-0.141602
175.0	6.552067	-2.902886	6.88846	-0.004105	0.008602	-0.006816	-0.597168	0.276123	-0.145996
176.0	6.576524	-2.931034	6.842437	-0.00517	0.008632	-0.007911	-0.601563	0.278076	-0.145996
177.0	6.553095	-2.907443	6.816263	-0.004105	0.008601	-0.006816	-0.597168	0.275879	-0.139404
178.0	6.551493	-2.904095	6.865398	-0.005197	0.008671	-0.005753	-0.601318	0.273682	-0.141602
179.0	6.551485	-2.905546	6.841701	-0.002915	0.014916	-0.00809	-0.601563	0.278076	-0.139404
180.0	6.574079	-2.928727	6.868853	-0.003104	0.00431	-0.005582	-0.597168	0.273682	-0.139404
181.0	6.525628	-2.928871	6.843486	-0.006262	0.008699	-0.006847	-0.599365	0.275879	-0.137207
182.0	6.549758	-2.903575	6.867273	-0.006262	0.008699	-0.006847	-0.597168	0.273682	-0.139404
183.0	6.574329	-2.906015	6.843938	-0.008447	0.008839	-0.004721	-0.603516	0.271729	-0.143799
184.0	6.548872	-2.9039	6.867981	-0.007355	0.008768	-0.005784	-0.605713	0.273682	-0.141602
185.0	6.546412	-2.951187	6.895806	-0.008479	0.006709	-0.004651	-0.599365	0.273682	-0.139404
186.0	6.547999	-2.930196	6.845806	-0.005197	0.008666	-0.005752	-0.597412	0.280273	-0.141602
187.0	6.547607	-2.930104	6.84622	-0.005169	0.008625	-0.00791	-0.599365	0.273926	-0.145996
188.0	6.570987	-2.929159	6.871626	-0.007355	0.008765	-0.005784	-0.594971	0.275879	-0.141602
189.0	6.571249	-2.904712	6.870521	-0.00298	0.010652	-0.007947	-0.60376	0.278076	-0.141602
190.0	6.570701	-2.930431	6.848288	-0.004104	0.008593	-0.006815	-0.597168	0.278076	-0.139404
191.0	6.544548	-2.952398	6.873988	-0.005197	0.008662	-0.005752	-0.596924	0.271729	-0.139404
192.0	6.569289	-2.928636	6.873473	-0.006234	0.008651	-0.009005	-0.594971	0.275879	-0.141602
193.0	6.545268	-2.903443	6.871609	-0.005169	0.00862	-0.00791	-0.594971	0.278076	-0.143799
194.0	6.569252	-2.930061	6.849837	-0.007386	0.006631	-0.005715	-0.597168	0.273926	-0.143799
195.0	6.569682	-2.905546	6.848597	-0.002983	0.008479	-0.010035	-0.594971	0.278076	-0.145996
196.0	6.568546	-2.903627	6.873563	-0.002977	0.012815	-0.005858	-0.599365	0.278076	-0.143799
197.0	6.567828	-2.929549	6.851421	-0.007324	0.010884	-0.005854	-0.597168	0.273926	-0.143799
198.0	6.542984	-2.928783	6.851203	-0.004075	0.008546	-0.008972	-0.599365	0.278076	-0.143799
199.0	6.541403	-2.925501	6.900223	-0.00845	0.006656	-0.006811	-0.597412	0.282471	-0.139404
200.0	6.567459	-2.905066	6.850934	-0.005198	0.008655	-0.005752	-0.597168	0.275879	-0.143799
201.0	6.567875	-2.880624	6.849675	-0.007328	0.006545	-0.010031	-0.597168	0.275879	-0.143799
202.0	6.566203	-2.929461	6.853015	-0.009573	0.006764	-0.003591	-0.60376	0.278076	-0.139404
203.0	6.517798	-2.903988	6.850269	-0.005229	0.006526	-0.005683	-0.601563	0.275879	-0.145996
204.0	6.565747	-2.903565	6.876263	-0.007298	0.006502	-0.012189	-0.601318	0.271729	-0.145996
205.0	6.565571	-2.903482	6.876466	-0.00845	0.006651	-0.006811	-0.601563	0.275879	-0.143799
206.0	6.539626	-2.951527	6.879044	-0.006294	0.004385	-0.008867	-0.601563	0.278076	-0.137207
207.0	6.54144	-2.930258	6.829	-0.007327	0.008708	-0.007942	-0.60376	0.280273	-0.141602
208.0	6.564916	-2.92924	6.854343	-0.007327	0.006539	-0.010031	-0.601563	0.278076	-0.139404
209.0	6.539592	-2.926778	6.878344	-0.007237	0.010751	-0.012325	-0.599121	0.271729	-0.143799
210.0	6.564212	-2.928764	6.855221	-0.005139	0.010734	-0.007976	-0.597168	0.278076	-0.141602
211.0	6.53997	-2.903666	6.853506	-0.005169	0.010774	-0.005818	-0.599365	0.273926	-0.143799
212.0	6.56201	-2.925204	6.904925	-0.002981	0.006301	-0.012122	-0.597168	0.273926	-0.148193
213.0	6.539461	-2.902838	6.854342	-0.002981	0.008467	-0.010032	-0.597168	0.276123	-0.148193
214.0	6.562885	-2.927378	6.857083	-0.002981	0.008466	-0.010032	-0.596924	0.271729	-0.143799
215.0	6.561974	-2.925427	6.881821	-0.004105	0.006408	-0.008902	-0.597412	0.280273	-0.141602
216.0	6.538813	-2.901712	6.855437	-0.003071	0.004253	-0.007738	-0.594971	0.273926	-0.141602
217.0	6.538008	-2.899843	6.880035	-0.004105	0.006407	-0.008902	-0.597168	0.276123	-0.148193
218.0	6.563603	-2.90324	6.832365	-0.003011	0.006338	-0.009964	-0.601563	0.275879	-0.145996
219.0	6.562668	-2.901364	6.857091	-0.00517	0.0086	-0.007908	-0.599365	0.275879	-0.143799
220.0	6.562349	-2.900909	6.857589	0.001334	0.008271	-0.009963	-0.605713	0.273682	-0.143799
221.0	6.561374	-2.924883	6.859593	-0.008391	0.00872	-0.009039	-0.597168	0.275879	-0.143799
222.0	6.537351	-2.8996	6.857724	-0.001887	0.008392	-0.011093	-0.601807	0.282471	-0.143799
223.0	6.562079	-2.901328	6.834641	-0.004047	0.010654	-0.009037	-0.599121	0.271729	-0.145996
224.0	6.535237	-2.921627	6.884669	-0.004076	0.008527	-0.00897	-0.597168	0.273926	-0.148193
225.0	6.56138	-2.900633	6.835607	-0.002981	0.008458	-0.010031	-0.594971	0.273926	-0.143799
226.0	6.534782	-2.920878	6.885419	-0.005196	0.004301	-0.009931	-0.60376	0.275879	-0.145996
227.0	6.56035	-2.898465	6.860534	-0.00517	0.008593	-0.007908	-0.603516	0.269531	-0.145996
228.0	6.583807	-2.923194	6.863191	-0.003041	0.006372	-0.007806	-0.597168	0.278076	-0.141602
229.0	6.55988	-2.898002	6.861178	-0.007325	0.006518	-0.010034	-0.597412	0.280273	-0.148193
230.0	6.558929	-2.896285	6.885832	-0.006234	0.008616	-0.009004	-0.594727	0.271729	-0.143799
231.0	6.559386	-2.923593	6.839031	-0.007297	0.008642	-0.010101	-0.594727	0.271729	-0.147949
232.0	6.558369	-2.895894	6.886531	-0.004104	0.006396	-0.008902	-0.601318	0.271484	-0.139404
233.0	6.533699	-2.921047	6.863356	-0.0073	0.010806	-0.00801	-0.599365	0.273682	-0.139404
234.0	6.558408	-2.897049	6.862988	-0.003009	0.006327	-0.009963	-0.601563	0.275879	-0.139404
235.0	6.534612	-2.897636	6.838147	-0.007292	0.006471	-0.012191	-0.599121	0.271729	-0.148193
236.0	6.557344	-2.894897	6.887926	-0.005171	0.008585	-0.007907	-0.605957	0.275879	-0.143799
237.0	6.557722	-2.922183	6.841229	-0.005143	0.010709	-0.007974	-0.597168	0.275879	-0.141602
238.0	6.557272	-2.896114	6.864468	-0.005198	0.006459	-0.007841	-0.599365	0.27832	-0.150391
239.0	6.581563	-2.922442	6.842662	-0.006261	0.006484	-0.008937	-0.601563	0.275879	-0.143799
240.0	6.532417	-2.895219	6.864274	-0.006234	0.008607	-0.009004	-0.597168	0.276123	-0.145996
241.0	6.579651	-2.945006	6.869183	-0.005231	0.006499	-0.005683	-0.594971	0.276123	-0.145996
242.0	6.55706	-2.896876	6.841343	-0.000818	0.006188	-0.012084	-0.601563	0.275879	-0.145996
243.0	6.580506	-2.895459	6.866866	-0.005171	0.00858	-0.007907	-0.594971	0.276123	-0.145996
244.0	6.580332	-2.921267	6.844348	-0.007356	0.006547	-0.007877	-0.601563	0.275879	-0.143799
245.0	6.555547	-2.894639	6.866738	-0.004076	0.008511	-0.008967	-0.601318	0.269531	-0.141602
246.0	6.530155	-2.91812	6.867973	-0.005112	0.010659	-0.01013	-0.599365	0.273682	-0.139404
247.0	6.554135	-2.918522	6.869216	-0.006267	0.008643	-0.006846	-0.601318	0.273682	-0.139404
248.0	6.53072	-2.895041	6.842964	-0.005171	0.008575	-0.007907	-0.599609	0.280273	-0.145996
249.0	6.577864	-2.918613	6.870835	-0.002947	0.008399	-0.012185	-0.601318	0.269531	-0.145996
250.0	6.554856	-2.920887	6.821543	-0.007442	0.002336	-0.005588	-0.60376	0.275879	-0.145996
251.0	6.554537	-2.894986	6.84456	-0.005172	0.008573	-0.007906	-0.597168	0.273926	-0.145996
252.0	6.528393	-2.917244	6.87002	-0.007363	0.008705	-0.005786	-0.603516	0.273682	-0.143799
253.0	6.553768	-2.894875	6.845344	-0.004076	0.008505	-0.008967	-0.597168	0.276123	-0.148193
254.0	6.553428	-2.894638	6.845769	-0.005172	0.008571	-0.007906	-0.599365	0.275879	-0.143799
255.0	6.528074	-2.918357	6.846863	-0.007329	0.00866	-0.007943	-0.599609	0.280273	-0.145996
256.0	6.576356	-2.893483	6.871673	-0.006233	0.008593	-0.009003	-0.601318	0.271729	-0.141602
257.0	6.552341	-2.894509	6.846864	-0.009521	0.008791	-0.005823	-0.594971	0.276123	-0.148193
258.0	6.552151	-2.920369	6.824363	-0.005137	0.008526	-0.010063	-0.595215	0.280273	-0.150391
259.0	6.574546	-2.917637	6.874425	-0.00512	0.012813	-0.008036	-0.601318	0.273926	-0.143799
260.0	6.550133	-2.892634	6.872746	-0.00518	0.010731	-0.005813	-0.597168	0.275879	-0.143799
261.0	6.525358	-2.892078	6.872308	-0.008416	0.006555	-0.008976	-0.601563	0.275879	-0.145996
262.0	6.573939	-2.893216	6.874098	-0.009512	0.00662	-0.007916	-0.597168	0.278076	-0.141602
263.0	6.550083	-2.89425	6.849134	-0.006293	0.006507	-0.006781	-0.599365	0.273926	-0.143799
264.0	6.573661	-2.919132	6.851665	-0.007355	0.00653	-0.007878	-0.60376	0.278076	-0.141602
265.0	6.55034	-2.895654	6.825322	-0.005171	0.008563	-0.007905	-0.603516	0.273926	-0.145996
266.0	6.572197	-2.917592	6.876689	-0.009522	0.008781	-0.005824	-0.597168	0.278076	-0.141602
267.0	6.57198	-2.917873	6.876778	-0.009597	0.002414	-0.00563	-0.601563	0.273926	-0.145996
268.0	6.523482	-2.892588	6.873874	-0.005181	0.010725	-0.005811	-0.597168	0.278076	-0.145996
269.0	6.572018	-2.893702	6.87573	-0.009562	0.00237	-0.007788	-0.603516	0.271729	-0.143799
270.0	6.547727	-2.919175	6.852078	-0.007389	0.006568	-0.005721	-0.605957	0.275879	-0.139404
271.0	6.548085	-2.89502	6.850719	-0.009572	0.004533	-0.005695	-0.601563	0.275879	-0.141602
272.0	6.571386	-2.894254	6.876102	-0.006303	0.008666	-0.004687	-0.597168	0.273926	-0.143799
273.0	6.545992	-2.918223	6.877104	-0.008426	0.00871	-0.006883	-0.60376	0.275879	-0.137207
274.0	6.570683	-2.894586	6.876634	-0.009572	0.004531	-0.005695	-0.597168	0.273926	-0.148193
275.0	6.521178	-2.918271	6.876433	-0.011729	0.004617	-0.005734	-0.605713	0.271484	-0.139404
276.0	6.570471	-2.921212	6.853838	-0.01168	0.00886	-0.005861	-0.603516	0.269531	-0.143799
277.0	6.546991	-2.898227	6.827443	-0.010619	0.008836	-0.004763	-0.597168	0.273682	-0.139404
278.0	6.544227	-2.920047	6.878009	-0.011631	0.0131	-0.005988	-0.601563	0.275879	-0.141602
279.0	6.545751	-2.898967	6.828318	-0.009498	0.010891	-0.005886	-0.599365	0.278076	-0.145996
280.0	6.544297	-2.897757	6.853181	-0.009473	0.013011	-0.005949	-0.599365	0.275879	-0.145996
281.0	6.567356	-2.922888	6.856109	-0.01051	0.015152	-0.00711	-0.599365	0.275879	-0.141602
282.0	6.542435	-2.922573	6.855683	-0.00951	0.006603	-0.007917	-0.601563	0.275879	-0.145996
283.0	6.566109	-2.897449	6.879796	-0.005255	0.010798	-0.001492	-0.594971	0.275879	-0.143799
284.0	6.56491	-2.92186	6.881836	-0.007243	0.012837	-0.010224	-0.594971	0.278076	-0.141602
285.0	6.542263	-2.900037	6.831206	-0.010643	0.006706	-0.004701	-0.601807	0.280273	-0.148193
286.0	6.589026	-2.898398	6.881875	-0.007364	0.008677	-0.005783	-0.599365	0.275879	-0.143799
287.0	6.540842	-2.924797	6.83331	-0.00734	0.010796	-0.005846	-0.597168	0.278076	-0.145996
288.0	6.564409	-2.899743	6.8575	-0.008498	0.00878	-0.002567	-0.599365	0.278076	-0.145996
289.0	6.56407	-2.925898	6.835032	-0.009474	0.013	-0.005948	-0.597168	0.275879	-0.141602
290.0	6.562701	-2.924786	6.859755	-0.009582	0.006679	-0.003604	-0.601563	0.278076	-0.141602
291.0	6.53767	-2.924625	6.859353	-0.007329	0.015074	-0.003812	-0.599365	0.278076	-0.145996
292.0	6.53608	-2.92344	6.884311	-0.009497	0.010876	-0.005886	-0.601318	0.269531	-0.145996
293.0	6.559794	-2.9242	6.885719	-0.007353	0.012952	-0.00375	-0.594727	0.269531	-0.145996
294.0	6.535643	-2.925342	6.860979	-0.007363	0.00867	-0.005783	-0.601563	0.27832	-0.150391
295.0	6.535654	-2.901244	6.85995	-0.009535	0.010914	-0.003728	-0.601563	0.280273	-0.137207
296.0	6.559001	-2.926372	6.862617	-0.009483	0.008711	-0.007981	-0.601563	0.275879	-0.145996
297.0	6.535035	-2.927515	6.8377	-0.007401	0.008709	-0.003626	-0.601563	0.278076	-0.145996
298.0	6.58347	-2.928914	6.839627	-0.011763	0.004637	-0.003584	-0.597168	0.278076	-0.148193
299.0	6.534188	-2.928422	6.838121	-0.009512	0.013029	-0.003789	-0.599365	0.275879	-0.145996
300.0	6.558049	-2.929249	6.839375	-0.009544	0.00663	-0.005762	-0.599365	0.275879	-0.143799
301.0	6.556655	-2.928089	6.864126	-0.007354	0.012944	-0.003747	-0.599365	0.278076	-0.145996
302.0	6.557277	-2.905477	6.838968	-0.009512	0.013026	-0.003789	-0.60376	0.275879	-0.141602
303.0	6.555109	-2.928753	6.86532	-0.008414	0.012963	-0.004847	-0.599365	0.275879	-0.143799
304.0	6.554896	-2.904645	6.864522	-0.008414	0.012961	-0.004846	-0.594971	0.278076	-0.137207
305.0	6.555001	-2.906175	6.840853	-0.007253	0.014976	-0.008122	-0.599365	0.275879	-0.139404
306.0	6.552838	-2.929239	6.86728	-0.009473	0.012979	-0.005946	-0.597168	0.278076	-0.141602
307.0	6.552305	-2.929508	6.867674	-0.007424	0.006582	-0.003565	-0.599609	0.280273	-0.145996
308.0	6.553759	-2.882453	6.840884	-0.007378	0.010818	-0.003686	-0.597168	0.278076	-0.143799
309.0	6.576131	-2.906153	6.868015	-0.009496	0.010858	-0.005885	-0.597168	0.278076	-0.143799
310.0	6.550711	-2.930241	6.868882	-0.007361	0.008657	-0.005783	-0.599609	0.282471	-0.145996
311.0	6.550847	-2.906219	6.86772	-0.011739	0.006742	-0.00365	-0.60376	0.275879	-0.145996
312.0	6.550438	-2.906639	6.867933	-0.00846	0.008717	-0.004725	-0.599365	0.275879	-0.139404
313.0	6.549488	-2.931427	6.869542	-0.01068	0.00672	-0.00255	-0.599365	0.278076	-0.143799
314.0	6.549569	-2.907622	6.868345	-0.011716	0.008857	-0.00371	-0.599365	0.273926	-0.145996
315.0	6.547683	-2.930941	6.894375	-0.007361	0.008654	-0.005782	-0.601563	0.278076	-0.148193
316.0	6.548881	-2.933995	6.846121	-0.009513	0.013009	-0.003787	-0.596924	0.271729	-0.139404
317.0	6.549671	-2.911424	6.820826	-0.009558	0.008773	-0.003667	-0.596924	0.271729	-0.152344
318.0	6.569738	-2.956805	6.897968	-0.007378	0.010809	-0.003684	-0.599365	0.278076	-0.141602
319.0	6.571139	-2.909721	6.871282	-0.008459	0.008711	-0.004725	-0.599365	0.275879	-0.141602
320.0	6.545694	-2.933965	6.872074	-0.010594	0.010908	-0.004827	-0.601563	0.278076	-0.145996
321.0	6.546503	-2.911388	6.846772	-0.009536	0.010886	-0.003727	-0.601318	0.271484	-0.139404
322.0	6.544475	-2.934718	6.872914	-0.005284	0.008648	-0.001424	-0.599365	0.275879	-0.145996
323.0	6.568233	-2.935376	6.874381	-0.007315	0.012882	-0.0059	-0.601807	0.280273	-0.145996
324.0	6.543348	-2.934963	6.873882	-0.005224	0.006451	-0.005679	-0.599365	0.278076	-0.145996
325.0	6.567244	-2.935477	6.875283	-0.007315	0.01288	-0.0059	-0.599365	0.275879	-0.139404
326.0	6.544597	-2.91351	6.824804	-0.008396	0.010782	-0.006941	-0.605957	0.278076	-0.141602
327.0	6.566545	-2.911418	6.874954	-0.007379	0.0108	-0.003683	-0.599609	0.280273	-0.148193
328.0	6.541446	-2.961337	6.852816	-0.008437	0.010819	-0.004784	-0.599365	0.275879	-0.145996
329.0	6.566276	-2.913171	6.851583	-0.005179	0.01068	-0.005796	-0.60376	0.278076	-0.145996
330.0	6.540669	-2.937129	6.852625	-0.007293	0.01499	-0.005957	-0.597168	0.276123	-0.148193
331.0	6.538759	-2.910079	6.900483	-0.007339	0.006486	-0.007881	-0.597168	0.276123	-0.148193
332.0	6.540254	-2.912788	6.852147	-0.00518	0.010677	-0.005796	-0.601807	0.280273	-0.145996
333.0	6.564293	-2.913367	6.8534	-0.00956	0.004486	-0.005711	-0.597168	0.273926	-0.150146
334.0	6.539604	-2.91312	6.852625	-0.006301	0.008619	-0.004681	-0.601807	0.280273	-0.148193
335.0	6.538662	-2.937691	6.854299	-0.009517	0.008716	-0.005827	-0.601563	0.278076	-0.143799
336.0	6.562628	-2.938337	6.855597	-0.007359	0.008637	-0.005782	-0.601807	0.282471	-0.145996
337.0	6.562262	-2.938464	6.855893	-0.006323	0.006502	-0.004623	-0.597168	0.275879	-0.143799
338.0	6.5625	-2.914077	6.854815	-0.005181	0.006403	-0.007836	-0.597168	0.275879	-0.143799
339.0	6.536483	-2.936646	6.879692	-0.007402	0.004404	-0.005666	-0.597412	0.280273	-0.145996
340.0	6.536811	-2.912411	6.878463	-0.005287	0.004366	-0.003464	-0.597168	0.276123	-0.148193
341.0	6.561992	-2.914336	6.855192	-0.007402	0.004404	-0.005666	-0.601563	0.273926	-0.148193
342.0	6.536989	-2.938333	6.855619	-0.006302	0.004345	-0.006722	-0.594971	0.278076	-0.139404
343.0	6.560195	-2.937563	6.881119	-0.007424	0.006557	-0.003567	-0.594971	0.273926	-0.148193
344.0	6.535562	-2.937406	6.880243	-0.00956	0.004479	-0.005712	-0.594971	0.273682	-0.139404
345.0	6.535367	-2.937615	6.880339	-0.008438	0.006535	-0.006825	-0.597168	0.278076	-0.143799
346.0	6.561874	-2.916408	6.831559	-0.007317	0.008592	-0.007938	-0.601563	0.278076	-0.141602
347.0	6.560101	-2.939573	6.857485	-0.009539	0.006592	-0.005769	-0.594971	0.276123	-0.145996
348.0	6.559536	-2.939694	6.857974	-0.005139	0.014897	-0.005906	-0.597412	0.280273	-0.148193
349.0	6.534526	-2.93931	6.857548	-0.008417	0.008647	-0.006882	-0.597168	0.278076	-0.143799
350.0	6.558491	-2.939645	6.858994	-0.004037	0.010569	-0.009005	-0.603516	0.273926	-0.145996
351.0	6.534566	-2.94016	6.83429	-0.002916	0.012625	-0.010117	-0.594971	0.275879	-0.141602
352.0	6.533549	-2.914071	6.857995	-0.004037	0.010567	-0.009005	-0.597412	0.280273	-0.143799
353.0	6.557405	-2.914178	6.859647	-0.004017	0.01268	-0.009062	-0.599365	0.278076	-0.137207
354.0	6.532134	-2.937895	6.860433	-0.005179	0.006394	-0.007836	-0.601318	0.273682	-0.137207
355.0	6.556715	-2.913778	6.860476	-0.005159	0.008507	-0.007893	-0.601563	0.278076	-0.145996
356.0	6.556326	-2.913759	6.860855	-0.00736	0.008621	-0.005782	-0.601563	0.275879	-0.143799
357.0	6.530994	-2.937699	6.861603	-0.004081	0.010602	-0.006847	-0.599365	0.275879	-0.141602
358.0	6.554856	-2.937944	6.863196	-0.004081	0.010601	-0.006847	-0.597412	0.280273	-0.145996
359.0	6.577717	-2.93694	6.889123	-0.006239	0.010675	-0.006894	-0.599609	0.280273	-0.143799
360.0	6.554244	-2.913521	6.862945	-0.00734	0.010731	-0.005838	-0.601807	0.280273	-0.145996
361.0	6.552267	-2.936705	6.889035	-0.006303	0.008599	-0.00468	-0.597168	0.278076	-0.141602
362.0	6.52887	-2.913217	6.862813	-0.005138	0.010616	-0.007949	-0.594971	0.278076	-0.139404
363.0	6.552339	-2.937978	6.865585	-0.00736	0.008615	-0.005782	-0.597168	0.278076	-0.139404
364.0	6.551011	-2.936725	6.890221	-0.007335	0.006462	-0.007884	-0.597412	0.280273	-0.143799
365.0	6.550639	-2.936636	6.890612	-0.004081	0.010596	-0.006846	-0.597168	0.276123	-0.148193
366.0	6.551721	-2.91355	6.865342	-0.008436	0.006517	-0.006829	-0.601563	0.275879	-0.141602
367.0	6.551509	-2.913465	6.86558	-0.004076	0.006329	-0.008891	-0.595215	0.280273	-0.143799
368.0	6.550776	-2.93768	6.867203	-0.006259	0.008555	-0.006837	-0.601318	0.273682	-0.141602
369.0	6.551875	-2.914661	6.841894	-0.009473	0.008644	-0.007987	-0.597168	0.276123	-0.145996
370.0	6.551448	-2.914639	6.842311	-0.005138	0.010609	-0.007947	-0.601563	0.275879	-0.143799
371.0	6.574968	-2.939239	6.845117	-0.005157	0.008496	-0.007892	-0.601807	0.280273	-0.145996
372.0	6.5246	-2.936918	6.868017	-0.002942	0.014759	-0.00801	-0.594971	0.276123	-0.148193
373.0	6.525029	-2.9379	6.844367	-0.005092	0.010567	-0.010105	-0.608154	0.275879	-0.145996
374.0	6.548886	-2.938043	6.846035	-0.005119	0.012717	-0.008003	-0.60376	0.278076	-0.148193
375.0	6.522891	-2.935977	6.870042	-0.002869	0.012564	-0.012269	-0.597168	0.273926	-0.145996
376.0	6.570176	-2.934913	6.897178	-0.00399	0.010507	-0.011159	-0.599365	0.276123	-0.148193
377.0	6.52346	-2.912054	6.845631	-0.004082	0.010585	-0.006845	-0.597168	0.278076	-0.148193
378.0	6.570352	-2.935654	6.873886	-0.00511	0.008449	-0.01005	-0.597168	0.273926	-0.145996
379.0	6.545606	-2.934969	6.87329	-0.005092	0.01056	-0.010105	-0.599365	0.275879	-0.145996
380.0	6.545747	-2.910286	6.872422	-0.005129	0.006336	-0.009995	-0.601563	0.273926	-0.148193
381.0	6.544986	-2.934428	6.874111	-0.004083	0.010582	-0.006844	-0.601807	0.282471	-0.143799
382.0	6.544619	-2.934266	6.87453	-0.005175	0.006374	-0.007837	-0.599365	0.278076	-0.145996
383.0	6.567614	-2.933112	6.900384	-0.004036	0.01054	-0.009001	-0.594971	0.273926	-0.141602
384.0	6.54428	-2.90949	6.874156	-0.006259	0.008539	-0.006838	-0.599121	0.271729	-0.143799
385.0	6.543546	-2.933853	6.875727	-0.006277	0.006427	-0.006784	-0.601563	0.276123	-0.150146
386.0	6.542528	-2.908105	6.899211	-0.005139	0.010593	-0.007947	-0.599365	0.278076	-0.139404
387.0	6.519434	-2.93452	6.851145	-0.005157	0.008482	-0.007892	-0.597168	0.278076	-0.145996
388.0	6.567928	-2.935145	6.853627	-0.007332	0.006441	-0.007887	-0.60376	0.278076	-0.137207
389.0	6.541459	-2.907697	6.900397	-0.002981	0.01052	-0.007897	-0.601563	0.275879	-0.141602
390.0	6.567229	-2.934815	6.854438	-0.007332	0.006439	-0.007887	-0.599365	0.275879	-0.141602
391.0	6.542634	-2.934378	6.85358	-0.005174	0.006368	-0.007838	-0.596924	0.271729	-0.139404
392.0	6.541332	-2.933093	6.878158	-0.008435	0.006492	-0.006834	-0.605957	0.275879	-0.139404
393.0	6.541419	-2.908773	6.877182	-0.00626	0.008532	-0.006838	-0.592773	0.271729	-0.147949
394.0	6.540174	-2.957438	6.880144	-0.005139	0.010587	-0.007946	-0.60376	0.280273	-0.141602
395.0	6.5416	-2.909928	6.853729	-0.007362	0.008585	-0.005785	-0.595215	0.282471	-0.137207
396.0	6.541284	-2.909985	6.854007	-0.007331	0.006434	-0.007888	-0.597168	0.275879	-0.139404
397.0	6.563511	-2.957659	6.882298	-0.002999	0.008405	-0.007841	-0.597168	0.278076	-0.141602
398.0	6.540583	-2.909587	6.854844	-0.00514	0.010584	-0.007945	-0.599365	0.275879	-0.141602
399.0	6.540161	-2.909422	6.855318	-0.005157	0.008473	-0.007891	-0.599365	0.276123	-0.150146
400.0	6.563119	-2.908262	6.881206	-0.004053	0.008418	-0.008945	-0.597168	0.273926	-0.145996
401.0	6.563195	-2.883722	6.88033	-0.004167	0.006387	-0.004577	-0.599365	0.278076	-0.145996
402.0	6.53883	-2.933391	6.857632	-0.009423	0.008568	-0.01015	-0.599365	0.278076	-0.145996
403.0	6.562046	-2.908065	6.882312	-0.00308	0.010591	-0.00358	-0.597168	0.273682	-0.141602
404.0	6.537993	-2.933208	6.858508	-0.005124	0.00632	-0.009995	-0.599365	0.273926	-0.145996
405.0	6.562063	-2.933299	6.860033	-0.00514	0.010578	-0.007945	-0.597412	0.280273	-0.150391
406.0	6.537581	-2.908427	6.8582	-0.006194	0.010591	-0.009049	-0.597168	0.278076	-0.143799
407.0	6.561592	-2.908511	6.859785	-0.005107	0.008427	-0.010048	-0.597168	0.275879	-0.143799
408.0	6.53583	-2.906782	6.883334	-0.006276	0.006411	-0.006785	-0.601563	0.275879	-0.143799
409.0	6.559917	-2.907014	6.884785	-0.005156	0.008465	-0.007891	-0.597168	0.275879	-0.143799
410.0	6.535216	-2.906682	6.883959	-0.00738	0.006463	-0.005732	-0.60376	0.275879	-0.145996
411.0	6.534424	-2.931119	6.885562	-0.00519	0.010613	-0.005787	-0.597168	0.273926	-0.145996
412.0	6.560628	-2.933681	6.838487	-0.002949	0.008356	-0.009996	-0.597168	0.278076	-0.145996
413.0	6.5353	-2.907588	6.860729	-0.008449	0.004365	-0.006784	-0.594727	0.271729	-0.145996
414.0	6.56023	-2.933576	6.838914	-0.008368	0.008542	-0.009047	-0.597168	0.278076	-0.143799
415.0	6.559188	-2.908012	6.862296	-0.008433	0.006473	-0.006837	-0.597168	0.275879	-0.143799
416.0	6.534399	-2.907832	6.861484	-0.007348	0.010676	-0.005838	-0.603516	0.273682	-0.141602
417.0	6.53385	-2.908028	6.861924	-0.010559	0.010754	-0.006994	-0.597168	0.275879	-0.141602
418.0	6.532239	-2.907068	6.886622	-0.009521	0.008632	-0.005837	-0.608154	0.278076	-0.145996
419.0	6.533839	-2.90979	6.838432	-0.007367	0.01493	-0.003785	-0.597412	0.282471	-0.143799
420.0	6.556457	-2.909275	6.86437	-0.011744	0.006627	-0.00368	-0.599365	0.275879	-0.139404
421.0	6.531212	-2.9337	6.864755	-0.004187	0.010632	-0.002523	-0.597168	0.276123	-0.145996
422.0	6.554564	-2.884357	6.888288	-0.009622	0.008708	-0.001524	-0.599365	0.278076	-0.145996
423.0	6.530433	-2.910368	6.864184	-0.010792	0.006692	0.001738	-0.601807	0.280273	-0.143799
424.0	6.553542	-2.886071	6.888542	-0.011963	0.004675	0.004999	-0.601807	0.280273	-0.141602
425.0	6.55383	-2.912891	6.865345	-0.012013	0.004714	0.007156	-0.601318	0.271729	-0.148193
426.0	6.55351	-2.889651	6.864315	-0.011865	0.010958	0.002687	-0.594971	0.278076	-0.141602
427.0	6.551928	-2.939698	6.866977	-0.014191	0.009031	0.009157	-0.597168	0.275879	-0.139404
428.0	6.550614	-2.891303	6.889132	-0.014191	0.009029	0.009157	-0.60376	0.275879	-0.143799
429.0	6.550234	-2.868721	6.887903	-0.020695	0.005008	0.0091	-0.603516	0.273926	-0.148193
430.0	6.523748	-2.968105	6.891136	-0.023957	0.005122	0.010099	-0.595215	0.280273	-0.143799
431.0	6.549469	-2.923084	6.865175	-0.022868	0.00296	0.009098	-0.599365	0.276123	-0.150146
432.0	6.549678	-2.950959	6.841549	-0.025061	0.005166	0.011152	-0.599609	0.280273	-0.145996
433.0	6.548776	-2.977791	6.842155	-0.026146	0.000962	0.010147	-0.599365	0.276123	-0.148193
434.0	6.571187	-2.855134	6.909943	-0.029289	0.003107	0.006782	-0.605957	0.278076	-0.141602
435.0	6.54776	-2.957376	6.863361	-0.035893	-0.013565	0.00702	-0.599609	0.280273	-0.148193
436.0	6.496709	-2.857636	6.95182	-0.036028	-0.017716	0.011433	-0.601563	0.275879	-0.137207
437.0	6.550188	-2.865576	6.878303	-0.049174	-0.029921	0.015725	-0.601563	0.275879	-0.143799
438.0	6.551416	-2.968736	6.854963	-0.049241	-0.032012	0.017931	-0.595215	0.280273	-0.145996
439.0	6.552632	-2.997525	6.852619	-0.045963	-0.030032	0.016883	-0.597168	0.278076	-0.148193
440.0	6.55465	-2.977105	6.848239	-0.041548	-0.03024	0.012673	-0.599609	0.280273	-0.145996
441.0	6.55917	-3.008464	6.773134	-0.042567	-0.026019	0.011475	-0.599365	0.275879	-0.141602
442.0	6.58373	-3.011146	6.79586	-0.031861	-0.024169	0.015998	-0.601807	0.280273	-0.141602
443.0	6.559986	-3.038243	6.79343	-0.033819	-0.017881	0.009337	-0.595215	0.282471	-0.141602
444.0	6.560531	-2.991084	6.813669	-0.02522	-0.015995	0.011651	-0.60376	0.278076	-0.141602
445.0	6.559755	-3.066432	6.815432	-0.020719	-0.005634	0.007209	-0.597412	0.282471	-0.139404
446.0	6.511452	-3.042981	6.811349	-0.01632	-0.00157	0.005061	-0.599365	0.278076	-0.143799
447.0	6.537283	-3.021244	6.786568	-0.012993	0.0004	0.001856	-0.599365	0.275879	-0.143799
448.0	6.560611	-3.021338	6.811659	-0.009702	-0.001848	-0.00126	-0.599609	0.280273	-0.143799
449.0	6.534899	-3.044738	6.835583	-0.006441	-0.001956	-0.002263	-0.601563	0.27832	-0.150391
450.0	6.534605	-3.019299	6.858532	-0.00521	-0.004202	-0.009743	-0.601807	0.282471	-0.145996
451.0	6.561114	-2.99583	6.833868	-0.000847	-0.004355	-0.0118	-0.601807	0.284668	-0.145996
452.0	6.536108	-2.944017	6.878934	-0.003088	-0.008485	-0.009603	-0.601563	0.275879	-0.145996
453.0	6.586263	-2.993858	6.858119	0.000235	-0.012874	-0.014832	-0.601807	0.280273	-0.141602
454.0	6.566052	-3.01992	6.784195	0.001403	-0.010841	-0.018088	-0.60376	0.280273	-0.137207
455.0	6.591346	-3.042938	6.785843	0.009092	-0.009022	-0.023351	-0.599609	0.280273	-0.145996
456.0	6.568263	-3.040224	6.784539	0.012417	-0.007053	-0.026558	-0.601563	0.278076	-0.141602
457.0	6.592072	-3.011309	6.83338	0.012547	-0.002899	-0.030962	-0.599365	0.278076	-0.143799
458.0	6.570269	-2.984471	6.807182	0.016974	-0.000978	-0.035223	-0.60376	0.280273	-0.143799
459.0	6.547145	-2.980112	6.806636	0.029999	-0.003523	-0.039194	-0.601563	0.278076	-0.139404
460.0	6.571347	-2.92466	6.855223	0.040707	-0.001658	-0.034677	-0.601563	0.278076	-0.141602
461.0	6.598042	-2.920979	6.832941	0.043841	-0.005932	-0.031274	-0.597168	0.275879	-0.139404
462.0	6.573362	-2.963168	6.859187	0.048127	-0.010288	-0.031081	-0.601807	0.284424	-0.139404
463.0	6.598871	-2.932758	6.883998	0.041659	-0.016492	-0.033245	-0.601318	0.273682	-0.139404
464.0	6.577635	-2.902763	6.881361	0.040682	-0.033531	-0.042595	-0.599365	0.273682	-0.141602
465.0	6.581837	-2.897398	6.879604	0.033032	-0.052365	-0.043412	-0.597168	0.275879	-0.137207
466.0	6.562631	-2.892608	6.875491	0.012553	-0.060328	-0.046913	-0.597168	0.275879	-0.13501
467.0	6.56894	-2.840479	6.869177	-0.006857	-0.066198	-0.049354	-0.601563	0.278076	-0.143799
468.0	6.600202	-2.863961	6.842032	-0.019884	-0.072179	-0.047332	-0.605957	0.275879	-0.137207
469.0	6.607702	-2.887713	6.812987	-0.027337	-0.082726	-0.054801	-0.608154	0.277832	-0.133057
470.0	6.639859	-2.837886	6.805237	-0.037177	-0.08665	-0.049515	-0.60376	0.278076	-0.139404
471.0	6.646278	-2.910427	6.801835	-0.043575	-0.080228	-0.051947	-0.599121	0.273682	-0.13501
472.0	6.654824	-2.912471	6.746636	-0.053267	-0.071545	-0.051252	-0.60376	0.275879	-0.13501
473.0	6.612612	-2.986642	6.717309	-0.052249	-0.071562	-0.047994	-0.603516	0.271484	-0.13501
474.0	6.738673	-2.886622	6.784843	-0.041433	-0.065521	-0.047922	-0.603516	0.273682	-0.137207
475.0	6.624633	-3.011877	6.682928	-0.039385	-0.052738	-0.039525	-0.60376	0.275879	-0.13501
476.0	6.676254	-2.911241	6.749009	-0.032919	-0.05504	-0.039357	-0.605713	0.273682	-0.137207
477.0	6.706285	-2.912146	6.720905	-0.030877	-0.054998	-0.032845	-0.60376	0.278076	-0.137207
478.0	6.710503	-2.936331	6.717657	-0.028691	-0.046589	-0.032984	-0.60791	0.275879	-0.13501
479.0	6.6894	-2.910375	6.736354	-0.022248	-0.044596	-0.030754	-0.60791	0.273682	-0.132813
480.0	6.694401	-2.960492	6.686355	-0.016847	-0.036229	-0.029756	-0.60791	0.275635	-0.128662
481.0	6.697308	-3.008124	6.685719	-0.008203	-0.032191	-0.029692	-0.605957	0.278076	-0.13501
482.0	6.674623	-3.005066	6.707604	0.003765	-0.01555	-0.033073	-0.610107	0.275879	-0.133057
483.0	6.679157	-3.005441	6.633603	0.008117	-0.015693	-0.035155	-0.605713	0.273682	-0.137207
484.0	6.679811	-3.025271	6.659015	0.021217	0.002988	-0.0418	-0.603516	0.273682	-0.13501
485.0	6.606167	-2.993656	6.705433	0.038594	0.004593	-0.048017	-0.605957	0.275879	-0.13501
486.0	6.631864	-2.96283	6.706915	0.050631	0.00624	-0.057563	-0.605957	0.275879	-0.132813
487.0	6.6332	-2.955039	6.70903	0.060473	0.007964	-0.064989	-0.605469	0.26709	-0.132813
488.0	6.608391	-2.992944	6.761592	0.064905	0.011936	-0.071476	-0.60791	0.273682	-0.132813
489.0	6.559545	-2.908513	6.80798	0.06172	0.007648	-0.074674	-0.601318	0.269287	-0.13501
490.0	6.585316	-2.946647	6.837293	0.065118	-0.005416	-0.084039	-0.60791	0.271484	-0.126465
491.0	6.489245	-2.933326	6.907621	0.060986	-0.035333	-0.094227	-0.605713	0.269287	-0.137207
492.0	6.493082	-2.966004	7.005682	0.076516	-0.078749	-0.116718	-0.605713	0.269531	-0.139404
493.0	6.430602	-3.120712	7.055063	0.076098	-0.145587	-0.15079	-0.605469	0.264893	-0.130615
494.0	6.424702	-3.152688	7.047446	0.083531	-0.217497	-0.200784	-0.609863	0.269287	-0.130859
495.0	6.403165	-3.328381	7.017536	0.102841	-0.298475	-0.247128	-0.609619	0.262695	-0.128418
496.0	6.411102	-3.324157	7.048921	0.139755	-0.387339	-0.312465	-0.607422	0.260742	-0.126465
497.0	6.402401	-3.309638	7.148123	0.173598	-0.487882	-0.382957	-0.609619	0.262695	-0.128418
498.0	6.210826	-3.610251	7.647282	0.237148	-0.617047	-0.48375	-0.61792	0.25415	-0.117676
499.0	6.439003	-3.980058	7.833818	0.27212	-0.764943	-0.63501	-0.61792	0.251709	-0.113281
500.0	6.408992	-3.8533	7.591365	0.315945	-0.929511	-0.783613	-0.624512	0.251709	-0.106934
501.0	6.896899	-4.016365	7.696961	0.319616	-1.082997	-0.974606	-0.624023	0.23877	-0.100342
502.0	6.773819	-4.228439	7.580644	0.294708	-1.223289	-1.176545	-0.630371	0.234131	-0.089355
503.0	7.296466	-4.667549	7.359561	0.275789	-1.326057	-1.398067	-0.63208	0.223389	-0.087158
504.0	7.474651	-4.923622	7.34839	0.288209	-1.395884	-1.586865	-0.640381	0.216797	-0.069824
505.0	8.064474	-5.041253	7.034666	0.394555	-1.431815	-1.785238	-0.635742	0.210205	-0.059082
506.0	8.168781	-5.332744	7.329811	0.527819	-1.42266	-1.924695	-0.639404	0.190674	-0.05249
507.0	7.434758	-6.817512	7.505607	0.815363	-1.328921	-1.981117	-0.641113	0.179932	-0.045898
508.0	6.906895	-6.24782	8.347096	1.104525	-1.198519	-1.929176	-0.636475	0.17334	-0.037109
509.0	6.321904	-5.616101	9.186159	1.134758	-1.042065	-1.694563	-0.638184	0.160156	-0.02832
510.0	4.651674	-5.402486	9.083421	0.926705	-0.972754	-1.299046	-0.637939	0.153564	-0.017578
511.0	4.02206	-5.985742	9.192476	0.62989	-1.016806	-0.794561	-0.627197	0.157959	-0.010986
512.0	4.544867	-5.807074	10.282234	0.340165	-0.915952	-0.255619	-0.629639	0.164307	-0.008789
513.0	4.056227	-7.45064	10.158744	0.192041	-0.627437	0.298677	-0.627686	0.170654	-0.002441
514.0	2.126312	-6.592427	10.082114	0.213349	-0.320743	0.600582	-0.61499	0.183594	0.00415
515.0	1.027981	-6.215045	10.242689	0.200871	-0.198986	0.870083	-0.604492	0.189941	0.006104
516.0	0.852484	-4.761923	10.830249	0.122038	-0.034879	1.002392	-0.596191	0.205078	0.010498
517.0	1.200059	-4.314404	11.27859	-0.068389	0.145157	1.133815	-0.581787	0.222168	0.019043
518.0	1.577321	-4.252681	11.392643	-0.2488	0.360687	1.222792	-0.567139	0.239502	0.019043
519.0	2.284084	-4.423676	11.384416	-0.343472	0.615794	1.275182	-0.550537	0.258789	0.025391
520.0	3.022844	-4.443288	11.330471	-0.348286	0.885693	1.31449	-0.522705	0.271729	0.029785
521.0	3.809511	-4.211926	11.204406	-0.33744	1.152898	1.347768	-0.512207	0.286621	0.03833
522.0	4.574558	-3.866183	11.018868	-0.347981	1.397642	1.387435	-0.48877	0.29541	0.047119
523.0	5.220156	-3.650567	10.695089	-0.385455	1.593365	1.414399	-0.465088	0.308105	0.062256
524.0	5.928178	-3.491603	10.279206	-0.432924	1.745563	1.435668	-0.446289	0.327148	0.081543
525.0	6.529233	-3.336531	9.708594	-0.491775	1.842863	1.448389	-0.429199	0.335693	0.101074
526.0	7.00254	-3.267374	9.08583	-0.547551	1.884923	1.453879	-0.411865	0.342041	0.120605
527.0	7.503677	-3.236942	8.48909	-0.587371	1.887484	1.449822	-0.401123	0.343994	0.137939
528.0	7.938426	-3.185864	8.03635	-0.613988	1.852519	1.431953	-0.39502	0.354248	0.161865
529.0	8.326125	-3.151782	7.504241	-0.624598	1.799002	1.404899	-0.392578	0.35376	0.196533
530.0	8.572135	-3.062834	7.101876	-0.634443	1.729196	1.366535	-0.39502	0.35791	0.222412
531.0	8.675878	-2.844344	6.76644	-0.651276	1.642162	1.330729	-0.39917	0.355225	0.246338
532.0	8.731213	-2.667622	6.479956	-0.688503	1.527444	1.297302	-0.409912	0.352783	0.263672
533.0	8.832784	-2.513242	6.240423	-0.732817	1.391159	1.284253	-0.420654	0.350342	0.2854
534.0	9.405072	-2.560105	6.061796	-0.76093	1.273373	1.292186	-0.431641	0.352295	0.300537
535.0	10.077251	-2.801681	5.834196	-0.712903	1.240203	1.31485	-0.447021	0.356445	0.313477
536.0	10.385094	-2.677228	5.69963	-0.610478	1.267679	1.355422	-0.468506	0.351807	0.317871
537.0	10.257641	-2.168255	5.498887	-0.518733	1.294899	1.39201	-0.486084	0.355957	0.324219
538.0	9.968551	-1.68102	5.160806	-0.463433	1.276128	1.394293	-0.49707	0.358154	0.324219
539.0	9.626869	-1.268699	4.589433	-0.421384	1.222103	1.361769	-0.512451	0.364502	0.324219
540.0	9.32006	-1.008441	3.987751	-0.378905	1.119076	1.268987	-0.527832	0.366699	0.31543
541.0	9.161787	-0.669965	3.464219	-0.347168	1.003341	1.129733	-0.534668	0.371094	0.311035
542.0	9.116067	-0.34971	2.970096	-0.329148	0.885199	0.955396	-0.549805	0.373291	0.300049
543.0	8.806041	0.193557	2.439254	-0.353956	0.749503	0.743353	-0.556641	0.377686	0.304443
544.0	8.534014	0.756879	2.071489	-0.438512	0.570319	0.511275	-0.56543	0.377686	0.297852
545.0	8.80958	1.037147	1.890145	-0.569567	0.362895	0.27079	-0.576172	0.377686	0.293701
546.0	9.514146	1.173202	1.828664	-0.697682	0.209968	0.080002	-0.585205	0.381836	0.291504
547.0	9.861761	1.19759	1.645037	-0.797446	0.112959	-0.051698	-0.589111	0.375488	0.289307
548.0	9.85108	0.946126	1.160309	-0.809724	0.027639	-0.151596	-0.598145	0.379883	0.289307
549.0	9.889309	0.603099	0.692817	-0.705086	-0.092021	-0.268896	-0.600098	0.375488	0.293457
550.0	9.975096	0.463222	0.294681	-0.539402	-0.235224	-0.364246	-0.606689	0.375244	0.297852
551.0	10.284873	0.280483	0.115756	-0.36767	-0.405504	-0.446174	-0.617432	0.375244	0.308594
552.0	9.485326	-1.931679	-1.494787	-0.141926	-0.593782	-0.541873	-0.615234	0.37085	0.310791
553.0	7.959434	-4.870793	-1.078754	1.17167	-1.206441	-1.292949	-0.623535	0.364014	0.328369
554.0	0.681268	-3.468811	11.219047	1.526423	-1.905186	-1.570697	-0.625244	0.355225	0.341309
555.0	-2.051773	-11.661428	12.234176	1.190355	-2.083373	-1.931253	-0.635742	0.342041	0.358643
556.0	5.785451	-6.17996	7.382259	1.575616	-2.548587	-2.078676	-0.64624	0.333252	0.373779
557.0	14.404341	-0.290915	5.05074	1.53417	-2.720562	-1.576972	-0.643799	0.328613	0.397705
558.0	15.880253	1.549253	7.570002	1.362255	-2.404501	-0.837789	-0.649902	0.319824	0.417236
559.0	12.652402	1.904947	10.001413	0.996232	-1.845294	-0.499819	-0.649902	0.321777	0.426025
560.0	9.395435	3.378749	11.07222	0.550049	-1.423761	-0.694834	-0.656494	0.32373	0.438965
561.0	8.763986	4.017596	10.448934	-0.100476	-1.111054	-0.902946	-0.649658	0.317383	0.438965
562.0	8.340333	0.593159	7.97309	-0.591066	-0.95303	-0.838921	-0.656006	0.310547	0.454102
563.0	7.828956	-3.719556	5.687013	-0.730885	-0.978589	-0.597847	-0.656006	0.30835	0.460693
564.0	16.092477	-10.686204	6.019096	-0.332965	-0.585216	-0.349667	-0.662354	0.306152	0.465088
565.0	13.225122	-8.906533	0.129469	0.352164	0.205068	0.197337	-0.656006	0.310547	0.458496
566.0	7.23036	-4.293415	6.684962	0.478367	0.119901	-0.233103	-0.660156	0.306152	0.462891
567.0	6.337528	-3.673664	6.122857	0.410523	0.243895	-0.266346	-0.660156	0.306152	0.460693
568.0	7.397943	-4.748268	5.090059	0.503363	0.20764	-0.310549	-0.666748	0.306152	0.456299
569.0	7.480283	-1.789897	6.97637	0.550116	0.236083	-0.203664	-0.662354	0.306152	0.458496
570.0	7.240395	-1.329921	7.668943	0.349135	0.339366	-0.183696	-0.662354	0.304199	0.456299
571.0	6.910353	-2.237076	6.952865	0.250713	0.381661	-0.149943	-0.660156	0.304199	0.452148
572.0	7.015329	-2.044698	7.38816	0.201086	0.368299	-0.073786	-0.664551	0.306396	0.451904
573.0	7.154706	-1.405397	7.741961	0.035995	0.367944	0.005216	-0.666504	0.302002	0.452148
574.0	6.986657	-2.029502	7.220317	-0.102369	0.359708	0.074478	-0.664307	0.299805	0.456299
575.0	6.791945	-2.828173	6.776504	-0.148608	0.310283	0.11915	-0.666748	0.304199	0.451904
576.0	6.860326	-3.107911	6.564542	-0.132102	0.263773	0.120695	-0.662354	0.304199	0.447754
577.0	6.98806	-3.077786	6.625137	-0.120806	0.228362	0.116459	-0.662354	0.304199	0.449951
578.0	7.208211	-2.531667	6.753542	-0.107746	0.224933	0.092903	-0.664795	0.310547	0.449707
579.0	6.759165	-2.914355	6.880372	-0.113973	0.237717	0.092483	-0.664551	0.304199	0.443359
580.0	6.592931	-2.91479	7.034558	-0.134199	0.191155	0.082869	-0.669189	0.312744	0.449707
581.0	6.610783	-2.762595	7.007527	-0.168721	0.134738	0.078742	-0.669189	0.312988	0.438965
582.0	6.775687	-2.717796	6.960434	-0.200367	0.074142	0.099522	-0.662598	0.310547	0.454102
583.0	6.664621	-2.958856	6.893429	-0.235092	0.013521	0.101844	-0.666748	0.306396	0.445557
584.0	6.689101	-2.98826	6.788139	-0.26308	-0.041147	0.088903	-0.666992	0.310547	0.454102
585.0	6.762853	-3.093089	6.683098	-0.281216	-0.087789	0.076889	-0.669189	0.312744	0.443359
586.0	6.689366	-3.261809	6.622925	-0.276809	-0.137629	0.068358	-0.664795	0.312744	0.445557
587.0	6.771961	-3.264244	6.579721	-0.279418	-0.163686	0.055946	-0.666992	0.314941	0.454102
588.0	6.784092	-3.210399	6.628863	-0.282168	-0.191951	0.052181	-0.666992	0.312744	0.451904
589.0	6.847188	-3.188719	6.532435	-0.283289	-0.194635	0.051156	-0.664795	0.310547	0.451904
590.0	6.8361	-3.160119	6.532216	-0.278197	-0.20621	0.058958	-0.669189	0.312744	0.454102
591.0	6.847944	-3.183878	6.460613	-0.26749	-0.207323	0.072	-0.664795	0.314941	0.456299
592.0	6.856432	-3.255448	6.415277	-0.253327	-0.199941	0.083841	-0.660156	0.30835	0.460693
593.0	6.813955	-3.348132	6.37115	-0.228282	-0.19066	0.087051	-0.664795	0.310547	0.454102
594.0	6.785431	-3.636187	6.284321	-0.20412	-0.174636	0.078288	-0.666992	0.312744	0.454102
595.0	6.763205	-3.774289	6.19564	-0.166922	-0.156455	0.045765	-0.666992	0.3125	0.465088
596.0	6.770827	-3.78539	6.180522	-0.125155	-0.127196	0.015271	-0.664795	0.312744	0.454102
597.0	6.804746	-3.744698	6.167611	-0.096477	-0.102604	-0.015188	-0.665039	0.316895	0.456299
598.0	6.767261	-3.647092	6.205762	-0.061219	-0.073481	-0.032745	-0.662598	0.310547	0.465088
599.0	6.772683	-3.646787	6.22425	-0.02515	-0.05494	-0.042658	-0.667236	0.316895	0.460693
600.0	6.82829	-3.597397	6.244442	0.004597	-0.029848	-0.05263	-0.664795	0.3125	0.469238
601.0	6.805994	-3.615178	6.268728	0.038513	-0.010994	-0.053922	-0.662598	0.310547	0.460693
602.0	6.734898	-3.604425	6.2466	0.07682	0.011777	-0.066054	-0.666992	0.3125	0.465088
603.0	6.78748	-3.546811	6.298784	0.105126	0.022141	-0.068348	-0.664795	0.310547	0.462891
604.0	6.815083	-3.486575	6.327997	0.124739	0.030377	-0.074927	-0.669189	0.3125	0.460693
605.0	6.81673	-3.448548	6.334389	0.137878	0.038741	-0.081503	-0.666748	0.310303	0.467041
606.0	6.813188	-3.506962	6.320229	0.158905	0.062049	-0.091493	-0.664795	0.310547	0.458496
607.0	6.860761	-3.490842	6.355726	0.184284	0.087344	-0.107995	-0.666748	0.30835	0.467285
608.0	6.873257	-3.692799	6.278358	0.219636	0.124846	-0.134378	-0.664551	0.303955	0.462891
609.0	6.862804	-3.840305	6.180992	0.284436	0.176491	-0.183621	-0.668701	0.303955	0.458496
610.0	6.78426	-3.828052	6.20717	0.340561	0.225558	-0.23716	-0.664795	0.310547	0.460693
611.0	6.828807	-3.762981	6.285629	0.388781	0.254914	-0.293631	-0.671143	0.306152	0.454102
612.0	6.855617	-3.464769	6.503727	0.417091	0.254303	-0.349602	-0.666504	0.302002	0.454102
613.0	6.739889	-3.032703	6.759418	0.407669	0.190447	-0.382818	-0.670898	0.299805	0.449951
614.0	6.76955	-2.725068	7.013301	0.384759	0.090984	-0.384962	-0.666504	0.299805	0.454102
615.0	6.58039	-2.578235	7.359338	0.356039	-0.052912	-0.37615	-0.664063	0.293457	0.452148
616.0	6.233865	-2.308775	7.707977	0.297766	-0.248851	-0.343219	-0.670898	0.299805	0.454102
617.0	6.189755	-2.647212	7.835429	0.277491	-0.483695	-0.335601	-0.668457	0.293213	0.465088
618.0	5.930684	-2.43754	8.110513	0.239046	-0.761347	-0.325312	-0.666016	0.291016	0.47168
619.0	6.228291	-2.512364	7.848409	0.220692	-1.021454	-0.330203	-0.670166	0.286621	0.473877
620.0	6.353405	-2.348373	7.845611	0.202809	-1.298151	-0.338499	-0.663574	0.280029	0.478271
621.0	6.113986	-2.541321	7.980786	0.189895	-1.577908	-0.342044	-0.665771	0.282227	0.489014
622.0	5.908969	-3.15703	7.671625	0.159246	-1.860169	-0.403113	-0.665771	0.281982	0.499756
623.0	6.201086	-3.285668	7.584556	0.152356	-2.139645	-0.510971	-0.661133	0.279785	0.508545
624.0	6.21713	-3.399292	7.644204	0.138779	-2.466528	-0.629694	-0.660889	0.270996	0.523682
625.0	6.082551	-3.620526	7.519818	0.140839	-2.831023	-0.788807	-0.651855	0.264404	0.532471
626.0	6.195511	-4.227666	7.238598	0.146036	-3.20036	-1.030434	-0.649414	0.257568	0.554199
627.0	6.179069	-3.79178	7.055578	0.116167	-3.595969	-1.282946	-0.638184	0.250977	0.575928
628.0	5.857315	-3.537407	7.246551	0.127928	-4.037234	-1.512378	-0.639648	0.231201	0.597656
629.0	5.888254	-2.852006	5.075066	0.20202	-4.542727	-1.795493	-0.626221	0.222412	0.621582
630.0	4.931054	-4.723611	9.835258	0.154807	-5.107157	-2.038079	-0.614746	0.211182	0.6521
631.0	7.601573	-5.717396	6.179621	0.320477	-5.7606	-2.541914	-0.598633	0.193604	0.682373
632.0	6.026999	-5.947928	6.383494	0.35007	-6.39163	-3.075302	-0.58252	0.169678	0.717285
633.0	10.599218	-3.716574	6.395134	0.467474	-6.855191	-3.459534	-0.55542	0.147705	0.760742
634.0	13.372142	-2.129175	6.144655	0.403174	-6.914299	-3.567031	-0.521729	0.121582	0.789063
635.0	17.520779	-0.353088	5.824136	0.125629	-6.659818	-3.43814	-0.501221	0.099609	0.81958
636.0	19.669079	-1.18437	4.70878	-0.293704	-6.196496	-3.185101	-0.474121	0.073486	0.8479
637.0	20.770496	-2.152792	5.064246	-0.405563	-5.615953	-3.110408	-0.447021	0.052002	0.861084
638.0	22.085724	-3.969867	6.039278	-0.566539	-4.846862	-2.924646	-0.435059	0.028076	0.880859
639.0	18.393816	-6.081325	6.478835	-0.527136	-4.095092	-2.856156	-0.412598	0.010742	0.894043
640.0	11.522159	-9.104687	5.068553	-0.100243	-3.629042	-3.171676	-0.405273	-0.010742	0.894043
641.0	8.097965	-10.102018	4.601799	1.26544	-3.792067	-4.174817	-0.380615	-0.030273	0.911621
642.0	10.068677	-9.899806	5.278396	2.355324	-4.09021	-4.327215	-0.363037	-0.034668	0.931152
643.0	14.469582	-8.189138	12.666903	2.624753	-3.585568	-3.46151	-0.360596	-0.037109	0.944092
644.0	22.399232	-7.556363	14.227659	2.417097	-1.565502	-2.039236	-0.371826	-0.032715	0.948486
645.0	16.055141	-6.325692	14.696908	1.865	0.357868	-0.660738	-0.397705	-0.037109	0.941895
646.0	8.258163	-4.464262	13.681312	0.957353	1.525258	0.168934	-0.434814	-0.034912	0.935303
647.0	3.750301	-4.625711	10.484116	0.388825	1.789158	0.343511	-0.469971	-0.030518	0.911377
648.0	3.674798	-4.129258	9.136107	0.196948	1.814663	0.408765	-0.502441	-0.032471	0.885254
649.0	4.698365	-4.895856	8.225422	0.250236	2.015292	0.500014	-0.546387	-0.021484	0.859131
650.0	5.631324	-5.181452	8.267462	0.537101	2.38969	0.580679	-0.572998	-0.014648	0.824463
651.0	6.092125	-4.343393	8.826172	0.708405	2.854399	0.675763	-0.604004	-0.005371	0.772217
652.0	6.401587	-3.403945	9.207648	0.605443	3.351312	0.836085	-0.619873	0.008057	0.720215
653.0	6.668781	-3.131484	9.029198	0.315454	3.850867	1.03989	-0.622314	0.015381	0.659424
654.0	6.737962	-3.492527	8.321977	-0.021259	4.309401	1.23552	-0.620361	0.018311	0.605225
655.0	6.647271	-4.024975	7.42791	-0.294663	4.691815	1.394259	-0.609863	0.023438	0.548828
656.0	6.760224	-4.458702	6.671503	-0.476147	4.971964	1.522677	-0.590332	0.019775	0.505615
657.0	7.010051	-4.593854	6.153479	-0.618087	5.180846	1.662414	-0.568115	0.009521	0.466797
658.0	7.33537	-4.431809	5.762079	-0.80085	5.315535	1.847614	-0.563232	-0.007324	0.445068
659.0	7.723521	-4.200688	5.40353	-1.051066	5.380106	2.071013	-0.553955	-0.021973	0.425781
660.0	8.220442	-4.29394	5.077383	-1.295939	5.377619	2.294862	-0.568848	-0.030518	0.40625
661.0	8.938724	-4.460098	4.909112	-1.503115	5.336955	2.500967	-0.582031	-0.028076	0.380127
662.0	9.837273	-4.32366	5.106134	-1.683338	5.252538	2.686197	-0.60376	-0.029785	0.356201
663.0	11.179329	-4.241133	5.367078	-1.882438	5.165745	2.854438	-0.621826	-0.016602	0.327881
664.0	12.416653	-4.527038	5.536483	-2.064754	5.107241	3.013793	-0.64624	-0.005615	0.293213
665.0	12.795111	-4.533642	5.833287	-2.178824	5.021453	3.182485	-0.668945	0.016357	0.249756
666.0	12.162884	-4.40304	6.023079	-2.295341	4.762141	3.271092	-0.687988	0.051514	0.206055
667.0	12.370622	-4.332454	6.758578	-2.388407	4.304441	3.254279	-0.704834	0.090576	0.162598
668.0	15.411368	-4.449852	8.021709	-2.462965	3.838846	3.147711	-0.712891	0.129883	0.116943
669.0	20.680052	-4.46318	8.92421	-2.546983	3.705765	3.149233	-0.697754	0.18457	0.064697
670.0	22.064881	-2.813888	8.50509	-2.579997	3.799189	3.249068	-0.671387	0.236816	0.023193
671.0	20.425269	-0.173255	6.891351	-2.656235	3.569493	3.300974	-0.625	0.271973	-0.018066
672.0	19.369887	2.915394	5.15818	-2.700009	2.935518	3.167605	-0.576172	0.300293	-0.029053
673.0	23.078474	6.951029	4.909314	-2.598692	2.114991	2.828316	-0.519775	0.307129	-0.044189
674.0	24.060813	4.059223	1.320744	-2.326224	1.906832	2.601774	-0.478271	0.300781	-0.041748
675.0	30.994325	4.583742	0.678666	-1.355179	2.27892	2.399224	-0.438721	0.29248	-0.043945
676.0	26.12122	5.796124	-3.826135	-0.403332	2.836815	2.233444	-0.414063	0.273438	-0.054443
677.0	24.156365	8.146699	-7.532461	0.392225	2.991232	2.046298	-0.389648	0.264893	-0.054443
678.0	20.216361	12.613822	-9.69937	0.594794	2.6437	1.848271	-0.373779	0.245605	-0.056396
679.0	19.528129	15.039953	-11.152587	0.302971	2.008153	1.652582	-0.362549	0.234863	-0.058594
680.0	19.021714	14.69269	-12.521755	0.054522	1.354599	1.277423	-0.353516	0.230469	-0.058594
681.0	17.00494	13.14995	-13.822836	0.212134	0.639398	0.628315	-0.344238	0.215332	-0.049805
682.0	15.558549	14.487655	-11.796972	0.480634	-0.554696	-0.315454	-0.3396	0.206787	-0.043213
683.0	4.588722	11.55839	-17.562105	1.511303	-2.388609	-2.212702	-0.349365	0.180908	-0.036621
684.0	3.041199	-2.684275	6.767028	1.52512	-4.517536	-3.74763	-0.346191	0.156738	-0.012695
685.0	12.054883	-17.249158	24.418618	1.5266	-4.186927	-4.222997	-0.345459	0.135254	-0.006104
686.0	20.7019	-4.753292	2.252271	1.574294	-2.898896	-3.138227	-0.34668	0.111328	0.009277
687.0	18.763428	5.815171	-4.576666	2.013582	-3.37436	-2.220236	-0.354492	0.091797	0.022217
688.0	21.565438	-0.677259	11.945661	1.824947	-3.049657	-1.161103	-0.349854	0.085205	0.028809
689.0	11.052152	1.769245	10.616487	1.361081	-2.012566	-0.87492	-0.351563	0.072266	0.033203
690.0	25.360906	-1.50676	8.903932	1.422246	-0.570775	-1.151773	-0.351318	0.065918	0.033203
691.0	13.371171	-1.222463	4.344245	0.951767	0.329516	-0.660425	-0.348877	0.057373	0.029053
692.0	7.198763	-4.439732	8.037788	0.832746	0.313609	-0.555474	-0.348633	0.052979	0.035645
693.0	7.476699	-0.821334	8.518711	0.650749	0.499047	-0.553464	-0.337646	0.046387	0.035645
694.0	11.10629	4.130008	8.924791	0.070544	0.781212	-0.215057	-0.342041	0.050781	0.03125
695.0	7.143776	-2.093425	6.90337	-0.230536	0.779743	0.16382	-0.337402	0.044434	0.024658
696.0	7.365103	-2.927589	6.659933	-0.1521	0.65567	0.299308	-0.335449	0.048828	0.024658
697.0	7.091505	-2.103043	7.058231	-0.166746	0.576021	0.327257	-0.331055	0.044434	0.024658
698.0	6.941168	-1.834795	7.159788	-0.253222	0.485841	0.357952	-0.333496	0.055176	0.026855
699.0	6.704217	-2.336513	7.156803	-0.355667	0.452119	0.271045	-0.333496	0.053223	0.024658
700.0	6.842944	-3.657558	6.459974	-0.349447	0.363786	0.21471	-0.333984	0.063965	0.018066
701.0	6.872222	-3.537645	6.579767	-0.307989	0.295967	0.1423	-0.326904	0.053223	0.020508
702.0	6.963655	-3.762415	6.36092	-0.270326	0.244201	0.071281	-0.324951	0.059814	0.016113
703.0	6.963258	-3.100306	6.604053	-0.21813	0.179354	0.035439	-0.327148	0.05542	0.016113
704.0	6.767539	-2.858472	6.927517	-0.211453	0.118468	0.037975	-0.331543	0.057617	0.016113
705.0	6.785968	-2.881146	6.878541	-0.205523	0.036352	0.045604	-0.327148	0.057617	0.018311
706.0	6.865213	-2.810294	6.817204	-0.20436	-0.056045	0.06431	-0.325195	0.061768	0.016113
707.0	6.806483	-3.048322	6.771873	-0.198245	-0.127412	0.088652	-0.327148	0.059814	0.013916
708.0	6.735541	-3.165674	6.687751	-0.200437	-0.191988	0.095334	-0.324951	0.05957	0.020264
709.0	6.771493	-3.18847	6.642962	-0.188027	-0.240569	0.096073	-0.322998	0.064209	0.011719
710.0	6.769394	-3.461748	6.465983	-0.17712	-0.269813	0.093916	-0.32959	0.061768	0.020264
711.0	6.843259	-3.328837	6.529428	-0.150617	-0.287233	0.067603	-0.325195	0.066162	0.016113
712.0	6.748666	-3.539633	6.371228	-0.149199	-0.279188	0.044672	-0.327393	0.066162	0.018066
713.0	6.837535	-3.557237	6.324029	-0.128848	-0.254034	0.015791	-0.327393	0.061768	0.024658
714.0	6.802409	-3.585569	6.304832	-0.102208	-0.233293	-0.01081	-0.331787	0.066162	0.013916
715.0	6.794944	-3.560448	6.333858	-0.079745	-0.207133	-0.041916	-0.325439	0.068359	0.020264
716.0	6.838553	-3.490276	6.313337	-0.07025	-0.180566	-0.066527	-0.32959	0.066162	0.020264
717.0	6.809117	-3.409582	6.34381	-0.052652	-0.168956	-0.088553	-0.32959	0.061768	0.020264
718.0	6.85583	-3.283291	6.372176	-0.041482	-0.156635	-0.09978	-0.331787	0.068115	0.026855
719.0	6.914786	-3.310471	6.288623	-0.027028	-0.143862	-0.103486	-0.325195	0.061768	0.026855
720.0	6.852138	-3.323994	6.280868	-0.012497	-0.128833	-0.105109	-0.333984	0.065918	0.024658
721.0	6.887132	-3.339771	6.322155	0.008276	-0.120394	-0.108748	-0.327393	0.061768	0.024658
722.0	6.863401	-3.478333	6.275668	0.031514	-0.103138	-0.108365	-0.33374	0.061768	0.026855
723.0	6.877646	-3.415761	6.316156	0.063966	-0.097566	-0.123918	-0.33374	0.061768	0.026855
724.0	6.837359	-3.424818	6.290202	0.089976	-0.091667	-0.13512	-0.333984	0.063965	0.022461
725.0	6.894305	-3.458264	6.31436	0.124485	-0.08822	-0.152816	-0.329102	0.055176	0.026855
726.0	6.848989	-3.579191	6.34807	0.16319	-0.085291	-0.181349	-0.329346	0.057373	0.033447
727.0	6.961266	-3.491235	6.269176	0.202943	-0.080494	-0.217527	-0.331543	0.057373	0.024658
728.0	6.930225	-3.403612	6.366214	0.221202	-0.071345	-0.253649	-0.331299	0.055176	0.033447
729.0	7.135509	-3.432168	6.31999	0.249917	-0.078484	-0.280685	-0.331299	0.055176	0.033447
730.0	6.983066	-3.399033	6.474136	0.291118	-0.100792	-0.318104	-0.324707	0.053223	0.024658
731.0	6.805747	-3.027395	6.821264	0.293321	-0.182377	-0.343115	-0.333252	0.048584	0.035645
732.0	6.561395	-2.740971	7.265911	0.279339	-0.332998	-0.345662	-0.337646	0.046631	0.03125
733.0	6.396324	-2.614029	7.586257	0.258798	-0.567388	-0.334747	-0.335449	0.048584	0.035645
734.0	6.412849	-2.585857	7.673329	0.237002	-0.824331	-0.340829	-0.333008	0.044434	0.040039
735.0	6.316454	-2.488752	7.938905	0.211062	-1.115929	-0.338399	-0.339355	0.037842	0.044189
736.0	6.206524	-2.491182	7.90416	0.191731	-1.428671	-0.347644	-0.334961	0.037598	0.050781
737.0	6.293211	-2.546012	7.870312	0.178445	-1.74566	-0.359622	-0.341553	0.0354	0.052979
738.0	6.315447	-2.760359	7.666721	0.161685	-2.060849	-0.398099	-0.345703	0.033203	0.063721
739.0	6.387366	-2.777213	7.448121	0.148614	-2.378757	-0.462133	-0.343262	0.028564	0.079102
740.0	6.385451	-2.957491	7.263486	0.123268	-2.706877	-0.556992	-0.347656	0.026367	0.092041
741.0	6.475048	-3.151644	6.87844	0.089016	-3.04347	-0.687167	-0.347168	0.017578	0.098633
742.0	6.70181	-3.631565	7.203444	0.057881	-3.382653	-0.865954	-0.355957	0.017578	0.102783
743.0	5.685287	-3.984978	6.635883	-0.03949	-3.746851	-1.080779	-0.353271	0.006348	0.128906
744.0	6.016503	-3.618047	7.227709	-0.097954	-4.217851	-1.303131	-0.346436	-0.002441	0.144287
745.0	5.693199	-4.459029	6.763634	-0.05069	-4.802331	-1.581993	-0.350098	-0.015381	0.157227
746.0	5.156981	-5.026951	6.54097	-0.009103	-5.45213	-1.980286	-0.347656	-0.024414	0.176758
747.0	5.29958	-4.634004	7.339637	0.018545	-6.313903	-2.442943	-0.342285	-0.046143	0.200684
748.0	7.076577	-4.719183	7.716292	0.11228	-7.332615	-2.831543	-0.333252	-0.052979	0.233398
749.0	10.311042	-3.689187	7.141802	0.309572	-8.079815	-3.071389	-0.315186	-0.07251	0.246338
750.0	15.648983	-1.475248	7.212817	0.136981	-8.248853	-3.095532	-0.294922	-0.087891	0.272461
751.0	21.866783	-1.50211	6.146839	-0.400198	-7.986435	-3.162774	-0.27417	-0.111816	0.296631
752.0	23.808846	-3.754899	4.09522	-0.57529	-7.503717	-3.325713	-0.245605	-0.120361	0.316162
753.0	26.258435	-5.144947	5.662278	-0.385699	-6.689496	-3.432083	-0.223145	-0.137939	0.34668
754.0	25.111828	-7.046835	7.536265	-0.413408	-5.428195	-3.258455	-0.1875	-0.155273	0.368408
755.0	17.715898	-10.416013	7.554338	-0.329861	-4.272399	-3.159054	-0.158447	-0.175049	0.398926
756.0	7.742065	-12.448128	5.451413	0.645705	-3.997324	-4.016501	-0.12085	-0.186035	0.433838
757.0	8.184203	-9.483	7.351479	1.58595	-4.673942	-4.948733	-0.083496	-0.195068	0.477295
758.0	10.615485	-7.524405	10.970845	1.966848	-4.91878	-4.70321	-0.045898	-0.204102	0.51416
759.0	25.709575	-5.81694	15.45094	1.710734	-3.051732	-3.636866	-0.019531	-0.208984	0.55542
760.0	21.926062	-4.794632	15.760442	1.072711	-0.347944	-1.887004	-0.021729	-0.209717	0.607422
761.0	14.278775	-7.129273	14.909403	0.173004	1.831302	-0.586339	-0.034912	-0.203857	0.646484
762.0	7.003258	-6.303184	12.001695	-0.131115	2.818197	-0.138641	-0.056641	-0.199951	0.683105
763.0	4.108182	-5.393182	9.852362	-0.23275	3.103756	-0.023786	-0.09375	-0.198486	0.715576
764.0	3.932903	-4.682601	8.363882	-0.312302	3.290703	0.049457	-0.119873	-0.196777	0.737305
765.0	4.153023	-4.730611	7.055488	-0.210249	3.515451	0.136877	-0.154785	-0.194824	0.754639
766.0	4.894158	-4.221418	6.616012	-0.05446	3.7744	0.294385	-0.189941	-0.186523	0.765381
767.0	5.536596	-3.876486	6.410752	0.01422	4.11917	0.501077	-0.2229	-0.17627	0.782471
768.0	5.613602	-4.208318	6.085381	0.023538	4.477947	0.678063	-0.26001	-0.172363	0.797607
769.0	5.829813	-4.551094	5.857876	0.017008	4.809417	0.809816	-0.301758	-0.161865	0.80835
770.0	6.436063	-4.86827	5.730968	-0.05286	5.101451	0.918472	-0.345703	-0.149414	0.829834
771.0	7.342368	-4.618443	5.604825	-0.230726	5.388281	1.116662	-0.406738	-0.145508	0.851318
772.0	7.786854	-4.545896	5.261433	-0.520945	5.651543	1.395628	-0.480713	-0.144043	0.879395
773.0	7.901348	-4.474738	4.664056	-0.885601	5.817804	1.722524	-0.579102	-0.13623	0.898682
774.0	8.277689	-4.416108	4.056489	-1.271084	5.84558	2.081783	-0.70166	-0.117432	0.913574
775.0	8.619602	-4.744576	3.58083	-1.588856	5.760974	2.424877	-0.844238	-0.085449	0.897949
776.0	9.343492	-5.234671	3.459496	-1.78544	5.601937	2.768536	-0.99707	-0.025391	0.854004
777.0	10.688673	-5.186876	3.453937	-1.882353	5.408396	3.059845	-1.120117	0.054932	0.764648
778.0	12.571797	-5.654456	3.278683	-1.932283	5.242383	3.279213	-1.201904	0.140137	0.655762
779.0	13.950732	-5.789407	3.299037	-1.904266	5.10211	3.469013	-1.235352	0.208252	0.536133
780.0	14.299768	-5.547682	3.593383	-1.868664	4.888174	3.663828	-1.248291	0.259033	0.446777
781.0	14.367951	-5.331709	4.175287	-1.890631	4.552655	3.835881	-1.253906	0.283936	0.353516
782.0	14.944127	-5.100434	4.902505	-1.905331	4.093196	3.883261	-1.26416	0.323486	0.275391
783.0	17.829531	-4.982089	6.108107	-1.885553	3.677861	3.773191	-1.266357	0.370117	0.181885
784.0	22.259936	-3.561493	7.289377	-2.006251	3.52247	3.69704	-1.241943	0.412109	0.097168
785.0	24.067822	-1.180291	6.855877	-2.348747	3.583041	3.639438	-1.196045	0.45874	0.010254
786.0	22.661122	1.553652	4.848806	-2.78455	3.405546	3.499342	-1.123535	0.496338	-0.043945
787.0	21.149512	5.432828	2.584609	-3.221307	2.798307	3.223599	-1.062012	0.533447	-0.074219
788.0	22.878057	8.748994	0.787404	-3.510912	1.986438	2.738947	-1.003906	0.548828	-0.080811
789.0	25.013113	6.30682	-3.123153	-3.710213	1.581758	2.480651	-0.952148	0.566406	-0.080811
790.0	30.635179	6.402967	-4.831705	-2.950358	1.807097	2.314997	-0.905273	0.590088	-0.078613
791.0	25.06354	8.264315	-8.605772	-2.230357	2.077989	2.274789	-0.866455	0.598877	-0.074219
792.0	21.304115	7.35368	-12.863139	-1.182552	1.905726	2.025287	-0.827881	0.618408	-0.072266
793.0	21.672104	10.504292	-12.839859	-0.178976	1.592584	1.707648	-0.80249	0.631348	-0.080811
794.0	20.856918	13.280472	-12.926628	0.143953	1.302559	1.49963	-0.774902	0.650635	-0.070068
795.0	16.606928	14.266604	-14.254882	0.235482	0.760552	1.095418	-0.759521	0.652832	-0.061523
796.0	12.176542	12.056834	-15.879995	0.481283	-0.304921	0.171106	-0.751221	0.663574	-0.050537
797.0	16.238183	9.444475	-14.393816	0.844081	-1.624548	-0.75332	-0.749023	0.661133	-0.037598
798.0	8.863672	0.800266	-11.916418	4.280067	-3.079472	-2.573398	-0.763428	0.643799	-0.022461
799.0	3.254786	-1.938782	21.135535	3.874773	-4.213225	-3.158438	-0.780029	0.624023	-0.002686
800.0	11.332486	-9.770801	21.118691	3.65936	-3.609921	-3.818385	-0.790283	0.604248	0.019043
801.0	22.986524	24.065414	4.229957	2.806032	-2.636075	-3.388448	-0.80249	0.58252	0.038574
802.0	32.277463	9.373902	9.090415	1.747553	-1.966196	-2.414343	-0.806396	0.571777	0.036377
803.0	33.042896	4.563561	13.022201	0.695093	1.138752	-1.176152	-0.806152	0.56543	0.023438
804.0	3.029279	-3.009006	5.083782	0.037715	1.077269	-1.178682	-0.812744	0.56543	0.014893
805.0	6.693685	-9.512644	4.353671	0.883979	0.377692	-0.683266	-0.810059	0.556885	0.01709
806.0	8.467817	-0.132289	7.971047	0.776923	0.353772	-0.58286	-0.803711	0.556885	0.01709
807.0	9.14201	-0.802237	7.321473	0.398623	0.55857	-0.335101	-0.805664	0.552734	0.014893
808.0	8.551455	-1.128914	6.973543	0.170812	0.607356	0.024887	-0.799316	0.557129	0.006104
809.0	7.78366	-2.359748	6.479899	0.123482	0.58804	0.244238	-0.799316	0.55957	-0.009033
810.0	7.18938	-3.034808	6.694528	0.147383	0.550161	0.317498	-0.786621	0.563721	-0.009033
811.0	7.157743	-0.847606	7.682713	0.029407	0.501279	0.334836	-0.79126	0.57251	-0.009033
812.0	7.223338	-0.111775	7.993983	-0.199895	0.445634	0.286331	-0.79126	0.570313	-0.01123
813.0	7.36881	-2.653436	6.72774	-0.327853	0.337309	0.290342	-0.786865	0.57251	-0.017578
814.0	6.840068	-2.246703	7.139891	-0.360158	0.223528	0.260155	-0.784912	0.581055	-0.009033
815.0	7.141158	-2.899559	6.735787	-0.396977	0.107715	0.23418	-0.782959	0.581055	-0.006836
816.0	6.953524	-2.719338	6.854551	-0.403709	-0.012208	0.229649	-0.783203	0.587402	-0.01123
817.0	6.853909	-2.758078	6.81516	-0.415377	-0.118195	0.236105	-0.787354	0.587402	-0.006836
818.0	6.950618	-3.150317	6.577417	-0.406704	-0.22742	0.249964	-0.787598	0.59375	0.001709
819.0	6.843165	-3.150406	6.642155	-0.382662	-0.326573	0.252224	-0.7854	0.593994	-0.004883
820.0	6.86052	-3.447166	6.503696	-0.369448	-0.421884	0.245549	-0.785645	0.595947	0.003906
821.0	6.867256	-3.63758	6.399044	-0.347988	-0.493191	0.214885	-0.785645	0.595947	0.008301
822.0	6.837112	-3.992699	6.280159	-0.329867	-0.533806	0.165565	-0.790039	0.602051	0.016846
823.0	6.781389	-4.095729	6.117366	-0.281726	-0.544532	0.093935	-0.790039	0.600098	0.014648
824.0	6.951736	-4.137983	5.943426	-0.231121	-0.523163	0.02846	-0.794678	0.604248	0.02124
825.0	6.962835	-4.076587	5.871077	-0.179899	-0.485083	-0.035606	-0.792236	0.599854	0.029785
826.0	6.975884	-4.004843	5.852597	-0.131377	-0.439691	-0.08376	-0.794434	0.599854	0.03418
827.0	7.016786	-3.880578	5.834528	-0.081034	-0.398784	-0.131899	-0.791992	0.597656	0.03418
828.0	7.104589	-3.778382	5.843967	-0.049963	-0.366453	-0.155499	-0.796631	0.599609	0.042725
829.0	7.194211	-3.602982	5.802571	-0.025417	-0.330305	-0.183415	-0.802979	0.595459	0.038574
830.0	7.234615	-3.419293	5.791364	-0.017476	-0.292471	-0.189279	-0.800781	0.595215	0.042969
831.0	7.365433	-3.269376	5.754293	-0.009997	-0.2515	-0.179037	-0.793945	0.588867	0.049316
832.0	7.352178	-2.876509	5.885545	-0.025572	-0.203318	-0.155291	-0.802979	0.595215	0.051514
833.0	7.318927	-3.339746	5.734703	-0.020073	-0.164132	-0.136294	-0.80249	0.588623	0.053711
834.0	7.306883	-3.125164	5.83434	-0.008108	-0.128973	-0.113075	-0.804932	0.595215	0.049316
835.0	7.367286	-3.097217	5.820515	0.010892	-0.106503	-0.090769	-0.804932	0.593018	0.053711
836.0	7.282502	-3.306008	5.786975	0.034273	-0.080103	-0.070939	-0.807129	0.595215	0.055908
837.0	7.267333	-3.566202	5.779366	0.082846	-0.053137	-0.071561	-0.807129	0.59082	0.055908
838.0	7.149425	-4.046062	5.628496	0.161729	-0.018188	-0.107162	-0.811523	0.593018	0.051514
839.0	7.166855	-4.195758	5.649084	0.2661	0.037684	-0.174794	-0.802734	0.588867	0.047119
840.0	7.200047	-4.389198	5.608738	0.382855	0.100949	-0.26483	-0.809082	0.584473	0.049316
841.0	7.04875	-4.340728	5.820062	0.476293	0.136588	-0.374554	-0.804443	0.580078	0.047363
842.0	6.713081	-4.071174	6.301865	0.559989	0.112275	-0.49112	-0.806396	0.575928	0.038574
843.0	6.931965	-3.32518	6.840361	0.522581	-0.029223	-0.572009	-0.806396	0.571777	0.036377
844.0	6.620017	-2.568005	7.371971	0.441695	-0.261646	-0.599068	-0.803711	0.562988	0.042969
845.0	6.561758	-2.348025	7.814237	0.353036	-0.600918	-0.60689	-0.814453	0.556396	0.053955
846.0	6.377207	-1.810712	8.209466	0.263635	-1.013586	-0.566672	-0.818604	0.552002	0.060303
847.0	6.227258	-1.641672	8.44343	0.19866	-1.460793	-0.510493	-0.818359	0.54541	0.077637
848.0	6.138366	-1.799303	8.462911	0.138093	-1.937826	-0.440974	-0.826904	0.542969	0.088623
849.0	6.224537	-2.121683	8.185079	0.092415	-2.421822	-0.414139	-0.835205	0.536133	0.112549
850.0	6.176618	-2.513645	7.936635	0.04521	-2.890794	-0.441238	-0.834961	0.527344	0.13623
851.0	6.266297	-2.870863	7.567357	-0.027923	-3.338084	-0.526083	-0.847656	0.524658	0.166748
852.0	6.588383	-3.513175	7.657685	-0.113454	-3.833894	-0.675343	-0.843262	0.522217	0.192627
853.0	4.181005	-4.020527	7.631606	-0.238823	-4.398591	-0.886693	-0.849365	0.512939	0.238281
854.0	5.15119	-3.455058	8.375351	-0.330175	-5.156517	-1.143455	-0.857422	0.49707	0.283936
855.0	4.038527	-4.990467	7.933267	-0.337086	-6.132593	-1.463915	-0.861084	0.483398	0.335938
856.0	4.397905	-5.621617	7.397708	-0.242974	-7.290765	-1.866832	-0.853516	0.463135	0.407471
857.0	6.373343	-5.954281	7.706611	-0.091438	-8.475714	-2.277464	-0.8396	0.445068	0.479248
858.0	11.109246	-3.270922	7.34631	0.145165	-9.170715	-2.56371	-0.823486	0.427002	0.544434
859.0	16.831771	-2.478805	7.779236	-0.148849	-9.210591	-2.801282	-0.796387	0.402588	0.615967
860.0	22.173951	-2.103962	6.187969	-0.552176	-8.845365	-3.103505	-0.762207	0.369629	0.672607
861.0	23.494109	-5.317853	3.033239	-0.484882	-8.420467	-3.409723	-0.72583	0.330322	0.720459
862.0	27.281101	-5.414593	5.472664	-0.324678	-7.54401	-3.396914	-0.689453	0.29126	0.755371
863.0	24.838727	-6.660077	7.905075	-0.502976	-6.166835	-3.036347	-0.655273	0.254639	0.779541
864.0	16.833561	-10.502871	8.089127	-0.50865	-5.048947	-3.036105	-0.610107	0.209229	0.792969
865.0	10.048042	-9.704908	8.754219	0.290569	-4.431743	-3.754386	-0.562988	0.175049	0.799561
866.0	8.36511	-11.206613	7.142297	1.062686	-5.011056	-4.150745	-0.51123	0.13208	0.808594
867.0	14.446959	-7.589334	11.914645	1.213089	-4.656831	-4.178927	-0.466553	0.102051	0.811035
868.0	27.532179	-4.908211	16.714141	1.601917	-1.881959	-3.051446	-0.437256	0.07666	0.787354
869.0	21.476761	-5.134746	17.133139	0.232938	1.050904	-1.372492	-0.412109	0.046875	0.765869
870.0	10.75764	-6.634623	13.871998	-0.470592	2.882544	-0.514906	-0.402344	0.017334	0.733643
871.0	4.875536	-6.740551	10.225112	-0.581833	3.492041	-0.393955	-0.384033	-0.010254	0.707764
872.0	4.35156	-6.042511	8.563324	-0.665489	3.665457	-0.478384	-0.365234	-0.044189	0.681885
873.0	4.613293	-6.292205	7.028349	-0.535892	3.828564	-0.511741	-0.355713	-0.067627	0.671143
874.0	5.311922	-6.783874	6.109362	-0.159871	4.052129	-0.415247	-0.339844	-0.08667	0.654053
875.0	6.401561	-6.065673	6.058457	0.241823	4.353629	-0.197503	-0.327881	-0.110352	0.649658
876.0	7.089859	-4.962935	6.3461	0.416444	4.73084	0.119312	-0.321045	-0.123047	0.645508
877.0	6.992462	-4.099888	6.427378	0.32662	5.109977	0.450328	-0.320068	-0.146729	0.641357
878.0	6.836993	-3.686783	6.223253	0.084266	5.44429	0.735304	-0.325928	-0.161621	0.636963
879.0	6.824607	-3.41599	5.746963	-0.239098	5.727618	0.971812	-0.343018	-0.172607	0.636963
880.0	6.904473	-3.071015	5.163311	-0.612306	5.931369	1.163838	-0.359863	-0.185547	0.636963
881.0	7.058164	-2.771097	4.565963	-1.018318	6.028701	1.35084	-0.374756	-0.196289	0.630615
882.0	7.268151	-2.758929	4.177296	-1.417843	6.038449	1.536741	-0.415771	-0.207031	0.619873
883.0	7.759985	-2.930755	3.919678	-1.785235	5.962449	1.742615	-0.448242	-0.211182	0.608887
884.0	8.785871	-3.26319	3.857723	-2.095078	5.857018	1.994743	-0.489258	-0.219971	0.59375
885.0	9.687718	-3.160116	4.040741	-2.318999	5.738604	2.229578	-0.537109	-0.221924	0.56543
886.0	11.141126	-3.007768	4.201813	-2.562215	5.609171	2.479324	-0.581055	-0.217041	0.521973
887.0	12.236506	-3.091818	4.171879	-2.765993	5.50355	2.694006	-0.627197	-0.203857	0.487061
888.0	12.508401	-3.502867	4.089195	-2.867178	5.332868	2.84625	-0.658691	-0.183838	0.435059
889.0	12.209317	-3.957279	4.222061	-2.827814	5.007931	2.923882	-0.692383	-0.159912	0.393555
890.0	12.602672	-5.025095	4.724029	-2.665091	4.534342	2.959729	-0.710938	-0.131348	0.3479
891.0	14.948988	-5.178806	5.96741	-2.404483	4.040318	3.010087	-0.729736	-0.096436	0.315186
892.0	19.075452	-4.589199	7.580148	-2.17627	3.7701	3.162738	-0.741943	-0.068359	0.29126
893.0	22.004157	-2.83117	7.989393	-2.211456	3.789403	3.377765	-0.752197	-0.029053	0.25415
894.0	21.170578	-1.13407	6.523116	-2.29595	3.676858	3.411052	-0.76709	0.016357	0.22583
895.0	19.930688	0.947714	4.262453	-2.326657	3.205219	3.231073	-0.772705	0.05127	0.20166
896.0	20.231333	3.7606	2.870377	-2.268455	2.529521	2.923573	-0.774414	0.092285	0.190674
897.0	24.277325	6.032091	2.368738	-2.221028	1.991621	2.677722	-0.775879	0.128906	0.173096
898.0	28.253084	7.33813	0.654334	-2.017026	2.099619	2.587559	-0.772705	0.157227	0.153564
899.0	26.667412	7.620456	-2.781742	-1.576259	2.422829	2.488737	-0.76709	0.18335	0.140381
900.0	24.483358	7.817394	-6.872049	-0.901699	2.538715	2.250413	-0.759277	0.202881	0.12085
901.0	23.120958	8.652171	-9.454185	-0.138383	2.489505	2.030685	-0.749023	0.218262	0.103271
902.0	21.842973	10.899223	-10.670598	0.361728	2.284494	1.925932	-0.73877	0.233643	0.08374
903.0	19.633534	12.974557	-12.23468	0.523828	1.892109	1.782606	-0.732666	0.242432	0.068604
904.0	15.326186	14.32051	-14.225325	0.455423	1.110027	1.30602	-0.730713	0.249023	0.066406
905.0	15.177241	14.592866	-14.340994	0.278823	-0.063798	0.492636	-0.726318	0.248779	0.072998
906.0	17.471312	14.300934	-11.438137	0.310149	-1.219884	-0.430254	-0.734375	0.23584	0.08374
907.0	8.044799	4.160692	-17.742482	1.568629	-2.503885	-1.847394	-0.738037	0.216064	0.107666
908.0	-1.869669	-4.081276	12.023102	2.205472	-4.679274	-3.457641	-0.747559	0.18335	0.138184
909.0	8.289678	-19.009425	23.621252	1.817436	-4.774922	-4.261268	-0.750488	0.14624	0.170898
910.0	25.225588	5.016131	-0.205344	2.260381	-3.6302	-3.111216	-0.747314	0.124512	0.199219
911.0	25.538181	12.920875	-1.549225	1.989258	-3.780619	-1.984873	-0.755615	0.113281	0.233887
912.0	23.459425	5.062971	18.323492	1.305495	-2.719753	-1.082158	-0.75293	0.102295	0.244873
913.0	30.680802	2.272737	12.448802	0.575008	0.308603	-1.20634	-0.750244	0.091553	0.238281
914.0	10.879678	-7.930411	-0.186381	0.197964	0.826091	-0.7775	-0.748047	0.091553	0.240479
915.0	4.449361	-8.702508	6.093107	1.021511	0.2467	-0.507785	-0.745605	0.083008	0.238525
916.0	8.988277	1.121131	9.216535	0.676862	0.552329	-0.630942	-0.745605	0.080811	0.236328
917.0	11.835928	1.883603	7.429101	-0.008396	0.855946	-0.221166	-0.745605	0.081055	0.221191
918.0	7.3593	-3.893028	6.043232	-0.058358	0.692855	0.169099	-0.743164	0.076904	0.2146
919.0	7.910161	-1.590002	6.782452	0.037431	0.546927	0.25242	-0.745605	0.083496	0.212402
920.0	7.629942	-2.472699	6.375817	-0.05021	0.447263	0.265074	-0.743408	0.083252	0.216797
921.0	7.574515	-0.655471	7.432193	-0.162353	0.313382	0.306891	-0.743408	0.081299	0.210205
922.0	7.065427	-2.199669	7.121349	-0.305445	0.215107	0.328577	-0.741211	0.083252	0.216797
923.0	7.195485	-2.963928	6.715893	-0.300169	0.130946	0.271287	-0.748047	0.089844	0.205811
924.0	7.000632	-2.564344	6.925962	-0.303564	0.059004	0.247946	-0.748291	0.094238	0.210205
925.0	6.475069	-3.289362	6.936791	-0.331504	0.001208	0.20768	-0.746338	0.098389	0.208008
926.0	6.656004	-3.672749	6.556763	-0.32152	-0.056727	0.129734	-0.748535	0.098389	0.210205
927.0	6.919394	-2.722775	6.725992	-0.312269	-0.13105	0.112665	-0.746338	0.098389	0.208008
928.0	6.861158	-2.57287	6.816891	-0.333604	-0.207834	0.153727	-0.741943	0.098389	0.212402
929.0	6.895346	-2.659732	6.769533	-0.360254	-0.280524	0.197801	-0.746338	0.102783	0.212402
930.0	6.790064	-3.166795	6.566155	-0.385391	-0.337492	0.214394	-0.750732	0.100586	0.21875
931.0	6.767012	-3.502832	6.421137	-0.38221	-0.383603	0.204755	-0.744141	0.102539	0.225342
932.0	6.790191	-3.890889	6.176381	-0.36124	-0.405469	0.166377	-0.748779	0.106934	0.216553
933.0	6.7767	-4.046899	6.019022	-0.310458	-0.399589	0.130458	-0.746826	0.111084	0.225342
934.0	6.783661	-4.246249	5.841975	-0.234275	-0.367128	0.079735	-0.744629	0.113281	0.225342
935.0	6.823967	-4.287648	5.786514	-0.156651	-0.316271	0.020995	-0.744385	0.104736	0.227539
936.0	6.728101	-4.53352	5.699844	-0.062479	-0.245197	-0.050225	-0.748535	0.104736	0.229736
937.0	6.805184	-4.334101	5.750216	0.037917	-0.18259	-0.112834	-0.748779	0.106689	0.233887
938.0	6.877799	-4.197485	5.835285	0.116636	-0.121674	-0.170944	-0.746582	0.108887	0.229736
939.0	6.923492	-4.052654	5.878877	0.186558	-0.064651	-0.226797	-0.746582	0.104736	0.229736
940.0	7.165469	-3.814789	5.846703	0.252017	-0.011423	-0.280431	-0.746582	0.104492	0.233887
941.0	7.336711	-3.865798	5.639834	0.341	0.076625	-0.327563	-0.746338	0.098145	0.231934
942.0	7.335472	-3.94403	5.572354	0.428038	0.186294	-0.388195	-0.748291	0.098145	0.231934
943.0	7.394283	-3.717274	5.623119	0.505221	0.29701	-0.452113	-0.74585	0.0896	0.227539
944.0	7.478983	-3.353904	5.820086	0.521428	0.377129	-0.499671	-0.748047	0.0896	0.223145
945.0	7.40705	-3.126135	6.05281	0.479594	0.402131	-0.529172	-0.743408	0.081055	0.227539
946.0	7.289832	-2.668729	6.414026	0.432917	0.376456	-0.531305	-0.745361	0.07251	0.223389
947.0	7.119694	-2.234716	6.816002	0.365335	0.295424	-0.491614	-0.743164	0.074463	0.229736
948.0	6.872523	-2.104061	7.152678	0.295171	0.14706	-0.434393	-0.745117	0.070557	0.2146
949.0	6.802522	-2.144826	7.29163	0.231607	-0.021559	-0.376279	-0.745117	0.068115	0.223389
950.0	6.335025	-1.876282	7.686582	0.170184	-0.264155	-0.323798	-0.745117	0.068115	0.234131
951.0	6.320555	-2.403295	7.708829	0.178255	-0.536352	-0.280845	-0.74292	0.065918	0.229736
952.0	6.479509	-2.041645	7.837688	0.164192	-0.820416	-0.242483	-0.749268	0.061523	0.236328
953.0	6.291201	-2.356715	7.788267	0.15596	-1.101899	-0.226666	-0.749023	0.059326	0.245117
954.0	6.445539	-2.445816	7.793973	0.153561	-1.3983	-0.2241	-0.744385	0.050537	0.255859
955.0	6.428507	-2.513228	7.761034	0.14171	-1.70464	-0.239053	-0.744385	0.05249	0.264648
956.0	6.340355	-2.753106	7.707809	0.12959	-2.019408	-0.28362	-0.73999	0.052246	0.286377
957.0	6.273247	-3.021931	7.570855	0.112223	-2.326884	-0.360489	-0.739746	0.049805	0.307861
958.0	6.525053	-2.803992	7.269609	0.087953	-2.631552	-0.447734	-0.746094	0.043213	0.325195
959.0	6.435523	-2.66678	7.220226	0.04201	-2.941032	-0.537498	-0.739258	0.038574	0.346924
960.0	6.746638	-2.623092	6.455876	-0.017595	-3.278213	-0.656009	-0.739014	0.033936	0.37085
961.0	5.21159	-2.964563	8.254247	-0.121509	-3.688087	-0.76345	-0.725586	0.025146	0.392578
962.0	6.216077	-3.707121	7.314052	-0.173199	-4.246014	-0.972927	-0.727539	0.022461	0.425049
963.0	4.538866	-4.485841	7.196207	-0.269511	-4.907895	-1.220013	-0.71167	0.00708	0.459961
964.0	4.316481	-4.850364	7.599141	-0.299022	-5.799814	-1.610038	-0.702148	-0.010742	0.503418
965.0	4.50518	-5.941762	8.91679	-0.260313	-7.033294	-2.199914	-0.673096	-0.032715	0.544678
966.0	7.526603	-5.641348	8.435271	-0.152367	-8.260388	-2.675262	-0.637695	-0.044189	0.605469
967.0	11.852203	-4.749311	6.888048	0.076293	-8.844429	-2.918841	-0.601563	-0.070557	0.662109
968.0	17.828869	-3.748088	5.873469	0.16663	-8.672275	-3.376556	-0.556885	-0.096924	0.707764
969.0	23.771093	-3.02435	4.946281	-0.061886	-8.09492	-3.734191	-0.510254	-0.12085	0.740479
970.0	24.305882	-5.273799	4.261244	0.062655	-7.441503	-3.970842	-0.463623	-0.142822	0.781982
971.0	27.169262	-6.415727	6.666107	0.104971	-6.502187	-3.867706	-0.415039	-0.160156	0.8125
972.0	23.584356	-9.263251	7.911006	0.088037	-5.200467	-3.548359	-0.372803	-0.17749	0.836426
973.0	13.947544	-12.206914	7.695734	0.39168	-4.379456	-3.700906	-0.335449	-0.184082	0.860352
974.0	6.722236	-12.785166	7.666635	1.885306	-4.582705	-4.810209	-0.284912	-0.199463	0.897461
975.0	10.782222	-8.795098	10.213222	2.647136	-5.305128	-5.069361	-0.22168	-0.197754	0.934326
976.0	16.521159	-8.184191	15.475445	2.267424	-4.816637	-3.984054	-0.178223	-0.191406	0.9646
977.0	27.772253	-6.150777	17.865806	2.046351	-1.810747	-2.310923	-0.167725	-0.181152	0.99292
978.0	18.772017	-8.527271	16.908511	0.75961	1.073159	-0.471693	-0.1875	-0.175049	1.014404
979.0	9.357611	-8.591331	14.436934	0.352343	2.762589	0.406212	-0.216064	-0.171143	1.04248
980.0	3.579289	-7.127582	11.486053	0.234742	3.262606	0.489693	-0.251221	-0.160889	1.068359
981.0	3.032097	-5.643004	9.845243	-0.019909	3.382637	0.44198	-0.301514	-0.148438	1.092041
982.0	3.785053	-5.228517	8.378518	-0.159187	3.578055	0.437856	-0.354004	-0.144531	1.102783
983.0	4.842137	-5.146837	7.311193	-0.087046	3.860196	0.540648	-0.422119	-0.127686	1.11792
984.0	5.983737	-4.216527	6.987962	-0.008822	4.2417	0.736507	-0.505615	-0.104492	1.119873
985.0	6.417068	-3.64866	6.750079	-0.066229	4.697679	0.975606	-0.591797	-0.076904	1.117188
986.0	6.191144	-3.390939	6.372131	-0.191644	5.104926	1.17471	-0.682129	-0.046631	1.093262
987.0	6.354317	-3.348191	6.001646	-0.322063	5.410244	1.312726	-0.775391	-0.003418	1.049316
988.0	6.789	-3.183092	5.664229	-0.480267	5.668454	1.42653	-0.866699	0.046631	0.981934
989.0	7.375966	-2.880977	5.288964	-0.736022	5.862084	1.549404	-0.951172	0.086182	0.892578
990.0	7.965028	-2.618603	5.025799	-1.060202	5.982266	1.693982	-1.005615	0.134766	0.786133
991.0	8.828312	-2.669031	4.964591	-1.426231	6.018383	1.873192	-1.029053	0.175049	0.666504
992.0	9.983903	-2.93504	4.834179	-1.790578	6.044575	2.110411	-1.017822	0.215576	0.53418
993.0	11.077088	-3.153089	4.616276	-2.07697	6.055568	2.368973	-0.966553	0.230225	0.421631
994.0	11.967221	-3.17624	4.339728	-2.291263	6.020088	2.585819	-0.905762	0.231689	0.326172
995.0	12.65578	-3.161149	3.856337	-2.468894	5.8866	2.716577	-0.839844	0.213623	0.259277
996.0	13.425355	-3.740786	3.421689	-2.573709	5.630547	2.721299	-0.784668	0.188721	0.213867
997.0	14.120772	-4.046897	3.609377	-2.56178	5.278821	2.662763	-0.73999	0.15918	0.177246
998.0	14.651418	-4.495784	4.143034	-2.541511	4.856373	2.613107	-0.706055	0.123047	0.156006
999.0	16.009735	-4.932284	4.906008	-2.469204	4.324354	2.602158	-0.696533	0.105957	0.149414
1000.0	20.200863	-4.629679	6.297796	-2.457566	3.962688	2.684748	-0.709229	0.091064	0.134521
1001.0	23.454546	-3.86445	6.399114	-2.562129	3.891873	2.902566	-0.726807	0.097412	0.13208
1002.0	22.496307	-2.660245	4.763083	-2.629667	3.745497	3.07552	-0.740967	0.123779	0.097412
1003.0	20.891641	-0.59993	2.682184	-2.631069	3.192267	3.103592	-0.750732	0.151855	0.077637
1004.0	20.887901	2.307159	1.161306	-2.556595	2.36801	3.055144	-0.752441	0.190918	0.062256
1005.0	24.381294	5.498508	1.035437	-2.515999	1.674357	3.085639	-0.751709	0.227539	0.05127
1006.0	28.884039	5.999802	-0.380738	-2.270862	1.69905	3.187073	-0.748779	0.264404	0.035889
1007.0	27.539836	5.804543	-3.647915	-1.47126	2.178952	3.082167	-0.730469	0.299072	0.01416
1008.0	24.683179	6.892045	-7.233331	-0.416249	2.504582	2.720813	-0.716064	0.31665	0.000977
1009.0	21.563057	9.473396	-10.540263	0.502178	2.491176	2.282668	-0.710205	0.332031	-0.025146
1010.0	18.104481	14.165199	-12.742357	0.74169	1.962994	1.890682	-0.69751	0.34082	-0.035889
1011.0	16.249281	17.253449	-14.699145	0.246126	0.963148	1.447888	-0.689209	0.351563	-0.04248
1012.0	16.975551	17.56816	-15.080576	-0.439519	-0.115465	0.888519	-0.687012	0.355957	-0.038086
1013.0	18.967921	14.620297	-13.544985	-0.7716	-0.845699	0.336258	-0.693604	0.355957	-0.035889
1014.0	18.308172	10.276635	-11.330375	-0.329539	-1.224215	-0.214798	-0.693604	0.353516	-0.027344
1015.0	16.925123	8.283108	-8.131775	0.512275	-1.476247	-0.628915	-0.695313	0.340576	-0.020752
1016.0	16.912167	3.202799	1.972488	1.600005	-1.695377	-1.112201	-0.712402	0.336182	-0.020752
1017.0	-3.214783	-9.960384	21.414522	1.770388	-1.822123	-1.52264	-0.71582	0.314697	-0.011963
1018.0	-25.396018	-23.724939	17.732371	1.655834	-2.935417	-2.919824	-0.732178	0.283936	0.01416
1019.0	10.924873	-6.936589	1.633256	3.191479	-4.763357	-4.696581	-0.743164	0.236328	0.03833
1020.0	34.711522	16.023792	-0.352849	2.862833	-3.959227	-3.095986	-0.757568	0.210205	0.062256
1021.0	25.758762	7.413689	8.407691	1.882424	-2.960286	-1.546107	-0.759033	0.194824	0.081787
1022.0	34.155301	1.430212	15.567988	1.609106	-0.036096	-1.56525	-0.758545	0.184326	0.064453
1023.0	11.258429	-0.068246	3.783008	0.477642	0.593621	-1.179676	-0.760498	0.173584	0.06665
1024.0	7.910666	-4.816486	7.026081	0.946373	0.119466	-0.605814	-0.758057	0.167236	0.058105
1025.0	8.05017	2.483615	9.616326	0.534209	0.149702	-0.413386	-0.760254	0.167236	0.0625
1026.0	10.023644	-0.421056	6.882618	0.141417	0.31564	-0.121497	-0.761963	0.158691	0.055908
1027.0	8.486907	-2.73087	6.157819	0.056246	0.317326	0.107474	-0.757813	0.162842	0.055908
1028.0	8.665704	-2.627292	6.213365	-0.067106	0.324724	0.187742	-0.76001	0.165039	0.060303
1029.0	7.53549	-3.755136	5.705087	-0.138953	0.337228	0.198397	-0.753662	0.165039	0.051514
1030.0	7.688288	-1.327456	7.05495	-0.157729	0.258689	0.221991	-0.758301	0.175781	0.051514
1031.0	7.689172	-2.045758	6.615548	-0.350808	0.203275	0.260564	-0.756104	0.173828	0.049316
1032.0	7.501521	-3.747845	5.816612	-0.380485	0.152016	0.248297	-0.758301	0.177979	0.049316
1033.0	7.031069	-3.07275	6.382762	-0.354744	0.136882	0.195603	-0.75415	0.178223	0.047119
1034.0	7.083146	-3.192016	6.311782	-0.379101	0.133143	0.163763	-0.758545	0.182373	0.047119
1035.0	6.962048	-3.700547	6.103174	-0.344119	0.095303	0.123682	-0.75415	0.182373	0.049316
1036.0	7.233683	-2.609734	6.543466	-0.326391	0.038718	0.125569	-0.754395	0.186768	0.042725
1037.0	7.11252	-2.907193	6.484495	-0.338558	-0.01277	0.142754	-0.75	0.182373	0.042725
1038.0	6.938077	-3.278675	6.353232	-0.332907	-0.064294	0.126096	-0.756592	0.186768	0.044922
1039.0	7.124993	-3.07843	6.291274	-0.335327	-0.102344	0.119839	-0.754639	0.190918	0.053711
1040.0	7.103877	-3.387234	6.094024	-0.325588	-0.141191	0.133874	-0.75	0.18457	0.053711
1041.0	6.972942	-3.581687	6.012877	-0.306271	-0.176731	0.133537	-0.752441	0.195313	0.053711
1042.0	6.912927	-3.827188	5.930159	-0.286726	-0.192592	0.10881	-0.756836	0.193115	0.057861
1043.0	6.874788	-4.074066	5.773171	-0.252413	-0.183622	0.077698	-0.759033	0.193115	0.057861
1044.0	6.90422	-4.118151	5.727806	-0.209456	-0.161421	0.024449	-0.756836	0.193115	0.055664
1045.0	6.953903	-4.183862	5.638583	-0.15336	-0.101587	-0.031084	-0.75708	0.199463	0.060059
1046.0	6.777237	-4.32271	5.594181	-0.089211	-0.031004	-0.079469	-0.75708	0.197266	0.055664
1047.0	6.960185	-4.254441	5.65474	-0.026261	0.043261	-0.137615	-0.756836	0.190918	0.057861
1048.0	6.987048	-4.199733	5.583639	0.023769	0.110257	-0.18017	-0.754395	0.188721	0.060059
1049.0	6.980862	-3.959461	5.658557	0.072257	0.157037	-0.21032	-0.754395	0.188721	0.055908
1050.0	7.178573	-3.646619	5.897391	0.112795	0.18765	-0.232345	-0.754395	0.184326	0.055908
1051.0	7.086651	-3.538048	6.013177	0.130158	0.205697	-0.259006	-0.752197	0.188965	0.047119
1052.0	7.300871	-3.223762	6.157287	0.145031	0.199627	-0.263421	-0.756348	0.182373	0.049316
1053.0	7.328274	-3.052143	6.144324	0.159558	0.209318	-0.25201	-0.75415	0.180176	0.049316
1054.0	7.403225	-2.905001	6.180457	0.177102	0.208703	-0.234971	-0.756348	0.182373	0.047119
1055.0	7.308653	-3.120164	6.144151	0.197123	0.220881	-0.218294	-0.751709	0.173828	0.042969
1056.0	7.236177	-3.341623	6.011897	0.228672	0.230089	-0.220032	-0.751709	0.176025	0.040771
1057.0	7.187596	-3.630954	5.959673	0.268911	0.251308	-0.241631	-0.74707	0.16748	0.038574
1058.0	7.124886	-3.719026	5.925161	0.320265	0.287678	-0.2681	-0.753662	0.16748	0.042969
1059.0	6.98352	-3.50776	6.242764	0.339462	0.28757	-0.298479	-0.74707	0.165283	0.036377
1060.0	6.98316	-2.835779	6.545946	0.298946	0.206797	-0.299739	-0.753662	0.165283	0.036377
1061.0	6.833764	-2.899169	6.769237	0.259996	0.085422	-0.288716	-0.749023	0.158936	0.040771
1062.0	6.982512	-2.409164	7.03432	0.210759	-0.082814	-0.259591	-0.753174	0.154541	0.034424
1063.0	6.739096	-2.277986	7.291542	0.153781	-0.284457	-0.208449	-0.753174	0.156738	0.038574
1064.0	6.844256	-2.349231	7.346944	0.134406	-0.520813	-0.152783	-0.75293	0.150146	0.040771
1065.0	6.631447	-2.376764	7.560197	0.126653	-0.796129	-0.105197	-0.753174	0.156494	0.049561
1066.0	6.40522	-2.781126	7.642285	0.159289	-1.115752	-0.092893	-0.759521	0.147705	0.058105
1067.0	5.608835	-2.61568	8.159556	0.230373	-1.478381	-0.096738	-0.761719	0.149902	0.071045
1068.0	6.633779	-2.658125	7.797662	0.201246	-1.85508	-0.142644	-0.759521	0.149658	0.084229
1069.0	6.033614	-2.717391	7.958975	0.13953	-2.218542	-0.175297	-0.768311	0.153564	0.099365
1070.0	6.239503	-2.948357	7.736774	0.072076	-2.593957	-0.245048	-0.776611	0.144775	0.118896
1071.0	5.832481	-3.349739	7.709462	-0.012903	-2.981617	-0.35542	-0.77832	0.137939	0.14917
1072.0	6.02771	-3.785108	7.345675	-0.116316	-3.363824	-0.520869	-0.776367	0.139648	0.175293
1073.0	5.987143	-3.579699	7.244766	-0.22981	-3.758857	-0.713945	-0.780273	0.132813	0.203369
1074.0	5.666275	-3.12218	7.560767	-0.337561	-4.314711	-0.91582	-0.779785	0.121582	0.231689
1075.0	5.592647	-3.812844	8.547705	-0.385473	-5.083761	-1.112936	-0.786133	0.121094	0.272949
1076.0	3.696024	-4.909551	7.354191	-0.314983	-5.963014	-1.426974	-0.776855	0.105469	0.327148
1077.0	4.762694	-4.804684	7.49251	-0.300779	-6.985047	-1.73641	-0.769775	0.093994	0.376953
1078.0	6.564403	-4.483706	8.126972	-0.182806	-8.070474	-2.016547	-0.76001	0.071777	0.435791
1079.0	11.1473	-4.426113	7.949999	-0.032211	-8.854008	-2.287938	-0.737305	0.051514	0.496582
1080.0	15.710586	-4.360862	6.762119	0.013739	-8.999266	-2.760303	-0.706299	0.037842	0.55957
1081.0	21.818917	-2.920196	5.85272	-0.266109	-8.561491	-3.034593	-0.681152	0.011475	0.611572
1082.0	21.375421	-5.084033	4.06946	-0.178924	-8.124359	-3.285327	-0.643066	-0.014648	0.653076
1083.0	25.136061	-4.411561	5.88748	-0.304381	-7.369031	-3.101951	-0.605225	-0.032471	0.694336
1084.0	22.865935	-6.026116	7.442058	-0.627887	-6.283833	-2.625972	-0.572021	-0.04541	0.720459
1085.0	15.726735	-8.592425	7.867337	-0.825468	-5.383991	-2.52795	-0.538574	-0.064941	0.742432
1086.0	9.136448	-10.445525	7.163489	-0.215325	-4.931395	-3.123469	-0.492432	-0.075928	0.761963
1087.0	8.536569	-10.045303	7.717092	0.774051	-5.143802	-4.081439	-0.456543	-0.097656	0.788086
1088.0	11.431403	-8.666173	9.554941	1.354319	-5.044045	-4.399142	-0.414795	-0.106201	0.805664
1089.0	26.889391	-7.186973	16.511505	2.183608	-2.651145	-3.768351	-0.397217	-0.112793	0.814453
1090.0	24.875116	-1.45499	19.223887	1.145964	0.760647	-2.140139	-0.395264	-0.110352	0.799316
1091.0	12.368057	-4.644915	16.308672	-0.104158	2.967175	-1.020892	-0.392578	-0.118896	0.786133
1092.0	4.400197	-5.863502	11.822094	-0.648398	3.75016	-0.819038	-0.401123	-0.127197	0.760254
1093.0	3.918828	-6.390813	9.199388	-0.94163	3.925107	-0.993118	-0.396484	-0.135498	0.738525
1094.0	4.513583	-6.872988	7.406637	-0.947706	4.108479	-1.111145	-0.393799	-0.150391	0.72583
1095.0	5.557118	-7.932112	6.254051	-0.666146	4.339635	-0.984492	-0.397705	-0.161133	0.723633
1096.0	6.867985	-7.808178	5.982076	-0.216634	4.658135	-0.658935	-0.40625	-0.163086	0.710693
1097.0	7.452184	-7.42753	6.007059	0.146023	5.045237	-0.240243	-0.415039	-0.165283	0.710693
1098.0	7.426045	-6.373857	6.102279	0.289135	5.394487	0.177743	-0.449951	-0.165283	0.699707
1099.0	7.377141	-5.328747	6.055491	0.222987	5.676881	0.547331	-0.480469	-0.161133	0.70166
1100.0	7.659243	-4.370633	5.722688	-0.053956	5.879726	0.880641	-0.524414	-0.154541	0.690918
1101.0	7.893106	-3.564663	5.139044	-0.475687	6.021568	1.202399	-0.581543	-0.137451	0.671143
1102.0	7.755914	-3.394148	4.544532	-0.935839	6.0734	1.486914	-0.632568	-0.117676	0.63623
1103.0	7.762261	-3.453304	3.922718	-1.344535	6.011544	1.745802	-0.679199	-0.095703	0.583984
1104.0	8.005767	-3.532073	3.67739	-1.651355	5.857646	1.980743	-0.717285	-0.069092	0.518799
1105.0	8.7475	-3.677913	3.829241	-1.842434	5.654655	2.182461	-0.733887	-0.038086	0.451416
1106.0	10.213549	-3.566323	4.183851	-2.015765	5.435168	2.391163	-0.73291	-0.009277	0.38623
1107.0	12.053249	-3.709085	4.381549	-2.188032	5.313029	2.556533	-0.707764	0.010986	0.319092
1108.0	13.106011	-3.919306	4.510527	-2.294731	5.229209	2.669256	-0.681885	0.013916	0.26709
1109.0	13.36808	-3.681079	4.685297	-2.369572	5.06804	2.771571	-0.65332	0.001709	0.232422
1110.0	13.139595	-3.74978	5.019848	-2.411466	4.736768	2.863293	-0.633545	-0.00415	0.202148
1111.0	13.976004	-3.995741	5.821399	-2.351645	4.270709	2.912675	-0.620117	-0.012695	0.197998
1112.0	17.382279	-3.605249	7.35924	-2.234126	3.912755	2.984669	-0.625977	-0.027588	0.185059
1113.0	20.873824	-2.357075	8.233832	-2.26362	3.880528	3.123545	-0.658936	-0.023438	0.17627
1114.0	21.394871	-0.902914	7.534527	-2.360498	3.881167	3.136232	-0.683594	-0.003662	0.152344
1115.0	21.084216	0.589268	5.654566	-2.434764	3.672733	2.969864	-0.710938	0.024414	0.121826
1116.0	20.477327	2.588711	3.395424	-2.357339	3.240535	2.687352	-0.733887	0.054932	0.089111
1117.0	20.877789	5.190639	1.879349	-2.209246	2.653719	2.35013	-0.746582	0.096436	0.049805
1118.0	24.306589	7.254027	0.700416	-2.116999	2.216544	2.105991	-0.750244	0.131104	0.019287
1119.0	26.462369	8.230324	-1.945558	-1.997299	2.205369	2.044093	-0.744873	0.163818	-0.01123
1120.0	25.230665	8.194425	-6.071255	-1.686794	2.292925	2.008115	-0.739258	0.185791	-0.039551
1121.0	23.087315	8.378789	-9.716162	-1.152496	2.221673	1.893857	-0.71875	0.216309	-0.063477
1122.0	21.602915	9.754797	-11.475792	-0.532028	2.022947	1.77844	-0.704102	0.227539	-0.085205
1123.0	20.480964	11.782586	-12.197998	-0.069145	1.727465	1.690676	-0.682861	0.24292	-0.102539
1124.0	18.200188	13.182351	-13.42251	0.229536	1.311863	1.471709	-0.676514	0.249512	-0.115479
1125.0	15.150956	14.000188	-14.174706	0.426645	0.559109	0.899157	-0.665771	0.249512	-0.119873
1126.0	13.57669	14.031408	-13.694725	0.722559	-0.397499	0.029195	-0.669922	0.243164	-0.117676
1127.0	17.214262	12.392865	-11.612425	0.507824	-1.449711	-0.625257	-0.678223	0.234375	-0.108887
1128.0	6.793751	5.712122	-8.31789	1.988783	-2.977776	-2.390444	-0.685791	0.206055	-0.091553
1129.0	-3.369738	-5.52189	23.089499	1.843653	-4.251818	-3.385857	-0.699707	0.175537	-0.069824
1130.0	10.621288	-13.453901	16.90591	1.301257	-3.925287	-4.030209	-0.707275	0.143066	-0.047852
1131.0	23.944201	10.223846	-3.071199	1.411537	-3.377355	-3.053604	-0.708252	0.116943	-0.02832
1132.0	25.87973	6.324597	3.377497	1.172116	-3.404148	-1.761152	-0.712158	0.101563	-0.010986
1133.0	32.11772	-5.787366	16.22214	1.323127	-1.220353	-0.912316	-0.711914	0.097168	-0.006592
1134.0	17.944379	3.142143	3.812531	0.473006	0.650338	-0.639473	-0.718018	0.088623	-0.012939
1135.0	7.963209	-8.557189	4.7751	0.580585	0.368268	-0.46537	-0.711426	0.08667	-0.015137
1136.0	6.567737	-0.900293	8.599114	0.793113	0.312044	-0.368311	-0.713135	0.075928	-0.021484
1137.0	9.395097	-0.226352	7.32333	0.290694	0.59055	-0.258456	-0.708984	0.075928	-0.015137
1138.0	9.233786	-1.2068	6.27471	0.031954	0.693998	0.034728	-0.706787	0.076172	-0.028076
1139.0	7.504551	-1.47314	6.834824	-0.065134	0.670377	0.25565	-0.708984	0.078369	-0.032471
1140.0	7.847513	-3.884479	5.912762	-0.129871	0.630607	0.306323	-0.706787	0.076172	-0.034668
1141.0	7.77904	-3.57844	5.81081	-0.108463	0.551817	0.212872	-0.700439	0.082764	-0.036865
1142.0	7.169182	-0.772917	7.298455	-0.120159	0.445803	0.210642	-0.702881	0.086914	-0.041016
1143.0	7.181923	-0.597912	7.510479	-0.277298	0.365481	0.264103	-0.698486	0.084717	-0.036865
1144.0	7.252816	-2.900899	6.462959	-0.316351	0.256905	0.268878	-0.694336	0.091553	-0.049805
1145.0	7.205644	-3.00845	6.498317	-0.25308	0.188927	0.213401	-0.692139	0.091553	-0.047607
1146.0	6.641721	-3.70633	6.644169	-0.187633	0.179743	0.101339	-0.69458	0.0979	-0.043213
1147.0	6.762112	-4.895161	6.056197	-0.073979	0.220834	-0.098573	-0.692139	0.093506	-0.049805
1148.0	6.889261	-4.872829	5.784469	0.085113	0.284002	-0.287284	-0.694336	0.091553	-0.052002
1149.0	7.189214	-3.155162	6.323752	0.171203	0.314547	-0.379226	-0.696289	0.083008	-0.05835
1150.0	7.054212	-3.036765	6.464467	0.185514	0.312549	-0.390748	-0.69165	0.080811	-0.060547
1151.0	6.988329	-2.743211	6.669896	0.187582	0.273403	-0.383169	-0.689453	0.078613	-0.060547
1152.0	6.907123	-2.704578	6.713282	0.168868	0.235412	-0.362049	-0.69165	0.078613	-0.056152
1153.0	6.933158	-2.773551	6.618388	0.149225	0.216372	-0.349046	-0.687256	0.07666	-0.062744
1154.0	6.942493	-3.019521	6.458726	0.136238	0.217931	-0.34728	-0.691406	0.072266	-0.05835
1155.0	6.879232	-3.338815	6.326745	0.142568	0.281508	-0.359823	-0.687012	0.072266	-0.062744
1156.0	6.744235	-3.804815	6.206597	0.151069	0.396233	-0.393354	-0.686768	0.065918	-0.062744
1157.0	6.831041	-3.718641	6.197699	0.169311	0.51178	-0.432088	-0.686768	0.063721	-0.064697
1158.0	6.702645	-3.052196	6.487516	0.185424	0.577026	-0.454212	-0.686523	0.057373	-0.073486
1159.0	6.722221	-2.980307	6.583085	0.174705	0.605129	-0.466388	-0.67334	0.051025	-0.077637
1160.0	6.454201	-2.361733	6.890583	0.25686	0.617392	-0.47009	-0.67749	0.046631	-0.077637
1161.0	6.68683	-2.5571	6.852584	0.192523	0.594061	-0.442904	-0.681885	0.049072	-0.086426
1162.0	6.628388	-2.211439	7.043793	0.190803	0.566367	-0.412856	-0.668701	0.046875	-0.09082
1163.0	6.613989	-1.76989	7.203322	0.188114	0.50698	-0.369752	-0.664063	0.036377	-0.094971
1164.0	6.600775	-1.656673	7.28305	0.169303	0.447571	-0.307942	-0.668213	0.031982	-0.090576
1165.0	6.40982	-1.757597	7.328287	0.133725	0.366473	-0.246157	-0.668213	0.03418	-0.092773
1166.0	6.601408	-1.69317	7.420939	0.094641	0.267253	-0.190332	-0.659424	0.031982	-0.099365
1167.0	6.478921	-1.855219	7.413876	0.08098	0.187458	-0.154387	-0.666016	0.029785	-0.094971
1168.0	6.537462	-1.785353	7.453097	0.064541	0.107455	-0.126142	-0.666016	0.029785	-0.092773
1169.0	6.397919	-1.795308	7.59131	0.045182	0.01548	-0.096477	-0.670166	0.025635	-0.099365
1170.0	6.519468	-1.97971	7.544878	0.03881	-0.089548	-0.077405	-0.665527	0.02124	-0.094971
1171.0	6.431081	-2.226631	7.495537	0.04845	-0.189826	-0.074898	-0.661621	0.029785	-0.094971
1172.0	6.363774	-2.282072	7.648271	0.065575	-0.309245	-0.077667	-0.665527	0.023438	-0.092773
1173.0	6.261232	-2.362991	7.790406	0.087979	-0.459187	-0.097283	-0.661377	0.025391	-0.092773
1174.0	6.339534	-2.376918	7.690576	0.103818	-0.625018	-0.124186	-0.667969	0.025391	-0.088379
1175.0	6.151595	-2.10112	7.971362	0.14093	-0.812951	-0.148035	-0.674316	0.020996	-0.075439
1176.0	5.80097	-2.300866	8.241234	0.172005	-1.048238	-0.164848	-0.67627	0.018555	-0.068848
1177.0	6.063366	-1.824521	8.151597	0.185736	-1.286166	-0.171548	-0.678467	0.018555	-0.060303
1178.0	5.765607	-1.916397	8.199442	0.187039	-1.530377	-0.176296	-0.682861	0.018311	-0.045166
1179.0	6.070569	-1.889001	8.260084	0.153998	-1.813103	-0.19758	-0.687012	0.013916	-0.03418
1180.0	5.998495	-2.507361	8.045103	0.118686	-2.119473	-0.25443	-0.693359	0.013672	-0.02124
1181.0	6.335345	-3.038252	7.814559	0.176535	-2.439602	-0.371535	-0.701904	0.009033	-0.003906
1182.0	6.110942	-3.004675	7.712428	0.24663	-2.753279	-0.524642	-0.708252	0.002441	0.013428
1183.0	6.225448	-3.300171	7.308999	0.286231	-3.064982	-0.710036	-0.708008	-0.002197	0.032959
1184.0	6.352631	-3.446176	7.023623	0.330246	-3.385978	-0.944048	-0.714111	-0.01123	0.059082
1185.0	6.556573	-3.878821	7.634971	0.427551	-3.763415	-1.211347	-0.713379	-0.024658	0.095947
1186.0	6.095018	-5.266591	7.009053	0.504274	-4.177627	-1.541822	-0.721436	-0.040039	0.119873
1187.0	6.383961	-5.421639	6.89619	0.614261	-4.547283	-1.965465	-0.71875	-0.05542	0.152344
1188.0	5.829765	-5.9794	6.532341	0.75215	-4.951383	-2.523688	-0.721924	-0.081787	0.182861
1189.0	5.238585	-5.957064	6.872205	0.831893	-5.543144	-3.14183	-0.710205	-0.10376	0.226318
1190.0	4.58576	-6.622947	7.409477	0.799595	-6.391186	-3.803888	-0.695557	-0.141113	0.274414
1191.0	7.016467	-6.90485	7.91928	0.591031	-7.46055	-4.703099	-0.672607	-0.169678	0.328613
1192.0	10.556576	-2.792771	8.472295	0.472083	-8.376885	-5.395432	-0.638184	-0.213135	0.376709
1193.0	20.108736	1.560456	6.649651	0.279339	-8.222241	-5.225491	-0.599609	-0.24585	0.417969
1194.0	28.565562	1.096846	5.065656	0.118419	-7.177142	-4.666748	-0.568115	-0.27417	0.455078
1195.0	30.453569	-3.67856	3.83833	0.147961	-5.863846	-4.317889	-0.529785	-0.304688	0.496582
1196.0	28.999805	-6.388286	6.896292	0.276981	-4.256011	-4.330339	-0.498291	-0.328613	0.516113
1197.0	16.76399	-10.781763	6.201806	0.477996	-3.133644	-4.245587	-0.467041	-0.350342	0.544434
1198.0	6.418848	-11.722983	3.852501	2.312333	-3.540877	-5.432884	-0.424561	-0.376709	0.590332
1199.0	9.917354	-7.191411	11.038625	2.901862	-4.414541	-5.173244	-0.378174	-0.389893	0.633789
1200.0	15.07657	-10.998154	14.018753	2.511241	-4.163762	-3.73015	-0.349365	-0.398682	0.662109
1201.0	21.91956	-10.858513	12.420022	2.176503	-2.119555	-1.541353	-0.341064	-0.390625	0.690186
1202.0	18.107658	-10.986172	14.194944	2.10971	-0.111962	0.294029	-0.356445	-0.382324	0.713867
1203.0	10.769835	-8.210823	13.619758	1.784625	1.49714	1.57426	-0.380859	-0.369629	0.722412
1204.0	4.451886	-6.272734	11.780728	1.320167	1.934961	2.065477	-0.409668	-0.35498	0.735352
1205.0	2.699266	-4.062318	10.608204	0.981888	1.96747	2.27956	-0.442871	-0.342041	0.737305
1206.0	3.615644	-2.481056	9.817647	0.610536	2.112226	2.432516	-0.478271	-0.327148	0.73291
1207.0	4.477599	-2.031389	9.137051	0.343543	2.441401	2.54939	-0.513916	-0.305664	0.726318
1208.0	5.437361	-1.448822	8.798391	0.188366	2.888628	2.582506	-0.549561	-0.290527	0.702393
1209.0	5.823849	-0.859633	8.785685	0.01786	3.386959	2.587917	-0.583008	-0.268799	0.682617
1210.0	5.798232	-0.095191	8.700235	-0.224193	3.856345	2.590915	-0.609863	-0.253418	0.645752
1211.0	5.925934	0.492749	8.69941	-0.523833	4.205691	2.616479	-0.640869	-0.242188	0.606445
1212.0	6.76156	0.947911	8.442075	-0.865925	4.523448	2.696791	-0.663086	-0.230957	0.567383
1213.0	7.38155	0.91855	7.913799	-1.211418	4.85152	2.791267	-0.685547	-0.215332	0.517334
1214.0	7.57039	0.910106	7.382722	-1.508672	5.117654	2.845725	-0.69751	-0.193115	0.465332
1215.0	7.685303	0.703303	7.270993	-1.725463	5.279632	2.817761	-0.712891	-0.192627	0.421875
1216.0	8.138581	0.775146	7.465327	-1.867054	5.339137	2.783235	-0.717773	-0.178955	0.376221
1217.0	9.280449	0.461509	7.630784	-1.994539	5.35794	2.73508	-0.722656	-0.169678	0.322021
1218.0	11.139369	0.238563	7.572304	-2.087475	5.433118	2.646797	-0.727051	-0.166992	0.272217
1219.0	12.819227	0.032389	7.45233	-2.169337	5.585281	2.537346	-0.7229	-0.168457	0.230957
1220.0	13.718624	0.001999	7.13864	-2.27343	5.703383	2.441564	-0.71875	-0.163574	0.185547
1221.0	14.176288	-0.13213	6.854052	-2.393456	5.691003	2.391219	-0.7146	-0.162842	0.139893
1222.0	14.15764	-0.534415	6.280201	-2.473989	5.543979	2.338044	-0.723389	-0.162598	0.109619
1223.0	13.608803	-0.744341	6.089502	-2.510929	5.1771	2.22158	-0.734619	-0.151367	0.079346
1224.0	14.356266	-0.998549	6.63414	-2.608276	4.588307	2.030044	-0.750732	-0.133789	0.044434
1225.0	19.828949	-1.830838	7.509777	-2.782476	4.100891	1.923454	-0.760498	-0.109619	0.007568
1226.0	24.282176	-2.489673	6.909756	-2.906396	4.123407	2.091947	-0.772705	-0.074707	-0.033936
1227.0	22.603519	-2.136755	4.293684	-2.822407	3.984945	2.393187	-0.767822	-0.0354	-0.075195
1228.0	20.365731	-0.323497	1.59561	-2.572087	3.265398	2.645956	-0.769043	-0.004883	-0.101563
1229.0	21.286657	4.27077	0.573772	-2.389315	2.286407	2.96155	-0.761719	0.029785	-0.123291
1230.0	23.74727	8.272408	-0.054749	-2.453871	1.548527	3.296587	-0.752197	0.064697	-0.147217
1231.0	25.7693	8.27529	-2.304313	-2.24775	1.337343	3.385966	-0.746826	0.090576	-0.158203
1232.0	26.050027	7.340256	-5.663189	-1.380161	1.566937	3.078333	-0.736572	0.105957	-0.173584
1233.0	24.420695	7.45885	-8.955409	-0.12286	1.954481	2.563365	-0.730469	0.118896	-0.184326
1234.0	20.976491	10.988922	-11.158505	0.929611	2.064709	2.069877	-0.724121	0.119385	-0.206055
1235.0	19.310233	16.268797	-12.767574	1.119449	1.72898	1.667103	-0.717529	0.117188	-0.212646
1236.0	17.119467	17.562697	-14.915134	0.649194	0.964944	1.067639	-0.719482	0.115234	-0.216797
1237.0	16.342984	17.023469	-14.774458	0.098505	0.005361	0.294989	-0.715088	0.113037	-0.218994
1238.0	14.367842	12.665168	-14.144342	-0.044661	-0.902502	-0.562035	-0.727539	0.099854	-0.206055
1239.0	17.324464	4.71014	-12.744644	0.299434	-1.753164	-1.343548	-0.735596	0.08252	-0.195068
1240.0	4.454511	-2.029679	3.448264	2.197986	-3.103495	-2.917861	-0.749512	0.047852	-0.17334
1241.0	-7.704745	-16.254021	22.288207	1.589606	-3.811757	-3.555647	-0.765137	0.006348	-0.144775
1242.0	10.946754	-9.525724	6.78382	2.362243	-4.209021	-3.873824	-0.776611	-0.032959	-0.105713
1243.0	27.940185	14.507439	-3.791464	2.328397	-3.966076	-2.661127	-0.786377	-0.061279	-0.070801
1244.0	38.449376	2.578806	13.300332	2.230175	-2.653578	-1.395881	-0.791748	-0.0896	-0.059814
1245.0	31.756912	11.39116	12.896483	0.563507	1.191856	-0.992764	-0.784912	-0.0979	-0.077148
1246.0	5.386517	-8.461401	2.988769	-0.10859	1.195634	-0.94971	-0.778076	-0.108398	-0.081543
1247.0	6.039459	-7.210999	5.135235	0.955376	0.509796	-0.694421	-0.782227	-0.112793	-0.077148
1248.0	9.098813	2.512543	9.600956	0.619974	0.607345	-0.586666	-0.777588	-0.123535	-0.085693
1249.0	9.599853	-1.279244	7.061485	0.020765	0.846751	-0.290434	-0.769043	-0.119141	-0.083496
1250.0	7.003757	-3.656311	5.896705	-0.001153	0.78691	-0.039611	-0.764648	-0.119141	-0.094482
1251.0	7.624902	-2.248915	6.451788	0.102878	0.660574	0.061061	-0.768799	-0.125488	-0.094238
1252.0	7.44887	-2.643431	6.506867	0.105298	0.60259	0.096426	-0.766846	-0.118896	-0.105225
1253.0	7.349189	-2.081555	6.849588	-0.036745	0.551864	0.157348	-0.760498	-0.112305	-0.109619
1254.0	6.945481	-1.040047	7.523054	-0.149005	0.542831	0.123087	-0.762451	-0.123047	-0.11377
1255.0	6.981327	-2.766202	6.77332	-0.221659	0.500293	0.083681	-0.760498	-0.116455	-0.118164
1256.0	7.133676	-2.438128	6.803554	-0.189554	0.406727	0.068609	-0.758301	-0.114258	-0.120361
1257.0	6.827745	-2.484834	6.977044	-0.188833	0.322753	0.082562	-0.758301	-0.112305	-0.118164
1258.0	6.76045	-3.142123	6.854224	-0.188048	0.25074	0.058524	-0.75415	-0.112061	-0.124756
1259.0	6.957565	-2.713847	6.797685	-0.162799	0.171091	0.047292	-0.75415	-0.10791	-0.124756
1260.0	6.807006	-2.214078	7.174198	-0.178413	0.076077	0.092911	-0.758545	-0.107666	-0.12915
1261.0	6.688729	-2.851958	6.951079	-0.203938	-0.033961	0.118744	-0.756592	-0.105713	-0.124756
1262.0	6.808593	-2.948647	6.704632	-0.217038	-0.129899	0.124329	-0.75415	-0.107666	-0.12915
1263.0	6.835914	-3.41205	6.546908	-0.210776	-0.182405	0.117326	-0.754395	-0.103516	-0.122559
1264.0	6.835015	-3.677021	6.405781	-0.177657	-0.210324	0.076576	-0.754395	-0.103516	-0.131348
1265.0	6.825562	-3.667031	6.334562	-0.137903	-0.221586	0.02514	-0.758545	-0.10791	-0.120361
1266.0	6.835213	-3.552309	6.338808	-0.091071	-0.217983	-0.018593	-0.760742	-0.10791	-0.124756
1267.0	6.869023	-3.456149	6.371369	-0.053416	-0.207923	-0.049747	-0.758789	-0.101563	-0.118408
1268.0	6.864499	-3.552404	6.307028	-0.01609	-0.183106	-0.076669	-0.765381	-0.103516	-0.124756
1269.0	6.900757	-3.447779	6.296264	0.018138	-0.158329	-0.109118	-0.760742	-0.105957	-0.109619
1270.0	6.880352	-3.33981	6.406593	0.042505	-0.143993	-0.134314	-0.760742	-0.110107	-0.122559
1271.0	6.920665	-3.301658	6.35145	0.065628	-0.131704	-0.154165	-0.760742	-0.110107	-0.114014
1272.0	6.877296	-3.140026	6.414192	0.082311	-0.123704	-0.174211	-0.762695	-0.112305	-0.114014
1273.0	6.956206	-2.997503	6.484762	0.093324	-0.121895	-0.182539	-0.760254	-0.118896	-0.109619
1274.0	7.017458	-2.904529	6.456603	0.08997	-0.124197	-0.177231	-0.766846	-0.116699	-0.114014
1275.0	7.008242	-2.912227	6.424896	0.07688	-0.122412	-0.173288	-0.764893	-0.114502	-0.107422
1276.0	7.048773	-2.968247	6.396557	0.072103	-0.111961	-0.162676	-0.76709	-0.114502	-0.114014
1277.0	7.01872	-3.075976	6.341242	0.072218	-0.101894	-0.173524	-0.758057	-0.121094	-0.103027
1278.0	7.055847	-3.082378	6.337911	0.072414	-0.10021	-0.182169	-0.762451	-0.118652	-0.11377
1279.0	7.042217	-3.08907	6.38089	0.077166	-0.102864	-0.19715	-0.760254	-0.118896	-0.105225
1280.0	7.003567	-3.022596	6.396909	0.079968	-0.116133	-0.212118	-0.762207	-0.127441	-0.111572
1281.0	6.989372	-2.977866	6.462014	0.087196	-0.141881	-0.220418	-0.766602	-0.125244	-0.103027
1282.0	6.947714	-2.883602	6.596125	0.096914	-0.188588	-0.222034	-0.762207	-0.123047	-0.105225
1283.0	6.93815	-2.860862	6.728402	0.102958	-0.266985	-0.217017	-0.76416	-0.134033	-0.098633
1284.0	6.736178	-2.774097	6.869413	0.101539	-0.380018	-0.222665	-0.76416	-0.131836	-0.096436
1285.0	6.544696	-2.758531	7.07856	0.128825	-0.510328	-0.23189	-0.766357	-0.131836	-0.103027
1286.0	6.734274	-2.676913	7.119452	0.112782	-0.680178	-0.225331	-0.766113	-0.134277	-0.087891
1287.0	6.667469	-2.608305	7.189219	0.140571	-0.855902	-0.237459	-0.772461	-0.138672	-0.083496
1288.0	6.668611	-2.607404	7.298814	0.142588	-1.06861	-0.24414	-0.774658	-0.143066	-0.07251
1289.0	6.567864	-2.612275	7.41831	0.153477	-1.315078	-0.255814	-0.776611	-0.143311	-0.05957
1290.0	6.519638	-2.688441	7.452569	0.165777	-1.597634	-0.282271	-0.787109	-0.154297	-0.042236
1291.0	6.469927	-2.739727	7.447718	0.170755	-1.886338	-0.331365	-0.787109	-0.1521	-0.033447
1292.0	6.395535	-2.792267	7.406779	0.162593	-2.173788	-0.393293	-0.793457	-0.158936	-0.013916
1293.0	6.604636	-2.77558	7.258572	0.14314	-2.487898	-0.46868	-0.797607	-0.161377	0.007568
1294.0	6.432561	-3.029497	7.253165	0.097331	-2.82461	-0.573007	-0.801758	-0.168213	0.029297
1295.0	6.500623	-3.045872	7.057053	0.049152	-3.209723	-0.729595	-0.807861	-0.177002	0.051025
1296.0	5.224673	-3.463579	8.336998	-0.02079	-3.700963	-0.883653	-0.805176	-0.188232	0.081543
1297.0	6.102007	-4.519137	7.131102	-0.009163	-4.269071	-1.167657	-0.811279	-0.19751	0.126953
1298.0	4.56251	-4.872124	7.06866	-0.070186	-4.884249	-1.520365	-0.8125	-0.215332	0.161865
1299.0	4.7519	-4.561114	7.728403	-0.041663	-5.688404	-1.897267	-0.813721	-0.237305	0.209473
1300.0	4.97605	-5.389165	8.850197	0.0898	-6.808031	-2.392549	-0.804199	-0.259521	0.266113
1301.0	6.926837	-6.025765	8.596281	0.373516	-8.121407	-2.995216	-0.785156	-0.297119	0.331299
1302.0	11.267772	-4.541329	6.620657	0.65463	-8.946541	-3.331364	-0.764404	-0.32373	0.403076
1303.0	17.680381	-1.870811	6.596033	0.570194	-8.82121	-3.537528	-0.728271	-0.354736	0.470459
1304.0	24.603589	-2.387882	5.047834	0.205048	-8.130458	-3.748075	-0.694092	-0.391846	0.520508
1305.0	24.857245	-5.304064	3.350072	0.186203	-7.334442	-3.917857	-0.64917	-0.420166	0.566162
1306.0	27.687383	-6.469854	6.526521	0.297562	-6.246908	-3.826637	-0.606689	-0.450684	0.607666
1307.0	23.23936	-9.162774	7.507957	0.294016	-4.900965	-3.45013	-0.56665	-0.468262	0.642578
1308.0	12.060884	-12.643912	6.594894	0.73973	-4.118026	-3.667525	-0.515625	-0.492188	0.670898
1309.0	7.06045	-11.982584	6.553705	2.595983	-4.449908	-5.15324	-0.453613	-0.513916	0.716553
1310.0	11.423458	-10.163066	10.431815	3.559573	-5.167778	-4.845397	-0.405273	-0.525146	0.764404
1311.0	18.595647	-6.21492	16.893871	2.884676	-4.180884	-3.452572	-0.359131	-0.53418	0.810059
1312.0	25.751843	-4.449449	18.449623	2.169969	-1.051428	-1.557059	-0.350098	-0.538818	0.827393
1313.0	15.310132	-8.543807	16.922567	0.65757	1.537466	0.276862	-0.36084	-0.547363	0.831787
1314.0	6.786592	-6.364382	14.39229	-0.026405	2.846534	0.862456	-0.377686	-0.560303	0.831787
1315.0	2.686515	-4.267435	11.525498	-0.641404	3.045803	0.977546	-0.402832	-0.582031	0.833984
1316.0	3.493008	-4.246691	9.689013	-1.084009	3.108518	1.065577	-0.421875	-0.597168	0.829834
1317.0	4.470395	-5.188193	8.070826	-0.986406	3.358899	1.13202	-0.462402	-0.618652	0.823242
