Acquisition frequency: 100 Hz
PacketCounter	Acc_X	Acc_Y	Acc_Z	Gyr_X	Gyr_Y	Gyr_Z	Mag_X	Mag_Y	Mag_Z
0.0	6.576801	3.170179	7.365612	0.012784	0.019343	-0.019429	-0.677002	-0.104248	-0.38623
1.0	6.558675	3.144775	7.379541	0.011848	0.019608	-0.021357	-0.681396	-0.106445	-0.38623
2.0	6.558135	3.194455	7.391466	0.010777	0.016137	-0.018858	-0.681396	-0.106445	-0.383789
3.0	6.58648	3.180526	7.349288	0.013113	0.012527	-0.016806	-0.681641	-0.102051	-0.384033
4.0	6.551239	3.206324	7.359229	0.004964	0.015069	-0.02102	-0.681396	-0.106445	-0.38623
5.0	6.586934	3.176127	7.384034	0.00483	0.011333	-0.016594	-0.679199	-0.104248	-0.38623
6.0	6.548369	3.209261	7.360503	0.002848	0.009731	-0.015839	-0.679199	-0.104248	-0.38623
7.0	6.565245	3.182787	7.370482	0.003428	0.014682	-0.016718	-0.681396	-0.106445	-0.38623
8.0	6.544711	3.187867	7.356573	-0.001002	0.014559	-0.013405	-0.683594	-0.106445	-0.383789
9.0	6.543241	3.188741	7.357502	-0.000513	0.013083	-0.015023	-0.68335	-0.108643	-0.388428
10.0	6.541743	3.189545	7.358486	-0.001492	0.016037	-0.011785	-0.68335	-0.11084	-0.383789
11.0	6.539578	3.166445	7.353983	-0.001514	0.014431	-0.01197	-0.685547	-0.11084	-0.388428
12.0	6.556967	3.163179	7.369917	-0.000958	0.017776	-0.013034	-0.681396	-0.106445	-0.381592
13.0	6.556044	3.187671	7.376559	-0.003918	0.013222	-0.014579	-0.685791	-0.106445	-0.38623
14.0	6.537965	3.136965	7.384966	-0.001025	0.012957	-0.013589	-0.681396	-0.106445	-0.383789
15.0	6.553216	3.189289	7.378372	-0.002916	0.011877	-0.017632	-0.68335	-0.108643	-0.383789
16.0	6.546863	3.150526	7.334779	-0.00581	0.012144	-0.018622	-0.685791	-0.106445	-0.383789
17.0	6.546204	3.175001	7.341186	-0.005431	0.008536	-0.01563	-0.681396	-0.106445	-0.388428
18.0	6.545661	3.199246	7.347582	-0.008816	0.010278	-0.015002	-0.679199	-0.106445	-0.383789
19.0	6.547953	3.191766	7.381973	-0.009238	0.010674	-0.018365	-0.68335	-0.11084	-0.388428
20.0	6.527813	3.195937	7.368076	-0.011823	0.008411	-0.011382	-0.681396	-0.106445	-0.381592
21.0	6.576344	3.199939	7.346815	-0.008796	0.011888	-0.014816	-0.676758	-0.108643	-0.383789
22.0	6.509957	3.192201	7.388742	-0.012716	0.011891	-0.01294	-0.683594	-0.104248	-0.383789
23.0	6.558323	3.196061	7.367706	-0.011249	0.013367	-0.012259	-0.68335	-0.108643	-0.388428
24.0	6.522021	3.172326	7.367028	-0.012203	0.012024	-0.014374	-0.683594	-0.106445	-0.383789
25.0	6.555021	3.172251	7.364552	-0.011762	0.013236	-0.010825	-0.681396	-0.106445	-0.393066
26.0	6.538873	3.192026	7.389904	-0.010737	0.013501	-0.013691	-0.683594	-0.106445	-0.379395
27.0	6.56711	3.15241	7.342845	-0.011783	0.01163	-0.011011	-0.681396	-0.106445	-0.383789
28.0	6.517405	3.195854	7.377321	-0.012737	0.010288	-0.013126	-0.68335	-0.108643	-0.383789
29.0	6.51549	3.172068	7.372916	-0.009784	0.014846	-0.011575	-0.687744	-0.108643	-0.390625
30.0	6.548209	3.172265	7.370603	-0.009671	0.016985	-0.016184	-0.685791	-0.106445	-0.38623
31.0	6.528318	3.200121	7.362616	-0.010318	0.013108	-0.010328	-0.683594	-0.104248	-0.383789
32.0	6.580301	3.196225	7.374975	-0.00931	0.011767	-0.013381	-0.683594	-0.106445	-0.383789
33.0	6.540571	3.180662	7.34063	-0.008816	0.010293	-0.015	-0.68335	-0.11084	-0.383789
34.0	6.546408	3.165014	7.40846	-0.009311	0.011768	-0.01338	-0.685791	-0.106445	-0.381592
35.0	6.538076	3.181121	7.342654	-0.00933	0.010161	-0.013567	-0.683594	-0.106445	-0.38623
36.0	6.541036	3.197053	7.382628	-0.009844	0.010028	-0.012134	-0.685791	-0.106445	-0.383789
37.0	6.554702	3.177396	7.3595	-0.010777	0.010295	-0.014064	-0.681152	-0.11084	-0.381592
38.0	6.537986	3.173506	7.379139	-0.01074	0.013511	-0.013689	-0.68335	-0.108643	-0.385986
39.0	6.55565	3.169489	7.395185	-0.015651	0.008951	-0.014309	-0.68335	-0.108643	-0.388428
40.0	6.565804	3.157542	7.338763	-0.011788	0.011637	-0.01101	-0.685547	-0.11084	-0.381592
41.0	6.550731	3.224625	7.375358	-0.014149	0.013644	-0.01325	-0.681396	-0.106445	-0.390625
42.0	6.54775	3.153271	7.359745	-0.011274	0.011773	-0.012443	-0.681396	-0.106445	-0.390625
43.0	6.543427	3.184912	7.333193	-0.016547	0.012436	-0.015864	-0.677002	-0.106445	-0.381592
44.0	6.545669	3.17683	7.367779	-0.01369	0.008958	-0.015245	-0.683594	-0.106445	-0.393066
45.0	6.563424	3.172933	7.3837	-0.010779	0.010302	-0.014062	-0.681396	-0.106445	-0.38623
46.0	6.561706	3.149345	7.379058	-0.011729	0.008962	-0.01618	-0.681396	-0.106445	-0.38623
47.0	6.542215	3.177042	7.370754	-0.015669	0.007349	-0.014498	-0.685547	-0.108643	-0.388428
48.0	6.541689	3.200753	7.377336	-0.013194	0.007489	-0.016865	-0.685547	-0.108643	-0.388428
49.0	6.555439	3.181188	7.354166	-0.013177	0.009098	-0.016677	-0.685791	-0.104248	-0.383789
50.0	6.5388	3.177174	7.373728	-0.016071	0.009362	-0.017672	-0.685791	-0.104248	-0.38623
51.0	6.556906	3.196902	7.395489	-0.015105	0.012311	-0.015365	-0.681396	-0.106445	-0.383789
52.0	6.570352	3.177217	7.37266	-0.015523	0.012716	-0.018727	-0.685547	-0.11084	-0.37915
53.0	6.553009	3.14931	7.386798	-0.020412	0.009761	-0.019165	-0.687988	-0.104248	-0.38623
54.0	6.548777	3.180853	7.360244	-0.015654	0.008963	-0.014309	-0.681396	-0.106445	-0.38623
55.0	6.535928	3.168419	7.413078	-0.017665	0.004136	-0.013942	-0.681152	-0.108643	-0.388428
56.0	6.550587	3.172082	7.395456	-0.019112	0.004268	-0.01444	-0.685791	-0.106445	-0.383789
57.0	6.546312	3.179802	7.36289	-0.018099	0.002935	-0.017493	-0.685547	-0.108643	-0.385986
58.0	6.564599	3.175617	7.378472	-0.016251	0.000791	-0.013823	-0.685791	-0.106445	-0.38623
59.0	6.560614	3.183421	7.345622	-0.0172	-0.000547	-0.015942	-0.681396	-0.106445	-0.383789
60.0	6.55965	3.159256	7.340564	-0.018713	0.002257	-0.011267	-0.679199	-0.106445	-0.381592
61.0	6.543694	3.154598	7.359746	-0.016751	0.002264	-0.012201	-0.685791	-0.106445	-0.388428
62.0	6.528465	3.197591	7.390409	-0.014743	0.007094	-0.012564	-0.687744	-0.108643	-0.385986
63.0	6.530542	3.165396	7.419114	-0.01669	0.008696	-0.01144	-0.683594	-0.106445	-0.38623
64.0	6.556374	3.157708	7.344155	-0.011819	0.010047	-0.011188	-0.685791	-0.106445	-0.388428
65.0	6.574559	3.177385	7.365883	-0.012736	0.011926	-0.012927	-0.686035	-0.099854	-0.38623
66.0	6.53842	3.153494	7.364906	-0.009313	0.013409	-0.013172	-0.68335	-0.108643	-0.385986
67.0	6.55599	3.149732	7.380944	-0.009328	0.011802	-0.013362	-0.68335	-0.108643	-0.383789
68.0	6.55484	3.150002	7.381851	-0.008857	0.007118	-0.015366	-0.68335	-0.108643	-0.381592
69.0	6.535562	3.201875	7.379249	-0.007783	0.01222	-0.017657	-0.683838	-0.099854	-0.38623
70.0	6.552483	3.150812	7.383597	-0.009902	0.005234	-0.012694	-0.679199	-0.106445	-0.383789
71.0	6.548445	3.182935	7.356683	-0.008328	0.008867	-0.016607	-0.683594	-0.104248	-0.383789
72.0	6.527981	3.163483	7.33689	-0.009359	0.008589	-0.013743	-0.681396	-0.104248	-0.379395
73.0	6.56474	3.155826	7.367604	-0.006966	0.009796	-0.011124	-0.681396	-0.106445	-0.388428
74.0	6.544702	3.159969	7.353588	-0.009345	0.010198	-0.013552	-0.679199	-0.104248	-0.383789
75.0	6.562832	3.179931	7.375237	-0.0084	0.011536	-0.011431	-0.685791	-0.102051	-0.388428
76.0	6.54228	3.160369	7.355571	-0.004045	0.01275	-0.009743	-0.683594	-0.104248	-0.381592
77.0	6.556534	3.164623	7.338153	-0.010878	0.011389	-0.009067	-0.683594	-0.106445	-0.381592
78.0	6.558893	3.156332	7.372593	-0.011823	0.010052	-0.011188	-0.687744	-0.108643	-0.388428
79.0	6.573111	3.16062	7.355203	-0.006424	0.013155	-0.012171	-0.685791	-0.104248	-0.383789
80.0	6.537413	3.160538	7.359824	-0.009834	0.013278	-0.011738	-0.681396	-0.104248	-0.388428
81.0	6.554602	3.132999	7.370152	-0.009332	0.011811	-0.013361	-0.681396	-0.106445	-0.390625
82.0	6.55408	3.180602	7.382727	-0.010779	0.011943	-0.01386	-0.683594	-0.106445	-0.383789
83.0	6.549072	3.165107	7.344604	-0.009874	0.008456	-0.012313	-0.683594	-0.104248	-0.383789
84.0	6.551343	3.157032	7.379004	-0.009836	0.013281	-0.011737	-0.68335	-0.108643	-0.390625
85.0	6.54631	3.141436	7.340957	-0.012768	0.00872	-0.013312	-0.683594	-0.104248	-0.38623
86.0	6.549016	3.15708	7.381048	-0.011736	0.009002	-0.016174	-0.679199	-0.104248	-0.388428
87.0	6.547966	3.157184	7.381936	-0.011334	0.006982	-0.013004	-0.681641	-0.102051	-0.384033
88.0	6.562423	3.161526	7.364352	-0.009359	0.008601	-0.013743	-0.679199	-0.104248	-0.381592
89.0	6.580309	3.157685	7.380172	-0.012781	0.007114	-0.013504	-0.683838	-0.099854	-0.390869
90.0	6.560491	3.161621	7.366033	-0.012277	0.005648	-0.015127	-0.683594	-0.104248	-0.381592
91.0	6.541001	3.189205	7.357713	-0.013286	0.008581	-0.01188	-0.683594	-0.106445	-0.381592
92.0	6.577214	3.157737	7.382907	-0.00975	0.012235	-0.016718	-0.681396	-0.104248	-0.381592
93.0	6.541615	3.157558	7.387405	-0.01277	0.008724	-0.013311	-0.686035	-0.099854	-0.384033
94.0	6.556025	3.161776	7.36994	-0.013712	0.00739	-0.015434	-0.687988	-0.104248	-0.376953
95.0	6.536652	3.213085	7.367586	-0.010359	0.013146	-0.010301	-0.68335	-0.108643	-0.388428
96.0	6.56878	3.14213	7.347948	-0.013276	0.010192	-0.011687	-0.683594	-0.106445	-0.388428
97.0	6.533616	3.16535	7.358252	-0.01276	0.010336	-0.013118	-0.681641	-0.102051	-0.390869
98.0	6.569886	3.133724	7.383477	-0.01276	0.010336	-0.013118	-0.685547	-0.11084	-0.385986
99.0	6.550493	3.185023	7.381138	-0.013701	0.009003	-0.015242	-0.685547	-0.108643	-0.381592
100.0	6.548487	3.113602	7.364801	-0.015769	0.008431	-0.009519	-0.685791	-0.104248	-0.388428
101.0	6.563424	3.165098	7.359131	-0.010775	0.013568	-0.01366	-0.685791	-0.104248	-0.383789
102.0	6.596287	3.141686	7.350994	-0.014746	0.007111	-0.012574	-0.681152	-0.108643	-0.385986
103.0	6.526913	3.164509	7.36456	-0.011325	0.008602	-0.01281	-0.686035	-0.099854	-0.379395
104.0	6.559893	3.141254	7.356256	-0.010808	0.008746	-0.014241	-0.679199	-0.104248	-0.383789
105.0	6.54394	3.184371	7.387229	-0.014219	0.008864	-0.013811	-0.683594	-0.102051	-0.390869
106.0	6.542514	3.160582	7.382449	-0.011315	0.010212	-0.012616	-0.681396	-0.106445	-0.388428
107.0	6.556838	3.164885	7.365092	-0.011316	0.010213	-0.012616	-0.683594	-0.106445	-0.390625
108.0	6.555474	3.164892	7.366303	-0.00983	0.016516	-0.011338	-0.681396	-0.106445	-0.383789
109.0	6.572893	3.160873	7.382629	-0.015647	0.012215	-0.013923	-0.685791	-0.102051	-0.388428
110.0	6.567993	3.145209	7.344615	-0.011833	0.010071	-0.011186	-0.68335	-0.11084	-0.383789
111.0	6.551732	3.188201	7.375879	-0.011278	0.01665	-0.011837	-0.683594	-0.102051	-0.388428
112.0	6.549752	3.140647	7.365546	-0.013271	0.011811	-0.011492	-0.68335	-0.108643	-0.383789
113.0	6.548462	3.140555	7.366732	-0.009851	0.013304	-0.011725	-0.685791	-0.104248	-0.38623
114.0	6.547345	3.164332	7.373769	-0.01078	0.01358	-0.013656	-0.677002	-0.106445	-0.390625
115.0	6.545728	3.164516	7.375126	-0.008789	0.018422	-0.013999	-0.683594	-0.106445	-0.38623
116.0	6.544263	3.164682	7.376354	-0.009869	0.010089	-0.012115	-0.687744	-0.11084	-0.385986
117.0	6.573515	3.149814	7.335058	-0.007852	0.019756	-0.011872	-0.683594	-0.106445	-0.38623
118.0	6.575606	3.165392	7.375568	-0.00986	0.011699	-0.01192	-0.681396	-0.104248	-0.383789
119.0	6.539681	3.141384	7.374175	-0.007887	0.013324	-0.012653	-0.683594	-0.106445	-0.38623
120.0	6.557008	3.114143	7.384319	-0.005939	0.010122	-0.013972	-0.681641	-0.102051	-0.390869
121.0	6.556275	3.162054	7.396886	-0.006868	0.010399	-0.015903	-0.687988	-0.106445	-0.38623
122.0	6.570267	3.143257	7.37359	-0.006868	0.0104	-0.015903	-0.681396	-0.106445	-0.381592
123.0	6.565885	3.175763	7.346986	-0.006868	0.010401	-0.015903	-0.683594	-0.104248	-0.383789
124.0	6.548877	3.148086	7.360435	-0.007898	0.011718	-0.012848	-0.681396	-0.104248	-0.381592
125.0	6.566564	3.168247	7.382395	-0.005917	0.014952	-0.013384	-0.679443	-0.102051	-0.38623
126.0	6.546159	3.172504	7.368601	-0.008811	0.015213	-0.014388	-0.687988	-0.106445	-0.383789
127.0	6.56336	3.169006	7.384919	-0.006839	0.016839	-0.015119	-0.685791	-0.106445	-0.38623
128.0	6.545978	3.141305	7.39869	-0.008812	0.015215	-0.014388	-0.678955	-0.108643	-0.381592
129.0	6.556533	3.154264	7.348333	-0.008805	0.016825	-0.014192	-0.679199	-0.106445	-0.38623
130.0	6.523984	3.169653	7.392167	-0.004874	0.01686	-0.016045	-0.681396	-0.106445	-0.383789
131.0	6.553249	3.17907	7.356831	-0.007768	0.017121	-0.01705	-0.677002	-0.106445	-0.381592
132.0	6.539148	3.143243	7.403905	-0.00302	0.016308	-0.012181	-0.683594	-0.104248	-0.388428
133.0	6.534277	3.152033	7.371713	-0.00592	0.014959	-0.013383	-0.683594	-0.104248	-0.38623
134.0	6.582597	3.133808	7.34526	-0.00304	0.011483	-0.012769	-0.683594	-0.102051	-0.381592
135.0	6.566055	3.177458	7.376263	-0.004888	0.013647	-0.016437	-0.681396	-0.104248	-0.383789
136.0	6.564415	3.154384	7.371423	-0.004481	0.013222	-0.013076	-0.683594	-0.104248	-0.383789
137.0	6.547424	3.150587	7.39076	-0.004888	0.013648	-0.016437	-0.685791	-0.104248	-0.383789
138.0	6.56129	3.131963	7.367633	-0.005408	0.013501	-0.015008	-0.683594	-0.106445	-0.379395
139.0	6.541215	3.183795	7.365492	-0.003018	0.017923	-0.011983	-0.679199	-0.104248	-0.381592
140.0	6.542376	3.128833	7.388383	-0.002906	0.018497	-0.016773	-0.681641	-0.099854	-0.38623
141.0	6.556391	3.181232	7.383229	-0.008805	0.018441	-0.013997	-0.683594	-0.106445	-0.381592
142.0	6.535534	3.138185	7.357735	-0.004883	0.015262	-0.01624	-0.687744	-0.108643	-0.385986
143.0	6.549665	3.190501	7.352521	-0.006428	0.019646	-0.011364	-0.683594	-0.102051	-0.38623
144.0	6.538606	3.122488	7.427137	-0.005398	0.016725	-0.014614	-0.679443	-0.099854	-0.384033
145.0	6.530465	3.163329	7.367623	-0.005394	0.018336	-0.014418	-0.681152	-0.108643	-0.385986
146.0	6.53197	3.155581	7.402296	-0.003022	0.01793	-0.011981	-0.683594	-0.104248	-0.38623
147.0	6.561315	3.165138	7.367025	-0.003427	0.018357	-0.015342	-0.683594	-0.102051	-0.388428
148.0	6.543814	3.137677	7.380732	-0.003948	0.018209	-0.013913	-0.679199	-0.106445	-0.38623
149.0	6.576684	3.162586	7.384614	-0.003031	0.014713	-0.012374	-0.685791	-0.102051	-0.38623
150.0	6.540776	3.162691	7.388856	-0.00199	0.015012	-0.01523	-0.683594	-0.102051	-0.388428
151.0	6.539228	3.163371	7.389935	-0.004478	0.014843	-0.012879	-0.679199	-0.104248	-0.388428
152.0	6.537696	3.163948	7.391043	-0.003958	0.014993	-0.014307	-0.681396	-0.106445	-0.381592
153.0	6.567205	3.149769	7.349734	-0.006854	0.013641	-0.015514	-0.681396	-0.104248	-0.381592
154.0	6.568985	3.165662	7.390147	-0.006851	0.015252	-0.015316	-0.683594	-0.106445	-0.38623
155.0	6.548659	3.169935	7.376217	-0.007375	0.013493	-0.014085	-0.683594	-0.104248	-0.390625
156.0	6.547204	3.170277	7.377362	-0.008822	0.013622	-0.014591	-0.679199	-0.106445	-0.388428
157.0	6.511175	3.122686	7.369836	-0.003035	0.01472	-0.012372	-0.681396	-0.106445	-0.388428
158.0	6.525422	3.198776	7.370459	-0.006849	0.016865	-0.015119	-0.681152	-0.108643	-0.390625
159.0	6.542416	3.171779	7.380963	-0.00303	0.017942	-0.011977	-0.679443	-0.102051	-0.38623
160.0	6.525061	3.144191	7.39455	-0.003957	0.016611	-0.014107	-0.685791	-0.104248	-0.390625
161.0	6.576437	3.094223	7.395949	-0.004479	0.016461	-0.01268	-0.681396	-0.104248	-0.390625
162.0	6.503223	3.196631	7.393522	-0.001994	0.013415	-0.015424	-0.68335	-0.11084	-0.383789
163.0	6.573497	3.143287	7.409774	0.001421	0.014921	-0.015642	-0.685791	-0.106445	-0.38623
164.0	6.500111	3.151206	7.383504	-0.001073	0.011528	-0.013688	-0.681152	-0.11084	-0.381592
165.0	6.532952	3.153027	7.38127	0.003913	0.016707	-0.017793	-0.683594	-0.104248	-0.388428
166.0	6.565671	3.131403	7.373107	0.001939	0.011854	-0.017464	-0.681396	-0.106445	-0.388428
167.0	6.533155	3.170952	7.422113	-2.9e-05	0.011831	-0.016543	-0.683838	-0.099854	-0.38623
168.0	6.547244	3.152808	7.398839	-0.001474	0.01357	-0.016852	-0.679199	-0.106445	-0.388428
169.0	6.576939	3.186487	7.369253	-0.00055	0.014902	-0.01472	-0.678955	-0.108643	-0.385986
170.0	6.525352	3.158485	7.385658	-0.00055	0.014903	-0.01472	-0.685791	-0.106445	-0.38623
171.0	6.555076	3.168348	7.350184	-0.002519	0.013269	-0.013997	-0.683594	-0.106445	-0.38623
172.0	6.553644	3.169182	7.351102	-0.002921	0.012089	-0.017556	-0.679199	-0.104248	-0.388428
173.0	6.521046	3.160832	7.388456	-0.005935	0.011763	-0.013781	-0.683594	-0.104248	-0.393066
174.0	6.535411	3.18962	7.377017	-0.003967	0.010178	-0.014899	-0.681152	-0.113037	-0.383789
175.0	6.534118	3.166605	7.371957	-0.003967	0.011789	-0.014701	-0.68335	-0.11084	-0.381592
176.0	6.532649	3.191015	7.37886	-0.003444	0.015162	-0.015733	-0.681396	-0.104248	-0.38623
177.0	6.531056	3.191722	7.379963	-0.003967	0.015011	-0.014305	-0.685791	-0.102051	-0.384033
178.0	6.548312	3.141355	7.384303	-0.000553	0.0133	-0.014915	-0.685791	-0.104248	-0.38623
179.0	6.52804	3.169746	7.37599	-0.002922	0.013706	-0.017357	-0.683594	-0.106445	-0.390625
180.0	6.54532	3.166972	7.392032	-3e-05	0.011844	-0.01654	-0.681152	-0.108643	-0.388428
181.0	6.543897	3.144393	7.386924	-0.000953	0.012123	-0.018474	-0.68335	-0.108643	-0.392822
182.0	6.50477	3.176737	7.363428	-0.000955	0.015345	-0.018078	-0.679199	-0.104248	-0.388428
183.0	6.540591	3.170355	7.394768	0.000491	0.01522	-0.01757	-0.685791	-0.106445	-0.388428
184.0	6.535988	3.132428	7.350466	-3.1e-05	0.011847	-0.016539	-0.681152	-0.108643	-0.390625
185.0	6.534442	3.180942	7.363106	0.000491	0.013611	-0.017768	-0.683838	-0.099854	-0.384033
186.0	6.536021	3.173758	7.397348	-3.3e-05	0.013459	-0.016341	-0.678955	-0.108643	-0.383789
187.0	6.531422	3.183072	7.364865	-0.002923	0.012101	-0.017555	-0.685791	-0.106445	-0.38623
188.0	6.567619	3.152799	7.390125	-0.002	0.010212	-0.015818	-0.681396	-0.106445	-0.388428
189.0	6.54748	3.181042	7.381692	-0.004893	0.012074	-0.016637	-0.683594	-0.102051	-0.390869
190.0	6.546142	3.181711	7.382591	-0.003049	0.011518	-0.012767	-0.677002	-0.104248	-0.383789
191.0	6.544749	3.182235	7.3836	-0.00831	0.013784	-0.01603	-0.677002	-0.106445	-0.383789
192.0	6.527648	3.178131	7.402862	-0.006862	0.012049	-0.015719	-0.683594	-0.106445	-0.383789
193.0	6.538845	3.191389	7.352362	-0.009356	0.011868	-0.013375	-0.679199	-0.106445	-0.38623
194.0	6.556272	3.187943	7.368599	-0.007387	0.011897	-0.014292	-0.681396	-0.106445	-0.383789
195.0	6.53946	3.159857	7.381872	-0.011323	0.010229	-0.012656	-0.685791	-0.106445	-0.388428
196.0	6.538374	3.160031	7.38276	-0.008824	0.007191	-0.015396	-0.68335	-0.108643	-0.376953
197.0	6.537171	3.183954	7.389569	-0.0108	0.010384	-0.014082	-0.685791	-0.106445	-0.381592
198.0	6.551743	3.188769	7.372268	-0.007903	0.006913	-0.01346	-0.676758	-0.108643	-0.392822
199.0	6.550831	3.165342	7.367125	-0.009352	0.008649	-0.013771	-0.679199	-0.106445	-0.393066
200.0	6.546532	3.197609	7.34058	-0.010273	0.00893	-0.015706	-0.683594	-0.106445	-0.388428
201.0	6.548505	3.165849	7.368974	-0.010277	0.010541	-0.015507	-0.678955	-0.11084	-0.383789
202.0	6.531487	3.161508	7.388222	-0.011202	0.012433	-0.017244	-0.677246	-0.102051	-0.38623
203.0	6.545778	3.166271	7.371215	-0.013693	0.010638	-0.0151	-0.677002	-0.104248	-0.388428
204.0	6.525538	3.193743	7.363154	-0.011731	0.013892	-0.015618	-0.678955	-0.108643	-0.383789
205.0	6.543109	3.166421	7.37352	-0.013685	0.007417	-0.015498	-0.685547	-0.108643	-0.390625
206.0	6.541872	3.166472	7.374596	-0.010811	0.013613	-0.013682	-0.68335	-0.108643	-0.385986
207.0	6.543687	3.181709	7.414933	-0.01473	0.005497	-0.012846	-0.68335	-0.11084	-0.388428
208.0	6.523887	3.185355	7.400696	-0.01317	0.010798	-0.016525	-0.681396	-0.106445	-0.381592
209.0	6.538406	3.190032	7.383554	-0.012765	0.00714	-0.013563	-0.68335	-0.108643	-0.388428
210.0	6.556355	3.162692	7.3936	-0.01079	0.005561	-0.014678	-0.681152	-0.11084	-0.383789
211.0	6.536684	3.166392	7.379229	-0.013295	0.008596	-0.011937	-0.679199	-0.106445	-0.388428
212.0	6.516901	3.170077	7.364962	-0.0108	0.008785	-0.014279	-0.681396	-0.106445	-0.383789
213.0	6.534669	3.142647	7.37521	-0.015662	0.009003	-0.014383	-0.681396	-0.106445	-0.38623
214.0	6.549129	3.170963	7.363995	-0.010796	0.007176	-0.014478	-0.683594	-0.106445	-0.383789
215.0	6.58231	3.172056	7.362108	-0.013178	0.012416	-0.016323	-0.679199	-0.104248	-0.383789
216.0	6.54979	3.139057	7.393569	-0.013698	0.010649	-0.015098	-0.68335	-0.108643	-0.383789
217.0	6.545055	3.194836	7.37336	-0.013179	0.012418	-0.016323	-0.685791	-0.104248	-0.381592
218.0	6.544034	3.147499	7.362605	-0.012784	0.01198	-0.012962	-0.681152	-0.108643	-0.390625
219.0	6.526894	3.166512	7.387839	-0.011728	0.010685	-0.016013	-0.681152	-0.108643	-0.388428
220.0	6.541158	3.171382	7.370895	-0.01174	0.013909	-0.015612	-0.68335	-0.108643	-0.385986
221.0	6.539775	3.19507	7.377941	-0.011846	0.006866	-0.011628	-0.678955	-0.11084	-0.390625
222.0	6.523066	3.190397	7.396952	-0.011722	0.009076	-0.016214	-0.681396	-0.106445	-0.388428
223.0	6.537745	3.171642	7.373811	-0.009364	0.010282	-0.013566	-0.683594	-0.102051	-0.390869
224.0	6.555693	3.120875	7.37796	-0.008832	0.00883	-0.015193	-0.683594	-0.102051	-0.384033
225.0	6.516711	3.175885	7.360401	-0.009364	0.010283	-0.013566	-0.683594	-0.104248	-0.388428
226.0	6.568598	3.173467	7.373736	-0.008839	0.010442	-0.014991	-0.685547	-0.11084	-0.383789
227.0	6.517223	3.168028	7.395722	-0.008846	0.012055	-0.01479	-0.689941	-0.106445	-0.383789
228.0	6.550399	3.169321	7.393824	-0.011716	0.007469	-0.016415	-0.683594	-0.106445	-0.390625
229.0	6.54609	3.178121	7.361466	-0.011599	0.011294	-0.020798	-0.685791	-0.104248	-0.38623
230.0	6.547984	3.146331	7.38986	-0.010812	0.010411	-0.014076	-0.677002	-0.106445	-0.38623
231.0	6.543366	3.178717	7.36363	-0.00833	0.013829	-0.016012	-0.683594	-0.106445	-0.388428
232.0	6.544984	3.170611	7.398064	-0.010286	0.010571	-0.015502	-0.681641	-0.102051	-0.38623
233.0	6.559179	3.199181	7.387043	-0.012258	0.010537	-0.014588	-0.685547	-0.108643	-0.383789
234.0	6.542609	3.147277	7.394216	-0.008857	0.013673	-0.014586	-0.683594	-0.106445	-0.383789
235.0	6.538056	3.179575	7.367975	-0.01225	0.008927	-0.01479	-0.678955	-0.108643	-0.392822
236.0	6.555482	3.176141	7.38425	-0.005967	0.013427	-0.013563	-0.677002	-0.104248	-0.383789
237.0	6.519769	3.175339	7.388122	-0.010813	0.010416	-0.014077	-0.677246	-0.102051	-0.388428
238.0	6.515535	3.18389	7.355836	-0.009903	0.011744	-0.011938	-0.683594	-0.106445	-0.388428
239.0	6.535887	3.171943	7.405533	-0.007414	0.013553	-0.014073	-0.681396	-0.104248	-0.38623
240.0	6.531805	3.156971	7.367262	-0.009903	0.011745	-0.011938	-0.676758	-0.11084	-0.385986
241.0	6.530522	3.15705	7.368365	-0.010823	0.01203	-0.013875	-0.681396	-0.106445	-0.383789
242.0	6.57902	3.186718	7.354664	-0.008468	0.013235	-0.011224	-0.678955	-0.11084	-0.385986
243.0	6.527633	3.18089	7.376643	-0.009904	0.011747	-0.011938	-0.683594	-0.106445	-0.383789
244.0	6.529443	3.172497	7.410978	-0.010804	0.008809	-0.01428	-0.678955	-0.108643	-0.381592
245.0	6.556979	3.167035	7.336471	-0.009905	0.011748	-0.011938	-0.681396	-0.106445	-0.381592
246.0	6.542985	3.153717	7.389002	-0.012796	0.011996	-0.012962	-0.681396	-0.106445	-0.383789
247.0	6.557355	3.158464	7.372159	-0.01136	0.013485	-0.012247	-0.68335	-0.108643	-0.392822
248.0	6.540404	3.153558	7.391354	-0.011868	0.010101	-0.011229	-0.683594	-0.104248	-0.383789
249.0	6.520604	3.157198	7.377081	-0.009896	0.01014	-0.01214	-0.679199	-0.106445	-0.383789
250.0	6.572554	3.154588	7.39062	-0.013314	0.010226	-0.011741	-0.681641	-0.099854	-0.38623
251.0	6.53674	3.177047	7.400458	-0.010805	0.008815	-0.01428	-0.683594	-0.106445	-0.383789
252.0	6.536193	3.153357	7.395163	-0.010002	0.004697	-0.007965	-0.678955	-0.11084	-0.385986
253.0	6.55408	3.149645	7.411163	-0.010795	0.007205	-0.014483	-0.687988	-0.106445	-0.390625
254.0	6.534178	3.177056	7.402715	-0.008958	0.006634	-0.01061	-0.674805	-0.104248	-0.388428
255.0	6.531062	3.138428	7.357876	-0.006976	0.005062	-0.011725	-0.681396	-0.106445	-0.38623
256.0	6.548405	3.182264	7.385835	-0.00841	0.003573	-0.012441	-0.679199	-0.106445	-0.388428
257.0	6.545022	3.167399	7.346983	-0.007894	0.005348	-0.013661	-0.678955	-0.11084	-0.388428
258.0	6.547172	3.159083	7.380939	-0.009867	0.005309	-0.01275	-0.679199	-0.106445	-0.383789
259.0	6.546406	3.159123	7.381601	-0.010394	0.005147	-0.011326	-0.68335	-0.108643	-0.381592
260.0	6.564374	3.155499	7.397498	-0.009856	0.003699	-0.012954	-0.685791	-0.106445	-0.38623
261.0	6.541927	3.167915	7.349516	-0.007906	0.006963	-0.013457	-0.681396	-0.106445	-0.390625
262.0	6.559907	3.164332	7.365388	-0.010899	0.001761	-0.010311	-0.68335	-0.108643	-0.385986
263.0	6.528258	3.130841	7.395902	-0.011829	0.00366	-0.012043	-0.68335	-0.108643	-0.399658
264.0	6.539914	3.167801	7.351357	-0.011852	0.006884	-0.011634	-0.683594	-0.106445	-0.381592
265.0	6.541967	3.159207	7.3855	-0.011325	0.007048	-0.013058	-0.681396	-0.104248	-0.38623
266.0	6.576272	3.113116	7.371283	-0.009478	0.004863	-0.009389	-0.68335	-0.11084	-0.37915
267.0	6.483219	3.241006	7.359445	-0.012783	0.008784	-0.013366	-0.679443	-0.102051	-0.381592
268.0	6.558368	3.13156	7.397165	-0.01292	0.00817	-0.008582	-0.681396	-0.104248	-0.383789
269.0	6.554281	3.163483	7.370759	-0.010923	0.004988	-0.009902	-0.681396	-0.106445	-0.388428
270.0	6.521958	3.15357	7.40763	-0.012784	0.008787	-0.013365	-0.685791	-0.104248	-0.383789
271.0	6.552376	3.163276	7.372542	-0.011866	0.0085	-0.011429	-0.681152	-0.108643	-0.385986
272.0	6.53613	3.134586	7.3853	-0.010936	0.006601	-0.009697	-0.685791	-0.102051	-0.381592
273.0	6.553924	3.130805	7.401422	-0.010421	0.008378	-0.010915	-0.685791	-0.102051	-0.388428
274.0	6.565395	3.16809	7.356977	-0.006462	0.006851	-0.012941	-0.679199	-0.106445	-0.38623
275.0	6.564736	3.144782	7.351643	-0.007933	0.010198	-0.013044	-0.679199	-0.104248	-0.388428
276.0	6.547534	3.163807	7.376614	-0.008826	0.007263	-0.015391	-0.681396	-0.106445	-0.383789
277.0	6.56171	3.192771	7.36559	-0.005974	0.011854	-0.013748	-0.687988	-0.106445	-0.38623
278.0	6.545216	3.140979	7.372549	-0.009822	0.017224	-0.016095	-0.683594	-0.106445	-0.383789
279.0	6.57479	3.174702	7.343901	-0.008475	0.011647	-0.011415	-0.685547	-0.108643	-0.390625
280.0	6.542045	3.165087	7.380934	-0.00742	0.011979	-0.014261	-0.683594	-0.106445	-0.390625
281.0	6.525336	3.136794	7.393902	-0.009407	0.013549	-0.013146	-0.679199	-0.104248	-0.379395
282.0	6.558038	3.161925	7.3984	-0.007935	0.010203	-0.013043	-0.683594	-0.102051	-0.38623
283.0	6.553907	3.170823	7.366036	-0.006503	0.011693	-0.012324	-0.678955	-0.108643	-0.388428
284.0	6.552812	3.170998	7.366935	-0.008977	0.008259	-0.010403	-0.687988	-0.106445	-0.383789
285.0	6.554788	3.162552	7.401012	-0.007907	0.00698	-0.013455	-0.685791	-0.106445	-0.388428
286.0	6.567112	3.152548	7.344366	-0.010952	0.008216	-0.009494	-0.68335	-0.108643	-0.383789
287.0	6.550297	3.147523	7.36334	-0.009924	0.011774	-0.011928	-0.683594	-0.106445	-0.388428
288.0	6.56768	3.14399	7.379743	-0.009395	0.011941	-0.013351	-0.677002	-0.104248	-0.388428
289.0	6.534425	3.157785	7.422994	-0.009939	0.013388	-0.011721	-0.685791	-0.102051	-0.381592
290.0	6.530498	3.142833	7.384801	-0.01087	0.01529	-0.013452	-0.685791	-0.106445	-0.388428
291.0	6.562846	3.167852	7.389702	-0.008538	0.018103	-0.010587	-0.681641	-0.097656	-0.38623
292.0	6.543054	3.148022	7.369563	-0.00798	0.015047	-0.012423	-0.685791	-0.106445	-0.390625
293.0	6.557398	3.153032	7.352834	-0.011913	0.013346	-0.010813	-0.683594	-0.104248	-0.38623
294.0	6.524303	3.143066	7.390174	-0.008026	0.019886	-0.011802	-0.685791	-0.104248	-0.38623
295.0	6.55713	3.14459	7.388863	-0.007049	0.013148	-0.010692	-0.687988	-0.106445	-0.390625
296.0	6.537114	3.148508	7.374626	-0.007436	0.013606	-0.014052	-0.681396	-0.106445	-0.38623
297.0	6.52003	3.143793	7.393636	-0.007034	0.011536	-0.010899	-0.683594	-0.104248	-0.38623
298.0	6.566186	3.15899	7.340681	-0.007019	0.009925	-0.011106	-0.683594	-0.104248	-0.38623
299.0	6.55222	3.145735	7.39273	-0.0045	0.008526	-0.013642	-0.68335	-0.108643	-0.381592
300.0	6.548242	3.154654	7.360294	-0.00901	0.011492	-0.009991	-0.679199	-0.106445	-0.38623
301.0	6.533554	3.164936	7.418746	-0.004018	0.013533	-0.014443	-0.686035	-0.099854	-0.381592
302.0	6.599197	3.129428	7.368873	-0.008994	0.00988	-0.010199	-0.683594	-0.104248	-0.383789
303.0	6.544466	3.155424	7.363321	-0.007968	0.013442	-0.012629	-0.687988	-0.106445	-0.381592
304.0	6.545935	3.146873	7.397811	-0.011388	0.013519	-0.012238	-0.681396	-0.104248	-0.38623
305.0	6.544031	3.170511	7.405231	-0.010859	0.013688	-0.01366	-0.681396	-0.106445	-0.388428
306.0	6.540754	3.131968	7.360808	-0.011389	0.01352	-0.012237	-0.681152	-0.11084	-0.381592
307.0	6.538865	3.155506	7.368261	-0.012834	0.013643	-0.012753	-0.681641	-0.102051	-0.38623
308.0	6.5719	3.156908	7.366906	-0.010843	0.012079	-0.013867	-0.679199	-0.104248	-0.388428
309.0	6.536211	3.155581	7.370583	-0.009928	0.011788	-0.011929	-0.687988	-0.104248	-0.393066
310.0	6.534456	3.179239	7.377859	-0.009928	0.011789	-0.011929	-0.683594	-0.106445	-0.388428
311.0	6.534276	3.132038	7.366529	-0.011356	0.010299	-0.012653	-0.681396	-0.104248	-0.38623
312.0	6.548433	3.160658	7.355806	-0.010441	0.010008	-0.010715	-0.681396	-0.106445	-0.383789
313.0	6.566548	3.133363	7.365912	-0.010424	0.008396	-0.010923	-0.683594	-0.106445	-0.38623
314.0	6.565024	3.15695	7.373016	-0.011339	0.008688	-0.012861	-0.681641	-0.102051	-0.388428
315.0	6.532427	3.146767	7.409787	-0.01187	0.008519	-0.011439	-0.68335	-0.108643	-0.390625
316.0	6.563459	3.133219	7.368727	-0.009015	0.011501	-0.009989	-0.683594	-0.102051	-0.379395
317.0	6.561786	3.156715	7.375998	-0.015675	0.009056	-0.01441	-0.685791	-0.106445	-0.388428
318.0	6.579958	3.129397	7.38607	-0.008962	0.006665	-0.010615	-0.683594	-0.102051	-0.381592
319.0	6.541153	3.160258	7.362452	-0.011376	0.011917	-0.012443	-0.681396	-0.104248	-0.381592
320.0	6.559174	3.132956	7.372652	-0.011871	0.008522	-0.011439	-0.686035	-0.099854	-0.384033
321.0	6.542347	3.127914	7.391459	-0.009365	0.008742	-0.013765	-0.690186	-0.104248	-0.38623
322.0	6.557027	3.133102	7.374501	-0.011359	0.010307	-0.012652	-0.681396	-0.104248	-0.388428
323.0	6.553032	3.141874	7.342242	-0.008488	0.011677	-0.011409	-0.685791	-0.106445	-0.383789
324.0	6.519776	3.155282	7.385253	-0.011871	0.008524	-0.01144	-0.681396	-0.104248	-0.388428
325.0	6.571703	3.153207	7.399058	-0.007939	0.010237	-0.013039	-0.679199	-0.106445	-0.388428
326.0	6.53387	3.137044	7.363019	-0.010829	0.010481	-0.014073	-0.681152	-0.108643	-0.388428
327.0	6.585163	3.158538	7.383149	-0.010446	0.010017	-0.010713	-0.685791	-0.102051	-0.38623
328.0	6.546745	3.165761	7.353452	-0.009954	0.013415	-0.011716	-0.681641	-0.102051	-0.384033
329.0	6.566875	3.153422	7.403253	-0.009021	0.011509	-0.009987	-0.681641	-0.102051	-0.388428
330.0	6.562877	3.162176	7.37103	-0.009935	0.011803	-0.011925	-0.683594	-0.104248	-0.390625
331.0	6.56228	3.138675	7.365796	-0.008471	0.010069	-0.011617	-0.683594	-0.104248	-0.38623
332.0	6.561049	3.138762	7.366855	-0.009955	0.013417	-0.011715	-0.685791	-0.102051	-0.384033
333.0	6.578366	3.135262	7.383346	-0.007046	0.011562	-0.01089	-0.685791	-0.102051	-0.388428
334.0	6.523526	3.16128	7.377637	-0.005983	0.011908	-0.013732	-0.679443	-0.102051	-0.384033
335.0	6.557274	3.139533	7.369887	-0.009385	0.010366	-0.013556	-0.687988	-0.104248	-0.390625
336.0	6.55551	3.163395	7.377061	-0.006495	0.010123	-0.012521	-0.687988	-0.102051	-0.388428
337.0	6.554269	3.163758	7.378007	-0.007429	0.012031	-0.014249	-0.679199	-0.104248	-0.390625
338.0	6.572209	3.136886	7.388138	-0.007941	0.010246	-0.013038	-0.683838	-0.099854	-0.381592
339.0	6.533804	3.144327	7.35831	-0.009406	0.011981	-0.013346	-0.679199	-0.106445	-0.381592
340.0	6.58486	3.165997	7.378649	-0.006176	0.014498	-0.00853	-0.683594	-0.102051	-0.38623
341.0	6.56823	3.137559	7.39139	-0.006919	0.013821	-0.015459	-0.679199	-0.106445	-0.38623
342.0	6.529606	3.145101	7.361705	-0.00709	0.014794	-0.010468	-0.683594	-0.104248	-0.388428
343.0	6.562051	3.170491	7.366616	-0.006517	0.011741	-0.01231	-0.683594	-0.102051	-0.388428
344.0	6.580575	3.120033	7.370542	-0.006538	0.013355	-0.012099	-0.683594	-0.106445	-0.38623
345.0	6.562847	3.138744	7.395667	-0.005604	0.011448	-0.010371	-0.681641	-0.102051	-0.38623
346.0	6.524485	3.146239	7.365758	-0.006517	0.011743	-0.01231	-0.681396	-0.104248	-0.38623
347.0	6.559668	3.163048	7.403885	-0.006898	0.012213	-0.015669	-0.685791	-0.106445	-0.388428
348.0	6.556284	3.148766	7.36525	-0.002183	0.011382	-0.010753	-0.681641	-0.099854	-0.38623
349.0	6.539723	3.120729	7.377734	-0.002966	0.013934	-0.017262	-0.690186	-0.104248	-0.388428
350.0	6.572121	3.146529	7.38254	-0.004161	0.011329	-0.009852	-0.681641	-0.099854	-0.393066
351.0	6.552952	3.127	7.361747	-0.005454	0.012094	-0.015151	-0.683838	-0.099854	-0.384033
352.0	6.569422	3.147542	7.38451	-0.004586	0.015027	-0.01279	-0.683838	-0.099854	-0.390869
353.0	6.568618	3.124431	7.37934	-0.006009	0.013535	-0.01352	-0.683594	-0.104248	-0.388428
354.0	6.550567	3.143388	7.404576	-0.002632	0.016696	-0.013479	-0.683594	-0.106445	-0.388428
355.0	6.528421	3.132731	7.350695	-0.003675	0.014734	-0.01085	-0.685791	-0.102051	-0.388428
356.0	6.531783	3.139301	7.424528	-0.004009	0.011977	-0.014632	-0.681396	-0.106445	-0.383789
357.0	6.562118	3.150467	7.389755	-0.002032	0.012032	-0.015532	-0.687988	-0.106445	-0.388428
358.0	6.542894	3.131403	7.368819	0.000857	0.011792	-0.014493	-0.679199	-0.104248	-0.383789
359.0	6.57545	3.157339	7.373462	-0.005029	0.008401	-0.012214	-0.683594	-0.106445	-0.399902
360.0	6.539219	3.179804	7.382887	-0.005431	0.010486	-0.015363	-0.679199	-0.104248	-0.388428
361.0	6.574434	3.111405	7.362521	-0.001121	0.01174	-0.013592	-0.685791	-0.102051	-0.38623
362.0	6.538143	3.133991	7.371935	-0.005941	0.008698	-0.014154	-0.679199	-0.104248	-0.38623
363.0	6.55207	3.16333	7.361262	-0.005456	0.012101	-0.015151	-0.685791	-0.106445	-0.38623
364.0	6.553388	3.155132	7.395511	-0.003124	0.0133	-0.01248	-0.683594	-0.106445	-0.379395
365.0	6.568339	3.137123	7.372706	-0.011863	0.018862	-0.014967	-0.677002	-0.104248	-0.395264
366.0	6.531589	3.159208	7.382699	-0.007991	0.013486	-0.012621	-0.681396	-0.106445	-0.388428
367.0	6.565082	3.137607	7.3754	-0.00611	0.019999	-0.012674	-0.679199	-0.106445	-0.383789
368.0	6.563227	3.137888	7.376931	-0.01042	0.018745	-0.014447	-0.685791	-0.106445	-0.38623
369.0	6.526278	3.160035	7.387041	-0.007531	0.018507	-0.013405	-0.679199	-0.104248	-0.38623
370.0	6.543066	3.156767	7.403947	-0.008951	0.017014	-0.014138	-0.686035	-0.099854	-0.388428
371.0	6.558144	3.138585	7.381155	-0.00997	0.013434	-0.011722	-0.687988	-0.102051	-0.390869
372.0	6.538307	3.142321	7.366746	-0.008853	0.01056	-0.014985	-0.685791	-0.104248	-0.393066
373.0	6.536321	3.166398	7.373932	-0.003986	0.010378	-0.014841	-0.683594	-0.106445	-0.388428
374.0	6.554511	3.139759	7.383882	-0.007892	0.007036	-0.013468	-0.679443	-0.102051	-0.384033
375.0	6.552633	3.163573	7.391081	-0.009413	0.011998	-0.013353	-0.683594	-0.106445	-0.388428
376.0	6.552207	3.14023	7.385726	-0.007918	0.008651	-0.013256	-0.677002	-0.104248	-0.383789
377.0	6.566935	3.145806	7.368841	-0.008854	0.010563	-0.014984	-0.687988	-0.106445	-0.388428
378.0	6.566507	3.122573	7.36345	-0.008829	0.008949	-0.015197	-0.681152	-0.108643	-0.388428
379.0	6.52934	3.16839	7.379259	-0.00832	0.010742	-0.016403	-0.685791	-0.106445	-0.383789
380.0	6.563258	3.146705	7.371733	-0.011928	0.011766	-0.011036	-0.685791	-0.104248	-0.38623
381.0	6.543584	3.150416	7.357181	-0.00594	0.008713	-0.014153	-0.683838	-0.099854	-0.38623
382.0	6.578621	3.167303	7.395429	-0.008882	0.012181	-0.014772	-0.681396	-0.106445	-0.38623
383.0	6.560331	3.124095	7.368308	-0.008321	0.010745	-0.016403	-0.68335	-0.108643	-0.388428
384.0	6.523106	3.16998	7.384088	-0.00685	0.009013	-0.016094	-0.681641	-0.102051	-0.38623
385.0	6.576434	3.12158	7.385536	-0.008295	0.009133	-0.016616	-0.681396	-0.106445	-0.390625
386.0	6.540131	3.143834	7.39489	-0.007359	0.007222	-0.014888	-0.683594	-0.106445	-0.383789
387.0	6.554273	3.173147	7.384108	-0.007332	0.005608	-0.0151	-0.681396	-0.106445	-0.388428
388.0	6.554878	3.126586	7.372104	-0.003963	0.008778	-0.015049	-0.683594	-0.106445	-0.38623
389.0	6.552056	3.174331	7.385567	-0.006879	0.010631	-0.01588	-0.679199	-0.104248	-0.388428
390.0	6.567671	3.156573	7.362243	-0.005005	0.006808	-0.012425	-0.683594	-0.104248	-0.38623
391.0	6.551495	3.128142	7.37445	-0.008324	0.010751	-0.016402	-0.685791	-0.102051	-0.393066
392.0	6.586433	3.145088	7.412766	-0.007415	0.010454	-0.014462	-0.685791	-0.104248	-0.38623
393.0	6.545507	3.161381	7.349426	-0.007443	0.012069	-0.014248	-0.685791	-0.102051	-0.388428
394.0	6.544097	3.16186	7.350475	-0.005492	0.013745	-0.014931	-0.683594	-0.106445	-0.38623
395.0	6.529411	3.148183	7.40251	-0.005999	0.011952	-0.013726	-0.686035	-0.099854	-0.381592
396.0	6.544597	3.130487	7.379578	-0.008784	0.016075	-0.019122	-0.685791	-0.104248	-0.383789
397.0	6.577359	3.132867	7.378599	-0.006937	0.013866	-0.015453	-0.681152	-0.11084	-0.392822
398.0	6.523556	3.111424	7.360288	-0.010821	0.019245	-0.0178	-0.685791	-0.104248	-0.383789
399.0	6.558389	3.104946	7.393055	-0.009274	0.023016	-0.021628	-0.679199	-0.106445	-0.38623
400.0	6.588506	3.093026	7.353146	-0.012374	0.024393	-0.030811	-0.685791	-0.102051	-0.388428
401.0	6.595174	3.020617	7.442227	-0.013093	0.02374	-0.037743	-0.683594	-0.104248	-0.393066
402.0	6.63689	3.17127	7.462539	-0.007455	0.029917	-0.047923	-0.681396	-0.106445	-0.38623
403.0	6.577804	3.284923	7.516612	-0.006523	0.036933	-0.063031	-0.681152	-0.11084	-0.385986
404.0	6.629668	3.145173	7.49626	-0.028227	0.078305	-0.071948	-0.68335	-0.108643	-0.385986
405.0	6.581507	3.138491	7.433538	-0.072612	0.117664	-0.073195	-0.679199	-0.104248	-0.395264
406.0	6.577533	3.268684	7.426489	-0.106448	0.159646	-0.071763	-0.677002	-0.106445	-0.393066
407.0	6.500565	3.096284	7.400551	-0.112989	0.186996	-0.065419	-0.681152	-0.108643	-0.388428
408.0	6.510804	3.182237	7.367703	-0.125022	0.200294	-0.063122	-0.674805	-0.106445	-0.393066
409.0	6.435568	3.037357	7.422147	-0.120702	0.189674	-0.058058	-0.677002	-0.104248	-0.399902
410.0	6.465499	3.119792	7.40408	-0.10963	0.168111	-0.058597	-0.674805	-0.104248	-0.397705
411.0	6.490563	3.099508	7.48259	-0.105038	0.154897	-0.058753	-0.679443	-0.102051	-0.404541
412.0	6.459088	3.098613	7.480045	-0.109152	0.150906	-0.052651	-0.679199	-0.104248	-0.399902
413.0	6.409176	3.12472	7.467364	-0.100961	0.131154	-0.054048	-0.677246	-0.102051	-0.4021
414.0	6.384456	3.105981	7.528712	-0.09381	0.109384	-0.052847	-0.679199	-0.104248	-0.395264
415.0	6.460077	3.112756	7.517569	-0.083764	0.096148	-0.054243	-0.677002	-0.106445	-0.4021
416.0	6.450029	3.133049	7.533092	-0.090291	0.095771	-0.050198	-0.675049	-0.102051	-0.393066
417.0	6.43501	3.194773	7.488867	-0.093267	0.09049	-0.047169	-0.674805	-0.104248	-0.4021
418.0	6.428959	3.181287	7.530728	-0.093949	0.086389	-0.041435	-0.675049	-0.102051	-0.4021
419.0	6.43865	3.158871	7.515407	-0.099082	0.087501	-0.036637	-0.670654	-0.099854	-0.404541
420.0	6.378199	3.192449	7.555867	-0.098154	0.076794	-0.031276	-0.681396	-0.106445	-0.4021
421.0	6.357643	3.12028	7.527319	-0.090568	0.065276	-0.021819	-0.670654	-0.102051	-0.406738
422.0	6.352616	3.114935	7.533774	-0.085565	0.051464	-0.018668	-0.672852	-0.099854	-0.397705
423.0	6.349836	3.086871	7.53236	-0.069247	0.041145	-0.018881	-0.668457	-0.099854	-0.406738
424.0	6.345335	3.106415	7.543421	-0.06373	0.029135	-0.016919	-0.668701	-0.097656	-0.40918
425.0	6.359293	3.108961	7.529539	-0.050543	0.019947	-0.013215	-0.672607	-0.104248	-0.406738
426.0	6.326459	3.070778	7.559706	-0.047146	0.012709	-0.009698	-0.67041	-0.104248	-0.404541
427.0	6.376198	3.076412	7.543086	-0.036331	0.005578	-0.008255	-0.668457	-0.102051	-0.406738
428.0	6.326183	3.04271	7.556108	-0.030567	0.00509	-0.006097	-0.670898	-0.097656	-0.402344
429.0	6.360237	3.043194	7.55588	-0.027552	-1.2e-05	-0.005712	-0.677246	-0.097656	-0.40918
430.0	6.372553	3.117466	7.559951	-0.027721	-0.002355	-0.001176	-0.670898	-0.097656	-0.402344
431.0	6.340783	3.06646	7.548306	-0.024376	0.00084	-0.001043	-0.672852	-0.099854	-0.399902
432.0	6.30178	3.118515	7.531037	-0.027517	0.001979	0.002877	-0.672852	-0.099854	-0.399902
433.0	6.336823	3.132286	7.570645	-0.024847	0.001006	0.008722	-0.673096	-0.095459	-0.402344
434.0	6.303996	3.103958	7.565903	-0.026502	0.000403	0.012949	-0.670898	-0.097656	-0.404541
435.0	6.192705	3.220751	7.57177	-0.022481	0.002543	0.019798	-0.670898	-0.095459	-0.406982
436.0	6.268285	3.105835	7.535816	-0.007782	0.011222	0.025177	-0.668701	-0.097656	-0.404541
437.0	6.318852	3.112416	7.518175	0.006756	0.013949	0.026269	-0.673096	-0.097656	-0.404541
438.0	6.283057	3.145998	7.567335	0.009028	0.027548	0.034207	-0.673096	-0.097656	-0.402344
439.0	6.292746	3.230211	7.539033	0.017664	0.03041	0.046267	-0.675049	-0.102051	-0.411377
440.0	6.347288	3.180153	7.541275	0.022397	0.029884	0.059601	-0.672852	-0.102051	-0.406738
441.0	6.369462	3.117951	7.577749	0.030181	0.031458	0.069482	-0.675293	-0.097656	-0.40918
442.0	6.354902	3.100332	7.628925	0.038048	0.029798	0.0789	-0.668945	-0.093262	-0.404541
443.0	6.318956	3.142784	7.643899	0.043741	0.013287	0.088513	-0.670898	-0.095459	-0.397705
444.0	6.335201	2.985286	7.740578	0.058175	-0.017653	0.10429	-0.668701	-0.095459	-0.406982
445.0	6.28879	3.073932	7.854316	0.084894	-0.071549	0.116404	-0.670898	-0.097656	-0.40918
446.0	6.273254	3.043046	7.944277	0.114624	-0.172253	0.142474	-0.668945	-0.093262	-0.400146
447.0	6.187796	2.999258	8.151673	0.166234	-0.315379	0.172357	-0.679443	-0.097656	-0.393066
448.0	6.087311	3.520758	8.329219	0.21388	-0.526837	0.231919	-0.677246	-0.097656	-0.390869
449.0	5.85625	4.207097	8.600294	0.239473	-0.813313	0.341495	-0.686279	-0.093262	-0.386475
450.0	5.516215	4.149294	8.853043	0.287442	-1.205198	0.550096	-0.690918	-0.089111	-0.381836
451.0	6.047693	4.151053	8.92722	0.393885	-1.65671	0.866243	-0.69751	-0.084717	-0.372803
452.0	7.251811	5.17237	9.053621	0.548758	-1.933153	1.340903	-0.700195	-0.073975	-0.352539
453.0	6.434994	7.131517	8.920525	0.466708	-2.18562	1.783238	-0.713623	-0.06958	-0.334473
454.0	7.374228	5.786657	9.078391	0.390496	-2.415989	2.176809	-0.7229	-0.052246	-0.321045
455.0	8.237296	6.392789	8.943394	0.295379	-2.499715	2.543211	-0.728027	-0.039307	-0.307617
456.0	8.986563	6.519863	8.546221	0.179348	-2.526763	2.866052	-0.731201	-0.015381	-0.287598
457.0	9.913184	6.630677	8.454448	0.186681	-2.441842	3.116739	-0.73877	0.006348	-0.278809
458.0	9.920358	6.829234	8.003963	0.257238	-2.287242	3.271162	-0.737305	0.023926	-0.267822
459.0	10.663944	8.039018	9.732118	0.066239	-2.156527	3.351311	-0.736328	0.050049	-0.250244
460.0	8.416465	6.969168	10.845837	-0.255361	-1.709933	3.363969	-0.734863	0.067383	-0.239014
461.0	3.673181	7.540698	11.298159	-0.389538	-1.387709	3.166861	-0.729248	0.087158	-0.234863
462.0	1.235351	8.053672	11.31572	-0.411981	-1.211895	2.737237	-0.717041	0.104736	-0.235352
463.0	-1.052633	9.177453	10.900666	-0.164959	-0.976012	1.970737	-0.712646	0.109131	-0.235352
464.0	-2.408913	10.516293	10.879195	0.333201	-0.751266	1.052056	-0.70166	0.106934	-0.23999
465.0	-0.556386	10.268173	12.15403	0.800221	-0.206665	0.015004	-0.69458	0.093994	-0.246582
466.0	-2.587603	10.765843	11.963977	0.982383	0.201887	-0.794765	-0.678955	0.083008	-0.255371
467.0	-3.288442	9.697525	11.760613	1.001562	0.427801	-1.324326	-0.662598	0.061523	-0.277832
468.0	-2.666182	8.407099	12.063774	0.95287	0.529425	-1.713066	-0.635254	0.033203	-0.288574
469.0	-1.256877	6.68763	12.555108	0.984736	0.671013	-2.048855	-0.608154	0.011719	-0.308838
470.0	0.550391	5.841228	13.209119	1.075543	0.931275	-2.336013	-0.582764	-0.016602	-0.31958
471.0	2.179833	5.408099	13.606844	1.075882	1.254128	-2.524257	-0.540527	-0.033691	-0.344482
472.0	3.560056	4.797284	13.566683	0.983903	1.586789	-2.592922	-0.494141	-0.050781	-0.348633
473.0	4.721096	3.915861	13.003173	0.882031	1.871075	-2.586006	-0.445801	-0.059082	-0.364502
474.0	5.628488	3.162587	12.039938	0.838826	2.043294	-2.528857	-0.391113	-0.063232	-0.362305
475.0	6.318665	2.829043	10.871237	0.862788	2.043629	-2.446777	-0.34082	-0.062744	-0.366943
476.0	7.164511	3.103164	9.912165	0.913749	1.889843	-2.355165	-0.287109	-0.047363	-0.353516
477.0	8.522276	3.884085	9.10069	0.937979	1.727081	-2.277839	-0.233154	-0.031738	-0.344727
478.0	9.740263	5.041312	8.315003	0.854394	1.602529	-2.197552	-0.193115	-0.003174	-0.322754
479.0	10.523282	5.918611	7.408538	0.671564	1.49653	-2.080096	-0.157959	0.040771	-0.296143
480.0	10.908119	6.110643	6.378194	0.502002	1.371861	-1.941426	-0.131592	0.08667	-0.271973
481.0	11.398423	5.718153	5.633542	0.44582	1.249422	-1.828994	-0.122803	0.132568	-0.245605
482.0	11.829078	5.100031	5.005376	0.527287	1.188667	-1.800861	-0.122803	0.182617	-0.210205
483.0	12.079748	4.195989	4.704156	0.710755	1.143521	-1.880845	-0.148682	0.22168	-0.192627
484.0	12.340293	3.411513	4.754817	0.896094	1.136894	-2.011299	-0.171875	0.256348	-0.168213
485.0	12.744871	2.994968	4.771814	1.031134	1.13142	-2.135843	-0.203613	0.284424	-0.155029
486.0	12.964892	2.399402	4.787453	1.048216	1.124038	-2.197681	-0.241455	0.299561	-0.144043
487.0	13.219696	1.691634	4.472703	0.942178	1.12465	-2.212321	-0.279053	0.312256	-0.139648
488.0	13.307275	1.459819	3.86691	0.67632	1.129352	-2.155839	-0.321045	0.322998	-0.14209
489.0	13.396642	1.376924	3.039103	0.23936	1.107197	-2.015531	-0.344727	0.314209	-0.137207
490.0	13.247588	1.196741	1.942635	-0.277592	1.074208	-1.822462	-0.379639	0.316162	-0.146484
491.0	12.796446	0.849975	0.609725	-0.786397	0.972358	-1.604026	-0.405273	0.304932	-0.148438
492.0	12.326857	-0.062813	-0.64275	-1.118536	0.808784	-1.401369	-0.429199	0.304932	-0.150635
493.0	11.800054	-0.957275	-1.513635	-1.198896	0.604752	-1.238886	-0.450684	0.296143	-0.155029
494.0	11.198258	-1.831444	-2.180617	-1.045364	0.327852	-1.085659	-0.470215	0.293701	-0.145752
495.0	10.690919	-2.544444	-2.432926	-0.727639	-0.00726	-0.911675	-0.487549	0.291504	-0.150391
496.0	10.823844	-2.671035	-2.137205	-0.388749	-0.329315	-0.696841	-0.504639	0.282471	-0.147949
497.0	11.373093	-2.232704	-1.616324	-0.153893	-0.584397	-0.452799	-0.512939	0.275879	-0.152344
498.0	12.057717	-1.899074	-0.971086	-0.035955	-0.749435	-0.218921	-0.526611	0.284668	-0.150146
499.0	12.742022	-1.502881	-0.496001	-0.039681	-0.820101	0.022626	-0.533203	0.288818	-0.141113
500.0	12.981778	3.026684	1.863	-1.042452	-1.116126	0.745597	-0.54248	0.299805	-0.134521
501.0	12.061243	0.484078	0.747221	-2.563104	-1.754854	2.103722	-0.545654	0.32373	-0.121338
502.0	-1.281242	5.367978	11.931522	-2.368406	-2.236427	2.461414	-0.540039	0.341064	-0.103516
503.0	2.856673	10.438313	16.874269	-1.665731	-2.267121	3.332264	-0.541016	0.367432	-0.090332
504.0	15.071719	-0.796178	9.160885	-1.02309	-1.981603	3.352431	-0.540039	0.393555	-0.07251
505.0	18.551805	-1.490532	5.610308	-1.144318	-1.19935	2.608751	-0.536377	0.406494	-0.065918
506.0	16.978708	2.227278	8.350068	-1.278848	-0.718321	1.536782	-0.541016	0.415283	-0.063721
507.0	12.863677	4.172607	10.515129	-1.234191	-0.230975	0.900671	-0.537109	0.421875	-0.059326
508.0	10.480195	1.144469	10.161149	-1.286377	0.237178	1.024244	-0.533203	0.432861	-0.057373
509.0	6.846485	1.367077	7.476681	-0.919741	0.42953	0.836329	-0.528809	0.435059	-0.055176
510.0	5.732827	4.898466	6.768722	-1.138561	0.154492	0.673984	-0.524658	0.439453	-0.052979
511.0	8.65073	1.555025	8.261719	-1.167264	0.098277	0.545214	-0.525146	0.447998	-0.053223
512.0	12.396981	-4.215439	8.132053	-0.362148	0.737372	0.269066	-0.522705	0.443848	-0.059814
513.0	5.67739	8.05253	6.90345	-0.348355	0.511594	-0.040244	-0.520752	0.447998	-0.057617
514.0	7.290388	0.942518	8.160047	-0.337058	0.297883	-0.022729	-0.522705	0.44165	-0.050781
515.0	6.770312	1.282796	8.0127	-0.173061	0.214369	-0.100282	-0.522705	0.445801	-0.057617
516.0	6.544302	1.199856	8.174935	-0.091036	0.060797	-0.210363	-0.520752	0.447998	-0.050781
517.0	6.753249	1.717806	7.898225	0.008364	-0.046981	-0.288485	-0.524902	0.44165	-0.057617
518.0	6.638328	2.938767	7.625942	0.053419	-0.123789	-0.321438	-0.533447	0.441406	-0.052979
519.0	6.518665	2.586187	7.744358	0.096315	-0.159117	-0.302407	-0.529297	0.443604	-0.050781
520.0	6.478068	2.900136	7.620551	0.139111	-0.15358	-0.280263	-0.535889	0.443604	-0.046143
521.0	6.614619	3.337284	7.465113	0.157979	-0.135127	-0.242095	-0.526855	0.439209	-0.043701
522.0	6.645193	3.712814	7.227672	0.148332	-0.106195	-0.193305	-0.529053	0.439209	-0.046143
523.0	6.645197	3.531866	7.211169	0.123789	-0.088323	-0.166759	-0.526855	0.437256	-0.04834
524.0	6.432918	3.322869	7.404201	0.119534	-0.071652	-0.145943	-0.531006	0.434814	-0.043701
525.0	6.358934	3.441564	7.466955	0.124892	-0.061571	-0.115961	-0.533203	0.437012	-0.050537
526.0	6.439891	3.222775	7.582953	0.130562	-0.065134	-0.083074	-0.53125	0.441406	-0.046143
527.0	6.425842	3.445445	7.293273	0.128195	-0.065468	-0.059299	-0.533447	0.439209	-0.046143
528.0	6.379273	3.57623	7.214876	0.128855	-0.049335	-0.025237	-0.533203	0.437012	-0.043701
529.0	6.412502	3.635857	7.219558	0.130031	-0.022219	0.012354	-0.5354	0.434814	-0.041504
530.0	6.489912	3.7209	7.140181	0.127193	0.006325	0.051931	-0.533447	0.439209	-0.046143
531.0	6.456619	3.722488	7.138733	0.131631	0.038337	0.089804	-0.535645	0.439209	-0.04834
532.0	6.441196	3.719208	7.154399	0.143207	0.062331	0.12581	-0.529053	0.441406	-0.046143
533.0	6.51724	3.684845	7.209118	0.148906	0.068473	0.150292	-0.53125	0.439209	-0.057373
534.0	6.427424	3.729519	7.209609	0.155495	0.079908	0.172613	-0.526855	0.441406	-0.050781
535.0	6.572425	3.472066	7.254243	0.141937	0.105976	0.18789	-0.531006	0.435059	-0.055176
536.0	6.576212	3.789466	7.201368	0.106078	0.131452	0.188045	-0.529297	0.443604	-0.050781
537.0	6.491384	3.386035	7.33713	0.072351	0.112028	0.202072	-0.527344	0.447998	-0.057617
538.0	6.843021	2.840606	7.350249	0.070511	0.120193	0.181167	-0.529297	0.445801	-0.057617
539.0	6.565763	3.039299	7.376685	0.05189	0.088313	0.154594	-0.522705	0.44165	-0.059814
540.0	6.590571	2.805856	7.5676	0.048818	0.059359	0.139308	-0.520752	0.450195	-0.05542
541.0	6.743986	3.013954	7.473084	0.040075	0.02946	0.108551	-0.529297	0.443604	-0.057617
542.0	6.55349	3.047331	7.478005	0.033004	-0.008742	0.111846	-0.522949	0.447998	-0.060059
543.0	6.638421	3.146763	7.480316	0.024611	-0.044522	0.110056	-0.525391	0.452393	-0.062256
544.0	6.682517	3.120102	7.46707	0.023583	-0.087315	0.110072	-0.518555	0.450439	-0.062256
545.0	6.545594	3.081373	7.549501	0.021643	-0.145704	0.115747	-0.527588	0.45459	-0.060059
546.0	6.676771	2.984936	7.612031	0.022239	-0.219448	0.11361	-0.525146	0.450195	-0.053223
547.0	6.551451	3.105725	7.567111	0.028932	-0.295657	0.116751	-0.525146	0.450195	-0.057617
548.0	6.479659	3.184564	7.681432	0.037195	-0.388676	0.123044	-0.527344	0.452393	-0.048584
549.0	6.554608	3.195782	7.688185	0.046319	-0.516751	0.146085	-0.523193	0.452393	-0.051025
550.0	6.419742	3.006019	7.829741	0.085568	-0.635093	0.189973	-0.523193	0.456787	-0.048828
551.0	5.991407	4.124829	8.128157	0.045032	-0.80673	0.236315	-0.523193	0.456787	-0.044189
552.0	6.557083	2.622066	7.839303	0.009705	-1.039006	0.253429	-0.525391	0.456787	-0.037354
553.0	6.251017	2.736491	7.986823	0.003663	-1.258546	0.25212	-0.523193	0.456787	-0.02832
554.0	6.358523	2.823283	8.179441	0.034229	-1.505617	0.238978	-0.529785	0.45459	-0.02124
555.0	6.042956	2.789883	8.311285	0.038971	-1.79421	0.240796	-0.527588	0.456787	-0.016846
556.0	6.414111	3.116384	8.249884	0.026912	-2.120531	0.269715	-0.525635	0.45874	0.001465
557.0	6.202978	3.292593	8.227525	0.012203	-2.454327	0.331448	-0.529785	0.456543	0.015137
558.0	6.439706	3.4717	8.059418	0.011642	-2.818864	0.442622	-0.530029	0.460938	0.026367
559.0	6.562561	3.923006	8.046736	0.00151	-3.18591	0.597918	-0.525879	0.465332	0.037842
560.0	6.957764	4.023042	7.537969	-0.004198	-3.56621	0.817671	-0.523682	0.465332	0.06958
561.0	6.697405	4.239636	7.584785	0.054971	-3.979798	1.035341	-0.521484	0.467285	0.087891
562.0	7.065792	4.571826	7.579372	0.102873	-4.447392	1.252601	-0.51709	0.467285	0.110596
563.0	9.971227	4.645178	8.263821	0.159978	-5.030805	1.550517	-0.508789	0.476074	0.140137
564.0	3.022675	7.315521	7.013497	0.047301	-5.596702	1.95237	-0.496338	0.487061	0.167236
565.0	8.977281	5.144381	7.256277	0.02327	-6.361496	2.579785	-0.474854	0.498047	0.19873
566.0	9.962921	4.6616	8.080308	-0.212578	-7.446928	3.109968	-0.448975	0.504639	0.246582
567.0	10.63332	5.452938	8.593246	-0.033777	-8.820007	3.443943	-0.421143	0.515625	0.287354
568.0	13.033724	4.728224	8.540714	0.513037	-9.7394	3.940514	-0.386963	0.533203	0.31665
569.0	19.645097	2.818093	7.084588	1.548076	-9.194842	3.73682	-0.350586	0.544189	0.341309
570.0	21.521416	2.157102	3.217874	2.518779	-8.051288	3.2375	-0.316162	0.557617	0.352539
571.0	29.044961	5.430283	7.893999	3.305046	-6.559952	2.3915	-0.297119	0.570801	0.358887
572.0	26.414293	8.710949	9.663147	3.010139	-5.279799	1.982545	-0.279785	0.570801	0.370361
573.0	22.038829	10.077295	13.036715	1.90874	-4.280542	3.307609	-0.264648	0.575195	0.381592
574.0	12.212338	13.961785	11.641802	1.080541	-3.525083	3.847413	-0.249756	0.581787	0.385986
575.0	5.449057	12.798873	11.877364	-0.349805	-3.975115	4.636991	-0.227783	0.579834	0.41333
576.0	18.426138	12.855447	18.756152	-1.892654	-4.682977	4.88429	-0.203369	0.568848	0.440918
577.0	19.091046	16.228766	17.421115	-2.24054	-2.404985	3.94337	-0.202637	0.555664	0.457275
578.0	18.26282	14.503382	19.755203	-1.870903	0.207446	1.610907	-0.227783	0.533691	0.4646
579.0	12.068245	10.856779	19.05814	-1.115377	2.861126	-0.157789	-0.26416	0.516113	0.467041
580.0	2.36562	8.583823	14.830821	-0.320638	4.081051	-1.061515	-0.306885	0.496094	0.456299
581.0	0.671838	6.760819	12.488628	0.264985	4.241561	-1.245328	-0.347412	0.474121	0.429443
582.0	1.543679	6.236695	11.019596	0.599736	4.234275	-1.232262	-0.381348	0.456543	0.402344
583.0	3.228751	6.236667	10.520754	0.676514	4.426814	-1.336091	-0.415039	0.425781	0.382568
584.0	4.868163	6.442211	10.066313	0.506197	4.754375	-1.499046	-0.439941	0.397461	0.35791
585.0	6.05401	6.256105	9.734446	0.223036	5.132705	-1.657426	-0.462402	0.362305	0.338135
586.0	6.896718	5.625362	9.145879	0.011296	5.532244	-1.790417	-0.476074	0.32959	0.316162
587.0	7.12804	4.683494	8.408221	-0.006381	5.888082	-1.92528	-0.499268	0.309814	0.295898
588.0	7.337273	3.868776	7.496345	0.164159	6.144726	-2.061275	-0.52417	0.283447	0.27832
589.0	7.289477	3.324937	6.710878	0.441536	6.319149	-2.204071	-0.54248	0.255127	0.256104
590.0	7.054917	3.134035	5.935603	0.74299	6.398746	-2.363262	-0.567871	0.237549	0.222412
591.0	6.90882	3.188444	5.357256	1.016807	6.324247	-2.504716	-0.599854	0.217773	0.197754
592.0	7.304764	3.222066	5.265517	1.246601	6.084137	-2.630533	-0.614014	0.196045	0.159424
593.0	8.653175	3.728587	5.770183	1.430632	5.804826	-2.769728	-0.634766	0.171875	0.123291
594.0	10.485968	4.916822	6.603263	1.55598	5.571807	-2.958851	-0.646729	0.147949	0.082764
595.0	12.093758	6.124556	7.256603	1.582073	5.426726	-3.232831	-0.656494	0.121826	0.028564
596.0	12.744059	6.606729	7.702142	1.557173	5.229876	-3.569073	-0.652588	0.080566	-0.013916
597.0	13.161317	5.833278	8.016688	1.624917	4.914882	-3.887014	-0.653564	0.052246	-0.049805
598.0	14.79704	5.044705	8.635595	1.775123	4.499746	-4.035921	-0.629639	0.004395	-0.087646
599.0	18.087604	4.925379	8.813182	2.086266	4.182276	-3.961571	-0.612549	-0.036865	-0.12085
600.0	22.535406	4.660574	8.343185	2.680435	4.071135	-3.896898	-0.572998	-0.088867	-0.12915
601.0	26.290812	5.32752	6.616246	3.156413	4.213601	-3.968892	-0.544678	-0.136719	-0.130371
602.0	27.181596	4.615719	3.655881	3.201824	4.184157	-4.133978	-0.506104	-0.169189	-0.129883
603.0	27.599923	1.402928	0.400722	3.070457	3.722914	-4.270891	-0.489746	-0.195313	-0.115723
604.0	29.943438	-1.033718	-2.313765	2.69257	3.026382	-4.190307	-0.4646	-0.219238	-0.10376
605.0	32.697728	-3.778149	-4.322223	1.982356	2.520608	-3.932913	-0.452881	-0.240967	-0.085205
606.0	32.806747	-7.478223	-6.419207	1.070473	2.251569	-3.672951	-0.441162	-0.258545	-0.068848
607.0	31.193375	-10.088485	-8.98607	0.046335	2.091007	-3.358086	-0.427734	-0.264893	-0.057373
608.0	28.65968	-12.617967	-12.443885	-1.026243	1.811509	-2.834523	-0.423096	-0.271484	-0.052734
609.0	25.616947	-15.283884	-15.498683	-1.740655	1.207357	-2.066269	-0.418701	-0.269287	-0.04834
610.0	26.221136	-19.351812	-17.82106	-1.795544	0.198629	-1.007455	-0.423096	-0.271484	-0.043701
611.0	26.84263	-17.189786	-24.857044	-2.241612	-1.747245	1.228072	-0.429932	-0.262939	-0.025635
612.0	6.644484	-25.547024	-32.114345	-2.195149	-5.590763	3.696603	-0.439209	-0.252197	0.015381
613.0	30.116392	13.857717	33.825323	-2.977168	-6.65729	4.442824	-0.446289	-0.239258	0.04248
614.0	29.3418	3.288698	22.536228	-1.634169	-2.530077	3.381979	-0.455811	-0.221924	0.0625
615.0	19.541768	-10.982544	-2.503613	-1.737687	-2.281847	2.860396	-0.460449	-0.217529	0.073975
616.0	23.32172	1.536554	23.228508	-2.120649	-2.350825	1.721329	-0.460449	-0.213135	0.07373
617.0	18.254231	-0.017038	7.125916	-1.799124	0.154301	1.323105	-0.465088	-0.210938	0.071533
618.0	4.879167	11.838819	3.892604	-1.819259	0.189437	1.398439	-0.465332	-0.202148	0.073486
619.0	11.537649	8.593187	5.399919	-2.39102	0.283401	1.333669	-0.467773	-0.199951	0.057617
620.0	13.374707	-3.151647	9.257991	-1.561993	1.176081	1.091344	-0.472168	-0.197998	0.059814
621.0	6.857347	1.925292	7.718354	-0.716178	1.284291	0.450986	-0.469727	-0.204346	0.05542
622.0	8.356385	0.407725	8.236708	-0.570851	0.837126	0.297984	-0.469971	-0.199951	0.046143
623.0	6.459718	0.598052	8.583817	-0.244941	0.607947	0.065956	-0.476563	-0.197998	0.04834
624.0	6.043528	1.666125	8.985386	-0.09406	0.383323	-0.021783	-0.469971	-0.199951	0.043945
625.0	6.96282	2.466719	7.615279	0.015804	0.198459	-0.016343	-0.474365	-0.199951	0.043945
626.0	6.702581	2.205392	8.024433	0.048024	0.103098	-0.116977	-0.474365	-0.195801	0.043945
627.0	5.897209	3.70443	8.275205	0.100446	0.015341	-0.030503	-0.472168	-0.199951	0.046143
628.0	6.343192	2.348098	8.105244	0.166277	-0.128286	0.020758	-0.472168	-0.195801	0.043945
629.0	6.573388	2.092551	7.947796	0.191044	-0.26095	-0.053813	-0.472168	-0.199951	0.041748
630.0	6.34263	3.091531	7.727557	0.232784	-0.371637	-0.099736	-0.472412	-0.191406	0.052979
631.0	6.362739	4.054752	7.437575	0.277282	-0.47902	-0.039491	-0.472168	-0.199951	0.048584
632.0	6.317442	4.351637	7.20451	0.31887	-0.560742	0.050121	-0.474121	-0.20459	0.062256
633.0	6.466851	3.554558	7.369868	0.323774	-0.62961	0.094296	-0.476563	-0.197998	0.059814
634.0	6.536849	3.597452	7.411776	0.319215	-0.667019	0.108312	-0.474121	-0.200195	0.073486
635.0	6.440727	3.927978	7.362711	0.299378	-0.691765	0.14982	-0.476563	-0.197998	0.071289
636.0	6.671073	3.736451	7.256366	0.28434	-0.707958	0.201052	-0.474365	-0.195801	0.073486
637.0	6.801097	3.64801	7.096725	0.264666	-0.687979	0.231212	-0.479004	-0.191406	0.077881
638.0	6.887153	3.519892	7.059012	0.239805	-0.649531	0.258833	-0.474609	-0.191406	0.087158
639.0	6.981317	3.464762	7.025622	0.218347	-0.607703	0.273398	-0.476807	-0.191406	0.08252
640.0	6.916859	3.662925	7.041649	0.190296	-0.57308	0.292715	-0.481201	-0.189209	0.084717
641.0	6.629551	3.367582	7.049443	0.120613	-0.558571	0.30897	-0.476807	-0.189209	0.084717
642.0	7.346457	3.323773	6.871797	0.096583	-0.552572	0.297999	-0.479492	-0.182861	0.09375
643.0	6.898094	3.103597	6.9421	0.07625	-0.54452	0.295213	-0.481201	-0.189209	0.096191
644.0	7.230806	2.995728	6.915652	0.049507	-0.544117	0.277771	-0.477295	-0.182861	0.098389
645.0	7.09292	3.000885	6.957442	0.020685	-0.558702	0.251151	-0.479492	-0.180664	0.10498
646.0	7.145201	3.030682	6.837482	0.020892	-0.581407	0.243343	-0.479492	-0.180664	0.10498
647.0	7.15205	3.194046	6.97128	0.019279	-0.625212	0.248386	-0.477295	-0.178467	0.111816
648.0	7.114027	3.052566	7.102692	0.007207	-0.691615	0.243676	-0.479736	-0.17627	0.111816
649.0	6.933996	3.037921	7.212942	-0.009131	-0.785822	0.243704	-0.479736	-0.17627	0.118652
650.0	6.970921	3.150705	7.229611	-0.018704	-0.899762	0.259725	-0.481934	-0.171875	0.123047
651.0	6.869905	3.13094	7.247003	-0.029282	-1.040204	0.285023	-0.484131	-0.174072	0.127686
652.0	7.094084	3.045132	7.220666	-0.026401	-1.197874	0.32063	-0.477295	-0.178467	0.13916
653.0	6.89574	3.068604	7.327527	-0.038241	-1.366964	0.343796	-0.486572	-0.165527	0.138916
654.0	7.006598	3.004419	7.364335	-0.050557	-1.569391	0.372468	-0.478027	-0.165527	0.148193
655.0	7.09632	3.084135	7.305096	-0.07389	-1.800734	0.404155	-0.482666	-0.158936	0.150146
656.0	7.110634	2.785387	7.2235	-0.078989	-2.048401	0.433183	-0.480469	-0.158936	0.168457
657.0	7.941253	2.726018	7.348124	-0.054855	-2.35919	0.461369	-0.476318	-0.152344	0.179688
658.0	5.52116	3.125771	7.579126	-0.021638	-2.709712	0.493898	-0.476563	-0.148193	0.193359
659.0	7.96976	3.472233	7.001996	0.023472	-3.066832	0.613377	-0.474365	-0.148193	0.207031
660.0	7.019862	3.97912	6.789033	0.101663	-3.429748	0.765799	-0.466064	-0.139404	0.231934
661.0	7.680625	3.540132	6.510177	0.165843	-3.817505	0.939395	-0.461914	-0.13501	0.245361
662.0	7.36013	3.834405	6.329712	0.227563	-4.257821	1.169005	-0.453613	-0.126221	0.270264
663.0	7.497355	3.701432	6.297021	0.270098	-4.789084	1.456448	-0.451904	-0.113281	0.295166
664.0	8.065946	3.107654	6.976855	0.267871	-5.565504	1.783515	-0.437256	-0.102295	0.320068
665.0	9.541579	3.197909	7.810625	0.152328	-6.787879	1.643836	-0.416016	-0.089111	0.349365
666.0	9.41678	5.831118	9.094275	0.118432	-8.305114	2.141239	-0.394775	-0.075928	0.392334
667.0	8.916391	6.415525	8.917973	0.407119	-9.704707	2.845037	-0.358398	-0.060547	0.439941
668.0	14.755332	4.721723	7.391046	1.001098	-10.074539	3.17344	-0.324463	-0.036621	0.471191
669.0	22.782984	4.672384	5.298837	1.489974	-9.018445	3.276051	-0.292725	-0.012451	0.507324
670.0	25.894385	3.705486	3.899953	1.915621	-7.951739	3.396075	-0.250488	0.013916	0.5271
671.0	28.780237	9.512263	7.196246	2.427692	-6.684177	2.507874	-0.221191	0.044678	0.54248
672.0	28.956731	9.227388	10.605513	1.887633	-5.539596	2.022651	-0.200439	0.068848	0.560303
673.0	23.043744	12.219214	15.699808	0.937266	-4.22373	3.450191	-0.188477	0.093018	0.564209
674.0	11.776122	15.364542	10.390615	0.449521	-3.715126	4.083828	-0.15918	0.119385	0.570557
675.0	6.463741	13.176497	13.408464	-1.752641	-4.725673	4.96148	-0.133057	0.123779	0.57959
676.0	21.883473	12.335664	19.16293	-3.853063	-4.63472	5.54162	-0.11377	0.128174	0.586182
677.0	21.221623	7.122797	18.152006	-2.449966	-1.966075	3.974154	-0.109619	0.132568	0.586182
678.0	21.442353	10.153798	20.358176	-0.543558	1.680702	1.655767	-0.13208	0.149902	0.583496
679.0	13.317872	9.432801	17.420991	0.211689	4.083241	0.146748	-0.167969	0.169434	0.558105
680.0	3.509935	7.532407	14.549876	0.925498	5.161013	-0.610209	-0.197021	0.186768	0.532715
681.0	2.475941	8.006246	11.37025	1.210836	5.46949	-0.772638	-0.224609	0.217285	0.500244
682.0	3.344099	8.239413	9.960895	1.044952	5.463048	-0.723712	-0.236328	0.234619	0.458984
683.0	4.46578	7.923274	8.898609	0.768027	5.575216	-0.810484	-0.235352	0.260986	0.415039
684.0	5.861463	7.085454	8.370039	0.594215	5.828799	-1.157308	-0.236816	0.296143	0.384766
685.0	6.763778	6.8263	7.71031	0.434246	6.144012	-1.614254	-0.225342	0.333252	0.354492
686.0	6.955333	6.178244	6.844868	0.306082	6.414939	-1.999423	-0.216553	0.37915	0.337646
687.0	6.965435	5.345159	6.092256	0.253648	6.586561	-2.244857	-0.227783	0.431641	0.327393
688.0	6.900715	4.607843	5.27795	0.34251	6.635621	-2.376604	-0.240723	0.481689	0.301514
689.0	6.987299	4.008235	4.765753	0.556822	6.629793	-2.447966	-0.269043	0.527344	0.295898
690.0	7.109041	3.727187	4.658501	0.883309	6.571613	-2.522961	-0.299316	0.568848	0.272461
691.0	7.49501	3.60824	4.577141	1.205693	6.4635	-2.569005	-0.343018	0.618652	0.235107
692.0	7.698994	3.41934	4.625421	1.582997	6.293088	-2.639283	-0.38623	0.659912	0.195557
693.0	8.865638	3.496635	5.11365	1.978089	6.06318	-2.735414	-0.437988	0.697021	0.14917
694.0	10.508281	4.385967	5.809723	2.33639	5.887438	-2.862145	-0.502686	0.727295	0.093994
695.0	11.876625	5.384748	6.348998	2.615735	5.747095	-3.069876	-0.594482	0.733398	0.025635
696.0	12.6983	6.321621	7.027138	2.768473	5.523901	-3.353833	-0.697998	0.706787	-0.069336
697.0	13.256494	6.503615	7.896593	2.806474	5.185858	-3.650473	-0.792969	0.636475	-0.17041
698.0	14.454587	6.928394	8.748437	2.753097	4.761014	-3.848061	-0.868652	0.520752	-0.293457
699.0	17.511075	8.318928	9.677564	2.659635	4.330777	-3.89972	-0.892334	0.370361	-0.424805
700.0	22.124388	8.575271	9.71434	2.558725	4.05679	-3.991399	-0.817627	0.209473	-0.533447
701.0	24.781247	5.378135	8.06766	2.549753	3.944581	-4.28062	-0.679688	0.099365	-0.595215
702.0	26.170102	0.632301	6.195849	2.673865	3.591768	-4.592279	-0.531982	0.062988	-0.578857
703.0	29.594334	-1.678685	3.962228	2.784909	3.132177	-4.689902	-0.445068	0.074463	-0.524414
704.0	33.389342	-3.072046	1.568626	2.485489	2.834281	-4.422541	-0.411377	0.098389	-0.456543
705.0	35.493006	-4.446978	-1.613778	1.645147	2.739989	-3.970095	-0.422363	0.102539	-0.401855
706.0	34.812807	-6.356484	-6.074912	0.396955	2.756075	-3.518029	-0.441406	0.087158	-0.360596
707.0	31.298431	-10.921564	-11.806686	-0.760179	2.527936	-3.061347	-0.470703	0.060547	-0.3396
708.0	27.742654	-15.28487	-16.578382	-1.339017	1.874921	-2.513947	-0.48291	0.041016	-0.323242
709.0	26.028082	-17.215239	-18.690287	-1.332647	0.974935	-1.869301	-0.495117	0.02124	-0.304443
710.0	25.715265	-16.138136	-18.321346	-1.109892	0.101608	-1.167585	-0.505371	0.005615	-0.285889
711.0	24.38541	-15.371431	-16.837127	-0.880106	-0.776016	-0.482231	-0.507324	0.001221	-0.279053
712.0	23.870787	-7.395895	-13.582967	-1.570808	-2.17647	0.71851	-0.516113	0.005615	-0.25415
713.0	6.10133	-3.904178	-5.482642	-3.189601	-4.489405	2.660216	-0.528076	0.025146	-0.236328
714.0	-3.424466	13.439111	26.970485	-2.087589	-6.282798	3.238241	-0.537354	0.040283	-0.202393
715.0	14.77918	2.87639	17.259949	-1.380764	-5.50708	3.61917	-0.542236	0.048828	-0.163818
716.0	26.01828	-15.463459	-2.663241	-1.738676	-4.638562	2.739252	-0.549316	0.061768	-0.13208
717.0	24.822857	-7.965293	9.852007	-1.663562	-4.536008	1.461084	-0.551758	0.070557	-0.107178
718.0	42.210032	-0.789051	21.668861	-2.499014	-0.94267	1.435288	-0.545654	0.081299	-0.102783
719.0	14.206694	4.346494	5.132701	-0.026144	1.575989	1.337975	-0.54834	0.087891	-0.114258
720.0	3.920181	26.099025	0.600085	-1.690826	0.541364	0.884903	-0.546631	0.098877	-0.112305
721.0	7.823684	-0.014948	8.936387	-2.284119	0.320171	1.398291	-0.54248	0.103271	-0.112305
722.0	12.450423	-1.832469	7.201042	-1.353414	1.256473	1.081028	-0.536133	0.107666	-0.126221
723.0	8.134132	4.786398	7.16302	-1.020135	1.090405	0.49796	-0.533936	0.107666	-0.130615
724.0	7.284064	-1.403881	8.884427	-0.598171	0.846026	0.328082	-0.527588	0.114258	-0.126221
725.0	7.365786	2.737266	7.781724	-0.347622	0.57078	0.158711	-0.525391	0.112061	-0.133057
726.0	6.377618	1.793004	8.183666	-0.171203	0.43561	0.084029	-0.531982	0.116455	-0.139893
727.0	6.461306	3.97542	7.682373	-0.096051	0.342913	0.079542	-0.527588	0.114258	-0.137695
728.0	6.527536	2.225438	7.924028	-0.068988	0.255874	0.114052	-0.527344	0.109863	-0.139893
729.0	6.895585	3.243996	7.632837	-0.029134	0.19598	0.080487	-0.525391	0.112305	-0.146729
730.0	6.173079	3.370497	7.807498	0.008842	0.138012	0.146133	-0.527832	0.118652	-0.140137
731.0	6.52343	3.058642	7.69778	0.000332	0.1017	0.172803	-0.523682	0.123047	-0.144775
732.0	6.473996	3.495297	7.573178	0.000801	0.064629	0.17628	-0.527588	0.116455	-0.14917
733.0	6.432324	2.683705	7.639192	-0.00749	0.017824	0.159669	-0.52124	0.118652	-0.144531
734.0	6.52185	3.04221	7.493707	0.005159	-0.020667	0.10623	-0.523438	0.118652	-0.142334
735.0	6.448879	3.213913	7.387917	0.018248	-0.051649	0.094164	-0.525635	0.12085	-0.142334
736.0	6.52186	3.242436	7.388801	0.035954	-0.07357	0.087183	-0.523438	0.116455	-0.142334
737.0	6.404571	3.770354	7.283152	0.046118	-0.076319	0.112225	-0.527832	0.118652	-0.144531
738.0	6.507666	3.59242	7.289925	0.045781	-0.065885	0.147138	-0.530029	0.12085	-0.142334
739.0	6.480857	3.33782	7.319766	0.036291	-0.040426	0.162897	-0.523438	0.12085	-0.142334
740.0	6.45085	3.228442	7.378485	0.030856	-0.018245	0.159729	-0.523438	0.12085	-0.142334
741.0	6.48789	3.127648	7.436692	0.021864	-0.012767	0.157202	-0.527832	0.12085	-0.144775
742.0	6.478461	3.364722	7.385332	0.015678	-0.005866	0.156012	-0.525635	0.12085	-0.142334
743.0	6.457252	3.307548	7.443747	0.008765	-0.014041	0.165162	-0.523926	0.127441	-0.144775
744.0	6.599789	3.310656	7.365831	0.000373	-0.020288	0.182371	-0.514893	0.121094	-0.144775
745.0	6.534407	3.072881	7.480106	-0.006668	-0.046685	0.19161	-0.523438	0.12085	-0.144775
746.0	6.725774	3.013167	7.523108	-0.010318	-0.077077	0.204795	-0.521484	0.123047	-0.135498
747.0	6.500831	3.129386	7.58968	0.003091	-0.135241	0.224758	-0.521729	0.131836	-0.142578
748.0	6.650079	2.924191	7.655446	0.026625	-0.217166	0.247857	-0.519531	0.127441	-0.137939
749.0	6.53376	2.834042	7.749384	0.0433	-0.321504	0.257825	-0.523926	0.127441	-0.142578
750.0	6.534098	2.853855	7.771493	0.068589	-0.442879	0.261608	-0.523926	0.129639	-0.137939
751.0	6.502063	2.821279	7.861589	0.10035	-0.580053	0.281774	-0.526123	0.129639	-0.133545
752.0	5.726012	3.242563	8.322487	0.062886	-0.776137	0.307039	-0.52832	0.131836	-0.128906
753.0	6.572041	2.563188	7.98069	0.060832	-0.980096	0.293428	-0.528076	0.127441	-0.124268
754.0	6.101809	2.932523	8.09842	0.055236	-1.181454	0.300624	-0.52417	0.134033	-0.11084
755.0	6.476358	3.450761	8.007715	0.014924	-1.398293	0.314263	-0.532959	0.138184	-0.106201
756.0	6.343774	3.109486	8.298858	-0.036983	-1.62292	0.357422	-0.532715	0.129395	-0.092285
757.0	6.402468	3.17964	8.17902	-0.110717	-1.872963	0.402496	-0.537354	0.135986	-0.074219
758.0	6.764153	3.270264	8.467418	-0.191049	-2.154693	0.489933	-0.5354	0.142578	-0.060791
759.0	6.168702	3.557432	8.370229	-0.270432	-2.470312	0.616991	-0.541748	0.140137	-0.053955
760.0	7.428392	3.883747	7.669584	-0.3272	-2.824362	0.812333	-0.550781	0.144531	-0.026611
761.0	5.785873	3.3256	8.739355	-0.347323	-3.203284	1.021955	-0.546387	0.146729	-0.006104
762.0	6.970367	3.739724	7.871557	-0.353139	-3.601261	1.186843	-0.544434	0.150879	0.018799
763.0	6.836879	3.464721	7.929693	-0.309119	-4.039708	1.358292	-0.551025	0.153076	0.046143
764.0	6.666753	4.242099	7.699051	-0.294416	-4.522745	1.598387	-0.53833	0.159668	0.073486
765.0	7.122519	4.754295	7.740899	-0.249897	-5.055522	1.929472	-0.538574	0.166016	0.109619
766.0	6.823425	5.985043	8.350235	-0.288483	-5.765684	2.377499	-0.528076	0.174805	0.152832
767.0	7.539423	7.661046	7.684683	-0.464372	-6.669954	3.064802	-0.515381	0.18335	0.198242
768.0	14.02077	5.050372	7.320063	-0.74462	-8.061112	3.932992	-0.485107	0.192139	0.248047
769.0	8.578043	6.418835	7.55923	-0.402025	-9.731832	5.079026	-0.457764	0.211914	0.300049
770.0	10.740195	1.316994	9.327629	0.35791	-10.671748	5.198087	-0.408447	0.229492	0.354492
771.0	22.514131	0.788757	10.543318	1.268664	-9.782324	4.145238	-0.369385	0.234131	0.399902
772.0	24.364267	2.709988	4.250512	2.12936	-8.712926	2.954742	-0.326172	0.247314	0.433838
773.0	32.182065	6.978707	8.235769	2.38395	-7.342968	2.368135	-0.300537	0.258301	0.463135
774.0	29.293409	4.315578	11.065665	2.002024	-5.2806	3.719016	-0.257324	0.267334	0.483398
775.0	18.8291	17.938507	14.137018	0.533465	-4.676954	4.514084	-0.227051	0.269531	0.510742
776.0	10.555995	13.47896	13.134017	0.12867	-4.103355	4.047203	-0.191895	0.265381	0.53125
777.0	6.795432	14.423689	14.900153	-2.305645	-5.234052	4.161742	-0.149658	0.248047	0.565674
778.0	20.518037	14.447493	16.875021	-4.341105	-5.235007	4.527786	-0.115723	0.222168	0.595947
779.0	18.391373	12.24102	18.149093	-3.331324	-2.751922	2.639324	-0.092773	0.196045	0.607666
780.0	21.939314	9.786249	20.735951	-2.041998	0.956287	-0.140869	-0.111328	0.174072	0.619629
781.0	14.513867	9.048437	17.543744	-1.162666	3.704674	-1.739011	-0.134521	0.154297	0.635986
782.0	3.735322	2.902231	14.992019	-0.063917	4.873757	-2.344245	-0.158691	0.15625	0.638184
783.0	3.270031	3.110308	12.487845	0.724347	5.343568	-2.349829	-0.191162	0.153809	0.640625
784.0	4.236432	4.109446	9.791964	1.177687	5.546884	-2.144044	-0.228516	0.157959	0.638184
785.0	4.486339	2.633268	8.723999	1.387889	5.745615	-1.964243	-0.266357	0.175049	0.635742
786.0	5.78076	1.856514	7.580671	1.703903	6.045602	-2.053505	-0.310303	0.185791	0.619629
787.0	6.624767	1.973026	6.916476	1.996675	6.328354	-2.277552	-0.363525	0.200928	0.603271
788.0	6.642281	3.144442	6.570804	2.017432	6.500004	-2.461295	-0.416504	0.21582	0.575684
789.0	6.482436	3.851148	6.335962	1.850662	6.528955	-2.558262	-0.466797	0.222168	0.546143
790.0	6.603362	4.190677	6.355211	1.59794	6.468323	-2.636843	-0.521729	0.228516	0.493652
791.0	7.111122	4.560356	6.302703	1.328336	6.388493	-2.734959	-0.567627	0.230469	0.457275
792.0	7.751721	4.667669	6.172616	1.110917	6.290185	-2.817879	-0.611084	0.22583	0.400391
793.0	8.257589	3.91333	6.250757	1.050195	6.198578	-2.96297	-0.634766	0.219482	0.348145
794.0	8.76419	2.787915	6.244423	1.224832	6.103947	-3.188945	-0.656006	0.208496	0.29126
795.0	9.395809	2.500936	6.475929	1.584935	5.960148	-3.460755	-0.683838	0.193115	0.241455
796.0	10.509024	3.204075	7.055273	1.88886	5.742272	-3.680584	-0.694336	0.186768	0.187012
797.0	11.905271	4.517752	7.657036	2.027874	5.506297	-3.836322	-0.702393	0.169189	0.14624
798.0	12.807043	4.856188	8.377914	2.102368	5.174984	-3.985393	-0.703613	0.151855	0.101074
799.0	14.57327	4.643822	9.2818	2.193348	4.789109	-4.126147	-0.709473	0.136719	0.060303
800.0	17.823867	5.032829	10.113846	2.25471	4.547639	-4.114768	-0.715332	0.117188	0.019775
801.0	20.949963	6.031579	9.613679	2.285289	4.423142	-3.935455	-0.719238	0.106201	-0.005127
802.0	24.929446	6.066458	8.313971	2.524382	4.308627	-3.752432	-0.726807	0.084473	-0.038818
803.0	28.827162	5.601275	6.009585	2.776109	4.332783	-3.806415	-0.734375	0.05835	-0.07251
804.0	29.850519	2.561487	2.106372	2.983487	4.189783	-4.071279	-0.73291	0.023438	-0.099121
805.0	30.667108	0.229575	-2.111955	3.103205	3.633493	-4.304464	-0.746826	-0.00708	-0.130371
806.0	32.095387	-2.194714	-4.958763	2.783956	2.870914	-4.229133	-0.745361	-0.037598	-0.145752
807.0	32.413416	-6.627695	-7.082601	2.036518	2.212203	-3.982301	-0.748291	-0.07251	-0.170166
808.0	31.277497	-11.109953	-9.205531	1.045024	1.722679	-3.598252	-0.751465	-0.096436	-0.181152
809.0	29.379138	-13.630339	-11.805803	-0.134227	1.325103	-2.935158	-0.759521	-0.114014	-0.194336
810.0	28.315947	-15.733594	-14.007286	-1.338873	0.850685	-2.041429	-0.75708	-0.118408	-0.205811
811.0	28.068671	-18.531649	-15.492474	-1.997663	0.428149	-1.161147	-0.763672	-0.116211	-0.214844
812.0	26.20369	-20.921009	-15.644879	-1.78154	-0.064984	-0.417043	-0.768066	-0.116211	-0.212646
813.0	23.318427	-15.344543	-11.69727	-1.414549	-0.763129	0.333219	-0.781982	-0.09668	-0.208496
814.0	25.336572	-10.386999	-8.167852	-2.494918	-2.39028	2.373061	-0.789795	-0.068359	-0.193115
815.0	-17.497399	5.615268	19.402638	-2.204037	-4.029852	3.220969	-0.811035	-0.031494	-0.161865
816.0	7.115373	21.167386	25.964698	-1.174005	-4.30902	4.776054	-0.826172	0.01416	-0.124023
817.0	15.883928	-6.271035	-0.200926	-1.63178	-4.113658	4.444758	-0.841064	0.051025	-0.094971
818.0	24.869527	-9.760392	-1.780928	-2.401229	-4.51683	2.585264	-0.842285	0.077148	-0.054443
819.0	36.20753	7.057128	28.20857	-3.670244	-2.678737	1.514024	-0.847168	0.092529	-0.04126
820.0	25.286898	-5.769426	4.190905	-1.621665	1.101592	1.74224	-0.84375	0.112061	-0.055176
821.0	6.485486	18.935628	2.006462	-1.998182	1.064478	1.505648	-0.848633	0.125244	-0.057861
822.0	7.613903	5.656827	8.995429	-2.757136	0.438251	1.553374	-0.840576	0.140381	-0.053467
823.0	13.782555	-13.849201	10.796148	-1.04003	1.476803	1.039315	-0.843018	0.146973	-0.06958
824.0	5.821733	8.574578	6.191789	-0.698295	1.11571	0.204017	-0.838867	0.151367	-0.074219
825.0	7.677783	-1.631855	8.9535	-0.410377	0.646249	0.371076	-0.838867	0.149414	-0.085693
826.0	6.957025	2.090972	7.719636	-0.116169	0.501552	0.131109	-0.841309	0.155762	-0.081055
827.0	6.454502	1.279016	8.412681	-0.015629	0.325467	0.064701	-0.836914	0.155762	-0.085693
828.0	6.105095	3.016204	8.235421	0.055811	0.232683	-0.004021	-0.839111	0.155762	-0.087891
829.0	6.59825	2.33486	7.844972	0.100224	0.13535	0.010638	-0.839355	0.157959	-0.088135
830.0	7.031441	3.537047	7.395609	0.099424	0.085811	-0.011527	-0.832764	0.1604	-0.090332
831.0	6.101075	3.680416	7.824944	0.103118	0.056416	0.053355	-0.837158	0.157959	-0.088135
832.0	6.436777	3.529309	7.623474	0.111262	-0.011854	0.111782	-0.837158	0.157959	-0.085693
833.0	6.532749	2.822595	7.62406	0.114789	-0.067406	0.09546	-0.841553	0.160156	-0.090332
834.0	6.302509	3.065408	7.655983	0.10909	-0.102901	0.0688	-0.837158	0.157959	-0.092529
835.0	6.395303	3.266472	7.446505	0.129005	-0.156505	0.061231	-0.837158	0.160156	-0.085693
836.0	6.409499	3.570821	7.371804	0.153492	-0.217648	0.079286	-0.839355	0.157959	-0.083496
837.0	6.475322	3.766126	7.333136	0.158345	-0.216686	0.124716	-0.839355	0.162354	-0.079102
838.0	6.723384	3.605852	7.260815	0.122303	-0.181809	0.155873	-0.837158	0.162354	-0.085938
839.0	6.627597	3.669411	7.234362	0.082546	-0.115434	0.167388	-0.837402	0.164551	-0.088135
840.0	6.480286	3.699808	7.296456	0.049017	-0.066943	0.19675	-0.835449	0.168945	-0.076904
841.0	6.538436	3.443839	7.453917	0.029954	-0.039901	0.215105	-0.8396	0.166748	-0.076904
842.0	6.428559	3.266504	7.444428	0.015385	-0.041279	0.214016	-0.837646	0.168945	-0.074463
843.0	6.487034	3.136208	7.513944	0.006857	-0.048213	0.206145	-0.842041	0.171143	-0.079102
844.0	6.440607	3.013462	7.516695	-0.001224	-0.079543	0.184556	-0.837891	0.175537	-0.07251
845.0	6.573892	3.010218	7.526266	-0.001845	-0.111893	0.169138	-0.840088	0.175537	-0.07251
846.0	6.482784	3.025377	7.564748	-0.004347	-0.164522	0.166353	-0.837891	0.177734	-0.077148
847.0	6.51047	3.118869	7.634738	0.011669	-0.233641	0.183312	-0.837891	0.177734	-0.074707
848.0	6.591495	2.933549	7.708271	0.027098	-0.321717	0.205327	-0.838135	0.184326	-0.070313
849.0	6.496827	2.843283	7.737666	0.049212	-0.433063	0.218023	-0.840332	0.181885	-0.068115
850.0	6.648261	2.810654	7.727917	0.074197	-0.5548	0.235215	-0.842773	0.188477	-0.061279
851.0	6.044102	3.292162	8.074307	0.050566	-0.72052	0.264592	-0.836182	0.188477	-0.052246
852.0	6.595552	2.522587	7.78101	0.047921	-0.897612	0.264144	-0.840576	0.186279	-0.04541
853.0	6.399339	2.748031	7.783949	0.061741	-1.053859	0.271756	-0.843018	0.192871	-0.031738
854.0	6.659964	3.098051	7.815333	0.035353	-1.219318	0.253006	-0.838867	0.197266	-0.027344
855.0	6.302377	2.951968	8.076639	-0.001859	-1.410658	0.251342	-0.84082	0.195068	-0.018066
856.0	6.487485	3.112245	7.988909	-0.047236	-1.625134	0.273185	-0.841309	0.203613	-0.006836
857.0	6.372564	2.818878	8.321327	-0.084599	-1.877479	0.309028	-0.838867	0.197021	0.016113
858.0	6.144647	3.094541	8.484393	-0.119922	-2.199999	0.363294	-0.839355	0.208008	0.036377
859.0	6.523582	3.517063	8.26193	-0.141771	-2.573764	0.489722	-0.837402	0.212158	0.049805
860.0	6.796027	3.660836	7.512898	-0.146178	-2.947047	0.68369	-0.837402	0.216553	0.077148
861.0	6.035463	3.298487	8.826086	-0.117107	-3.357292	0.869787	-0.835938	0.231689	0.106445
862.0	6.771953	4.071331	7.642778	-0.053213	-3.764576	1.028072	-0.827637	0.242676	0.142822
863.0	7.071411	3.696227	7.60675	0.063105	-4.197745	1.18266	-0.82373	0.251465	0.169922
864.0	6.792302	4.4169	7.290027	0.115805	-4.679458	1.445611	-0.811035	0.262207	0.210693
865.0	6.951569	4.835034	7.874251	0.144925	-5.286018	1.811124	-0.80127	0.283936	0.249023
866.0	6.219038	5.806386	8.682454	0.042028	-6.133419	2.294645	-0.769287	0.303711	0.296387
867.0	11.044973	4.768815	8.333042	-0.365626	-7.293865	2.812133	-0.73999	0.327881	0.359863
868.0	10.074021	7.428545	7.900243	-0.398453	-8.840744	3.257551	-0.699707	0.356201	0.422852
869.0	10.4253	7.737799	8.995697	0.327881	-10.293704	4.259331	-0.644531	0.391357	0.495117
870.0	15.752732	2.440651	9.062719	1.476877	-10.755357	4.474221	-0.57666	0.433105	0.537598
871.0	25.911747	3.243025	4.603155	2.411989	-9.398492	3.81374	-0.517334	0.472656	0.577637
872.0	30.966946	6.322257	6.36587	2.945215	-7.89357	3.197333	-0.473145	0.505615	0.597412
873.0	30.757894	9.910857	9.328583	2.760695	-5.820577	3.122355	-0.437256	0.536377	0.60376
874.0	25.0485	10.320601	14.096349	1.530089	-4.501946	4.021668	-0.401123	0.558594	0.612305
875.0	14.931363	16.303045	12.494339	0.843152	-4.226229	4.654889	-0.35498	0.595947	0.625244
876.0	4.627508	13.857713	13.331751	-0.351684	-4.721192	5.132696	-0.307617	0.609131	0.645508
877.0	14.688242	15.158257	15.640293	-3.497975	-6.1925	5.882155	-0.246094	0.598633	0.67749
878.0	19.922621	13.469196	16.996086	-3.839434	-4.969914	5.052016	-0.217285	0.592041	0.704834
879.0	20.215786	11.226179	19.30637	-2.738017	-1.582713	2.366812	-0.225586	0.583252	0.711914
880.0	19.8934	14.904843	20.442122	-1.616047	2.434087	-0.305849	-0.275635	0.578613	0.702881
881.0	12.945631	9.583843	17.116408	-0.918246	4.640371	-1.965645	-0.344727	0.565186	0.68042
882.0	1.063678	6.164293	14.751293	-0.093573	5.553614	-2.521946	-0.411621	0.549561	0.646729
883.0	2.399523	6.077678	11.991462	0.222481	5.821967	-2.349752	-0.482666	0.527344	0.615234
884.0	3.503388	6.122697	9.334254	0.326722	5.844531	-1.984695	-0.536621	0.511963	0.561035
885.0	3.882548	3.461342	8.29844	0.552562	5.951291	-1.839434	-0.585205	0.479004	0.50708
886.0	5.13495	2.62348	7.282653	0.966051	6.232717	-2.005539	-0.623291	0.450439	0.455078
887.0	6.298839	2.881945	6.527033	1.368062	6.488569	-2.303791	-0.654297	0.411133	0.401367
888.0	7.1222	3.617298	6.176795	1.541872	6.692855	-2.543748	-0.685547	0.378418	0.356445
889.0	7.153178	4.335919	5.815738	1.565443	6.807498	-2.675937	-0.712158	0.339111	0.300293
890.0	7.120079	4.505275	5.799384	1.481907	6.808892	-2.746007	-0.728027	0.304199	0.255371
891.0	7.518775	4.611917	5.770348	1.389015	6.718936	-2.824195	-0.743652	0.26709	0.219727
892.0	8.272384	4.527272	5.86531	1.349313	6.595082	-2.934521	-0.76001	0.240723	0.179199
893.0	8.820714	4.13461	5.914086	1.399703	6.490721	-3.101315	-0.77832	0.208008	0.145752
894.0	9.268357	3.315641	5.936159	1.598929	6.321362	-3.29374	-0.783447	0.17749	0.100586
895.0	10.166124	3.396428	6.332043	1.888741	6.055402	-3.493096	-0.803955	0.146973	0.055664
896.0	11.657392	4.045745	7.435702	2.177959	5.72408	-3.659492	-0.808838	0.114258	0.017578
897.0	13.35304	4.381665	8.311134	2.48918	5.379817	-3.862859	-0.813721	0.077393	-0.029541
898.0	15.729803	4.722005	9.611213	2.782436	5.076973	-4.029423	-0.809814	0.035889	-0.069824
899.0	19.482611	6.276751	10.553074	2.869935	4.949061	-4.011101	-0.801514	-0.005371	-0.105469
900.0	23.10287	7.384622	10.074732	2.742465	4.869895	-3.809451	-0.788574	-0.046631	-0.143311
901.0	26.992971	5.868387	8.667752	2.702352	4.81368	-3.758296	-0.76709	-0.087891	-0.176758
902.0	28.532439	1.019784	5.787325	2.842301	4.657298	-3.9345	-0.747803	-0.12915	-0.19873
903.0	29.263974	-2.562688	1.709914	3.174372	4.184009	-4.12659	-0.726074	-0.179199	-0.218262
904.0	30.607401	-3.717633	-2.265871	3.343366	3.434252	-4.038068	-0.702637	-0.213867	-0.224365
905.0	32.223073	-4.180369	-4.939633	2.904084	2.66595	-3.714018	-0.68335	-0.253174	-0.228271
906.0	32.659803	-5.732528	-7.230762	1.848606	2.053352	-3.409682	-0.658203	-0.28125	-0.225586
907.0	31.576475	-9.195214	-10.222097	0.585354	1.674415	-3.179932	-0.64209	-0.298584	-0.229736
908.0	28.928195	-12.166355	-13.495851	-0.606457	1.309257	-2.780114	-0.628662	-0.30957	-0.229492
909.0	27.176251	-14.708868	-16.041346	-1.468422	0.754199	-2.150735	-0.617432	-0.315918	-0.233887
910.0	26.665125	-16.422721	-17.039276	-1.734463	0.144572	-1.385292	-0.61084	-0.318115	-0.229248
911.0	25.122049	-17.807118	-16.639396	-1.387233	-0.540652	-0.629121	-0.615234	-0.318115	-0.222412
912.0	22.631505	-15.769664	-14.356978	-0.701567	-1.35714	0.032728	-0.613037	-0.315918	-0.213379
913.0	23.034804	-10.507385	-10.20384	-0.301015	-1.99303	0.546809	-0.615234	-0.313965	-0.186035
914.0	23.033353	16.749686	9.947395	-3.773539	-2.661123	1.535686	-0.622803	-0.294189	-0.184326
915.0	-12.972667	9.418942	26.703065	-4.372677	-2.675899	1.980078	-0.62793	-0.274658	-0.168701
916.0	-16.854294	12.167271	20.778062	-1.852048	-3.869799	3.725286	-0.651123	-0.246582	-0.130371
917.0	13.556578	-14.337185	3.616679	-2.243229	-5.020833	4.606602	-0.66333	-0.216064	-0.10376
918.0	29.19203	-14.627442	-0.372997	-2.420853	-3.84235	2.906186	-0.672852	-0.19873	-0.083496
919.0	32.752074	-0.158136	25.371396	-3.372892	-2.724671	1.743415	-0.675537	-0.185791	-0.074707
920.0	30.965093	-6.623748	6.84388	-1.70248	1.452813	1.803287	-0.678223	-0.172607	-0.09082
921.0	6.209824	15.53419	2.761505	-1.514145	1.413579	1.471109	-0.682861	-0.168213	-0.100098
922.0	9.902772	6.728929	8.768112	-2.378704	0.381062	1.335573	-0.679199	-0.150879	-0.107178
923.0	10.681142	-13.213144	11.361024	-0.831972	1.183658	0.817882	-0.677002	-0.152832	-0.116211
924.0	6.744692	8.129002	5.986712	-0.469124	0.870426	0.147747	-0.677246	-0.148438	-0.123291
925.0	7.152881	0.248067	8.255414	-0.296219	0.433299	0.225343	-0.672852	-0.150635	-0.12085
926.0	7.656525	2.459869	7.276101	-0.081506	0.327577	0.011474	-0.677246	-0.148682	-0.12085
927.0	6.622912	2.989132	7.712755	-0.005489	0.206164	-0.005898	-0.670898	-0.14624	-0.130127
928.0	6.640955	3.907094	7.767303	0.032089	0.192823	0.06203	-0.677246	-0.148438	-0.123291
929.0	6.591619	3.154227	7.843303	-0.018315	0.156457	0.153629	-0.675293	-0.144287	-0.118652
930.0	7.420023	2.615752	7.671416	-0.092756	0.183073	0.114624	-0.675293	-0.144043	-0.130127
931.0	6.402527	3.769265	7.622795	-0.15992	0.196856	0.139711	-0.67749	-0.14209	-0.12793
932.0	6.418158	2.746239	7.802998	-0.152368	0.156272	0.190773	-0.67334	-0.135498	-0.12793
933.0	6.523471	3.250501	7.576628	-0.122534	0.099762	0.171282	-0.675293	-0.144043	-0.130127
934.0	6.37517	3.016099	7.631602	-0.118741	0.060874	0.174296	-0.668945	-0.137451	-0.130371
935.0	6.536081	2.418113	7.58111	-0.090696	0.03624	0.134643	-0.677979	-0.133301	-0.130371
936.0	6.303088	3.040245	7.516345	-0.066902	0.023099	0.105318	-0.673584	-0.133301	-0.132568
937.0	6.467723	3.127612	7.438084	-0.044796	0.02471	0.096332	-0.682373	-0.133301	-0.128174
938.0	6.486415	3.287151	7.240112	-0.030946	0.033279	0.095218	-0.671387	-0.131104	-0.137207
939.0	6.382098	3.27975	7.281433	-0.010483	0.035333	0.102375	-0.675537	-0.135498	-0.132568
940.0	6.442472	3.21518	7.24642	0.016392	0.041306	0.106195	-0.673584	-0.131104	-0.123535
941.0	6.371302	3.061264	7.366008	0.040957	0.04629	0.115585	-0.677979	-0.131104	-0.13501
942.0	6.384801	2.934436	7.43699	0.070985	0.041419	0.123823	-0.673584	-0.131104	-0.132568
943.0	6.350412	2.775353	7.514992	0.09682	0.026645	0.121888	-0.678223	-0.126709	-0.132813
944.0	6.498071	2.867587	7.521407	0.114675	0.013996	0.127074	-0.680176	-0.128906	-0.128174
945.0	6.306376	2.891096	7.618215	0.132858	-0.016616	0.139305	-0.680176	-0.131104	-0.130371
946.0	6.499108	2.931466	7.639504	0.13963	-0.04367	0.150793	-0.673828	-0.124512	-0.128174
947.0	6.403654	3.089687	7.663265	0.138297	-0.076932	0.169577	-0.68042	-0.126709	-0.13501
948.0	6.525338	2.877335	7.713092	0.132227	-0.121951	0.179386	-0.674072	-0.122314	-0.130615
949.0	6.59351	2.885195	7.683926	0.116092	-0.179197	0.193013	-0.682617	-0.124512	-0.123779
950.0	6.53258	2.833877	7.708486	0.105751	-0.235665	0.192517	-0.676025	-0.124512	-0.123779
951.0	6.570599	2.70621	7.759156	0.094678	-0.302286	0.19341	-0.684814	-0.126709	-0.121338
952.0	6.460485	2.903158	7.779639	0.10144	-0.384745	0.199039	-0.682861	-0.118164	-0.116943
953.0	6.600983	2.928579	7.934984	0.100476	-0.488851	0.206307	-0.682861	-0.118164	-0.110107
954.0	6.441743	2.767437	8.089817	0.093605	-0.6362	0.205783	-0.685303	-0.11377	-0.110107
955.0	5.724093	3.422187	8.663241	0.034062	-0.857583	0.208677	-0.680908	-0.115967	-0.101074
956.0	6.237189	2.028161	8.480342	0.030001	-1.144618	0.210004	-0.685303	-0.111572	-0.094238
957.0	6.121561	2.572226	8.702171	0.014152	-1.47405	0.190166	-0.694092	-0.111572	-0.083008
958.0	5.822976	2.378653	9.011693	0.013115	-1.880606	0.183846	-0.687744	-0.109375	-0.066895
959.0	6.016293	2.809615	8.946506	0.006817	-2.309099	0.228518	-0.696533	-0.107422	-0.051025
960.0	5.608959	2.935478	8.966963	0.003971	-2.73521	0.321224	-0.692139	-0.105225	-0.032959
961.0	6.124168	3.005576	8.69712	0.000438	-3.17053	0.437186	-0.698975	-0.101074	-0.007813
962.0	6.320454	3.602333	8.421079	-0.007644	-3.599997	0.610045	-0.703857	-0.090088	0.021484
963.0	6.971262	3.721568	7.307069	0.016642	-4.019052	0.85662	-0.706299	-0.08374	0.046387
964.0	5.816787	4.534871	8.881458	0.125216	-4.481053	1.100499	-0.70874	-0.077148	0.082764
965.0	7.077066	5.958167	7.945459	0.185627	-5.02495	1.493675	-0.705078	-0.062012	0.116699
966.0	7.293934	6.196561	8.325145	0.157782	-5.687707	1.952973	-0.699219	-0.046875	0.155029
967.0	6.561795	7.574446	8.028643	0.001448	-6.444047	2.632781	-0.697998	-0.022949	0.209473
968.0	9.475774	5.668922	8.23281	-0.203396	-7.42515	3.385485	-0.675293	0.003174	0.263428
969.0	11.172355	4.87398	8.546129	-0.342231	-8.867926	3.729044	-0.656982	0.031494	0.32666
970.0	10.651887	7.133556	9.874014	0.282938	-9.94834	4.362901	-0.619141	0.06665	0.389893
971.0	16.974565	2.10017	10.105818	1.149435	-10.162226	4.510013	-0.581299	0.097168	0.448486
972.0	22.605801	0.404644	4.206873	1.837432	-9.111887	3.816117	-0.530273	0.130127	0.500244
973.0	29.548276	5.616338	7.598007	2.581675	-7.791504	2.946651	-0.494873	0.165283	0.533691
974.0	27.893944	9.516419	8.361397	2.626599	-5.849045	2.775379	-0.461914	0.208984	0.551025
975.0	23.566609	10.173447	13.203718	1.492511	-4.777655	3.863597	-0.432617	0.235352	0.563965
976.0	12.900088	16.30917	13.880623	0.959083	-4.416916	4.21161	-0.403564	0.270508	0.579346
977.0	4.86052	13.319087	15.469811	-0.915576	-4.76326	4.713382	-0.358643	0.290283	0.608398
978.0	12.278734	16.665383	15.167325	-3.968152	-6.216753	5.321307	-0.312744	0.28833	0.64502
979.0	19.077869	13.449123	17.868197	-4.204192	-4.804968	4.232809	-0.28418	0.279785	0.656494
980.0	21.231082	10.372576	21.214853	-3.38289	-1.392094	1.832262	-0.288086	0.270996	0.661133
981.0	19.145031	12.036722	20.869718	-2.278002	2.385056	-0.5291	-0.305176	0.262207	0.654541
982.0	8.21521	5.880612	17.030197	-1.354976	4.45184	-1.775009	-0.35498	0.255371	0.638672
983.0	1.93323	2.459892	14.426184	-0.192151	5.28547	-2.217324	-0.39624	0.250732	0.618408
984.0	3.087637	4.314475	11.299269	0.593226	5.604015	-2.169317	-0.432861	0.239746	0.591309
985.0	3.421841	4.250742	9.683742	0.876335	5.692888	-1.956951	-0.47168	0.23291	0.55957
986.0	4.469045	3.22156	8.616562	0.984498	5.862185	-1.846282	-0.506348	0.224121	0.525635
987.0	5.73661	2.537627	7.630812	1.199006	6.088655	-1.949422	-0.536377	0.213135	0.493896
988.0	6.641246	2.515665	7.338167	1.325943	6.263966	-2.162471	-0.563721	0.191162	0.455566
989.0	7.237778	3.271859	7.066046	1.305904	6.408351	-2.312889	-0.598145	0.180176	0.428467
990.0	7.586078	3.66819	6.877731	1.205294	6.500428	-2.386195	-0.612549	0.1604	0.394775
991.0	8.064716	3.681526	6.730946	1.088114	6.550096	-2.439931	-0.64209	0.142822	0.365479
992.0	8.636975	3.616573	6.502942	1.055234	6.554684	-2.484225	-0.667725	0.129639	0.338379
993.0	9.218647	3.383347	6.338555	1.113677	6.541032	-2.548387	-0.697754	0.118652	0.300049
994.0	9.603088	3.03722	6.333786	1.278295	6.508566	-2.650229	-0.723633	0.107666	0.259277
995.0	10.280705	2.803421	6.433548	1.540253	6.415061	-2.786563	-0.753418	0.092285	0.220703
996.0	11.197092	3.214297	6.432926	1.837494	6.302082	-2.932804	-0.774658	0.079346	0.161865
997.0	12.052107	4.188188	6.946458	2.065532	6.053946	-3.074338	-0.79541	0.057373	0.105225
998.0	12.940389	4.720871	7.634777	2.272682	5.667226	-3.295011	-0.806885	0.020508	0.053711
999.0	14.602592	5.087682	8.725474	2.484107	5.216403	-3.604698	-0.80957	-0.016602	0.00415
1000.0	17.667133	6.238397	9.85849	2.496356	4.872218	-3.755574	-0.805664	-0.057861	-0.033691
1001.0	21.477471	8.19608	10.098287	2.429706	4.62646	-3.742983	-0.797119	-0.103516	-0.076172
1002.0	26.01564	7.805539	9.338758	2.438424	4.4886	-3.832517	-0.788574	-0.147217	-0.098145
1003.0	27.661063	3.064509	6.616947	2.514788	4.410781	-4.112155	-0.775635	-0.190674	-0.126953
1004.0	28.268464	-0.867755	2.421201	2.799219	4.042363	-4.386388	-0.760742	-0.229736	-0.148926
1005.0	30.259304	-1.796841	-1.177974	2.897223	3.384017	-4.36702	-0.746094	-0.264648	-0.164063
1006.0	32.852596	-1.883608	-3.746039	2.344548	2.798737	-4.046775	-0.725098	-0.294922	-0.175049
1007.0	33.081593	-4.716852	-6.7621	1.267885	2.410469	-3.750194	-0.715332	-0.323242	-0.19043
1008.0	31.376057	-8.585888	-10.696037	0.032278	2.154351	-3.470859	-0.696777	-0.344971	-0.208252
1009.0	28.524791	-12.487726	-14.63553	-1.056163	1.74102	-3.026458	-0.6875	-0.360107	-0.228516
1010.0	27.42633	-15.670096	-17.014961	-1.748716	1.152477	-2.395088	-0.669434	-0.37085	-0.241943
1011.0	27.390376	-16.700874	-17.61358	-1.981059	0.590088	-1.636225	-0.662842	-0.375	-0.26001
1012.0	25.88136	-17.697494	-16.524016	-1.808943	0.000846	-0.824604	-0.658691	-0.370605	-0.264648
1013.0	23.099655	-15.481458	-13.855946	-1.346774	-0.716794	-0.054763	-0.671875	-0.368652	-0.264648
1014.0	21.0391	-7.963025	-9.058877	-1.489935	-1.576944	0.747483	-0.678955	-0.355469	-0.260498
1015.0	13.565723	1.145349	9.416817	-2.386766	-2.548823	2.060113	-0.692627	-0.338135	-0.244873
1016.0	-20.278678	12.030929	23.057021	-1.261268	-3.743989	2.715096	-0.718262	-0.305664	-0.220459
1017.0	1.968569	14.7662	12.294034	-0.623614	-4.932098	4.479597	-0.747803	-0.275391	-0.191406
1018.0	22.525768	-6.979576	1.347672	-1.172083	-4.852651	3.585241	-0.768555	-0.251709	-0.162109
1019.0	25.398271	-8.13064	0.53109	-1.579619	-4.516736	1.609523	-0.778076	-0.234375	-0.13501
1020.0	27.799659	2.391224	27.453864	-2.107211	-3.079391	1.188704	-0.782959	-0.221191	-0.130859
1021.0	29.870472	-0.131554	4.334966	-1.268896	1.057757	1.402487	-0.78125	-0.212402	-0.144531
1022.0	7.418972	16.44436	0.654139	-1.525025	1.063711	1.23261	-0.790283	-0.206055	-0.149414
1023.0	7.348421	10.299053	7.098434	-2.453876	0.267314	1.38356	-0.789063	-0.186279	-0.161133
1024.0	11.928672	-8.196151	10.833385	-1.625216	1.148398	1.167328	-0.787354	-0.170898	-0.175049
1025.0	8.601405	0.966087	6.990016	-0.867076	1.178578	0.35331	-0.7854	-0.168701	-0.188721
1026.0	6.893211	1.962611	8.241645	-0.6039	0.617004	0.218873	-0.787354	-0.173096	-0.186523
1027.0	7.440291	1.070631	8.075229	-0.30025	0.377871	0.065884	-0.789795	-0.166504	-0.197998
1028.0	6.324973	2.101125	8.125326	-0.147649	0.232316	0.030728	-0.790039	-0.164307	-0.191162
1029.0	6.597826	2.564887	7.976097	-0.041574	0.199835	-0.0061	-0.785889	-0.159912	-0.195801
1030.0	6.215606	3.511825	7.840797	-0.008697	0.130295	0.035547	-0.783203	-0.166504	-0.197998
1031.0	7.338273	2.468853	7.502039	0.023319	0.102262	0.036442	-0.787598	-0.168701	-0.193359
1032.0	6.349497	4.122524	7.577079	0.016548	0.082163	0.078332	-0.783447	-0.164307	-0.195801
1033.0	6.397467	3.173334	7.850447	0.02784	0.044011	0.162684	-0.78125	-0.162109	-0.193604
1034.0	6.456114	2.856844	7.710686	0.043423	-0.014699	0.15589	-0.783447	-0.164307	-0.193359
1035.0	6.46585	2.629636	7.670047	0.052141	-0.070552	0.116672	-0.781006	-0.168701	-0.191162
1036.0	6.347597	2.90073	7.482444	0.093693	-0.12519	0.091235	-0.787842	-0.162109	-0.200195
1037.0	6.494211	3.398689	7.299316	0.134296	-0.184058	0.104835	-0.790039	-0.162109	-0.193359
1038.0	6.380945	3.667948	7.354123	0.163781	-0.214613	0.136125	-0.785889	-0.157715	-0.184326
1039.0	6.366474	4.015868	7.211526	0.160598	-0.21702	0.192957	-0.79248	-0.157959	-0.184326
1040.0	6.69564	2.949933	7.418962	0.150516	-0.208282	0.208919	-0.78833	-0.151367	-0.18457
1041.0	6.417929	3.056571	7.557117	0.136024	-0.187992	0.190153	-0.792725	-0.14917	-0.189209
1042.0	6.54386	3.04704	7.53445	0.125477	-0.18647	0.191175	-0.78833	-0.151367	-0.179932
1043.0	6.610355	3.079536	7.510143	0.106961	-0.181637	0.182919	-0.790527	-0.153564	-0.177734
1044.0	6.589804	2.992876	7.488924	0.084171	-0.189048	0.177349	-0.794678	-0.153564	-0.175293
1045.0	6.669767	2.932992	7.508617	0.067027	-0.195189	0.174313	-0.795166	-0.146973	-0.177734
1046.0	6.629662	2.979873	7.45887	0.051227	-0.208151	0.172243	-0.792969	-0.144775	-0.180176
1047.0	6.69884	2.887167	7.486095	0.042001	-0.241149	0.170802	-0.799072	-0.153564	-0.168457
1048.0	6.72052	3.024205	7.494843	0.031405	-0.296439	0.173081	-0.795166	-0.142578	-0.171143
1049.0	6.723863	3.088712	7.550312	0.039501	-0.373483	0.195503	-0.799316	-0.146973	-0.166504
1050.0	6.692405	3.201391	7.508876	0.057152	-0.465153	0.235691	-0.799805	-0.13623	-0.162109
1051.0	6.715228	3.132878	7.637126	0.078305	-0.567863	0.283557	-0.799805	-0.138428	-0.155273
1052.0	6.044301	3.169122	7.946389	0.030675	-0.737155	0.315836	-0.804199	-0.140625	-0.150635
1053.0	6.956858	2.826807	7.695348	0.03588	-0.909177	0.321836	-0.802246	-0.131836	-0.143799
1054.0	6.44712	2.715444	7.699914	0.056762	-1.066269	0.341554	-0.804688	-0.125244	-0.132568
1055.0	6.726458	2.846402	7.780422	0.049499	-1.239436	0.346244	-0.804443	-0.129639	-0.123535
1056.0	6.486346	2.696117	7.903548	0.024282	-1.433053	0.334369	-0.811279	-0.125488	-0.114502
1057.0	6.583176	2.972841	7.827386	-0.002628	-1.637556	0.346706	-0.813721	-0.121094	-0.098633
1058.0	6.849758	2.725707	7.789798	-0.033029	-1.84951	0.374965	-0.813721	-0.121094	-0.078125
1059.0	6.461015	2.636433	8.106632	-0.070503	-2.086488	0.400222	-0.822754	-0.112549	-0.060059
1060.0	6.852136	2.662061	7.817418	-0.100422	-2.377794	0.433973	-0.818359	-0.112549	-0.046387
1061.0	6.796049	3.199734	7.570363	-0.096489	-2.696862	0.531222	-0.824951	-0.110596	-0.02124
1062.0	6.393433	3.308098	8.166054	-0.031966	-3.038325	0.63849	-0.825684	-0.097412	0.003662
1063.0	7.099474	3.45333	7.326945	0.036196	-3.392982	0.750737	-0.825439	-0.099609	0.028809
1064.0	7.094914	3.485357	7.275007	0.115907	-3.78339	0.898673	-0.823975	-0.08667	0.058105
1065.0	7.089421	3.848266	6.968222	0.163017	-4.206788	1.113085	-0.822021	-0.082275	0.09668
1066.0	7.272089	4.221345	6.861187	0.21451	-4.675161	1.395863	-0.818115	-0.067139	0.14209
1067.0	6.622442	4.579492	7.420166	0.279165	-5.310657	1.789763	-0.81665	-0.054199	0.18042
1068.0	8.381687	4.141869	8.4894	0.162357	-6.267668	2.216798	-0.806641	-0.032471	0.239258
1069.0	10.966312	4.819838	8.176952	-0.099452	-7.636964	2.267638	-0.787842	-0.012939	0.302734
1070.0	8.686786	8.21062	9.157893	0.136616	-9.021391	3.145231	-0.75415	0.01123	0.368164
1071.0	9.629485	4.591498	9.36318	0.755642	-10.403369	3.768435	-0.718506	0.043945	0.456543
1072.0	17.121119	1.651816	6.808624	1.643539	-10.447572	3.566111	-0.671875	0.076904	0.515137
1073.0	25.485181	2.752822	2.658878	2.182294	-9.117915	3.336338	-0.627686	0.111816	0.573486
1074.0	31.205512	5.296219	5.240812	2.502011	-7.650363	3.10038	-0.583008	0.138184	0.607178
1075.0	28.937762	9.653773	7.614478	2.636515	-5.882803	2.919383	-0.549316	0.162354	0.634033
1076.0	24.437826	11.65037	13.247233	1.716358	-4.616389	3.034125	-0.508789	0.186768	0.649414
1077.0	18.131292	13.534401	12.774036	0.782098	-4.213851	4.189955	-0.479248	0.206543	0.67627
1078.0	6.40226	13.169491	11.746974	-0.017899	-4.301498	4.56395	-0.433838	0.217529	0.689697
1079.0	10.872939	13.471567	14.897106	-3.051533	-5.889023	5.422601	-0.381592	0.215576	0.72168
1080.0	20.4615	11.986676	15.15609	-4.05555	-5.302011	5.469797	-0.339355	0.200684	0.73999
1081.0	19.903075	7.966081	17.573134	-2.527435	-2.282059	3.2615	-0.332275	0.189697	0.751709
1082.0	20.970792	11.706725	19.659067	-1.272628	1.840203	0.628368	-0.344971	0.178711	0.745117
1083.0	15.747675	9.810183	16.779292	-0.646582	4.495112	-1.181876	-0.385986	0.167725	0.722656
1084.0	4.147932	5.957548	13.891032	0.342424	5.631909	-2.192113	-0.424805	0.158691	0.706787
1085.0	1.460391	6.086746	10.729053	0.661894	5.994507	-2.18708	-0.463623	0.149658	0.681885
1086.0	3.361019	6.621826	8.616941	0.627872	5.999082	-1.926857	-0.498291	0.143066	0.661621
1087.0	3.660218	4.632748	7.109714	0.543272	5.889505	-1.707466	-0.532715	0.13623	0.636719
1088.0	5.382503	3.500785	6.771472	0.65858	6.011996	-1.819018	-0.567383	0.127441	0.614258
1089.0	7.094113	3.320258	6.493865	0.795309	6.278683	-2.112634	-0.601807	0.118652	0.58252
1090.0	8.017712	3.7548	6.192868	0.822482	6.569837	-2.373151	-0.643066	0.111816	0.552979
1091.0	8.287388	3.841705	6.030133	0.771066	6.790224	-2.496213	-0.684082	0.105225	0.514404
1092.0	8.468924	3.24459	5.684743	0.762614	6.942767	-2.533268	-0.718506	0.092041	0.473877
1093.0	8.466133	2.830085	5.242548	0.855794	7.023607	-2.532461	-0.755127	0.080811	0.421631
1094.0	8.278819	2.611314	4.748848	1.02289	7.025154	-2.528125	-0.789795	0.076416	0.376221
1095.0	8.196187	2.564659	4.502651	1.223773	6.901196	-2.520942	-0.819336	0.054443	0.326416
1096.0	8.709561	2.447237	4.579203	1.467616	6.679843	-2.533773	-0.842773	0.043701	0.278809
1097.0	9.472216	2.679358	4.695286	1.749602	6.448282	-2.597251	-0.861572	0.026123	0.226807
1098.0	10.619341	3.864482	5.157934	2.012633	6.191537	-2.699736	-0.87793	0.0	0.190918
1099.0	11.927666	5.509164	5.855672	2.140932	5.897205	-2.859478	-0.894531	-0.017578	0.147949
1100.0	12.620404	6.240339	6.558142	2.209497	5.497236	-3.142779	-0.904541	-0.037109	0.114258
1101.0	14.050063	6.532386	7.375869	2.254302	4.998886	-3.489191	-0.929443	-0.070068	0.094238
1102.0	17.092863	7.546427	8.047573	2.223134	4.579873	-3.746227	-0.947998	-0.091797	0.067383
1103.0	21.060914	9.099668	8.016242	2.219942	4.273853	-3.92015	-0.980713	-0.137939	0.043213
1104.0	25.487478	9.256875	6.9014	2.224608	4.157931	-4.126863	-1.012451	-0.161865	0.007324
1105.0	26.536204	6.198001	4.325843	2.203961	3.987399	-4.361844	-1.051758	-0.210205	-0.016846
1106.0	26.653351	0.685225	0.298015	2.375889	3.38299	-4.541241	-1.088867	-0.256104	-0.056885
1107.0	29.368796	-1.377167	-2.880447	2.623195	2.579227	-4.422131	-1.118408	-0.328369	-0.0896
1108.0	32.927564	-2.541614	-4.979477	2.481686	1.966601	-4.024028	-1.137451	-0.391602	-0.115723
1109.0	32.85432	-6.426211	-7.35653	1.995225	1.621615	-3.613769	-1.134521	-0.454834	-0.130371
1110.0	30.507944	-10.462517	-10.075271	1.439331	1.358995	-3.213475	-1.125732	-0.50708	-0.147461
1111.0	28.273736	-12.991208	-12.502971	0.833339	1.058114	-2.659348	-1.119629	-0.548584	-0.151367
1112.0	26.346703	-13.700341	-13.895946	0.202034	0.69741	-1.957833	-1.111816	-0.576904	-0.148438
1113.0	26.163096	-13.600682	-14.757812	-0.36265	0.388785	-1.219402	-1.112793	-0.603027	-0.154785
1114.0	24.316669	-14.781502	-15.052342	-0.55685	-0.019367	-0.517058	-1.12085	-0.616211	-0.154541
1115.0	21.827254	-13.731156	-14.418988	-0.274263	-0.580538	0.071779	-1.126465	-0.638184	-0.133545
1116.0	18.817945	2.462352	-4.152881	-1.525232	-1.697231	0.786167	-1.148438	-0.631836	-0.113037
1117.0	14.883767	6.808601	2.882159	-4.872597	-2.96133	2.796502	-1.182129	-0.610107	-0.086182
1118.0	-22.07838	5.419871	21.086077	-4.164015	-4.478905	2.830755	-1.207031	-0.588623	-0.041016
1119.0	3.360306	6.994575	17.662651	-2.817516	-5.612334	3.806274	-1.241455	-0.552002	0.026611
1120.0	23.903407	-21.200509	-0.166372	-3.055623	-4.872688	3.365849	-1.259766	-0.534668	0.074219
1121.0	40.571963	0.041865	19.252317	-4.7481	-3.666085	1.826985	-1.277588	-0.526123	0.076416
1122.0	42.12121	-21.513953	8.771202	-2.675655	1.321344	1.982403	-1.287354	-0.502197	0.041748
1123.0	4.077562	6.368645	6.849798	-0.075599	2.742726	1.528153	-1.294189	-0.493408	0.016602
1124.0	6.035279	20.831005	5.373516	-1.657344	1.272455	1.109549	-1.30127	-0.482422	0.002686
1125.0	10.610802	-15.439765	11.789491	-0.662476	1.54359	1.098848	-1.310547	-0.471436	-0.024902
1126.0	7.246065	8.835438	5.607506	-0.50955	1.276034	0.211708	-1.308105	-0.473633	-0.040771
1127.0	7.900749	0.972145	8.168701	-0.399994	0.735114	0.350089	-1.310791	-0.467041	-0.045654
1128.0	7.175029	1.902661	7.598665	-0.175589	0.564269	0.13504	-1.299561	-0.471436	-0.059082
1129.0	7.047659	3.051543	7.494676	-0.094194	0.410955	0.072045	-1.306396	-0.464844	-0.056885
1130.0	6.345153	4.537992	7.573302	-0.077598	0.372787	0.168506	-1.310791	-0.462646	-0.059326
1131.0	6.593856	2.327251	7.980483	-0.088884	0.300858	0.220931	-1.308594	-0.464844	-0.068359
1132.0	7.116104	2.638342	7.846861	-0.089006	0.255141	0.11998	-1.308838	-0.458252	-0.072998
1133.0	6.171235	4.124853	7.828166	-0.119405	0.236216	0.189214	-1.311035	-0.460449	-0.066162
1134.0	6.397732	2.361524	8.19971	-0.120777	0.175596	0.236471	-1.313477	-0.456055	-0.066162
1135.0	6.341989	2.545664	8.04718	-0.111576	0.107092	0.171608	-1.309326	-0.45166	-0.075439
1136.0	6.296679	2.336993	7.896299	-0.10763	0.040778	0.126939	-1.306885	-0.456055	-0.070801
1137.0	6.35937	2.744052	7.866117	-0.099502	0.011822	0.081902	-1.315674	-0.45166	-0.075439
1138.0	6.280897	2.722803	7.774084	-0.087374	-0.032184	0.052238	-1.311279	-0.453857	-0.066406
1139.0	6.369621	3.455237	7.524311	-0.075957	-0.048342	0.05024	-1.315674	-0.45166	-0.075439
1140.0	6.411721	3.487076	7.355161	-0.076176	-0.043387	0.090115	-1.311768	-0.445313	-0.075684
1141.0	6.395812	3.500028	7.34681	-0.072961	-0.017732	0.120699	-1.316162	-0.440918	-0.071045
1142.0	6.182946	3.19387	7.521299	-0.064631	-0.010748	0.144359	-1.309814	-0.440918	-0.068848
1143.0	6.195482	3.035854	7.561654	-0.047856	-0.015467	0.136953	-1.318359	-0.440918	-0.071045
1144.0	6.383903	2.998868	7.51377	-0.038516	-0.019049	0.146924	-1.318604	-0.434326	-0.06665
1145.0	6.198748	3.045529	7.610266	-0.026935	-0.029123	0.147993	-1.312012	-0.438721	-0.06665
1146.0	6.276706	2.825145	7.642425	-0.020117	-0.036571	0.144216	-1.31665	-0.432129	-0.071289
1147.0	6.31891	2.722003	7.624428	-0.01082	-0.048697	0.1388	-1.318848	-0.432129	-0.062256
1148.0	6.285892	2.705557	7.765329	0.003027	-0.070374	0.123125	-1.31665	-0.429932	-0.062256
1149.0	6.368443	2.688042	7.75461	0.018026	-0.108537	0.12131	-1.316895	-0.425537	-0.069092
1150.0	6.355836	2.817217	7.795091	0.021311	-0.152794	0.123356	-1.319092	-0.425781	-0.053223
1151.0	6.370915	2.810529	7.85535	0.039882	-0.225647	0.134231	-1.323486	-0.425781	-0.050781
1152.0	6.404849	2.748004	7.853142	0.051285	-0.305492	0.154097	-1.319336	-0.419189	-0.044189
1153.0	6.294418	2.828609	7.954639	0.070361	-0.397249	0.167924	-1.328125	-0.416992	-0.041992
1154.0	6.359132	2.762617	8.030161	0.075838	-0.505055	0.186146	-1.32373	-0.421387	-0.034912
1155.0	5.907586	2.874587	8.36058	0.068303	-0.654651	0.212066	-1.32373	-0.416992	-0.026123
1156.0	6.410683	2.68864	8.143588	0.060317	-0.81792	0.218201	-1.324219	-0.410645	-0.010254
1157.0	6.165088	2.743395	8.047918	0.073524	-0.976913	0.24912	-1.331055	-0.404053	-0.001221
1158.0	6.443882	2.768106	8.11046	0.089184	-1.14765	0.276918	-1.329102	-0.397461	0.012451
1159.0	6.242668	2.729667	8.185841	0.065128	-1.324344	0.297787	-1.324707	-0.395264	0.035156
1160.0	6.648799	2.588335	8.119496	0.027325	-1.526779	0.304975	-1.329346	-0.391113	0.051025
1161.0	6.146607	2.603503	8.248061	-0.000942	-1.737208	0.327897	-1.332031	-0.380127	0.073486
1162.0	6.688145	2.700615	8.07879	-0.044356	-1.96237	0.352519	-1.327881	-0.373779	0.096191
1163.0	6.539414	2.752672	8.179205	-0.095292	-2.187894	0.407906	-1.330322	-0.367188	0.125732
1164.0	6.706386	3.040992	7.986509	-0.137241	-2.42204	0.494875	-1.328857	-0.354248	0.155029
1165.0	6.915962	3.460178	7.823328	-0.157831	-2.682423	0.620314	-1.331299	-0.345703	0.18457
1166.0	7.465659	3.957081	7.457204	-0.139303	-2.953589	0.821707	-1.327881	-0.328125	0.227539
1167.0	6.404263	4.555837	7.755898	-0.101894	-3.210524	1.06549	-1.333008	-0.308838	0.270508
1168.0	7.864472	4.914684	7.390078	-0.084344	-3.535331	1.409783	-1.316406	-0.29126	0.317871
1169.0	7.534296	5.564963	7.91596	-0.08759	-3.956287	1.83211	-1.317871	-0.256592	0.36499
1170.0	7.778893	6.320289	8.004048	-0.215301	-4.468994	2.283438	-1.299316	-0.232422	0.419434
1171.0	8.006374	7.01058	7.114722	-0.330963	-5.044948	2.889316	-1.288574	-0.182373	0.482178
1172.0	7.467527	6.465212	6.420324	-0.16341	-5.794925	3.606681	-1.258301	-0.125732	0.567627
1173.0	10.963867	3.882022	6.385538	0.241946	-6.804236	4.307421	-1.223633	-0.071045	0.650879
1174.0	13.393152	4.728348	6.543322	0.951678	-8.072798	5.070872	-1.16626	0.009766	0.749512
1175.0	13.833291	6.243524	9.939647	2.076509	-8.845491	5.691753	-1.097412	0.084229	0.850342
1176.0	20.292589	3.912699	10.018642	2.779714	-8.442939	5.002183	-1.018311	0.165283	0.92627
1177.0	27.75876	10.026777	9.724447	2.661375	-7.170458	3.931669	-0.949463	0.237549	0.977051
1178.0	28.094363	8.303088	10.215204	2.154423	-5.036285	4.408537	-0.889404	0.305664	0.998535
1179.0	25.542893	7.585825	12.134001	1.150549	-3.595218	6.013681	-0.835449	0.369141	1.013184
1180.0	11.748618	19.095367	11.81746	0.022566	-3.140471	5.749483	-0.771973	0.413086	1.030518
1181.0	4.435904	17.996805	13.289297	-1.16421	-3.620725	5.531551	-0.716553	0.441895	1.059326
1182.0	4.224841	19.590168	13.697404	-4.438493	-4.335956	5.23372	-0.650146	0.418213	1.107666
1183.0	14.525984	12.557849	11.861311	-4.594426	-4.186779	3.491767	-0.611572	0.387695	1.137939
1184.0	15.856049	11.087334	17.082886	-2.800092	-1.763265	0.341463	-0.619141	0.36377	1.142822
1185.0	14.157411	13.373663	17.939606	-1.184216	1.327482	-2.61272	-0.67041	0.337158	1.136719
1186.0	7.433224	11.513123	15.498703	-0.83901	2.927088	-3.682805	-0.728027	0.306396	1.105469
1187.0	4.551409	5.270005	13.561931	-0.393479	3.60824	-4.062153	-0.813721	0.275391	1.067383
1188.0	3.718897	1.721253	12.145331	0.474581	3.955484	-4.231966	-0.893311	0.248779	1.010986
1189.0	4.520443	0.509941	10.70564	1.234045	4.299532	-4.10295	-0.977051	0.217773	0.925049
1190.0	6.139547	0.091825	10.01932	1.694733	4.699718	-3.884461	-1.036133	0.17627	0.843994
1191.0	7.32145	-1.063971	9.585811	2.046252	5.045624	-3.679325	-1.086914	0.136963	0.735352
1192.0	7.541105	-1.298701	9.008221	2.354942	5.420411	-3.566617	-1.113525	0.099854	0.635986
1193.0	7.564474	-0.560571	8.886518	2.515708	5.688173	-3.461733	-1.123047	0.06958	0.531738
1194.0	7.572471	-0.193417	8.607358	2.550771	5.856716	-3.338128	-1.137695	0.052246	0.424805
1195.0	7.403932	-0.16829	8.301109	2.553504	5.927759	-3.265913	-1.141357	0.037354	0.313477
1196.0	7.287258	-0.383151	8.091453	2.564622	5.880658	-3.239409	-1.134033	0.022461	0.179443
1197.0	7.340169	-0.516201	8.107225	2.603303	5.729464	-3.208484	-1.080078	-0.01416	0.047852
1198.0	8.072825	-0.877127	8.331133	2.685602	5.506421	-3.157885	-0.989502	-0.043701	-0.052002
1199.0	8.941122	-0.920138	8.892688	2.808502	5.281008	-3.103498	-0.877441	-0.05835	-0.099609
1200.0	10.521464	-0.245308	9.774059	2.915641	5.088283	-3.063903	-0.770264	-0.020508	-0.105225
1201.0	11.575414	0.152129	10.573754	2.998204	4.914552	-3.087021	-0.724609	0.032227	-0.090332
1202.0	12.180272	-0.278	11.094257	3.165811	4.712906	-3.153999	-0.738037	0.088867	-0.082275
1203.0	13.686733	-0.538594	11.313813	3.345764	4.543155	-3.137058	-0.806885	0.118896	-0.098633
1204.0	15.887927	-0.424237	11.380919	3.468746	4.422993	-2.935582	-0.879883	0.090332	-0.157227
1205.0	18.787729	-0.342439	11.038754	3.693898	4.321273	-2.666066	-0.922363	0.018311	-0.226563
1206.0	21.537086	-1.850906	9.90591	4.072877	4.254045	-2.553138	-0.911865	-0.071045	-0.283936
1207.0	23.428864	-4.383266	8.096167	4.517137	4.119749	-2.656998	-0.864502	-0.155762	-0.314209
1208.0	25.326828	-6.087536	6.022782	4.832764	3.867262	-2.828799	-0.817139	-0.19043	-0.315918
1209.0	27.264369	-6.116222	4.110324	4.750079	3.577025	-2.880665	-0.791992	-0.216553	-0.308594
1210.0	28.964864	-5.032711	2.07551	3.940282	3.291044	-2.719306	-0.772461	-0.216309	-0.317871
1211.0	28.780954	-5.123068	-0.700999	2.419954	3.053811	-2.454437	-0.782959	-0.220703	-0.335938
1212.0	25.83239	-8.261035	-4.841392	0.773543	2.671254	-2.152236	-0.786865	-0.23584	-0.367432
1213.0	23.307848	-13.245602	-8.784337	-0.254499	2.042693	-1.73259	-0.792725	-0.246826	-0.394531
1214.0	21.587775	-17.050237	-10.384263	-0.34287	1.323465	-1.294001	-0.796631	-0.257813	-0.417236
1215.0	22.160176	-17.377516	-9.52646	-0.078428	0.741486	-0.729549	-0.805176	-0.261963	-0.435303
1216.0	22.579945	-16.010641	-7.784283	0.02697	0.451384	0.007495	-0.824707	-0.264404	-0.444336
1217.0	22.13943	-15.006292	-5.589798	-0.085504	0.297498	0.890616	-0.835938	-0.26001	-0.458252
1218.0	20.797688	-13.415939	-3.556815	-0.211565	0.236979	1.739574	-0.860352	-0.24707	-0.467529
1219.0	20.255202	2.627247	7.779163	-2.278759	0.003452	2.818024	-0.875488	-0.205566	-0.477295
1220.0	-1.997371	8.160529	24.461246	-2.656749	0.308116	3.745155	-0.894775	-0.162109	-0.487305
1221.0	-16.964339	34.268294	14.318314	-1.803078	-0.611323	6.559689	-0.932617	-0.094727	-0.488525
1222.0	4.149012	13.506487	5.175163	-2.664418	-3.023698	7.351397	-0.961914	-0.025146	-0.480957
1223.0	20.494868	-3.832453	-6.36024	-4.827094	-2.974782	4.752138	-0.990479	0.029297	-0.46582
1224.0	39.570624	3.241206	8.494775	-7.863734	-2.029847	2.546489	-1.003906	0.081543	-0.455566
1225.0	13.301554	-15.938837	15.420165	-4.663875	0.025	1.613733	-1.00708	0.105469	-0.462891
1226.0	3.465975	-5.262234	13.492623	-2.212718	0.806582	1.148001	-0.996582	0.116455	-0.476807
1227.0	8.7466	-3.358206	9.383666	-0.968017	1.121149	0.879246	-0.999023	0.123047	-0.490479
1228.0	11.84074	-2.088752	6.598166	-0.611333	1.055925	0.323429	-0.99707	0.125244	-0.499756
1229.0	7.100859	-3.091968	8.119582	-0.263494	0.810137	0.022445	-0.994873	0.127686	-0.515625
1230.0	8.069081	1.989592	7.527963	0.108762	0.641678	0.008218	-0.990479	0.123291	-0.513428
1231.0	7.088969	4.80099	7.39029	0.140995	0.33158	0.160209	-0.988281	0.125488	-0.520264
1232.0	7.641438	0.296111	7.647533	0.187698	0.189265	0.121813	-0.986084	0.125488	-0.524902
1233.0	6.910874	1.106851	8.012032	0.241875	0.090924	-0.070809	-0.992676	0.125488	-0.524902
1234.0	6.804569	2.065048	7.976546	0.302624	-0.017833	-0.147554	-0.994629	0.118896	-0.526855
1235.0	6.816694	2.175868	7.875723	0.357398	-0.16432	-0.187984	-0.996826	0.118896	-0.517822
1236.0	6.583674	2.379453	7.771426	0.42235	-0.283211	-0.217064	-0.996582	0.112305	-0.52002
1237.0	6.627809	2.42627	7.600997	0.497073	-0.419355	-0.243691	-0.998291	0.105713	-0.515381
1238.0	6.641182	2.754385	7.351403	0.571869	-0.54366	-0.251625	-1.004883	0.103516	-0.508301
1239.0	6.661394	2.768323	7.242233	0.64918	-0.635059	-0.26981	-1.009033	0.099121	-0.506104
1240.0	6.689326	3.428634	7.200575	0.690491	-0.732923	-0.27154	-1.008545	0.090332	-0.496826
1241.0	6.789717	3.610212	7.092089	0.680014	-0.798821	-0.254446	-1.019287	0.088135	-0.494385
1242.0	6.870348	3.843309	7.059288	0.643167	-0.821184	-0.220063	-1.023926	0.090332	-0.485352
1243.0	6.900233	3.781027	7.019706	0.571778	-0.809233	-0.180589	-1.029785	0.079346	-0.476074
1244.0	6.881035	3.863679	6.968599	0.501575	-0.7832	-0.124194	-1.029785	0.079102	-0.4646
1245.0	6.980824	3.87095	6.887588	0.432367	-0.757058	-0.058769	-1.036133	0.074707	-0.459961
1246.0	7.036507	3.921912	6.78466	0.366281	-0.714891	-0.001258	-1.036133	0.07251	-0.45752
1247.0	7.042076	3.752852	6.751288	0.306157	-0.677	0.050915	-1.044922	0.076904	-0.450928
1248.0	7.185646	3.67973	6.674827	0.255335	-0.649477	0.082813	-1.03833	0.074707	-0.432617
1249.0	7.228269	3.489224	6.585625	0.213328	-0.615487	0.093132	-1.042725	0.074707	-0.439453
1250.0	7.304672	3.464124	6.505713	0.180382	-0.58604	0.09452	-1.044922	0.074707	-0.430176
1251.0	7.571909	3.5187	6.522121	0.153376	-0.529795	0.100208	-1.060059	0.072266	-0.42334
1252.0	7.369809	3.575903	6.493375	0.141056	-0.473806	0.114287	-1.047119	0.076904	-0.416748
1253.0	7.488894	3.503892	6.605751	0.127693	-0.433243	0.12557	-1.053955	0.078857	-0.423584
1254.0	7.46688	3.48299	6.552267	0.132398	-0.379989	0.139024	-1.05835	0.081055	-0.414551
1255.0	7.772245	3.435737	6.699131	0.113936	-0.254664	0.140107	-1.058105	0.078857	-0.414307
1256.0	7.658217	3.407227	6.503384	0.071713	-0.125351	0.138545	-1.056152	0.078857	-0.414307
1257.0	7.405589	3.715835	6.607608	0.010598	-0.058528	0.143181	-1.05835	0.081055	-0.416748
1258.0	7.591299	3.457632	6.603544	-0.013867	0.005307	0.174437	-1.054199	0.085449	-0.414551
1259.0	7.299564	3.703813	6.32143	0.000562	0.007967	0.217557	-1.047607	0.083252	-0.414551
1260.0	7.37276	3.59576	6.227504	0.037736	-0.034747	0.272577	-1.04541	0.087646	-0.416992
1261.0	7.262448	3.601784	6.038914	0.080859	-0.087329	0.354505	-1.048096	0.094238	-0.412354
1262.0	7.414016	3.667095	6.109789	0.12692	-0.163945	0.449718	-1.05249	0.098633	-0.410156
1263.0	7.353545	3.691973	5.9758	0.200252	-0.230635	0.556355	-1.050293	0.096436	-0.410156
1264.0	7.514569	4.453231	5.869613	0.306649	-0.272298	0.697454	-1.052979	0.109375	-0.408203
1265.0	7.586327	3.918281	5.625791	0.450173	-0.291661	0.898288	-1.049072	0.115967	-0.408203
1266.0	8.007319	6.278574	4.938136	0.556519	-0.274311	1.09456	-1.053711	0.126953	-0.401611
1267.0	8.262261	0.695527	5.155841	1.095352	-0.104442	1.413846	-1.045166	0.12915	-0.40625
1268.0	8.428607	4.084251	4.293534	1.75003	0.16218	1.769635	-1.04126	0.140137	-0.41333
1269.0	8.889496	4.940139	3.992862	2.229865	0.389973	2.153023	-1.041748	0.151123	-0.42041
1270.0	8.917429	4.450499	3.861291	2.759772	0.626723	2.598016	-1.031494	0.162109	-0.425293
1271.0	9.173569	4.829606	3.513903	3.227865	0.888549	3.011462	-1.021484	0.181885	-0.434814
1272.0	9.368201	4.986551	3.293412	3.641775	1.185095	3.372257	-1.010986	0.195068	-0.459961
1273.0	9.478645	5.204415	3.483082	3.978863	1.470987	3.728825	-0.994385	0.212646	-0.471924
1274.0	9.141026	5.416919	3.725355	4.247109	1.635897	4.078319	-0.979736	0.22583	-0.49707
1275.0	8.590433	5.209538	4.293663	4.525377	1.635704	4.35991	-0.965332	0.243408	-0.513428
1276.0	8.681483	5.466205	4.522156	4.71955	1.586704	4.593771	-0.946045	0.254639	-0.53418
1277.0	8.53998	5.282399	4.576828	4.917801	1.53643	4.813486	-0.922852	0.272217	-0.55957
1278.0	8.406178	4.676356	4.716144	5.159964	1.45924	4.987583	-0.903564	0.276855	-0.580322
1279.0	8.172205	4.449741	4.992905	5.382301	1.382093	5.107356	-0.882324	0.287842	-0.598877
1280.0	7.61995	3.897027	5.254474	5.614695	1.268029	5.152437	-0.858154	0.285889	-0.616943
1281.0	7.485758	3.85195	5.567561	5.835432	1.164111	5.118023	-0.84082	0.286133	-0.635254
1282.0	7.437168	3.681007	5.971257	6.008297	1.102911	5.034507	-0.807373	0.273193	-0.657715
1283.0	7.387325	3.831692	6.330097	6.084584	1.114587	4.918011	-0.796387	0.27124	-0.671387
1284.0	7.235687	3.879507	6.409483	6.106548	1.14856	4.776869	-0.771729	0.253906	-0.682617
1285.0	7.377278	4.02641	6.659427	6.073325	1.219205	4.63399	-0.749023	0.236572	-0.700439
1286.0	7.917604	4.221312	6.668221	5.88658	1.414455	4.5047	-0.730957	0.223633	-0.713867
1287.0	7.741359	4.540797	6.069973	5.744506	1.586906	4.409157	-0.706055	0.199707	-0.729492
1288.0	7.940153	4.342464	5.663456	5.673165	1.717423	4.351404	-0.685791	0.184814	-0.74292
1289.0	8.06626	4.312413	5.172056	5.708593	1.82675	4.330751	-0.658447	0.160889	-0.744629
1290.0	8.447284	4.725085	5.085331	5.764463	1.95216	4.332726	-0.63501	0.126221	-0.753174
1291.0	8.795029	5.677852	5.1616	5.704645	2.123734	4.376357	-0.618896	0.104492	-0.76416
1292.0	8.624959	5.960223	4.706513	5.558258	2.280642	4.435873	-0.593506	0.076172	-0.765869
1293.0	8.703419	5.753629	4.48139	5.452484	2.396487	4.492784	-0.566895	0.063232	-0.772461
1294.0	8.83112	7.088456	4.414622	5.289503	2.500743	4.527113	-0.534668	0.028564	-0.765137
1295.0	8.911455	7.242788	4.896603	4.888126	2.534838	4.51909	-0.516602	0.01123	-0.764648
1296.0	8.25465	7.00666	5.614881	4.369326	2.465707	4.471261	-0.487549	-0.003906	-0.759766
1297.0	7.940403	5.530935	4.578123	3.861184	2.269703	4.337159	-0.478027	-0.023438	-0.74585
1298.0	7.49238	6.936798	0.24043	3.532412	1.761476	3.496309	-0.455322	-0.040771	-0.725098
1299.0	9.362324	8.289167	-1.37868	3.359267	1.009424	2.033204	-0.449707	-0.069336	-0.706299
1300.0	10.642232	8.114344	-0.922255	3.021186	0.316941	0.740041	-0.438232	-0.082275	-0.678711
1301.0	10.725956	5.630868	-0.307673	2.671922	-0.203265	-0.134168	-0.432861	-0.106445	-0.657715
1302.0	10.610401	3.98238	1.303196	2.453765	-0.696303	-0.714374	-0.42749	-0.123779	-0.632324
1303.0	11.117671	1.631295	3.052991	2.202552	-0.99996	-0.911123	-0.420166	-0.141357	-0.602295
1304.0	11.706724	-0.86825	4.124121	2.086522	-1.098768	-0.771389	-0.397949	-0.154297	-0.576904
1305.0	12.013661	-0.065351	4.798224	2.016132	-1.011471	-0.458271	-0.388672	-0.163086	-0.563232
1306.0	12.144994	0.339975	5.01487	1.829545	-0.843352	-0.043324	-0.368896	-0.169434	-0.538086
1307.0	11.64157	0.447697	4.949496	1.701105	-0.671074	0.386778	-0.353516	-0.171631	-0.528809
1308.0	11.063926	0.144793	4.515199	1.721791	-0.52348	0.757536	-0.336182	-0.169434	-0.515137
1309.0	10.677872	0.029212	4.156443	1.927373	-0.417891	1.043467	-0.318604	-0.171387	-0.512939
1310.0	10.092095	0.106763	3.741234	2.217103	-0.357859	1.252743	-0.299072	-0.169189	-0.506104
1311.0	9.739322	0.247076	4.000316	2.517756	-0.354571	1.421871	-0.279297	-0.171143	-0.506104
1312.0	10.474458	2.08818	5.528255	2.453429	-0.301665	1.683642	-0.257568	-0.168945	-0.510742
1313.0	9.221953	0.880567	5.81063	2.485429	-0.201581	1.77361	-0.246582	-0.170898	-0.519775
1314.0	9.005173	0.966124	5.92154	2.377443	-0.144664	1.871907	-0.230957	-0.181885	-0.526611
1315.0	8.326817	1.119117	6.183788	2.307368	-0.127541	1.813253	-0.217285	-0.192627	-0.542236
1316.0	7.560795	1.140593	6.47091	2.189769	-0.14653	1.703259	-0.199463	-0.203369	-0.5625
1317.0	6.622073	1.141967	7.061845	1.953764	-0.198239	1.55978	-0.192139	-0.220703	-0.578125
1318.0	5.777255	1.038842	8.294365	1.625618	-0.229158	1.369644	-0.188965	-0.242432	-0.598389
1319.0	5.254277	0.580847	9.664738	1.330281	-0.197969	1.101993	-0.192383	-0.26416	-0.618408
1320.0	5.071714	0.850732	10.855958	0.987897	-0.130548	0.913949	-0.188965	-0.29248	-0.62915
1321.0	4.861285	1.268921	11.934076	0.64971	0.071072	0.800268	-0.196533	-0.31665	-0.656006
1322.0	4.2789	0.986395	12.004683	0.500842	0.323384	0.719147	-0.195557	-0.338379	-0.666992
