Acquisition frequency: 100 Hz
PacketCounter	Acc_X	Acc_Y	Acc_Z	Gyr_X	Gyr_Y	Gyr_Z	Mag_X	Mag_Y	Mag_Z
0.0	9.850924	0.203478	-0.085412	0.017228	0.018253	-0.004855	-0.67749	0.187744	-0.4646
1.0	9.849123	0.154774	-0.060048	0.01558	0.015656	-0.004105	-0.684326	0.189941	-0.469238
2.0	9.864768	0.194037	-0.05244	0.0112	0.01406	-0.005481	-0.681885	0.189941	-0.469238
3.0	9.839065	0.176509	-0.065536	0.012929	0.010667	-0.006124	-0.681885	0.187744	-0.469238
4.0	9.886681	0.202913	-0.057694	0.012929	0.010668	-0.006125	-0.681885	0.189941	-0.469238
5.0	9.867272	0.154311	-0.084444	0.015736	0.013697	-0.005981	-0.679688	0.189941	-0.473877
6.0	9.876617	0.22461	-0.06326	0.020373	0.015409	-0.0024	-0.67749	0.189941	-0.473877
7.0	9.864747	0.196673	-0.046374	0.013832	0.010989	-0.007439	-0.67749	0.187744	-0.466797
8.0	9.860983	0.1868	-0.066981	0.013932	0.013068	-0.00336	-0.686523	0.189941	-0.47168
9.0	9.860983	0.187247	-0.065632	0.013261	0.014815	-0.005904	-0.67749	0.187744	-0.469238
10.0	9.839055	0.180087	-0.05673	0.018956	0.01488	-0.005506	-0.677246	0.185547	-0.468994
11.0	9.860981	0.188311	-0.062801	0.016895	0.014136	-0.005091	-0.677246	0.185547	-0.468994
12.0	9.842796	0.191521	-0.032122	0.016481	0.015994	-0.005428	-0.679688	0.192139	-0.467041
13.0	9.825252	0.191951	-0.082353	0.017798	0.014458	-0.006405	-0.684326	0.194336	-0.464844
14.0	9.882904	0.197786	-0.065873	0.016225	0.015887	-0.007638	-0.684082	0.187744	-0.469238
15.0	9.86097	0.190757	-0.05695	0.017798	0.014462	-0.006406	-0.681885	0.189941	-0.467041
16.0	9.864692	0.201885	-0.03399	0.01837	0.01064	-0.007941	-0.681885	0.189941	-0.467041
17.0	9.860955	0.192221	-0.054618	0.013419	0.012861	-0.007783	-0.681885	0.189941	-0.469238
18.0	9.88288	0.200589	-0.060881	0.01615	0.011865	-0.005655	-0.681885	0.189941	-0.469238
19.0	9.882877	0.20111	-0.059628	0.016894	0.014153	-0.005098	-0.684326	0.192139	-0.47168
20.0	9.892934	0.180991	-0.049981	0.015322	0.015582	-0.006333	-0.679688	0.187744	-0.473877
21.0	9.860939	0.194477	-0.049138	0.015163	0.017553	-0.004464	-0.681885	0.185547	-0.468994
22.0	9.860935	0.195106	-0.047449	0.020348	0.0174	-0.008479	-0.684082	0.185547	-0.473633
23.0	9.88287	0.203272	-0.053122	0.019794	0.01928	-0.000885	-0.677246	0.185547	-0.468994
24.0	9.857236	0.185554	-0.065747	0.015068	0.015477	-0.008545	-0.681885	0.189941	-0.47168
25.0	9.857234	0.186172	-0.064296	0.018053	0.014597	-0.004208	-0.681885	0.187744	-0.471436
26.0	9.879169	0.194445	-0.070409	0.019116	0.012947	-0.007389	-0.67749	0.187744	-0.469238
27.0	9.864601	0.208243	-0.018221	0.020528	0.013494	-0.004287	-0.681885	0.187744	-0.469238
28.0	9.854537	0.229313	-0.025039	0.023333	0.016535	-0.004149	-0.684326	0.189941	-0.47168
29.0	9.857233	0.188065	-0.05857	0.024076	0.018827	-0.003595	-0.677246	0.18335	-0.471436
30.0	9.872793	0.227317	-0.050999	0.025066	0.013145	-0.004783	-0.688721	0.189941	-0.467041
31.0	9.869117	0.217321	-0.071424	0.029189	0.014649	-0.005617	-0.672852	0.185547	-0.466797
32.0	9.860896	0.20006	-0.032504	0.017385	0.016357	-0.006767	-0.688477	0.185547	-0.473633
33.0	9.854496	0.23175	-0.017623	0.020528	0.013511	-0.004294	-0.67749	0.187744	-0.466797
34.0	9.894715	0.237118	-0.052879	0.016895	0.014186	-0.005116	-0.679932	0.192139	-0.473877
35.0	9.832534	0.22497	-0.007705	0.017724	0.010474	-0.004433	-0.679688	0.189941	-0.469238
36.0	9.882816	0.209745	-0.034878	0.018214	0.012651	-0.006088	-0.679688	0.189941	-0.4646
37.0	9.847155	0.212793	-0.056298	0.017057	0.012219	-0.006985	-0.67749	0.189941	-0.467041
38.0	9.882793	0.211182	-0.032577	0.019281	0.010999	-0.009268	-0.684326	0.189941	-0.469238
39.0	9.864477	0.214794	-0.002624	0.017145	0.006217	-0.006854	-0.682129	0.192139	-0.469238
40.0	9.872706	0.23333	-0.039286	0.018377	0.010685	-0.007958	-0.679688	0.187744	-0.471436
41.0	9.862632	0.254734	-0.046541	0.0159	0.011792	-0.007885	-0.682129	0.194336	-0.474121
42.0	9.862617	0.255505	-0.045418	0.0159	0.011794	-0.007886	-0.67749	0.187744	-0.471436
43.0	9.872665	0.235586	-0.035978	0.014996	0.011478	-0.006574	-0.67749	0.187744	-0.466797
44.0	9.87266	0.236005	-0.034722	0.018301	0.014759	-0.002024	-0.677246	0.185547	-0.471436
45.0	9.874458	0.197753	0.012614	0.024737	0.017138	-0.001068	-0.67749	0.189941	-0.476318
46.0	9.870834	0.187279	-0.007399	0.027955	0.018331	-0.000591	-0.684082	0.18335	-0.468994
47.0	9.846303	0.166191	-0.100961	0.03281	0.015975	-0.010883	-0.670654	0.187744	-0.466797
48.0	9.863583	0.167744	-0.047641	0.028272	0.016329	-0.010396	-0.679443	0.18335	-0.471436
49.0	9.879069	0.20766	-0.040332	0.017714	0.012443	-0.01052	-0.679688	0.187744	-0.471436
50.0	9.876192	0.250632	-0.003986	0.013416	0.01485	-0.013899	-0.681885	0.187744	-0.473877
51.0	9.876161	0.251892	-0.00249	0.011189	0.016074	-0.01162	-0.681885	0.187744	-0.473877
52.0	9.858882	0.252419	-0.052702	0.012345	0.016513	-0.010725	-0.681885	0.185547	-0.471436
53.0	9.880818	0.261056	-0.058554	0.020766	0.015622	-0.008182	-0.679443	0.185547	-0.471436
54.0	9.890876	0.241094	-0.048495	0.024973	0.019232	-0.004947	-0.681641	0.18335	-0.476074
55.0	9.865336	0.223412	-0.061043	0.026045	0.017577	-0.008124	-0.67749	0.187744	-0.473877
56.0	9.868906	0.234736	-0.037539	0.02794	0.020315	-0.006682	-0.684082	0.185547	-0.480713
57.0	9.857	0.207355	-0.019973	0.023486	0.016589	-0.012127	-0.675049	0.18335	-0.478271
58.0	9.846917	0.228917	-0.02689	0.018705	0.014881	-0.007773	-0.679688	0.187744	-0.469238
59.0	9.858792	0.257997	-0.041336	0.015488	0.013687	-0.008252	-0.67749	0.187744	-0.469238
60.0	9.86884	0.238313	-0.031633	0.013178	0.012811	-0.010044	-0.684082	0.185547	-0.476074
61.0	9.868821	0.239279	-0.030435	0.011117	0.012055	-0.009627	-0.679443	0.185547	-0.478271
62.0	9.904379	0.237881	-0.006309	0.011688	0.016332	-0.007221	-0.684082	0.185547	-0.478271
63.0	9.86879	0.240899	-0.027371	0.012179	0.018511	-0.008884	-0.677246	0.18335	-0.473633
64.0	9.855168	0.251562	-0.055888	0.013259	0.014918	-0.005978	-0.679443	0.18335	-0.473633
65.0	9.875296	0.211089	-0.037584	0.01095	0.01404	-0.00777	-0.679443	0.185547	-0.480713
66.0	9.862214	0.274219	-0.009749	0.017798	0.01458	-0.006464	-0.679443	0.185547	-0.476074
67.0	9.83671	0.256465	-0.022712	0.015736	0.013823	-0.006048	-0.675049	0.18335	-0.466797
68.0	9.846765	0.236562	-0.013057	0.013843	0.011087	-0.007491	-0.686035	0.176758	-0.473389
69.0	9.824788	0.229607	-0.004804	0.015583	0.00769	-0.008105	-0.67749	0.187744	-0.471436
70.0	9.850253	0.248638	0.010111	0.014184	0.005195	-0.005129	-0.681641	0.18335	-0.478271
71.0	9.838351	0.220915	0.026295	0.017986	0.002558	-0.00616	-0.675049	0.185547	-0.473633
72.0	9.834816	0.21097	0.004769	0.020217	0.00134	-0.008436	-0.681641	0.178955	-0.471191
73.0	9.846682	0.24007	-0.010881	0.015261	0.003538	-0.008303	-0.681885	0.185547	-0.471436
74.0	9.834779	0.212682	0.005188	0.021124	0.001662	-0.009751	-0.683838	0.178955	-0.478027
75.0	9.846637	0.241915	-0.010589	0.013369	0.000799	-0.009745	-0.677246	0.18335	-0.478271
76.0	9.846615	0.242812	-0.010615	0.01494	-0.000616	-0.008499	-0.677002	0.178955	-0.473389
77.0	9.865037	0.240728	-0.039769	0.013786	-0.001057	-0.009395	-0.679443	0.181152	-0.471191
78.0	9.843061	0.23385	-0.032346	0.013199	0.002783	-0.007889	-0.679443	0.181152	-0.473633
79.0	9.854913	0.262859	-0.048221	0.016511	-0.002029	-0.007253	-0.679443	0.18335	-0.473633
80.0	9.893506	0.219718	-0.060642	0.018912	-0.005227	-0.011387	-0.684082	0.18335	-0.476074
81.0	9.864947	0.244218	-0.040764	0.019576	-0.00696	-0.008827	-0.679443	0.18335	-0.473633
82.0	9.864924	0.245055	-0.041419	0.012558	-0.005528	-0.008275	-0.679443	0.185547	-0.476074
83.0	9.836369	0.269304	-0.021696	0.017025	-0.009895	-0.006744	-0.679688	0.187744	-0.471436
84.0	9.853027	0.218279	-0.027426	0.017195	-0.011874	-0.008602	-0.681885	0.187744	-0.478516
85.0	9.846416	0.250498	-0.015475	0.019009	-0.011233	-0.011231	-0.681885	0.185547	-0.468994
86.0	9.846394	0.251292	-0.01652	0.019333	-0.009003	-0.004957	-0.679443	0.181152	-0.478271
87.0	9.852961	0.220826	-0.030478	0.019328	-0.007072	-0.011043	-0.674805	0.178955	-0.47583
88.0	9.827921	0.256014	0.010819	0.017932	-0.009566	-0.008063	-0.679199	0.176758	-0.473389
89.0	9.907355	0.270261	0.017928	0.019576	-0.006944	-0.008836	-0.681641	0.181152	-0.473633
90.0	9.874836	0.231106	-0.040525	0.013811	-0.011089	-0.007223	-0.681641	0.181152	-0.471191
91.0	9.868222	0.263024	-0.028475	0.012486	-0.009551	-0.006261	-0.681885	0.185547	-0.468994
92.0	9.918674	0.247938	-0.056966	0.012875	-0.001361	-0.008094	-0.684082	0.187744	-0.466797
93.0	9.872965	0.271107	-0.088212	0.014595	0.003365	-0.004804	-0.675049	0.18335	-0.476074
94.0	9.890113	0.272514	-0.035936	0.018547	0.006875	-0.003791	-0.684082	0.185547	-0.473633
95.0	9.908531	0.269743	-0.064197	0.021591	0.010067	-0.001463	-0.681885	0.185547	-0.473633
96.0	9.883082	0.251275	-0.077584	0.026796	0.00801	0.000609	-0.681885	0.185547	-0.473633
97.0	9.894911	0.279586	-0.092509	0.022816	0.014548	-0.002595	-0.677002	0.176758	-0.471191
98.0	9.876489	0.282684	-0.062403	0.022257	0.008343	0.001097	-0.677246	0.18335	-0.473633
99.0	9.876501	0.282486	-0.061394	0.019189	0.013275	0.002663	-0.679688	0.189941	-0.483154
100.0	9.85808	0.285204	-0.03112	0.018282	0.012958	0.003977	-0.679443	0.181152	-0.473633
101.0	9.866426	0.302257	-0.067417	0.017864	0.014817	0.003622	-0.677246	0.18335	-0.478271
102.0	9.878326	0.243533	-0.011138	0.016293	0.016229	0.002372	-0.681641	0.18335	-0.471436
103.0	9.836175	0.276472	-0.01921	0.013642	0.019306	0.004291	-0.679688	0.187744	-0.471436
104.0	9.880087	0.291543	-0.032107	0.004316	0.019833	0.003056	-0.683838	0.181152	-0.466553
105.0	9.871741	0.273829	0.007399	0.006795	0.018743	0.00299	-0.684082	0.18335	-0.473633
106.0	9.858164	0.283243	-0.020788	0.00142	0.022784	0.002764	-0.675049	0.18335	-0.468994
107.0	9.865134	0.304595	0.024465	0.005642	0.0183	0.002095	-0.679443	0.18335	-0.468994
108.0	9.870044	0.311039	-0.032852	0.007285	0.020924	0.001317	-0.679443	0.18335	-0.478271
109.0	9.859965	0.331275	-0.03957	0.010427	0.018105	0.003817	-0.67749	0.187744	-0.471436
110.0	9.838023	0.323232	-0.030552	0.003998	0.015681	0.002869	-0.679199	0.176758	-0.46875
111.0	9.838047	0.322661	-0.02891	-0.001378	0.017803	0.008729	-0.679688	0.187744	-0.476074
112.0	9.876751	0.277695	-0.03875	0.007113	0.020995	0.009256	-0.681641	0.181152	-0.473633
113.0	9.8482	0.300285	-0.016357	0.011898	0.020799	0.01098	-0.681885	0.185547	-0.468994
114.0	9.829434	0.2494	-0.041678	0.006621	0.018824	0.010925	-0.684082	0.185547	-0.476074
115.0	9.8734	0.26399	-0.054763	0.012416	0.014844	0.005423	-0.675049	0.185547	-0.478271
116.0	9.851444	0.256031	-0.045915	0.010358	0.015999	-0.000247	-0.684082	0.18335	-0.473633
117.0	9.815958	0.258097	-0.067701	0.008567	0.007226	-0.001501	-0.679443	0.181152	-0.47583
118.0	9.849824	0.29423	-0.090813	0.005623	-0.001995	-0.003648	-0.679688	0.187744	-0.473877
119.0	9.84136	0.277208	-0.053354	0.003144	-0.000903	-0.003586	-0.677246	0.18335	-0.471436
120.0	9.846354	0.284175	-0.112521	0.006851	0.002488	-0.004784	-0.681885	0.185547	-0.473633
121.0	9.90036	0.27946	-0.11843	0.014114	0.001199	-0.00312	-0.679688	0.189941	-0.476318
122.0	9.873372	0.265636	-0.051643	0.021208	0.003818	-0.005696	-0.679443	0.185547	-0.471436
123.0	9.898773	0.284685	-0.036956	0.021944	0.006126	-0.005161	-0.684082	0.185547	-0.485352
124.0	9.873351	0.266613	-0.050586	0.020618	0.007667	-0.004205	-0.681885	0.187744	-0.473877
125.0	9.888436	0.25307	-0.100565	0.019882	0.005363	-0.004742	-0.679443	0.185547	-0.471436
126.0	9.863254	0.288086	-0.05814	0.01716	0.006325	-0.006889	-0.679443	0.185547	-0.476074
127.0	9.895291	0.275797	-0.056107	0.019292	0.009212	-0.003252	-0.675049	0.18335	-0.478271
128.0	9.856372	0.267376	-0.099584	0.024817	0.013244	-0.007084	-0.681641	0.18335	-0.473633
129.0	9.85658	0.320865	-0.042226	0.025303	0.013509	-0.002668	-0.681885	0.185547	-0.471436
130.0	9.876725	0.280317	-0.023706	0.024325	0.011074	-0.005412	-0.679443	0.185547	-0.471436
131.0	9.851318	0.262252	-0.037105	0.025159	0.007361	-0.004694	-0.679443	0.18335	-0.473633
132.0	9.891832	0.267226	-0.072892	0.022362	0.004287	-0.004807	-0.679199	0.178955	-0.471191
133.0	9.866612	0.30214	-0.030721	0.021453	0.003971	-0.003493	-0.679443	0.181152	-0.47583
134.0	9.863182	0.291706	-0.051986	0.02121	0.003841	-0.005703	-0.684082	0.18335	-0.476074
135.0	9.841199	0.284414	-0.044287	0.022605	0.004426	-0.002601	-0.679443	0.185547	-0.473633
136.0	9.832711	0.267572	-0.006539	0.023372	-0.00141	-0.005937	-0.682129	0.192139	-0.476318
137.0	9.842778	0.247613	0.002088	0.023197	0.000583	-0.00409	-0.675049	0.185547	-0.476074
138.0	9.854659	0.276099	-0.014318	0.016694	-0.00589	-0.002995	-0.683838	0.181152	-0.471191
139.0	9.859708	0.282628	-0.074097	0.01652	-0.003899	-0.001148	-0.679199	0.178955	-0.473389
140.0	9.864729	0.25609	-0.006393	0.01338	-0.001086	-0.003659	-0.684082	0.185547	-0.471436
141.0	9.87139	0.224931	-0.019578	0.012396	-0.005436	-0.000304	-0.675049	0.187744	-0.476074
142.0	9.873188	0.273574	-0.045021	0.011244	-0.005887	-0.001197	-0.679443	0.18335	-0.471436
143.0	9.861298	0.245596	-0.029332	0.010409	-0.002173	-0.001921	-0.677246	0.185547	-0.471436
144.0	9.86976	0.262806	-0.067508	0.007363	-0.007292	0.001857	-0.681885	0.185547	-0.471436
145.0	9.857874	0.23462	-0.052039	0.006703	-0.005569	-0.000714	-0.681885	0.185547	-0.468994
146.0	9.866329	0.251831	-0.090401	0.000518	-0.007879	0.000556	-0.684082	0.187744	-0.471436
147.0	9.876412	0.231291	-0.082411	0.00167	-0.007427	0.001448	-0.679443	0.18335	-0.471436
148.0	9.879837	0.24204	-0.06147	0.002405	-0.005118	0.001979	-0.684082	0.18335	-0.473633
149.0	9.854442	0.223327	-0.076151	-0.002379	-0.004935	0.000255	-0.681885	0.185547	-0.466797
150.0	9.872981	0.219914	-0.105552	-0.000983	-0.004349	0.003356	-0.679443	0.185547	-0.468994
151.0	9.854451	0.222683	-0.076855	-0.002484	-0.00082	0.006157	-0.679443	0.185547	-0.471436
152.0	9.835922	0.225554	-0.04796	-0.000909	-0.000318	0.001316	-0.679443	0.185547	-0.478271
153.0	9.849446	0.215686	-0.017722	0.002056	-0.001137	0.005672	-0.677246	0.18335	-0.476074
154.0	9.871425	0.222844	-0.02513	-0.004054	0.000585	0.004902	-0.686279	0.187744	-0.469238
155.0	9.871436	0.222364	-0.025119	-0.001575	-0.000502	0.004841	-0.679443	0.181152	-0.471191
156.0	9.868014	0.210947	-0.046711	-0.006116	-0.000184	0.005326	-0.681885	0.185547	-0.473633
157.0	9.868024	0.210433	-0.046922	-0.006434	-0.004349	0.005156	-0.682129	0.192139	-0.469238
158.0	9.868034	0.209883	-0.047316	-0.005281	-0.003897	0.006049	-0.67749	0.189941	-0.473877
159.0	9.839431	0.233019	-0.027554	-0.003955	-0.005435	0.005094	-0.677246	0.18335	-0.471436
160.0	9.864613	0.197904	-0.069899	-0.006017	-0.006204	0.005518	-0.686523	0.189941	-0.469238
161.0	9.857984	0.228633	-0.057623	-0.003711	-0.005301	0.007303	-0.679443	0.18335	-0.48291
162.0	9.890044	0.215155	-0.056697	-0.004129	-0.003444	0.006941	-0.679443	0.18335	-0.468994
163.0	9.861452	0.238234	-0.037053	-0.001059	-0.008378	0.005393	-0.679688	0.189941	-0.469238
164.0	9.879985	0.234465	-0.066834	-0.001059	-0.008378	0.005393	-0.681641	0.18335	-0.468994
165.0	9.858019	0.226398	-0.060332	-0.004518	-0.009731	0.002715	-0.679443	0.18335	-0.468994
166.0	9.858016	0.226264	-0.061308	-0.000221	-0.010184	2.1e-05	-0.688477	0.185547	-0.468994
167.0	9.86809	0.205743	-0.053543	-0.003609	-0.009413	0.001399	-0.677246	0.18335	-0.473633
168.0	9.861462	0.237147	-0.041316	-0.003042	-0.00321	-0.002316	-0.684082	0.185547	-0.468994
169.0	9.876515	0.222985	-0.092331	-0.00172	-0.006654	0.002823	-0.67749	0.187744	-0.473877
170.0	9.86808	0.205745	-0.055178	-0.000563	-0.004297	-0.002379	-0.686279	0.187744	-0.469238
171.0	9.868074	0.205917	-0.055672	0.001007	-0.005702	-0.001126	-0.679688	0.187744	-0.4646
172.0	9.86461	0.195142	-0.077713	0.00059	-0.003846	-0.001487	-0.684082	0.185547	-0.473633
173.0	9.868063	0.206177	-0.056674	0.003485	-0.00679	-0.001189	-0.684082	0.185547	-0.471436
174.0	9.879939	0.23445	-0.073293	0.002651	-0.003077	-0.001911	-0.677246	0.185547	-0.466797
175.0	9.854505	0.216112	-0.087957	0.008935	-0.006791	-0.002992	-0.679443	0.18335	-0.471436
176.0	9.857958	0.227158	-0.067145	0.005056	-0.008194	6.4e-05	-0.681641	0.18335	-0.468994
177.0	9.868037	0.206738	-0.059167	0.009179	-0.006656	-0.000785	-0.679688	0.187744	-0.471436
178.0	9.85448	0.216306	-0.090168	0.012811	-0.007291	4.4e-05	-0.684082	0.185547	-0.471436
179.0	9.846067	0.199061	-0.053061	0.021302	-0.004082	0.000553	-0.679688	0.187744	-0.469238
180.0	9.842598	0.188118	-0.075048	0.027905	-0.003629	-0.000361	-0.684082	0.185547	-0.468994
181.0	9.874638	0.175488	-0.074256	0.026924	-0.006068	-0.003101	-0.681885	0.185547	-0.471436
182.0	9.846046	0.199605	-0.05494	0.028839	-0.011448	-0.005543	-0.684082	0.187744	-0.466797
183.0	9.864514	0.196841	-0.085229	0.021501	-0.014205	-0.005159	-0.681641	0.18335	-0.471436
184.0	9.861343	0.239853	-0.052438	0.021428	-0.016328	-0.009215	-0.679688	0.189941	-0.47168
185.0	9.847745	0.249974	-0.084397	0.015317	-0.016508	-0.003883	-0.681641	0.18335	-0.466797
186.0	9.85782	0.229951	-0.077179	0.016961	-0.013882	-0.004673	-0.681885	0.187744	-0.469238
187.0	9.89474	0.223697	-0.136457	0.022483	-0.011751	-0.002428	-0.683838	0.181152	-0.471191
188.0	9.886355	0.206758	-0.099922	0.028177	-0.011609	-0.002031	-0.679688	0.187744	-0.473877
189.0	9.898186	0.234989	-0.11735	0.033871	-0.011465	-0.001635	-0.681885	0.185547	-0.466797
190.0	9.860888	0.188396	-0.11619	0.034189	-0.007299	-0.001472	-0.686279	0.185547	-0.466797
191.0	9.864361	0.199791	-0.095507	0.031389	-0.008477	-0.007671	-0.682129	0.192139	-0.469238
192.0	9.876182	0.228223	-0.11288	0.035443	-0.012849	-0.000388	-0.683838	0.181152	-0.466553
193.0	9.894618	0.225162	-0.142752	0.028321	-0.003543	-0.006129	-0.684082	0.185547	-0.471436
194.0	9.854203	0.221367	-0.106715	0.027413	-0.003856	-0.004812	-0.679443	0.18335	-0.468994
195.0	9.876133	0.229522	-0.114508	0.023362	-0.001374	-0.006001	-0.681641	0.181152	-0.471191
196.0	9.869506	0.26122	-0.101997	0.022948	-0.00141	-0.000267	-0.686523	0.189941	-0.4646
197.0	9.860794	0.190929	-0.119946	0.020712	0.001703	-0.004093	-0.677246	0.18335	-0.473633
198.0	9.865998	0.250753	-0.123464	0.018651	0.000933	-0.003664	-0.684082	0.18335	-0.468994
199.0	9.872613	0.219667	-0.136045	0.016171	0.002015	-0.0036	-0.684082	0.18335	-0.473633
200.0	9.867762	0.214081	-0.076413	0.019875	0.005413	-0.004825	-0.683838	0.181152	-0.473633
201.0	9.854153	0.223731	-0.1064	0.016418	0.002158	-0.001393	-0.681885	0.185547	-0.464355
202.0	9.879584	0.242618	-0.092167	0.019386	0.003247	-0.003143	-0.684082	0.187744	-0.462158
203.0	9.867752	0.214774	-0.075657	0.014357	0.001387	-0.000963	-0.677002	0.181152	-0.464355
204.0	9.85066	0.213154	-0.12737	0.014357	0.001388	-0.000964	-0.686035	0.181152	-0.466553
205.0	9.84232	0.196206	-0.089368	0.013031	0.002925	-1e-05	-0.681885	0.185547	-0.466797
206.0	9.876097	0.231922	-0.112801	0.00898	0.005401	-0.0012	-0.677246	0.185547	-0.468994
207.0	9.854158	0.224281	-0.104793	0.009226	0.005543	0.001008	-0.681885	0.187744	-0.469238
208.0	9.847196	0.202044	-0.147333	0.009644	0.003691	0.001373	-0.684082	0.185547	-0.462158
209.0	9.872637	0.220625	-0.132752	0.006329	0.008475	0.000706	-0.681641	0.18335	-0.464355
210.0	9.850706	0.212878	-0.124237	0.01234	0.012789	0.001256	-0.690674	0.181152	-0.478271
211.0	9.854199	0.223832	-0.10178	0.008808	0.007397	0.000641	-0.681885	0.187744	-0.466797
212.0	9.876158	0.231371	-0.108498	0.012023	0.008629	0.001099	-0.681641	0.181152	-0.466553
213.0	9.894645	0.227691	-0.136725	0.012687	0.006919	0.003672	-0.679688	0.187744	-0.471436
214.0	9.850758	0.212326	-0.121047	0.010624	0.00803	-0.001999	-0.686523	0.189941	-0.467041
215.0	9.894671	0.227447	-0.135221	0.011361	0.008458	0.004624	-0.686279	0.185547	-0.468994
216.0	9.879375	0.188001	-0.139434	0.006156	0.010474	0.002544	-0.679443	0.185547	-0.471436
217.0	9.818751	0.224348	-0.119592	0.0078	0.013101	0.001746	-0.679443	0.18335	-0.466797
218.0	9.860928	0.191089	-0.108125	0.009126	0.011565	0.000793	-0.679443	0.185547	-0.473633
219.0	9.860944	0.190994	-0.106797	0.009443	0.01573	0.000947	-0.681885	0.187744	-0.471436
220.0	9.860963	0.190909	-0.105172	0.009026	0.017584	0.000579	-0.684326	0.189941	-0.462402
221.0	9.839024	0.18318	-0.09617	0.009861	0.013879	0.001313	-0.681641	0.181152	-0.473633
222.0	9.860993	0.190928	-0.102324	0.008219	0.013136	-0.003991	-0.679443	0.181152	-0.468994
223.0	9.867905	0.21326	-0.057927	0.011505	0.016509	0.000514	-0.683838	0.181152	-0.473633
224.0	9.83906	0.183472	-0.091893	0.007137	0.014819	-0.000834	-0.681885	0.185547	-0.468994
225.0	9.864477	0.202258	-0.076374	0.004658	0.015899	-0.000772	-0.679443	0.185547	-0.468994
226.0	9.883007	0.198998	-0.103829	0.011434	0.014373	-0.003534	-0.681885	0.187744	-0.4646
227.0	9.857619	0.180482	-0.116278	0.009934	0.01791	-0.000745	-0.681885	0.187744	-0.473877
228.0	9.862856	0.23993	-0.118302	0.01678	0.018526	0.00054	-0.688721	0.189941	-0.4646
229.0	9.869538	0.208457	-0.129114	0.020169	0.017765	-0.000841	-0.672852	0.187744	-0.471436
230.0	9.847591	0.200895	-0.119958	0.020169	0.017768	-0.000842	-0.681885	0.187744	-0.471436
231.0	9.861119	0.191552	-0.087972	0.018768	0.015286	0.002164	-0.679688	0.187744	-0.469238
232.0	9.861132	0.191561	-0.086478	0.020344	0.015775	-0.002683	-0.686035	0.181152	-0.466553
233.0	9.861141	0.191768	-0.085033	0.016221	0.014226	-0.001824	-0.681641	0.18335	-0.476074
234.0	9.861154	0.191757	-0.083575	0.02083	0.01607	0.00173	-0.679443	0.185547	-0.466797
235.0	9.861165	0.19187	-0.081938	0.020837	0.017951	-0.004376	-0.681885	0.187744	-0.473877
236.0	9.851093	0.21253	-0.089212	0.023559	0.017022	-0.002229	-0.686279	0.187744	-0.466797
237.0	9.861185	0.192309	-0.078488	0.025446	0.019802	-0.000824	-0.681641	0.181152	-0.473633
238.0	9.86631	0.198085	-0.135768	0.027091	0.022437	-0.001628	-0.677246	0.18335	-0.476074
239.0	9.851138	0.212793	-0.083471	0.027015	0.018418	0.000432	-0.681885	0.187744	-0.476074
240.0	9.879824	0.188768	-0.101469	0.028902	0.0212	0.001835	-0.681641	0.18335	-0.468994
241.0	9.84448	0.244259	-0.067153	0.026116	0.019986	-0.00436	-0.681885	0.185547	-0.478271
242.0	9.876538	0.231749	-0.063915	0.023067	0.014874	-0.000548	-0.681396	0.176758	-0.471191
243.0	9.863107	0.240843	-0.092832	0.018349	0.017178	0.001773	-0.679443	0.185547	-0.471436
244.0	9.866501	0.251709	-0.069581	0.021386	0.020424	0.004064	-0.686279	0.18335	-0.471436
245.0	9.854604	0.223318	-0.051075	0.027814	0.02291	0.004979	-0.677246	0.185547	-0.471436
246.0	9.857961	0.180271	-0.082817	0.028902	0.021227	0.001824	-0.683838	0.178955	-0.46875
247.0	9.871399	0.170904	-0.05023	0.02188	0.022605	0.002364	-0.681885	0.185547	-0.473633
248.0	9.854645	0.16893	-0.100081	0.026121	0.020009	-0.004372	-0.681885	0.189941	-0.469238
249.0	9.88188	0.23644	-0.109436	0.013901	0.023388	-0.00593	-0.679443	0.185547	-0.471436
250.0	9.844587	0.244073	-0.049768	0.015391	0.017976	-0.002598	-0.683838	0.181152	-0.473633
251.0	9.84125	0.233241	-0.069328	0.012255	0.020759	-0.005127	-0.679443	0.18335	-0.476074
252.0	9.888584	0.259887	-0.060794	0.015629	0.018131	-0.000392	-0.686279	0.18335	-0.471436
253.0	9.885267	0.248635	-0.080336	0.017514	0.020918	0.001009	-0.681885	0.187744	-0.471436
254.0	9.885289	0.248434	-0.078325	0.022295	0.020776	0.002731	-0.684082	0.18335	-0.476074
255.0	9.831264	0.253225	-0.070456	0.021699	0.024641	0.004183	-0.677246	0.18335	-0.48291
256.0	9.854691	0.223508	-0.028495	0.021462	0.024495	0.001974	-0.684082	0.185547	-0.476074
257.0	9.864739	0.20317	-0.017066	0.014381	0.023711	-0.00153	-0.681641	0.18335	-0.471436
258.0	9.851397	0.212352	-0.045257	0.015531	0.02418	-0.000643	-0.681885	0.187744	-0.480713
259.0	9.842733	0.195776	-0.004869	0.012635	0.027114	-0.00097	-0.677246	0.185547	-0.468994
260.0	9.851416	0.212514	-0.04006	0.010155	0.028193	-0.00092	-0.688477	0.18335	-0.478271
261.0	9.864744	0.203535	-0.006767	0.010155	0.028196	-0.000922	-0.677002	0.176758	-0.471191
262.0	9.873449	0.2202	-0.041965	0.011722	0.02681	0.000344	-0.681641	0.18335	-0.468994
263.0	9.895484	0.227574	-0.046395	0.010944	0.032688	0.003621	-0.684082	0.185547	-0.476074
264.0	9.873479	0.219926	-0.036	0.008591	0.029597	-0.002196	-0.681885	0.189941	-0.473877
265.0	9.885494	0.247668	-0.049631	0.009712	0.028201	0.004804	-0.677246	0.185547	-0.476074
266.0	9.883523	0.199262	-0.021504	0.01347	0.023424	-0.000221	-0.677002	0.181152	-0.47583
267.0	9.863499	0.23979	-0.037349	0.010808	0.026512	0.001654	-0.672607	0.18335	-0.478271
268.0	9.861508	0.191487	-0.009466	0.009758	0.020009	0.001013	-0.677246	0.185547	-0.476074
269.0	9.851501	0.211667	-0.016756	0.010174	0.018153	0.001393	-0.681885	0.185547	-0.478271
270.0	9.8703	0.207807	-0.043548	0.008427	0.021556	0.001949	-0.683838	0.181152	-0.478271
271.0	9.84828	0.200027	-0.034224	0.008843	0.0197	0.002329	-0.679443	0.185547	-0.471436
272.0	9.858296	0.179479	-0.02323	0.009259	0.017844	0.002708	-0.686279	0.18335	-0.478271
273.0	9.864756	0.201903	0.021673	0.005299	0.024341	-0.000596	-0.677246	0.185547	-0.476074
274.0	9.848307	0.199627	-0.028198	0.007695	0.019237	0.001436	-0.688477	0.18335	-0.480713
275.0	9.870356	0.206999	-0.033531	0.006363	0.020783	0.002372	-0.679443	0.18335	-0.473633
276.0	9.873582	0.218032	-0.010075	0.006363	0.020785	0.002371	-0.681885	0.185547	-0.476074
277.0	9.860384	0.226887	-0.038621	0.00728	0.021101	0.001052	-0.679443	0.18335	-0.476074
278.0	9.889223	0.202819	-0.056145	0.008611	0.019559	0.000116	-0.681641	0.181152	-0.480469
279.0	9.892438	0.213969	-0.032859	0.011323	0.018639	0.002277	-0.677246	0.18335	-0.476074
280.0	9.882458	0.234182	-0.040111	0.012741	0.021128	-0.00074	-0.683838	0.181152	-0.473633
281.0	9.838367	0.219139	-0.023575	0.015221	0.020055	-0.000786	-0.688477	0.181152	-0.48291
282.0	9.867217	0.195111	-0.041161	0.012239	0.01896	0.000957	-0.679443	0.18335	-0.478271
283.0	9.860427	0.226696	-0.027171	0.014488	0.017732	-0.001296	-0.679443	0.18335	-0.478271
284.0	9.848359	0.198869	-0.008922	0.012239	0.018964	0.000955	-0.675293	0.189941	-0.476318
285.0	9.841559	0.230413	0.005187	0.010677	0.020356	-0.00032	-0.681885	0.187744	-0.476074
286.0	9.848364	0.198784	-0.005131	0.010174	0.018184	0.001379	-0.679443	0.18335	-0.476074
287.0	9.844727	0.241658	0.03006	0.011692	0.014626	-0.001379	-0.679688	0.187744	-0.483154
288.0	9.863607	0.238196	0.002993	0.010632	0.01819	-0.004355	-0.681885	0.185547	-0.48291
289.0	9.870414	0.206789	-0.007585	0.011921	0.014785	0.000828	-0.674805	0.181152	-0.47583
290.0	9.838384	0.219526	-0.00819	0.009627	0.013846	-0.000954	-0.679443	0.185547	-0.480713
291.0	9.867259	0.195584	-0.026255	0.009627	0.013847	-0.000955	-0.677246	0.185547	-0.480713
292.0	9.848352	0.199371	0.003665	0.011189	0.012459	0.00032	-0.679443	0.18335	-0.478271
293.0	9.847326	0.23628	-0.042086	0.01013	0.016023	-0.002658	-0.675049	0.187744	-0.480713
294.0	9.87621	0.212504	-0.060125	0.009813	0.011834	-0.002779	-0.684082	0.185547	-0.478271
295.0	9.844184	0.225306	-0.061061	0.017295	0.010784	0.001127	-0.675049	0.185547	-0.476074
296.0	9.889327	0.203695	-0.027288	0.009813	0.011836	-0.002781	-0.67749	0.187744	-0.473877
297.0	9.876219	0.212969	-0.056974	0.005869	0.008249	-0.003751	-0.677246	0.185547	-0.480713
298.0	9.844182	0.226088	-0.058378	0.007618	0.004844	-0.004298	-0.679443	0.181152	-0.478271
299.0	9.832077	0.198645	-0.041407	0.008764	0.005316	-0.003407	-0.677246	0.185547	-0.471436
300.0	9.876205	0.214026	-0.055329	0.009911	0.005788	-0.002516	-0.677246	0.185547	-0.473633
301.0	9.854133	0.206858	-0.047732	0.011431	0.002225	-0.00527	-0.679443	0.181152	-0.478271
302.0	9.857253	0.218789	-0.026182	0.009138	0.001283	-0.007052	-0.681885	0.187744	-0.473877
303.0	9.886146	0.195216	-0.045409	0.009594	0.001598	-0.002636	-0.677246	0.185547	-0.48291
304.0	9.876168	0.215935	-0.054653	0.009553	-0.000577	-0.006666	-0.684082	0.187744	-0.480713
305.0	9.864062	0.188687	-0.038127	0.009366	0.001441	-0.004845	-0.677246	0.18335	-0.478271
306.0	9.904465	0.247201	-0.019098	0.006569	-0.001676	-0.004923	-0.679443	0.181152	-0.47583
307.0	9.879264	0.228727	-0.033254	0.005967	0.002201	-0.003488	-0.677246	0.18335	-0.471436
308.0	9.872412	0.260584	-0.020989	0.002984	0.001101	-0.001744	-0.681641	0.18335	-0.476074
309.0	9.870292	0.212618	0.00504	0.004861	0.003905	-0.000349	-0.681641	0.181152	-0.473633
310.0	9.886514	0.215048	0.057805	0.005909	0.010429	0.000272	-0.686279	0.18335	-0.478271
311.0	9.877139	0.181042	-0.005445	0.01748	0.008783	-0.000701	-0.679443	0.18335	-0.473633
312.0	9.87402	0.169652	-0.025936	0.015228	0.010016	0.001546	-0.684082	0.185547	-0.478271
313.0	9.86504	0.153436	0.013023	0.02074	0.011903	-0.006359	-0.679443	0.18335	-0.476074
314.0	9.902308	0.20073	0.011485	0.008537	0.005164	-0.00562	-0.681885	0.185547	-0.476074
315.0	9.838222	0.226651	0.007744	0.004407	0.00359	-0.004766	-0.681885	0.185547	-0.471436
316.0	9.872372	0.262487	-0.015566	0.003991	0.00545	-0.005154	-0.677246	0.185547	-0.480713
317.0	9.854396	0.229986	0.060753	0.002154	0.004822	-0.002519	-0.677246	0.185547	-0.478271
318.0	9.870236	0.214981	0.011222	0.006926	0.004695	-0.000777	-0.677246	0.18335	-0.480713
319.0	9.879221	0.231455	-0.026425	0.007757	0.000976	-2e-06	-0.679199	0.176758	-0.47583
320.0	9.867125	0.203677	-0.009726	0.007342	0.002836	-0.00039	-0.677246	0.18335	-0.487549
321.0	9.855024	0.176178	0.007183	0.008537	0.005166	-0.005621	-0.677246	0.18335	-0.478271
322.0	9.890161	0.175318	0.031144	0.01331	0.005041	-0.003879	-0.679443	0.18335	-0.473633
323.0	9.826075	0.201058	0.027143	0.008864	-0.000727	-0.00314	-0.67749	0.187744	-0.476074
324.0	9.880173	0.196354	0.021921	0.002945	-0.001076	-0.005772	-0.681641	0.181152	-0.471191
325.0	9.848121	0.209595	0.019674	0.00088	-0.001864	-0.005345	-0.677246	0.185547	-0.471436
326.0	9.87328	0.229067	0.033589	-0.002331	-0.003125	-0.005809	-0.679443	0.185547	-0.476074
327.0	9.848097	0.210778	0.019197	-0.003893	-0.001739	-0.007087	-0.677246	0.185547	-0.471436
328.0	9.873251	0.230382	0.033101	-0.003477	-0.003598	-0.006699	-0.675049	0.185547	-0.480713
329.0	9.861157	0.203115	0.049261	-0.005315	-0.004227	-0.004064	-0.679199	0.178955	-0.480469
330.0	9.880105	0.199901	0.020144	-0.005353	-0.006404	-0.008093	-0.684082	0.18335	-0.473633
331.0	9.870106	0.220898	0.010177	-0.001727	-0.007002	-0.007242	-0.677246	0.18335	-0.476074
332.0	9.866984	0.210271	-0.012061	2.4e-05	-0.010406	-0.007784	-0.677246	0.18335	-0.476074
333.0	9.851124	0.226169	0.036924	0.00117	-0.009932	-0.006894	-0.679688	0.187744	-0.473877
334.0	9.851115	0.226743	0.0358	-0.001397	-0.012894	-0.004762	-0.677246	0.18335	-0.476074
335.0	9.866938	0.21221	-0.015303	0.002088	-0.009615	-0.008213	-0.681885	0.185547	-0.48291
336.0	9.870033	0.224319	0.005316	0.001484	-0.005738	-0.00678	-0.679443	0.18335	-0.480713
337.0	9.863794	0.202208	-0.038141	-0.000165	-0.008385	-0.005965	-0.679688	0.187744	-0.476074
338.0	9.847956	0.217786	0.011323	0.004734	-0.002299	-0.002289	-0.684082	0.18335	-0.476074
339.0	9.844836	0.206728	-0.010337	0.002442	-0.003246	-0.004069	-0.675049	0.18335	-0.476074
340.0	9.88688	0.174406	0.00072	0.003132	-0.003089	-0.007596	-0.686279	0.18335	-0.476074
341.0	9.902028	0.214339	0.005087	0.000338	-0.00621	-0.007671	-0.681641	0.18335	-0.478271
342.0	9.873068	0.239198	0.023649	-0.001538	-0.009016	-0.009064	-0.686279	0.187744	-0.471436
343.0	9.891986	0.236158	-0.005626	-0.005543	-0.004385	-0.006272	-0.679443	0.181152	-0.468994
344.0	9.888855	0.225431	-0.027499	0.001484	-0.005735	-0.006781	-0.684082	0.185547	-0.468994
345.0	9.879919	0.209617	0.010031	0.005424	-0.00214	-0.005817	-0.677246	0.185547	-0.473633
346.0	9.866781	0.218976	-0.020682	0.004818	0.001736	-0.004383	-0.679688	0.187744	-0.476074
347.0	9.879902	0.210448	0.010113	0.007528	0.000825	-0.002216	-0.679688	0.187744	-0.480713
348.0	9.854735	0.19175	-0.00382	0.009175	0.003473	-0.003032	-0.681641	0.18335	-0.480713
349.0	9.857839	0.20356	0.017812	0.005737	0.002052	-0.005702	-0.681641	0.18335	-0.473633
350.0	9.847812	0.22435	0.008636	0.008218	0.000983	-0.005743	-0.679443	0.185547	-0.471436
351.0	9.857818	0.204578	0.018241	0.008758	0.005334	-0.00342	-0.681641	0.18335	-0.471436
352.0	9.857807	0.205028	0.018686	0.011011	0.004107	-0.005669	-0.679199	0.178955	-0.471191
353.0	9.859807	0.253576	-0.007055	0.014327	-0.000679	-0.004934	-0.684326	0.189941	-0.473877
354.0	9.857786	0.20604	0.018788	0.011846	0.000391	-0.004894	-0.681885	0.185547	-0.471436
355.0	9.8698	0.234409	0.002336	0.012347	0.002566	-0.006601	-0.67749	0.189941	-0.480957
356.0	9.879807	0.214742	0.011688	0.012263	-0.001467	-0.004506	-0.681885	0.185547	-0.476074
357.0	9.879798	0.215191	0.011462	0.014745	-0.002534	-0.004547	-0.679443	0.185547	-0.478271
358.0	9.876684	0.204193	-0.010106	0.013409	-0.00099	-0.003617	-0.681885	0.185547	-0.471436
359.0	9.866651	0.224846	-0.019569	0.018873	-0.00095	-0.005406	-0.679443	0.18335	-0.478271
360.0	9.875552	0.241736	-0.05775	0.019291	-0.002807	-0.005018	-0.681885	0.185547	-0.464355
361.0	9.841479	0.206852	-0.034272	0.021773	-0.003872	-0.00506	-0.675049	0.185547	-0.476074
362.0	9.866617	0.226238	-0.020693	0.016726	-0.005769	-0.002882	-0.686523	0.187744	-0.480713
363.0	9.85658	0.246739	-0.030556	0.016309	-0.00391	-0.003272	-0.681641	0.18335	-0.473633
364.0	9.844557	0.219367	-0.014561	0.011224	-0.007986	-0.00512	-0.681885	0.185547	-0.471436
365.0	9.866586	0.227383	-0.022503	0.013099	-0.005175	-0.003732	-0.67749	0.187744	-0.473877
366.0	9.859653	0.259334	-0.011124	0.008971	-0.006758	-0.002872	-0.681641	0.18335	-0.471436
367.0	9.866568	0.228068	-0.023546	0.012263	-0.001458	-0.004512	-0.681885	0.185547	-0.473633
368.0	9.879706	0.219566	0.006679	0.011681	-0.007662	-0.000704	-0.681641	0.181152	-0.471191
369.0	9.876589	0.208446	-0.014974	0.015973	0.001985	-0.005765	-0.677246	0.185547	-0.473633
370.0	9.844504	0.221566	-0.017271	0.011953	-0.005648	-0.004622	-0.681885	0.185547	-0.473633
371.0	9.86964	0.241025	-0.003829	0.009889	-0.00644	-0.004192	-0.681885	0.187744	-0.469238
372.0	9.859589	0.261644	-0.013763	0.009471	-0.004582	-0.004582	-0.684082	0.185547	-0.473633
373.0	9.866508	0.230352	-0.026297	0.004425	-0.006482	-0.002399	-0.681885	0.185547	-0.473633
374.0	9.859575	0.262118	-0.01512	0.001862	-0.009447	-0.000258	-0.686279	0.18335	-0.466797
375.0	9.85957	0.262266	-0.015766	0.001525	-0.00356	-0.002748	-0.681641	0.18335	-0.473633
376.0	9.88277	0.233425	0.023889	0.009011	-0.004574	0.001154	-0.690674	0.18335	-0.468994
377.0	9.854508	0.202819	-0.011661	0.014595	0.00168	0.001287	-0.681641	0.18335	-0.468994
378.0	9.885415	0.226626	-0.057092	0.01562	-0.004052	0.000248	-0.681641	0.181152	-0.473633
379.0	9.832473	0.195286	-0.004827	0.017037	-0.001563	-0.002783	-0.679199	0.178955	-0.466553
380.0	9.860248	0.208167	-0.071839	0.011723	-0.005805	-0.006834	-0.686279	0.18335	-0.476074
381.0	9.834386	0.244367	-0.032056	0.001176	-0.009931	-0.006881	-0.679443	0.18335	-0.471436
382.0	9.862635	0.27556	0.002171	-0.001616	-0.013057	-0.006947	-0.679443	0.181152	-0.47583
383.0	9.844404	0.225228	-0.025067	-0.000928	-0.012572	-0.000322	-0.677246	0.185547	-0.473633
384.0	9.875269	0.249503	-0.071505	2.9e-05	-0.010406	-0.00777	-0.684082	0.18335	-0.473633
385.0	9.850097	0.230876	-0.086733	0.0061	-0.013904	-0.00084	-0.681641	0.181152	-0.468994
386.0	9.863269	0.222285	-0.057248	0.015501	-0.010253	-0.001684	-0.681885	0.185547	-0.468994
387.0	9.876446	0.21387	-0.02751	0.014853	-0.008557	-0.004283	-0.681885	0.187744	-0.473877
388.0	9.876435	0.214289	-0.028387	0.014853	-0.008556	-0.004284	-0.684082	0.18335	-0.471436
389.0	9.857532	0.218667	-0.000557	0.013287	-0.007177	-0.005562	-0.677246	0.185547	-0.466797
390.0	9.876405	0.215429	-0.030091	0.010266	-0.010465	-0.007834	-0.684082	0.185547	-0.476074
391.0	9.856257	0.256333	-0.049846	0.002551	-0.009287	-0.003785	-0.684082	0.185547	-0.468994
392.0	9.885189	0.232792	-0.069961	0.006448	-0.007862	-0.006862	-0.681641	0.18335	-0.471436
393.0	9.898371	0.225002	-0.039961	0.001022	-0.006062	-0.011192	-0.681885	0.185547	-0.468994
394.0	9.86626	0.238402	-0.04267	0.003049	-0.007115	-0.005497	-0.677002	0.181152	-0.473633
395.0	9.885124	0.234996	-0.071796	0.004504	-0.002447	-0.004504	-0.681641	0.18335	-0.468994
396.0	9.873172	0.207645	-0.055365	0.008134	-0.00303	-0.003661	-0.683838	0.181152	-0.47583
397.0	9.875025	0.255971	-0.081564	0.009358	0.001475	-0.004877	-0.67749	0.187744	-0.471436
398.0	9.876288	0.220121	-0.034178	0.01203	-0.001603	-0.006739	-0.684082	0.18335	-0.468994
399.0	9.863063	0.229283	-0.064715	0.008749	0.005349	-0.003451	-0.681641	0.18335	-0.471436
400.0	9.863063	0.229343	-0.064523	0.012951	-0.000952	0.002095	-0.686279	0.18335	-0.471436
401.0	9.870005	0.19773	-0.07639	0.011652	0.002434	-0.003104	-0.686035	0.178955	-0.473389
402.0	9.881939	0.225702	-0.092825	0.016008	0.004187	-0.001765	-0.684082	0.18335	-0.476074
403.0	9.863056	0.229864	-0.063701	0.016505	0.006359	-0.003479	-0.681641	0.18335	-0.468994
404.0	9.876264	0.221489	-0.032267	0.018379	0.009174	-0.002098	-0.686279	0.18335	-0.478271
405.0	9.876257	0.221887	-0.031455	0.015856	0.008053	-0.00608	-0.679443	0.185547	-0.468994
406.0	9.873125	0.210726	-0.052014	0.014253	0.007586	-0.001229	-0.679688	0.189941	-0.476318
407.0	9.898261	0.230229	-0.037278	0.012227	0.008635	-0.006925	-0.674805	0.178955	-0.46875
408.0	9.863028	0.232092	-0.05977	0.016123	0.010064	-0.010005	-0.684082	0.18335	-0.476074
409.0	9.86614	0.24416	-0.037489	0.017042	0.010722	-0.001171	-0.679443	0.181152	-0.473633
410.0	9.895117	0.220304	-0.055935	0.018989	0.00531	-0.003525	-0.679199	0.178955	-0.478027
411.0	9.859903	0.221651	-0.078639	0.019296	0.009502	-0.003424	-0.681641	0.18335	-0.480713
412.0	9.859902	0.221973	-0.077745	0.019296	0.009504	-0.003425	-0.686035	0.181152	-0.471191
413.0	9.849821	0.242493	-0.086336	0.022696	0.008763	-0.004791	-0.681641	0.18335	-0.468994
414.0	9.83788	0.215188	-0.068671	0.021359	0.010305	-0.003863	-0.684082	0.185547	-0.468994
415.0	9.862996	0.23485	-0.054041	0.02216	0.004411	-0.0071	-0.684082	0.18335	-0.473633
416.0	9.84407	0.239364	-0.025169	0.020746	0.001926	-0.004063	-0.684082	0.18335	-0.471436
417.0	9.830877	0.248357	-0.055643	0.022389	0.004581	-0.004894	-0.679443	0.18335	-0.473633
418.0	9.862963	0.236441	-0.053085	0.018531	0.004992	-0.007948	-0.683838	0.181152	-0.471191
419.0	9.830849	0.249561	-0.055137	0.02044	-0.00226	-0.004162	-0.684082	0.18335	-0.468994
420.0	9.849754	0.246049	-0.083909	0.020937	-8.7e-05	-0.00588	-0.681885	0.185547	-0.476074
421.0	9.849739	0.24657	-0.084098	0.019294	-0.002738	-0.00505	-0.681641	0.181152	-0.47583
422.0	9.86291	0.23853	-0.05372	0.021778	-0.003793	-0.005092	-0.684082	0.18335	-0.476074
423.0	9.827693	0.239934	-0.077593	0.019715	-0.004589	-0.004656	-0.681641	0.181152	-0.471191
424.0	9.888	0.258473	-0.040887	0.018301	-0.007074	-0.001616	-0.686279	0.18335	-0.471436
425.0	9.808754	0.244646	-0.050179	0.017002	-0.003698	-0.006825	-0.681885	0.185547	-0.471436
426.0	9.852766	0.260233	-0.065467	0.022848	-0.007326	-0.002097	-0.684082	0.18335	-0.468994
427.0	9.858471	0.2648	-0.125716	0.022351	-0.009494	-0.000379	-0.679443	0.18335	-0.471436
428.0	9.836446	0.257317	-0.119193	0.020364	-0.006268	-0.002057	-0.686279	0.18335	-0.468994
429.0	9.871642	0.256683	-0.096509	0.018072	-0.007233	-0.003828	-0.681641	0.18335	-0.478271
430.0	9.861527	0.277138	-0.106932	0.015283	-0.010369	-0.003879	-0.679199	0.176758	-0.471191
431.0	9.849597	0.249835	-0.090911	0.015588	-0.006177	-0.003787	-0.677246	0.185547	-0.471436
432.0	9.849584	0.250045	-0.091734	0.016659	-0.009714	-0.000787	-0.684082	0.18335	-0.473633
433.0	9.839467	0.27041	-0.102212	0.013716	-0.008996	-0.005162	-0.684082	0.185547	-0.473633
434.0	9.855775	0.273938	-0.051315	0.014788	-0.012532	-0.002161	-0.681641	0.18335	-0.471436
435.0	9.84953	0.250975	-0.094863	0.014863	-0.00851	-0.004279	-0.681885	0.185547	-0.473633
436.0	9.871517	0.258831	-0.103355	0.012725	-0.01333	-0.001722	-0.683838	0.178955	-0.471191
437.0	9.871496	0.259096	-0.104657	0.010011	-0.012445	-0.003888	-0.679443	0.18335	-0.468994
438.0	9.864487	0.291105	-0.094257	0.007032	-0.01356	-0.002124	-0.679443	0.181152	-0.471191
439.0	9.839348	0.271956	-0.109329	0.007988	-0.011052	0.000571	-0.684082	0.185547	-0.464355
440.0	9.854348	0.311256	-0.106324	0.0086	-0.014925	-0.000844	-0.686279	0.18335	-0.466797
441.0	9.871429	0.259569	-0.109757	0.005274	-0.010168	-0.001594	-0.679199	0.178955	-0.466553
442.0	9.868291	0.247804	-0.131809	0.009671	-0.006205	0.003752	-0.686279	0.18335	-0.466797
443.0	9.87279	0.222942	-0.063511	0.016511	-0.005486	0.005034	-0.681641	0.178955	-0.466553
444.0	9.856414	0.219257	-0.115952	0.022699	-0.003084	0.003709	-0.686279	0.18335	-0.471436
445.0	9.878413	0.226624	-0.12367	0.025447	-0.002136	-0.000266	-0.677246	0.18335	-0.468994
446.0	9.846292	0.239301	-0.12616	0.020859	-0.004077	-0.0038	-0.681641	0.18335	-0.471436
447.0	9.865132	0.235681	-0.155498	0.006874	-0.009707	-0.006449	-0.688721	0.187744	-0.476074
448.0	9.874522	0.271084	-0.092911	0.007758	-0.011216	-0.001636	-0.688477	0.18335	-0.473633
449.0	9.861242	0.279804	-0.124773	-0.001798	-0.011057	-0.005079	-0.681641	0.18335	-0.471436
450.0	9.887044	0.24444	-0.166212	0.006379	-0.011871	-0.004728	-0.686279	0.18335	-0.466797
451.0	9.863629	0.273169	-0.207606	0.010968	-0.009927	-0.001197	-0.681641	0.18335	-0.466797
452.0	9.843016	0.229666	-0.153458	0.016661	-0.009689	-0.000803	-0.686035	0.176758	-0.466553
453.0	9.862572	0.244638	-0.081204	0.021018	-0.007914	0.000519	-0.681641	0.178955	-0.466553
454.0	9.859411	0.233081	-0.103346	0.020976	-0.010106	-0.003501	-0.684082	0.18335	-0.468994
455.0	9.827278	0.24583	-0.10637	0.022849	-0.00728	-0.002135	-0.686035	0.178955	-0.466553
456.0	9.837388	0.226079	-0.097894	0.017041	-0.013727	-0.004426	-0.683838	0.181152	-0.471191
457.0	9.852375	0.265893	-0.09503	0.009778	-0.012601	-0.006099	-0.686035	0.176758	-0.473389
458.0	9.827203	0.247243	-0.110004	0.01184	-0.011798	-0.006543	-0.686279	0.18335	-0.468994
459.0	9.849162	0.255261	-0.118652	0.011158	-0.011939	-0.00301	-0.681641	0.178955	-0.473389
460.0	9.859279	0.235518	-0.110203	0.010736	-0.010088	-0.003408	-0.683838	0.178955	-0.466553
461.0	9.881241	0.243487	-0.118576	0.011229	-0.007923	-0.005133	-0.681641	0.181152	-0.468994
462.0	9.871076	0.264133	-0.128904	0.008512	-0.007047	-0.007295	-0.688477	0.18335	-0.464355
463.0	9.867891	0.252951	-0.150608	0.008134	-0.003001	-0.003675	-0.681885	0.185547	-0.464355
464.0	9.862368	0.249068	-0.091799	0.0094	-0.00855	-0.002481	-0.683594	0.174561	-0.475586
465.0	9.871022	0.265229	-0.130756	0.01104	-0.005898	-0.003325	-0.683838	0.178955	-0.46875
466.0	9.845861	0.246136	-0.145204	0.00394	-0.008618	-0.000663	-0.688477	0.185547	-0.466797
467.0	9.849017	0.257976	-0.124716	0.007642	-0.005164	-0.001952	-0.684082	0.185547	-0.464355
468.0	9.86781	0.254003	-0.154104	0.007338	-0.00935	-0.002037	-0.688721	0.187744	-0.469238
469.0	9.855967	0.22659	-0.137738	0.005157	-0.004116	-0.001905	-0.681396	0.176758	-0.46875
470.0	9.857633	0.274383	-0.164811	0.003095	-0.004919	-0.001459	-0.687988	0.174561	-0.466309
471.0	9.864599	0.242697	-0.176981	0.004665	-0.00628	-0.00018	-0.679443	0.181152	-0.468994
472.0	9.881084	0.246403	-0.125482	0.005416	-0.002125	-0.005838	-0.688477	0.181152	-0.461914
473.0	9.864576	0.243204	-0.177588	0.00157	-0.001361	0.001279	-0.683838	0.181152	-0.468994
474.0	9.867747	0.254891	-0.15665	0.001759	-0.003384	-0.00053	-0.681641	0.181152	-0.471191
475.0	9.867741	0.254961	-0.156896	0.001337	-0.001534	-0.000929	-0.686279	0.185547	-0.464355
476.0	9.861388	0.231615	-0.199312	0.000914	0.000315	-0.001327	-0.684082	0.185547	-0.464355
477.0	9.867735	0.255156	-0.156963	0.004546	-0.000244	-0.000494	-0.684082	0.185547	-0.466797
478.0	9.862894	0.195882	-0.15136	0.003701	0.003454	-0.00129	-0.684082	0.18335	-0.468994
479.0	9.848933	0.259593	-0.127922	0.009584	0.001676	-0.002713	-0.686035	0.178955	-0.464111
480.0	9.852744	0.216154	-0.160389	0.007144	0.004919	0.001352	-0.688232	0.176758	-0.461914
481.0	9.842598	0.236257	-0.169461	0.004193	0.005618	-0.003016	-0.681396	0.176758	-0.46875
482.0	9.848939	0.259933	-0.126787	0.00867	0.001362	-0.001386	-0.690674	0.181152	-0.466553
483.0	9.833945	0.220881	-0.130609	0.007592	0.004887	-0.004391	-0.684082	0.185547	-0.464355
484.0	9.870906	0.268107	-0.133626	0.0071	0.002724	-0.002666	-0.686279	0.18335	-0.468994
485.0	9.855913	0.229077	-0.137502	0.005952	0.002235	-0.003547	-0.683838	0.181152	-0.464355
486.0	9.85907	0.241188	-0.116446	0.004925	-0.004288	-0.004112	-0.686279	0.18335	-0.468994
487.0	9.877861	0.237472	-0.145464	0.003355	-0.002928	-0.005392	-0.684082	0.185547	-0.464355
488.0	9.842548	0.238607	-0.169026	0.003588	-0.002754	-0.003184	-0.688477	0.185547	-0.468994
489.0	9.88965	0.265827	-0.163032	0.007712	-0.001147	-0.004077	-0.683838	0.181152	-0.459717
490.0	9.867664	0.258718	-0.155612	0.006141	0.000214	-0.005357	-0.686035	0.178955	-0.464111
491.0	9.867652	0.259172	-0.155621	0.005227	-0.000101	-0.004029	-0.688477	0.18335	-0.464355
492.0	9.867642	0.259497	-0.155713	0.006798	-0.001461	-0.00275	-0.690674	0.181152	-0.471191
493.0	9.848827	0.263922	-0.12726	0.004736	-0.002264	-0.002303	-0.686279	0.185547	-0.466797
494.0	9.848821	0.264034	-0.127433	0.002485	-0.001045	-4.8e-05	-0.688477	0.18335	-0.464355
495.0	9.835485	0.272475	-0.15835	0.00565	-0.001949	-0.003631	-0.688477	0.181152	-0.466553
496.0	9.864442	0.24847	-0.177734	0.004245	-0.004427	-0.000577	-0.688477	0.185547	-0.464355
497.0	9.845631	0.252789	-0.149325	0.010007	-0.000167	-0.002317	-0.688477	0.181152	-0.471191
498.0	9.845623	0.25309	-0.149358	0.005227	-0.0001	-0.00403	-0.683838	0.181152	-0.466553
499.0	9.842446	0.241593	-0.170734	0.010853	-0.003863	-0.001518	-0.686035	0.181152	-0.471191
500.0	9.865933	0.213652	-0.130626	0.008626	-0.00083	-0.005406	-0.686279	0.18335	-0.466797
501.0	9.835418	0.274124	-0.159696	0.010619	-0.004037	-0.003727	-0.686035	0.181152	-0.466553
502.0	9.855738	0.234539	-0.140807	0.011111	-0.001873	-0.005454	-0.683838	0.181152	-0.471191
503.0	9.857346	0.282648	-0.167989	0.013294	-0.007102	-0.005583	-0.681641	0.181152	-0.461914
504.0	9.84936	0.212076	-0.184224	0.012871	-0.005253	-0.005984	-0.688232	0.178955	-0.466553
505.0	9.854126	0.27199	-0.190286	0.010386	-0.004209	-0.005936	-0.688232	0.178955	-0.461914
506.0	9.86428	0.252484	-0.181034	0.014743	-0.002424	-0.004624	-0.690918	0.185547	-0.464355
507.0	9.848633	0.269014	-0.131517	0.014509	-0.002598	-0.006833	-0.686279	0.18335	-0.466797
508.0	9.842279	0.246034	-0.173968	0.016381	0.000232	-0.005474	-0.688232	0.176758	-0.466553
509.0	9.855612	0.238355	-0.143182	0.018443	0.001038	-0.005923	-0.688232	0.176758	-0.464111
510.0	9.832072	0.267089	-0.183609	0.018866	-0.000808	-0.005523	-0.688477	0.18335	-0.466797
511.0	9.852421	0.227526	-0.164434	0.021161	0.000175	-0.003765	-0.681396	0.174561	-0.470947
512.0	9.861025	0.243557	-0.203024	0.022433	-0.005366	-0.002563	-0.686035	0.176758	-0.464111
513.0	9.877524	0.247557	-0.151434	0.020928	2e-06	-0.005975	-0.690918	0.185547	-0.464355
514.0	9.850811	0.264445	-0.213016	0.016381	0.000239	-0.005478	-0.686035	0.178955	-0.464111
515.0	9.874333	0.236839	-0.172487	0.018019	0.002894	-0.00633	-0.686035	0.178955	-0.46875
516.0	9.845339	0.261622	-0.15332	0.013896	0.001282	-0.005431	-0.686279	0.18335	-0.466797
517.0	9.864132	0.257854	-0.181556	0.01492	0.007809	-0.004878	-0.681396	0.176758	-0.46875
518.0	9.831987	0.270759	-0.182833	0.016557	0.010464	-0.00573	-0.686279	0.18335	-0.471436
519.0	9.864148	0.258597	-0.179606	0.021381	0.012612	-7e-06	-0.686279	0.18335	-0.464355
520.0	9.852388	0.231053	-0.161501	0.017872	0.007127	-0.000512	-0.686035	0.181152	-0.468994
521.0	9.84536	0.263138	-0.149333	0.021529	0.008388	-0.005828	-0.681641	0.181152	-0.464355
522.0	9.867327	0.271003	-0.156045	0.017448	0.008978	-0.000916	-0.688477	0.18335	-0.466797
523.0	9.857153	0.291055	-0.164891	0.011754	0.008719	-0.001298	-0.688477	0.181152	-0.464355
524.0	9.879132	0.298679	-0.171447	0.007931	0.011292	-0.000325	-0.686035	0.178955	-0.46875
525.0	9.828187	0.315215	-0.143853	0.004764	0.012196	0.003258	-0.683838	0.181152	-0.464355
526.0	9.855626	0.24288	-0.13438	0.011946	0.019344	0.008604	-0.688477	0.18335	-0.471436
527.0	9.842354	0.250409	-0.163159	0.015181	0.022453	0.002883	-0.686279	0.185547	-0.464355
528.0	9.814163	0.218772	-0.195681	0.022022	0.023211	0.004144	-0.686279	0.185547	-0.471436
529.0	9.849483	0.218118	-0.170068	0.020903	0.024526	-0.002886	-0.683838	0.181152	-0.464355
530.0	9.855759	0.242016	-0.125934	0.007085	0.014994	-0.001138	-0.688477	0.18335	-0.468994
531.0	9.869214	0.317332	-0.168521	0.006198	0.016484	-0.005959	-0.683838	0.178955	-0.46875
532.0	9.875456	0.341595	-0.124603	-0.005382	0.017987	-0.004926	-0.690674	0.181152	-0.461914
533.0	9.852022	0.369928	-0.163466	-0.017946	0.015164	-0.000427	-0.681641	0.178955	-0.464111
534.0	9.857638	0.373869	-0.221348	-0.024786	0.01441	-0.001693	-0.681641	0.181152	-0.459717
535.0	9.857053	0.354144	-0.321706	-0.026001	0.009907	-0.000437	-0.683838	0.18335	-0.466797
536.0	9.858738	0.40178	-0.347422	-0.026424	0.011759	-0.000843	-0.686035	0.181152	-0.468994
537.0	9.855682	0.390263	-0.366939	-0.012413	0.019269	-0.004386	-0.688477	0.181152	-0.461914
538.0	9.84701	0.375177	-0.326565	0.006992	0.022849	-0.00761	-0.683838	0.18335	-0.462158
539.0	9.897749	0.434391	-0.194826	0.024479	0.034049	-0.004499	-0.686279	0.18335	-0.468994
540.0	9.940118	0.40199	-0.179428	0.020427	0.036851	0.004417	-0.688477	0.18335	-0.468994
541.0	9.907146	0.469066	-0.124286	-0.003193	0.039907	0.012202	-0.681641	0.181152	-0.461914
542.0	9.901126	0.444079	-0.162365	-0.026355	0.042924	0.014236	-0.684082	0.18335	-0.471436
543.0	9.936462	0.441968	-0.134432	-0.042255	0.044856	0.017942	-0.688477	0.18335	-0.464355
544.0	9.961644	0.45991	-0.115851	-0.041492	0.049025	0.012261	-0.688477	0.18335	-0.471436
545.0	9.951636	0.478709	-0.120248	-0.033435	0.054305	0.012275	-0.681885	0.187744	-0.471436
546.0	9.919653	0.489619	-0.116582	-0.032151	0.06325	0.019034	-0.686035	0.181152	-0.471191
547.0	9.90792	0.459933	-0.092681	-0.021772	0.071728	0.024828	-0.684082	0.18335	-0.473633
548.0	9.914036	0.461161	-0.144662	-0.017389	0.075755	0.030149	-0.681641	0.18335	-0.471436
549.0	9.91541	0.422125	-0.088904	-0.016411	0.080517	0.03683	-0.681641	0.178955	-0.473389
550.0	9.858519	0.41132	-0.09691	-0.021127	0.085034	0.0431	-0.686279	0.185547	-0.471436
551.0	9.858771	0.407137	-0.088574	-0.0173	0.082482	0.042131	-0.681885	0.185547	-0.471436
552.0	9.795043	0.408297	-0.187377	-0.020171	0.075335	0.044212	-0.681885	0.185547	-0.476074
553.0	9.795345	0.404308	-0.180088	-0.017931	0.071923	0.037949	-0.679443	0.18335	-0.473633
554.0	9.810975	0.420377	-0.270827	-0.021027	0.064588	0.037825	-0.681885	0.187744	-0.471436
555.0	9.80757	0.440767	-0.333567	-0.013994	0.063312	0.037318	-0.681885	0.189941	-0.476318
556.0	9.832952	0.45647	-0.313288	-0.013069	0.063647	0.035985	-0.688721	0.187744	-0.4646
557.0	9.865375	0.440185	-0.304553	-0.005182	0.060865	0.040306	-0.67749	0.187744	-0.469238
558.0	9.958325	0.42249	-0.359518	0.001547	0.06769	0.041269	-0.684082	0.187744	-0.466797
559.0	9.961003	0.465857	-0.379571	0.013347	0.066337	0.042518	-0.684326	0.189941	-0.478516
560.0	9.974275	0.453183	-0.341245	0.023913	0.082892	0.04407	-0.681885	0.189941	-0.478516
561.0	9.977138	0.495879	-0.35926	0.036158	0.094244	0.051256	-0.679443	0.185547	-0.476074
562.0	9.92689	0.471593	-0.276139	0.045392	0.102275	0.056185	-0.681885	0.189941	-0.469238
563.0	9.831802	0.468041	-0.225968	0.052447	0.113371	0.057191	-0.672852	0.187744	-0.471436
564.0	9.812974	0.46659	-0.186709	0.057943	0.115734	0.059383	-0.675293	0.192139	-0.483398
565.0	9.769102	0.445773	-0.161377	0.066649	0.119404	0.06203	-0.675293	0.189941	-0.480957
566.0	9.698615	0.49687	-0.144589	0.067065	0.117629	0.0624	-0.679688	0.189941	-0.483154
567.0	9.674118	0.471355	-0.147961	0.061886	0.111763	0.066683	-0.67749	0.192139	-0.480957
568.0	9.637148	0.489208	-0.2313	0.055448	0.101356	0.072233	-0.679688	0.189941	-0.483154
569.0	9.627994	0.50245	-0.23236	0.050447	0.088922	0.066755	-0.67334	0.196533	-0.476563
570.0	9.623071	0.471983	-0.266775	0.037897	0.080121	0.07145	-0.677734	0.194336	-0.47876
571.0	9.702743	0.478753	-0.249397	0.030617	0.068912	0.068203	-0.675293	0.189941	-0.478516
572.0	9.695087	0.436562	-0.306214	0.020906	0.07115	0.066427	-0.67749	0.187744	-0.478516
573.0	9.698613	0.477727	-0.326135	0.011523	0.075367	0.060709	-0.675537	0.198975	-0.48584
574.0	9.743721	0.486237	-0.332333	0.006901	0.081774	0.060746	-0.677734	0.194336	-0.485596
575.0	9.723521	0.417425	-0.370547	-0.002673	0.090325	0.060784	-0.673096	0.19458	-0.485596
576.0	9.728837	0.403243	-0.441755	0.009178	0.099115	0.059571	-0.67749	0.192139	-0.488037
577.0	9.709853	0.402156	-0.404125	0.022437	0.100232	0.057848	-0.675537	0.196777	-0.488037
578.0	9.657876	0.346719	-0.444563	0.029471	0.096679	0.053417	-0.668701	0.19458	-0.485596
579.0	9.648278	0.326129	-0.397206	0.027937	0.098104	0.052077	-0.668701	0.196777	-0.488037
580.0	9.668574	0.316163	-0.41553	0.018235	0.102647	0.054239	-0.670654	0.187744	-0.483154
581.0	9.646817	0.303786	-0.39864	0.000172	0.107844	0.053713	-0.666504	0.196777	-0.490479
582.0	9.631888	0.259215	-0.392587	-0.019325	0.106733	0.060586	-0.670898	0.196777	-0.48584
583.0	9.664245	0.240445	-0.378854	-0.043962	0.105309	0.061251	-0.668945	0.198975	-0.490479
584.0	9.656059	0.163276	-0.384018	-0.083756	0.104555	0.070138	-0.670898	0.19458	-0.488037
585.0	9.64924	0.062606	-0.318729	-0.11925	0.131242	0.06035	-0.668945	0.201172	-0.49292
586.0	9.594311	0.027448	-0.253898	-0.146505	0.151726	0.063718	-0.671143	0.201172	-0.490479
587.0	9.517933	-0.038543	-0.111831	-0.179598	0.167344	0.056386	-0.659912	0.198975	-0.49292
588.0	9.414098	-0.074721	-0.122531	-0.204809	0.169496	0.045877	-0.666748	0.201172	-0.49292
589.0	9.397712	-0.093108	-0.181327	-0.217959	0.15584	0.035752	-0.664551	0.203369	-0.495361
590.0	9.505507	-0.083254	-0.242221	-0.218763	0.140592	0.021365	-0.666748	0.205566	-0.490723
591.0	9.735091	-0.056891	-0.326238	-0.203236	0.119597	0.012428	-0.662354	0.203369	-0.490723
592.0	9.944702	-0.024867	-0.383847	-0.182597	0.100413	0.001424	-0.660156	0.209961	-0.493164
593.0	10.212681	0.049837	-0.471132	-0.156336	0.089763	-0.005387	-0.662354	0.207764	-0.495361
594.0	10.388515	0.151334	-0.479525	-0.146021	0.077411	-0.004563	-0.660156	0.207764	-0.495361
595.0	10.498686	0.201418	-0.592233	-0.153668	0.085188	0.001067	-0.655518	0.205566	-0.490723
596.0	10.464504	0.254191	-0.74505	-0.162835	0.098308	0.001029	-0.660156	0.207764	-0.493164
597.0	10.358638	0.263263	-0.921249	-0.168366	0.104658	0.002265	-0.657715	0.205566	-0.495361
598.0	10.307879	0.216115	-0.962038	-0.174462	0.108826	0.005203	-0.662598	0.209961	-0.495605
599.0	10.284246	0.198318	-0.965396	-0.166413	0.118708	0.013374	-0.655762	0.209961	-0.493164
600.0	10.326227	0.164326	-0.939116	-0.159677	0.123997	0.022766	-0.655762	0.209961	-0.490967
601.0	10.350014	0.144594	-0.862736	-0.152409	0.13767	0.030137	-0.656006	0.214355	-0.495605
602.0	10.283612	0.120215	-0.829802	-0.145992	0.14952	0.049326	-0.6604	0.214355	-0.495605
603.0	10.205817	0.077646	-0.758653	-0.147112	0.162345	0.062192	-0.653564	0.214355	-0.498047
604.0	10.101122	0.004173	-0.724083	-0.148811	0.172986	0.076747	-0.6604	0.214355	-0.48877
605.0	10.003006	-0.011211	-0.692171	-0.148619	0.19047	0.088405	-0.653809	0.216553	-0.49585
606.0	9.911159	-0.085401	-0.60221	-0.148447	0.21421	0.099737	-0.658203	0.214355	-0.505127
607.0	9.783334	-0.078297	-0.549169	-0.151641	0.23661	0.108285	-0.651367	0.214355	-0.502686
608.0	9.620944	-0.095661	-0.451204	-0.159783	0.273832	0.116075	-0.651611	0.216553	-0.502686
609.0	9.518755	-0.136276	-0.454236	-0.171926	0.309838	0.126722	-0.64502	0.221191	-0.507568
610.0	9.407933	-0.156565	-0.465293	-0.171591	0.323251	0.130246	-0.647217	0.223389	-0.500732
611.0	9.342777	-0.162697	-0.486849	-0.169164	0.331239	0.133718	-0.642578	0.218994	-0.498291
612.0	9.359678	-0.226527	-0.458472	-0.164711	0.337599	0.130652	-0.64502	0.225586	-0.512451
613.0	9.311965	-0.27368	-0.460481	-0.163554	0.33874	0.131291	-0.642822	0.223389	-0.507568
614.0	9.28119	-0.265593	-0.545941	-0.154843	0.331826	0.124194	-0.642578	0.221191	-0.512207
615.0	9.273936	-0.249439	-0.637482	-0.139641	0.318745	0.114666	-0.638428	0.225586	-0.514648
616.0	9.228383	-0.283674	-0.62063	-0.111472	0.310605	0.109867	-0.638428	0.22998	-0.519531
617.0	9.217328	-0.303954	-0.667864	-0.093025	0.30486	0.100771	-0.62915	0.223389	-0.512207
618.0	9.229455	-0.316786	-0.721213	-0.079216	0.282994	0.099032	-0.629395	0.227783	-0.521729
619.0	9.295927	-0.336242	-0.776405	-0.074534	0.259467	0.091574	-0.63208	0.234375	-0.521973
620.0	9.285435	-0.355087	-0.829553	-0.068955	0.225937	0.089688	-0.627197	0.22998	-0.514893
621.0	9.32587	-0.317358	-0.806968	-0.052378	0.198162	0.082439	-0.625	0.232178	-0.521973
622.0	9.309541	-0.2932	-0.831791	-0.022258	0.156271	0.075266	-0.627441	0.232178	-0.521973
623.0	9.324129	-0.282534	-0.855545	-0.001775	0.110633	0.066215	-0.622803	0.232178	-0.510254
624.0	9.346667	-0.292019	-0.872398	0.015764	0.095394	0.055046	-0.625	0.227783	-0.526367
625.0	9.310316	-0.256021	-0.991041	0.053241	0.070957	0.051433	-0.625	0.232178	-0.52417
626.0	9.291214	-0.331248	-1.059081	0.089386	0.04572	0.042491	-0.625	0.227783	-0.519531
627.0	9.321389	-0.441014	-1.06007	0.137077	0.033363	0.036674	-0.620361	0.223389	-0.526367
628.0	9.35832	-0.502319	-1.085786	0.188675	0.018367	0.032329	-0.622803	0.227783	-0.526367
629.0	9.496309	-0.627325	-1.086359	0.23356	0.011816	0.032096	-0.620605	0.22998	-0.521973
630.0	9.694129	-0.722168	-1.131828	0.275219	0.007859	0.022476	-0.618164	0.225586	-0.528564
631.0	9.800047	-0.683917	-1.183603	0.327557	0.001849	0.015997	-0.616211	0.232422	-0.526611
632.0	9.903645	-0.667797	-1.279634	0.382599	-0.007281	0.007785	-0.622803	0.22998	-0.521973
633.0	9.99217	-0.662015	-1.205273	0.425177	0.006937	0.003879	-0.622314	0.221191	-0.516846
634.0	10.053378	-0.627022	-1.225184	0.444046	0.017004	0.004647	-0.620361	0.223389	-0.514648
635.0	10.206723	-0.566061	-1.263909	0.432639	0.007567	0.009716	-0.613281	0.221191	-0.521484
636.0	10.419614	-0.576172	-1.493172	0.394726	-0.039447	0.015429	-0.617676	0.216797	-0.526123
637.0	10.499106	-0.590341	-1.747613	0.365721	-0.107964	0.001123	-0.615723	0.221191	-0.519287
638.0	10.616952	-0.517017	-1.695736	0.355938	-0.131746	-0.020716	-0.617432	0.208008	-0.523438
639.0	10.632295	-0.390051	-1.695603	0.359364	-0.139943	-0.042723	-0.61084	0.212402	-0.52124
640.0	10.506858	-0.24349	-1.727036	0.375231	-0.164969	-0.071573	-0.624023	0.205811	-0.520996
641.0	10.975922	-0.131395	-1.331075	0.392252	-0.172687	-0.075486	-0.612793	0.205811	-0.520996
642.0	12.662927	0.181897	-0.085675	0.38577	-0.103633	-0.00898	-0.617188	0.205811	-0.516357
643.0	14.016747	0.765839	0.220286	0.187697	-0.039239	0.117478	-0.612549	0.201416	-0.516113
644.0	13.065026	1.016707	0.120489	-0.175022	-0.068377	0.223099	-0.61499	0.205811	-0.520996
645.0	11.466992	1.345295	-0.228884	-0.358167	-0.062006	0.185999	-0.613037	0.210205	-0.52124
646.0	10.470324	1.254841	-0.627438	-0.328794	-0.076593	0.11969	-0.613037	0.210205	-0.516602
647.0	10.342032	0.785134	0.32177	-0.299659	-0.089539	0.10153	-0.608643	0.212402	-0.52124
648.0	10.295113	0.136181	0.464699	-0.287508	-0.137216	0.098829	-0.608643	0.212402	-0.51416
649.0	10.531345	-0.316548	0.252713	-0.259887	-0.178548	0.075314	-0.61084	0.2146	-0.514404
650.0	10.548507	-0.730807	0.61678	-0.205136	-0.157437	0.022076	-0.61084	0.216797	-0.509766
651.0	10.951564	-0.911117	1.607773	-0.116913	-0.101908	0.009837	-0.61084	0.2146	-0.511963
652.0	10.45528	-1.149551	1.979104	-0.046608	-0.093451	0.048687	-0.61084	0.212402	-0.511963
653.0	9.681385	-0.870785	1.988558	0.045446	-0.089924	0.081422	-0.601807	0.2146	-0.511963
654.0	9.219179	-0.64833	2.395537	0.163224	-0.059365	0.09432	-0.610596	0.210205	-0.507324
655.0	9.060339	-0.689266	2.672776	0.233727	-0.062989	0.108904	-0.604004	0.212402	-0.51416
656.0	9.330814	-0.959429	2.622706	0.242516	-0.066326	0.127012	-0.606201	0.208008	-0.504883
657.0	9.789212	-1.224514	2.386161	0.226052	-0.08374	0.13927	-0.599609	0.2146	-0.509766
658.0	10.122189	-1.367288	2.090556	0.199246	-0.102414	0.132397	-0.606201	0.212402	-0.507324
659.0	10.32026	-1.162834	1.837724	0.185963	-0.123928	0.106019	-0.606445	0.2146	-0.507324
660.0	10.385019	-0.823023	1.716926	0.180523	-0.119046	0.061212	-0.606201	0.208008	-0.502441
661.0	10.364842	-0.455643	1.478446	0.168473	-0.113394	0.006595	-0.602051	0.216797	-0.500488
662.0	10.456373	-0.144757	1.206691	0.156114	-0.106893	-0.035799	-0.608398	0.208008	-0.504883
663.0	10.371996	0.032031	1.027094	0.157581	-0.081664	-0.065975	-0.601807	0.212402	-0.504883
664.0	10.101771	0.149885	0.984749	0.169046	-0.047124	-0.080158	-0.601563	0.205811	-0.509277
665.0	9.945299	0.151287	0.860014	0.189137	-0.013829	-0.074455	-0.601563	0.205811	-0.504639
666.0	9.831758	0.072789	0.722488	0.222447	0.014062	-0.06966	-0.601318	0.203613	-0.509277
667.0	9.799377	-0.130955	0.678931	0.268014	0.039963	-0.071082	-0.601318	0.201416	-0.506836
668.0	9.668454	-0.327392	0.559101	0.315777	0.053335	-0.084234	-0.599121	0.201416	-0.513916
669.0	9.456773	-0.32893	0.534847	0.353837	0.054356	-0.102484	-0.596924	0.201416	-0.513916
670.0	9.274381	-0.355254	0.495253	0.38261	0.061987	-0.125101	-0.599121	0.201416	-0.511475
671.0	8.99815	-0.268966	0.512735	0.39132	0.062139	-0.145256	-0.598877	0.197021	-0.516113
672.0	8.876631	-0.254432	0.446232	0.400358	0.083811	-0.160949	-0.601074	0.194824	-0.51123
673.0	8.753859	-0.093813	0.324269	0.402466	0.1168	-0.183684	-0.594238	0.19043	-0.518066
674.0	8.737255	-0.035756	0.312912	0.403434	0.133505	-0.197506	-0.60083	0.19043	-0.515869
675.0	8.628625	0.239169	0.379337	0.417498	0.142043	-0.220463	-0.598633	0.188232	-0.513428
676.0	8.54642	0.555436	0.388726	0.411772	0.143345	-0.236459	-0.596191	0.186035	-0.520264
677.0	8.564389	0.557843	0.352273	0.392872	0.157989	-0.23349	-0.591797	0.186035	-0.515625
678.0	8.515699	0.722921	0.33538	0.358238	0.169204	-0.220373	-0.598145	0.179443	-0.515381
679.0	8.472652	0.762348	0.308206	0.338269	0.161226	-0.20533	-0.593506	0.177246	-0.52002
680.0	8.449992	0.780048	0.234065	0.323183	0.168787	-0.181374	-0.595703	0.172852	-0.524414
681.0	8.503899	0.873785	0.134836	0.2995	0.1643	-0.176109	-0.588867	0.172852	-0.521973
682.0	8.542054	0.947464	0.164126	0.287661	0.158788	-0.166897	-0.593262	0.170654	-0.524414
683.0	8.537514	0.9563	0.26639	0.256334	0.162959	-0.166963	-0.586426	0.168457	-0.528809
684.0	8.520988	0.853886	0.296066	0.227062	0.155262	-0.166043	-0.588867	0.170654	-0.526611
685.0	8.422216	0.776506	0.225602	0.187273	0.124931	-0.173722	-0.584229	0.168457	-0.526611
686.0	8.379139	0.671483	0.021551	0.14625	0.074631	-0.182296	-0.588623	0.164063	-0.528809
687.0	8.309433	0.597648	-0.263722	0.113165	0.025755	-0.18841	-0.579346	0.161865	-0.528564
688.0	8.292561	0.59539	-0.573679	0.098334	-0.036778	-0.196385	-0.583984	0.159668	-0.531006
689.0	8.442611	0.642315	-0.781544	0.086382	-0.077013	-0.206549	-0.583984	0.161865	-0.523926
690.0	8.804203	0.634688	-0.936474	0.085258	-0.102865	-0.206881	-0.588135	0.155273	-0.52832
691.0	9.235105	0.592476	-0.956213	0.078386	-0.113745	-0.203207	-0.581543	0.155273	-0.52832
692.0	9.745495	0.697359	-0.902035	0.074639	-0.117616	-0.186955	-0.585938	0.155273	-0.521484
693.0	10.14341	0.842837	-1.047118	0.059721	-0.131204	-0.174988	-0.583496	0.153076	-0.523682
694.0	10.461656	1.078546	-1.191576	0.047489	-0.135439	-0.165988	-0.581299	0.150879	-0.523682
695.0	10.725427	1.21527	-1.357112	0.048669	-0.140933	-0.164486	-0.579102	0.150879	-0.523682
696.0	11.081932	1.206292	-1.432777	0.050074	-0.171554	-0.160102	-0.583496	0.150879	-0.519043
697.0	11.2433	1.202707	-1.654132	0.049881	-0.201867	-0.146522	-0.588135	0.150879	-0.52124
698.0	11.217176	1.302085	-1.969429	0.050121	-0.234018	-0.132428	-0.581299	0.153076	-0.52124
699.0	11.058397	1.534572	-2.223796	0.02681	-0.248686	-0.114823	-0.581299	0.153076	-0.519043
700.0	11.013773	1.686353	-1.514852	-0.041399	-0.164002	-0.111791	-0.585693	0.148682	-0.52124
701.0	11.632253	1.209322	-0.025283	-0.16171	-0.039804	-0.135786	-0.581543	0.155273	-0.521484
702.0	12.694017	0.21526	-0.416186	-0.207743	-0.179362	-0.180137	-0.581055	0.146484	-0.516357
703.0	13.928536	0.114231	-2.332369	-0.253871	-0.335506	-0.225523	-0.578857	0.146484	-0.511719
704.0	14.310739	-0.930798	-0.905578	-0.074398	-0.017919	-0.237565	-0.583496	0.150879	-0.516602
705.0	13.406833	-1.314571	1.263632	0.261641	0.056383	-0.247833	-0.578857	0.146484	-0.516357
706.0	12.585149	-0.731666	1.834879	0.380094	0.081249	-0.245431	-0.583252	0.146484	-0.516357
707.0	11.348647	-0.123376	1.786538	0.392109	0.081393	-0.199547	-0.580811	0.14209	-0.513916
708.0	10.482997	-0.006339	2.747401	0.300074	0.113848	-0.138856	-0.583008	0.137695	-0.523193
709.0	9.856483	-0.09774	3.066655	0.163345	0.090121	-0.110493	-0.576172	0.137695	-0.520752
710.0	9.895015	0.336163	3.056786	0.02506	0.133825	-0.12203	-0.578613	0.139893	-0.520752
711.0	9.890527	0.509411	4.086111	-0.01832	0.203773	-0.119219	-0.573975	0.139893	-0.525635
712.0	9.936111	0.840671	3.296998	-0.002255	0.190996	-0.153453	-0.580811	0.14209	-0.518555
713.0	9.653154	1.433365	1.659861	-0.124327	0.096569	-0.189114	-0.576416	0.14209	-0.520996
714.0	9.380881	1.690482	1.661504	-0.166844	0.039237	-0.203072	-0.576416	0.14209	-0.525635
715.0	9.542528	2.130236	1.936217	-0.06155	0.011821	-0.223387	-0.571777	0.14209	-0.523193
716.0	10.028455	2.289184	1.860909	0.01328	0.004455	-0.244021	-0.576416	0.139893	-0.523193
717.0	10.647997	2.139238	1.785477	0.042368	0.009167	-0.228086	-0.580811	0.139893	-0.520752
718.0	11.158558	1.595764	1.686153	0.045579	0.049333	-0.184148	-0.576416	0.14209	-0.520996
719.0	11.392879	0.80597	1.73354	0.043527	0.096675	-0.128178	-0.56958	0.14209	-0.525635
720.0	11.234885	0.186334	1.734834	0.019315	0.133413	-0.073136	-0.578369	0.137695	-0.527832
721.0	10.885229	-0.180112	1.656994	-0.019607	0.184389	-0.021408	-0.571777	0.139893	-0.532471
722.0	10.475804	-0.417615	1.63996	-0.057926	0.231159	0.026888	-0.576416	0.14209	-0.525635
723.0	10.084636	-0.451302	1.778094	-0.091729	0.254685	0.055394	-0.562744	0.139893	-0.527832
724.0	9.723997	-0.399208	1.73664	-0.12278	0.240365	0.07906	-0.569824	0.144287	-0.528076
725.0	9.444259	-0.299762	1.657567	-0.157315	0.22305	0.110719	-0.567627	0.150879	-0.530518
726.0	9.130259	-0.137092	1.414321	-0.190628	0.200068	0.143944	-0.570068	0.153076	-0.530762
727.0	8.795231	-0.01063	1.132537	-0.20691	0.16544	0.173763	-0.563477	0.155273	-0.540039
728.0	8.564004	0.0718	0.992509	-0.219398	0.13488	0.204347	-0.568115	0.159668	-0.535645
729.0	8.488907	0.024624	0.875117	-0.202609	0.120907	0.241821	-0.558838	0.155273	-0.530762
730.0	8.409085	0.053749	0.734453	-0.200053	0.10946	0.262184	-0.568115	0.161865	-0.540283
731.0	8.362074	0.098175	0.641039	-0.186932	0.103632	0.267572	-0.559326	0.166504	-0.533447
732.0	8.328988	0.033146	0.561138	-0.159679	0.109535	0.26058	-0.559326	0.168701	-0.538086
733.0	8.330413	-0.200176	0.387593	-0.134857	0.12321	0.257197	-0.559326	0.166504	-0.540527
734.0	8.435578	-0.460835	0.289734	-0.121863	0.143679	0.26859	-0.564209	0.175293	-0.540771
735.0	8.499978	-0.63882	0.25568	-0.110231	0.15916	0.27925	-0.557617	0.17749	-0.543213
736.0	8.509644	-0.78665	0.261024	-0.098745	0.160888	0.282518	-0.562012	0.175293	-0.54541
737.0	8.45568	-0.897474	0.272032	-0.093409	0.157161	0.280897	-0.55542	0.179688	-0.536377
738.0	8.417507	-0.869708	0.193871	-0.069205	0.141986	0.254079	-0.55542	0.181885	-0.541016
739.0	8.381055	-0.786823	0.196438	-0.014056	0.11512	0.232315	-0.555664	0.184082	-0.538818
740.0	8.273557	-0.671287	0.148624	0.034369	0.067638	0.209004	-0.560303	0.192871	-0.536865
741.0	8.076293	-0.541907	0.176756	0.062627	-0.008574	0.183871	-0.548828	0.186279	-0.545898
742.0	8.118015	-0.3409	-0.052237	0.073915	-0.079249	0.160423	-0.558105	0.190674	-0.536621
743.0	8.121418	-0.224605	-0.3463	0.079493	-0.124315	0.137828	-0.546875	0.192871	-0.541504
744.0	8.148031	-0.073586	-0.608068	0.063216	-0.168033	0.117309	-0.55127	0.188477	-0.536621
745.0	8.21865	0.048111	-0.710295	0.049699	-0.224613	0.104969	-0.553711	0.192871	-0.534424
746.0	8.53616	0.078765	-0.646743	0.035734	-0.247095	0.090672	-0.553467	0.190674	-0.534424
747.0	8.884265	0.11535	-0.795216	0.031526	-0.286916	0.073976	-0.556152	0.20166	-0.532471
748.0	9.440623	0.045173	-0.973554	0.039843	-0.327929	0.053357	-0.553955	0.199463	-0.534668
749.0	10.00415	0.075079	-1.106007	0.07769	-0.346291	0.02178	-0.55835	0.199463	-0.530029
750.0	10.417077	-0.051156	-1.192543	0.146819	-0.342569	-0.012817	-0.55835	0.197266	-0.530029
751.0	10.607984	-0.218505	-1.389933	0.224008	-0.361569	-0.055208	-0.551758	0.203857	-0.525635
752.0	10.669759	-0.443283	-1.543772	0.261578	-0.367174	-0.090812	-0.560547	0.195068	-0.527588
753.0	10.489112	-0.496727	-1.94255	0.272586	-0.373799	-0.147115	-0.562744	0.192871	-0.522949
754.0	10.306659	-0.534047	-2.3214	0.291395	-0.407855	-0.195967	-0.564941	0.195068	-0.518311
755.0	11.038532	-0.492297	-1.599211	0.391988	-0.438288	-0.218122	-0.562744	0.197266	-0.518311
756.0	14.082362	0.597947	0.574143	0.461948	-0.471839	-0.147617	-0.564941	0.195068	-0.518311
757.0	16.32011	0.593875	1.048657	0.162053	-0.536925	0.054378	-0.567139	0.195068	-0.515869
758.0	16.199558	0.938349	1.885474	-0.187726	-0.354587	0.275354	-0.567139	0.192871	-0.513672
759.0	13.340998	1.547645	1.551042	-0.23999	-0.156812	0.26504	-0.562744	0.195068	-0.506592
760.0	10.798886	1.601804	1.6722	-0.168981	-0.082883	0.183562	-0.567627	0.206055	-0.509277
761.0	9.396984	1.134866	1.805804	-0.112648	-0.224072	0.062186	-0.563232	0.206055	-0.504639
762.0	10.546907	0.918739	2.068555	-0.03858	-0.239476	0.062203	-0.563232	0.208252	-0.504883
763.0	10.734102	-0.112391	2.365795	0.031342	-0.127599	0.13368	-0.561035	0.208252	-0.511719
764.0	9.724468	-0.373587	1.688227	0.030472	-0.167436	0.155891	-0.565674	0.210449	-0.504883
765.0	9.580361	-0.31047	1.603263	0.176589	-0.213931	0.117888	-0.565674	0.210449	-0.504883
766.0	9.945061	-0.745863	2.410309	0.405756	-0.069711	0.111209	-0.563477	0.212646	-0.507324
767.0	10.737664	-1.397503	2.219856	0.54626	0.018603	0.135098	-0.563232	0.208252	-0.502441
768.0	11.734108	-1.839905	1.782933	0.533345	-0.013411	0.150376	-0.563477	0.210449	-0.509521
769.0	12.02404	-2.012175	1.275932	0.399152	-0.064809	0.137753	-0.561035	0.210449	-0.502686
770.0	11.579106	-1.828796	1.029225	0.264185	-0.096734	0.120673	-0.565674	0.212646	-0.507324
771.0	11.180631	-1.197043	1.090702	0.230062	-0.052739	0.087433	-0.563721	0.219238	-0.500488
772.0	11.053928	-0.392999	1.070669	0.242056	0.026297	0.037473	-0.563721	0.219238	-0.505127
773.0	11.040103	0.141868	1.180505	0.211663	0.119707	0.003355	-0.563477	0.214844	-0.502686
774.0	10.602027	0.544305	1.254437	0.173159	0.187029	-0.009245	-0.558838	0.212646	-0.500244
775.0	10.027559	0.835245	1.213719	0.139238	0.228492	-0.010842	-0.561523	0.219238	-0.505371
776.0	9.534361	1.061756	1.303605	0.106796	0.281137	-0.012734	-0.561279	0.214844	-0.516602
777.0	9.075164	1.123891	1.268617	0.077737	0.314286	-0.015819	-0.559326	0.221436	-0.516846
778.0	8.786195	1.042581	1.230918	0.052456	0.319809	-0.018672	-0.556885	0.217041	-0.516846
779.0	8.531301	0.872832	1.131817	0.030993	0.30744	-0.026629	-0.55249	0.221436	-0.514648
780.0	8.265285	0.69399	0.977973	0.020242	0.294332	-0.04459	-0.552246	0.214844	-0.516602
781.0	8.138127	0.476344	0.90081	0.022607	0.28831	-0.06947	-0.550049	0.217041	-0.521484
782.0	7.937068	0.380013	0.862577	0.016459	0.29375	-0.090308	-0.554688	0.221436	-0.526123
783.0	7.838145	0.21476	0.83699	-9.4e-05	0.289281	-0.118602	-0.550293	0.22168	-0.519287
784.0	7.727726	0.328906	0.760701	-0.008864	0.279245	-0.13546	-0.548096	0.22168	-0.514648
785.0	7.699063	0.395796	0.743068	-0.022447	0.274413	-0.144362	-0.554688	0.219238	-0.523926
786.0	7.645304	0.427734	0.691471	-0.059213	0.268836	-0.143037	-0.550293	0.22168	-0.528564
787.0	7.732997	0.527464	0.552338	-0.090908	0.267893	-0.140214	-0.547852	0.219482	-0.528564
788.0	7.689061	0.512456	0.382767	-0.140096	0.263826	-0.132738	-0.543701	0.223877	-0.528564
789.0	7.762128	0.557956	0.223741	-0.175547	0.262458	-0.120389	-0.546143	0.228271	-0.528809
790.0	7.874977	0.599067	0.216472	-0.204174	0.255986	-0.105863	-0.545898	0.22168	-0.528564
791.0	7.921992	0.726657	0.150103	-0.218039	0.249572	-0.093682	-0.543457	0.22168	-0.526367
792.0	8.007058	0.7805	0.044346	-0.239142	0.23093	-0.084036	-0.539307	0.228271	-0.535889
793.0	8.165426	0.870537	-0.15032	-0.260771	0.200878	-0.077712	-0.539307	0.230469	-0.53125
794.0	8.314402	0.900902	-0.243746	-0.282315	0.167927	-0.077444	-0.541504	0.228271	-0.533447
795.0	8.371009	0.877194	-0.357795	-0.302995	0.131483	-0.073917	-0.534912	0.230469	-0.528809
796.0	8.430649	0.828961	-0.607247	-0.306091	0.069354	-0.064837	-0.534912	0.232666	-0.535889
797.0	8.535478	0.781442	-0.893413	-0.296919	-0.004815	-0.058696	-0.535156	0.237061	-0.531494
798.0	8.81175	0.714185	-1.14677	-0.272181	-0.073017	-0.061281	-0.537354	0.234863	-0.531494
799.0	9.230141	0.561612	-1.351741	-0.241158	-0.129068	-0.057775	-0.532959	0.241455	-0.531738
800.0	9.921569	0.584539	-1.395888	-0.205355	-0.203798	-0.06734	-0.541992	0.239258	-0.531494
801.0	10.646005	0.651203	-1.360414	-0.159572	-0.243614	-0.074542	-0.5354	0.241455	-0.5271
802.0	11.198456	0.753161	-1.34921	-0.128182	-0.262936	-0.070971	-0.537598	0.239258	-0.531494
803.0	11.371485	0.771342	-1.390234	-0.117764	-0.249885	-0.03789	-0.539795	0.239258	-0.529297
804.0	11.191408	0.728648	-1.556143	-0.124154	-0.25069	-0.002871	-0.541992	0.239258	-0.524658
805.0	10.799792	0.643965	-1.775437	-0.136061	-0.261048	0.026243	-0.542236	0.248047	-0.517822
806.0	10.487642	0.649272	-1.236276	-0.219238	-0.286314	0.014652	-0.549072	0.248047	-0.529541
807.0	11.078399	0.131125	0.168983	-0.348091	-0.214691	-0.018828	-0.537842	0.250244	-0.522705
808.0	12.532549	-0.816505	-0.473251	-0.405282	-0.298012	-0.072526	-0.544678	0.252441	-0.518066
809.0	14.594764	-1.252878	-1.55592	-0.347899	-0.436232	-0.169543	-0.54248	0.252441	-0.520508
810.0	15.236455	-2.616975	0.641317	0.085094	-0.144091	-0.278472	-0.54248	0.252441	-0.522705
811.0	14.019155	-2.546406	2.34184	0.476411	-0.106293	-0.356172	-0.544678	0.250244	-0.520264
812.0	12.246129	-1.140729	2.916975	0.475798	-0.11757	-0.3543	-0.546875	0.24585	-0.520264
813.0	11.486283	-0.622233	3.693467	0.228008	-0.029804	-0.276912	-0.55127	0.243652	-0.524658
814.0	12.020134	0.126921	2.871625	0.214569	0.00499	-0.277142	-0.548584	0.237061	-0.526855
815.0	11.933658	1.191315	4.140269	0.244249	0.196511	-0.247402	-0.544189	0.237061	-0.526855
816.0	11.35758	1.912852	4.574908	0.298331	0.17094	-0.18205	-0.548828	0.239258	-0.524658
817.0	10.497609	2.674948	1.968903	0.125796	0.124108	-0.154456	-0.551025	0.237061	-0.529053
818.0	9.655268	2.967595	1.260748	-0.177644	0.05899	-0.12384	-0.551025	0.237061	-0.526855
819.0	9.467242	2.983773	2.095697	-0.163306	-0.003694	-0.114036	-0.548828	0.239258	-0.524658
820.0	10.141974	2.754997	1.644874	-0.08484	-0.047439	-0.14941	-0.548584	0.234863	-0.531494
821.0	11.313834	2.307836	1.383912	-0.109527	-0.019034	-0.158433	-0.548828	0.243652	-0.52002
822.0	11.688829	1.792483	1.641114	-0.140626	0.026157	-0.116808	-0.548828	0.241455	-0.529297
823.0	11.229967	1.166301	1.616825	-0.188376	0.052569	-0.055615	-0.549072	0.24585	-0.5271
824.0	10.614677	0.642576	1.641399	-0.216012	0.062048	-0.001232	-0.546387	0.239258	-0.524658
825.0	10.166411	0.206258	1.921153	-0.201484	0.093234	0.029698	-0.548828	0.243652	-0.522461
826.0	9.919987	-0.172397	2.03796	-0.173629	0.116694	0.049331	-0.548828	0.243652	-0.524658
827.0	9.721874	-0.500003	2.002105	-0.162395	0.136613	0.067818	-0.549072	0.248047	-0.527344
828.0	9.511233	-0.699839	1.881257	-0.170299	0.130262	0.08285	-0.551514	0.252441	-0.529785
829.0	9.295571	-0.857158	1.583981	-0.18957	0.112446	0.099766	-0.549316	0.250244	-0.536621
830.0	9.091516	-0.994039	1.35736	-0.193388	0.093634	0.121574	-0.546875	0.248047	-0.529541
831.0	9.047003	-1.038524	1.150823	-0.184062	0.072355	0.144294	-0.540039	0.248047	-0.529541
832.0	8.928926	-0.905339	0.887458	-0.169889	0.058264	0.174864	-0.542725	0.256836	-0.529785
833.0	8.838047	-0.719514	0.588394	-0.15928	0.045578	0.191501	-0.545166	0.259033	-0.530029
834.0	8.718647	-0.469995	0.365216	-0.138149	0.047117	0.218145	-0.549561	0.26123	-0.532471
835.0	8.568186	-0.176133	0.289982	-0.10589	0.066848	0.225001	-0.547363	0.26123	-0.530029
836.0	8.398228	-0.019675	0.160686	-0.060493	0.087609	0.226082	-0.549805	0.265625	-0.534912
837.0	8.321699	0.20662	0.073638	0.001236	0.117404	0.223439	-0.545166	0.263428	-0.532471
838.0	8.246258	0.211904	0.130056	0.053834	0.151052	0.214611	-0.542969	0.263428	-0.534668
839.0	8.184421	-0.010096	0.160381	0.080335	0.193136	0.214293	-0.540771	0.265869	-0.539551
840.0	8.202653	-0.294689	0.230806	0.10742	0.21054	0.221045	-0.542969	0.265869	-0.544189
841.0	8.199081	-0.449159	0.27827	0.140929	0.212098	0.211371	-0.538574	0.263672	-0.539307
842.0	8.006025	-0.516391	0.304664	0.18519	0.192777	0.202485	-0.547607	0.267822	-0.539551
843.0	7.703122	-0.453412	0.364851	0.231566	0.145432	0.183378	-0.541016	0.268066	-0.539551
844.0	7.451886	-0.401815	0.166036	0.267892	0.0889	0.160837	-0.543213	0.270264	-0.537354
845.0	7.198827	-0.270956	-0.060199	0.27477	0.006864	0.143252	-0.531982	0.272461	-0.549072
846.0	7.155309	-0.128996	-0.27767	0.265733	-0.082572	0.142747	-0.538818	0.272461	-0.544434
847.0	7.264515	-0.012127	-0.549768	0.235829	-0.170403	0.143289	-0.536377	0.270264	-0.544189
848.0	7.584294	-0.082455	-0.831001	0.213318	-0.261164	0.144302	-0.54126	0.274658	-0.549072
849.0	8.081363	-0.055706	-0.898872	0.191929	-0.318934	0.146913	-0.54126	0.276855	-0.542236
850.0	8.629078	-0.007526	-1.167354	0.197598	-0.358855	0.12395	-0.54541	0.265625	-0.541748
851.0	9.436396	0.264062	-1.281106	0.229567	-0.374156	0.082454	-0.536377	0.270264	-0.539551
852.0	10.275879	0.504221	-0.99645	0.262097	-0.332915	0.030691	-0.552246	0.267822	-0.537354
853.0	10.791807	0.656118	-0.868766	0.287448	-0.287907	-0.014879	-0.547852	0.27002	-0.539551
854.0	10.845504	0.749564	-1.085693	0.268277	-0.272299	-0.050331	-0.556641	0.265625	-0.551025
855.0	10.337318	0.720673	-1.48128	0.215091	-0.322623	-0.083547	-0.549805	0.267822	-0.534912
856.0	9.878129	0.453052	-2.045715	0.162424	-0.440626	-0.119001	-0.549805	0.263428	-0.537109
857.0	9.811489	0.019602	-2.198799	0.210444	-0.501692	-0.14834	-0.554443	0.267822	-0.528076
858.0	10.525868	-0.51242	-1.444454	0.409403	-0.467753	-0.149169	-0.558838	0.263428	-0.537109
859.0	13.487926	0.210422	0.408016	0.620173	-0.495078	-0.060313	-0.561035	0.26123	-0.530029
860.0	16.434339	0.660701	0.449594	0.395712	-0.724846	0.1035	-0.567627	0.26123	-0.527588
861.0	16.541847	1.107842	2.915801	-0.088816	-0.541405	0.252388	-0.563232	0.263428	-0.523193
862.0	13.807964	1.680437	2.765211	-0.367649	-0.282902	0.199574	-0.56543	0.263428	-0.527832
863.0	10.869556	1.351873	2.522668	-0.417214	-0.185767	0.10169	-0.568115	0.27002	-0.528076
864.0	9.096781	1.065654	1.978888	-0.254871	-0.219417	0.005233	-0.565674	0.265625	-0.530273
865.0	10.312451	0.971216	2.797987	0.02113	-0.153881	0.050684	-0.561279	0.267822	-0.520996
866.0	11.13112	-0.184804	3.65143	0.092646	-0.114538	0.175013	-0.567871	0.267822	-0.50708
867.0	10.326209	-1.09933	2.67377	0.074011	-0.202267	0.225705	-0.572998	0.278809	-0.526123
868.0	10.064556	-1.464894	1.157433	0.169366	-0.219072	0.214731	-0.570313	0.272217	-0.523438
869.0	10.445659	-1.519891	0.556284	0.310968	-0.11614	0.162902	-0.570557	0.276611	-0.523682
870.0	11.411806	-1.962077	0.713326	0.36297	-0.077802	0.110621	-0.570313	0.27002	-0.525635
871.0	12.325664	-2.349808	1.082919	0.297818	-0.114425	0.074949	-0.570313	0.27002	-0.516357
872.0	12.407716	-2.128217	0.776096	0.177013	-0.189912	0.026651	-0.577148	0.274414	-0.523438
873.0	11.959312	-1.221335	0.306965	0.10158	-0.187871	-0.025471	-0.572266	0.265625	-0.523193
874.0	11.332696	-0.147992	0.169996	0.06067	-0.112973	-0.062747	-0.574707	0.27002	-0.523438
875.0	10.855015	0.596803	0.626858	0.013521	-0.026467	-0.064834	-0.574707	0.27002	-0.528076
876.0	10.570011	1.021183	1.087393	0.012465	0.038942	-0.050602	-0.572266	0.265625	-0.520996
877.0	10.18791	1.207846	1.222358	0.040018	0.101925	-0.042373	-0.577148	0.274414	-0.523438
878.0	9.737065	1.268546	1.128263	0.059446	0.155381	-0.049866	-0.577148	0.27002	-0.525635
879.0	9.140258	1.205076	1.054211	0.058782	0.194019	-0.055055	-0.574707	0.267822	-0.530273
880.0	8.67274	1.106063	1.021709	0.044569	0.2132	-0.068783	-0.579102	0.265625	-0.532471
881.0	8.429195	0.949378	0.974288	0.025343	0.214548	-0.074041	-0.57959	0.274414	-0.528076
882.0	8.292254	0.766212	0.903478	0.0	0.220807	-0.08482	-0.581543	0.27002	-0.532715
883.0	8.061594	0.529424	0.821727	-0.038459	0.223295	-0.095321	-0.574707	0.27002	-0.534912
884.0	7.830704	0.383975	0.733205	-0.075495	0.21809	-0.105904	-0.570313	0.272217	-0.535156
885.0	7.685391	0.311612	0.642293	-0.11279	0.221235	-0.115691	-0.57251	0.267822	-0.530273
886.0	7.672439	0.339488	0.555868	-0.161951	0.224105	-0.118436	-0.577393	0.276611	-0.532959
887.0	7.663432	0.380165	0.581358	-0.201624	0.239102	-0.108761	-0.574707	0.27002	-0.532715
888.0	7.830814	0.443069	0.513887	-0.220687	0.241627	-0.089258	-0.581543	0.272217	-0.537354
889.0	8.007742	0.48612	0.460308	-0.223217	0.243608	-0.066668	-0.579346	0.272217	-0.530518
890.0	8.132939	0.457976	0.342479	-0.233465	0.259675	-0.037358	-0.579346	0.267822	-0.541748
891.0	8.128826	0.554699	0.177194	-0.234539	0.251363	-0.018648	-0.575195	0.278809	-0.540039
892.0	8.0703	0.640252	0.083672	-0.226292	0.246836	-0.003169	-0.570313	0.272217	-0.537354
893.0	7.982598	0.749112	0.094632	-0.22489	0.232112	0.005757	-0.577393	0.276611	-0.537598
894.0	7.91605	0.850084	0.077858	-0.218042	0.210992	0.011539	-0.572754	0.276611	-0.549072
895.0	7.830072	0.872895	-0.093099	-0.221232	0.188108	0.004979	-0.570557	0.278809	-0.546875
896.0	7.76587	0.889616	-0.292944	-0.234662	0.14863	0.004405	-0.572998	0.278809	-0.544678
897.0	7.812181	0.804923	-0.492762	-0.245502	0.105631	3e-05	-0.570557	0.276611	-0.553711
898.0	8.026656	0.647893	-0.835386	-0.284554	0.060829	-0.002507	-0.572754	0.274414	-0.546875
899.0	8.454976	0.439675	-1.131779	-0.339555	-0.003676	-0.005828	-0.568604	0.2854	-0.549561
900.0	9.144507	0.430981	-1.321057	-0.353496	-0.08214	-0.015583	-0.571045	0.287598	-0.544922
901.0	10.046617	0.581378	-1.431702	-0.308525	-0.149895	-0.051036	-0.580322	0.291992	-0.545166
902.0	10.823333	0.907887	-1.331466	-0.244876	-0.179363	-0.081243	-0.575439	0.2854	-0.547119
903.0	11.277	1.092476	-1.319401	-0.193271	-0.162347	-0.098933	-0.572998	0.281006	-0.540039
904.0	11.205719	1.194889	-1.388447	-0.161788	-0.143504	-0.09358	-0.582275	0.287598	-0.544922
905.0	10.961999	1.132894	-1.687692	-0.147475	-0.155267	-0.086879	-0.579834	0.2854	-0.54248
906.0	10.574053	1.090966	-2.196886	-0.128427	-0.201211	-0.085534	-0.575439	0.283203	-0.537842
907.0	10.225991	1.182135	-2.126794	-0.15252	-0.248066	-0.09498	-0.577881	0.289795	-0.540283
908.0	11.058004	0.545092	0.020419	-0.304574	-0.203522	-0.10212	-0.580078	0.287598	-0.537842
909.0	12.32383	-1.120593	-0.478819	-0.252431	-0.327746	-0.20297	-0.580078	0.291992	-0.538086
910.0	13.877252	-1.83548	-2.424945	-0.116788	-0.572128	-0.356534	-0.588867	0.281006	-0.532959
911.0	15.079036	-2.799726	-0.846817	0.265795	-0.247359	-0.441785	-0.589111	0.287598	-0.531006
912.0	13.809679	-2.733764	1.475986	0.747675	-0.057965	-0.518154	-0.588623	0.278809	-0.537598
913.0	12.149825	-1.400433	1.909471	0.834628	-0.059157	-0.490343	-0.593018	0.276611	-0.530518
914.0	11.236322	-0.289172	2.576636	0.464405	-0.063031	-0.374325	-0.594971	0.267578	-0.532471
915.0	11.309421	-0.622955	3.361393	0.158615	0.0334	-0.300984	-0.590332	0.265625	-0.537109
916.0	11.633236	0.032139	2.479771	0.13051	0.114149	-0.268488	-0.594727	0.260986	-0.543945
917.0	11.136722	0.641671	3.115096	0.070157	0.218172	-0.184616	-0.597168	0.263184	-0.539307
918.0	11.118918	1.383343	3.473517	0.010341	0.19491	-0.137335	-0.594727	0.260986	-0.541504
919.0	10.753243	2.214771	1.802813	-0.065719	0.169758	-0.143367	-0.590332	0.26123	-0.541504
920.0	10.617404	2.731661	1.427263	-0.208555	0.134981	-0.144985	-0.592529	0.263428	-0.539307
921.0	10.724369	2.823155	1.916156	-0.165171	0.091903	-0.14756	-0.596924	0.260986	-0.539307
922.0	11.219027	2.763692	1.44633	-0.127195	0.055069	-0.16995	-0.590088	0.256592	-0.536865
923.0	11.723766	2.413415	1.202439	-0.144699	0.05015	-0.158866	-0.597168	0.265381	-0.541748
924.0	11.717311	1.804021	1.190416	-0.167596	0.068783	-0.08866	-0.599121	0.258789	-0.541504
925.0	11.233767	1.067586	1.04996	-0.207262	0.094017	-0.022413	-0.594971	0.265625	-0.539551
926.0	10.690403	0.332157	1.171365	-0.230764	0.119508	0.031915	-0.599365	0.260986	-0.543945
927.0	10.320315	-0.20871	1.207362	-0.217053	0.132798	0.06125	-0.597168	0.265381	-0.539551
928.0	10.125074	-0.733878	1.22052	-0.205827	0.139177	0.072134	-0.601563	0.265381	-0.546387
929.0	9.863151	-1.055797	1.159395	-0.212007	0.152465	0.08478	-0.599365	0.265381	-0.534912
930.0	9.547241	-1.166716	1.076792	-0.227834	0.145378	0.109983	-0.599609	0.27002	-0.544189
931.0	9.189038	-1.249115	0.974167	-0.261393	0.134278	0.133205	-0.592773	0.27002	-0.539551
932.0	8.970615	-1.180889	0.792977	-0.26791	0.120989	0.158197	-0.592773	0.27002	-0.541992
933.0	8.802037	-1.024966	0.609662	-0.260294	0.10692	0.171873	-0.595215	0.274414	-0.539795
934.0	8.683777	-0.781097	0.425571	-0.240277	0.100859	0.18909	-0.595459	0.276611	-0.539795
935.0	8.597963	-0.568006	0.319483	-0.202241	0.121364	0.198353	-0.59082	0.278809	-0.540039
936.0	8.458713	-0.351227	0.216185	-0.167793	0.138317	0.211257	-0.599854	0.278809	-0.546875
937.0	8.455102	-0.253165	0.270026	-0.113302	0.163064	0.236398	-0.591064	0.281006	-0.540039
938.0	8.368568	-0.094716	0.292245	-0.047945	0.205914	0.241803	-0.599854	0.278809	-0.551514
939.0	8.115991	-0.11253	0.263504	0.013374	0.235256	0.23424	-0.595703	0.287598	-0.544922
940.0	8.015436	-0.291278	0.100107	0.084151	0.251845	0.227317	-0.591309	0.2854	-0.551758
941.0	8.170962	-0.550586	0.00686	0.139604	0.269892	0.217767	-0.588867	0.281006	-0.549316
942.0	8.161962	-0.783908	0.13882	0.169034	0.287126	0.20931	-0.588867	0.2854	-0.556396
943.0	8.076955	-0.875163	0.156831	0.20229	0.284876	0.20158	-0.586914	0.289795	-0.556641
944.0	7.937807	-0.83626	0.123622	0.255077	0.277395	0.181346	-0.588867	0.283203	-0.563232
945.0	7.674045	-0.720725	0.103465	0.304912	0.246622	0.154393	-0.586914	0.289795	-0.561279
946.0	7.385579	-0.518505	0.083479	0.351559	0.20417	0.1323	-0.584229	0.278809	-0.558594
947.0	7.157263	-0.308398	-0.123995	0.370749	0.139332	0.116571	-0.584473	0.283203	-0.565674
948.0	7.022324	-0.04344	-0.320462	0.356637	0.047682	0.111307	-0.59082	0.276611	-0.560791
949.0	7.110811	0.163411	-0.437076	0.327114	-0.042757	0.103551	-0.595459	0.281006	-0.561035
950.0	7.362931	0.140725	-0.502054	0.285896	-0.109074	0.091906	-0.586426	0.276611	-0.560791
951.0	7.838483	0.169972	-0.557425	0.24325	-0.173869	0.081187	-0.591064	0.281006	-0.558594
952.0	8.481564	0.133197	-0.551426	0.203839	-0.198288	0.075376	-0.59082	0.274414	-0.560791
953.0	9.265635	0.183502	-0.614159	0.178049	-0.20626	0.047561	-0.591064	0.278809	-0.558594
954.0	10.180408	0.469515	-0.610337	0.197342	-0.21773	0.016176	-0.595459	0.276611	-0.553711
955.0	10.952344	0.644777	-0.584625	0.216133	-0.182517	-0.014471	-0.59082	0.276611	-0.556152
956.0	11.250609	0.780651	-0.711774	0.216553	-0.14702	-0.043786	-0.597412	0.27002	-0.555908
957.0	11.158784	0.918598	-1.322437	0.184025	-0.174445	-0.083372	-0.595215	0.274414	-0.55835
958.0	10.837655	0.763525	-1.83782	0.139125	-0.206039	-0.128677	-0.599365	0.265625	-0.555664
959.0	10.488145	0.335731	-2.372021	0.159322	-0.27419	-0.178482	-0.601563	0.265381	-0.548828
960.0	10.40791	-0.226575	-2.740969	0.255846	-0.31718	-0.224166	-0.601318	0.258789	-0.548584
961.0	11.62031	-0.520054	-1.76204	0.439776	-0.283171	-0.211632	-0.599365	0.263428	-0.555664
962.0	14.783607	0.636606	-0.287905	0.537235	-0.363786	-0.136565	-0.605957	0.256592	-0.550781
963.0	16.284754	0.627303	0.25725	0.265384	-0.383341	0.065665	-0.610596	0.260986	-0.550781
964.0	15.409939	1.241615	1.898284	-0.217295	-0.078484	0.234162	-0.612549	0.256592	-0.550781
965.0	13.155869	1.316519	2.187823	-0.449343	0.05455	0.205551	-0.612793	0.258789	-0.546143
966.0	10.605374	1.079883	2.228333	-0.429407	0.094301	0.149576	-0.605957	0.260986	-0.546143
967.0	8.593124	0.917408	1.612627	-0.347707	-0.032347	0.072877	-0.604004	0.265381	-0.546387
968.0	8.469411	0.747858	1.459987	-0.152792	-0.130167	0.062063	-0.61084	0.267578	-0.548828
969.0	9.955261	0.782427	2.714202	0.089412	-0.014402	0.153879	-0.615234	0.265381	-0.548828
970.0	10.571671	-0.356937	3.863275	0.106751	-0.014555	0.290395	-0.612793	0.263184	-0.555664
971.0	10.222341	-1.330693	3.407469	0.000528	-0.098934	0.375593	-0.617676	0.271973	-0.539795
972.0	10.207872	-1.647999	1.589367	-0.018806	-0.188037	0.383913	-0.615234	0.267578	-0.544189
973.0	10.578609	-1.470978	0.615328	-0.006892	-0.151022	0.324122	-0.617676	0.271973	-0.541992
974.0	11.058037	-1.596295	0.537605	0.032394	-0.069321	0.240018	-0.615479	0.269775	-0.539551
975.0	11.420217	-2.063564	1.169349	0.09607	-0.029201	0.140997	-0.615479	0.271973	-0.539795
976.0	11.584544	-2.241877	1.029667	0.097048	-0.052621	0.060668	-0.619873	0.267578	-0.544189
977.0	11.34206	-1.588853	0.378738	0.036596	-0.072376	-0.005535	-0.617432	0.265381	-0.544189
978.0	10.875854	-0.750642	0.310475	-0.014296	-0.020316	-0.030304	-0.619629	0.263184	-0.537109
979.0	10.358029	0.087253	0.523376	-0.010197	0.046387	-0.03049	-0.621826	0.263184	-0.543945
980.0	10.063773	0.579396	0.72422	0.02181	0.109746	-0.022052	-0.61499	0.263184	-0.543945
981.0	9.731749	0.73481	1.019644	0.044657	0.173424	-0.012823	-0.615479	0.269775	-0.546631
982.0	9.354055	0.804547	1.174216	0.042282	0.233763	-0.009344	-0.619629	0.263184	-0.539307
983.0	9.039575	0.779381	1.093132	0.025003	0.254478	-0.019874	-0.617188	0.256592	-0.546143
984.0	8.776409	0.718764	1.063126	-0.003612	0.262698	-0.040462	-0.619629	0.260986	-0.546143
985.0	8.567545	0.653909	1.032107	-0.026953	0.261414	-0.072451	-0.619629	0.263184	-0.541748
986.0	8.467382	0.579144	0.999631	-0.052912	0.250904	-0.101384	-0.619385	0.258789	-0.553223
987.0	8.331566	0.476669	0.8993	-0.075894	0.234158	-0.122948	-0.617432	0.263184	-0.553223
988.0	8.207163	0.475618	0.845858	-0.104547	0.225988	-0.139791	-0.621582	0.256592	-0.54834
989.0	8.157495	0.553071	0.761688	-0.143382	0.216886	-0.14401	-0.617188	0.258789	-0.553223
990.0	8.099261	0.544128	0.648288	-0.177728	0.213051	-0.138809	-0.621582	0.258789	-0.550781
991.0	8.090835	0.578409	0.47113	-0.211386	0.204556	-0.121955	-0.612549	0.256592	-0.552979
992.0	8.197027	0.456355	0.453093	-0.226467	0.19626	-0.102173	-0.617188	0.256592	-0.55542
993.0	8.008451	0.658528	0.376103	-0.230314	0.191415	-0.077505	-0.616943	0.252197	-0.552979
994.0	7.988278	0.440216	0.160398	-0.219391	0.16175	-0.067147	-0.619385	0.256592	-0.55542
995.0	7.879296	0.551009	0.077758	-0.208694	0.144229	-0.060458	-0.617188	0.258789	-0.560059
996.0	7.851315	0.599145	0.032062	-0.213213	0.125493	-0.06024	-0.616943	0.252197	-0.555176
997.0	7.848053	0.681964	0.019264	-0.221533	0.090913	-0.072179	-0.624023	0.260986	-0.557861
998.0	7.832024	0.730468	-0.089251	-0.237663	0.057752	-0.078251	-0.621582	0.254395	-0.559814
999.0	7.76568	0.817263	-0.252677	-0.24635	-0.00062	-0.092303	-0.623535	0.25	-0.557373
1000.0	7.863942	1.012803	-0.468394	-0.255982	-0.037046	-0.096846	-0.621338	0.25	-0.559814
1001.0	8.045357	1.090837	-0.494033	-0.272043	-0.060756	-0.095563	-0.619385	0.254395	-0.545898
1002.0	8.324188	0.997677	-0.765529	-0.305822	-0.112571	-0.064107	-0.623779	0.254395	-0.557617
1003.0	8.782347	0.815956	-1.169331	-0.345565	-0.192042	-0.0288	-0.628418	0.256592	-0.552979
1004.0	9.498345	0.609364	-1.521232	-0.357292	-0.279384	-0.007246	-0.623779	0.252197	-0.550537
1005.0	10.190627	0.429727	-1.72665	-0.329531	-0.331217	0.001955	-0.625977	0.254395	-0.552979
1006.0	10.611795	0.406119	-2.082636	-0.259151	-0.324432	0.008038	-0.630615	0.254395	-0.545898
1007.0	10.846995	0.409738	-2.302349	-0.197637	-0.30049	0.015604	-0.632813	0.252197	-0.538818
1008.0	10.96694	0.355954	-2.217604	-0.150474	-0.258358	0.015728	-0.632568	0.247803	-0.543457
1009.0	10.751515	0.331425	-2.068784	-0.134701	-0.206644	0.018027	-0.63501	0.256592	-0.539063
1010.0	10.854369	0.501523	-1.480506	-0.158862	-0.191515	-0.005993	-0.639404	0.249756	-0.54126
1011.0	12.197303	-0.121298	0.247391	-0.270515	-0.113453	-0.060881	-0.634766	0.25	-0.538818
1012.0	13.480954	-1.183822	-0.721156	-0.214814	-0.29176	-0.192914	-0.641602	0.247559	-0.536377
1013.0	15.19151	-1.467755	-1.979572	-0.14573	-0.331335	-0.304465	-0.645996	0.245361	-0.533936
1014.0	14.922572	-2.277784	0.46678	0.21065	-0.06484	-0.352099	-0.643555	0.240967	-0.533936
1015.0	13.808131	-1.401219	2.79032	0.504693	-0.113054	-0.328873	-0.652344	0.236572	-0.540771
1016.0	13.281354	-0.776144	3.561119	0.414372	-0.043358	-0.295162	-0.650146	0.236572	-0.536133
1017.0	13.707873	-0.077428	2.769784	0.371373	-0.142102	-0.385079	-0.649902	0.22998	-0.535889
1018.0	12.060046	0.510096	3.316465	0.38445	0.063833	-0.349085	-0.651855	0.223389	-0.537842
1019.0	10.406626	1.034011	3.342646	0.207985	0.001175	-0.178067	-0.651855	0.225586	-0.535645
1020.0	9.138508	0.982188	2.567207	-0.065229	0.153249	-0.065079	-0.649414	0.221191	-0.5354
1021.0	8.486011	1.214273	1.97491	-0.300796	0.114726	-0.012951	-0.6521	0.227783	-0.535645
1022.0	9.050591	2.033914	2.353152	-0.321854	0.045909	0.006258	-0.651611	0.221191	-0.537842
1023.0	9.967131	2.600604	1.652649	-0.187844	-0.057848	-0.067266	-0.649658	0.225586	-0.535645
1024.0	11.085101	2.650211	0.922531	-0.200703	-0.107618	-0.175877	-0.658691	0.223389	-0.540283
1025.0	11.862253	2.12699	1.416778	-0.21577	-0.093529	-0.213084	-0.654053	0.221191	-0.537842
1026.0	12.040978	1.439053	1.269056	-0.232439	-0.061755	-0.172602	-0.656006	0.216797	-0.540039
1027.0	11.823933	0.466011	1.261795	-0.266026	-0.016021	-0.094459	-0.663086	0.221191	-0.530762
1028.0	11.46759	-0.179278	1.369208	-0.232333	0.010435	-0.025721	-0.658203	0.216797	-0.5354
1029.0	11.089847	-0.600675	1.307139	-0.171057	0.04067	0.013337	-0.660645	0.221191	-0.540039
1030.0	10.803212	-0.924851	1.124137	-0.110618	0.078895	0.021664	-0.658447	0.218994	-0.532959
1031.0	10.454285	-1.046233	1.082767	-0.055205	0.147545	0.04491	-0.656006	0.216797	-0.5354
1032.0	9.98345	-1.034941	1.170791	-0.021753	0.188147	0.07893	-0.658447	0.221191	-0.537842
1033.0	9.515356	-0.938142	1.091069	0.001745	0.201532	0.119034	-0.658691	0.223389	-0.54248
1034.0	9.105786	-0.787819	1.001551	-0.000153	0.194405	0.14743	-0.662842	0.216553	-0.532959
1035.0	8.811614	-0.725072	0.928098	0.003452	0.186173	0.184832	-0.654053	0.221191	-0.540039
1036.0	8.578342	-0.583663	0.886489	0.008387	0.182915	0.223017	-0.658203	0.216797	-0.544678
1037.0	8.450401	-0.511406	0.851143	0.017863	0.179636	0.260827	-0.658691	0.223389	-0.540283
1038.0	8.321268	-0.458916	0.682492	0.030651	0.175565	0.295146	-0.658691	0.225586	-0.54248
1039.0	8.157489	-0.44251	0.536129	0.055666	0.173881	0.316404	-0.65625	0.223389	-0.544922
1040.0	8.054595	-0.358829	0.402194	0.07909	0.174686	0.323375	-0.658691	0.225586	-0.540283
1041.0	7.986599	-0.266072	0.203655	0.11243	0.178973	0.319477	-0.658936	0.22998	-0.542725
1042.0	7.988503	-0.257778	0.168873	0.135936	0.181082	0.315804	-0.654297	0.227783	-0.554199
1043.0	7.976185	-0.28839	0.13085	0.148892	0.186086	0.300716	-0.658936	0.22998	-0.552002
1044.0	7.962856	-0.442014	0.142156	0.161304	0.19633	0.276217	-0.661133	0.22998	-0.549805
1045.0	7.908212	-0.561707	0.136673	0.188527	0.200039	0.250162	-0.649902	0.232178	-0.554443
1046.0	7.888796	-0.540906	0.130073	0.245025	0.196512	0.215978	-0.660889	0.225586	-0.554199
1047.0	7.934224	-0.430664	0.065088	0.313483	0.17388	0.172647	-0.656494	0.227783	-0.558838
1048.0	7.870317	-0.418283	0.065801	0.377127	0.129954	0.150632	-0.661133	0.227783	-0.561279
1049.0	7.813117	-0.280947	-0.189769	0.399768	0.097953	0.128297	-0.658936	0.22998	-0.556641
1050.0	7.592884	-0.140907	-0.473963	0.40098	0.035514	0.128998	-0.658691	0.225586	-0.558838
1051.0	7.480683	0.111812	-0.611187	0.357944	-0.042129	0.129578	-0.658691	0.227783	-0.563477
1052.0	7.562071	0.215921	-0.784459	0.310379	-0.094015	0.132271	-0.653809	0.216797	-0.560791
1053.0	7.789621	0.24824	-0.981597	0.274327	-0.131951	0.139254	-0.656738	0.22998	-0.559082
1054.0	8.106578	0.314363	-1.093491	0.258933	-0.168303	0.136249	-0.660889	0.225586	-0.565674
1055.0	8.68336	0.260161	-1.143313	0.272055	-0.175642	0.109823	-0.660889	0.225586	-0.558838
1056.0	9.451813	0.367783	-1.08	0.31512	-0.184845	0.081529	-0.658447	0.221191	-0.561035
1057.0	10.22588	0.451169	-0.825225	0.350317	-0.172419	0.031259	-0.662842	0.218994	-0.558594
1058.0	10.820762	0.401224	-0.613468	0.320953	-0.15912	-0.020903	-0.674316	0.221191	-0.561035
1059.0	10.996523	0.390816	-0.871002	0.26417	-0.154066	-0.073992	-0.671875	0.2146	-0.56543
1060.0	10.802978	0.498952	-1.508942	0.241384	-0.161416	-0.143363	-0.669434	0.2146	-0.556152
1061.0	10.469826	0.383231	-1.922905	0.22592	-0.2042	-0.200227	-0.671631	0.209961	-0.555908
1062.0	10.338506	0.032641	-2.129011	0.263369	-0.250422	-0.237642	-0.677979	0.203369	-0.555664
1063.0	11.307841	-0.360417	-1.335996	0.431928	-0.245322	-0.236974	-0.67334	0.198975	-0.548584
1064.0	14.483525	0.617001	0.754418	0.564403	-0.310503	-0.129798	-0.682373	0.196777	-0.553223
1065.0	16.651664	0.22647	0.567961	0.20098	-0.592807	0.063151	-0.677979	0.198975	-0.553223
1066.0	16.174518	0.543716	2.0866	-0.422989	-0.397327	0.202992	-0.687012	0.201172	-0.553223
1067.0	13.61641	1.083987	1.881963	-0.614975	-0.169981	0.143146	-0.682617	0.205566	-0.548828
1068.0	10.977184	0.774891	1.940816	-0.52652	-0.074738	0.065731	-0.687256	0.207764	-0.546631
1069.0	9.078371	0.834019	1.27411	-0.416977	-0.184729	-0.01264	-0.687256	0.209961	-0.544189
1070.0	8.431817	0.842751	1.132277	-0.289963	-0.173783	-0.012328	-0.682617	0.205566	-0.548828
1071.0	9.486254	1.237355	2.420296	-0.001212	0.005601	0.057032	-0.6875	0.214355	-0.549072
1072.0	9.843573	-0.1248	3.462195	0.050426	0.009678	0.193227	-0.69165	0.205566	-0.544189
1073.0	9.771333	-1.33004	2.937728	-0.039832	-0.098456	0.312748	-0.689453	0.207764	-0.539551
1074.0	10.211737	-1.649663	1.270325	0.026353	-0.124435	0.340349	-0.689941	0.21875	-0.5354
1075.0	10.972616	-1.58142	1.000234	0.1156	-0.041925	0.276641	-0.689941	0.216553	-0.544434
1076.0	11.62296	-1.909475	1.40951	0.12395	-0.004432	0.185204	-0.696533	0.214355	-0.539795
1077.0	12.461169	-2.502431	1.840956	0.111228	-0.016807	0.105217	-0.689941	0.216553	-0.539795
1078.0	12.482405	-2.574115	1.136176	0.071849	-0.077037	0.019459	-0.691895	0.212158	-0.537354
1079.0	11.738335	-1.723816	0.022621	-0.007958	-0.127898	-0.085669	-0.692139	0.21875	-0.551514
1080.0	10.937724	-0.580516	-0.120697	-0.061976	-0.088994	-0.142485	-0.696533	0.214355	-0.542236
1081.0	10.326466	0.339081	0.175672	-0.074921	-0.042556	-0.14374	-0.694092	0.212158	-0.544434
1082.0	9.855024	0.773241	0.497985	-0.058881	0.001346	-0.112712	-0.696533	0.214355	-0.539795
1083.0	9.523922	0.866778	0.536348	-0.020874	0.053215	-0.077121	-0.694336	0.214355	-0.535156
1084.0	9.356768	0.772954	0.510146	-0.000373	0.09163	-0.056347	-0.69873	0.209961	-0.539551
1085.0	9.103864	0.696482	0.482171	0.003941	0.117518	-0.04738	-0.694336	0.216553	-0.535156
1086.0	8.865867	0.750709	0.453188	0.000259	0.128727	-0.064199	-0.696533	0.212158	-0.539795
1087.0	8.682009	0.691953	0.498334	-0.015341	0.14428	-0.089192	-0.691895	0.212158	-0.539795
1088.0	8.48882	0.65458	0.531777	-0.02727	0.151705	-0.127049	-0.698486	0.207764	-0.546631
1089.0	8.38301	0.526812	0.501994	-0.058246	0.153549	-0.159077	-0.69458	0.21875	-0.537598
1090.0	8.305262	0.577213	0.289129	-0.106095	0.158735	-0.169843	-0.69873	0.212158	-0.541992
1091.0	8.246472	0.481582	0.175507	-0.146251	0.164092	-0.172272	-0.696533	0.212158	-0.541992
1092.0	8.088971	0.377937	0.075809	-0.18733	0.177259	-0.157501	-0.698486	0.205566	-0.551025
1093.0	7.960856	0.337647	-0.04075	-0.228836	0.187656	-0.128136	-0.69873	0.212158	-0.549072
1094.0	7.867011	0.292415	-0.039523	-0.259608	0.203067	-0.096737	-0.698486	0.207764	-0.544189
1095.0	7.779178	0.307861	-0.139602	-0.277921	0.20829	-0.074949	-0.693848	0.205566	-0.551025
1096.0	7.802204	0.219686	-0.237725	-0.278113	0.221709	-0.05151	-0.69873	0.212158	-0.549072
1097.0	7.745131	0.307176	-0.241885	-0.282844	0.217292	-0.038442	-0.694092	0.209961	-0.555908
1098.0	7.814779	0.344786	-0.222227	-0.255125	0.211063	-0.037959	-0.691895	0.209961	-0.560547
1099.0	7.777666	0.414806	-0.071053	-0.223444	0.199676	-0.041977	-0.691895	0.209961	-0.560547
1100.0	7.708815	0.3923	0.053756	-0.179286	0.186906	-0.050018	-0.689697	0.209961	-0.55835
1101.0	7.674381	0.382136	0.021085	-0.126313	0.169382	-0.058476	-0.6875	0.212158	-0.555908
1102.0	7.535949	0.413875	-0.267381	-0.08302	0.140868	-0.069751	-0.694336	0.212158	-0.560547
1103.0	7.639364	0.438151	-0.654322	-0.053455	0.099907	-0.080836	-0.696533	0.214355	-0.55835
1104.0	7.746402	0.385726	-1.023287	-0.038776	0.052205	-0.093331	-0.691895	0.209961	-0.562988
1105.0	8.136486	0.308194	-1.452676	-0.031539	-0.002556	-0.100893	-0.696533	0.214355	-0.55835
1106.0	8.803829	0.29386	-1.650851	-0.019373	-0.077809	-0.123502	-0.696533	0.212158	-0.555908
1107.0	9.778335	0.436673	-1.594481	0.029064	-0.152108	-0.149292	-0.694336	0.214355	-0.560791
1108.0	10.641818	0.579998	-1.567569	0.096526	-0.186743	-0.160698	-0.700928	0.207764	-0.560547
1109.0	11.195748	0.818683	-1.706888	0.155077	-0.193029	-0.146485	-0.705566	0.212158	-0.553711
1110.0	11.362036	0.901724	-1.698143	0.188708	-0.190285	-0.122613	-0.702881	0.205566	-0.553467
1111.0	11.268273	1.015769	-1.932115	0.215174	-0.200508	-0.090946	-0.705078	0.201172	-0.557861
1112.0	11.135976	1.191771	-2.031506	0.149025	-0.188837	-0.061391	-0.700439	0.201172	-0.555664
1113.0	11.619803	0.672664	-0.179732	-0.021496	-0.06334	-0.031157	-0.702881	0.203369	-0.548584
1114.0	12.509264	-0.673071	-0.556906	-0.009047	-0.173472	-0.092751	-0.705078	0.201172	-0.551025
1115.0	14.367866	-0.907243	-2.424581	0.023806	-0.522834	-0.241966	-0.707275	0.203369	-0.548584
1116.0	15.664394	-1.736866	-1.116517	0.251566	-0.315788	-0.33236	-0.716064	0.194336	-0.54126
1117.0	14.562744	-1.484215	0.902447	0.517067	-0.214678	-0.346099	-0.7229	0.194336	-0.550781
1118.0	13.213788	-0.069973	2.176003	0.569221	-0.175377	-0.288209	-0.71582	0.187744	-0.541016
1119.0	12.68981	-0.016421	3.280235	0.425119	-0.137216	-0.224646	-0.718262	0.192139	-0.539063
1120.0	13.259862	0.136744	2.580323	0.383	-0.212978	-0.251014	-0.718018	0.185547	-0.545654
1121.0	12.348288	0.856865	3.220991	0.229727	-0.05696	-0.196852	-0.715576	0.18335	-0.545654
1122.0	10.884694	1.174216	3.494719	-0.00255	0.018416	-0.060836	-0.717773	0.18335	-0.541016
1123.0	9.884205	1.255593	2.591444	-0.185432	0.162657	0.002024	-0.71582	0.189941	-0.545898
1124.0	9.555458	1.813282	1.880731	-0.308027	0.079314	0.013463	-0.713379	0.185547	-0.543457
1125.0	9.876952	2.351108	1.970031	-0.265108	-0.019229	-0.015912	-0.71582	0.189941	-0.538818
1126.0	10.211523	2.666972	1.201772	-0.176621	-0.057644	-0.080475	-0.718018	0.187744	-0.541016
1127.0	10.874516	2.420909	0.79939	-0.179613	-0.070765	-0.143154	-0.722412	0.187744	-0.543457
1128.0	11.528537	2.137815	1.223921	-0.178832	-0.043248	-0.149273	-0.720215	0.187744	-0.543457
1129.0	11.689511	1.715116	1.450548	-0.157315	0.001464	-0.116315	-0.71582	0.187744	-0.543457
1130.0	11.394763	1.082044	1.345272	-0.151743	0.038546	-0.059972	-0.718018	0.187744	-0.538818
1131.0	10.942326	0.507285	1.326724	-0.12592	0.086641	-0.008734	-0.71582	0.187744	-0.545898
1132.0	10.539015	-0.020219	1.450822	-0.0813	0.148528	0.027506	-0.718262	0.192139	-0.545898
1133.0	10.158666	-0.497693	1.542569	-0.063096	0.212419	0.056322	-0.720459	0.194336	-0.536621
1134.0	9.912514	-0.849871	1.427727	-0.074666	0.271393	0.088069	-0.718262	0.194336	-0.54834
1135.0	9.579777	-0.994897	1.267508	-0.095915	0.287922	0.119433	-0.716064	0.196533	-0.54834
1136.0	9.205118	-0.948163	1.095212	-0.110222	0.25626	0.143775	-0.716064	0.196533	-0.543701
1137.0	8.841816	-0.925846	1.020883	-0.132715	0.215845	0.159874	-0.71167	0.19873	-0.55542
1138.0	8.53263	-0.752887	0.839098	-0.155344	0.187188	0.1897	-0.71167	0.196533	-0.539063
1139.0	8.244315	-0.613491	0.586457	-0.170074	0.147279	0.218694	-0.714111	0.205322	-0.548828
1140.0	7.988258	-0.504734	0.407388	-0.170071	0.120777	0.250515	-0.714111	0.203369	-0.557861
1141.0	7.868877	-0.338408	0.211042	-0.151143	0.109479	0.284323	-0.714355	0.209961	-0.548828
1142.0	7.829142	-0.293241	0.060305	-0.114989	0.121823	0.305201	-0.709961	0.214355	-0.551514
1143.0	7.740325	-0.321743	-0.067805	-0.052486	0.141606	0.301149	-0.712402	0.216553	-0.553711
1144.0	7.757516	-0.397638	-0.255017	0.008646	0.174114	0.282069	-0.712402	0.216553	-0.553711
1145.0	7.901539	-0.525215	-0.323789	0.082814	0.204644	0.248806	-0.712646	0.220947	-0.553955
1146.0	8.055596	-0.650028	-0.244692	0.156152	0.240469	0.231271	-0.710449	0.223145	-0.556396
1147.0	8.197383	-0.77436	-0.103813	0.208123	0.245046	0.230292	-0.706055	0.223145	-0.558594
1148.0	8.076796	-0.747971	0.126696	0.237213	0.220783	0.233866	-0.710449	0.225342	-0.556396
1149.0	7.919444	-0.665252	0.174236	0.269442	0.201542	0.231175	-0.705811	0.220947	-0.563232
1150.0	7.671585	-0.512488	0.148744	0.296045	0.176324	0.215836	-0.703613	0.21875	-0.560791
1151.0	7.466398	-0.279551	0.063676	0.275044	0.10146	0.194959	-0.712891	0.225342	-0.558838
1152.0	7.376437	-0.034254	-0.189361	0.244734	0.013012	0.187025	-0.706055	0.225342	-0.565674
1153.0	7.526688	0.076724	-0.489796	0.19668	-0.081971	0.173394	-0.710693	0.227539	-0.563477
1154.0	7.826388	0.180774	-0.624759	0.140765	-0.169626	0.180073	-0.708252	0.225342	-0.565674
1155.0	8.203759	0.192783	-0.769442	0.091792	-0.245712	0.185097	-0.710449	0.223145	-0.563232
1156.0	8.482822	0.328655	-0.853085	0.0514	-0.310525	0.179204	-0.712891	0.229736	-0.554199
1157.0	8.812158	0.523238	-0.985926	0.038842	-0.357449	0.146148	-0.713135	0.234131	-0.552246
1158.0	9.284253	0.923497	-1.154246	0.068524	-0.384559	0.085169	-0.712646	0.223145	-0.549316
1159.0	9.985572	1.136541	-1.066052	0.115781	-0.379425	0.016275	-0.715088	0.229736	-0.549561
1160.0	10.595448	1.126272	-1.174445	0.121454	-0.361954	-0.04244	-0.715332	0.231934	-0.552002
1161.0	10.839774	0.824282	-1.676037	0.086433	-0.36984	-0.092104	-0.719971	0.234131	-0.545166
1162.0	10.786617	0.442855	-2.094556	0.088883	-0.340884	-0.148335	-0.719727	0.229736	-0.540283
1163.0	10.597662	0.257058	-2.601528	0.097942	-0.35237	-0.198694	-0.719482	0.225342	-0.535645
1164.0	10.31094	-0.1728	-3.228891	0.099251	-0.415121	-0.247741	-0.72168	0.225342	-0.535645
1165.0	10.287082	-0.832518	-3.006028	0.199349	-0.423081	-0.278351	-0.724121	0.225098	-0.528564
1166.0	11.683018	-1.112106	-0.694478	0.514865	-0.33399	-0.23147	-0.728271	0.220703	-0.526123
1167.0	15.067162	-0.202771	0.249814	0.576706	-0.561186	-0.096773	-0.726074	0.2229	-0.526123
1168.0	16.567815	-0.490984	0.94167	0.169317	-0.529737	0.138801	-0.728516	0.225098	-0.521729
1169.0	14.484796	0.365895	2.431135	-0.272829	-0.177197	0.208104	-0.730957	0.227295	-0.523926
1170.0	12.397837	0.544705	2.312363	-0.2811	-0.090974	0.131419	-0.728516	0.227295	-0.519287
1171.0	10.13269	0.189178	2.221404	-0.227697	-0.126428	0.040713	-0.72876	0.233887	-0.517334
1172.0	9.015874	0.120679	1.804397	-0.115771	-0.260558	-0.031954	-0.735352	0.227295	-0.512451
1173.0	9.575432	0.498893	1.784574	0.10167	-0.205296	-0.015376	-0.735596	0.233887	-0.514893
1174.0	10.439143	0.147063	2.459262	0.201144	-0.050874	0.082975	-0.737793	0.231689	-0.507813
1175.0	10.417556	-0.57605	2.391803	0.222676	-0.061496	0.163337	-0.740234	0.236084	-0.510498
1176.0	10.906581	-1.089959	1.48244	0.355505	-0.038111	0.191718	-0.737793	0.231689	-0.507813
1177.0	11.607189	-1.241812	1.323043	0.500461	0.117039	0.196098	-0.733398	0.233887	-0.508057
1178.0	11.896021	-1.386795	1.071783	0.454215	0.178338	0.160025	-0.735596	0.233887	-0.517334
1179.0	12.150385	-1.938714	1.093747	0.303674	0.117845	0.107164	-0.733643	0.238281	-0.515137
1180.0	11.995684	-2.101606	0.754775	0.176301	0.056974	0.056562	-0.733398	0.231689	-0.514893
1181.0	11.458582	-1.523132	-0.057166	0.086134	0.03459	-2.5e-05	-0.733398	0.236084	-0.512695
1182.0	11.052118	-0.758017	-0.320611	-0.014248	0.065524	-0.040038	-0.738037	0.236084	-0.515137
1183.0	10.67822	-0.146534	0.201048	-0.083546	0.116269	-0.049478	-0.729248	0.242676	-0.515381
1184.0	10.231586	0.173165	0.585359	-0.10018	0.166471	-0.054343	-0.733398	0.236084	-0.510498
1185.0	9.803965	0.390669	0.620629	-0.109263	0.226515	-0.058577	-0.731445	0.242676	-0.512939
1186.0	9.30235	0.666631	0.563653	-0.139775	0.255636	-0.067977	-0.733643	0.238281	-0.515137
1187.0	8.936786	1.071992	0.550244	-0.154415	0.2715	-0.092282	-0.731689	0.244873	-0.515381
1188.0	8.520231	1.331931	0.49776	-0.171396	0.276153	-0.115124	-0.731201	0.236084	-0.519775
1189.0	8.180356	1.365886	0.57043	-0.193488	0.275224	-0.131079	-0.729248	0.24292	-0.52002
1190.0	7.943428	1.14884	0.570384	-0.212048	0.263876	-0.143011	-0.729004	0.238281	-0.519775
1191.0	7.787627	0.871123	0.513238	-0.236665	0.259241	-0.146095	-0.731689	0.244873	-0.517822
1192.0	7.702427	0.626819	0.453514	-0.273981	0.254344	-0.138657	-0.731445	0.242676	-0.522217
1193.0	7.654835	0.325403	0.279221	-0.287619	0.249913	-0.147609	-0.729248	0.245117	-0.52002
1194.0	7.694142	0.096796	0.19458	-0.280383	0.234345	-0.152843	-0.726807	0.240723	-0.519775
1195.0	7.808595	-0.05456	0.168087	-0.277541	0.222833	-0.160061	-0.727051	0.245117	-0.522461
1196.0	8.009932	-0.097939	-0.00086	-0.27089	0.201315	-0.158796	-0.731445	0.24292	-0.524658
1197.0	8.088158	-0.067074	-0.063666	-0.253922	0.182936	-0.151385	-0.729492	0.251709	-0.527344
1198.0	7.996115	0.130893	-0.082358	-0.238078	0.163853	-0.14479	-0.726807	0.240723	-0.522217
1199.0	8.002823	0.214176	-0.06026	-0.212901	0.150337	-0.124605	-0.729492	0.247314	-0.531738
1200.0	8.017293	0.382123	-0.009598	-0.201238	0.132017	-0.110944	-0.731689	0.249512	-0.524902
1201.0	8.004986	0.500707	-0.01425	-0.19559	0.108753	-0.097559	-0.727051	0.247314	-0.517822
1202.0	8.019141	0.670371	-0.05697	-0.195863	0.090858	-0.087594	-0.729248	0.24292	-0.52002
1203.0	7.976321	0.817467	-0.141073	-0.17946	0.070832	-0.088757	-0.729492	0.247314	-0.52002
1204.0	7.965001	0.825403	-0.369662	-0.153948	0.060613	-0.095926	-0.736084	0.244873	-0.5271
1205.0	7.909348	0.824412	-0.677985	-0.13659	0.060098	-0.096111	-0.734131	0.249512	-0.517822
1206.0	7.991097	0.762618	-1.042385	-0.147296	0.022852	-0.103647	-0.727051	0.247314	-0.522461
1207.0	8.354887	0.67454	-1.37799	-0.17057	-0.042031	-0.119164	-0.729492	0.247314	-0.515381
1208.0	8.935605	0.580347	-1.609155	-0.187702	-0.137794	-0.13298	-0.738525	0.249268	-0.515625
1209.0	9.958058	0.552808	-1.798975	-0.170141	-0.20893	-0.143305	-0.729492	0.251709	-0.513428
1210.0	10.822656	0.490533	-1.935666	-0.136126	-0.249531	-0.134269	-0.733887	0.24707	-0.513184
1211.0	11.433609	0.412557	-2.052431	-0.094741	-0.231337	-0.120252	-0.738525	0.251465	-0.501709
1212.0	11.402713	0.378732	-2.131163	-0.029759	-0.189113	-0.096938	-0.731689	0.24707	-0.506104
1213.0	11.070883	0.580291	-2.433717	0.016449	-0.187485	-0.077337	-0.740479	0.244873	-0.499023
1214.0	10.721705	0.946176	-2.405084	0.015227	-0.189315	-0.069845	-0.738281	0.244873	-0.499023
1215.0	11.244338	0.959936	-0.734499	-0.097229	-0.149211	-0.070594	-0.738281	0.24707	-0.492188
1216.0	12.540012	-0.537011	-0.112891	-0.191492	-0.206597	-0.123613	-0.738281	0.244873	-0.496826
1217.0	13.311307	-0.947153	-2.2614	-0.140303	-0.487062	-0.257942	-0.743164	0.251465	-0.492432
1218.0	14.25514	-1.230573	-2.372927	0.092921	-0.317932	-0.366522	-0.742432	0.238281	-0.484863
1219.0	13.484709	-1.488423	-0.010057	0.420741	-0.120546	-0.430418	-0.744629	0.236084	-0.494141
1220.0	12.67981	-0.75863	1.637027	0.526122	-0.223734	-0.424189	-0.744629	0.231689	-0.487061
1221.0	12.622561	-0.593154	3.050815	0.344994	-0.109366	-0.337752	-0.744629	0.233887	-0.484863
1222.0	13.37836	-0.480416	2.386061	0.275533	-0.13711	-0.345057	-0.746582	0.229492	-0.47998
1223.0	12.655277	0.054023	2.513486	0.251923	0.043977	-0.324651	-0.748535	0.220703	-0.484375
1224.0	11.093629	0.723453	3.106076	0.156288	0.093821	-0.199091	-0.748535	0.216064	-0.479492
1225.0	10.344685	1.154008	3.210203	-0.050881	0.203409	-0.088052	-0.746338	0.220703	-0.484375
1226.0	9.785441	1.686021	2.047715	-0.207809	0.229497	-0.051409	-0.746338	0.220703	-0.486572
1227.0	10.151925	2.401021	1.566794	-0.304546	0.16914	-0.053328	-0.746582	0.225098	-0.489014
1228.0	10.692712	2.633725	1.521474	-0.219424	0.098177	-0.099809	-0.748779	0.2229	-0.489014
1229.0	11.065248	2.550652	0.959738	-0.149799	0.037243	-0.166319	-0.746582	0.229492	-0.486816
1230.0	11.546062	2.261759	0.765424	-0.158107	0.017791	-0.178293	-0.755371	0.220459	-0.481934
1231.0	11.695011	1.895022	0.992509	-0.19175	0.058453	-0.133276	-0.750977	0.222656	-0.481934
1232.0	11.515783	1.307826	1.030418	-0.21127	0.135443	-0.059911	-0.750977	0.2229	-0.484375
1233.0	11.049306	0.77624	0.72214	-0.223485	0.193575	-0.002342	-0.750977	0.222656	-0.477295
1234.0	10.497945	0.343814	0.90607	-0.19862	0.23023	0.043421	-0.750977	0.222656	-0.475098
1235.0	9.979823	-0.044348	1.086636	-0.179484	0.289009	0.078564	-0.748779	0.227295	-0.489258
1236.0	9.530862	-0.485224	0.976685	-0.201046	0.335511	0.118364	-0.748779	0.225098	-0.489014
1237.0	9.250168	-0.823314	0.936259	-0.23914	0.350821	0.15474	-0.749023	0.231689	-0.482422
1238.0	8.987856	-0.978662	0.917498	-0.262677	0.331844	0.180313	-0.746582	0.225098	-0.484375
1239.0	8.767283	-0.935245	0.822558	-0.264794	0.291652	0.187338	-0.746826	0.233887	-0.487061
1240.0	8.51599	-0.873579	0.626202	-0.260764	0.254119	0.193102	-0.74707	0.236084	-0.489502
1241.0	8.301906	-0.749805	0.444532	-0.268676	0.235837	0.217142	-0.740479	0.244873	-0.492188
1242.0	8.10221	-0.585996	0.264756	-0.25819	0.228222	0.241324	-0.74707	0.238281	-0.494141
1243.0	7.939944	-0.557419	0.139554	-0.255912	0.225012	0.260234	-0.740479	0.242676	-0.494385
1244.0	7.952645	-0.53177	0.068662	-0.243373	0.228963	0.28324	-0.742676	0.242676	-0.494385
1245.0	7.901588	-0.326262	-0.111398	-0.215446	0.240609	0.286972	-0.738525	0.249268	-0.494629
1246.0	7.921378	-0.245895	-0.299623	-0.162695	0.246806	0.269995	-0.74292	0.244873	-0.496826
1247.0	7.928791	-0.293767	-0.177976	-0.116888	0.243638	0.258493	-0.740723	0.251465	-0.499268
1248.0	7.988996	-0.370561	-0.096818	-0.07201	0.246719	0.252227	-0.73877	0.255859	-0.494873
1249.0	8.094859	-0.462054	-0.179899	-0.017313	0.224359	0.250208	-0.743164	0.255859	-0.494873
1250.0	8.14305	-0.570724	-0.195531	0.030211	0.196218	0.24462	-0.740967	0.255859	-0.506592
1251.0	8.088228	-0.698232	-0.113326	0.065478	0.164145	0.232979	-0.739014	0.260254	-0.504395
1252.0	7.968325	-0.825983	-0.087463	0.113404	0.151805	0.211617	-0.736572	0.255859	-0.506592
1253.0	7.774749	-0.821455	-0.198578	0.148935	0.121965	0.176586	-0.739014	0.262451	-0.502197
1254.0	7.690329	-0.723638	-0.399741	0.172529	0.069158	0.137407	-0.741211	0.260254	-0.506592
1255.0	7.726883	-0.673765	-0.375445	0.170308	0.022762	0.107233	-0.734375	0.260498	-0.501953
1256.0	7.945198	-0.46428	-0.486585	0.149594	-0.041076	0.094635	-0.741211	0.260254	-0.504395
1257.0	8.258695	-0.191852	-0.673715	0.108143	-0.10311	0.085188	-0.736816	0.260498	-0.506592
1258.0	8.650003	0.01078	-0.737862	0.068107	-0.136724	0.074471	-0.741211	0.260254	-0.501953
1259.0	8.998473	0.193848	-0.906499	0.041246	-0.145909	0.055977	-0.74585	0.262451	-0.504395
1260.0	9.576599	0.261643	-1.039895	0.019817	-0.165404	0.038939	-0.745605	0.258057	-0.506592
1261.0	10.245357	0.16327	-1.016144	0.019514	-0.165266	0.017192	-0.743652	0.264648	-0.495117
1262.0	10.751051	0.081131	-0.998108	0.041289	-0.162006	-0.006946	-0.74585	0.264648	-0.502197
1263.0	10.834894	-0.022753	-1.356729	0.069401	-0.187625	-0.050739	-0.748291	0.266846	-0.5
1264.0	10.649748	-0.084842	-1.906899	0.111637	-0.237758	-0.105724	-0.748047	0.264648	-0.506836
1265.0	10.321818	-0.076939	-2.295297	0.201099	-0.276401	-0.174298	-0.743408	0.260254	-0.497314
1266.0	10.170617	-0.230985	-2.38643	0.324598	-0.312799	-0.226744	-0.749756	0.249268	-0.501709
1267.0	11.135834	-0.665752	-1.443049	0.509879	-0.293756	-0.216483	-0.75	0.253662	-0.49707
1268.0	14.760363	0.196424	0.881018	0.553102	-0.280861	-0.119622	-0.749756	0.251465	-0.487793
1269.0	15.92871	-0.046792	0.41783	0.286834	-0.36786	0.068485	-0.751953	0.249268	-0.48291
1270.0	14.606539	0.412558	1.38239	-0.117208	-0.133261	0.233353	-0.756592	0.249268	-0.48999
1271.0	12.699347	1.009493	1.434945	-0.228496	-0.019509	0.234032	-0.754883	0.262451	-0.49292
1272.0	11.324754	1.178006	2.082085	-0.144329	0.066561	0.201968	-0.752197	0.253662	-0.490234
1273.0	11.565139	1.526859	2.445605	-0.053637	0.000192	0.145214	-0.752441	0.260254	-0.48584
1274.0	12.258236	1.055563	3.435277	3.4e-05	0.082714	0.180974	-0.750244	0.260254	-0.495117
1275.0	9.871365	0.439131	3.083322	-0.045355	0.057009	0.210404	-0.752441	0.260254	-0.481201
1276.0	8.217899	0.475065	1.445055	-0.094696	-0.171855	0.170958	-0.754883	0.262451	-0.490479
1277.0	8.25091	0.188325	1.313479	-0.018158	-0.225749	0.113886	-0.757324	0.269043	-0.486084
1278.0	9.252003	-0.633838	1.413442	0.179685	-0.181027	0.086771	-0.759277	0.260254	-0.48584
1279.0	10.799467	-1.683355	1.429157	0.327107	-0.103393	0.104413	-0.752441	0.262451	-0.48584
1280.0	12.298883	-2.285035	1.217184	0.303431	-0.097948	0.132215	-0.75708	0.264648	-0.495117
1281.0	12.493976	-2.293296	0.869074	0.12838	-0.128169	0.13544	-0.759521	0.266846	-0.486084
1282.0	11.884054	-1.900526	0.628748	0.056434	-0.128464	0.1108	-0.75708	0.260254	-0.490479
1283.0	11.340073	-0.853807	0.486797	0.10625	-0.057846	0.069573	-0.75708	0.264648	-0.490479
1284.0	11.146345	0.037751	0.875097	0.142083	0.061358	0.049596	-0.754883	0.262451	-0.49292
1285.0	10.839956	0.68838	1.26552	0.148549	0.135341	0.043182	-0.75708	0.264648	-0.495117
1286.0	10.45282	0.998685	1.275955	0.131213	0.166302	0.027461	-0.75708	0.264648	-0.499756
1287.0	9.915242	1.129639	1.213094	0.10128	0.198232	0.013654	-0.757324	0.266846	-0.495361
1288.0	9.335802	1.174304	1.094822	0.059997	0.232024	0.004806	-0.754639	0.258057	-0.494873
1289.0	8.920885	1.116386	1.182592	0.025127	0.256036	-0.004033	-0.750488	0.269043	-0.497803
1290.0	8.686475	1.104382	1.110929	0.009809	0.264945	-0.018086	-0.75708	0.260254	-0.501953
1291.0	8.452898	0.988359	1.020287	-0.022796	0.255579	-0.03215	-0.752686	0.266846	-0.5
1292.0	8.311794	0.913962	0.925054	-0.066429	0.249632	-0.047527	-0.754639	0.260254	-0.501953
1293.0	8.085396	0.761993	0.915178	-0.117988	0.247605	-0.05319	-0.754883	0.264648	-0.506836
1294.0	7.885927	0.648159	0.847964	-0.172548	0.251031	-0.055747	-0.754639	0.260254	-0.513672
1295.0	7.622838	0.545259	0.746045	-0.208717	0.247782	-0.058967	-0.75708	0.264648	-0.513672
1296.0	7.579437	0.448011	0.688284	-0.243531	0.262194	-0.063026	-0.754883	0.262451	-0.518311
1297.0	7.515687	0.585245	0.623584	-0.267963	0.260916	-0.058683	-0.752686	0.262451	-0.520752
1298.0	7.605055	0.449509	0.410649	-0.302716	0.262145	-0.048672	-0.752686	0.264648	-0.518311
1299.0	7.433013	0.452502	0.262889	-0.351589	0.265829	-0.038473	-0.752686	0.266846	-0.523193
1300.0	7.251222	0.36447	0.172992	-0.392829	0.25122	-0.032717	-0.755127	0.266846	-0.527832
1301.0	7.075893	0.53791	0.001346	-0.400443	0.244535	-0.032755	-0.75293	0.27124	-0.518555
1302.0	7.168528	0.666707	-0.090978	-0.396802	0.225464	-0.034549	-0.752686	0.266846	-0.523193
1303.0	7.358107	0.668781	-0.163563	-0.399108	0.189219	-0.052753	-0.748535	0.271484	-0.528076
1304.0	7.666054	0.716133	-0.353477	-0.41423	0.156479	-0.065507	-0.750488	0.269287	-0.525635
1305.0	8.043043	0.751904	-0.366037	-0.416506	0.10968	-0.059195	-0.753174	0.275879	-0.523438
1306.0	8.318368	0.895297	-0.330136	-0.390759	0.070289	-0.056713	-0.748535	0.271484	-0.528076
1307.0	8.542732	1.026506	-0.431203	-0.361346	0.026973	-0.042003	-0.750977	0.275879	-0.525879
1308.0	8.806109	1.086949	-0.580132	-0.375526	-0.033621	-0.008659	-0.75293	0.273682	-0.525635
1309.0	9.136468	0.913485	-0.767833	-0.417455	-0.097359	0.025868	-0.759766	0.273438	-0.523438
1310.0	9.638516	0.562938	-1.033023	-0.445567	-0.157742	0.052802	-0.755371	0.275879	-0.523438
1311.0	10.233226	0.379537	-1.351223	-0.446545	-0.213535	0.071049	-0.755859	0.286865	-0.530762
1312.0	10.773124	0.304144	-1.766131	-0.452516	-0.240407	0.073782	-0.751221	0.284668	-0.521484
1313.0	11.129371	0.259074	-1.887638	-0.459638	-0.251214	0.067734	-0.755615	0.282471	-0.516846
1314.0	11.221555	0.336463	-1.958749	-0.453067	-0.221254	0.072881	-0.755615	0.282471	-0.514404
1315.0	11.130443	0.414266	-1.656856	-0.46341	-0.182892	0.086051	-0.764893	0.289063	-0.51709
1316.0	11.652731	0.068934	-0.58327	-0.521929	-0.171865	0.08211	-0.760498	0.289063	-0.51709
1317.0	12.868326	-0.860309	-0.842587	-0.497966	-0.233818	0.008813	-0.758301	0.293457	-0.519531
1318.0	14.969228	-1.511304	-1.354313	-0.426775	-0.26399	-0.101573	-0.762939	0.295654	-0.512695
1319.0	15.46894	-2.62969	0.42322	-0.099255	-0.128769	-0.20266	-0.760742	0.295654	-0.512695
1320.0	14.561385	-2.544816	2.182489	0.285931	-0.237071	-0.257579	-0.76709	0.288818	-0.512451
1321.0	13.170978	-1.494433	2.781205	0.425718	-0.273205	-0.2694	-0.771484	0.284424	-0.512207
1322.0	12.477124	-1.02527	2.468042	0.304029	-0.25204	-0.273545	-0.77124	0.277832	-0.511963
