Acquisition frequency: 100 Hz
PacketCounter	Acc_X	Acc_Y	Acc_Z	Gyr_X	Gyr_Y	Gyr_Z	Mag_X	Mag_Y	Mag_Z
0.0	7.762214	-1.718616	6.051172	-0.007733	0.005648	-0.002505	-0.616211	0.041992	-0.03418
1.0	7.761005	-1.682358	6.010818	-0.002057	0.008367	-0.005459	-0.611572	0.037842	-0.03418
2.0	7.784874	-1.69439	6.043763	-0.005509	0.007106	-0.006551	-0.614014	0.041992	-0.036377
3.0	7.776378	-1.703777	6.065091	-0.005867	0.005627	-0.005639	-0.618408	0.046387	-0.027832
4.0	7.784265	-1.694179	6.044606	-0.00763	0.008707	-0.0069	-0.614014	0.041992	-0.031982
5.0	7.78397	-1.694033	6.045027	-0.005112	0.004877	-0.006749	-0.614258	0.046387	-0.03418
6.0	7.783716	-1.693724	6.045441	-0.004395	0.007837	-0.008574	-0.615967	0.037842	-0.031982
7.0	7.783476	-1.693543	6.0458	-0.009317	0.004367	-0.006732	-0.612061	0.046387	-0.031982
8.0	7.766096	-1.676339	6.046968	-0.010288	0.002986	-0.008389	-0.614014	0.039795	-0.029785
9.0	7.783315	-1.693373	6.046055	-0.00745	0.004347	-0.009866	-0.618164	0.039795	-0.031982
10.0	7.767964	-1.707812	6.033775	-0.00773	0.00565	-0.002506	-0.620361	0.039795	-0.027832
11.0	7.76768	-1.707891	6.034118	-0.007231	0.00648	-0.007098	-0.611816	0.041992	-0.031982
12.0	7.7652	-1.67613	6.048175	-0.007626	0.008711	-0.0069	-0.614014	0.044189	-0.036377
13.0	7.773046	-1.666563	6.027747	-0.007984	0.007231	-0.005988	-0.616211	0.044189	-0.03418
14.0	7.759679	-1.71277	6.00205	-0.008737	0.007981	-0.004878	-0.614014	0.044189	-0.036377
15.0	7.789512	-1.683916	6.027724	-0.006653	0.010093	-0.005242	-0.611816	0.044189	-0.03418
16.0	7.789029	-1.683955	6.028338	-0.007011	0.008613	-0.004331	-0.611816	0.044189	-0.03418
17.0	7.780403	-1.693536	6.049757	-0.00489	0.007013	-0.003982	-0.611816	0.039795	-0.029785
18.0	7.771835	-1.703197	6.071074	-0.009093	0.006502	-0.003967	-0.614014	0.044189	-0.036377
19.0	7.787962	-1.684342	6.029608	-0.009093	0.006502	-0.003967	-0.614014	0.039795	-0.031982
20.0	7.755178	-1.681814	6.018485	-0.007368	0.007133	-0.003419	-0.614258	0.046387	-0.03418
21.0	7.781268	-1.725948	6.0376	-0.008696	0.004272	-0.004166	-0.614014	0.044189	-0.027832
22.0	7.769753	-1.667733	6.031667	-0.007367	0.007134	-0.003419	-0.618652	0.048584	-0.032227
23.0	7.771548	-1.699565	6.018479	-0.007366	0.007134	-0.003419	-0.609863	0.048584	-0.036377
24.0	7.778113	-1.69489	6.052322	-0.007725	0.005653	-0.002508	-0.616211	0.046387	-0.027832
25.0	7.770823	-1.700048	6.019279	-0.006396	0.008515	-0.00176	-0.616211	0.041992	-0.03418
26.0	7.754057	-1.719444	6.061386	-0.009053	0.002792	-0.003255	-0.618652	0.048584	-0.036377
27.0	7.770307	-1.700584	6.019794	-0.009089	0.006505	-0.003967	-0.614014	0.044189	-0.030029
28.0	7.785059	-1.686514	6.032749	-0.009232	0.007154	-0.000287	-0.614258	0.046387	-0.038574
29.0	7.769501	-1.701391	6.020605	-0.008118	0.007886	-0.002309	-0.614014	0.044189	-0.038574
30.0	7.776021	-1.696798	6.054475	-0.007723	0.005655	-0.002508	-0.616211	0.044434	-0.040771
31.0	7.768746	-1.702261	6.021334	-0.011099	0.007172	0.002844	-0.616211	0.044189	-0.031982
32.0	7.78348	-1.688389	6.034262	-0.007722	0.005656	-0.002508	-0.616211	0.044189	-0.031982
33.0	7.767947	-1.703181	6.022104	-0.005782	0.008416	0.000811	-0.620605	0.044189	-0.030029
34.0	7.776659	-1.730367	6.042272	-0.009804	0.003545	-0.002147	-0.616455	0.046387	-0.031982
35.0	7.758238	-1.677307	6.002855	-0.009229	0.007156	-0.000288	-0.618408	0.046387	-0.030029
36.0	7.784221	-1.72175	6.02199	-0.00711	0.005555	6.2e-05	-0.616455	0.046387	-0.03418
37.0	7.788557	-1.685667	6.06946	-0.008474	0.006407	-0.001398	-0.609863	0.046387	-0.031982
38.0	7.798576	-1.707949	6.035393	-0.003912	0.0084	-0.00232	-0.609619	0.044189	-0.036377
39.0	7.76568	-1.705679	6.024322	-0.011096	0.007174	0.002843	-0.612061	0.04834	-0.025635
40.0	7.780425	-1.691732	6.037265	-0.008327	0.005762	-0.005079	-0.618408	0.046387	-0.031982
41.0	7.771873	-1.701594	6.058454	-0.007109	0.005556	6.2e-05	-0.614014	0.044189	-0.031982
42.0	7.788758	-1.719222	6.057815	-0.008866	0.008641	-0.001198	-0.609619	0.044189	-0.03418
43.0	7.77933	-1.692828	6.038368	-0.00944	0.00503	-0.003059	-0.616455	0.046387	-0.036377
44.0	7.781287	-1.724805	6.024907	-0.008076	0.004178	-0.001599	-0.616211	0.042236	-0.038574
45.0	7.778879	-1.693555	6.038745	-0.006713	0.003325	-0.000139	-0.614258	0.048584	-0.03418
46.0	7.763512	-1.708424	6.026337	-0.010193	0.005781	-0.001949	-0.616211	0.044189	-0.027832
47.0	7.795585	-1.711492	6.038252	-0.007355	0.007144	-0.003419	-0.612061	0.046387	-0.036377
48.0	7.773301	-1.731103	5.992464	-0.004381	0.00385	0.002982	-0.618408	0.041992	-0.03418
49.0	7.794846	-1.71217	6.039013	-0.009111	0.010231	-0.004679	-0.611816	0.044434	-0.040771
50.0	7.768009	-1.668553	6.020782	-0.009223	0.007161	-0.000289	-0.616211	0.044189	-0.030029
51.0	7.778803	-1.727358	6.027382	-0.006385	0.008524	-0.001758	-0.616455	0.046387	-0.030029
52.0	7.778356	-1.727652	6.027874	-0.006745	0.007041	-0.000849	-0.618408	0.044189	-0.036377
53.0	7.762868	-1.742458	6.015633	-0.008467	0.006413	-0.0014	-0.612061	0.046387	-0.03418
54.0	7.775371	-1.696664	6.04239	-0.005629	0.007776	-0.002869	-0.607666	0.044189	-0.031982
55.0	7.785546	-1.718825	6.00818	-0.00868	0.004286	-0.004171	-0.616211	0.039795	-0.031982
56.0	7.752876	-1.716389	5.996846	-0.007104	0.005559	6.1e-05	-0.616211	0.040039	-0.03418
57.0	7.784905	-1.71962	6.008782	-0.00922	0.007163	-0.000289	-0.611816	0.041992	-0.027832
58.0	7.759016	-1.712423	6.030991	-0.008678	0.004287	-0.004172	-0.616455	0.046387	-0.030029
59.0	7.791173	-1.715505	6.042806	-0.010187	0.005785	-0.001951	-0.611816	0.044189	-0.027832
60.0	7.758425	-1.713186	6.031534	-0.008464	0.006415	-0.0014	-0.611816	0.044189	-0.03418
61.0	7.773281	-1.699105	6.044392	-0.009038	0.002804	-0.003263	-0.616211	0.044189	-0.030029
62.0	7.768529	-1.735966	5.997243	-0.012268	0.003674	-0.001594	-0.612061	0.048584	-0.03418
63.0	7.747175	-1.692205	6.066786	-0.001067	0.009772	-0.003784	-0.618408	0.044189	-0.031982
64.0	7.767792	-1.736318	5.998095	-0.010546	0.004303	-0.001043	-0.616211	0.041992	-0.03418
65.0	7.789415	-1.717285	6.044566	-0.005477	0.007138	-0.006549	-0.614258	0.048584	-0.030029
66.0	7.764982	-1.704943	6.012506	-0.007708	0.005667	-0.002511	-0.614258	0.048584	-0.038574
67.0	7.782064	-1.722257	6.011706	-0.006198	0.00417	-0.004732	-0.612061	0.046387	-0.027832
68.0	7.77355	-1.732033	6.032815	-0.007707	0.005668	-0.002511	-0.611816	0.044189	-0.030029
69.0	7.773308	-1.732267	6.03306	-0.008673	0.004291	-0.004173	-0.612061	0.046387	-0.03418
70.0	7.763984	-1.705733	6.013571	-0.009822	0.007273	-0.002861	-0.614258	0.050537	-0.030029
71.0	7.798242	-1.740354	6.011855	-0.007345	0.007153	-0.003419	-0.612061	0.046387	-0.031982
72.0	7.780634	-1.723352	6.013245	-0.00559	0.004065	-0.002161	-0.620605	0.046143	-0.025635
73.0	7.797583	-1.7407	6.01261	-0.009098	0.010243	-0.004678	-0.612061	0.046387	-0.030029
74.0	7.770696	-1.696889	5.994537	-0.004656	0.00916	-0.001204	-0.609863	0.048584	-0.030029
75.0	7.753623	-1.716423	6.036787	-0.009458	0.008759	-0.00377	-0.609619	0.044189	-0.031982
76.0	7.77878	-1.724122	6.015421	-0.006981	0.00864	-0.004328	-0.616455	0.046387	-0.031982
77.0	7.778298	-1.724159	6.016034	-0.006619	0.010125	-0.005236	-0.616211	0.044189	-0.036377
78.0	7.78686	-1.75104	6.036394	-0.005621	0.007784	-0.002867	-0.611816	0.044189	-0.038574
79.0	7.792401	-1.709702	6.029981	-0.00378	0.011491	-0.006701	-0.611816	0.044189	-0.03418
80.0	7.791905	-1.709404	6.030707	-0.002027	0.008402	-0.005443	-0.618652	0.048584	-0.036377
81.0	7.774084	-1.69226	6.032399	-0.008489	0.010138	-0.002108	-0.611816	0.044189	-0.03418
82.0	7.784094	-1.714242	5.998516	-0.005499	0.010865	-0.007255	-0.611816	0.042236	-0.036377
83.0	7.764681	-1.701945	6.054637	-0.006012	0.010019	-0.002665	-0.614258	0.046387	-0.031982
84.0	7.774762	-1.724001	6.020648	-0.005618	0.007786	-0.002868	-0.616211	0.044189	-0.031982
85.0	7.782542	-1.714422	6.000478	-0.005649	0.011506	-0.003573	-0.614258	0.048584	-0.031982
86.0	7.780355	-1.719401	6.055623	-0.005648	0.011506	-0.003573	-0.616211	0.044189	-0.027832
87.0	7.772873	-1.7243	6.023001	-0.006796	0.014489	-0.002261	-0.609863	0.048584	-0.036377
88.0	7.774421	-1.756031	6.01014	-0.005647	0.011507	-0.003574	-0.620605	0.044189	-0.03418
89.0	7.762472	-1.697757	6.004938	-0.005044	0.011399	-0.001002	-0.616455	0.046387	-0.036377
90.0	7.796431	-1.732256	6.003698	-0.009116	0.013971	-0.005387	-0.611816	0.044189	-0.03418
91.0	7.776799	-1.719998	6.060019	-0.005884	0.013105	-0.007053	-0.609619	0.044189	-0.029785
92.0	7.769433	-1.724688	6.027327	-0.008721	0.011739	-0.00559	-0.614258	0.048584	-0.030029
93.0	7.777092	-1.714925	6.007396	-0.004162	0.013735	-0.006498	-0.616211	0.044189	-0.030029
94.0	7.750675	-1.707359	6.030254	-0.007392	0.014603	-0.004833	-0.614014	0.044189	-0.036377
95.0	7.767344	-1.724322	6.030123	-0.004368	0.011612	-0.009273	-0.609863	0.048584	-0.030029
96.0	7.773601	-1.719352	6.064305	-0.004856	0.007043	-0.00398	-0.618652	0.04834	-0.027832
97.0	7.773074	-1.719233	6.065014	-0.002802	0.01288	-0.005036	-0.614014	0.044189	-0.031982
98.0	7.783138	-1.741146	6.031168	-0.009443	0.008768	-0.003778	-0.614014	0.044189	-0.031982
99.0	7.757063	-1.733829	6.053485	-0.00793	0.007273	-0.005998	-0.611816	0.044189	-0.030029
100.0	7.765083	-1.72407	6.033107	-0.004098	0.006296	-0.00509	-0.611816	0.041992	-0.027832
101.0	7.80174	-1.789712	6.017758	-0.006446	0.009501	-0.008922	-0.616211	0.044189	-0.031982
102.0	7.749253	-1.737707	6.021627	-0.002486	0.011609	-0.012399	-0.616211	0.044189	-0.03418
103.0	7.787125	-1.698754	6.02709	-0.006601	0.010138	-0.00524	-0.618408	0.046387	-0.030029
104.0	7.754879	-1.732104	6.056777	0.000954	0.012868	-0.011288	-0.618408	0.046387	-0.036377
105.0	7.770959	-1.711961	6.016171	-0.003996	0.013106	-0.01018	-0.616211	0.044189	-0.03418
106.0	7.78533	-1.696955	6.029915	-0.002276	0.013736	-0.009625	-0.609619	0.044189	-0.029785
107.0	7.753162	-1.730311	6.059487	-0.006048	0.007269	-0.009127	-0.61377	0.037842	-0.029785
108.0	7.78453	-1.696182	6.031165	-0.00373	0.007787	-0.005998	-0.616455	0.046387	-0.03418
109.0	7.760916	-1.719989	6.039631	-0.00258	0.004805	-0.007311	-0.614014	0.044189	-0.031982
110.0	7.775864	-1.705288	6.052537	-0.003671	0.000341	-0.004592	-0.611816	0.044189	-0.038574
111.0	7.769326	-1.709948	6.018852	-0.005754	-0.001776	-0.004242	-0.607666	0.048584	-0.030029
112.0	7.763772	-1.751337	6.025256	-0.006059	-0.010709	-0.001929	-0.620605	0.044189	-0.036377
113.0	7.762061	-1.719738	6.03823	0.00233	-0.009687	-0.001923	-0.614258	0.048584	-0.030029
114.0	7.748147	-1.734043	6.024106	-0.000987	-0.025835	-0.000224	-0.614014	0.041992	-0.031982
115.0	7.77615	-1.741175	5.999373	3.9e-05	-0.048583	-0.00796	-0.618408	0.044189	-0.027832
116.0	7.800893	-1.721277	6.041941	-0.000188	-0.046976	-0.01144	-0.614014	0.044189	-0.031982
117.0	7.802841	-1.683841	5.998171	0.000322	-0.035918	-0.010978	-0.616455	0.046387	-0.031982
118.0	7.796755	-1.693054	6.016234	-0.00825	-0.032582	-0.007998	-0.616455	0.048584	-0.030029
119.0	7.809036	-1.714731	5.979541	-0.004707	-0.018038	-0.00622	-0.620605	0.044189	-0.025635
120.0	7.807721	-1.68288	5.992087	-0.005735	-0.011971	-0.00929	-0.616455	0.04834	-0.025635
121.0	7.817494	-1.709431	6.010992	-0.008639	-0.005899	-0.009232	-0.614258	0.046387	-0.03418
122.0	7.787787	-1.738302	5.985094	-0.00823	-0.001657	-0.003679	-0.612061	0.04834	-0.027832
123.0	7.777128	-1.716657	6.019692	-0.010017	0.005156	-0.005638	-0.616455	0.048584	-0.030029
124.0	7.802512	-1.724136	5.998133	-0.007937	0.007272	-0.005989	-0.614014	0.044189	-0.030029
125.0	7.802082	-1.724023	5.998725	-0.005497	0.010876	-0.007247	-0.616211	0.046387	-0.027832
126.0	7.784095	-1.706882	6.000614	-0.010841	0.013344	-0.005931	-0.618408	0.044189	-0.031982
127.0	7.808932	-1.714075	5.979864	-0.004445	0.019063	-0.010667	-0.616455	0.046387	-0.030029
128.0	7.799589	-1.723555	6.002101	-0.007833	0.020559	-0.005318	-0.618652	0.048584	-0.032227
129.0	7.798325	-1.723458	6.00377	-0.003673	0.024794	-0.006019	-0.609619	0.044189	-0.023438
130.0	7.764578	-1.72045	5.993959	-0.004268	0.02491	-0.008592	-0.616211	0.041992	-0.031982
131.0	7.79551	-1.722799	6.007614	-0.005418	0.027892	-0.007277	-0.612061	0.046387	-0.030029
132.0	7.785653	-1.732205	6.030496	-0.00294	0.027778	-0.007832	-0.612061	0.046387	-0.030029
133.0	7.792411	-1.722108	6.011831	-0.006767	0.028757	-0.008741	-0.618408	0.041992	-0.031982
134.0	7.797489	-1.717143	6.047508	-0.006763	0.028759	-0.008741	-0.614014	0.041992	-0.031982
135.0	7.756983	-1.718695	6.004288	-0.004486	0.026525	-0.012072	-0.620605	0.046387	-0.03418
136.0	7.772886	-1.735106	6.005358	-9e-05	0.029162	-0.009291	-0.614014	0.041992	-0.029785
137.0	7.786338	-1.72015	6.020254	-0.006359	0.026532	-0.008949	-0.616455	0.046387	-0.031982
138.0	7.778285	-1.724217	5.988727	-0.004706	0.028138	-0.015553	-0.614258	0.046387	-0.027832
139.0	7.776922	-1.723464	5.990713	-0.004836	0.025046	-0.01117	-0.612061	0.046387	-0.027832
140.0	7.758195	-1.705873	5.993612	-0.004239	0.024934	-0.008597	-0.614258	0.046387	-0.031982
141.0	7.780906	-1.717845	6.027931	-0.008263	0.023791	-0.012287	-0.609863	0.048584	-0.031982
142.0	7.747316	-1.714505	6.017952	-0.002945	0.025053	-0.014295	-0.618408	0.044189	-0.027832
143.0	7.771907	-1.721214	5.997863	-0.005919	0.020584	-0.008456	-0.609619	0.041992	-0.027832
144.0	7.762497	-1.730418	6.02013	-0.004626	0.020701	-0.014153	-0.611816	0.044189	-0.031982
145.0	7.750736	-1.707844	6.056127	-0.005945	0.017837	-0.014917	-0.618408	0.044189	-0.036377
146.0	7.775616	-1.714364	6.035742	-0.00327	0.019844	-0.01269	-0.614014	0.040039	-0.03418
147.0	7.765742	-1.686697	6.017313	-0.005546	0.015604	-0.015122	-0.611816	0.042236	-0.036377
148.0	7.78903	-1.69827	6.050973	-0.004194	0.014744	-0.013658	-0.616211	0.044189	-0.031982
149.0	7.770986	-1.680433	6.053001	-0.004558	0.013254	-0.012753	-0.614014	0.041992	-0.029785
150.0	7.772858	-1.711281	6.040168	-0.003601	0.01463	-0.011085	-0.612061	0.050781	-0.03418
151.0	7.778717	-1.706103	6.074747	-0.006441	0.013254	-0.009631	-0.612061	0.046387	-0.031982
152.0	7.779977	-1.700684	6.021286	-0.006806	0.011763	-0.008726	-0.614014	0.044189	-0.025635
153.0	7.786023	-1.695641	6.055579	-0.002585	0.008552	-0.008014	-0.616455	0.046387	-0.030029
154.0	7.779032	-1.699835	6.022746	-0.005678	0.012511	-0.01074	-0.614014	0.041992	-0.031982
155.0	7.785011	-1.694828	6.057107	-0.007169	0.010272	-0.007822	-0.614014	0.041992	-0.03418
156.0	7.778058	-1.699161	6.024194	-0.003932	0.009415	-0.00948	-0.616211	0.044189	-0.031982
157.0	7.75434	-1.723187	6.032703	-0.008294	0.009525	-0.005809	-0.614014	0.044189	-0.036377
158.0	7.777169	-1.698804	6.025443	-0.006406	0.00953	-0.008932	-0.614014	0.044189	-0.031982
159.0	7.776714	-1.698562	6.026098	-0.007166	0.010275	-0.007823	-0.611816	0.041992	-0.029785
160.0	7.761354	-1.712751	6.01393	-0.00469	0.010162	-0.008371	-0.618408	0.044189	-0.03418
161.0	7.759101	-1.717673	6.068753	-0.00885	0.005915	-0.007685	-0.611816	0.044189	-0.031982
162.0	7.778118	-1.729389	6.013923	-0.00334	0.009301	-0.006905	-0.618164	0.039795	-0.031982
163.0	7.775181	-1.697627	6.028339	-0.008483	0.007409	-0.008589	-0.618408	0.041992	-0.030029
164.0	7.781301	-1.69285	6.062425	-0.007529	0.008784	-0.006919	-0.616455	0.048584	-0.032227
165.0	7.77442	-1.697327	6.029405	-0.005053	0.008672	-0.007466	-0.609863	0.046387	-0.03418
166.0	7.782513	-1.687459	6.009096	-0.009975	0.005168	-0.005673	-0.618408	0.041992	-0.036377
167.0	7.791303	-1.714208	6.029181	-0.002943	0.007067	-0.007109	-0.614258	0.046387	-0.03418
168.0	7.732825	-1.704115	6.039501	-0.005418	0.00718	-0.006563	-0.614258	0.048584	-0.038574
169.0	7.797077	-1.708919	6.06385	-0.00527	0.010286	-0.010945	-0.614014	0.041992	-0.03418
170.0	7.783728	-1.717793	5.997329	-0.006397	0.009537	-0.008933	-0.609863	0.046387	-0.036377
171.0	7.7813	-1.722579	6.052373	-0.004316	0.011663	-0.009274	-0.612061	0.050781	-0.03418
172.0	7.786557	-1.680792	6.046378	-0.004315	0.011663	-0.009275	-0.616211	0.040039	-0.038574
173.0	7.756303	-1.709266	6.021433	-0.004314	0.011664	-0.009275	-0.614258	0.046387	-0.03418
174.0	7.788101	-1.711307	6.034141	-0.003552	0.010921	-0.010384	-0.618408	0.046387	-0.031982
175.0	7.755141	-1.708255	6.023217	-0.005103	0.016141	-0.008865	-0.618408	0.046387	-0.03418
176.0	7.786866	-1.71031	6.036017	-0.003154	0.008685	-0.010589	-0.609619	0.041992	-0.03418
177.0	7.771563	-1.724105	6.023907	-0.004527	0.013281	-0.012754	-0.616211	0.041992	-0.030029
178.0	7.750927	-1.675228	6.039577	-0.005223	0.009302	-0.003785	-0.614014	0.044189	-0.030029
179.0	7.770482	-1.723506	6.025472	-0.002596	0.0123	-0.008712	-0.614014	0.044189	-0.03418
180.0	7.793187	-1.698737	6.018511	-0.006021	0.011037	-0.009839	-0.611816	0.041992	-0.031982
181.0	7.775793	-1.717929	6.060767	-0.00394	0.013165	-0.010179	-0.614014	0.040039	-0.038574
182.0	7.779937	-1.743699	5.993378	-0.003911	0.009433	-0.009481	-0.618652	0.04834	-0.030029
183.0	7.768332	-1.721691	6.028763	-0.005831	0.013157	-0.007059	-0.611816	0.041992	-0.03418
184.0	7.765048	-1.689739	6.043597	-0.004519	0.013288	-0.012755	-0.614014	0.041992	-0.03418
185.0	7.781967	-1.70607	6.04353	-0.001828	0.011562	-0.009821	-0.620605	0.044189	-0.030029
186.0	7.749071	-1.702901	6.032538	-0.002222	0.013801	-0.009616	-0.611816	0.041992	-0.031982
187.0	7.772316	-1.714728	6.06613	-0.005646	0.012538	-0.010744	-0.618408	0.041992	-0.030029
188.0	7.747898	-1.701778	6.034361	-0.001825	0.011565	-0.009821	-0.614014	0.041992	-0.031982
189.0	7.755813	-1.691404	6.014483	-0.006012	0.011043	-0.009842	-0.607666	0.046387	-0.036377
190.0	7.779182	-1.703282	6.0479	-0.003535	0.010934	-0.010386	-0.616211	0.044189	-0.036377
191.0	7.752745	-1.695711	6.070333	-0.009829	0.012019	-0.010766	-0.62085	0.04834	-0.027832
192.0	7.778133	-1.702525	6.049463	-0.007352	0.01191	-0.01131	-0.618408	0.041992	-0.031982
193.0	7.753844	-1.689616	6.017524	-0.003137	0.008698	-0.010591	-0.616211	0.044189	-0.031982
194.0	7.762463	-1.716041	6.037926	-0.005428	0.010926	-0.007267	-0.618408	0.041992	-0.036377
195.0	7.750775	-1.694068	6.073307	-0.004295	0.011681	-0.009278	-0.612061	0.046387	-0.030029
196.0	7.776199	-1.70079	6.052436	-0.004662	0.010185	-0.008375	-0.611816	0.041992	-0.03418
197.0	7.749784	-1.69329	6.074789	-0.004661	0.010185	-0.008375	-0.614258	0.046387	-0.027832
198.0	7.7838	-1.690212	6.033042	-0.004634	0.00645	-0.007678	-0.616455	0.046387	-0.036377
199.0	7.768682	-1.704178	6.020677	-0.002763	0.010199	-0.011494	-0.620605	0.044189	-0.03418
200.0	7.774662	-1.699019	6.054908	-0.005975	0.007315	-0.009146	-0.618408	0.046387	-0.03418
201.0	7.742019	-1.69608	6.043504	-0.005237	0.01031	-0.010952	-0.612061	0.046387	-0.03418
202.0	7.782427	-1.688212	6.035373	-0.003867	0.00571	-0.008786	-0.618652	0.04834	-0.030029
203.0	7.749914	-1.685223	6.023815	-0.003498	0.007208	-0.009689	-0.611816	0.040039	-0.03418
204.0	7.767193	-1.701713	6.023294	-0.003866	0.005711	-0.008787	-0.618408	0.041992	-0.03418
205.0	7.781717	-1.686818	6.036678	-0.005972	0.007317	-0.009147	-0.614014	0.041992	-0.029785
206.0	7.790434	-1.71346	6.056898	-0.007501	0.008801	-0.006931	-0.607666	0.044434	-0.038574
207.0	7.74239	-1.688463	5.992129	-0.005602	0.008816	-0.01005	-0.614014	0.044189	-0.03418
208.0	7.772249	-1.695771	6.058915	-0.003863	0.005713	-0.008787	-0.614014	0.040039	-0.03418
209.0	7.765625	-1.699891	6.025829	-0.005231	0.010315	-0.010952	-0.612061	0.048584	-0.030029
210.0	7.774319	-1.726392	6.046123	-0.005392	0.007196	-0.006571	-0.614014	0.044189	-0.031982
211.0	7.764911	-1.699328	6.026908	-0.006733	0.008062	-0.00804	-0.609863	0.046387	-0.030029
212.0	7.762414	-1.704299	6.081729	-0.004257	0.007954	-0.008581	-0.616211	0.039795	-0.031982
213.0	7.790308	-1.70569	6.006246	-0.00557	0.005082	-0.009354	-0.609863	0.046387	-0.031982
214.0	7.752881	-1.676784	6.062795	-0.007101	0.006565	-0.007138	-0.614014	0.041992	-0.03418
215.0	7.763857	-1.698246	6.028571	-0.005759	0.0057	-0.00567	-0.616211	0.040039	-0.03418
216.0	7.769876	-1.693424	6.062613	-0.005965	0.007323	-0.009148	-0.616455	0.046387	-0.036377
217.0	7.780863	-1.714671	6.028444	-0.003283	0.005593	-0.006211	-0.614014	0.039795	-0.031982
218.0	7.771551	-1.687517	6.009132	-0.007673	0.006691	-0.009716	-0.614014	0.041992	-0.031982
219.0	7.762784	-1.697247	6.030234	-0.006154	0.00794	-0.005464	-0.616211	0.044189	-0.031982
220.0	7.751195	-1.675394	6.065334	-0.003487	0.007218	-0.009689	-0.616455	0.046387	-0.031982
221.0	7.744584	-1.679582	6.03224	-0.005018	0.008699	-0.007474	-0.616211	0.041992	-0.036377
222.0	7.794045	-1.69868	6.043855	-0.005961	0.007326	-0.009149	-0.618408	0.041992	-0.030029
223.0	7.761484	-1.695971	6.032266	-0.008436	0.007434	-0.008609	-0.609619	0.041992	-0.031982
224.0	7.793279	-1.698372	6.044929	-0.005606	0.011556	-0.003583	-0.614014	0.041992	-0.036377
225.0	7.752028	-1.705824	6.054206	-0.007491	0.008809	-0.006934	-0.615967	0.037842	-0.03418
226.0	7.786016	-1.702668	6.012666	-0.004276	0.011701	-0.009277	-0.618408	0.041992	-0.03418
227.0	7.759497	-1.695218	6.035033	-0.004645	0.010202	-0.008376	-0.60791	0.050781	-0.03418
228.0	7.791252	-1.697359	6.047826	-0.00541	0.010943	-0.007268	-0.618408	0.041992	-0.036377
229.0	7.750011	-1.70463	6.057123	-0.007118	0.01031	-0.007836	-0.611816	0.044189	-0.031982
230.0	7.772741	-1.680183	6.050078	-0.008624	0.008051	-0.004926	-0.616211	0.044189	-0.03418
231.0	7.775171	-1.711338	6.03673	-0.002739	0.010225	-0.011492	-0.611816	0.041992	-0.029785
232.0	7.763462	-1.689443	6.071935	-0.004809	0.007079	-0.003996	-0.616211	0.041992	-0.03418
233.0	7.774383	-1.710685	6.03793	-0.005212	0.010332	-0.010953	-0.616211	0.041992	-0.03418
234.0	7.788615	-1.69592	6.051625	-0.005205	0.00932	-0.00379	-0.614014	0.041992	-0.036377
235.0	7.755967	-1.693321	6.040101	-0.005951	0.007333	-0.009151	-0.614014	0.039795	-0.029785
236.0	7.75561	-1.692991	6.040652	-0.006347	0.009574	-0.008945	-0.618408	0.044189	-0.036377
237.0	7.755235	-1.692743	6.041204	-0.005378	0.007208	-0.006574	-0.609863	0.048584	-0.030029
238.0	7.77807	-1.668207	6.034058	-0.007853	0.007314	-0.006036	-0.61377	0.037842	-0.03418
239.0	7.7777	-1.66807	6.034574	-0.005007	0.008709	-0.007475	-0.614014	0.041992	-0.03418
240.0	7.771607	-1.709485	6.041843	-0.008445	0.010167	-0.002144	-0.614014	0.040039	-0.038574
241.0	7.759797	-1.688068	6.076999	-0.005376	0.007209	-0.006574	-0.614258	0.048584	-0.03418
242.0	7.758944	-1.651154	6.037047	-0.006116	0.004208	-0.004773	-0.618408	0.041992	-0.036377
243.0	7.753138	-1.692605	6.043932	-0.006883	0.004948	-0.003665	-0.614014	0.044189	-0.031982
244.0	7.770422	-1.709715	6.043301	-0.008987	0.006555	-0.004028	-0.622559	0.040039	-0.038574
245.0	7.760988	-1.683036	6.024023	-0.007279	0.007189	-0.003459	-0.614014	0.041992	-0.03418
246.0	7.760638	-1.683027	6.024475	-0.005374	0.007212	-0.006574	-0.612061	0.046387	-0.031982
247.0	7.769372	-1.709901	6.044599	-0.007279	0.00719	-0.003459	-0.607666	0.044189	-0.029785
248.0	7.777584	-1.700029	6.024314	-0.006114	0.00421	-0.004774	-0.616455	0.046387	-0.036377
249.0	7.765907	-1.678511	6.05931	-0.007476	0.00882	-0.006937	-0.616455	0.046387	-0.03418
250.0	7.768409	-1.709984	6.045813	-0.007277	0.00719	-0.003459	-0.614258	0.048584	-0.036377
251.0	7.78503	-1.690147	6.005029	-0.007846	0.00732	-0.006037	-0.611816	0.044189	-0.031982
252.0	7.764883	-1.678743	6.060559	-0.008587	0.004317	-0.004237	-0.611572	0.037598	-0.025635
253.0	7.767561	-1.710314	6.046808	-0.008216	0.005819	-0.005137	-0.616211	0.041992	-0.031982
254.0	7.767267	-1.71027	6.047198	-0.00537	0.007215	-0.006574	-0.616211	0.041992	-0.031982
255.0	7.786907	-1.721754	5.992313	-0.008586	0.004318	-0.004237	-0.614014	0.039795	-0.029785
256.0	7.752047	-1.724828	6.034835	-0.007472	0.008824	-0.006937	-0.616455	0.046387	-0.038574
257.0	7.800778	-1.707419	6.006356	-0.008439	0.010172	-0.002144	-0.620605	0.042236	-0.040771
258.0	7.780342	-1.696144	6.062196	-0.008239	0.009564	-0.00583	-0.616455	0.046387	-0.030029
259.0	7.747601	-1.693748	6.050709	-0.006531	0.010198	-0.005259	-0.618408	0.044189	-0.03418
260.0	7.790664	-1.717603	6.028992	-0.006927	0.012439	-0.005051	-0.614014	0.041992	-0.03418
261.0	7.763894	-1.710668	6.051417	-0.00522	0.013074	-0.00448	-0.616455	0.048584	-0.030029
262.0	7.748036	-1.688044	5.998971	-0.00425	0.011727	-0.009273	-0.618408	0.044189	-0.03418
263.0	7.748169	-1.724696	6.039851	-0.007838	0.007325	-0.006039	-0.614014	0.040039	-0.03418
264.0	7.770849	-1.700154	6.032963	-0.006156	0.011703	-0.006159	-0.618408	0.041992	-0.031982
265.0	7.761925	-1.709947	6.054145	-0.00326	0.005613	-0.006212	-0.614014	0.044189	-0.031982
266.0	7.787783	-1.716574	6.033006	-0.007634	0.006719	-0.009725	-0.609375	0.037842	-0.031982
267.0	7.752386	-1.682596	6.035211	-0.007439	0.005085	-0.006248	-0.614014	0.040039	-0.03418
268.0	7.763553	-1.703965	6.000987	-0.00613	0.007961	-0.005468	-0.614014	0.041992	-0.031982
269.0	7.786903	-1.71622	6.034242	-0.006695	0.008092	-0.008046	-0.611816	0.044189	-0.03418
270.0	7.769067	-1.699122	6.035549	-0.006669	0.004348	-0.007356	-0.614014	0.042236	-0.038574
271.0	7.748814	-1.687495	6.091156	-0.004988	0.008727	-0.007474	-0.616455	0.046387	-0.031982
272.0	7.77449	-1.694295	6.070215	-0.006897	0.0087	-0.004361	-0.614258	0.046387	-0.030029
273.0	7.785629	-1.715699	6.036034	-0.00877	0.005957	-0.00772	-0.618164	0.037598	-0.025635
274.0	7.750034	-1.681832	6.038443	-0.004819	0.010838	-0.004687	-0.614014	0.044189	-0.03418
275.0	7.767206	-1.698628	6.038083	-0.007063	0.006592	-0.007148	-0.616211	0.044189	-0.030029
276.0	7.766919	-1.698487	6.038492	-0.004024	0.006356	-0.005104	-0.611816	0.044189	-0.036377
277.0	7.752044	-1.712786	6.025768	-0.006293	0.005854	-0.008256	-0.609863	0.048584	-0.036377
278.0	7.784021	-1.714977	6.038313	-0.007062	0.006593	-0.007148	-0.618164	0.037842	-0.03418
279.0	7.772267	-1.693708	6.073225	-0.00801	0.004191	-0.001665	-0.616211	0.041992	-0.031982
280.0	7.759826	-1.70291	6.006104	-0.008202	0.005828	-0.005143	-0.614014	0.044189	-0.030029
281.0	7.759672	-1.702823	6.006328	-0.004562	0.002744	-0.006993	-0.620605	0.042236	-0.038574
282.0	7.771811	-1.693685	6.073815	-0.002665	0.001741	-0.002943	-0.616211	0.046387	-0.027832
283.0	7.771057	-1.656739	6.033857	-0.006496	0.006462	-0.00457	-0.614014	0.041992	-0.03418
284.0	7.750641	-1.712631	6.027616	-0.005727	0.005724	-0.005677	-0.616211	0.044189	-0.031982
285.0	7.77649	-1.719463	6.006481	-0.006495	0.006462	-0.00457	-0.612061	0.046387	-0.03418
286.0	7.796959	-1.700619	6.053547	-0.010276	0.003691	-0.004818	-0.616211	0.042236	-0.038574
287.0	7.764397	-1.698131	6.041835	-0.004236	0.011744	-0.00927	-0.611816	0.044189	-0.030029
288.0	7.757815	-1.702412	6.008843	-0.006891	0.008705	-0.004361	-0.616455	0.046387	-0.03418
289.0	7.769489	-1.693402	6.076864	-0.004045	0.010107	-0.005793	-0.614014	0.041992	-0.03418
290.0	7.756845	-1.702057	6.010195	-0.004606	0.010241	-0.008372	-0.609863	0.046387	-0.03418
291.0	7.777012	-1.682887	6.057724	-0.006517	0.010211	-0.00526	-0.618408	0.046387	-0.031982
292.0	7.770386	-1.687199	6.024792	-0.00367	0.011613	-0.006691	-0.615967	0.039795	-0.029785
293.0	7.743706	-1.680234	6.047001	-0.00822	0.009579	-0.005834	-0.611816	0.044189	-0.03418
294.0	7.793076	-1.699345	6.058904	-0.006307	0.00961	-0.008946	-0.612061	0.048584	-0.031982
295.0	7.745866	-1.711187	6.034161	-0.004975	0.008739	-0.007474	-0.611816	0.044189	-0.031982
296.0	7.768973	-1.723537	6.067671	-0.007681	0.013193	-0.003944	-0.611816	0.041992	-0.031982
297.0	7.770922	-1.717712	6.014184	-0.003061	0.008772	-0.010586	-0.614014	0.044189	-0.030029
298.0	7.776585	-1.712888	6.048478	-0.007447	0.008844	-0.006942	-0.616455	0.048584	-0.036377
299.0	7.770074	-1.717293	6.015399	-0.006512	0.010215	-0.005261	-0.614014	0.040039	-0.03418
300.0	7.775673	-1.712717	6.049699	-0.006675	0.008108	-0.00805	-0.616211	0.044189	-0.027832
301.0	7.743095	-1.710108	6.038021	-0.004971	0.008742	-0.007475	-0.611816	0.041992	-0.031982
302.0	7.765746	-1.68519	6.031334	-0.002894	0.010883	-0.007797	-0.616211	0.040039	-0.036377
303.0	7.771245	-1.680514	6.065778	-0.00651	0.010217	-0.005261	-0.616455	0.046387	-0.031982
304.0	7.767933	-1.716328	6.018438	-0.006089	0.004226	-0.004783	-0.614014	0.044189	-0.031982
305.0	7.788213	-1.697097	6.065783	-0.005155	0.010386	-0.010952	-0.611816	0.041992	-0.031982
306.0	7.764151	-1.684499	6.033579	-0.007256	0.007205	-0.003467	-0.614014	0.044189	-0.03418
307.0	7.781435	-1.701348	6.033111	-0.005341	0.007239	-0.006578	-0.614014	0.041992	-0.031982
308.0	7.76353	-1.684264	6.034445	-0.006273	0.005869	-0.008261	-0.614014	0.041992	-0.031982
309.0	7.79852	-1.717733	6.033033	-0.006669	0.008112	-0.008051	-0.609619	0.044189	-0.031982
310.0	7.766028	-1.715019	6.021269	-0.002096	0.006401	-0.008216	-0.611816	0.041992	-0.031982
311.0	7.780338	-1.70031	6.034818	-0.011217	0.006075	-0.007199	-0.611816	0.039795	-0.031982
312.0	7.771472	-1.710207	6.055804	-0.002492	0.008646	-0.008006	-0.616455	0.050537	-0.030029
313.0	7.785682	-1.695282	6.069538	-0.005896	0.007378	-0.009158	-0.616455	0.046387	-0.031982
314.0	7.738597	-1.707141	6.044624	-0.004964	0.008749	-0.007475	-0.616455	0.046387	-0.036377
315.0	7.793576	-1.684613	6.050022	-0.006269	0.005872	-0.008262	-0.614014	0.044189	-0.031982
316.0	7.7697	-1.671906	6.01762	-0.004566	0.006507	-0.007685	-0.618652	0.04834	-0.030029
317.0	7.772575	-1.703082	6.00386	-0.007412	0.005102	-0.006258	-0.614258	0.04834	-0.027832
318.0	7.7698	-1.708585	6.058407	-0.006267	0.005873	-0.008262	-0.618408	0.046387	-0.036377
319.0	7.731491	-1.710515	6.012645	-0.007014	0.002859	-0.006469	-0.614014	0.041992	-0.031982
320.0	7.778115	-1.698202	6.038276	-0.00664	0.004367	-0.007365	-0.618408	0.046387	-0.030029
321.0	7.777882	-1.698022	6.038626	-0.005335	0.007244	-0.006578	-0.618408	0.044189	-0.027832
322.0	7.745374	-1.695409	6.026844	-0.007219	0.008256	-0.010632	-0.614014	0.044189	-0.038574
323.0	7.762696	-1.711939	6.02644	-0.006662	0.008119	-0.008052	-0.616455	0.046387	-0.038574
324.0	7.767738	-1.670335	6.020587	-0.007433	0.008855	-0.006945	-0.616211	0.044189	-0.036377
325.0	7.76193	-1.711625	6.027517	-0.006661	0.00812	-0.008052	-0.618164	0.037842	-0.036377
326.0	7.784621	-1.686738	6.02079	-0.006286	0.009629	-0.008948	-0.616455	0.046387	-0.036377
327.0	7.766557	-1.669832	6.022251	-0.007249	0.00721	-0.003469	-0.614014	0.041992	-0.036377
328.0	7.760744	-1.71132	6.02913	-0.00743	0.008857	-0.006945	-0.616211	0.044189	-0.03418
329.0	7.778083	-1.727959	6.028683	-0.003232	0.005639	-0.006212	-0.609619	0.040039	-0.03418
330.0	7.76015	-1.710904	6.030012	-0.008358	0.007488	-0.00863	-0.616455	0.046387	-0.036377
331.0	7.774341	-1.696306	6.043667	-0.007803	0.00735	-0.00605	-0.614014	0.041992	-0.03418
332.0	7.773969	-1.696165	6.044185	-0.004955	0.008758	-0.007475	-0.620361	0.039795	-0.031982
333.0	7.765126	-1.705941	6.06514	-0.005486	0.005146	-0.00937	-0.614014	0.044189	-0.038574
334.0	7.773445	-1.695421	6.045067	-0.004182	0.008024	-0.008582	-0.616455	0.046387	-0.036377
335.0	7.776273	-1.726552	6.03142	-0.007801	0.007351	-0.00605	-0.609863	0.048584	-0.036377
336.0	7.772753	-1.695204	6.046019	-0.004774	0.007111	-0.003999	-0.609863	0.044189	-0.038574
337.0	7.772408	-1.695098	6.046491	-0.005327	0.007251	-0.006579	-0.607422	0.042236	-0.036377
338.0	7.766069	-1.699306	6.013342	-0.00705	0.010371	-0.007842	-0.616211	0.041992	-0.036377
339.0	7.756984	-1.709218	6.034562	-0.005349	0.011006	-0.007264	-0.611816	0.044189	-0.036377
340.0	7.774215	-1.7258	6.034288	-0.006651	0.008128	-0.008054	-0.611816	0.039795	-0.031982
341.0	7.75896	-1.672993	6.083558	-0.004552	0.006519	-0.007687	-0.611816	0.044189	-0.03418
342.0	7.796711	-1.700553	6.027936	-0.004552	0.006519	-0.007687	-0.622803	0.044189	-0.036377
343.0	7.77931	-1.720713	6.069275	-0.011196	0.006085	-0.007209	-0.609619	0.041992	-0.03418
344.0	7.769915	-1.693734	6.050077	-0.005324	0.007255	-0.00658	-0.614014	0.041992	-0.03418
345.0	7.763709	-1.698069	6.016737	-0.00817	0.005845	-0.005157	-0.616455	0.046387	-0.036377
346.0	7.777876	-1.68337	6.030442	-0.0055	0.008906	-0.010056	-0.614014	0.044189	-0.03418
347.0	7.777553	-1.683078	6.03094	-0.007022	0.006621	-0.007159	-0.611816	0.044434	-0.040771
348.0	7.786336	-1.710041	6.050929	-0.007242	0.007215	-0.003471	-0.616211	0.044189	-0.038574
349.0	7.770907	-1.687478	5.998163	-0.005719	0.009501	-0.006368	-0.618408	0.041992	-0.036377
350.0	7.785368	-1.709909	6.052211	-0.003093	0.011505	-0.004103	-0.616211	0.041992	-0.036377
351.0	7.784867	-1.709927	6.052852	-0.007241	0.007216	-0.003472	-0.616211	0.044189	-0.030029
352.0	7.743029	-1.680636	6.021681	-0.005365	0.014768	-0.007947	-0.616211	0.044189	-0.031982
353.0	7.792248	-1.699462	6.034012	-0.004017	0.010138	-0.005789	-0.616211	0.044189	-0.030029
354.0	7.756803	-1.702894	6.076636	-0.005563	0.011606	-0.003576	-0.618408	0.041992	-0.03418
355.0	7.768029	-1.723968	6.042772	-0.00534	0.011015	-0.007264	-0.618164	0.040039	-0.036377
356.0	7.758459	-1.696868	6.023845	-0.00609	0.007994	-0.005475	-0.618652	0.048584	-0.03418
357.0	7.772528	-1.682289	6.037634	-0.006089	0.007994	-0.005475	-0.616211	0.044189	-0.030029
358.0	7.775372	-1.71364	6.023956	-0.008561	0.008094	-0.004948	-0.609863	0.046387	-0.031982
359.0	7.783564	-1.703402	6.004028	-0.004939	0.008773	-0.007476	-0.614014	0.044189	-0.031982
360.0	7.74825	-1.706831	6.046447	-0.006861	0.00873	-0.004369	-0.618164	0.039795	-0.029785
361.0	7.765607	-1.723515	6.046014	-0.003217	0.005652	-0.006213	-0.62085	0.04834	-0.025635
362.0	7.756182	-1.696276	6.026943	-0.004938	0.008774	-0.007476	-0.611572	0.035645	-0.036377
363.0	7.770289	-1.681547	6.040723	-0.007011	0.006629	-0.007162	-0.607666	0.046387	-0.03418
364.0	7.761394	-1.691667	6.061582	-0.006462	0.006486	-0.004581	-0.614014	0.041992	-0.031982
365.0	7.763863	-1.685816	6.007743	-0.005688	0.005753	-0.005688	-0.618408	0.044189	-0.040771
366.0	7.772628	-1.712664	6.027774	-0.004387	0.008633	-0.004895	-0.616211	0.041992	-0.03418
367.0	7.777555	-1.671211	6.022026	-0.007234	0.00722	-0.003475	-0.614258	0.046387	-0.031982
368.0	7.771889	-1.712593	6.028747	-0.005858	0.007409	-0.009163	-0.618408	0.044189	-0.03418
369.0	7.78586	-1.697921	6.042685	-0.005558	0.011612	-0.003576	-0.614014	0.044189	-0.03418
370.0	7.753269	-1.695641	6.030868	-0.005685	0.005754	-0.005688	-0.614014	0.042236	-0.038574
371.0	7.785149	-1.697783	6.04364	-0.007007	0.006632	-0.007163	-0.616211	0.039795	-0.031982
372.0	7.744065	-1.705613	6.052149	-0.006082	0.008	-0.005476	-0.616455	0.048584	-0.03418
373.0	7.775849	-1.707746	6.065047	-0.005308	0.007267	-0.006582	-0.616211	0.044189	-0.031982
374.0	7.766451	-1.680641	6.045909	-0.005684	0.005756	-0.005689	-0.618408	0.044189	-0.030029
375.0	7.743196	-1.705393	6.053323	-0.008531	0.004342	-0.00427	-0.614014	0.044189	-0.03418
376.0	7.763447	-1.716306	5.99855	-0.005307	0.007269	-0.006582	-0.616211	0.041992	-0.031982
377.0	7.777437	-1.701773	6.012423	-0.00895	0.010346	-0.004739	-0.616211	0.040039	-0.03418
378.0	7.762511	-1.716404	5.999733	-0.003836	0.008492	-0.002312	-0.614014	0.041992	-0.031982
379.0	7.75347	-1.726594	6.020731	-0.006079	0.008003	-0.005476	-0.614258	0.046387	-0.030029
380.0	7.776075	-1.701772	6.014185	-0.005702	0.009516	-0.00637	-0.616211	0.044189	-0.031982
381.0	7.767052	-1.711781	6.035207	-0.006624	0.008149	-0.008058	-0.618408	0.046387	-0.03418
382.0	7.748919	-1.694825	6.036685	-0.005701	0.009517	-0.00637	-0.614258	0.046387	-0.030029
383.0	7.780649	-1.696995	6.049653	-0.007774	0.00737	-0.006059	-0.616211	0.040039	-0.03418
384.0	7.762525	-1.680267	6.051052	-0.006851	0.008738	-0.00437	-0.611816	0.041992	-0.031982
385.0	7.768709	-1.742912	6.023165	-0.006851	0.008738	-0.00437	-0.614014	0.041992	-0.031982
386.0	7.779443	-1.697094	6.051176	-0.005678	0.00576	-0.00569	-0.618408	0.041992	-0.03418
387.0	7.761368	-1.680432	6.05249	-0.008002	0.007959	-0.002371	-0.616211	0.040039	-0.036377
388.0	7.790559	-1.718406	6.017518	-0.006472	0.010253	-0.005264	-0.616211	0.040039	-0.03418
389.0	7.772255	-1.701775	6.019121	-0.006702	0.01084	-0.001575	-0.616211	0.040039	-0.03418
390.0	7.766338	-1.743448	6.026067	-0.008565	0.011866	-0.005634	-0.611816	0.040039	-0.03418
391.0	7.771042	-1.702067	6.020604	-0.005926	0.010108	-0.002682	-0.614014	0.044189	-0.03418
392.0	7.779529	-1.728921	6.040964	-0.003244	0.013185	-0.007572	-0.614258	0.046387	-0.036377
393.0	7.755514	-1.716136	6.008852	-0.007934	0.009036	-0.009536	-0.612061	0.048584	-0.031982
394.0	7.769294	-1.701393	6.02305	-0.003096	0.015286	-0.004777	-0.618408	0.046387	-0.027832
395.0	7.768617	-1.701196	6.023978	-0.003996	0.010159	-0.005787	-0.609619	0.042236	-0.040771
396.0	7.773373	-1.659472	6.018546	-0.005314	0.011039	-0.007264	-0.614258	0.046387	-0.031982
397.0	7.773265	-1.696611	6.059245	-0.007242	0.01099	-0.004159	-0.616211	0.042236	-0.038574
398.0	7.772792	-1.696769	6.059808	-0.005903	0.00635	-0.002004	-0.618652	0.050781	-0.03418
399.0	7.772414	-1.696729	6.060305	-0.004914	0.008794	-0.007477	-0.616455	0.046387	-0.030029
400.0	7.772059	-1.696717	6.060762	-0.007598	0.005716	-0.002588	-0.611816	0.041992	-0.031982
401.0	7.783811	-1.717962	6.026371	-0.005504	0.004104	-0.002218	-0.616455	0.048584	-0.032227
402.0	7.797941	-1.703455	6.040049	-0.006986	0.006647	-0.007169	-0.618652	0.046387	-0.040771
403.0	7.759748	-1.705493	5.994246	-0.005524	0.007866	-0.002896	-0.616211	0.042236	-0.038574
404.0	7.779475	-1.686763	6.041851	-0.006443	0.006499	-0.004587	-0.614014	0.044189	-0.03418
405.0	7.791549	-1.745048	6.04762	-0.008158	0.009627	-0.00585	-0.618408	0.044189	-0.038574
406.0	7.769967	-1.697	6.063365	-0.004369	0.00865	-0.004894	-0.616211	0.046387	-0.027832
407.0	7.763965	-1.70145	6.029901	-0.011364	0.002933	-0.002867	-0.614258	0.048584	-0.031982
408.0	7.755165	-1.711922	6.050435	-0.006044	0.004254	-0.004801	-0.614258	0.046387	-0.03418
409.0	7.757836	-1.706035	5.996567	-0.010229	0.007479	-0.005543	-0.614014	0.044189	-0.031982
410.0	7.786779	-1.714376	6.063501	-0.006421	0.002739	-0.003909	-0.614258	0.050781	-0.03418
411.0	7.786578	-1.714548	6.06371	-0.007594	0.005718	-0.002589	-0.611816	0.041992	-0.029785
412.0	7.745172	-1.685502	6.031909	-0.006421	0.00274	-0.003909	-0.62085	0.048584	-0.032227
413.0	7.771843	-1.729435	6.050702	-0.009289	0.005085	-0.003174	-0.618408	0.044189	-0.031982
414.0	7.788809	-1.709134	6.010286	-0.005521	0.007869	-0.002895	-0.616211	0.041992	-0.03418
415.0	7.762081	-1.70288	6.031922	-0.007971	0.004204	-0.001698	-0.616211	0.044189	-0.036377
416.0	7.753167	-1.713549	6.052534	-0.013074	0.006064	-0.004131	-0.614258	0.046387	-0.031982
417.0	7.74714	-1.718022	6.019106	-0.004744	0.007139	-0.004001	-0.618652	0.04834	-0.027832
418.0	7.79324	-1.705824	6.045445	-0.005898	0.006355	-0.002004	-0.618652	0.048584	-0.03418
419.0	7.760718	-1.703819	6.033412	-0.006295	0.008602	-0.001789	-0.614014	0.041992	-0.03418
420.0	7.763689	-1.735268	6.019622	-0.007213	0.007237	-0.003481	-0.618164	0.039795	-0.03418
421.0	7.759877	-1.704047	6.034429	-0.004363	0.008656	-0.004892	-0.614014	0.041992	-0.031982
422.0	7.791624	-1.706464	6.047348	-0.011755	0.005185	-0.002656	-0.611816	0.041992	-0.031982
423.0	7.762599	-1.735592	6.020934	-0.004902	0.008808	-0.007475	-0.612061	0.048584	-0.036377
424.0	7.776452	-1.721109	6.034968	-0.008384	0.010217	-0.00216	-0.618652	0.04834	-0.030029
425.0	7.775923	-1.721089	6.035656	-0.004522	0.010325	-0.008366	-0.616455	0.048584	-0.032227
426.0	7.749045	-1.714502	6.057541	-0.005516	0.007873	-0.002895	-0.616211	0.044189	-0.031982
427.0	7.775024	-1.720932	6.036857	-0.005676	0.009541	-0.006369	-0.611816	0.044189	-0.031982
428.0	7.765903	-1.731078	6.057855	-0.00436	0.008659	-0.004892	-0.614258	0.046387	-0.03418
429.0	7.756396	-1.703981	6.038921	-0.006053	0.008025	-0.005479	-0.614258	0.046387	-0.030029
430.0	7.727244	-1.733026	6.012699	-0.007227	0.011005	-0.004158	-0.618408	0.041992	-0.03418
431.0	7.805259	-1.722865	6.051872	-0.004897	0.008812	-0.007475	-0.618408	0.044189	-0.031982
432.0	7.722805	-1.701406	6.028403	-0.000592	0.011446	-0.004609	-0.620361	0.039795	-0.029785
433.0	7.772068	-1.720043	6.040916	-0.006607	0.011944	-0.008738	-0.611816	0.042236	-0.038574
434.0	7.771517	-1.719894	6.041667	-0.006448	0.010276	-0.005265	-0.618408	0.046387	-0.031982
435.0	7.753188	-1.703013	6.043312	-0.003598	0.011697	-0.006673	-0.609619	0.044189	-0.031982
436.0	7.764761	-1.723583	6.009458	-0.00282	0.010966	-0.007779	-0.622803	0.044189	-0.03418
437.0	7.757681	-1.698045	6.078785	-0.00491	0.012581	-0.008151	-0.616455	0.04834	-0.027832
438.0	7.769215	-1.718661	6.044978	-0.003596	0.011698	-0.006674	-0.61377	0.037842	-0.031982
439.0	7.777308	-1.708063	6.025465	-0.003595	0.011699	-0.006674	-0.612061	0.046387	-0.031982
440.0	7.764553	-1.686927	6.060971	-0.006064	0.011796	-0.006156	-0.618408	0.044189	-0.03418
441.0	7.735399	-1.71571	6.034845	-0.004509	0.010335	-0.008367	-0.616211	0.041992	-0.03418
442.0	7.789969	-1.693008	6.041184	-0.0076	0.009492	-0.003271	-0.616455	0.046387	-0.036377
443.0	7.748669	-1.701094	6.049645	-0.005285	0.011067	-0.007262	-0.609863	0.048584	-0.031982
444.0	7.769354	-1.748849	6.035246	-0.006061	0.011798	-0.006157	-0.616211	0.044189	-0.031982
445.0	7.791808	-1.723895	6.029079	-0.005663	0.00955	-0.006372	-0.614014	0.044189	-0.03418
446.0	7.759138	-1.721493	6.017316	-0.003987	0.013953	-0.006458	-0.614014	0.041992	-0.029785
447.0	7.758509	-1.721352	6.018166	-0.006439	0.010282	-0.005267	-0.614014	0.039795	-0.031982
448.0	7.763592	-1.716951	6.052684	-0.004503	0.01034	-0.008368	-0.614014	0.041992	-0.03418
449.0	7.786109	-1.69197	6.046449	-0.006819	0.008764	-0.004378	-0.614014	0.044189	-0.030029
450.0	7.762755	-1.716767	6.053809	-0.006955	0.006669	-0.007177	-0.614014	0.044189	-0.030029
451.0	7.771216	-1.706359	6.033802	-0.007335	0.005151	-0.006288	-0.614014	0.041992	-0.03418
452.0	7.762347	-1.716679	6.054357	-0.007715	0.003632	-0.005398	-0.612061	0.046387	-0.03418
453.0	7.738764	-1.704211	6.021676	-0.00642	0.006516	-0.004594	-0.612061	0.046387	-0.03418
454.0	7.779168	-1.69604	6.014432	-0.00735	0.00892	-0.006962	-0.616455	0.048584	-0.030029
455.0	7.755884	-1.720917	6.021673	-0.008492	0.004363	-0.004294	-0.611816	0.044189	-0.03418
456.0	7.778952	-1.733694	6.054926	-0.009667	0.007343	-0.002973	-0.612061	0.046387	-0.038574
457.0	7.78169	-1.727674	6.001258	-0.007348	0.008922	-0.006962	-0.612061	0.046387	-0.036377
458.0	7.77807	-1.733765	6.056038	-0.006434	0.010287	-0.005267	-0.611816	0.039795	-0.031982
459.0	7.762954	-1.710857	6.003376	-0.007347	0.008923	-0.006962	-0.609619	0.044189	-0.029785
460.0	7.768104	-1.7066	6.03774	-0.006036	0.008039	-0.005483	-0.614014	0.041992	-0.031982
461.0	7.771146	-1.737621	6.024073	-0.003582	0.011713	-0.006671	-0.609619	0.044189	-0.027832
462.0	7.749282	-1.689501	6.040031	-0.005654	0.009559	-0.006372	-0.611816	0.044189	-0.031982
463.0	7.789938	-1.718536	6.072807	-0.006963	0.010445	-0.007852	-0.614258	0.046387	-0.03418
464.0	7.766171	-1.705603	6.040508	-0.002936	0.008891	-0.010577	-0.616455	0.046387	-0.031982
465.0	7.765765	-1.705316	6.041111	-0.006812	0.00877	-0.004379	-0.605225	0.041992	-0.031982
466.0	7.765383	-1.705058	6.041675	-0.004625	0.008258	-0.011167	-0.616211	0.041992	-0.036377
467.0	7.750778	-1.719136	6.028752	-0.004873	0.008832	-0.007478	-0.614014	0.041992	-0.03418
468.0	7.723879	-1.712453	6.050506	-0.004093	0.008103	-0.008583	-0.620605	0.044189	-0.031982
469.0	7.778519	-1.6894	6.056928	-0.004871	0.008833	-0.007478	-0.614014	0.044189	-0.031982
470.0	7.749691	-1.718426	6.030352	-0.010573	0.005982	-0.004673	-0.611816	0.044189	-0.036377
471.0	7.763574	-1.703681	6.044388	-0.002549	0.010417	-0.011465	-0.614014	0.040039	-0.03418
472.0	7.763129	-1.703349	6.045053	-0.006809	0.008773	-0.00438	-0.616211	0.044189	-0.036377
473.0	7.73984	-1.72803	6.052328	-0.003693	0.005856	-0.0088	-0.612061	0.048584	-0.036377
474.0	7.756993	-1.707051	6.012158	-0.006029	0.008044	-0.005485	-0.611816	0.041992	-0.031982
475.0	7.779954	-1.719437	6.045637	-0.00525	0.007315	-0.00659	-0.616455	0.046387	-0.031982
476.0	7.779635	-1.719252	6.0461	-0.008248	0.007567	-0.008661	-0.616455	0.046387	-0.031982
477.0	7.788184	-1.70866	6.026086	-0.004454	0.002816	-0.007024	-0.618164	0.039795	-0.031982
478.0	7.747237	-1.716658	6.034008	-0.003941	0.00643	-0.00511	-0.614258	0.046387	-0.036377
479.0	7.746964	-1.716633	6.034366	-0.011097	0.006141	-0.00726	-0.614014	0.044189	-0.03418
480.0	7.775179	-1.687731	6.061679	-0.005483	0.004117	-0.002229	-0.614014	0.044189	-0.036377
481.0	7.764319	-1.733553	6.03404	-0.008098	0.00589	-0.005189	-0.614014	0.044189	-0.038574
482.0	7.760489	-1.702504	6.048679	-0.00848	0.004369	-0.004301	-0.616211	0.044189	-0.030029
483.0	7.772502	-1.723431	6.014371	-0.006806	0.008776	-0.00438	-0.614258	0.048584	-0.031982
484.0	7.777603	-1.719343	6.048689	-0.006407	0.006526	-0.004597	-0.614258	0.046387	-0.03418
485.0	7.759462	-1.702712	6.049938	-0.006407	0.006527	-0.004597	-0.616211	0.042236	-0.038574
486.0	7.771485	-1.723424	6.015687	-0.005245	0.00732	-0.00659	-0.620361	0.039795	-0.03418
487.0	7.77121	-1.723498	6.016021	-0.00795	0.004212	-0.001717	-0.614014	0.044189	-0.027832
488.0	7.770938	-1.723676	6.016322	-0.010709	0.007667	-0.008149	-0.614258	0.046387	-0.036377
489.0	7.76186	-1.734056	6.037058	-0.004716	0.007163	-0.004005	-0.616455	0.046387	-0.036377
490.0	7.766708	-1.692374	6.031542	-0.007841	0.005324	-0.00888	-0.622803	0.046387	-0.032227
491.0	7.775559	-1.719328	6.051321	-0.006405	0.006529	-0.004597	-0.614258	0.046387	-0.036377
492.0	7.775274	-1.719291	6.051697	-0.005625	0.005801	-0.005702	-0.614014	0.041992	-0.036377
493.0	7.765919	-1.692028	6.032655	-0.004462	0.006595	-0.007695	-0.618652	0.04834	-0.027832
494.0	7.774723	-1.718927	6.052509	-0.006404	0.006529	-0.004598	-0.616455	0.046387	-0.031982
495.0	7.75654	-1.702373	6.053779	-0.007183	0.007258	-0.003493	-0.616455	0.046387	-0.031982
496.0	7.768676	-1.723044	6.019422	-0.007058	0.004599	-0.009986	-0.616211	0.041992	-0.030029
497.0	7.759674	-1.733222	6.040108	-0.007327	0.008941	-0.006965	-0.614014	0.044434	-0.040771
498.0	7.767972	-1.72269	6.020432	-0.005637	0.009576	-0.006372	-0.611816	0.042236	-0.036377
499.0	7.77299	-1.718473	6.054862	-0.006019	0.008054	-0.005485	-0.618408	0.044189	-0.030029
500.0	7.758388	-1.732795	6.041881	-0.006162	0.009738	-0.008957	-0.614258	0.046387	-0.031982
501.0	7.772161	-1.718088	6.056036	-0.006018	0.008055	-0.005485	-0.618408	0.044189	-0.031982
502.0	7.757608	-1.732569	6.042947	-0.007706	0.00742	-0.006079	-0.614014	0.044189	-0.030029
503.0	7.762241	-1.690761	6.037742	-0.004089	0.011898	-0.00925	-0.614258	0.046387	-0.031982
504.0	7.753091	-1.700795	6.058638	-0.003151	0.005712	-0.006215	-0.612061	0.046387	-0.027832
505.0	7.765117	-1.721471	6.024463	-0.008883	0.0104	-0.004756	-0.616455	0.046387	-0.031982
506.0	7.770041	-1.717285	6.058983	-0.003165	0.009488	-0.006883	-0.618408	0.046387	-0.031982
507.0	7.769585	-1.716942	6.059665	-0.003164	0.009488	-0.006883	-0.616211	0.041992	-0.03418
508.0	7.804478	-1.712484	6.01895	-0.005632	0.009581	-0.006373	-0.614258	0.04834	-0.027832
509.0	7.759951	-1.726925	6.081185	-0.006538	0.008219	-0.008072	-0.614014	0.044189	-0.030029
510.0	7.762873	-1.720288	6.027692	-0.004467	0.010379	-0.008364	-0.614258	0.046387	-0.030029
511.0	7.776592	-1.705436	6.041949	-0.004849	0.008855	-0.007478	-0.609863	0.046387	-0.03418
512.0	7.761941	-1.719668	6.029069	-0.006551	0.011996	-0.00874	-0.614014	0.044189	-0.036377
513.0	7.752636	-1.729852	6.050103	-0.003942	0.010219	-0.005779	-0.614014	0.044189	-0.036377
514.0	7.775082	-1.704747	6.044086	-0.007316	0.008949	-0.006968	-0.616211	0.044189	-0.031982
515.0	7.787136	-1.725262	6.009978	-0.004847	0.008858	-0.007478	-0.611816	0.044189	-0.031982
516.0	7.777697	-1.697985	5.991063	-0.006916	0.006698	-0.007187	-0.616211	0.044189	-0.036377
517.0	7.759849	-1.718774	6.032016	-0.004707	0.007172	-0.004006	-0.611816	0.044189	-0.03418
518.0	7.782362	-1.693639	6.025929	-0.006148	0.009749	-0.008959	-0.618652	0.048584	-0.032227
519.0	7.759044	-1.718517	6.033124	-0.007174	0.007264	-0.003497	-0.611816	0.042236	-0.036377
520.0	7.776416	-1.735159	6.032916	-0.006023	0.011839	-0.006155	-0.618408	0.046387	-0.036377
521.0	7.74009	-1.701621	6.035437	-0.001086	0.011656	-0.007173	-0.616455	0.046387	-0.030029
522.0	7.789353	-1.720013	6.048257	-0.007325	0.01273	-0.007637	-0.616455	0.046387	-0.036377
523.0	7.751369	-1.721764	6.002468	-0.003553	0.011749	-0.006664	-0.614258	0.048584	-0.03418
524.0	7.770364	-1.702875	6.050678	-0.004841	0.008862	-0.007479	-0.614014	0.041992	-0.03418
525.0	7.77328	-1.696405	5.99724	-0.007185	0.011043	-0.004166	-0.609619	0.041992	-0.031982
526.0	7.763888	-1.706938	6.018258	-0.005498	0.011679	-0.00357	-0.614014	0.041992	-0.036377
527.0	7.791553	-1.677912	6.046262	-0.006402	0.010318	-0.00527	-0.616455	0.048584	-0.03418
528.0	7.741387	-1.696833	6.074694	-0.004977	0.011517	-0.000984	-0.618408	0.046387	-0.03418
529.0	7.746655	-1.692783	6.108654	0.000289	-0.008119	-0.002357	-0.614014	0.044189	-0.030029
530.0	7.673179	-1.632564	6.164301	0.006641	-0.039413	0.003441	-0.612061	0.046387	-0.03418
531.0	7.784637	-1.621967	6.124203	0.006248	-0.069459	0.006187	-0.609619	0.039795	-0.027832
532.0	7.757251	-1.721824	5.994848	0.003172	-0.074089	0.011936	-0.618408	0.041992	-0.031982
533.0	7.783262	-1.808006	6.013682	-0.00216	-0.067863	0.012506	-0.618652	0.048584	-0.032227
534.0	7.741276	-1.618115	6.203374	-0.000877	-0.090657	0.004542	-0.611816	0.041992	-0.029785
535.0	7.688735	-1.784011	6.082978	0.01908	-0.150035	0.007621	-0.618408	0.046387	-0.03418
536.0	7.779652	-1.728859	6.015611	0.027265	-0.181523	0.004009	-0.620361	0.039795	-0.029785
537.0	7.815227	-1.768493	5.932233	0.034163	-0.187381	-0.002284	-0.618408	0.046143	-0.023438
538.0	7.794642	-1.662578	6.016873	0.032174	-0.181891	-0.003339	-0.623047	0.050537	-0.023438
539.0	7.889157	-1.637905	5.934012	0.019146	-0.159708	-0.000172	-0.614014	0.046143	-0.02124
540.0	7.892213	-1.641333	5.888649	0.008173	-0.139169	0.003375	-0.620605	0.041992	-0.02124
541.0	7.906526	-1.704105	5.84987	-0.004292	-0.111367	0.011292	-0.620605	0.046143	-0.019043
542.0	7.959898	-1.759478	5.804788	-0.008702	-0.09043	0.014394	-0.625	0.046143	-0.02124
543.0	7.925863	-1.734403	5.854738	-0.014489	-0.064867	0.015366	-0.622559	0.041992	-0.02124
544.0	7.878968	-1.717681	5.838697	-0.015003	-0.051339	0.013591	-0.625	0.046143	-0.02124
545.0	7.896754	-1.742861	5.88775	-0.021558	-0.042183	0.01554	-0.620605	0.043945	-0.014648
546.0	7.877291	-1.697431	5.900204	-0.019619	-0.028756	0.01324	-0.62085	0.04834	-0.02124
547.0	7.852332	-1.693546	5.919305	-0.024217	-0.023294	0.012747	-0.616455	0.04834	-0.016846
548.0	7.85418	-1.762316	5.854636	-0.023384	-0.014422	0.013113	-0.618652	0.04834	-0.016846
549.0	7.863855	-1.791588	5.872848	-0.023684	-0.001471	0.007656	-0.620605	0.046143	-0.016846
550.0	7.862621	-1.755555	5.833133	-0.019194	0.009214	-0.001665	-0.62085	0.04834	-0.02124
551.0	7.859484	-1.763091	5.887812	-0.025481	0.014046	-0.002737	-0.616211	0.046143	-0.016846
552.0	7.830337	-1.764686	5.963595	-0.030962	0.001049	-0.005081	-0.618408	0.043945	-0.019043
553.0	7.863703	-1.658141	5.943737	-0.038087	-0.016334	-0.007348	-0.618408	0.041748	-0.019043
554.0	7.844521	-1.788436	5.924709	-0.028754	-0.038522	-0.004395	-0.62085	0.050537	-0.019043
555.0	7.829275	-1.706963	5.983756	-0.027308	-0.07736	-0.002607	-0.620605	0.046143	-0.019043
556.0	7.860769	-1.648812	6.016556	-0.035538	-0.127059	0.00327	-0.622803	0.04834	-0.016846
557.0	7.930815	-1.581064	5.950779	-0.054704	-0.132243	0.00795	-0.618408	0.043945	-0.014648
558.0	7.943301	-1.544326	5.933682	-0.077042	-0.127019	0.015782	-0.625244	0.05249	-0.012695
559.0	7.919073	-1.586592	5.95012	-0.096816	-0.11606	0.025249	-0.618652	0.050293	-0.012695
560.0	7.90267	-1.620413	5.946285	-0.117187	-0.115624	0.037803	-0.623047	0.050293	-0.014893
561.0	7.925485	-1.675743	5.831617	-0.118058	-0.10583	0.051267	-0.623047	0.05249	-0.01709
562.0	7.968705	-1.685814	5.867621	-0.130931	-0.085409	0.058101	-0.627197	0.04834	-0.014893
563.0	7.954822	-1.681928	5.860092	-0.137484	-0.083133	0.065097	-0.622803	0.04834	-0.014893
564.0	7.952062	-1.764779	5.7543	-0.13923	-0.073559	0.069729	-0.62085	0.050537	-0.016846
565.0	7.946512	-1.788923	5.766772	-0.137962	-0.063124	0.069251	-0.62085	0.050537	-0.016846
566.0	7.958084	-1.82955	5.778573	-0.133897	-0.05129	0.06736	-0.621094	0.054688	-0.014893
567.0	7.909156	-1.888592	5.698762	-0.124442	-0.036113	0.066335	-0.616699	0.056885	-0.010498
568.0	7.942165	-1.968335	5.641585	-0.118157	-0.036014	0.059541	-0.625244	0.05249	-0.012695
569.0	7.968926	-1.919625	5.679039	-0.104768	-0.021265	0.048601	-0.625244	0.05249	-0.014893
570.0	7.894017	-2.007199	5.662466	-0.093318	-0.017309	0.046369	-0.625	0.04834	-0.016846
571.0	7.887618	-2.018645	5.625828	-0.081344	-0.011228	0.032421	-0.625244	0.054688	-0.012695
572.0	7.888329	-2.128305	5.598597	-0.066786	-0.003221	0.020759	-0.623047	0.05249	-0.010498
573.0	7.85367	-2.202161	5.575436	-0.051812	0.001128	-0.004819	-0.625244	0.05249	-0.012695
574.0	7.890883	-2.229425	5.517476	-0.036174	0.011084	-0.025616	-0.621094	0.059082	-0.019043
575.0	7.917757	-2.272046	5.535397	-0.01296	0.029721	-0.050155	-0.623291	0.059082	-0.014893
576.0	7.896548	-2.219686	5.55487	0.004414	0.037732	-0.076894	-0.623291	0.056885	-0.014893
577.0	7.863694	-2.209583	5.546805	0.019684	0.049971	-0.097437	-0.625244	0.05249	-0.010498
578.0	7.901677	-2.263245	5.533392	0.037984	0.064299	-0.130243	-0.627441	0.05249	-0.012695
579.0	7.906084	-2.207635	5.534861	0.056754	0.075272	-0.156159	-0.62085	0.050293	-0.012695
580.0	7.888487	-2.082355	5.711037	0.070597	0.079536	-0.176052	-0.62085	0.05249	-0.016846
581.0	7.852009	-1.965171	5.785646	0.073831	0.069621	-0.19644	-0.623047	0.050293	-0.012695
582.0	7.785592	-1.993159	5.914715	0.079284	0.039872	-0.209661	-0.627197	0.04834	-0.016846
583.0	7.823429	-2.012014	5.967559	0.09189	-0.033947	-0.212124	-0.620605	0.043945	-0.014648
584.0	7.68587	-1.909687	6.124292	0.091299	-0.090017	-0.237553	-0.629395	0.046143	-0.012695
585.0	7.722824	-1.943075	6.241228	0.097818	-0.175036	-0.254725	-0.625	0.043945	-0.014648
586.0	7.751899	-2.198916	6.254553	0.102439	-0.280216	-0.288155	-0.626953	0.041748	-0.008301
587.0	7.709567	-2.448504	6.434193	0.106174	-0.395347	-0.344593	-0.622559	0.037354	-0.008301
588.0	7.683532	-3.146545	6.425765	0.0724	-0.502618	-0.419221	-0.624512	0.035156	-0.008301
589.0	7.792417	-2.902817	6.454958	0.0133	-0.630224	-0.539113	-0.624268	0.028809	-0.001709
590.0	8.102894	-3.163887	6.70553	0.004045	-0.724561	-0.673568	-0.628418	0.021973	0.009277
591.0	8.365836	-3.491274	7.25019	-0.013362	-0.875796	-0.850613	-0.630859	0.028564	0.01123
592.0	8.322992	-4.528227	7.768218	0.157926	-0.992451	-1.049657	-0.630127	0.013428	0.017822
593.0	8.208414	-3.358196	7.768025	0.062826	-1.207124	-1.25351	-0.625488	0.002441	0.026611
594.0	9.157375	-4.197359	6.95851	-0.045884	-1.379224	-1.448284	-0.627197	-0.00415	0.031006
595.0	10.530758	-4.663291	6.631454	0.005513	-1.404268	-1.61441	-0.633545	-0.012939	0.043945
596.0	10.753009	-4.309421	6.795116	0.105379	-1.292141	-1.783004	-0.631104	-0.015137	0.052734
597.0	11.348495	-5.259024	7.768787	0.157463	-0.975471	-1.747486	-0.630615	-0.028076	0.057129
598.0	7.473743	-8.212107	7.964984	0.420709	-0.705337	-1.684675	-0.630127	-0.041016	0.057129
599.0	6.238277	-8.59906	8.210725	0.705383	-0.577866	-1.525597	-0.627686	-0.047607	0.063721
600.0	4.814531	-8.963238	8.474368	0.898349	-0.537191	-1.177589	-0.629639	-0.051758	0.061523
601.0	7.223522	-7.059055	9.549744	0.686807	-0.485324	-0.601507	-0.634033	-0.051758	0.065918
602.0	4.258025	-7.667219	10.22445	0.376506	-0.244004	0.02584	-0.634033	-0.051758	0.059326
603.0	2.632883	-7.959949	10.205229	0.089262	-0.183693	0.423607	-0.632324	-0.038818	0.063721
604.0	2.059088	-8.01344	10.121499	-0.07489	-0.120835	0.646715	-0.639404	-0.028076	0.059326
605.0	2.425665	-7.337981	10.286981	-0.174605	0.04677	0.812492	-0.637695	-0.017334	0.057129
606.0	2.438731	-6.467304	10.588276	-0.3096	0.234252	0.966514	-0.646973	-0.004395	0.04834
607.0	2.614424	-5.873194	10.679747	-0.466184	0.38601	1.099922	-0.643555	0.021729	0.032959
608.0	3.245441	-5.559361	10.674865	-0.585073	0.542196	1.222415	-0.646484	0.039063	0.028564
609.0	4.041411	-5.258912	10.587448	-0.666239	0.70874	1.346465	-0.638428	0.056396	0.015381
610.0	4.783979	-4.903587	10.446324	-0.710734	0.886268	1.470942	-0.637451	0.08667	0.000244
611.0	5.517953	-4.608592	10.118767	-0.732514	1.063369	1.574838	-0.627686	0.116943	-0.012939
612.0	6.190474	-4.333924	9.63967	-0.730153	1.218387	1.644912	-0.615967	0.147217	-0.021729
613.0	6.81782	-3.90018	9.133423	-0.727709	1.341389	1.674365	-0.601563	0.17334	-0.037109
614.0	7.342345	-3.355297	8.607312	-0.753673	1.413417	1.676346	-0.579102	0.205811	-0.048096
615.0	7.902728	-2.920401	8.027972	-0.816716	1.413234	1.660532	-0.551758	0.231934	-0.05249
616.0	8.354346	-2.761303	7.416763	-0.86694	1.357884	1.638563	-0.526611	0.26001	-0.050293
617.0	8.996789	-2.767914	6.846537	-0.873267	1.261063	1.617547	-0.497314	0.287842	-0.043945
618.0	9.577779	-2.791254	6.218386	-0.816478	1.183814	1.58998	-0.469727	0.304932	-0.031006
619.0	9.837667	-2.596295	5.763502	-0.712734	1.108161	1.558691	-0.441895	0.322266	-0.022461
620.0	9.982968	-2.306895	5.425438	-0.608704	1.036817	1.504648	-0.411865	0.334961	-0.00708
621.0	10.275108	-1.446469	5.305825	-0.535114	0.979808	1.448057	-0.384033	0.345703	0.010254
622.0	10.382681	-0.40742	5.074023	-0.564252	0.944643	1.435784	-0.366699	0.349854	0.033936
623.0	9.90718	0.158141	4.892961	-0.678675	0.866154	1.415845	-0.342773	0.35376	0.062256
624.0	10.003015	0.342683	4.382564	-0.793661	0.76782	1.374583	-0.323242	0.351318	0.086182
625.0	10.258585	0.424001	3.660163	-0.842265	0.733848	1.307515	-0.307617	0.34668	0.114258
626.0	9.798404	0.390055	3.394486	-0.794939	0.719039	1.211629	-0.296631	0.342285	0.135986
627.0	10.066637	0.933689	2.968503	-0.762194	0.668111	1.09525	-0.282959	0.333252	0.170898
628.0	10.336056	1.249395	2.351375	-0.72521	0.633524	0.986647	-0.284912	0.324463	0.181641
629.0	10.450847	1.439161	1.802058	-0.647016	0.617094	0.869119	-0.275635	0.31543	0.209961
630.0	10.516419	1.783371	1.302015	-0.549509	0.587527	0.732865	-0.279541	0.304443	0.231689
631.0	10.862392	2.467584	0.659564	-0.464995	0.554079	0.616337	-0.285645	0.29126	0.251221
632.0	10.541614	2.861692	0.021505	-0.432824	0.467926	0.519705	-0.283203	0.286621	0.26416
633.0	10.389749	2.983092	-0.507969	-0.400415	0.307305	0.381613	-0.282715	0.273682	0.279541
634.0	10.795974	3.358803	-1.046761	-0.354538	0.121585	0.254013	-0.293213	0.262451	0.294678
635.0	10.979645	3.557473	-1.41089	-0.319158	-0.068047	0.135113	-0.292969	0.258057	0.30542
636.0	11.474418	3.520376	-1.808015	-0.242815	-0.254317	-0.005393	-0.299072	0.24707	0.320801
637.0	12.022322	3.620325	-2.100923	-0.124838	-0.361008	-0.149153	-0.299072	0.249023	0.335938
638.0	11.87902	3.64465	-2.137101	-0.010671	-0.457319	-0.306234	-0.294189	0.236084	0.344727
639.0	11.969933	3.652585	-2.179072	0.049805	-0.588338	-0.478945	-0.287598	0.23584	0.359863
640.0	15.635502	-4.395885	-1.788154	2.359439	-0.347124	-0.986149	-0.291748	0.233643	0.372803
641.0	5.293335	-5.052125	14.36582	2.270296	-0.390647	-1.100975	-0.287354	0.229004	0.383789
642.0	-5.514159	-15.477552	13.050248	1.406317	-1.220189	-1.656797	-0.284668	0.220215	0.398926
643.0	8.212992	-7.800281	3.210088	1.708504	-2.378387	-2.393149	-0.279785	0.207275	0.409912
644.0	19.316209	0.588277	1.454512	2.078724	-1.703928	-1.864939	-0.279785	0.204834	0.422852
645.0	13.947987	1.208767	3.058346	2.116361	-1.511721	-0.955635	-0.270996	0.202637	0.442383
646.0	10.787486	-0.730811	6.336279	2.165237	-1.374796	-0.572498	-0.266846	0.208984	0.450928
647.0	8.458933	1.607039	7.843237	2.003581	-1.328913	-0.578127	-0.255615	0.20459	0.461914
648.0	10.249958	5.945729	8.434663	1.539139	-1.129014	-0.784958	-0.255859	0.20874	0.470459
649.0	11.227282	6.982502	8.571311	0.698092	-0.8004	-0.962365	-0.253418	0.201904	0.48584
650.0	21.945397	1.289645	4.006779	0.075799	-0.093016	-0.696403	-0.257568	0.197754	0.477051
651.0	7.320479	-6.470572	4.358344	0.45779	0.525941	-0.467578	-0.259766	0.197754	0.479248
652.0	8.518035	-0.943956	6.310581	0.3926	0.162478	-0.618599	-0.259766	0.199951	0.474854
653.0	8.39019	-1.538338	5.430724	0.362673	0.245616	-0.500205	-0.257568	0.199951	0.472656
654.0	8.363615	-1.30783	6.183812	0.360982	0.218767	-0.464181	-0.259766	0.199951	0.474854
655.0	8.124687	-1.782635	6.097005	0.344003	0.196334	-0.40006	-0.255371	0.197754	0.474854
656.0	8.544345	-0.607482	6.544417	0.307352	0.168345	-0.345402	-0.253418	0.202148	0.479248
657.0	8.244696	-1.016677	6.292669	0.241167	0.121301	-0.248992	-0.255371	0.199951	0.488037
658.0	7.98369	-1.007896	6.446977	0.18983	0.087581	-0.198587	-0.251221	0.199951	0.48584
659.0	8.166533	-1.037266	6.389115	0.141266	0.027792	-0.126513	-0.250977	0.197754	0.481445
660.0	7.927515	-0.950589	6.355903	0.085636	-0.01676	-0.063893	-0.257568	0.199707	0.488037
661.0	7.971346	-1.342359	6.105052	0.038296	-0.047981	-0.02144	-0.255371	0.199951	0.479248
662.0	8.086337	-1.602666	5.941424	0.004289	-0.066039	-0.000289	-0.251221	0.202148	0.483643
663.0	7.996123	-1.728092	5.81371	-0.017066	-0.071086	0.007821	-0.255615	0.202148	0.483643
664.0	8.032071	-1.631977	5.892892	-0.031294	-0.070248	0.002881	-0.255615	0.202148	0.483643
665.0	7.966735	-1.566971	5.889583	-0.057124	-0.078212	0.019095	-0.248779	0.197754	0.48584
666.0	8.009822	-1.63429	5.812494	-0.073058	-0.085682	0.025913	-0.249023	0.204102	0.483643
667.0	7.962574	-1.689984	5.733121	-0.078817	-0.09144	0.033259	-0.255615	0.204102	0.488037
668.0	8.027198	-2.18017	5.501461	-0.083825	-0.076052	0.020629	-0.251221	0.199951	0.479248
669.0	8.095441	-2.589759	5.223145	-0.055755	-0.034212	-0.02437	-0.257568	0.197754	0.490234
670.0	8.104556	-2.88208	5.033504	-0.001819	0.018659	-0.090004	-0.250977	0.197754	0.48584
671.0	8.113082	-2.520024	5.144216	0.060241	0.091894	-0.155599	-0.255371	0.199951	0.481445
672.0	7.999399	-2.140137	5.389913	0.090055	0.14173	-0.190674	-0.253174	0.199951	0.48584
673.0	8.045627	-2.033253	5.434954	0.106221	0.178865	-0.217873	-0.248779	0.197754	0.481445
674.0	7.8913	-1.818171	5.594492	0.118362	0.200412	-0.231335	-0.253174	0.197754	0.48584
675.0	7.83778	-1.946239	5.610372	0.107276	0.211295	-0.246466	-0.25293	0.193359	0.481445
676.0	8.033224	-2.056202	5.505462	0.105767	0.225949	-0.277996	-0.259766	0.197754	0.481445
677.0	8.008398	-2.009432	5.527623	0.116374	0.253678	-0.314333	-0.250977	0.195557	0.479248
678.0	7.898996	-1.454753	5.804474	0.10764	0.257309	-0.331227	-0.253174	0.197754	0.483643
679.0	7.987013	-1.532665	5.844011	0.083794	0.258345	-0.340463	-0.250977	0.197754	0.490234
680.0	7.839979	-1.471498	5.938632	0.041843	0.259002	-0.341349	-0.253174	0.195557	0.48584
681.0	8.011664	-1.212794	5.995179	0.003767	0.254929	-0.340596	-0.255127	0.193359	0.488037
682.0	7.848563	-1.529511	5.938679	-0.031181	0.24312	-0.336346	-0.257324	0.189209	0.48584
683.0	7.972452	-1.253898	6.069994	-0.04212	0.24047	-0.34135	-0.25293	0.191162	0.490234
684.0	7.83513	-1.442916	6.109079	-0.053453	0.219299	-0.328078	-0.255127	0.188965	0.492432
685.0	7.797316	-1.236608	6.169428	-0.072144	0.190545	-0.328886	-0.255127	0.191162	0.48584
686.0	7.75652	-1.254342	6.265223	-0.07317	0.163527	-0.330612	-0.254883	0.187012	0.48584
687.0	7.742943	-1.02393	6.312694	-0.068863	0.113813	-0.32891	-0.250488	0.186768	0.492432
688.0	7.748504	-1.432536	6.177138	-0.05421	0.087926	-0.314925	-0.25708	0.184814	0.483643
689.0	7.939437	-1.598158	6.112611	-0.000339	0.054731	-0.326394	-0.254639	0.18042	0.48584
690.0	7.77062	-1.58606	6.499809	0.053423	0.020587	-0.330653	-0.25708	0.184814	0.48584
691.0	7.649588	-1.33682	7.014148	0.062983	-0.046912	-0.336043	-0.252441	0.18042	0.492432
692.0	7.67747	-1.325684	7.060599	0.082764	-0.17909	-0.348569	-0.252686	0.182617	0.492432
693.0	7.424109	-1.273982	7.084107	0.136828	-0.322313	-0.400028	-0.254639	0.178223	0.500977
694.0	7.403614	-3.319534	8.992762	0.312336	-0.458961	-0.477491	-0.258789	0.173828	0.494629
695.0	6.861972	-1.209988	8.855833	0.400413	-0.848284	-0.637826	-0.252197	0.173828	0.499023
696.0	7.425372	-1.392243	8.474914	0.401837	-1.046432	-0.67678	-0.25	0.173828	0.500977
697.0	6.659529	-0.941742	9.129414	0.375746	-1.362483	-0.762211	-0.25415	0.167236	0.507568
698.0	7.037011	-1.087952	8.635174	0.369791	-1.657209	-0.834763	-0.256104	0.162842	0.509766
699.0	6.796132	-1.616881	8.493477	0.471342	-1.940279	-0.905918	-0.253662	0.154297	0.51416
700.0	6.705514	-2.099925	8.260279	0.580094	-2.277004	-1.026005	-0.249268	0.154297	0.520752
701.0	6.800595	-2.573572	8.656818	0.69636	-2.645007	-1.156752	-0.249023	0.149902	0.531494
702.0	6.946374	-3.730028	8.85731	0.759405	-3.143701	-1.295757	-0.241943	0.136719	0.546875
703.0	6.848765	-5.001143	8.201809	0.880311	-3.669966	-1.552613	-0.230957	0.130127	0.553467
704.0	6.203766	-5.731608	8.472579	0.937361	-4.258617	-1.942184	-0.223877	0.119385	0.566406
705.0	5.057162	-5.9113	9.730712	0.927532	-5.107639	-2.390012	-0.212402	0.108398	0.585938
706.0	4.493778	-6.626087	10.664506	0.846057	-6.241453	-2.890052	-0.194336	0.09082	0.614258
707.0	4.818098	-7.421594	8.805389	1.005565	-7.535559	-3.571855	-0.161133	0.077637	0.638184
708.0	9.406942	-3.415811	6.255125	1.549742	-8.255704	-4.376102	-0.132324	0.06665	0.670898
709.0	17.352511	4.750733	4.411076	1.97379	-7.95468	-4.579579	-0.096924	0.053467	0.69043
710.0	27.873717	8.108799	1.865569	1.189312	-7.242533	-4.193316	-0.070313	0.040527	0.703613
711.0	29.301841	2.831072	1.287752	0.339176	-6.187129	-3.855456	-0.054443	0.027588	0.712402
712.0	27.625486	-3.932262	1.352501	0.637563	-4.719906	-3.729185	-0.042969	0.010254	0.721191
713.0	23.216557	-8.687881	3.851088	1.96141	-3.164234	-3.607608	-0.031738	0.001709	0.723389
714.0	16.442925	-9.660286	7.385246	3.554672	-2.039903	-3.067548	-0.03833	0.001465	0.732178
715.0	11.291525	-6.619544	15.120083	4.150723	-1.309245	-2.24528	-0.046875	-0.00293	0.747314
716.0	13.921564	-6.269416	14.156895	2.187227	-0.898065	-1.563924	-0.054932	-0.016113	0.755859
717.0	6.771576	-9.108162	13.867209	1.454346	-0.157473	-0.88687	-0.063232	-0.029053	0.758301
718.0	6.596952	-7.47665	14.094404	0.504218	0.106589	-0.248178	-0.088623	-0.046387	0.756104
719.0	5.305438	-7.994901	13.44748	0.103915	0.569663	0.302418	-0.107666	-0.059326	0.769043
720.0	5.433306	-8.633218	12.578593	-0.078376	1.127461	0.660498	-0.133057	-0.078857	0.773438
721.0	4.814822	-7.960338	11.624958	-0.089373	1.6779	0.979063	-0.173828	-0.092041	0.775635
722.0	6.00695	-6.554873	10.899299	-0.106773	2.25868	1.330455	-0.208496	-0.098389	0.762695
723.0	6.476097	-5.176018	10.265936	-0.2224	2.875998	1.744247	-0.25415	-0.10083	0.758301
724.0	6.574116	-4.083741	9.416585	-0.412465	3.399042	2.1519	-0.302002	-0.10498	0.740723
725.0	6.588145	-3.500341	8.525726	-0.59835	3.806366	2.494786	-0.343506	-0.102539	0.716797
726.0	6.786946	-3.02582	7.804889	-0.74118	4.107952	2.756114	-0.398193	-0.095947	0.675537
727.0	7.226705	-2.366911	7.24133	-0.86811	4.346501	2.896988	-0.43335	-0.089111	0.647217
728.0	7.627425	-1.96325	6.819942	-1.020623	4.507585	3.002452	-0.474854	-0.084229	0.595215
729.0	8.232414	-1.766344	6.453669	-1.164859	4.613768	3.015268	-0.495117	-0.075195	0.549561
730.0	9.552025	-1.733537	5.947901	-1.2498	4.736891	3.002106	-0.519531	-0.065918	0.495361
731.0	10.715895	-0.752553	6.025679	-1.353979	4.895811	2.990093	-0.530518	-0.061035	0.445313
732.0	11.713995	0.053398	5.983283	-1.58328	4.985334	2.984766	-0.541504	-0.0625	0.395508
733.0	12.231986	0.319899	5.90791	-1.930125	4.98586	2.894589	-0.548096	-0.063965	0.350098
734.0	13.414443	-0.263133	5.502498	-2.288429	4.934007	2.7804	-0.557129	-0.059082	0.304443
735.0	14.007831	-1.13024	5.43202	-2.482011	4.877414	2.692802	-0.567627	-0.069336	0.263428
736.0	14.29133	-1.519139	5.443992	-2.525559	4.737315	2.614678	-0.574463	-0.064453	0.222168
737.0	14.217147	-1.556455	5.811285	-2.602578	4.422749	2.524124	-0.581299	-0.057617	0.185303
738.0	16.37908	-1.122159	5.907657	-2.793378	3.995056	2.471268	-0.588623	-0.044189	0.14624
739.0	19.940685	0.035217	4.98442	-3.048237	3.727337	2.601945	-0.591553	-0.022217	0.115723
740.0	19.944145	0.332898	3.72709	-3.272265	3.505531	2.872073	-0.594727	0.001953	0.083008
741.0	17.218562	0.532843	2.399678	-3.249989	2.884351	3.025227	-0.5979	0.023682	0.054688
742.0	16.889247	1.47658	0.706505	-2.907412	1.97403	2.960946	-0.599121	0.052002	0.028564
743.0	18.964209	3.855844	-0.487423	-2.401487	1.283411	2.754675	-0.584961	0.082275	0.015381
744.0	23.170035	7.768535	-0.938775	-2.038253	1.007723	2.570271	-0.581543	0.104248	-0.001953
745.0	26.227725	11.277188	-2.77321	-1.947417	1.301394	2.628182	-0.565186	0.130371	-0.021484
746.0	22.580976	11.599878	-5.088748	-1.904754	1.705304	2.569824	-0.552979	0.149902	-0.034668
747.0	18.602622	12.006793	-7.376876	-1.64828	1.719943	2.165316	-0.540283	0.163086	-0.043457
748.0	18.654773	13.708842	-9.383789	-1.404013	1.46111	1.684143	-0.530029	0.176025	-0.056396
749.0	19.403281	14.294035	-10.538702	-1.093343	1.332229	1.452473	-0.510742	0.182617	-0.060791
750.0	18.505648	14.069817	-10.558324	-0.662923	1.225674	1.417477	-0.504639	0.193604	-0.07373
751.0	15.09963	13.013801	-10.01115	0.001972	0.992062	1.229371	-0.493652	0.19165	-0.078125
752.0	11.511411	12.718561	-8.789165	0.664509	0.386597	0.63609	-0.487305	0.193848	-0.086914
753.0	12.662237	9.676623	-7.357865	1.727854	-0.20548	-0.323142	-0.484375	0.176514	-0.080322
754.0	13.908904	16.724042	-7.585329	2.488306	-0.993952	-1.754295	-0.488037	0.159424	-0.080078
755.0	-2.228409	-2.036211	16.012618	2.650059	-2.32945	-2.897168	-0.489258	0.137695	-0.062744
756.0	10.394427	-14.011788	14.034092	1.317952	-3.160273	-3.964448	-0.486328	0.11377	-0.056152
757.0	21.617545	4.055567	-3.103365	1.516952	-2.33613	-4.120509	-0.491455	0.083496	-0.038574
758.0	18.6122	5.397218	2.877341	1.844917	-2.456982	-2.662637	-0.497559	0.07251	-0.031982
759.0	15.180268	0.164087	5.319542	1.842447	-2.045889	-1.925416	-0.492432	0.048828	-0.023193
760.0	15.188373	2.424394	5.220289	1.58898	-1.874518	-1.777616	-0.505127	0.044189	-0.005859
761.0	25.544939	3.028041	3.296305	1.334199	-1.00954	-1.384028	-0.496094	0.035645	-0.008057
762.0	20.113038	3.042364	4.927773	0.73105	0.840205	-1.216101	-0.493408	0.022949	-0.01001
763.0	1.693513	-1.711308	7.816458	0.729002	0.096539	-0.995644	-0.491211	0.020752	-0.012207
764.0	12.251827	2.057923	6.22848	0.49155	0.098181	-0.90535	-0.490967	0.016357	-0.005615
765.0	9.134927	-0.866383	5.873356	0.503223	0.244633	-0.638284	-0.488525	0.007813	-0.007813
766.0	8.660528	0.684054	6.972542	0.416523	0.196903	-0.51114	-0.490723	0.005615	-0.01001
767.0	8.326081	0.659256	6.988841	0.326948	0.117749	-0.321814	-0.490723	0.007813	-0.01001
768.0	8.00023	0.152123	7.008279	0.236347	0.023323	-0.157427	-0.488281	0.003662	-0.014404
769.0	8.120252	-1.163694	6.158137	0.147952	-0.044464	-0.045372	-0.486084	0.001465	-0.016357
770.0	8.338774	-1.234717	5.999884	0.133769	-0.049067	-0.020737	-0.490479	0.001221	-0.007813
771.0	8.167164	-1.858261	5.801989	0.088613	-0.06696	0.022831	-0.492676	-0.000732	-0.012207
772.0	8.341403	-2.403932	5.575792	0.059787	-0.06376	-0.007598	-0.490479	0.003418	-0.01001
773.0	8.289744	-2.165528	5.461417	0.054546	-0.038484	-0.046741	-0.488525	0.007813	-0.005615
774.0	8.178674	-1.685472	5.610345	0.055286	-0.020841	-0.06592	-0.49292	0.005615	-0.01001
775.0	8.149328	-1.821064	5.672535	0.040961	-0.01939	-0.067142	-0.488281	-0.000732	-0.005615
776.0	8.162606	-1.663315	5.718935	0.001234	0.000437	-0.076202	-0.490479	0.001465	-0.01001
777.0	8.256031	-1.764004	5.592604	-0.073817	0.059084	-0.095289	-0.490479	-0.000732	-0.007813
778.0	8.233033	-1.880256	5.477513	-0.135833	0.130497	-0.113973	-0.494629	-0.00293	-0.005615
779.0	8.226587	-1.878072	5.487939	-0.149145	0.187944	-0.128913	-0.490234	-0.00293	-0.014404
780.0	8.156901	-2.007098	5.444291	-0.151552	0.230141	-0.140707	-0.488037	-0.005127	-0.01416
781.0	8.151025	-2.02817	5.393757	-0.119536	0.270771	-0.166534	-0.486084	-0.000732	-0.012207
782.0	8.169789	-2.09413	5.419723	-0.090519	0.304891	-0.189257	-0.488281	0.001465	-0.018555
783.0	8.055141	-1.800364	5.51286	-0.064741	0.347449	-0.21168	-0.483887	-0.002686	-0.025146
784.0	8.105879	-1.784555	5.510395	-0.040631	0.366157	-0.208739	-0.483643	-0.004883	-0.020752
785.0	8.019478	-1.916273	5.55632	-0.02625	0.402854	-0.231606	-0.477051	-0.009277	-0.020752
786.0	8.048487	-1.916038	5.511378	-0.020062	0.396364	-0.242287	-0.481201	-0.01123	-0.027344
787.0	7.958344	-1.800781	5.648035	-0.014079	0.400083	-0.247877	-0.481445	-0.009277	-0.022949
788.0	7.997373	-2.074428	5.498743	0.005686	0.380623	-0.246715	-0.477051	-0.009033	-0.027344
789.0	7.98583	-2.083991	5.515672	0.011575	0.386777	-0.286374	-0.479004	-0.013428	-0.029297
790.0	7.980201	-2.158599	5.559413	0.016392	0.387383	-0.316164	-0.476807	-0.015381	-0.035889
791.0	7.962521	-2.063358	5.651683	0.034398	0.370444	-0.345902	-0.470459	-0.013184	-0.033691
792.0	7.826768	-2.06599	5.933918	0.073161	0.353445	-0.37079	-0.474609	-0.017578	-0.035889
793.0	7.674386	-1.715924	6.235631	0.101746	0.296488	-0.398196	-0.465576	-0.021973	-0.033691
794.0	7.661826	-1.24157	6.563289	0.128534	0.198257	-0.410925	-0.472412	-0.017578	-0.038086
795.0	7.525019	-1.022853	6.902898	0.140751	0.093355	-0.406562	-0.474365	-0.02417	-0.033691
796.0	7.360341	-0.918205	7.130821	0.115828	-0.051729	-0.422641	-0.467773	-0.02417	-0.031494
797.0	7.780152	-0.698376	6.913938	0.142172	-0.240527	-0.463258	-0.469727	-0.02832	-0.029297
798.0	6.875511	-2.454915	8.487011	0.147047	-0.260881	-0.510121	-0.465088	-0.034912	-0.031494
799.0	7.106082	-1.384674	8.611338	0.247832	-0.608353	-0.593671	-0.471436	-0.039307	-0.022705
800.0	6.741893	-2.044327	9.156509	0.400792	-0.797281	-0.679504	-0.473389	-0.045898	-0.016113
801.0	6.930916	-1.425979	9.04793	0.420726	-1.192043	-0.770074	-0.470947	-0.050293	-0.007568
802.0	6.956513	-1.592083	9.165589	0.397493	-1.48381	-0.854314	-0.475342	-0.050293	-0.007568
803.0	6.800219	-2.203241	8.797575	0.424823	-1.850106	-0.964386	-0.473145	-0.05249	0.001221
804.0	6.806081	-2.163711	8.490289	0.558987	-2.173662	-1.097959	-0.470215	-0.067871	0.018555
805.0	6.599422	-2.161682	8.411571	0.680062	-2.527737	-1.23859	-0.469971	-0.074463	0.031738
806.0	6.518868	-2.364923	8.385658	0.789728	-2.920677	-1.373916	-0.476318	-0.078857	0.046875
807.0	6.33199	-2.854541	9.271792	0.909602	-3.400586	-1.543391	-0.468994	-0.096436	0.064209
808.0	6.134986	-4.015567	10.33339	0.87277	-4.081217	-1.710007	-0.475342	-0.105225	0.088135
809.0	5.468444	-6.583778	9.133338	0.962855	-4.897428	-2.067526	-0.463867	-0.114258	0.118408
810.0	4.351493	-6.920866	10.872574	1.017215	-5.908535	-2.627159	-0.458984	-0.129883	0.148926
811.0	3.505102	-7.720878	12.254541	0.777589	-7.317384	-3.156831	-0.444824	-0.153809	0.186035
812.0	4.276242	-6.310875	9.787742	0.989653	-8.817947	-3.993648	-0.43335	-0.169434	0.225098
813.0	12.487063	0.681341	5.571237	1.865398	-9.384361	-4.712678	-0.401855	-0.193604	0.277344
814.0	23.951855	8.601707	5.43065	1.93092	-8.899059	-4.624317	-0.376953	-0.213379	0.309814
815.0	33.045005	6.223474	1.712998	0.404831	-8.065889	-4.159095	-0.341309	-0.23291	0.333984
816.0	29.906207	-2.544194	0.625898	0.22787	-6.585392	-4.1207	-0.310303	-0.248291	0.35791
817.0	27.706985	-10.721068	0.368541	1.729305	-4.555552	-4.235893	-0.2771	-0.25708	0.379639
818.0	25.928869	-11.566617	6.278226	3.993389	-2.727906	-3.850356	-0.255127	-0.263672	0.39917
819.0	17.291507	-8.956968	13.347357	5.736109	-1.188862	-2.852705	-0.233154	-0.266113	0.431885
820.0	12.163356	-0.364275	18.809596	4.600166	-0.581682	-2.343372	-0.202637	-0.266113	0.444824
821.0	9.240484	-6.70776	15.144424	2.515829	0.069355	-1.671327	-0.187256	-0.268311	0.453613
822.0	6.847193	-1.907752	17.685471	-0.17421	0.306453	-0.922261	-0.174072	-0.274902	0.458008
823.0	9.299794	-6.194065	14.8638	-1.249764	1.145531	0.033987	-0.163086	-0.279053	0.451416
824.0	4.521687	-9.665679	14.004868	-1.505165	1.88592	0.42982	-0.156006	-0.291748	0.447266
825.0	3.63487	-10.834067	12.079489	-0.99081	2.231623	0.609656	-0.15332	-0.302734	0.453857
826.0	5.128215	-8.655019	10.773717	-0.615555	2.705273	0.805298	-0.155273	-0.307129	0.462402
827.0	6.443925	-6.088028	10.061478	-0.514809	3.288779	1.186634	-0.157471	-0.307129	0.462402
828.0	6.789614	-4.489245	9.356386	-0.665016	3.874965	1.678	-0.176758	-0.315918	0.473389
829.0	6.174654	-4.026883	8.21073	-0.929789	4.320294	2.116058	-0.194336	-0.30957	0.475342
830.0	5.9971	-4.054452	7.181019	-1.129102	4.586323	2.426824	-0.225098	-0.303223	0.477539
831.0	6.98686	-3.870725	6.551963	-1.228921	4.75981	2.635725	-0.260254	-0.294678	0.475342
832.0	8.081161	-3.310612	5.855655	-1.274907	4.928206	2.813035	-0.293701	-0.275635	0.475098
833.0	8.972584	-2.819464	5.719425	-1.410304	5.07448	3.005456	-0.320801	-0.247559	0.466309
834.0	9.528096	-3.406899	5.13645	-1.475049	5.1636	3.196255	-0.352783	-0.213379	0.474609
835.0	10.543224	-2.929885	4.991176	-1.472126	5.218439	3.319341	-0.382324	-0.177002	0.483154
836.0	11.869928	-1.921736	4.945558	-1.591132	5.192029	3.428964	-0.412109	-0.136719	0.506592
837.0	12.88869	-1.474066	4.478978	-1.900064	5.077509	3.452972	-0.448242	-0.102783	0.530273
838.0	13.639818	-1.753911	4.069225	-2.226857	4.919592	3.427321	-0.499512	-0.068848	0.5625
839.0	13.787046	-1.927302	4.308515	-2.434345	4.685622	3.335605	-0.562012	-0.032959	0.583984
840.0	14.112658	-2.329598	4.608993	-2.62658	4.351544	3.175267	-0.633301	0.009766	0.590088
841.0	15.984363	-2.490414	4.813806	-2.836247	4.029712	2.944136	-0.69751	0.039795	0.589844
842.0	19.546834	-0.852785	4.801852	-3.183005	3.921374	2.751096	-0.759521	0.067627	0.567871
843.0	21.87117	1.17891	3.451855	-3.762583	3.857146	2.833853	-0.817383	0.0979	0.537354
844.0	21.022454	1.384334	1.670697	-4.281175	3.498157	3.097835	-0.868896	0.130615	0.493652
845.0	19.17006	1.908908	-0.05189	-4.275564	2.735248	3.314419	-0.904785	0.158936	0.45874
846.0	20.639553	3.542389	-1.535523	-3.894187	1.915045	3.368413	-0.934326	0.1875	0.410889
847.0	24.249968	7.772875	-2.277798	-3.383604	1.513522	3.382246	-0.94458	0.222412	0.365234
848.0	25.533567	10.996033	-3.18489	-3.051904	1.464029	3.418115	-0.952637	0.263916	0.31958
849.0	24.283606	10.925498	-5.342797	-2.572009	1.606701	3.269933	-0.94751	0.294922	0.267334
850.0	23.662452	11.037082	-7.874797	-1.680996	1.881827	2.910661	-0.938232	0.332031	0.219482
851.0	22.108935	12.505927	-9.653082	-0.651345	2.15265	2.519548	-0.921875	0.356445	0.18042
852.0	17.611732	15.534049	-10.786999	0.014806	1.947137	2.062633	-0.909668	0.378418	0.141357
853.0	14.692512	17.957811	-11.634045	0.122028	1.009315	1.382832	-0.892822	0.389648	0.119629
854.0	16.352583	19.300667	-12.039127	-0.167001	-0.088083	0.755872	-0.880371	0.406738	0.117432
855.0	17.281522	17.545585	-10.986652	-0.287663	-0.859052	0.317539	-0.88501	0.415283	0.128174
856.0	17.042357	10.966018	-10.190138	0.145063	-1.277882	-0.112723	-0.889404	0.415283	0.123779
857.0	19.213506	4.872271	-8.983232	4.641664	-0.650547	-1.553025	-0.893311	0.406738	0.121582
858.0	-2.816159	-1.742213	25.415433	4.208105	-1.943238	-2.238032	-0.901367	0.386963	0.141357
859.0	-1.663693	-15.7068	14.058134	3.065463	-3.203244	-3.366265	-0.915771	0.369629	0.160889
860.0	23.514604	10.69108	-2.609233	3.07443	-3.380811	-3.708986	-0.919189	0.3479	0.173828
861.0	17.138349	11.782444	5.061181	2.860143	-2.946969	-2.117262	-0.925537	0.343018	0.202148
862.0	14.409107	2.697609	6.659914	2.616459	-2.778989	-1.476933	-0.929688	0.334473	0.210938
863.0	15.466001	6.807867	6.304372	2.323487	-2.423181	-1.617797	-0.935791	0.329834	0.230225
864.0	30.772419	9.174038	4.442438	1.214008	-1.099213	-1.531648	-0.939941	0.319092	0.230469
865.0	24.489536	-1.167382	2.477253	0.173467	1.327665	-1.101832	-0.933105	0.310791	0.210938
866.0	-2.39545	-3.793749	8.37032	1.054888	0.316544	-1.224957	-0.939209	0.299805	0.213135
867.0	13.380507	2.497821	6.231811	0.489318	0.069899	-1.083042	-0.938965	0.293457	0.210938
868.0	8.900355	-2.411448	5.69788	0.485681	0.298366	-0.832022	-0.942871	0.282715	0.213135
869.0	8.997655	-0.512152	6.035108	0.447591	0.310685	-0.811153	-0.942627	0.276123	0.211182
870.0	8.595801	0.320319	6.722998	0.40235	0.327665	-0.640545	-0.94458	0.271973	0.206787
871.0	7.991526	0.045204	6.768171	0.291608	0.227267	-0.485181	-0.946777	0.269775	0.206787
872.0	8.376527	-1.027657	6.314147	0.192335	0.161818	-0.387387	-0.944336	0.265625	0.206787
873.0	7.991846	-0.989638	6.206296	0.175406	0.131574	-0.33027	-0.946289	0.26123	0.20459
874.0	8.254464	-1.452466	5.923176	0.110042	0.090923	-0.288053	-0.948486	0.26123	0.198242
875.0	8.215571	-1.848372	5.827929	0.088188	0.088425	-0.314902	-0.950439	0.254639	0.206787
876.0	8.172952	-1.367508	6.058656	0.084765	0.086731	-0.322303	-0.950439	0.25708	0.200439
877.0	7.90945	-0.693626	6.252749	0.065961	0.047219	-0.278468	-0.946045	0.250732	0.196045
878.0	8.157521	-0.906142	6.059376	0.032998	0.005733	-0.239698	-0.950195	0.250488	0.200439
879.0	8.088261	-1.211512	5.871471	0.004692	0.005758	-0.229038	-0.947754	0.244141	0.200439
880.0	8.207199	-1.675819	5.61052	-0.063958	0.070006	-0.253417	-0.945801	0.248535	0.198242
881.0	8.480943	-1.901903	5.205401	-0.117912	0.174081	-0.282908	-0.947998	0.244141	0.193848
882.0	8.339576	-1.992065	5.376491	-0.119121	0.267697	-0.316801	-0.945557	0.241943	0.202637
883.0	8.363247	-2.07858	5.255335	-0.057073	0.342346	-0.334889	-0.94751	0.237793	0.198242
884.0	8.174027	-2.099586	5.30892	-0.005401	0.410109	-0.351706	-0.945313	0.235596	0.189697
885.0	8.052908	-1.786079	5.393087	0.033048	0.438105	-0.358347	-0.947266	0.229248	0.189697
886.0	8.327561	-1.242387	5.651513	0.057127	0.459818	-0.364746	-0.942871	0.229248	0.189697
887.0	7.758447	-1.072798	6.178815	0.087987	0.488729	-0.352576	-0.947021	0.220703	0.185303
888.0	7.826805	-0.714071	6.222694	0.109949	0.436988	-0.334613	-0.947021	0.21875	0.174561
889.0	7.75548	-0.655804	6.417791	0.119361	0.39069	-0.295969	-0.942627	0.220703	0.174561
890.0	7.712139	-0.801759	6.362796	0.131537	0.346243	-0.285652	-0.946777	0.216553	0.174561
891.0	7.633269	-0.951948	6.399764	0.134069	0.292765	-0.278896	-0.939941	0.208008	0.166016
892.0	7.82263	-0.955067	6.293771	0.124432	0.245604	-0.292057	-0.948975	0.212402	0.165771
893.0	7.653001	-0.953105	6.376215	0.133125	0.215651	-0.306731	-0.939941	0.205811	0.174561
894.0	7.675297	-0.69978	6.356697	0.119463	0.147079	-0.312124	-0.946289	0.20166	0.166016
895.0	7.672102	-0.422991	6.615506	0.080937	0.10046	-0.332154	-0.941895	0.199463	0.166016
896.0	7.400959	0.108295	6.436734	0.02797	0.001572	-0.344565	-0.946289	0.199219	0.17041
897.0	7.537632	-1.764815	7.356151	0.046142	-0.015653	-0.35633	-0.945801	0.190674	0.168213
898.0	7.150245	-0.572008	7.339061	0.09919	-0.200334	-0.41952	-0.941406	0.188721	0.17041
899.0	7.380641	-1.294727	7.591363	0.199356	-0.296065	-0.419163	-0.941406	0.186279	0.178955
900.0	6.860732	-0.984951	8.329794	0.277865	-0.494248	-0.470156	-0.940918	0.177734	0.177002
901.0	7.353961	-1.24588	8.214303	0.287899	-0.732608	-0.518515	-0.940918	0.175537	0.18335
902.0	6.999964	-1.462797	8.517775	0.301987	-0.954572	-0.624874	-0.934082	0.171143	0.189941
903.0	7.03534	-1.38719	8.616807	0.311889	-1.230856	-0.742922	-0.929443	0.164551	0.200928
904.0	7.014606	-1.453417	8.603543	0.308872	-1.512635	-0.877863	-0.929199	0.155762	0.21167
905.0	7.000735	-2.103301	8.457073	0.418992	-1.811956	-1.01602	-0.931152	0.14917	0.220459
906.0	6.876545	-2.443964	8.346957	0.620796	-2.136591	-1.16979	-0.924072	0.140381	0.23999
907.0	6.797271	-2.590016	8.275456	0.810343	-2.49279	-1.349494	-0.915039	0.131592	0.261719
908.0	6.868989	-2.951769	9.011295	0.986923	-2.922094	-1.520637	-0.908203	0.124756	0.283447
909.0	6.651463	-4.248975	9.649287	1.075738	-3.520873	-1.723437	-0.898926	0.11377	0.311768
910.0	6.89068	-6.429617	8.560541	1.182729	-4.227147	-2.059644	-0.881104	0.102783	0.335693
911.0	5.784701	-6.720973	9.528199	1.401265	-4.989707	-2.618226	-0.864746	0.076416	0.372559
912.0	4.879851	-7.290765	11.446156	1.115749	-6.068127	-3.155546	-0.842285	0.062744	0.427002
913.0	4.748229	-8.262076	12.523899	0.665092	-7.369122	-3.877019	-0.809082	0.045166	0.474854
914.0	6.330958	-5.236911	7.566293	0.601935	-8.383247	-4.890154	-0.768555	0.018799	0.53125
915.0	16.013049	4.19079	5.359046	1.443123	-8.267942	-5.439963	-0.713379	-0.001221	0.587891
916.0	27.700951	8.169366	3.040373	1.241786	-7.644255	-5.323997	-0.653564	-0.025146	0.622803
917.0	33.686701	4.739732	2.166793	0.338358	-6.554208	-4.88346	-0.596191	-0.044678	0.648926
918.0	28.14715	-4.249955	1.201524	0.263551	-4.932993	-4.644557	-0.530029	-0.066162	0.664307
919.0	25.939356	-10.580939	3.687844	1.782181	-3.356229	-4.321763	-0.475098	-0.07666	0.673096
920.0	22.33736	-10.899482	8.844878	3.356039	-1.884588	-3.236056	-0.423096	-0.070313	0.681885
921.0	14.41251	-9.408772	14.698729	4.140615	-0.733086	-1.87387	-0.373291	-0.065918	0.688477
922.0	14.404445	-8.783278	13.032852	2.69845	-0.471499	-0.776108	-0.331787	-0.067871	0.688477
923.0	6.868739	-11.480773	12.839817	2.118996	0.285425	-0.011352	-0.30127	-0.067627	0.686523
924.0	7.310357	-3.836984	13.826289	1.006905	0.421297	0.923636	-0.283203	-0.08252	0.684326
925.0	5.299318	-5.526719	14.33996	0.427328	1.053465	1.562874	-0.256592	-0.097412	0.673584
926.0	2.494981	-5.906723	13.436939	0.011943	1.287873	1.778669	-0.251709	-0.112549	0.676025
927.0	2.99961	-4.794569	11.565917	-0.366857	1.602668	1.721887	-0.241943	-0.142334	0.663086
928.0	5.093364	-3.491961	10.252438	-0.781129	2.181822	1.750135	-0.240723	-0.174561	0.652344
929.0	6.213429	-2.307373	9.409001	-1.1817	2.8943	1.961698	-0.254883	-0.200195	0.630859
930.0	5.339362	-1.862902	8.422119	-1.521086	3.448077	2.256657	-0.270996	-0.232178	0.609375
931.0	4.9171	-1.956745	7.735368	-1.727434	3.713439	2.574695	-0.285156	-0.261719	0.574707
932.0	5.818475	-2.192103	7.122755	-1.766158	3.822084	2.896711	-0.306152	-0.289551	0.548828
933.0	6.593382	-2.330006	6.683363	-1.597438	3.991534	3.212328	-0.327148	-0.308594	0.518555
934.0	7.815179	-1.779441	6.827928	-1.4885	4.133494	3.540179	-0.359375	-0.323242	0.483887
935.0	8.376717	-1.826322	6.439558	-1.340481	4.294981	3.791632	-0.380615	-0.337891	0.444824
936.0	9.175263	-1.506583	6.45626	-1.185887	4.429836	3.87483	-0.411133	-0.3396	0.410156
937.0	10.7416	-0.35027	6.442771	-1.145318	4.584649	3.838434	-0.435059	-0.339355	0.373291
938.0	11.737244	0.327735	6.399593	-1.230421	4.768049	3.730767	-0.467529	-0.343262	0.349365
939.0	12.741093	1.278556	6.23608	-1.451831	4.908453	3.55089	-0.489746	-0.338623	0.310303
940.0	13.451748	1.229128	5.855341	-1.799502	4.978775	3.417215	-0.516357	-0.325439	0.277832
941.0	13.447595	1.051956	5.859612	-2.105167	4.908157	3.241907	-0.540771	-0.314209	0.238525
942.0	14.118708	0.872659	5.687799	-2.405447	4.616973	3.102237	-0.561768	-0.283691	0.208008
943.0	15.217219	-0.040806	5.293272	-2.654094	4.262477	2.891088	-0.584473	-0.259766	0.17334
944.0	17.185509	-0.247268	5.250347	-2.905853	3.963446	2.596678	-0.603027	-0.231445	0.142822
945.0	20.18813	1.752343	4.625096	-3.287619	3.776002	2.454246	-0.621826	-0.196533	0.110107
946.0	20.824146	3.432052	3.275436	-3.902425	3.410701	2.642367	-0.636475	-0.155518	0.088135
947.0	20.179345	3.15559	0.916419	-4.287057	2.717081	2.930641	-0.64209	-0.126953	0.05542
948.0	20.373362	2.680821	-1.518939	-4.037374	2.053286	2.997547	-0.643799	-0.08374	0.040039
949.0	21.169193	5.784818	-2.359335	-3.384272	1.712353	2.819381	-0.651611	-0.049316	0.024658
950.0	22.207736	10.886111	-2.18887	-3.001912	1.598621	2.566748	-0.656982	-0.023438	0.020264
951.0	22.338416	13.487569	-2.71888	-2.932452	1.607952	2.368764	-0.653809	0.006836	0.009277
952.0	21.532375	12.220473	-5.144154	-2.607773	1.730001	2.12586	-0.652588	0.030762	0.002686
953.0	21.623727	11.547648	-7.916445	-1.722414	1.985053	1.865058	-0.651367	0.050293	-0.008301
954.0	18.900174	13.075917	-9.595001	-0.710622	2.142745	1.622178	-0.643066	0.06543	-0.023682
955.0	13.353205	15.803056	-10.117892	-0.170517	1.505774	1.128058	-0.643311	0.072021	-0.021484
956.0	14.105355	17.510845	-11.022547	-0.163323	0.295872	0.472441	-0.643799	0.08252	-0.01709
957.0	17.608349	16.790492	-10.886517	-0.221425	-0.567028	0.099279	-0.641602	0.08252	-0.014893
958.0	17.130783	13.773997	-9.111542	0.074204	-1.025616	-0.127773	-0.652588	0.08252	-0.006348
959.0	16.567642	6.574448	-8.500039	0.893718	-1.262068	-0.441618	-0.649658	0.064941	0.009033
960.0	18.457625	1.801592	6.41382	5.386905	-0.191505	-1.536428	-0.644531	0.047852	0.013428
961.0	-7.492129	-14.072032	29.793557	2.598943	-1.734163	-1.554437	-0.644043	0.034668	0.030762
962.0	-10.34021	-21.047002	6.617029	2.958519	-2.644875	-3.977103	-0.649414	0.00415	0.054688
963.0	33.265427	13.321529	-2.100346	2.749465	-2.813834	-3.171151	-0.644043	-0.017578	0.078613
964.0	12.912051	8.415089	3.886118	2.937407	-2.061185	-1.7062	-0.650146	-0.026611	0.102539
965.0	13.241685	0.859296	7.661917	2.560892	-2.42225	-1.158563	-0.643311	-0.037598	0.120117
966.0	9.077648	3.630287	7.344325	2.372674	-2.230176	-1.368116	-0.64502	-0.048584	0.137451
967.0	13.420565	7.070607	6.279212	1.941612	-1.967787	-1.508016	-0.637939	-0.057373	0.156982
968.0	29.699589	7.200515	3.750975	0.982837	-0.914309	-1.282416	-0.639893	-0.063965	0.163574
969.0	19.095598	-4.097793	3.342104	0.713946	1.031136	-0.966448	-0.635254	-0.074463	0.152588
970.0	1.001078	-0.175268	8.947687	0.856166	0.222085	-1.087625	-0.633057	-0.07666	0.152832
971.0	12.704794	3.132577	6.325136	0.477896	0.034469	-0.845816	-0.634766	-0.085205	0.152832
972.0	8.404138	-1.190642	6.479053	0.437677	0.137738	-0.488314	-0.630615	-0.083252	0.152832
973.0	8.79151	-0.630835	6.074622	0.322837	0.065917	-0.460975	-0.630371	-0.089844	0.161377
974.0	8.678401	-1.453194	5.779351	0.300383	0.119162	-0.374103	-0.630371	-0.0896	0.15918
975.0	8.127094	-1.151253	6.178867	0.24852	0.107698	-0.341528	-0.625732	-0.091797	0.159424
976.0	8.429517	-1.623495	5.733653	0.162527	0.112096	-0.309837	-0.625732	-0.091797	0.159424
977.0	8.336773	-2.00271	5.63518	0.132395	0.131517	-0.313273	-0.618896	-0.100342	0.152832
978.0	8.225345	-1.689689	5.534283	0.100129	0.13913	-0.317656	-0.621338	-0.098145	0.155029
979.0	8.343813	-2.027355	5.426064	0.057633	0.148544	-0.32338	-0.625488	-0.100342	0.157227
980.0	8.129806	-1.694345	5.695328	0.058032	0.162117	-0.340082	-0.623047	-0.106934	0.157227
981.0	8.017245	-0.602907	6.154218	0.047794	0.139743	-0.314371	-0.623047	-0.106689	0.150635
982.0	8.025551	-0.956792	5.994587	0.015067	0.101754	-0.273577	-0.623047	-0.106689	0.152832
983.0	8.108943	-1.453244	5.826699	-0.039398	0.119899	-0.276534	-0.623047	-0.108887	0.150635
984.0	8.319825	-1.405677	5.564478	-0.121746	0.190576	-0.315787	-0.62085	-0.106689	0.146484
985.0	8.321474	-1.559154	5.591544	-0.187762	0.287232	-0.338681	-0.618408	-0.113281	0.148682
986.0	8.261609	-1.84981	5.479084	-0.207746	0.349849	-0.347417	-0.616211	-0.113037	0.14209
987.0	8.307485	-1.911323	5.49145	-0.184733	0.384318	-0.359058	-0.616211	-0.117432	0.14209
988.0	8.150472	-1.756413	5.557733	-0.132544	0.415548	-0.357925	-0.615967	-0.119385	0.139893
989.0	8.028462	-1.558623	5.719043	-0.084222	0.420877	-0.341595	-0.61377	-0.125732	0.133545
990.0	8.020232	-1.226425	5.964672	-0.046295	0.411303	-0.322735	-0.615967	-0.121582	0.131348
991.0	7.935575	-1.054891	6.157744	-0.008456	0.373638	-0.297686	-0.61377	-0.125977	0.135742
992.0	7.811588	-0.779576	6.353546	0.016727	0.330391	-0.26575	-0.611572	-0.123535	0.12915
993.0	7.758464	-0.800643	6.283352	0.025174	0.277299	-0.246103	-0.607178	-0.123535	0.126953
994.0	7.852849	-0.765757	6.356752	0.024267	0.233873	-0.211632	-0.611328	-0.129883	0.122803
995.0	7.683061	-1.279959	6.216941	0.026405	0.174399	-0.204409	-0.60498	-0.125732	0.12915
996.0	7.820101	-1.089206	6.287098	0.039966	0.113878	-0.223685	-0.609131	-0.130127	0.12915
997.0	7.70779	-1.391554	6.291386	0.035875	0.057099	-0.240256	-0.600586	-0.127686	0.122803
998.0	7.701488	-1.492171	6.404073	0.045469	0.001312	-0.28997	-0.606689	-0.136475	0.12915
999.0	7.561999	-1.147011	6.03197	0.064716	-0.088437	-0.349043	-0.600098	-0.138672	0.12915
1000.0	8.180157	-2.406036	6.942239	0.13397	-0.123574	-0.387153	-0.604492	-0.138672	0.12915
1001.0	6.771557	-1.365337	7.477311	0.182349	-0.227989	-0.544903	-0.599854	-0.14502	0.131348
1002.0	7.836801	-2.206217	7.285005	0.330171	-0.412621	-0.576536	-0.597412	-0.149414	0.133545
1003.0	7.062281	-1.514067	7.840252	0.402221	-0.563157	-0.708058	-0.599609	-0.153809	0.142334
1004.0	7.52433	-1.03679	7.969417	0.424448	-0.81856	-0.748753	-0.60376	-0.156006	0.146729
1005.0	7.182311	-0.779548	8.343441	0.401534	-1.044796	-0.777133	-0.601318	-0.162598	0.155273
1006.0	7.106151	-0.97148	8.34516	0.393644	-1.330287	-0.823981	-0.596924	-0.165039	0.164063
1007.0	6.861615	-1.019835	8.391185	0.386239	-1.61017	-0.900192	-0.590088	-0.171631	0.181396
1008.0	6.924564	-1.251347	8.199118	0.475023	-1.917025	-0.996804	-0.589844	-0.176025	0.187988
1009.0	6.763245	-1.420094	8.249015	0.610336	-2.224952	-1.10437	-0.589355	-0.187012	0.20752
1010.0	6.767675	-2.20451	8.280512	0.783028	-2.582643	-1.231557	-0.584717	-0.193848	0.233643
1011.0	6.84774	-2.880529	9.382183	0.938342	-3.010989	-1.402531	-0.573242	-0.204834	0.253174
1012.0	6.515127	-4.709882	9.660333	0.96816	-3.648857	-1.610812	-0.568848	-0.209473	0.285645
1013.0	6.338785	-6.863096	9.021329	1.187129	-4.414807	-2.032139	-0.553223	-0.216309	0.316162
1014.0	5.192053	-7.126621	10.739633	1.20749	-5.339398	-2.596892	-0.539063	-0.238281	0.359619
1015.0	3.832897	-8.472898	12.729492	0.778606	-6.712625	-3.16675	-0.512451	-0.253906	0.400879
1016.0	4.353191	-7.02467	12.367072	0.35094	-8.16615	-3.982534	-0.476807	-0.269531	0.450928
1017.0	9.375906	-1.082929	7.268936	0.667337	-9.084189	-4.747419	-0.432129	-0.293701	0.503174
1018.0	21.982872	5.303534	3.281611	0.899178	-8.738948	-4.999354	-0.383301	-0.317871	0.546631
1019.0	33.950599	7.884561	0.371875	0.175084	-7.770764	-4.839608	-0.330322	-0.333008	0.579346
1020.0	30.791908	0.771168	-0.324237	-0.322324	-6.116353	-4.52538	-0.290771	-0.34375	0.592529
1021.0	29.146307	-8.375675	0.76807	0.967449	-4.183738	-4.334212	-0.259766	-0.359131	0.616455
1022.0	26.29163	-11.49301	6.387127	2.914946	-2.271419	-3.62441	-0.236084	-0.35083	0.640381
1023.0	15.171052	-10.9959	13.661658	4.443222	-0.746341	-2.47576	-0.227783	-0.338135	0.670654
1024.0	11.208635	-4.510908	17.379417	3.149103	-0.574108	-1.717522	-0.219238	-0.327637	0.692139
1025.0	9.205966	-11.275047	12.153165	2.102873	-0.074944	-0.912457	-0.217285	-0.323486	0.696533
1026.0	4.830016	-7.868114	14.573413	1.221586	0.209644	-0.221877	-0.219482	-0.321533	0.71167
1027.0	6.945238	-5.89672	13.718546	0.314935	0.614666	0.520958	-0.226074	-0.31958	0.716064
1028.0	5.224975	-7.234678	13.574815	0.131406	1.259329	1.042511	-0.243652	-0.315186	0.718018
1029.0	3.512579	-7.664423	12.34763	0.040989	1.714771	1.281462	-0.26123	-0.313232	0.720215
1030.0	3.933735	-6.081362	10.94277	-0.094455	2.167712	1.410829	-0.285156	-0.311279	0.722412
1031.0	5.426089	-4.36591	10.188701	-0.30927	2.695376	1.63251	-0.304932	-0.309082	0.71582
1032.0	6.400504	-3.178645	9.259832	-0.588955	3.2487	1.968222	-0.339844	-0.304932	0.71582
1033.0	6.326912	-2.847111	8.212933	-0.859916	3.708396	2.277032	-0.377197	-0.29834	0.702637
1034.0	6.827931	-2.862982	7.479047	-1.015857	4.031747	2.502499	-0.416504	-0.293945	0.685303
1035.0	7.877956	-2.776766	6.645881	-1.04681	4.342563	2.688535	-0.449707	-0.283203	0.667725
1036.0	8.188112	-2.308308	6.224941	-0.984575	4.669306	2.860698	-0.493896	-0.270264	0.652344
1037.0	8.801504	-1.862049	6.235791	-1.090001	4.842646	3.021135	-0.533447	-0.259277	0.626221
1038.0	9.431986	-2.304645	5.573872	-1.18026	4.931661	3.109611	-0.586426	-0.239746	0.602295
1039.0	10.062723	-1.822317	5.316315	-1.171336	5.00251	3.101808	-0.621826	-0.230957	0.576172
1040.0	10.907889	-1.034587	5.217465	-1.26084	4.974462	3.058306	-0.673096	-0.202637	0.534668
1041.0	12.230655	-1.001414	4.726944	-1.467397	4.907689	2.993505	-0.706543	-0.182861	0.493408
1042.0	12.846538	-1.202307	4.325837	-1.625649	4.856537	2.940758	-0.742188	-0.162842	0.445557
1043.0	13.033801	-1.333601	4.530895	-1.775997	4.730531	2.933321	-0.773926	-0.134277	0.393311
1044.0	13.230964	-1.971504	4.749808	-1.930592	4.465853	2.920201	-0.790283	-0.105713	0.343262
1045.0	14.291061	-2.427549	5.032709	-2.102501	4.117637	2.852652	-0.804443	-0.079102	0.284668
1046.0	17.226716	-1.71971	4.992749	-2.327997	3.899442	2.776482	-0.819092	-0.044189	0.232422
1047.0	19.267461	0.052676	4.255484	-2.753281	3.792111	2.858096	-0.815674	-0.021973	0.182373
1048.0	19.882161	-0.041166	2.712124	-3.282965	3.484034	3.094465	-0.819336	0.010986	0.136719
1049.0	19.798487	-0.707804	1.130545	-3.437292	2.999879	3.313515	-0.816162	0.043945	0.093262
1050.0	19.528125	-0.288881	-0.011657	-3.153021	2.351744	3.415004	-0.80249	0.080811	0.062744
1051.0	21.755213	2.511209	-0.580644	-2.677954	1.849472	3.442402	-0.803467	0.104736	0.04541
1052.0	22.867608	8.633146	-0.193299	-2.522785	1.571637	3.394909	-0.795898	0.135254	0.023438
1053.0	23.892439	11.954958	-1.273605	-2.823034	1.481556	3.257288	-0.786377	0.165771	0.003906
1054.0	23.757209	13.256523	-3.688414	-2.993153	1.612671	2.999184	-0.778564	0.191895	-0.017822
1055.0	22.245645	12.910872	-6.675594	-2.694199	1.896552	2.544969	-0.775391	0.217773	-0.026855
1056.0	21.242343	13.789927	-9.36124	-2.014985	2.125641	2.033698	-0.765137	0.233154	-0.050537
1057.0	20.091444	15.670958	-11.206906	-1.290529	2.17534	1.622928	-0.752441	0.242188	-0.068115
1058.0	15.124454	17.075404	-11.901047	-0.715556	1.785783	1.216037	-0.748535	0.255127	-0.07666
1059.0	11.651018	17.355203	-12.175616	-0.292305	0.591225	0.444341	-0.748779	0.257324	-0.083252
1060.0	16.339271	17.707026	-11.610535	-0.052166	-0.495532	-0.264846	-0.750732	0.255127	-0.081055
1061.0	18.336406	13.097045	-9.99494	0.365873	-0.931504	-0.565522	-0.758789	0.23999	-0.074463
1062.0	19.42126	3.941969	-4.344415	4.80735	-0.28047	-1.734753	-0.757813	0.214111	-0.074463
1063.0	-3.932868	-4.796067	32.641539	3.225921	-1.638641	-1.781431	-0.765625	0.190186	-0.056885
1064.0	-12.835111	-21.468022	12.497812	2.219194	-2.890115	-4.043248	-0.772705	0.148926	-0.035156
1065.0	29.725826	11.309465	-2.904904	2.208238	-3.232079	-3.595211	-0.788818	0.114258	-0.017578
1066.0	15.803047	11.702136	3.336016	2.455385	-2.514273	-2.075021	-0.79248	0.098877	0.008545
1067.0	15.533442	0.823407	7.616424	2.048647	-2.720118	-1.328524	-0.79834	0.081543	0.023682
1068.0	10.284217	3.187292	7.270222	1.817327	-2.406237	-1.527945	-0.802002	0.065918	0.049805
1069.0	14.500676	3.927497	4.701156	1.615857	-2.13398	-1.454133	-0.796875	0.048584	0.062988
1070.0	26.313591	1.801204	2.429838	1.190958	-1.134781	-1.141542	-0.798828	0.044189	0.071533
1071.0	25.837734	-2.543391	1.537619	0.343799	1.05321	-1.02088	-0.796387	0.033691	0.060791
1072.0	-2.044514	-3.770399	7.676716	1.134399	0.474407	-1.242082	-0.795898	0.022949	0.058838
1073.0	12.266472	2.933175	6.747547	0.518397	0.018861	-1.156618	-0.793457	0.01416	0.063232
1074.0	9.978681	-1.420702	5.844911	0.50313	0.30856	-0.794231	-0.791016	0.005615	0.056641
1075.0	8.243447	-0.841656	6.362251	0.441961	0.269771	-0.768763	-0.790771	0.001465	0.056641
1076.0	9.012691	0.26414	6.876014	0.351082	0.257864	-0.606016	-0.794922	-0.000732	0.054443
1077.0	8.279552	0.217086	6.716352	0.291925	0.208035	-0.454429	-0.785889	-0.009277	0.054688
1078.0	8.130731	-0.913867	6.410399	0.205958	0.14987	-0.339057	-0.790283	-0.009277	0.054688
1079.0	8.134309	-1.936987	5.902791	0.149454	0.124989	-0.32567	-0.785889	-0.013672	0.054688
1080.0	8.2298	-1.544615	6.036696	0.127862	0.138638	-0.341373	-0.790039	-0.015625	0.05249
1081.0	8.108266	-1.095184	5.964819	0.095838	0.146859	-0.32276	-0.785645	-0.02002	0.050293
1082.0	8.066889	-0.85143	5.946599	0.049951	0.124927	-0.289882	-0.785645	-0.02002	0.05249
1083.0	8.023635	-1.561781	5.856287	0.028855	0.130838	-0.26465	-0.7854	-0.022217	0.05249
1084.0	8.256534	-1.493807	5.698864	0.01841	0.134149	-0.258801	-0.785156	-0.030762	0.043945
1085.0	7.895197	-1.285467	5.822714	0.018689	0.147871	-0.258357	-0.787354	-0.032959	0.048096
1086.0	7.978756	-0.943476	5.908555	0.008625	0.158048	-0.237963	-0.787598	-0.02417	0.043701
1087.0	7.897525	-0.603777	6.0726	-0.05832	0.17566	-0.225618	-0.782715	-0.034912	0.046143
1088.0	7.980822	-1.039295	5.973414	-0.129035	0.24737	-0.216017	-0.780762	-0.034912	0.043945
1089.0	7.943782	-1.058499	5.912587	-0.173963	0.287049	-0.202007	-0.784912	-0.036865	0.035156
1090.0	8.064757	-1.082821	5.919866	-0.162734	0.301165	-0.174959	-0.785156	-0.032715	0.035156
1091.0	8.079785	-1.900696	5.615315	-0.162345	0.326543	-0.176785	-0.782715	-0.036865	0.028809
1092.0	8.084221	-2.245705	5.448067	-0.150164	0.370123	-0.199963	-0.780518	-0.039063	0.032959
1093.0	8.319308	-2.094396	5.420431	-0.110429	0.382956	-0.231407	-0.778076	-0.043457	0.031006
1094.0	8.035216	-2.276694	5.586951	-0.06339	0.402393	-0.258517	-0.780518	-0.039063	0.028809
1095.0	8.121062	-1.837739	5.607776	-0.023799	0.377247	-0.265222	-0.773926	-0.041016	0.022217
1096.0	7.779982	-1.623089	6.032402	-0.014751	0.399752	-0.278625	-0.780273	-0.047607	0.022217
1097.0	7.780739	-1.696696	5.93394	-0.001056	0.352056	-0.281244	-0.77124	-0.051758	0.018066
1098.0	7.608505	-1.093055	6.182233	0.054514	0.313394	-0.279505	-0.77124	-0.051758	0.018066
1099.0	7.534612	-0.863092	6.4585	0.058404	0.253776	-0.275321	-0.777832	-0.053955	0.015869
1100.0	7.378477	-0.782237	6.498918	0.033979	0.203463	-0.273697	-0.773438	-0.051758	0.011475
1101.0	7.401214	-0.603456	6.605344	0.012172	0.123989	-0.270032	-0.770996	-0.060303	0.013672
1102.0	7.490001	-0.853618	6.664421	0.017342	0.045714	-0.226338	-0.773438	-0.051758	0.013672
1103.0	7.364549	-0.560139	6.808012	0.027957	-0.025901	-0.194999	-0.770996	-0.060303	0.011475
1104.0	7.492985	-0.768524	7.03967	0.021847	-0.097478	-0.215298	-0.772949	-0.064697	0.015869
1105.0	7.538322	-1.092993	7.135138	-0.014497	-0.18348	-0.245896	-0.772949	-0.066895	0.015869
1106.0	7.364111	-0.825674	7.657902	-0.016279	-0.308324	-0.319947	-0.772949	-0.066895	0.020264
1107.0	7.259024	-0.322279	8.458916	-0.022784	-0.53834	-0.372683	-0.768311	-0.071045	0.022461
1108.0	5.879976	-1.663883	9.857949	0.054731	-0.654381	-0.480057	-0.774658	-0.075684	0.028809
1109.0	7.14504	-2.350046	9.423044	0.207915	-1.096757	-0.564047	-0.772461	-0.077881	0.039795
1110.0	6.624687	-2.840049	9.751028	0.362117	-1.417263	-0.780491	-0.77002	-0.084473	0.050537
1111.0	6.591849	-1.863177	9.754749	0.356097	-1.892221	-0.980398	-0.773926	-0.097656	0.068115
1112.0	6.832201	-3.055951	9.006165	0.481322	-2.291145	-1.135469	-0.77124	-0.104248	0.085449
1113.0	6.573644	-4.215824	8.841803	0.730222	-2.721003	-1.316142	-0.775146	-0.117676	0.11377
1114.0	6.520254	-4.799019	9.63502	0.974446	-3.227094	-1.575345	-0.772217	-0.135254	0.144043
1115.0	6.67961	-6.445197	8.601696	1.201958	-3.833781	-1.859039	-0.764893	-0.152832	0.174561
1116.0	6.022025	-6.942062	9.305112	1.416243	-4.403548	-2.338094	-0.757813	-0.164063	0.213623
1117.0	4.546308	-6.899433	10.558075	1.525483	-5.296372	-2.861566	-0.745605	-0.194824	0.265869
1118.0	3.842849	-7.608709	12.060365	1.38194	-6.561063	-3.373275	-0.725098	-0.214844	0.317871
1119.0	2.901171	-9.038335	13.721314	0.906738	-8.116989	-4.081095	-0.695557	-0.24585	0.39624
1120.0	6.832954	-5.782748	9.638771	0.849959	-9.561422	-5.185767	-0.654541	-0.287598	0.463623
1121.0	19.060566	8.079613	4.183199	1.623223	-9.332269	-5.682036	-0.607422	-0.324707	0.526855
1122.0	33.701022	11.766768	2.686965	0.406577	-8.639969	-5.104385	-0.549316	-0.355225	0.568359
1123.0	30.596987	1.001126	0.478095	-0.351624	-7.145387	-4.61549	-0.500732	-0.376953	0.60083
1124.0	28.30861	-8.46558	-0.722027	1.06521	-5.091318	-4.533151	-0.460938	-0.390137	0.631348
1125.0	29.367451	-11.206332	6.090208	3.046049	-3.010904	-4.036268	-0.430176	-0.394775	0.659668
1126.0	20.654686	-11.78914	12.038336	4.567857	-0.930473	-2.813419	-0.417725	-0.380127	0.685547
1127.0	10.168583	-4.161265	17.965096	4.043208	0.071072	-2.039729	-0.404785	-0.373779	0.700684
1128.0	7.793418	-7.490818	14.363585	2.441757	0.306562	-1.340023	-0.39624	-0.367188	0.705078
1129.0	0.983858	-4.875273	16.426845	0.011149	0.185577	-0.75289	-0.398193	-0.373535	0.694336
1130.0	11.825683	-5.492931	13.708273	-0.868219	0.617408	0.547329	-0.402344	-0.37793	0.689941
1131.0	3.571638	-8.341047	14.118785	-1.092892	1.579105	1.008669	-0.41748	-0.38623	0.674805
1132.0	3.143992	-10.493437	12.107185	-0.731654	1.78046	1.184863	-0.433105	-0.375244	0.650879
1133.0	4.554141	-8.275964	10.880308	-0.428382	2.266837	1.286617	-0.448486	-0.37085	0.635742
1134.0	6.583391	-5.613377	10.147112	-0.405456	2.877383	1.565409	-0.474609	-0.372803	0.616211
1135.0	6.801494	-3.251586	9.827237	-0.597409	3.535995	2.069463	-0.499023	-0.364014	0.590088
1136.0	6.338525	-2.411997	8.897151	-0.972784	3.994026	2.571777	-0.523438	-0.35498	0.555176
1137.0	5.962845	-3.085743	7.326721	-1.241302	4.32243	2.924739	-0.552002	-0.350342	0.516113
1138.0	6.288515	-3.514842	6.413436	-1.29566	4.541046	3.104698	-0.572021	-0.336914	0.479248
1139.0	6.964906	-3.350952	5.68877	-1.169408	4.698174	3.17503	-0.596924	-0.319336	0.446533
1140.0	7.783686	-2.334436	6.278943	-1.160344	4.783735	3.254793	-0.619141	-0.305908	0.403076
1141.0	9.25461	-2.59372	5.805343	-1.251308	4.791135	3.407399	-0.641602	-0.292725	0.364014
1142.0	10.424773	-3.151655	5.155741	-1.211277	4.904462	3.497215	-0.657471	-0.274902	0.322754
1143.0	11.995199	-2.406175	4.822162	-1.152871	5.081021	3.529029	-0.667236	-0.25293	0.283691
1144.0	13.012556	-1.35243	4.736604	-1.349436	5.176151	3.563909	-0.680908	-0.237305	0.238037
1145.0	13.576241	-1.240282	4.726504	-1.744871	5.085134	3.623096	-0.688477	-0.215088	0.19458
1146.0	14.082657	-1.789148	4.646014	-2.102307	4.787825	3.655036	-0.698242	-0.190918	0.151123
1147.0	15.579536	-2.707273	4.383766	-2.355243	4.409448	3.636103	-0.705811	-0.166748	0.114014
1148.0	17.359597	-3.906995	4.323609	-2.471753	4.152438	3.431625	-0.704834	-0.138428	0.079102
1149.0	19.849154	-3.025552	4.695515	-2.649717	3.995896	3.101889	-0.712158	-0.118652	0.044434
1150.0	22.8157	0.371557	4.189267	-3.155036	3.883854	3.015017	-0.713379	-0.085938	0.009521
1151.0	22.906988	2.572774	2.617655	-4.087767	3.453703	3.23892	-0.714355	-0.065918	-0.031738
1152.0	20.884559	2.616308	0.405888	-4.724145	2.555016	3.492594	-0.714111	-0.016113	-0.055908
1153.0	19.538946	4.550429	-1.189891	-4.712975	1.453617	3.479489	-0.715088	0.01001	-0.071045
1154.0	21.776038	9.120239	-2.333335	-4.521534	0.545019	3.275887	-0.725586	0.051025	-0.082275
1155.0	25.72064	12.074878	-3.586932	-4.363298	0.300846	2.975308	-0.726563	0.081055	-0.088867
1156.0	26.81678	12.722901	-6.005127	-3.92078	0.699331	2.814633	-0.721436	0.113525	-0.095459
1157.0	23.687004	12.144714	-9.121024	-2.985467	1.265493	2.526146	-0.719971	0.133057	-0.108643
1158.0	21.264378	13.940353	-11.959222	-1.645965	1.626319	2.061677	-0.720947	0.156982	-0.121582
1159.0	20.423566	18.036711	-12.866883	-0.686607	1.702761	1.573171	-0.712891	0.172119	-0.134766
1160.0	18.797284	19.170579	-12.50613	-0.265414	1.481865	1.278939	-0.710693	0.174316	-0.143555
1161.0	15.157817	16.969742	-11.848989	0.327355	0.965048	0.883909	-0.704346	0.178955	-0.154297
1162.0	11.934423	14.776139	-10.188038	1.119779	0.057418	0.097281	-0.710938	0.176758	-0.149902
1163.0	14.535918	15.444166	-6.922995	1.762349	-0.758338	-0.531306	-0.717041	0.165771	-0.147705
1164.0	17.438729	4.21668	-4.213182	3.69264	-0.548173	-0.773125	-0.7229	0.146484	-0.147705
1165.0	15.549334	5.234968	24.166614	4.79858	-0.125488	-1.086121	-0.717529	0.122803	-0.143311
1166.0	-26.440302	-25.00396	31.067591	2.936073	-1.641613	-2.398538	-0.731201	0.08374	-0.12793
1167.0	-1.258155	-10.974278	0.326711	2.669711	-3.241534	-4.71154	-0.736084	0.044678	-0.097412
1168.0	39.153541	24.908811	-3.416092	2.827387	-2.866561	-3.778897	-0.739014	0.007813	-0.077637
1169.0	10.237747	5.835256	8.074349	2.466247	-2.065786	-1.671664	-0.749023	-0.011719	-0.0625
1170.0	13.901369	0.992267	7.60027	2.15703	-2.27248	-1.544071	-0.75293	-0.0271	-0.042725
1171.0	12.318376	3.173708	5.278745	2.060513	-2.047529	-1.554305	-0.75415	-0.046875	-0.018799
1172.0	18.911129	2.407324	4.131775	1.898794	-1.523698	-1.274898	-0.75415	-0.049316	-0.005859
1173.0	33.611555	8.339636	3.360149	0.145234	0.405055	-1.188942	-0.74707	-0.062012	-0.018799
1174.0	0.044949	-9.601223	6.015592	1.199461	0.863931	-1.036886	-0.742188	-0.074707	-0.018799
1175.0	8.410545	3.375585	8.469042	0.591978	-0.117237	-1.186739	-0.743896	-0.085693	-0.014404
1176.0	12.502812	0.627574	5.407135	0.486593	0.190977	-0.832756	-0.743652	-0.092041	-0.018555
1177.0	7.881998	-1.402275	6.513759	0.486276	0.248472	-0.679882	-0.739014	-0.102783	-0.018555
1178.0	8.793595	1.350541	7.148943	0.350231	0.15324	-0.515801	-0.737061	-0.098389	-0.016357
1179.0	8.311177	0.4115	6.795643	0.264421	0.093707	-0.308082	-0.743164	-0.10498	-0.01416
1180.0	8.130469	-0.671069	6.446263	0.160252	0.014039	-0.191153	-0.740967	-0.107178	-0.016357
1181.0	8.284734	-1.589475	6.086546	0.119231	0.005969	-0.155088	-0.739014	-0.102783	-0.01416
1182.0	7.989801	-2.135567	5.693659	0.093026	0.025276	-0.182087	-0.736572	-0.107178	-0.01416
1183.0	8.097149	-1.926042	5.687612	0.085414	0.041755	-0.227498	-0.734131	-0.113525	-0.020752
1184.0	8.142284	-1.129267	5.707514	0.066841	0.040504	-0.214696	-0.736328	-0.113525	-0.011963
1185.0	8.039512	-1.549699	5.600963	0.02535	0.025827	-0.186931	-0.736572	-0.111328	-0.016357
1186.0	8.254748	-2.344827	5.27113	0.015716	0.047064	-0.220031	-0.734131	-0.113525	-0.016357
1187.0	8.226256	-1.95826	5.384271	-0.000957	0.097909	-0.258504	-0.736328	-0.113525	-0.016357
1188.0	8.164174	-1.237327	5.5065	-0.085828	0.153528	-0.292611	-0.736572	-0.111328	-0.016357
1189.0	8.076524	-1.571302	5.605334	-0.179753	0.231184	-0.310453	-0.736084	-0.12207	-0.0271
1190.0	8.276286	-2.014428	5.397513	-0.202069	0.311586	-0.355494	-0.731689	-0.121826	-0.029297
1191.0	8.374997	-2.013893	5.195858	-0.217151	0.364766	-0.375294	-0.720703	-0.126221	-0.024902
1192.0	8.343745	-2.496631	5.109307	-0.209002	0.431998	-0.409929	-0.724854	-0.130615	-0.0271
1193.0	8.2759	-2.682625	5.041881	-0.132376	0.492975	-0.431446	-0.724854	-0.130371	-0.033447
1194.0	8.302916	-2.152326	5.354141	-0.061676	0.525838	-0.463679	-0.724854	-0.130371	-0.040039
1195.0	8.069165	-1.954524	5.683053	0.000654	0.5531	-0.455728	-0.71582	-0.138916	-0.044434
1196.0	7.840402	-1.17282	5.992002	0.077692	0.501197	-0.43694	-0.720215	-0.138916	-0.037842
1197.0	7.810656	-0.947285	6.214293	0.113327	0.465533	-0.405802	-0.711182	-0.145264	-0.052979
1198.0	7.527627	-0.605035	6.530607	0.119121	0.413755	-0.369683	-0.715576	-0.149658	-0.050781
1199.0	7.497213	-0.113424	6.73545	0.09024	0.327101	-0.346511	-0.713135	-0.151611	-0.057373
1200.0	7.58953	-0.416404	6.604304	0.058773	0.264759	-0.284165	-0.713379	-0.149414	-0.055176
1201.0	7.510072	-0.435545	6.600173	0.035626	0.199682	-0.255725	-0.70874	-0.156006	-0.055176
1202.0	7.604044	-0.8766	6.446584	0.035706	0.13809	-0.226848	-0.715332	-0.151611	-0.063721
1203.0	7.632146	-0.730463	6.625356	0.048255	0.07885	-0.235057	-0.710693	-0.160156	-0.063721
1204.0	7.644027	-0.616778	6.595396	0.060692	0.006663	-0.187244	-0.710693	-0.160156	-0.055176
1205.0	7.530349	-1.569412	6.654101	0.054175	-0.034881	-0.200242	-0.706543	-0.155762	-0.059326
1206.0	7.55511	-1.213527	6.59413	0.029358	-0.128362	-0.31951	-0.708496	-0.162354	-0.059326
1207.0	8.319339	-1.913715	7.116083	0.084638	-0.246453	-0.368083	-0.703857	-0.166748	-0.052734
1208.0	6.26089	-2.530876	8.323893	0.17646	-0.329914	-0.496499	-0.705811	-0.171143	-0.041992
1209.0	7.476298	-1.758099	8.428963	0.35476	-0.691304	-0.62231	-0.698975	-0.184082	-0.044189
1210.0	6.774104	-1.279519	8.818742	0.395487	-0.882846	-0.784015	-0.709717	-0.184082	-0.039795
1211.0	6.533401	-0.166843	9.40861	0.385397	-1.215426	-0.870335	-0.705322	-0.186523	-0.022461
1212.0	6.76119	-0.52085	9.61595	0.37326	-1.539333	-0.893425	-0.713623	-0.19751	-0.009277
1213.0	7.027561	-2.214667	9.250849	0.372129	-1.909857	-0.977365	-0.704346	-0.210449	0.008057
1214.0	6.596009	-2.622629	8.696971	0.517156	-2.303368	-1.165998	-0.706055	-0.217285	0.020996
1215.0	6.692964	-3.526184	8.46242	0.747761	-2.715832	-1.362328	-0.709961	-0.228516	0.053711
1216.0	6.682067	-4.407493	9.14821	1.036024	-3.180673	-1.59468	-0.709473	-0.239502	0.077637
1217.0	7.0225	-6.114066	8.286579	1.162309	-3.769453	-1.85069	-0.702148	-0.25708	0.112305
1218.0	6.514258	-6.848505	8.397704	1.302169	-4.327019	-2.327165	-0.699219	-0.2771	0.151367
1219.0	5.295047	-6.760021	10.097445	1.492452	-5.153435	-2.870904	-0.685059	-0.30127	0.201416
1220.0	4.45386	-7.127973	11.940008	1.248055	-6.311551	-3.413863	-0.668945	-0.321289	0.249268
1221.0	3.351133	-9.050276	13.704566	0.57537	-7.796548	-4.156039	-0.641357	-0.354248	0.305908
1222.0	5.966511	-3.507395	7.692146	0.863659	-9.026658	-5.306847	-0.605225	-0.38501	0.368896
1223.0	19.768882	8.155904	5.093795	1.349608	-8.821908	-5.537052	-0.555908	-0.422119	0.425537
1224.0	30.808232	10.46476	3.252497	0.49283	-8.196024	-5.14256	-0.511475	-0.442139	0.477783
1225.0	30.47989	2.327809	0.533888	-0.381654	-6.958798	-4.609249	-0.462402	-0.470215	0.499512
1226.0	26.556082	-7.322478	-0.362186	0.393587	-5.26621	-4.344384	-0.427002	-0.481201	0.532227
1227.0	29.189958	-9.640037	4.876878	2.137155	-3.409406	-3.897736	-0.393799	-0.496582	0.55835
1228.0	22.716249	-12.445359	10.519396	3.569072	-1.425653	-2.618333	-0.383057	-0.490479	0.584473
1229.0	11.750153	-9.032422	15.39728	3.701959	-0.367067	-1.662327	-0.368164	-0.47998	0.608154
1230.0	10.821207	-9.80499	12.715201	2.87593	-0.003136	-0.837694	-0.366455	-0.469238	0.621094
1231.0	2.003253	-10.686021	13.932985	1.945563	0.34807	-0.418471	-0.375488	-0.460938	0.627686
1232.0	9.409098	-1.235705	13.93994	0.622393	0.266091	0.764697	-0.382324	-0.454346	0.621094
1233.0	6.426216	-6.207819	14.302207	0.086704	1.449793	1.382539	-0.403809	-0.456543	0.618896
1234.0	2.429623	-6.310463	13.857136	-0.171369	1.698367	1.575004	-0.426025	-0.447754	0.610107
1235.0	3.461713	-5.244378	12.133122	-0.494903	1.982378	1.623961	-0.445801	-0.441162	0.592773
1236.0	6.045631	-3.442673	10.99979	-0.868123	2.524578	1.794355	-0.463623	-0.436768	0.573242
1237.0	7.227772	-2.171978	9.950686	-1.277181	3.248056	2.181	-0.489746	-0.434326	0.542725
1238.0	6.108891	-1.863165	8.873306	-1.589475	3.829931	2.602629	-0.529785	-0.418945	0.507813
1239.0	5.214426	-1.747526	7.939971	-1.778882	4.137452	2.927852	-0.553955	-0.412109	0.477539
1240.0	5.579044	-1.78297	7.181736	-1.784495	4.242662	3.174807	-0.587158	-0.398926	0.438232
1241.0	6.754613	-1.345866	7.134786	-1.751829	4.295876	3.337497	-0.614258	-0.37915	0.405762
1242.0	7.957609	-1.145734	7.082357	-1.780691	4.339272	3.52659	-0.636719	-0.361328	0.362305
1243.0	8.844494	-1.525997	6.826481	-1.711353	4.423099	3.68592	-0.661621	-0.337158	0.318604
1244.0	10.251103	-1.615059	6.678836	-1.568557	4.569607	3.750298	-0.682373	-0.313232	0.283936
1245.0	11.445234	-0.840909	6.501815	-1.451073	4.762308	3.740015	-0.700684	-0.288818	0.233887
1246.0	12.376366	-0.118416	6.416743	-1.489342	4.922173	3.666095	-0.714844	-0.264648	0.19043
1247.0	13.12615	0.825113	6.425482	-1.696339	4.958957	3.582295	-0.73584	-0.231934	0.144531
1248.0	13.330974	0.627171	6.284193	-1.997355	4.844101	3.513436	-0.743408	-0.20752	0.096924
1249.0	13.859592	-0.34329	6.212477	-2.157182	4.605445	3.38383	-0.744385	-0.18335	0.057617
1250.0	15.604385	-1.120728	5.8914	-2.1644	4.375526	3.197491	-0.751953	-0.15918	0.01416
1251.0	17.217971	-1.358957	6.240593	-2.113284	4.221755	2.914582	-0.746582	-0.13501	-0.029297
1252.0	20.256218	0.05832	6.378441	-2.236266	4.15662	2.639875	-0.745117	-0.117188	-0.061768
1253.0	22.17294	2.81527	5.468278	-2.709224	4.053799	2.665941	-0.737549	-0.086426	-0.105225
1254.0	20.0683	4.428079	3.702712	-3.320963	3.511718	2.858756	-0.728027	-0.051514	-0.135742
1255.0	18.100815	4.933088	0.930932	-3.668745	2.478209	2.890067	-0.733643	-0.023438	-0.162109
1256.0	19.958329	6.225273	-2.013892	-3.471581	1.511495	2.672675	-0.730469	0.006836	-0.170898
1257.0	25.274387	9.601501	-4.303991	-3.017706	1.136169	2.476725	-0.731445	0.032959	-0.183838
1258.0	27.206638	13.278876	-6.76183	-2.722011	1.358735	2.496403	-0.730713	0.06543	-0.199219
1259.0	23.42334	13.90323	-9.402788	-2.450156	1.567208	2.392599	-0.727051	0.084961	-0.218994
1260.0	20.472544	14.905974	-11.970926	-1.897133	1.485769	2.033736	-0.723633	0.108887	-0.223389
1261.0	20.446974	17.659289	-14.090861	-1.306233	1.309206	1.586393	-0.713135	0.119629	-0.234131
1262.0	19.695837	19.25948	-15.160777	-0.897689	1.129401	1.200226	-0.718262	0.134766	-0.236572
1263.0	16.384077	18.400382	-14.766295	-0.370925	0.748976	0.688794	-0.720215	0.132813	-0.24292
1264.0	14.36211	16.646721	-13.30323	0.249202	0.022131	-0.05842	-0.720215	0.130615	-0.247314
1265.0	16.710334	9.809732	-12.232656	1.374149	-0.414715	-0.778567	-0.719238	0.106934	-0.24292
1266.0	17.54659	13.263992	-3.704788	4.275039	-0.343228	-2.026928	-0.729004	0.07666	-0.229736
1267.0	-3.44989	-9.908268	34.126258	2.414463	-1.699651	-1.953349	-0.732178	0.050537	-0.21875
1268.0	-13.315318	-24.047796	7.945867	2.006721	-2.66509	-4.505621	-0.741211	0.00293	-0.188232
1269.0	27.13654	9.174425	-4.638655	2.392395	-3.633239	-3.850202	-0.746338	-0.036133	-0.164063
1270.0	22.704831	12.528564	2.368801	2.543612	-2.511809	-2.459819	-0.75415	-0.056152	-0.133789
1271.0	15.969367	2.213738	6.788689	2.312496	-2.494445	-1.603315	-0.761475	-0.086426	-0.114014
1272.0	21.814119	4.03047	3.612379	2.084855	-1.860606	-1.476781	-0.763428	-0.095215	-0.101074
1273.0	38.054266	10.566069	2.414131	0.171769	0.101109	-1.077539	-0.760986	-0.10376	-0.105225
1274.0	1.582705	-8.937982	7.272985	1.067865	1.104171	-0.840434	-0.758545	-0.110352	-0.10083
1275.0	4.659204	3.886621	9.154288	0.549867	-0.346929	-0.899836	-0.758057	-0.118896	-0.105225
1276.0	13.134145	2.205402	6.349241	0.373892	-0.065617	-0.592619	-0.755859	-0.121094	-0.105225
1277.0	7.166302	-1.188934	6.102434	0.284987	-0.024313	-0.376519	-0.750977	-0.131836	-0.096436
1278.0	9.401677	-2.450336	4.459198	0.143831	-0.084304	-0.340527	-0.753418	-0.127441	-0.098633
1279.0	8.517528	0.053107	6.878217	0.297395	0.074932	-0.326993	-0.750977	-0.134033	-0.096436
1280.0	7.948914	0.641818	7.382527	0.059965	-0.091775	-0.10254	-0.750977	-0.13623	-0.096436
1281.0	8.619906	-2.050301	5.482575	-0.138279	-0.182193	0.030462	-0.750977	-0.13623	-0.098633
1282.0	8.58409	-2.961316	5.252532	-0.044959	-0.084819	-0.0154	-0.755615	-0.129639	-0.094238
1283.0	8.204789	-1.220794	6.018045	-0.002837	-0.081093	-0.032808	-0.75293	-0.138428	-0.096436
1284.0	8.339141	-1.499929	5.796817	-0.038239	-0.123011	0.004234	-0.750977	-0.134033	-0.098633
1285.0	8.061258	-1.067021	6.275414	-0.067575	-0.143979	0.024724	-0.753174	-0.13623	-0.096436
1286.0	8.228066	-1.712286	5.838002	-0.165654	-0.150452	0.029212	-0.757568	-0.129883	-0.090088
1287.0	8.320251	-1.71371	5.653054	-0.232739	-0.083947	-0.018574	-0.755371	-0.134033	-0.094238
1288.0	8.269096	-1.53427	5.711093	-0.278197	-0.053289	-0.018013	-0.755371	-0.135986	-0.10083
1289.0	8.246473	-1.859045	5.494871	-0.306336	-0.059781	0.001743	-0.759766	-0.131836	-0.092041
1290.0	8.305082	-2.605824	5.161654	-0.272751	-0.072994	-0.005672	-0.749023	-0.129639	-0.094238
1291.0	8.292372	-2.652393	4.996483	-0.217777	-0.063321	-0.047997	-0.755127	-0.13623	-0.089844
1292.0	8.332654	-2.925694	4.765734	-0.172149	-0.046541	-0.096724	-0.757568	-0.134033	-0.094238
1293.0	8.475963	-2.769849	4.6079	-0.11814	0.008019	-0.152587	-0.755371	-0.134033	-0.098633
1294.0	8.359519	-2.761144	4.679955	-0.074189	0.051785	-0.220042	-0.753174	-0.13623	-0.092041
1295.0	8.4483	-2.69811	4.563228	-0.053961	0.086805	-0.28425	-0.755371	-0.135986	-0.103027
1296.0	8.573038	-2.990914	4.321323	-0.069106	0.159265	-0.358158	-0.753174	-0.131836	-0.096436
1297.0	8.660315	-3.318107	4.041166	-0.117634	0.25247	-0.477365	-0.748291	-0.144775	-0.10083
1298.0	8.639677	-2.922067	4.106305	-0.161392	0.412342	-0.566675	-0.744141	-0.144775	-0.10083
1299.0	8.400672	-2.793233	4.228409	-0.103965	0.559838	-0.58052	-0.743896	-0.148682	-0.115967
1300.0	8.396109	-2.215414	4.795422	-0.088432	0.67635	-0.590573	-0.741455	-0.157471	-0.11377
1301.0	8.295745	-2.020522	5.048265	-0.075038	0.722127	-0.50766	-0.734619	-0.163818	-0.120117
1302.0	8.169892	-2.00117	5.209188	-0.01688	0.758109	-0.522232	-0.737061	-0.159424	-0.120117
1303.0	8.036967	-1.727187	5.603184	0.148479	0.700454	-0.485177	-0.728027	-0.165771	-0.130859
1304.0	7.849854	-1.567853	6.107384	0.259491	0.623884	-0.482264	-0.72583	-0.167969	-0.128662
1305.0	7.47208	-1.202908	6.559374	0.302081	0.465144	-0.545824	-0.721191	-0.174316	-0.133057
1306.0	7.895286	-1.477327	6.92837	0.321617	0.282768	-0.607677	-0.716797	-0.17627	-0.137451
1307.0	6.883589	-1.762489	7.523868	0.35402	0.142269	-0.737199	-0.716553	-0.185059	-0.130859
1308.0	7.554219	-1.267962	7.719314	0.420827	-0.083857	-0.826944	-0.713867	-0.193604	-0.13501
1309.0	6.984701	-1.353972	8.46262	0.498265	-0.260825	-0.878042	-0.711182	-0.206543	-0.130615
1310.0	6.845386	-1.299144	8.951574	0.585429	-0.559986	-0.895365	-0.710938	-0.215332	-0.115479
1311.0	7.192623	-1.217305	8.898669	0.610808	-0.902783	-0.915444	-0.712891	-0.221924	-0.111084
1312.0	7.062935	-1.775032	8.935144	0.619	-1.21479	-0.992444	-0.7146	-0.228516	-0.09375
1313.0	6.830981	-1.735444	8.869302	0.595217	-1.603191	-1.128527	-0.714111	-0.239502	-0.078613
1314.0	6.947378	-1.761707	8.572049	0.636714	-1.955046	-1.266565	-0.707275	-0.252441	-0.067627
