Acquisition frequency: 100 Hz
PacketCounter	Acc_X	Acc_Y	Acc_Z	Gyr_X	Gyr_Y	Gyr_Z	Mag_X	Mag_Y	Mag_Z
0.0	7.297675	0.805375	7.427171	-0.003125	0.008327	-0.024869	-0.557129	-0.005371	-0.36084
1.0	7.29672	0.806804	7.427954	-0.005623	0.01217	-0.023189	-0.559082	-0.009766	-0.372314
2.0	7.316437	0.795286	7.428298	-0.007431	0.012679	-0.023163	-0.565918	-0.007568	-0.365479
3.0	7.273653	0.821772	7.430521	-0.006585	0.013009	-0.019675	-0.561523	-0.003174	-0.374756
4.0	7.298252	0.770829	7.446175	-0.009652	0.019015	-0.023339	-0.561523	-0.007568	-0.365479
5.0	7.270962	0.82379	7.43293	-0.00526	0.01171	-0.020977	-0.563965	-0.000977	-0.365479
6.0	7.311509	0.799318	7.432716	-0.007898	0.014304	-0.018369	-0.559082	-0.009766	-0.363037
7.0	7.277218	0.793055	7.42686	-0.007896	0.014303	-0.018368	-0.563477	-0.009766	-0.369873
8.0	7.293452	0.7743	7.450517	-0.008032	0.013055	-0.017439	-0.563721	-0.005371	-0.370117
9.0	7.287276	0.814221	7.436411	-0.006847	0.01051	-0.017814	-0.568115	-0.005371	-0.370117
10.0	7.291466	0.775859	7.452299	-0.006707	0.011757	-0.018741	-0.559082	-0.009766	-0.363037
11.0	7.281672	0.763812	7.422429	-0.004406	0.012038	-0.017485	-0.563477	-0.009766	-0.372314
12.0	7.284221	0.817036	7.439095	-0.002945	0.011989	-0.019716	-0.563477	-0.009766	-0.367676
13.0	7.300435	0.798506	7.462753	-0.006908	0.015877	-0.015804	-0.568115	-0.003174	-0.363281
14.0	7.281753	0.818629	7.441336	-0.007394	0.015087	-0.017083	-0.563721	-0.005371	-0.365479
15.0	7.280559	0.819352	7.442424	-0.005721	0.013332	-0.016179	-0.563721	-0.007568	-0.365479
16.0	7.300253	0.807338	7.442906	-0.007041	0.014628	-0.014875	-0.561523	-0.007568	-0.370117
17.0	7.265953	0.800935	7.437038	-0.005091	0.015368	-0.015825	-0.566162	-0.000977	-0.370117
18.0	7.297792	0.808364	7.445208	-0.012258	0.01444	-0.011669	-0.55957	-0.003174	-0.36792
19.0	7.280989	0.782141	7.461879	-0.008011	0.013048	-0.017432	-0.563721	-0.005371	-0.370117
20.0	7.295534	0.80929	7.447319	-0.004876	0.013662	-0.012688	-0.565674	-0.009766	-0.367676
21.0	7.273501	0.82241	7.448986	-0.006198	0.014956	-0.011384	-0.563477	-0.009766	-0.367676
22.0	7.29662	0.816988	7.426378	-0.006544	0.015414	-0.013591	-0.561523	-0.005371	-0.367676
23.0	7.279707	0.790951	7.443127	-0.006543	0.015414	-0.01359	-0.565918	-0.005371	-0.372314
24.0	7.278409	0.791357	7.444353	-0.007864	0.016708	-0.012286	-0.561523	-0.007568	-0.36084
25.0	7.259735	0.811034	7.422967	-0.010298	0.015176	-0.012616	-0.561523	-0.005371	-0.370117
26.0	7.2966	0.77909	7.446375	-0.008559	0.020037	-0.010628	-0.563721	-0.005371	-0.367676
27.0	7.290128	0.818556	7.432578	-0.005144	0.011165	-0.01083	-0.563721	-0.005371	-0.370117
28.0	7.261319	0.77252	7.441443	-0.010918	0.013138	-0.012969	-0.566162	-0.000977	-0.374756
29.0	7.30528	0.799534	7.457341	-0.009666	0.01721	-0.01226	-0.563721	-0.007568	-0.365479
30.0	7.286566	0.819117	7.436008	-0.009804	0.015962	-0.011333	-0.563721	-0.007568	-0.372314
31.0	7.26971	0.792635	7.452712	-0.010428	0.013925	-0.011687	-0.568115	-0.003174	-0.367676
32.0	7.305093	0.806624	7.437752	-0.009941	0.014713	-0.010406	-0.563721	-0.005371	-0.370117
33.0	7.279498	0.812281	7.46267	-0.010919	0.015547	-0.006896	-0.563721	-0.007568	-0.363037
34.0	7.262598	0.785593	7.479419	-0.009797	0.01596	-0.01133	-0.559326	-0.007568	-0.367676
35.0	7.310283	0.773984	7.433075	-0.010217	0.012217	-0.008553	-0.563721	-0.003174	-0.365479
36.0	7.288254	0.831839	7.473647	-0.005628	0.012786	-0.006035	-0.55957	-0.003174	-0.365479
37.0	7.26307	0.792399	7.459209	-0.009374	0.010135	-0.011137	-0.565918	-0.007568	-0.365479
38.0	7.295321	0.754304	7.428185	-0.010557	0.012675	-0.010759	-0.55957	-0.000977	-0.36792
39.0	7.29764	0.806464	7.445083	-0.008263	0.012959	-0.009499	-0.565918	-0.003174	-0.372314
40.0	7.267088	0.806267	7.415807	-0.010898	0.013133	-0.012964	-0.55957	-0.003174	-0.36792
41.0	7.27972	0.780194	7.462762	-0.007838	0.016702	-0.012272	-0.565918	-0.005371	-0.365479
42.0	7.261241	0.799691	7.441211	-0.01035	0.010966	-0.007626	-0.55957	-0.003174	-0.363281
43.0	7.260206	0.799726	7.442217	-0.008459	0.014665	-0.012627	-0.565918	-0.003174	-0.363281
44.0	7.291983	0.806977	7.450568	-0.008958	0.016286	-0.007837	-0.561523	-0.007568	-0.365479
45.0	7.278694	0.787278	7.444026	-0.008597	0.013417	-0.011702	-0.565918	-0.003174	-0.370117
46.0	7.27751	0.787432	7.445167	-0.00978	0.015955	-0.011323	-0.563721	-0.005371	-0.363281
47.0	7.255375	0.800083	7.446889	-0.00992	0.014707	-0.010398	-0.559326	-0.007568	-0.367676
48.0	7.257703	0.806863	7.424928	-0.011244	0.015997	-0.009095	-0.565674	-0.009766	-0.367676
49.0	7.291209	0.767741	7.471402	-0.011384	0.014749	-0.00817	-0.563721	-0.003174	-0.36792
50.0	7.260536	0.767492	7.442246	-0.008305	0.015911	-0.013547	-0.55957	-0.003174	-0.363281
51.0	7.304385	0.794619	7.458343	-0.009913	0.014705	-0.010396	-0.565918	-0.005371	-0.365479
52.0	7.294749	0.781536	7.42858	-0.013812	0.013213	-0.008506	-0.561523	-0.003174	-0.363281
53.0	7.277592	0.800081	7.484306	-0.007818	0.016699	-0.012262	-0.563721	-0.005371	-0.365479
54.0	7.28876	0.774808	7.454095	-0.01039	0.013916	-0.011676	-0.554932	-0.007568	-0.370117
55.0	7.284014	0.768043	7.478386	-0.010246	0.015163	-0.012599	-0.565918	-0.005371	-0.372314
56.0	7.26896	0.794438	7.433833	-0.011571	0.016452	-0.011295	-0.561523	-0.005371	-0.370117
57.0	7.260463	0.780772	7.481439	-0.00733	0.017486	-0.010976	-0.563721	-0.003174	-0.372314
58.0	7.275341	0.762424	7.427975	-0.011969	0.010301	-0.014598	-0.563721	-0.005371	-0.367676
59.0	7.282836	0.775587	7.459802	-0.009393	0.013084	-0.015181	-0.565674	-0.009766	-0.374512
60.0	7.281663	0.775662	7.460939	-0.013516	0.015702	-0.01035	-0.55957	-0.000977	-0.36792
61.0	7.263088	0.795273	7.439482	-0.006958	0.014619	-0.01484	-0.565918	-0.007568	-0.372314
62.0	7.25831	0.788758	7.463747	-0.010715	0.014372	-0.013877	-0.564209	0.003418	-0.370117
63.0	7.286457	0.789355	7.495327	-0.008282	0.015907	-0.013536	-0.561523	-0.003174	-0.370117
64.0	7.280346	0.783859	7.442451	-0.006953	0.014618	-0.014838	-0.561523	-0.005371	-0.363281
65.0	7.291224	0.804154	7.451296	-0.007094	0.013369	-0.013915	-0.565918	-0.003174	-0.363281
66.0	7.277957	0.784674	7.444701	-0.011892	0.016905	-0.013494	-0.563721	-0.003174	-0.370117
67.0	7.297628	0.77219	7.445446	-0.00989	0.014696	-0.010386	-0.563721	-0.007568	-0.372314
68.0	7.275604	0.784809	7.446987	-0.008704	0.012159	-0.010766	-0.563721	-0.007568	-0.356201
69.0	7.273911	0.83013	7.487318	-0.0096	0.017192	-0.012229	-0.567871	-0.007568	-0.367676
70.0	7.269556	0.778304	7.472462	-0.008892	0.013867	-0.013892	-0.557129	-0.007568	-0.365479
71.0	7.259992	0.765633	7.442648	-0.009885	0.014694	-0.010384	-0.563721	-0.007568	-0.374512
72.0	7.274536	0.792372	7.428358	-0.010984	0.011869	-0.012028	-0.565918	-0.003174	-0.365479
73.0	7.266252	0.778719	7.475632	-0.008887	0.013867	-0.01389	-0.561768	0.001221	-0.374756
74.0	7.260388	0.772733	7.422641	-0.016068	0.012904	-0.009765	-0.559326	-0.007568	-0.363281
75.0	7.255698	0.765837	7.446813	-0.004792	0.013656	-0.012643	-0.565918	-0.005371	-0.367676
76.0	7.278498	0.805682	7.463562	-0.012019	0.015651	-0.012566	-0.563965	-0.000977	-0.365479
77.0	7.268904	0.792958	7.433806	-0.010687	0.014364	-0.013868	-0.570068	-0.007568	-0.372314
78.0	7.296995	0.793534	7.465449	-0.010541	0.015612	-0.014788	-0.565918	-0.003174	-0.363281
79.0	7.275401	0.761143	7.427887	-0.010206	0.01515	-0.012583	-0.570068	-0.009766	-0.372314
80.0	7.24957	0.76679	7.452681	-0.012011	0.015648	-0.012564	-0.563721	-0.005371	-0.370117
81.0	7.277638	0.767062	7.484373	-0.011677	0.015186	-0.010359	-0.562012	0.003418	-0.372559
82.0	7.271639	0.761314	7.431552	-0.010388	0.016859	-0.015705	-0.561768	-0.000977	-0.372314
83.0	7.27864	0.774412	7.463778	-0.007439	0.016226	-0.010031	-0.565918	-0.005371	-0.367676
84.0	7.277356	0.774644	7.465006	-0.010528	0.015609	-0.014784	-0.559326	-0.005371	-0.376953
85.0	7.267023	0.807116	7.474581	-0.011857	0.016894	-0.013481	-0.565918	-0.003174	-0.372314
86.0	7.271071	0.767926	7.490665	-0.012	0.015644	-0.01256	-0.55957	-0.000977	-0.372314
87.0	7.244095	0.774729	7.438335	-0.009901	0.017644	-0.014417	-0.565674	-0.009766	-0.376709
88.0	7.308592	0.789534	7.454441	-0.009714	0.015933	-0.011293	-0.563721	-0.005371	-0.363281
89.0	7.267057	0.768447	7.494505	-0.010042	0.016394	-0.013496	-0.568115	-0.003174	-0.372314
90.0	7.273116	0.782622	7.449487	-0.010661	0.014357	-0.01386	-0.563721	-0.005371	-0.367676
91.0	7.252531	0.749007	7.489108	-0.008613	0.018755	-0.009641	-0.565918	-0.003174	-0.365479
92.0	7.26665	0.776028	7.475285	-0.010219	0.018104	-0.016617	-0.563721	-0.003174	-0.372314
93.0	7.247742	0.795707	7.454147	-0.012405	0.021457	-0.012727	-0.565918	-0.007568	-0.367676
94.0	7.255188	0.763638	7.447376	-0.009739	0.01889	-0.01533	-0.561768	0.001221	-0.372559
95.0	7.265659	0.783711	7.456646	-0.009555	0.017178	-0.012207	-0.557373	0.001221	-0.370117
96.0	7.297187	0.791215	7.465428	-0.009553	0.017178	-0.012206	-0.566162	-0.000977	-0.36792
97.0	7.254725	0.771225	7.428252	-0.009698	0.015928	-0.011287	-0.565918	-0.003174	-0.36792
98.0	7.254304	0.770251	7.506666	-0.008217	0.015894	-0.013507	-0.565918	-0.003174	-0.370117
99.0	7.252312	0.771711	7.430558	-0.008656	0.012146	-0.010751	-0.55957	-0.000977	-0.36792
100.0	7.268582	0.752525	7.454212	-0.009307	0.01307	-0.015157	-0.557129	-0.007568	-0.370117
101.0	7.283057	0.779709	7.440074	-0.008833	0.013856	-0.013871	-0.563721	-0.003174	-0.372314
102.0	7.278225	0.773052	7.464244	-0.008831	0.013856	-0.013871	-0.557373	-0.003174	-0.365479
103.0	7.273439	0.76635	7.488367	-0.008976	0.012606	-0.012952	-0.563965	0.001221	-0.36792
104.0	7.258787	0.793092	7.44359	-0.008975	0.012605	-0.012952	-0.563721	-0.007568	-0.367676
105.0	7.254079	0.786239	7.467646	-0.010926	0.01185	-0.012017	-0.55957	-0.003174	-0.365479
106.0	7.240172	0.811588	7.50011	-0.01063	0.014349	-0.013852	-0.563721	-0.005371	-0.370117
107.0	7.257297	0.747285	7.484503	-0.010775	0.013099	-0.012933	-0.561523	-0.003174	-0.370117
108.0	7.275647	0.781197	7.447165	-0.008939	0.009643	-0.008911	-0.561523	-0.005371	-0.365479
109.0	7.249974	0.786626	7.471591	-0.010301	0.013885	-0.011647	-0.563965	-0.000977	-0.36792
110.0	7.246198	0.734658	7.456317	-0.010918	0.011848	-0.012014	-0.565918	-0.005371	-0.370117
111.0	7.244297	0.77974	7.496564	-0.009259	0.010104	-0.011113	-0.559326	-0.005371	-0.367676
112.0	7.239	0.774054	7.443284	-0.011063	0.010598	-0.011096	-0.561768	-0.000977	-0.372314
113.0	7.259091	0.761654	7.443775	-0.010914	0.011847	-0.012013	-0.563721	-0.005371	-0.372314
114.0	7.266299	0.774476	7.475708	-0.008785	0.01089	-0.009826	-0.557373	0.001221	-0.361084
115.0	7.265322	0.774436	7.476662	-0.012245	0.013126	-0.01071	-0.561768	-0.000977	-0.372314
116.0	7.252532	0.754822	7.469596	-0.005967	0.00958	-0.013345	-0.561279	-0.011963	-0.369873
117.0	7.256149	0.760942	7.52443	-0.007918	0.008823	-0.012412	-0.565918	-0.005371	-0.372314
118.0	7.283859	0.762948	7.47858	-0.007917	0.008822	-0.012412	-0.561768	0.001221	-0.36792
119.0	7.237282	0.780767	7.50323	-0.015604	0.010006	-0.013634	-0.563721	-0.005371	-0.372314
120.0	7.260936	0.77464	7.480899	-0.031224	0.016474	-0.01312	-0.568359	-0.000977	-0.365479
121.0	7.284324	0.767697	7.458926	-0.034036	0.01778	-0.009597	-0.561523	-0.005371	-0.372314
122.0	7.269823	0.790649	7.492138	-0.042432	0.022275	-0.009144	-0.563721	-0.003174	-0.372314
123.0	7.265389	0.736522	7.477717	-0.034764	0.024056	-0.011952	-0.559326	-0.005371	-0.376953
124.0	7.275544	0.754846	7.487491	-0.028779	0.018015	-0.012756	-0.559326	-0.005371	-0.372314
125.0	7.256695	0.773363	7.466449	-0.024722	0.020782	-0.015531	-0.563965	0.001221	-0.372559
126.0	7.243406	0.753007	7.459916	-0.015211	0.016143	-0.010291	-0.563721	-0.003174	-0.376953
127.0	7.271228	0.753129	7.491855	-0.011922	0.015625	-0.012524	-0.561768	0.001221	-0.374756
128.0	7.273903	0.760379	7.469837	-0.009548	0.01057	-0.0133	-0.557129	-0.007568	-0.370117
129.0	7.227146	0.778278	7.494546	-0.006808	0.01165	-0.010741	-0.561768	0.001221	-0.36792
130.0	7.27199	0.761158	7.47162	-0.003371	0.012383	-0.013887	-0.55957	-0.000977	-0.372314
131.0	7.263131	0.749036	7.441274	-0.006237	0.007085	-0.011502	-0.561768	0.001221	-0.372559
132.0	7.2704	0.762111	7.473071	-0.005002	0.011158	-0.010755	-0.561523	-0.005371	-0.365479
133.0	7.26955	0.762743	7.473833	-0.004919	0.008775	-0.016834	-0.557373	-0.003174	-0.370117
134.0	7.243964	0.768603	7.497957	-0.005617	0.009121	-0.011128	-0.561523	-0.003174	-0.374756
135.0	7.256201	0.744012	7.467197	-0.005934	0.009586	-0.013329	-0.563721	-0.005371	-0.370117
136.0	7.230545	0.749832	7.491383	-0.006251	0.01005	-0.01553	-0.561768	-0.000977	-0.376953
137.0	7.299146	0.772399	7.484422	-0.005615	0.00912	-0.011127	-0.557373	0.001221	-0.36792
138.0	7.248095	0.784863	7.454953	-0.006968	0.013362	-0.013852	-0.561523	-0.005371	-0.365479
139.0	7.264227	0.765902	7.478683	-0.006817	0.014612	-0.014765	-0.563721	-0.005371	-0.367676
140.0	7.263166	0.766387	7.479664	-0.004995	0.011155	-0.010752	-0.561523	-0.005371	-0.370117
141.0	7.258432	0.759655	7.503596	-0.007114	0.01211	-0.012937	-0.565918	-0.005371	-0.370117
142.0	7.282213	0.754802	7.481169	-0.00618	0.01368	-0.010361	-0.55957	-0.000977	-0.36792
143.0	7.240363	0.735036	7.443351	-0.004842	0.012405	-0.011664	-0.561523	-0.003174	-0.370117
144.0	7.243587	0.741148	7.498382	-0.003504	0.01113	-0.012966	-0.563721	-0.007568	-0.370117
145.0	7.258247	0.768577	7.484213	-0.007408	0.009606	-0.01111	-0.561768	-0.000977	-0.374756
146.0	7.266747	0.736987	7.476511	-0.002165	0.009856	-0.014267	-0.561523	-0.005371	-0.363281
147.0	7.248645	0.757088	7.454573	-0.010455	0.008988	-0.015871	-0.565918	-0.005371	-0.365479
148.0	7.267629	0.789954	7.494419	-0.006218	0.00708	-0.011498	-0.566162	0.001221	-0.374756
149.0	7.268182	0.745593	7.455618	-0.00742	0.012572	-0.015135	-0.563721	-0.003174	-0.372314
150.0	7.234429	0.738555	7.448771	-0.007719	0.010069	-0.013309	-0.563721	-0.007568	-0.372314
151.0	7.262599	0.739256	7.480316	-0.009984	0.009771	-0.014582	-0.563721	-0.003174	-0.370117
152.0	7.256267	0.778862	7.466453	-0.010598	0.007734	-0.014957	-0.565918	-0.005371	-0.363281
153.0	7.261015	0.739939	7.481786	-0.007565	0.01132	-0.014219	-0.561523	-0.005371	-0.367676
154.0	7.252087	0.727539	7.451608	-0.012971	0.012782	-0.014176	-0.55957	-0.000977	-0.36792
155.0	7.262763	0.747741	7.460682	-0.005609	0.012083	-0.015144	-0.565918	-0.003174	-0.365479
156.0	7.252251	0.780283	7.470205	-0.014932	0.014985	-0.017273	-0.561523	-0.005371	-0.365479
157.0	7.239377	0.760723	7.463204	-0.00921	0.013057	-0.015114	-0.565918	-0.003174	-0.370117
158.0	7.259427	0.748798	7.463822	-0.009359	0.011805	-0.014202	-0.565918	-0.005371	-0.372314
159.0	7.270057	0.769072	7.47293	-0.009519	0.013522	-0.017313	-0.561523	-0.003174	-0.370117
160.0	7.257243	0.749851	7.46584	-0.007715	0.013034	-0.017326	-0.563965	-0.000977	-0.36792
161.0	7.267842	0.770437	7.474944	-0.005911	0.012548	-0.017339	-0.565918	-0.005371	-0.370117
162.0	7.245526	0.783175	7.476426	-0.01173	0.016849	-0.013418	-0.561523	-0.003174	-0.363281
163.0	7.253757	0.751446	7.469066	-0.005596	0.012081	-0.015138	-0.563721	-0.005371	-0.363281
164.0	7.256517	0.759185	7.447017	-0.009198	0.013053	-0.01511	-0.55957	0.001221	-0.370117
165.0	7.245919	0.791717	7.456583	-0.008584	0.015089	-0.014732	-0.566162	0.001221	-0.36792
166.0	7.250396	0.752894	7.472183	-0.007393	0.012566	-0.015123	-0.561768	-0.000977	-0.370117
167.0	7.278156	0.753659	7.504119	-0.009921	0.016359	-0.013429	-0.561768	-0.000977	-0.370117
168.0	7.244106	0.746406	7.497518	-0.008578	0.015088	-0.01473	-0.559814	0.003418	-0.372559
169.0	7.246713	0.753969	7.475647	-0.008267	0.014621	-0.01253	-0.563721	-0.005371	-0.367676
170.0	7.255083	0.722314	7.468179	-0.007846	0.011779	-0.016409	-0.55957	0.001221	-0.363281
171.0	7.244428	0.754803	7.477777	-0.009453	0.017142	-0.012137	-0.566406	0.003418	-0.36792
172.0	7.260346	0.73557	7.50176	-0.012483	0.016522	-0.016901	-0.563721	-0.007568	-0.367676
173.0	7.266845	0.750521	7.456827	-0.006039	0.011294	-0.01642	-0.561768	-0.000977	-0.365479
174.0	7.261817	0.743829	7.48094	-0.009757	0.017606	-0.014334	-0.561523	-0.005371	-0.372314
175.0	7.214585	0.859737	7.485135	-0.013358	0.018574	-0.014308	-0.566162	0.001221	-0.372559
176.0	7.285712	0.692802	7.497884	-0.003889	0.016938	-0.013081	-0.559326	-0.005371	-0.367676
177.0	7.273067	0.772007	7.470097	-0.01113	0.015248	-0.0182	-0.561768	-0.000977	-0.372314
178.0	7.233004	0.705586	7.469845	-0.00929	0.018389	-0.013041	-0.555176	0.001221	-0.370117
179.0	7.212645	0.770078	7.488085	-0.011277	0.013995	-0.017289	-0.566162	-0.000977	-0.376953
180.0	7.265275	0.765969	7.496804	-0.008862	0.015548	-0.01692	-0.566162	0.001221	-0.374756
181.0	7.235158	0.76596	7.467078	-0.010507	0.014313	-0.013799	-0.563721	-0.003174	-0.370117
182.0	7.276247	0.741878	7.467579	-0.00901	0.014296	-0.016009	-0.566162	-0.000977	-0.370117
183.0	7.236637	0.772134	7.523506	-0.00855	0.015081	-0.014719	-0.563721	-0.003174	-0.36792
184.0	7.24494	0.742331	7.438973	-0.010807	0.014778	-0.015996	-0.561523	-0.005371	-0.367676
185.0	7.236065	0.728213	7.486035	-0.009157	0.013043	-0.015098	-0.561523	-0.005371	-0.370117
186.0	7.261899	0.775774	7.480565	-0.009613	0.015227	-0.020403	-0.561523	-0.005371	-0.370117
187.0	7.24903	0.756574	7.473536	-0.008848	0.015545	-0.016914	-0.566162	-0.000977	-0.370117
188.0	7.259316	0.776868	7.482957	-0.010342	0.01556	-0.014703	-0.563721	-0.003174	-0.372314
189.0	7.242737	0.750189	7.498781	-0.007806	0.011773	-0.016397	-0.557373	-0.000977	-0.370117
190.0	7.245469	0.7579	7.476854	-0.010339	0.015559	-0.014702	-0.563721	-0.003174	-0.365479
191.0	7.253934	0.726159	7.469401	-0.009299	0.011787	-0.014186	-0.561768	0.001221	-0.36792
192.0	7.239346	0.751321	7.501941	-0.008535	0.015076	-0.014712	-0.561523	-0.007568	-0.372314
193.0	7.253631	0.77891	7.488256	-0.009599	0.012253	-0.016383	-0.557373	0.001221	-0.36792
194.0	7.266099	0.754676	7.457693	-0.007797	0.011772	-0.016394	-0.55957	-0.003174	-0.374756
195.0	7.260923	0.748005	7.481869	-0.007614	0.019616	-0.016143	-0.559326	-0.007568	-0.376953
196.0	7.238329	0.760622	7.48349	-0.010328	0.015555	-0.014698	-0.557373	-0.000977	-0.370117
197.0	7.248576	0.780924	7.49294	-0.008828	0.01554	-0.016906	-0.565918	-0.003174	-0.370117
198.0	7.245452	0.7294	7.477313	-0.010478	0.014301	-0.013789	-0.55957	-0.003174	-0.36792
199.0	7.259639	0.756956	7.463751	-0.008824	0.015539	-0.016904	-0.55957	-0.000977	-0.36792
200.0	7.23336	0.762378	7.488115	-0.00943	0.013502	-0.017287	-0.552734	-0.005371	-0.367676
201.0	7.264898	0.770589	7.497173	-0.006418	0.014124	-0.012518	-0.565918	-0.003174	-0.372314
202.0	7.26964	0.731705	7.512556	-0.010189	0.010211	-0.016762	-0.563721	-0.005371	-0.367676
203.0	7.241694	0.783745	7.499297	-0.007625	0.013021	-0.017295	-0.563965	0.001221	-0.370117
204.0	7.250454	0.752383	7.491577	-0.006739	0.007999	-0.015875	-0.565918	-0.005371	-0.376953
205.0	7.253437	0.760389	7.469429	-0.005367	0.013325	-0.016014	-0.563965	0.001221	-0.374756
206.0	7.248541	0.753797	7.493286	-0.006128	0.010035	-0.01549	-0.563721	-0.003174	-0.372314
207.0	7.21503	0.746697	7.486006	-0.008834	0.008944	-0.018061	-0.564209	0.005615	-0.370361
208.0	7.246941	0.755098	7.494703	-0.006733	0.007997	-0.015873	-0.563477	-0.009766	-0.369873
209.0	7.267335	0.743628	7.495148	-0.006124	0.010034	-0.015488	-0.55957	-0.000977	-0.36792
210.0	7.256785	0.775775	7.504492	-0.022191	0.009002	-0.017467	-0.561523	-0.003174	-0.370117
211.0	7.244459	0.75539	7.497072	-0.023535	0.010264	-0.016164	-0.55957	-0.000977	-0.372314
212.0	7.258725	0.781761	7.483579	-0.029517	0.016251	-0.015352	-0.554688	-0.009766	-0.367676
213.0	7.24605	0.760731	7.476561	-0.030273	0.012959	-0.01483	-0.566162	0.001221	-0.370117
214.0	7.237174	0.747093	7.446693	-0.028746	0.019539	-0.015868	-0.561523	-0.003174	-0.372314
215.0	7.231767	0.738845	7.471177	-0.025297	0.017329	-0.014981	-0.563965	-0.000977	-0.372314
216.0	7.270623	0.758588	7.511874	-0.020348	0.015112	-0.016302	-0.557373	-0.003174	-0.36792
217.0	7.252037	0.777886	7.490464	-0.01389	0.016501	-0.014653	-0.563721	-0.007568	-0.37915
218.0	7.23938	0.758176	7.483279	-0.011347	0.012725	-0.016351	-0.557373	-0.003174	-0.374756
219.0	7.25959	0.746653	7.483935	-0.0064	0.01051	-0.017672	-0.563721	-0.003174	-0.370117
220.0	7.237319	0.759425	7.485146	-0.006689	0.014592	-0.014691	-0.561523	-0.003174	-0.36792
221.0	7.257556	0.748021	7.485771	-0.002207	0.008618	-0.013298	-0.55957	-0.003174	-0.372314
222.0	7.235554	0.760903	7.486702	-0.0043	0.009563	-0.015484	-0.561768	0.001221	-0.372559
223.0	7.255969	0.749517	7.48716	-0.006253	0.008786	-0.014569	-0.565918	-0.007568	-0.374512
224.0	7.222533	0.742391	7.479754	-0.004298	0.009563	-0.015483	-0.557129	-0.007568	-0.374512
225.0	7.250384	0.743568	7.511553	-0.006095	0.010038	-0.015473	-0.561768	-0.000977	-0.36792
226.0	7.220843	0.743811	7.481244	-0.006544	0.009254	-0.016764	-0.559326	-0.005371	-0.374512
227.0	7.256744	0.759634	7.467013	-0.007008	0.005493	-0.014052	-0.566162	-0.000977	-0.372314
228.0	7.259519	0.765281	7.521927	-0.009984	0.011457	-0.017648	-0.563965	0.001221	-0.370117
229.0	7.229797	0.7654	7.491804	-0.005037	0.012859	-0.01379	-0.55957	0.001221	-0.370117
230.0	7.257945	0.768628	7.446577	-0.007594	0.010043	-0.013265	-0.557373	-0.000977	-0.370117
231.0	7.249171	0.754486	7.493244	-0.004133	0.010815	-0.016383	-0.566162	-0.000977	-0.365479
232.0	7.226988	0.767246	7.494325	-0.005189	0.011605	-0.012885	-0.561523	-0.005371	-0.370117
233.0	7.251289	0.763294	7.471937	-0.004735	0.008777	-0.01677	-0.568359	0.001221	-0.370117
234.0	7.246436	0.756709	7.495664	-0.003233	0.012383	-0.013797	-0.557129	-0.005371	-0.372314
235.0	7.238117	0.744975	7.465135	-0.002192	0.008617	-0.013291	-0.564209	0.005615	-0.36792
236.0	7.237389	0.745698	7.46577	-0.006685	0.007996	-0.015857	-0.55957	-0.000977	-0.372314
237.0	7.255566	0.778934	7.505979	-0.001443	0.00532	-0.01498	-0.561768	-0.000977	-0.372314
238.0	7.236182	0.74739	7.46677	-0.004884	0.007521	-0.015865	-0.562012	0.003418	-0.376953
239.0	7.242964	0.760647	7.498621	-0.005038	0.006268	-0.014961	-0.563721	-0.007568	-0.370117
240.0	7.246286	0.768759	7.476229	-0.007128	0.00721	-0.017147	-0.561523	-0.007568	-0.367676
241.0	7.26684	0.757419	7.47661	-0.006679	0.007994	-0.015855	-0.557373	0.001221	-0.370117
242.0	7.23362	0.75019	7.468971	-0.007728	0.005171	-0.017536	-0.565918	-0.003174	-0.372314
243.0	7.244265	0.770585	7.477999	-0.00938	0.010509	-0.013251	-0.55957	-0.000977	-0.372314
244.0	7.218356	0.775556	7.501785	-0.006987	0.005486	-0.014047	-0.559326	-0.005371	-0.367676
245.0	7.242864	0.771399	7.479273	-0.012361	0.009881	-0.018021	-0.559814	0.005615	-0.370361
246.0	7.238102	0.764289	7.502944	-0.009979	0.00847	-0.013639	-0.566162	0.001221	-0.370117
247.0	7.255149	0.747491	7.449212	-0.009822	0.009723	-0.014542	-0.55957	-0.000977	-0.372314
248.0	7.261614	0.76032	7.481392	-0.009219	0.011761	-0.014151	-0.561523	-0.005371	-0.372314
249.0	7.228074	0.752861	7.47407	-0.005621	0.010816	-0.014168	-0.563965	-0.000977	-0.36792
250.0	7.259859	0.761249	7.483001	-0.01042	0.007683	-0.014931	-0.563965	0.001221	-0.372559
251.0	7.226522	0.753727	7.475483	-0.005774	0.009562	-0.013264	-0.55957	0.001221	-0.36792
252.0	7.254092	0.754781	7.507568	-0.008746	0.01552	-0.016855	-0.557373	-0.003174	-0.374756
253.0	7.256938	0.762699	7.485685	-0.009657	0.010974	-0.015441	-0.559814	0.003418	-0.372559
254.0	7.234695	0.775082	7.486794	-0.006968	0.012071	-0.012864	-0.557129	-0.005371	-0.374512
255.0	7.254898	0.763487	7.487583	-0.008608	0.013796	-0.013757	-0.562012	0.003418	-0.36792
256.0	7.221279	0.75594	7.480325	-0.00741	0.011286	-0.014155	-0.561523	-0.005371	-0.370117
257.0	7.231586	0.776205	7.489681	-0.011004	0.012228	-0.014139	-0.561523	-0.003174	-0.370117
258.0	7.255947	0.772287	7.467367	-0.002901	0.008304	-0.016764	-0.557373	-0.003174	-0.372314
259.0	7.251065	0.765405	7.491099	-0.010558	0.01301	-0.012845	-0.554932	-0.007568	-0.372314
260.0	7.242733	0.753126	7.460717	-0.011444	0.011441	-0.01543	-0.557129	-0.005371	-0.374512
261.0	7.25504	0.726592	7.50729	-0.009044	0.013009	-0.015046	-0.563721	-0.005371	-0.363281
262.0	7.230626	0.785838	7.471316	-0.007245	0.012538	-0.015053	-0.559326	-0.005371	-0.372314
263.0	7.25695	0.735045	7.48629	-0.0074	0.011283	-0.014151	-0.566162	-0.000977	-0.374756
264.0	7.245909	0.767375	7.495885	-0.00904	0.013007	-0.015044	-0.561523	-0.003174	-0.372314
265.0	7.237583	0.755314	7.465493	-0.006954	0.012067	-0.012857	-0.555176	-0.003174	-0.372314
266.0	7.228536	0.740749	7.512297	-0.013361	0.013631	-0.018515	-0.555176	-0.003174	-0.36792
267.0	7.267976	0.764073	7.475785	-0.006951	0.012067	-0.012856	-0.557129	-0.005371	-0.372314
268.0	7.234477	0.756539	7.468378	-0.007835	0.010498	-0.015442	-0.55957	-0.003174	-0.36792
269.0	7.256043	0.796929	7.486172	-0.007391	0.011282	-0.014148	-0.55957	-0.000977	-0.372314
270.0	7.228537	0.75004	7.493061	-0.006791	0.01332	-0.013754	-0.55957	0.001221	-0.365723
271.0	7.231485	0.757932	7.471134	-0.009186	0.01175	-0.01414	-0.55957	-0.003174	-0.372314
272.0	7.247835	0.738891	7.494737	-0.009626	0.010965	-0.015433	-0.557129	-0.005371	-0.372314
273.0	7.236783	0.771298	7.504293	-0.005431	0.012066	-0.015053	-0.55957	-0.000977	-0.365479
274.0	7.253945	0.754982	7.450669	-0.007983	0.009241	-0.014539	-0.565918	-0.005371	-0.376953
275.0	7.234885	0.772161	7.506034	-0.012618	0.013939	-0.015024	-0.55957	-0.003174	-0.36792
276.0	7.259298	0.768142	7.483796	-0.004542	0.00705	-0.013652	-0.563965	-0.000977	-0.370117
277.0	7.258539	0.768598	7.484486	-0.009335	0.010493	-0.013237	-0.55957	0.001221	-0.376953
278.0	7.232334	0.773263	7.508379	-0.009334	0.010492	-0.013237	-0.554932	-0.007568	-0.374512
279.0	7.267946	0.789144	7.494673	-0.009616	0.010962	-0.015429	-0.566406	0.003418	-0.374756
280.0	7.244596	0.749538	7.478542	-0.008891	0.011276	-0.011942	-0.563721	-0.005371	-0.372314
281.0	7.254889	0.769723	7.487908	-0.00933	0.010491	-0.013235	-0.55957	-0.000977	-0.376953
282.0	7.250035	0.762571	7.511572	-0.007972	0.009239	-0.014535	-0.55957	-0.000977	-0.372314
283.0	7.241854	0.750502	7.481101	-0.008133	0.014568	-0.012445	-0.561768	-0.000977	-0.365479
284.0	7.247805	0.763236	7.513656	-0.01021	0.015505	-0.01463	-0.55957	-0.003174	-0.376953
285.0	7.218266	0.763054	7.483386	-0.007966	0.009238	-0.014534	-0.563965	-0.000977	-0.370117
286.0	7.249857	0.771496	7.492598	-0.008726	0.012528	-0.012838	-0.561523	-0.003174	-0.370117
287.0	7.259006	0.740072	7.484837	-0.00513	0.011594	-0.01285	-0.55957	-0.003174	-0.370117
288.0	7.247876	0.77235	7.494426	-0.009162	0.011743	-0.014131	-0.557373	-0.003174	-0.372314
289.0	7.235707	0.752863	7.486809	-0.007645	0.011747	-0.016329	-0.565918	-0.005371	-0.370117
290.0	7.223582	0.733509	7.479139	-0.005566	0.010809	-0.014142	-0.563721	-0.003174	-0.372314
291.0	7.237963	0.761496	7.465534	-0.008116	0.007982	-0.013633	-0.563965	0.001221	-0.372559
292.0	7.261578	0.754851	7.52044	-0.011392	0.011423	-0.015417	-0.563721	-0.005371	-0.370117
293.0	7.228157	0.746968	7.512918	-0.011549	0.010167	-0.014519	-0.563965	-0.000977	-0.370117
294.0	7.224091	0.742068	7.459567	-0.019014	0.0125	-0.016686	-0.55957	-0.003174	-0.372314
295.0	7.266671	0.769694	7.477594	-0.024559	0.012641	-0.015769	-0.55957	-0.000977	-0.370117
296.0	7.229052	0.753098	7.493212	-0.027431	0.013883	-0.012269	-0.557373	0.001221	-0.372559
297.0	7.281685	0.748172	7.502753	-0.029065	0.015602	-0.013159	-0.568359	-0.000977	-0.370117
298.0	7.252027	0.746564	7.472752	-0.025906	0.013887	-0.014464	-0.561523	-0.003174	-0.36792
299.0	7.229414	0.757766	7.474192	-0.021835	0.016723	-0.017166	-0.55957	-0.000977	-0.374756
300.0	7.239282	0.77747	7.484023	-0.014092	0.01392	-0.012805	-0.563965	-0.000977	-0.36792
301.0	7.240449	0.730468	7.521939	-0.011252	0.009697	-0.012318	-0.563965	0.001221	-0.372559
302.0	7.247673	0.745928	7.477038	-0.007778	0.010496	-0.015418	-0.55957	-0.000977	-0.363281
303.0	7.225483	0.75832	7.477936	-0.00614	0.008776	-0.014527	-0.562012	0.003418	-0.370117
304.0	7.246102	0.747017	7.478451	-0.005862	0.008303	-0.012335	-0.557373	-0.000977	-0.374756
305.0	7.245431	0.74757	7.479047	-0.004501	0.007056	-0.013635	-0.561523	-0.005371	-0.365479
306.0	7.244501	0.748352	7.479869	-0.002835	0.0149	-0.015526	-0.561523	-0.007568	-0.372314
307.0	7.260936	0.729786	7.503343	-0.005369	0.005488	-0.016225	-0.561523	-0.003174	-0.374756
308.0	7.23884	0.742327	7.504119	-0.003309	0.011133	-0.012836	-0.561523	-0.005371	-0.376953
309.0	7.25305	0.770436	7.49073	-0.009566	0.010955	-0.01541	-0.55957	-0.000977	-0.374756
310.0	7.241081	0.750931	7.482921	-0.005697	0.009557	-0.013229	-0.55957	-0.003174	-0.372314
311.0	7.272555	0.759681	7.492292	-0.007014	0.013786	-0.015911	-0.561768	0.001221	-0.372559
312.0	7.239023	0.75203	7.484802	-0.006896	0.012058	-0.012823	-0.563965	-0.000977	-0.370117
313.0	7.227671	0.784289	7.494526	-0.004506	0.013634	-0.012428	-0.55957	-0.003174	-0.372314
314.0	7.265335	0.753813	7.518024	-0.004012	0.010821	-0.016319	-0.557129	-0.005371	-0.376953
315.0	7.239945	0.761435	7.464816	-0.008095	0.014558	-0.012417	-0.557373	0.001221	-0.36792
316.0	7.241832	0.766678	7.520093	-0.0033	0.011132	-0.012832	-0.561768	-0.000977	-0.370117
317.0	7.222842	0.734976	7.480825	-0.005528	0.01081	-0.014122	-0.554932	-0.005371	-0.370117
318.0	7.232988	0.755563	7.490278	-0.005527	0.01081	-0.014121	-0.559326	-0.005371	-0.370117
319.0	7.225076	0.743842	7.459635	-0.003297	0.011131	-0.01283	-0.555176	-0.000977	-0.365479
320.0	7.252509	0.745008	7.491836	-0.00732	0.011271	-0.014116	-0.557373	-0.000977	-0.370117
321.0	7.258638	0.757869	7.524082	-0.008345	0.008448	-0.015812	-0.55957	0.001221	-0.372559
322.0	7.254954	0.75362	7.470478	-0.00791	0.009231	-0.014515	-0.555176	-0.000977	-0.370117
323.0	7.254153	0.754182	7.471198	-0.008615	0.00892	-0.018001	-0.55957	-0.000977	-0.365479
324.0	7.227881	0.758916	7.494869	-0.00568	0.009552	-0.013223	-0.55957	-0.000977	-0.36792
325.0	7.248306	0.74756	7.495649	-0.010745	0.013447	-0.014999	-0.557373	-0.000977	-0.372314
326.0	7.247312	0.747795	7.496587	-0.011495	0.010151	-0.014505	-0.559326	-0.005371	-0.365479
327.0	7.235384	0.728101	7.488774	-0.009539	0.010946	-0.015403	-0.55957	-0.003174	-0.370117
328.0	7.256401	0.768422	7.507049	-0.010741	0.013445	-0.014997	-0.559326	-0.005371	-0.372314
329.0	7.22285	0.760596	7.499547	-0.009216	0.013457	-0.017191	-0.557129	-0.005371	-0.376953
330.0	7.232798	0.781032	7.509192	-0.009102	0.011728	-0.014106	-0.559326	-0.005371	-0.372314
331.0	7.220898	0.761399	7.501344	-0.010123	0.008905	-0.015803	-0.55957	-0.000977	-0.372314
332.0	7.266859	0.745972	7.479177	-0.00894	0.012983	-0.014998	-0.561523	-0.005371	-0.372314
333.0	7.247363	0.762867	7.534439	-0.008325	0.008444	-0.015806	-0.561768	-0.000977	-0.374756
334.0	7.228608	0.73099	7.495034	-0.009528	0.010943	-0.015399	-0.563721	-0.003174	-0.370117
335.0	7.238609	0.751461	7.504624	-0.007141	0.012523	-0.015	-0.55957	-0.003174	-0.372314
336.0	7.248612	0.772038	7.5142	-0.005504	0.010807	-0.01411	-0.557373	-0.003174	-0.374756
337.0	7.233837	0.747946	7.452089	-0.007138	0.012522	-0.014999	-0.561768	0.001221	-0.365723
338.0	7.246649	0.773124	7.515982	-0.009952	0.010158	-0.016694	-0.563721	-0.005371	-0.372314
339.0	7.256144	0.741846	7.508066	-0.006866	0.012048	-0.012808	-0.55542	0.003418	-0.376953
340.0	7.24201	0.769435	7.463349	-0.008583	0.008915	-0.017993	-0.559082	-0.009766	-0.372314
341.0	7.258385	0.750732	7.486925	-0.007402	0.012994	-0.017186	-0.557373	-0.003174	-0.372314
342.0	7.229092	0.750723	7.456412	-0.007721	0.010481	-0.015399	-0.561523	-0.005371	-0.374512
343.0	7.2455	0.731852	7.479977	-0.00729	0.011263	-0.014102	-0.55957	-0.003174	-0.372314
344.0	7.234054	0.764101	7.489656	-0.007557	0.011736	-0.016291	-0.557129	-0.005371	-0.367676
345.0	7.243514	0.732945	7.481793	-0.00935	0.012194	-0.016287	-0.561768	0.001221	-0.36792
346.0	7.236208	0.772936	7.468614	-0.006349	0.009238	-0.016697	-0.55957	-0.003174	-0.372314
347.0	7.231186	0.765959	7.492236	-0.00533	0.012061	-0.014996	-0.55957	-0.003174	-0.372314
348.0	7.230326	0.766493	7.493011	-0.008034	0.007965	-0.013611	-0.55957	-0.003174	-0.36792
349.0	7.214565	0.739445	7.507724	-0.004978	0.007997	-0.017996	-0.561768	0.001221	-0.376953
350.0	7.246144	0.74854	7.517053	-0.008138	0.009694	-0.016692	-0.563721	-0.005371	-0.372314
351.0	7.238471	0.73682	7.486291	-0.008136	0.009694	-0.016692	-0.561523	-0.005371	-0.374512
352.0	7.238118	0.789079	7.504494	-0.006234	0.007507	-0.013613	-0.561768	0.001221	-0.372559
353.0	7.24121	0.74576	7.464693	-0.007782	0.00563	-0.019692	-0.562012	0.003418	-0.376953
354.0	7.225978	0.770451	7.496799	-0.00666	0.006723	-0.014909	-0.561523	-0.003174	-0.370117
355.0	7.272409	0.755513	7.474337	-0.005291	0.005483	-0.016208	-0.561279	-0.009766	-0.372314
356.0	7.263659	0.740883	7.520373	-0.00529	0.005483	-0.016208	-0.557129	-0.005371	-0.372314
357.0	7.224287	0.772577	7.498209	-0.006657	0.006722	-0.014908	-0.557373	-0.003174	-0.372314
358.0	7.245097	0.761575	7.498692	-0.006921	0.007195	-0.017096	-0.559326	-0.005371	-0.372314
359.0	7.265886	0.750549	7.499203	-0.006228	0.007504	-0.01361	-0.565918	-0.003174	-0.372314
360.0	7.24783	0.770431	7.477112	-0.008287	0.008433	-0.015795	-0.55957	-0.000977	-0.370117
361.0	7.236238	0.750892	7.468998	-0.008446	0.007176	-0.014903	-0.563721	-0.003174	-0.374756
362.0	7.242315	0.763924	7.50114	-0.002741	0.008324	-0.016694	-0.565674	-0.009766	-0.372314
363.0	7.245609	0.772279	7.479073	-0.009226	0.010453	-0.013197	-0.563721	-0.007568	-0.374512
364.0	7.229758	0.745064	7.493891	-0.004107	0.009562	-0.015393	-0.563721	-0.003174	-0.370117
365.0	7.276315	0.781954	7.489213	-0.006486	0.007976	-0.015796	-0.561768	0.001221	-0.374756
366.0	7.243237	0.774142	7.481177	-0.008279	0.00843	-0.015793	-0.561768	-0.000977	-0.370117
367.0	7.242569	0.774762	7.48176	-0.00485	0.006264	-0.014906	-0.568115	-0.003174	-0.370117
368.0	7.263374	0.763767	7.48228	-0.008277	0.008429	-0.015792	-0.55957	-0.003174	-0.37915
369.0	7.241282	0.775965	7.482881	-0.005009	0.005007	-0.014015	-0.561523	-0.007568	-0.365479
370.0	7.225667	0.748745	7.497469	-0.00785	0.009212	-0.014494	-0.561523	-0.005371	-0.374512
371.0	7.253087	0.749857	7.529682	-0.010067	0.008882	-0.015788	-0.559814	0.003418	-0.372559
372.0	7.224375	0.749596	7.498628	-0.00797	0.00138	-0.014824	-0.563721	-0.003174	-0.370117
373.0	7.256212	0.758567	7.507758	-0.006053	0.008758	-0.014495	-0.563965	-0.000977	-0.370117
374.0	7.252923	0.754575	7.454024	-0.008855	0.006387	-0.016196	-0.561523	-0.003174	-0.372314
375.0	7.301998	0.744367	7.485993	-0.005104	0.006737	-0.01709	-0.566162	-0.000977	-0.36792
376.0	7.265115	0.780565	7.518202	-0.006635	0.006716	-0.0149	-0.565918	-0.003174	-0.365479
377.0	7.257774	0.768756	7.487202	-0.010645	0.006839	-0.016192	-0.563965	0.001221	-0.36792
378.0	7.261199	0.777204	7.465024	-0.002722	0.008325	-0.016684	-0.563965	-0.000977	-0.370117
379.0	7.245455	0.74997	7.479739	-0.013646	0.009783	-0.01578	-0.55957	0.001221	-0.374756
380.0	7.248736	0.758196	7.457729	-0.004091	0.009561	-0.015383	-0.561523	-0.005371	-0.367676
381.0	7.243733	0.751042	7.481299	-0.009471	0.010917	-0.015376	-0.563721	-0.005371	-0.367676
382.0	7.279233	0.76769	7.468126	-0.00947	0.010917	-0.015376	-0.561768	-0.000977	-0.36792
383.0	7.256749	0.779707	7.469089	-0.009307	0.012174	-0.016265	-0.561523	-0.007568	-0.367676
384.0	7.234077	0.740199	7.452469	-0.00735	0.012979	-0.017156	-0.559326	-0.007568	-0.372314
385.0	7.250473	0.77315	7.49382	-0.007088	0.012504	-0.014968	-0.563965	0.001221	-0.370117
386.0	7.234396	0.745713	7.508862	-0.012306	0.015116	-0.015852	-0.557129	-0.007568	-0.374512
387.0	7.237452	0.753872	7.487092	-0.007668	0.010463	-0.015375	-0.55957	-0.000977	-0.370117
388.0	7.258013	0.742799	7.487918	-0.006824	0.012029	-0.012779	-0.561523	-0.003174	-0.36792
389.0	7.235613	0.75475	7.48878	-0.010041	0.008873	-0.015781	-0.55957	-0.000977	-0.365479
390.0	7.267085	0.763757	7.498297	-0.008084	0.009679	-0.016671	-0.55957	-0.000977	-0.372314
391.0	7.259647	0.752058	7.467432	-0.008244	0.008421	-0.015782	-0.557373	0.001221	-0.376953
392.0	7.243912	0.776465	7.499819	-0.00792	0.010936	-0.017559	-0.562012	0.005615	-0.36792
393.0	7.23634	0.764743	7.46909	-0.009453	0.010912	-0.01537	-0.561523	-0.005371	-0.365479
394.0	7.246033	0.785389	7.478891	-0.007173	0.014234	-0.018037	-0.554688	-0.009521	-0.372314
395.0	7.255794	0.754523	7.470927	-0.008496	0.008894	-0.017967	-0.557373	-0.000977	-0.36792
396.0	7.246669	0.739388	7.517215	-0.00919	0.010436	-0.013182	-0.557373	-0.000977	-0.372314
397.0	7.26051	0.767566	7.504275	-0.010497	0.014658	-0.015846	-0.563965	-0.000977	-0.370117
398.0	7.252759	0.755703	7.473754	-0.008864	0.01295	-0.014958	-0.563721	-0.007568	-0.372314
399.0	7.251611	0.756097	7.474828	-0.010493	0.014657	-0.015845	-0.563965	-0.000977	-0.365479
400.0	7.239689	0.788094	7.484747	-0.009279	0.012166	-0.016255	-0.556885	-0.009766	-0.374512
401.0	7.223719	0.760733	7.499649	-0.009115	0.013424	-0.017142	-0.563965	0.001221	-0.36792
402.0	7.280608	0.766062	7.486684	-0.009019	0.011691	-0.014068	-0.557373	-0.003174	-0.370117
403.0	7.24306	0.750136	7.501653	-0.008531	0.015464	-0.016731	-0.563965	-0.000977	-0.372314
404.0	7.235124	0.738404	7.471322	-0.009742	0.017953	-0.016319	-0.557129	-0.005371	-0.37915
405.0	7.244581	0.759077	7.48134	-0.007732	0.012191	-0.018439	-0.55957	0.001221	-0.372559
406.0	7.232781	0.739666	7.473465	-0.009105	0.013421	-0.017139	-0.559326	-0.005371	-0.367676
407.0	7.259726	0.741118	7.506103	-0.007566	0.013448	-0.019325	-0.563721	-0.003174	-0.370117
408.0	7.226221	0.733471	7.498365	-0.005028	0.016298	-0.019801	-0.563965	-0.000977	-0.372314
409.0	7.222437	0.73006	7.445281	-0.008866	0.017668	-0.021985	-0.563965	0.001221	-0.370117
410.0	7.266445	0.712579	7.500934	-0.005277	0.016772	-0.021984	-0.55957	-0.000977	-0.363281
411.0	7.241138	0.720952	7.447817	-0.005945	0.016464	-0.025467	-0.561279	-0.009766	-0.365479
412.0	7.25274	0.695359	7.494715	-0.00529	0.021495	-0.029013	-0.557373	-0.000977	-0.370117
413.0	7.233782	0.716651	7.473304	0.000312	0.014841	-0.031133	-0.563721	-0.005371	-0.365479
414.0	7.231183	0.664128	7.533348	0.002712	0.005027	-0.036263	-0.559082	-0.009766	-0.369873
415.0	7.210059	0.67874	7.532632	0.003501	-0.024052	-0.045097	-0.55957	-0.003174	-0.36792
416.0	7.07676	0.581521	7.653	-0.002194	-0.067289	-0.060292	-0.55957	-0.003174	-0.372314
417.0	7.117736	0.910947	7.607353	-0.021184	-0.129963	-0.080878	-0.559326	-0.005371	-0.372314
418.0	7.172497	0.578868	7.566625	-0.033873	-0.185744	-0.086264	-0.559326	-0.005371	-0.365479
419.0	7.239708	0.89236	7.458928	-0.023231	-0.2245	-0.080579	-0.561279	-0.009766	-0.369873
420.0	7.186938	0.812952	7.582817	0.003149	-0.274032	-0.068305	-0.565918	-0.007568	-0.367676
421.0	7.307912	0.801047	7.415082	0.044986	-0.31473	-0.057109	-0.565918	-0.005371	-0.36084
422.0	7.405169	0.951546	7.452916	0.103506	-0.306412	-0.051922	-0.559326	-0.007568	-0.358643
423.0	7.299198	0.559116	7.425832	0.106433	-0.314352	-0.037327	-0.568115	-0.005371	-0.358643
424.0	7.362322	0.85692	7.37472	0.15021	-0.342356	-0.023763	-0.565918	-0.005371	-0.358643
425.0	7.481642	0.895947	7.240162	0.204186	-0.360048	-2.8e-05	-0.570068	-0.007568	-0.354004
426.0	7.564104	0.8645	7.17966	0.222595	-0.326027	0.011533	-0.572266	-0.011963	-0.356201
427.0	7.599635	0.907693	7.140768	0.232585	-0.264783	0.01521	-0.570068	-0.011963	-0.349365
428.0	7.509496	0.925269	7.183081	0.240398	-0.216399	0.02428	-0.570068	-0.011963	-0.347168
429.0	7.628357	0.876208	7.186379	0.232077	-0.171225	0.02314	-0.576416	-0.011963	-0.342529
430.0	7.550362	0.981263	7.214392	0.241223	-0.148248	0.020806	-0.569824	-0.01416	-0.347168
431.0	7.570255	1.071674	7.149574	0.259642	-0.119432	0.029892	-0.570068	-0.009766	-0.347168
432.0	7.517356	0.918865	7.127585	0.244054	-0.101927	0.035941	-0.569824	-0.01416	-0.347168
433.0	7.512681	0.96601	7.049587	0.222683	-0.09046	0.039613	-0.581055	-0.009766	-0.340332
434.0	7.513046	1.015334	7.103571	0.197031	-0.085034	0.038716	-0.574219	-0.011963	-0.344727
435.0	7.49283	1.030476	7.042431	0.161442	-0.069121	0.043797	-0.578857	-0.007568	-0.342529
436.0	7.52378	1.031895	7.089809	0.128686	-0.054436	0.045345	-0.576416	-0.016357	-0.344727
437.0	7.562154	1.053696	6.99184	0.101266	-0.045274	0.051739	-0.57666	-0.007568	-0.335693
438.0	7.452087	1.202741	7.069299	0.078761	-0.034582	0.061904	-0.572266	-0.009766	-0.342529
439.0	7.44828	1.293132	7.067471	0.045089	-0.031521	0.073841	-0.572021	-0.011963	-0.337891
440.0	7.40415	1.200322	7.056959	0.011956	-0.025655	0.09528	-0.574219	-0.011963	-0.337891
441.0	7.554732	1.106852	7.074029	0.013063	-0.02648	0.091805	-0.574463	-0.009766	-0.344971
442.0	7.328076	1.186166	7.014728	-0.041787	-0.06452	0.125604	-0.578857	-0.007568	-0.344971
443.0	7.396223	1.077487	7.09324	-0.059765	-0.056545	0.152384	-0.572266	-0.007568	-0.340332
444.0	7.384806	1.026364	7.127884	-0.074817	-0.066304	0.166158	-0.574463	-0.007568	-0.335693
445.0	7.42329	1.069042	7.069987	-0.09776	-0.068951	0.189941	-0.57666	-0.007568	-0.335693
446.0	7.384928	1.168116	7.045421	-0.110351	-0.080619	0.218179	-0.574707	-0.005371	-0.340332
447.0	7.449394	1.243326	7.080289	-0.128734	-0.072336	0.250773	-0.579102	-0.001221	-0.340576
448.0	7.498467	1.076789	7.219614	-0.136719	-0.073268	0.268586	-0.576904	-0.001221	-0.340576
449.0	7.471619	0.922912	7.353018	-0.152986	-0.072241	0.280881	-0.575195	0.005371	-0.338379
450.0	7.500704	0.665499	7.512931	-0.16014	-0.084497	0.277615	-0.574951	0.003174	-0.338379
451.0	7.470556	0.890558	7.815142	-0.165599	-0.112951	0.273887	-0.575439	0.011963	-0.338379
452.0	7.426966	1.239613	7.972729	-0.203129	-0.158626	0.294678	-0.575439	0.011963	-0.34082
453.0	7.064114	1.858762	8.586386	-0.281686	-0.228919	0.351057	-0.575439	0.01416	-0.333984
454.0	6.731289	1.738708	9.870681	-0.346966	-0.385962	0.423544	-0.584229	0.016357	-0.333984
455.0	7.292956	1.577715	10.676106	-0.329982	-0.688663	0.494303	-0.580078	0.020752	-0.324951
456.0	7.036138	2.172235	11.615517	-0.260764	-1.130577	0.614895	-0.580322	0.0271	-0.315918
457.0	7.450152	1.219238	10.823569	-0.217962	-1.563848	0.705127	-0.582764	0.031494	-0.309326
458.0	7.150636	1.177891	10.96493	-0.06479	-1.946061	0.827655	-0.587646	0.040039	-0.295654
459.0	7.364472	1.799583	11.082597	0.068423	-2.358991	0.956423	-0.590088	0.046631	-0.277588
460.0	7.174147	2.308106	10.998883	0.071531	-2.76386	1.116159	-0.592285	0.051025	-0.266357
461.0	7.201044	2.582032	10.782925	0.005837	-3.199246	1.298699	-0.594971	0.061768	-0.243652
462.0	8.650287	3.383858	10.443506	-0.093119	-3.58708	1.493476	-0.5979	0.074707	-0.223389
463.0	10.477142	4.428171	9.038504	-0.327813	-3.719085	1.666927	-0.600342	0.083496	-0.203125
464.0	11.974195	1.734305	6.864684	-0.231792	-3.564658	1.671232	-0.592285	0.098877	-0.189697
465.0	14.218661	0.544975	8.581816	0.33956	-2.731254	1.582901	-0.590576	0.109619	-0.180908
466.0	9.148732	2.542962	10.223892	0.621255	-2.022442	1.609748	-0.58667	0.116211	-0.169678
467.0	4.612059	3.745012	11.517679	0.739492	-1.502523	1.451419	-0.577881	0.118408	-0.165039
468.0	2.411884	5.574087	11.930431	0.619368	-0.969053	1.016409	-0.56958	0.125	-0.169678
469.0	2.42534	4.950662	11.995107	0.470462	-0.423672	0.340907	-0.565186	0.125	-0.176514
470.0	1.754703	4.873844	12.428296	0.540421	0.154098	-0.331125	-0.556396	0.123047	-0.190186
471.0	-0.386244	4.761937	12.751571	0.559135	0.477322	-0.843835	-0.542969	0.114502	-0.201416
472.0	-0.704582	3.601809	12.874591	0.519336	0.684161	-1.165846	-0.537842	0.101318	-0.214844
473.0	0.382419	2.336027	12.851434	0.560358	0.943022	-1.384979	-0.515381	0.086182	-0.230713
474.0	1.584132	1.571942	12.979375	0.635736	1.29992	-1.549646	-0.497803	0.079834	-0.257813
475.0	2.393912	1.510622	13.015041	0.636477	1.700564	-1.620928	-0.477783	0.071289	-0.273682
476.0	3.12883	1.006149	12.820475	0.566275	2.064666	-1.605587	-0.450928	0.058594	-0.298584
477.0	3.915203	0.191331	12.313198	0.519177	2.361249	-1.540211	-0.418213	0.056641	-0.31665
478.0	5.093229	-0.433418	11.64053	0.573899	2.586454	-1.459638	-0.383301	0.054688	-0.337158
479.0	6.341278	-0.424197	10.996674	0.687297	2.775006	-1.364364	-0.3396	0.057129	-0.353271
480.0	7.54	0.032219	10.311688	0.777337	2.902246	-1.269421	-0.300537	0.05957	-0.353516
481.0	8.77445	0.980963	9.712174	0.797623	2.978092	-1.175803	-0.252441	0.055664	-0.362549
482.0	9.744388	1.810174	9.245926	0.716335	3.039244	-1.080323	-0.21582	0.068848	-0.358154
483.0	10.453888	2.250441	8.615344	0.564968	3.060729	-1.014049	-0.166504	0.084473	-0.349609
484.0	10.762401	1.99348	7.996709	0.482746	3.033677	-0.942957	-0.143311	0.102051	-0.34082
485.0	10.894835	1.668671	7.384439	0.569368	2.951618	-0.882984	-0.109131	0.121826	-0.313721
486.0	11.323368	1.852192	6.767203	0.803709	2.831779	-0.837105	-0.084229	0.145996	-0.293945
487.0	11.775612	2.381197	6.044665	1.059709	2.733666	-0.823884	-0.073975	0.165527	-0.257813
488.0	11.867627	2.720438	5.457645	1.223396	2.642946	-0.893184	-0.070801	0.187256	-0.230957
489.0	11.344443	2.0919	4.76287	1.24772	2.50235	-1.045098	-0.075684	0.200439	-0.203857
490.0	10.896573	0.79797	4.067633	1.275295	2.260207	-1.227215	-0.085205	0.217773	-0.178955
491.0	11.408935	0.444181	3.47954	1.305831	1.996851	-1.333887	-0.103271	0.234863	-0.16333
492.0	12.155334	0.199951	2.920779	1.254523	1.805536	-1.343644	-0.121338	0.24585	-0.1521
493.0	12.845453	0.216592	2.258477	1.116206	1.700872	-1.289314	-0.143311	0.252197	-0.143066
494.0	13.081567	0.266918	1.638264	0.882108	1.652138	-1.182975	-0.172119	0.262939	-0.136475
495.0	13.301369	0.025046	0.765904	0.599502	1.635798	-1.042642	-0.189697	0.264893	-0.127441
496.0	12.581152	-0.04275	0.035488	0.335546	1.557448	-0.852616	-0.21167	0.264648	-0.131836
497.0	11.852817	-0.812139	-0.806811	0.106276	1.360402	-0.657694	-0.233643	0.269043	-0.136475
498.0	11.845515	-1.255594	-1.717209	0.039318	1.080407	-0.454804	-0.244873	0.277588	-0.127686
499.0	11.870253	-1.95053	-2.422717	0.079572	0.746857	-0.281544	-0.255615	0.275391	-0.129883
500.0	11.72497	-2.6687	-2.839613	0.206432	0.389405	-0.199149	-0.268799	0.277588	-0.129883
501.0	12.644412	-2.227618	-2.824829	0.241537	0.048271	-0.128858	-0.273682	0.286133	-0.129883
502.0	13.213613	-1.95766	-2.721914	0.072073	-0.250448	-0.030006	-0.282471	0.290527	-0.127686
503.0	13.576222	-1.954761	-2.646176	-0.258393	-0.513846	0.104144	-0.291504	0.299072	-0.121094
504.0	13.719201	-2.388969	-2.759802	-0.614226	-0.788988	0.286174	-0.29834	0.303467	-0.112061
505.0	13.282387	-0.131844	3.243419	-0.898479	-1.037526	0.477688	-0.294189	0.310059	-0.105469
506.0	5.438483	5.402085	21.807601	-1.57766	-1.542665	1.107208	-0.290771	0.327393	-0.09668
507.0	-26.323232	16.897279	40.131425	-1.530922	-2.631244	1.767326	-0.300049	0.342529	-0.064941
508.0	8.149232	6.148862	2.843121	-2.601511	-3.590508	1.632525	-0.302246	0.344727	-0.046875
509.0	19.679053	-3.489241	0.776707	-2.922656	-3.071657	0.965497	-0.307129	0.353271	-0.021973
510.0	14.256226	-2.482474	3.472008	-2.318511	-2.352884	-0.198743	-0.313721	0.355469	-0.005859
511.0	9.82376	1.349708	7.498067	-2.235994	-2.347767	-0.933254	-0.324463	0.353271	0.012451
512.0	9.860952	-0.660677	8.175825	-2.29064	-2.238991	-0.939289	-0.326416	0.34668	0.026123
513.0	8.473659	-7.478852	7.275931	-1.951862	-2.138915	-0.637191	-0.330811	0.348633	0.039795
514.0	16.709361	-8.441479	5.878109	-1.222196	-1.655759	0.136097	-0.333252	0.353027	0.051025
515.0	23.766891	-9.543741	4.489414	0.542423	-0.017337	1.144959	-0.331055	0.355225	0.046387
516.0	6.297794	9.085871	8.61244	-0.206193	-0.267659	0.384046	-0.327148	0.361816	0.044189
517.0	7.832834	-5.400308	7.985172	0.04235	-0.153647	0.452669	-0.325195	0.366211	0.046387
518.0	8.120616	0.485785	7.116889	0.201	-0.171284	0.203447	-0.322754	0.364014	0.046387
519.0	7.095517	0.50832	7.708405	0.246082	-0.166249	0.150352	-0.329346	0.364014	0.046387
520.0	7.651523	1.481559	7.635356	0.258353	-0.185402	0.133278	-0.318359	0.361816	0.046387
521.0	7.725831	1.331562	7.578976	0.228697	-0.211529	0.129993	-0.322998	0.366211	0.053223
522.0	7.571395	1.211219	7.441113	0.222731	-0.236278	0.104474	-0.318359	0.364014	0.048584
523.0	7.51699	1.394724	7.280002	0.195703	-0.23475	0.100262	-0.321045	0.372803	0.04834
524.0	7.636305	1.38341	7.24559	0.16464	-0.226944	0.098004	-0.314453	0.372803	0.052979
525.0	7.555082	1.194453	7.258713	0.135727	-0.213763	0.101189	-0.318604	0.368408	0.057617
526.0	7.576757	1.046304	7.250607	0.118663	-0.205726	0.09058	-0.31665	0.370605	0.050781
527.0	7.56974	1.111923	7.248991	0.110014	-0.192454	0.076646	-0.325439	0.372803	0.055176
528.0	7.509633	1.021511	7.19602	0.096933	-0.187336	0.071355	-0.318848	0.372803	0.059814
529.0	7.55999	0.987802	7.227942	0.08636	-0.18146	0.057295	-0.318848	0.375	0.052979
530.0	7.592018	0.919896	7.222255	0.088185	-0.174548	0.04613	-0.316895	0.375	0.04834
531.0	7.546156	1.022297	7.176352	0.090562	-0.168454	0.039345	-0.312256	0.372803	0.052979
532.0	7.650306	1.151284	7.083023	0.085658	-0.163556	0.015241	-0.323242	0.370605	0.055176
533.0	7.651089	1.454454	6.972535	0.067054	-0.150848	0.013157	-0.316895	0.379395	0.052734
534.0	7.560273	1.527025	6.991557	0.045089	-0.133412	0.02964	-0.314453	0.372803	0.052979
535.0	7.601916	1.535534	6.988954	0.010086	-0.114058	0.047065	-0.316895	0.377197	0.050537
536.0	7.627273	1.617454	6.95599	-0.022272	-0.100591	0.054717	-0.316895	0.375	0.062012
537.0	7.698343	1.785226	6.930059	-0.05466	-0.089105	0.075563	-0.317139	0.383545	0.05957
538.0	7.629681	1.734	6.903827	-0.090422	-0.069266	0.098709	-0.3125	0.377197	0.057373
539.0	7.646778	1.633086	6.878956	-0.136948	-0.056236	0.124982	-0.310303	0.375	0.059814
540.0	7.631754	1.51937	6.925655	-0.165011	-0.039866	0.151316	-0.3125	0.377197	0.064209
541.0	7.639556	1.50118	6.902695	-0.203712	-0.024172	0.162621	-0.310547	0.381592	0.062012
542.0	7.715546	1.713857	6.932475	-0.235711	0.00094	0.19703	-0.310547	0.381592	0.055176
543.0	7.667331	1.323707	6.956321	-0.261013	0.020879	0.210679	-0.310547	0.383789	0.061768
544.0	7.664059	0.915613	7.033156	-0.280289	0.034466	0.212325	-0.310547	0.381592	0.066406
545.0	7.661984	0.828522	7.023878	-0.268155	0.059778	0.189867	-0.310791	0.387939	0.073242
546.0	7.530736	0.812634	7.094304	-0.276213	0.058728	0.167034	-0.312744	0.383789	0.05957
547.0	7.453432	0.951459	7.064141	-0.300474	0.05804	0.160621	-0.308594	0.385986	0.061768
548.0	7.536112	0.924219	7.008804	-0.323739	0.066073	0.147781	-0.312744	0.381592	0.062012
549.0	7.459041	0.754379	7.016336	-0.346973	0.066269	0.134799	-0.306152	0.383789	0.05957
550.0	7.51308	0.617815	7.129554	-0.364913	0.058205	0.109333	-0.310547	0.383789	0.064209
551.0	7.480201	0.477536	7.149083	-0.364855	0.033517	0.088411	-0.306396	0.387939	0.070801
552.0	7.440289	0.730996	7.158921	-0.351767	0.010088	0.073719	-0.310547	0.383545	0.066406
553.0	7.60723	0.496786	7.145875	-0.318593	-0.029661	0.064707	-0.310791	0.385742	0.073242
554.0	7.536601	0.942495	7.180706	-0.269634	-0.06878	0.067512	-0.310791	0.385742	0.071045
555.0	7.473834	0.93658	7.30123	-0.231801	-0.112924	0.089339	-0.312988	0.385742	0.068604
556.0	7.533406	0.798439	7.288167	-0.202954	-0.172231	0.113799	-0.308838	0.390137	0.063965
557.0	7.625581	1.001475	7.489502	-0.162528	-0.231078	0.137505	-0.311035	0.390137	0.077637
558.0	7.481585	0.612327	7.716203	-0.173771	-0.290201	0.161904	-0.308594	0.387939	0.077637
559.0	7.474208	0.849631	8.036729	-0.219742	-0.344507	0.19761	-0.304199	0.387939	0.077637
560.0	7.014295	-0.144925	8.918482	-0.240945	-0.438974	0.231452	-0.308594	0.387939	0.084473
561.0	7.388327	-0.109886	9.052027	-0.137611	-0.6044	0.223835	-0.306641	0.390137	0.077637
562.0	6.953829	0.343385	10.159837	-0.062344	-0.828806	0.237934	-0.304199	0.387939	0.084473
563.0	7.099419	-0.384817	10.065207	0.021248	-1.149272	0.236626	-0.306396	0.385742	0.089111
564.0	7.13226	-0.260547	10.238653	0.111153	-1.477006	0.220453	-0.304443	0.392334	0.098145
565.0	7.146086	-0.306934	10.245846	0.141548	-1.835111	0.190178	-0.297607	0.387939	0.102783
566.0	6.551917	-0.027618	10.368112	0.125421	-2.200058	0.17988	-0.297607	0.383545	0.116455
567.0	6.871739	0.30043	10.166174	0.056032	-2.587278	0.192134	-0.299805	0.387939	0.12793
568.0	6.448295	1.177549	10.299903	-0.056043	-3.015626	0.220252	-0.295654	0.387939	0.13916
569.0	6.533333	1.758545	10.880573	-0.189587	-3.505023	0.249384	-0.292969	0.381348	0.157715
570.0	6.438998	3.451167	11.053324	-0.299833	-4.035598	0.331796	-0.290771	0.37915	0.173584
571.0	5.742458	4.19903	11.370043	-0.454163	-4.58796	0.558683	-0.28418	0.37915	0.191895
572.0	4.741823	3.909224	12.419654	-0.534772	-5.264426	0.779305	-0.277588	0.37915	0.221436
573.0	3.649549	3.798976	13.221788	-0.638642	-6.252909	0.98251	-0.264404	0.374756	0.251221
574.0	2.804802	3.356803	12.232262	-1.00579	-7.544112	1.128952	-0.244629	0.370361	0.290039
575.0	7.007652	-2.820495	7.859471	-0.86161	-8.881218	1.009255	-0.218506	0.372559	0.326416
576.0	15.071362	-2.738688	6.146712	0.185092	-9.083995	0.949619	-0.192383	0.372803	0.36499
577.0	22.264341	-2.130831	4.12752	0.744447	-8.239909	1.033093	-0.168701	0.379395	0.380859
578.0	24.722975	0.384915	4.120311	1.346935	-7.603298	1.039348	-0.140381	0.379639	0.396729
579.0	23.097772	1.990505	7.662878	1.483623	-6.938373	1.320216	-0.114258	0.381836	0.4104
580.0	19.934605	7.343335	12.155524	1.169421	-6.529993	1.661766	-0.092529	0.38623	0.42627
581.0	18.147975	9.899081	16.18669	0.281237	-6.17943	1.968798	-0.081543	0.38208	0.448975
582.0	12.653154	13.688539	17.739064	-0.906846	-6.098635	2.08315	-0.057129	0.371094	0.462891
583.0	15.164944	13.262179	14.369182	-2.546473	-5.212253	1.466715	-0.056152	0.351563	0.486084
584.0	18.156298	6.509903	13.144935	-3.431295	-2.483731	0.494783	-0.068115	0.325195	0.511719
585.0	16.903509	-0.038636	16.205315	-2.724357	0.333607	-0.612778	-0.104248	0.305176	0.516602
586.0	12.212145	-0.940229	17.794963	-1.729537	2.679613	-1.243857	-0.151123	0.281006	0.514893
587.0	3.469483	-1.859991	17.812801	-0.67779	3.869693	-1.324837	-0.192139	0.269775	0.501465
588.0	2.005944	-0.406601	15.97216	0.303796	4.418611	-1.063083	-0.248291	0.260742	0.476807
589.0	1.925517	-0.405374	14.199132	0.948198	4.862048	-0.7174	-0.293945	0.256348	0.44043
590.0	3.14133	-0.275124	12.443372	1.297806	5.259351	-0.424473	-0.334961	0.245117	0.411133
591.0	4.322554	0.049357	10.990708	1.472211	5.678613	-0.213634	-0.364746	0.229736	0.363525
592.0	5.019911	0.443742	9.882074	1.575094	6.036051	-0.093322	-0.396973	0.220947	0.320313
593.0	6.236058	0.898742	8.865564	1.605669	6.322087	-0.030228	-0.413574	0.201416	0.277588
594.0	7.395586	1.52172	7.816703	1.623207	6.5935	-0.064506	-0.434814	0.186035	0.241455
595.0	7.680006	2.596683	7.286657	1.569108	6.803886	-0.207164	-0.447266	0.172852	0.198242
596.0	7.733799	3.405382	6.992127	1.341442	6.889104	-0.415291	-0.463623	0.148926	0.162354
597.0	7.225234	3.443554	6.75059	1.024331	6.816313	-0.681015	-0.482422	0.131348	0.128662
598.0	7.353105	2.744061	6.345985	0.778471	6.577851	-1.012371	-0.495117	0.118408	0.099121
599.0	8.224117	2.375143	6.302471	0.71146	6.193274	-1.328407	-0.511719	0.098633	0.063232
600.0	9.818356	2.537781	6.216628	0.792927	5.763568	-1.577382	-0.525879	0.079102	0.0271
601.0	11.243502	2.89137	6.65864	0.898521	5.432614	-1.781917	-0.536133	0.063721	-0.002197
602.0	11.64672	2.968286	7.501862	1.019452	5.114745	-1.961741	-0.546387	0.048584	-0.040771
603.0	13.358919	3.349924	8.615719	1.119257	4.838709	-2.055243	-0.545898	0.037598	-0.079102
604.0	16.221098	2.519113	8.968208	1.267695	4.783789	-1.969185	-0.549072	0.009521	-0.128662
605.0	18.097643	0.136854	8.745102	1.724585	4.932193	-1.783016	-0.539795	-0.005615	-0.167236
606.0	18.723718	-2.187549	7.827125	2.562985	5.029042	-1.54987	-0.527588	-0.033936	-0.205322
607.0	18.818726	-3.080121	6.723773	3.560514	4.94004	-1.309863	-0.502686	-0.053223	-0.246094
608.0	19.588377	-3.904263	5.375768	4.300363	4.624846	-1.169996	-0.477539	-0.081543	-0.270752
609.0	22.191536	-3.002099	3.677675	4.615728	4.249539	-1.204717	-0.449951	-0.111816	-0.283691
610.0	23.669334	0.0928	1.861272	4.256631	3.984694	-1.216033	-0.422607	-0.135498	-0.285645
611.0	25.687471	1.231158	-0.384639	3.167531	3.809457	-1.323077	-0.404053	-0.161621	-0.298828
612.0	24.331902	-0.214137	-3.439775	1.820346	3.570204	-1.403076	-0.381348	-0.178955	-0.296143
613.0	24.171903	-3.359928	-7.212526	0.995496	3.005039	-1.506549	-0.365479	-0.194092	-0.286865
614.0	24.652701	-5.783561	-11.433722	0.629898	2.316352	-1.58078	-0.354248	-0.202881	-0.279785
615.0	23.580712	-7.557536	-14.713272	0.547139	1.522158	-1.557056	-0.342773	-0.21582	-0.270508
616.0	23.98911	-7.842152	-16.912162	0.295871	0.639221	-1.489343	-0.329102	-0.226807	-0.258789
617.0	24.160705	-7.932386	-17.125891	-0.235103	-0.150266	-1.29902	-0.324463	-0.235352	-0.247314
618.0	22.92653	-5.19181	-10.65853	-1.003386	-0.876129	-0.944635	-0.322266	-0.235352	-0.240479
619.0	14.672425	-1.052277	-9.110133	-3.57005	-3.62673	0.167	-0.324707	-0.229004	-0.210938
620.0	-8.98249	0.465153	23.584857	-4.086136	-6.484561	1.678694	-0.329346	-0.224854	-0.188232
621.0	27.685567	-0.582127	5.945307	-4.695808	-5.805951	1.35351	-0.333984	-0.213867	-0.165771
622.0	22.177413	-8.000555	-4.005705	-3.979729	-4.606974	1.593059	-0.336426	-0.20752	-0.145264
623.0	21.905128	-8.877376	4.998575	-2.669768	-3.800979	1.042839	-0.338623	-0.20752	-0.131592
624.0	12.60051	-5.279461	6.677105	-1.872371	-3.202156	0.951196	-0.334473	-0.20752	-0.11792
625.0	21.503957	-0.81593	5.126948	-1.718171	-2.620558	1.078229	-0.334717	-0.200928	-0.104492
626.0	32.162273	-3.617356	1.998302	-0.053174	-0.466901	2.035852	-0.339355	-0.194336	-0.104492
627.0	1.042195	9.342883	9.265358	-0.705445	-0.65815	1.639621	-0.343994	-0.187988	-0.102295
628.0	12.322966	-5.239684	6.691541	-0.600632	-0.32717	1.669151	-0.3396	-0.185791	-0.100098
629.0	10.200282	-0.954741	7.032968	-0.403486	-0.114325	1.29905	-0.335693	-0.179199	-0.100342
630.0	7.930227	-1.069355	7.744451	-0.285243	-0.010262	1.143171	-0.33374	-0.174805	-0.098145
631.0	8.705754	-1.575887	7.682731	-0.286556	-0.01133	0.992577	-0.331787	-0.168213	-0.093506
632.0	7.505656	-1.466759	8.017714	-0.211249	-0.062296	0.818306	-0.334229	-0.163818	-0.100586
633.0	7.841558	-1.146662	7.865135	-0.125649	-0.082807	0.65415	-0.336426	-0.161621	-0.100586
634.0	7.570865	0.021705	7.655508	-0.096104	-0.082546	0.546911	-0.338867	-0.157471	-0.09375
635.0	7.281446	0.720534	7.602282	-0.133134	-0.104406	0.479707	-0.336426	-0.161621	-0.09375
636.0	7.876147	0.281644	7.017587	-0.186126	-0.093416	0.426527	-0.338623	-0.161621	-0.09375
637.0	7.726584	0.025684	7.030571	-0.181957	-0.063697	0.356789	-0.336426	-0.159424	-0.095947
638.0	7.503458	0.203534	7.448842	-0.18253	-0.043463	0.298848	-0.34082	-0.159668	-0.098389
639.0	7.727289	-0.138182	7.203582	-0.154816	-0.028783	0.233705	-0.332275	-0.157227	-0.09375
640.0	7.883706	-0.152688	7.004361	-0.131407	0.01009	0.151505	-0.334229	-0.159424	-0.098389
641.0	7.707849	0.396435	7.198936	-0.172513	0.05635	0.101819	-0.33667	-0.155273	-0.105225
642.0	7.641288	0.468825	7.295695	-0.211622	0.111245	0.059283	-0.33252	-0.153076	-0.096191
643.0	7.608334	0.553503	7.381501	-0.259468	0.149732	0.036462	-0.338867	-0.155273	-0.096191
644.0	7.593486	0.568217	7.30243	-0.312835	0.184806	0.009459	-0.33667	-0.155273	-0.103027
645.0	7.466887	0.64117	7.322228	-0.320419	0.190923	-0.001185	-0.332275	-0.157227	-0.105225
646.0	7.472176	0.877545	7.25912	-0.338755	0.185614	0.000477	-0.332275	-0.155029	-0.107666
647.0	7.518259	0.898441	7.222272	-0.338444	0.161457	0.016092	-0.330078	-0.155029	-0.107666
648.0	7.377044	1.221998	7.309146	-0.354515	0.139718	0.044704	-0.330078	-0.155029	-0.105225
649.0	7.341132	1.007493	7.367632	-0.366758	0.098971	0.091963	-0.334473	-0.155029	-0.109863
650.0	7.239236	0.442567	7.409095	-0.376554	0.026862	0.118125	-0.330322	-0.152832	-0.107666
651.0	7.325967	0.225207	7.503864	-0.337462	-0.043404	0.112161	-0.332275	-0.155029	-0.098389
652.0	7.322661	0.504057	7.564507	-0.317183	-0.096124	0.134103	-0.334473	-0.155029	-0.105225
653.0	7.292874	0.592376	7.61191	-0.317302	-0.145288	0.155381	-0.328369	-0.148438	-0.103027
654.0	7.330099	0.318848	7.690784	-0.318268	-0.187056	0.200668	-0.330566	-0.148438	-0.109863
655.0	7.307361	0.077639	7.632471	-0.30485	-0.234337	0.227579	-0.330566	-0.146484	-0.110107
656.0	7.244852	-0.413067	7.639341	-0.270144	-0.297456	0.257413	-0.328369	-0.146484	-0.098633
657.0	7.462308	-1.599107	7.372134	-0.014195	-0.399684	0.268234	-0.328369	-0.148682	-0.096191
658.0	6.448946	1.054369	8.686426	0.013398	-0.515919	0.260857	-0.328369	-0.146484	-0.098633
659.0	7.625308	0.151787	9.216679	-0.18065	-0.641714	0.280899	-0.330566	-0.144287	-0.093994
660.0	7.073365	0.695061	8.83436	-0.085207	-0.852395	0.267388	-0.332764	-0.144287	-0.082764
661.0	6.630735	-0.822042	8.916928	-0.156807	-0.99823	0.322368	-0.332764	-0.146484	-0.082764
662.0	7.173689	-0.589518	9.127308	-0.104648	-1.214106	0.298826	-0.337402	-0.137695	-0.07373
663.0	7.069967	-0.535826	9.356717	-0.019076	-1.456906	0.265608	-0.337158	-0.146484	-0.069092
664.0	6.874603	-0.926144	9.59604	0.063511	-1.73155	0.234774	-0.334961	-0.144287	-0.05542
665.0	6.811427	-1.065674	9.756888	0.109119	-2.024021	0.205426	-0.337646	-0.135742	-0.046387
666.0	6.562052	-1.332961	10.019953	0.127183	-2.350135	0.179836	-0.337402	-0.137939	-0.037354
667.0	6.262644	-0.967789	10.562474	0.095943	-2.704482	0.159431	-0.335449	-0.133545	-0.01001
668.0	6.14599	-0.064249	10.75668	0.035715	-3.169614	0.147446	-0.339844	-0.135742	0.006104
669.0	5.878732	1.132102	11.02297	-0.040065	-3.723612	0.186277	-0.333252	-0.133545	0.021973
670.0	5.719322	2.080213	12.132442	-0.085804	-4.400662	0.261675	-0.331299	-0.129395	0.053711
671.0	5.565492	3.788869	12.872448	-0.241921	-5.163398	0.402946	-0.326904	-0.129395	0.085693
672.0	4.389654	5.513797	13.909149	-0.478807	-6.047236	0.706001	-0.313965	-0.127197	0.115234
673.0	2.516879	5.722241	15.449681	-0.906143	-7.206696	1.064965	-0.302979	-0.127197	0.151611
674.0	1.856255	1.038899	12.213254	-1.412443	-8.89087	1.335083	-0.274658	-0.127197	0.206299
675.0	10.460366	-4.65558	6.934761	-0.878623	-10.227828	1.233442	-0.241943	-0.125	0.251953
676.0	19.808046	-3.999933	7.75309	0.247867	-9.859783	1.117227	-0.21167	-0.118408	0.304199
677.0	24.249025	1.1934	4.457488	1.082144	-9.259708	1.12409	-0.168945	-0.100586	0.333252
678.0	27.49168	2.301902	6.268769	1.258389	-8.453955	1.479144	-0.136963	-0.085205	0.374023
679.0	26.008802	8.758949	11.45631	1.275661	-7.683514	2.03046	-0.105225	-0.061035	0.400879
680.0	25.450161	12.507435	15.93409	0.437227	-6.955665	2.387253	-0.07373	-0.036865	0.425293
681.0	19.707103	13.686584	18.071812	-0.738025	-6.291524	2.527823	-0.036865	-0.030273	0.447998
682.0	18.326546	15.389364	13.564964	-2.727148	-5.359083	1.818497	-0.013184	-0.025879	0.463867
683.0	22.662384	7.543141	10.16742	-3.690873	-2.221782	0.491349	-0.002197	-0.023438	0.479736
684.0	21.915819	2.021867	13.819319	-2.970525	0.91122	-0.807795	-0.013428	-0.019287	0.493408
685.0	12.314786	1.721458	16.43495	-2.312459	3.135642	-1.359344	-0.039795	-0.010742	0.5
686.0	2.908876	-1.379415	15.950815	-1.303309	3.809452	-1.349942	-0.068848	0.004395	0.49292
687.0	1.697949	-0.915221	14.061332	-0.171687	3.944259	-1.068358	-0.09375	0.021729	0.501709
688.0	1.766031	-1.512084	12.601515	0.696538	4.188406	-0.776323	-0.123535	0.052002	0.492188
689.0	2.352087	-0.948795	11.618906	1.281383	4.477767	-0.530329	-0.155029	0.078125	0.489258
690.0	2.535555	-0.127181	10.796926	1.626147	4.857309	-0.353706	-0.189453	0.11499	0.481689
691.0	2.280213	0.508133	10.347571	1.809775	5.203141	-0.292301	-0.213379	0.160645	0.469482
692.0	2.228005	1.098037	10.057817	1.812072	5.492617	-0.362646	-0.250488	0.210693	0.452637
693.0	2.598117	1.481325	9.726237	1.737328	5.72274	-0.545742	-0.283203	0.258545	0.428955
694.0	3.907573	1.727083	9.439629	1.591393	5.943124	-0.814723	-0.327148	0.314941	0.409668
695.0	5.289001	1.65624	9.336126	1.3907	6.189194	-1.12213	-0.381836	0.369385	0.383545
696.0	6.457658	1.491797	9.143507	1.204502	6.437813	-1.40991	-0.443115	0.421387	0.346191
697.0	7.726176	1.034298	8.622485	1.084911	6.672966	-1.630257	-0.501953	0.467041	0.292969
698.0	8.444717	0.577796	8.43792	1.07385	6.846727	-1.772444	-0.566895	0.503906	0.223877
699.0	9.211605	-0.095394	8.607072	1.13578	6.857465	-1.864654	-0.626953	0.529785	0.150635
700.0	10.885064	-0.58872	8.373765	1.357198	6.75425	-1.88954	-0.681885	0.542725	0.063721
701.0	12.408079	-0.547029	8.268051	1.706306	6.631415	-1.889221	-0.736328	0.540527	-0.027344
702.0	14.307242	-0.10577	8.621253	2.026888	6.425835	-1.889166	-0.783691	0.527344	-0.113525
703.0	16.840871	1.229549	9.134316	2.152436	6.225748	-1.896194	-0.819336	0.492432	-0.224609
704.0	18.238574	2.369681	9.524081	2.024368	6.023357	-1.812672	-0.844971	0.431396	-0.323486
705.0	20.907576	2.212123	9.378077	1.902495	5.841863	-1.715495	-0.837646	0.366211	-0.415771
706.0	23.866996	-0.140178	7.358439	2.014263	5.713169	-1.753703	-0.805908	0.288086	-0.500977
707.0	25.588221	-2.947934	4.477943	2.570865	5.495882	-2.017256	-0.758301	0.198975	-0.567627
708.0	27.663429	-2.200114	1.414608	3.129854	5.004068	-2.345989	-0.698486	0.127441	-0.614014
709.0	29.667773	0.591743	-2.414377	3.070884	4.408485	-2.460399	-0.632813	0.075684	-0.64502
710.0	31.21611	1.455818	-6.665381	2.241296	3.81597	-2.439867	-0.567627	0.032471	-0.651123
711.0	30.985066	-1.460466	-11.468295	1.146589	3.242439	-2.353556	-0.514404	0.010986	-0.64624
712.0	28.755472	-6.299497	-15.369178	0.501709	2.556755	-2.279302	-0.472656	0.004639	-0.63916
713.0	26.971609	-8.058951	-17.783344	0.181766	1.670593	-2.181179	-0.459229	-0.003906	-0.629883
714.0	27.946886	-8.166274	-20.249109	-0.300224	0.830087	-1.95233	-0.441406	-0.012695	-0.618408
715.0	27.609011	-8.711831	-21.775782	-0.852343	0.123958	-1.500961	-0.430176	-0.014893	-0.609375
716.0	26.053837	-9.782577	-20.977385	-1.089526	-0.763382	-0.876657	-0.441406	-0.008301	-0.611816
717.0	23.851152	-3.73283	-8.815183	-1.189222	-1.740248	-0.211153	-0.441895	0.002686	-0.598145
718.0	7.304142	4.949757	15.25232	-3.183725	-4.152711	1.221006	-0.469238	0.028564	-0.582764
719.0	-26.219686	6.540941	32.469336	-3.115377	-6.62385	2.120085	-0.48584	0.058838	-0.546875
720.0	34.850912	-0.008384	-6.78903	-5.15774	-5.534643	1.494236	-0.500244	0.087158	-0.50415
721.0	17.973361	-13.438291	-3.089992	-3.377122	-4.93868	0.764703	-0.526855	0.097656	-0.483887
722.0	18.352017	-4.777806	5.799583	-2.365322	-4.388579	-0.074831	-0.53833	0.11084	-0.458984
723.0	11.491634	-4.673469	7.750468	-2.169818	-4.063709	-0.01909	-0.547607	0.119385	-0.436279
724.0	48.684466	-6.047315	-3.645897	-1.736832	-1.96924	1.389058	-0.543701	0.132568	-0.438965
725.0	13.744858	11.242164	10.115614	0.31291	-0.222883	1.716144	-0.546387	0.145508	-0.43457
726.0	6.21296	-5.967637	7.703447	-0.886495	-0.641372	1.446133	-0.549072	0.1521	-0.430176
727.0	10.548579	-3.671202	6.635032	-0.299182	-0.365306	1.00872	-0.549316	0.158691	-0.427979
728.0	8.762434	-3.782843	7.775904	-0.127484	-0.295402	0.702272	-0.547119	0.160889	-0.43042
729.0	8.228464	-1.447284	7.155301	0.033196	-0.319866	0.407761	-0.549561	0.167236	-0.432617
730.0	7.955356	-0.040213	7.108491	0.114482	-0.328014	0.29363	-0.551758	0.165039	-0.425781
731.0	7.597103	1.137303	7.591235	0.116483	-0.334183	0.21328	-0.547363	0.163086	-0.425781
732.0	7.709835	2.256448	7.639092	-0.007821	-0.310106	0.252665	-0.554199	0.169434	-0.43042
733.0	8.108691	1.819462	6.72201	-0.004432	-0.268982	0.270951	-0.554199	0.173828	-0.421387
734.0	8.121457	4.494038	7.005353	-0.048693	-0.176578	0.372095	-0.554443	0.176025	-0.421387
735.0	8.015963	1.598931	6.887751	-0.148242	-0.085409	0.46431	-0.550049	0.176025	-0.421387
736.0	8.36921	0.930842	7.008062	-0.136112	0.021389	0.439944	-0.550537	0.184814	-0.42627
737.0	8.009701	0.176669	7.078358	-0.129809	0.093675	0.395051	-0.550293	0.18042	-0.430664
738.0	7.846727	-0.111769	7.193372	-0.109899	0.133745	0.328448	-0.554688	0.182617	-0.430664
739.0	7.763495	0.675331	7.134281	-0.146973	0.152386	0.263837	-0.550293	0.18042	-0.432861
740.0	7.870507	1.296473	7.03375	-0.205762	0.211232	0.239953	-0.550781	0.191406	-0.435547
741.0	7.688347	1.094715	7.105687	-0.288709	0.255036	0.240733	-0.54834	0.184814	-0.439941
742.0	7.741071	0.923034	7.074346	-0.346164	0.283244	0.230973	-0.545898	0.182617	-0.435303
743.0	7.665604	0.979559	7.07023	-0.401553	0.290716	0.227905	-0.544434	0.195801	-0.442383
744.0	7.540644	0.783772	7.237169	-0.425201	0.274817	0.230059	-0.541992	0.191406	-0.451416
745.0	7.223863	0.48342	7.462754	-0.461188	0.228119	0.238533	-0.540039	0.193604	-0.447021
746.0	7.333997	-0.165176	7.407411	-0.465086	0.153669	0.218486	-0.546387	0.193604	-0.449219
747.0	7.288092	-0.23029	7.429501	-0.438968	0.090106	0.20275	-0.546875	0.20459	-0.449463
748.0	7.349025	-0.460216	7.434803	-0.394797	0.041843	0.171262	-0.551514	0.206543	-0.449463
749.0	7.483853	-0.449799	7.425199	-0.333808	0.015109	0.141035	-0.549316	0.206543	-0.442627
750.0	7.39299	-0.494199	7.42871	-0.266956	-0.016186	0.10895	-0.545166	0.213135	-0.451904
751.0	7.560292	0.089464	7.536846	-0.193596	-0.056586	0.074171	-0.547363	0.210938	-0.447266
752.0	7.470324	0.505315	7.613711	-0.170831	-0.095669	0.064389	-0.544922	0.208984	-0.447266
753.0	7.390834	0.222408	7.704851	-0.127936	-0.153285	0.07687	-0.549316	0.210938	-0.445068
754.0	7.023993	0.368221	8.07027	-0.054519	-0.248518	0.07889	-0.549561	0.213135	-0.445068
755.0	7.463993	0.86479	7.882819	-0.033366	-0.361359	0.088796	-0.547363	0.213135	-0.435791
756.0	7.821697	1.013304	8.491027	-0.07978	-0.486378	0.128791	-0.553467	0.206543	-0.433594
757.0	6.064406	0.434225	8.805453	-0.126829	-0.645194	0.186443	-0.556152	0.213135	-0.431396
758.0	7.731876	-0.141561	8.227039	-0.115772	-0.797912	0.204759	-0.551758	0.215332	-0.419922
759.0	6.949345	0.059833	8.758115	-0.099148	-1.001316	0.20147	-0.556152	0.213135	-0.40625
760.0	7.231844	-0.165462	8.556756	-0.041898	-1.202426	0.189018	-0.55835	0.215088	-0.397217
761.0	7.068798	-0.373032	8.930974	0.00361	-1.411265	0.173178	-0.562744	0.215088	-0.381104
762.0	6.963095	-0.383069	9.312494	0.06922	-1.679005	0.132833	-0.562744	0.217285	-0.37207
763.0	6.984221	-0.341464	9.444792	0.086899	-1.964286	0.108538	-0.567139	0.215088	-0.35376
764.0	6.660844	-0.159841	9.731115	0.098253	-2.295709	0.102146	-0.571045	0.208496	-0.331055
765.0	6.580423	-0.09761	9.851502	0.061258	-2.674683	0.097041	-0.572998	0.199707	-0.305664
766.0	6.409545	0.365815	9.935769	0.070613	-3.11148	0.097126	-0.575195	0.203857	-0.280762
767.0	6.278792	0.887322	10.313924	0.055438	-3.571958	0.13437	-0.574951	0.197266	-0.244141
768.0	6.020081	1.513759	10.598688	0.004876	-4.111971	0.197283	-0.572754	0.197266	-0.203125
769.0	5.254696	1.403606	11.800232	-0.043003	-4.752337	0.309492	-0.572754	0.194824	-0.162109
770.0	4.3451	2.135601	14.001088	-0.056014	-5.670016	0.400188	-0.566406	0.199219	-0.116455
771.0	2.806796	3.99397	14.372885	-0.20746	-6.822776	0.541652	-0.557373	0.19458	-0.054932
772.0	1.660564	2.957547	13.247531	-0.390937	-8.240606	0.697596	-0.537354	0.186035	0.013672
773.0	6.065311	-3.316931	8.278111	-0.098778	-9.756376	0.551403	-0.502197	0.179443	0.079834
774.0	14.464969	-3.241328	5.960299	0.883976	-10.20542	0.390273	-0.47583	0.179443	0.152588
775.0	22.135359	-3.768813	3.979519	1.451657	-9.658372	0.384934	-0.425781	0.179688	0.214111
776.0	25.406582	3.746418	3.504237	2.020185	-9.143935	0.479671	-0.384277	0.17749	0.261963
777.0	25.670414	2.54907	6.472356	2.17421	-8.305632	0.906519	-0.332031	0.179932	0.309814
778.0	24.79267	8.861958	11.283486	2.021647	-7.543409	1.556222	-0.281494	0.173584	0.353027
779.0	24.436848	13.930856	16.621929	1.097212	-6.875835	2.163377	-0.229004	0.167236	0.389648
780.0	18.501395	15.262104	18.277566	-0.640454	-6.230725	2.514592	-0.175781	0.150146	0.424072
781.0	16.885872	14.749082	13.541774	-3.028562	-4.962516	2.063475	-0.130615	0.115479	0.454346
782.0	20.211641	3.64058	10.336666	-3.9589	-1.681585	0.921002	-0.109619	0.084961	0.468506
783.0	21.441757	-0.932652	13.27732	-2.885469	1.684969	-0.233882	-0.101807	0.056641	0.480469
784.0	12.284198	-1.562229	15.100856	-1.802264	3.940912	-0.774755	-0.116211	0.034668	0.490234
785.0	2.934137	-1.760063	14.74132	-0.632784	4.573502	-0.760347	-0.119629	0.01709	0.492676
786.0	2.624841	0.435903	12.975541	0.345824	4.660812	-0.468502	-0.134277	0.003906	0.504395
787.0	2.05371	0.344443	11.562295	0.849717	4.821247	-0.140939	-0.154053	0.005859	0.506592
788.0	2.716118	0.60129	10.535877	1.104538	4.982508	0.07142	-0.178467	0.012451	0.504395
789.0	3.607636	0.588502	9.682701	1.252639	5.218178	0.175968	-0.202393	0.012207	0.504395
790.0	4.350297	1.186433	9.06682	1.337052	5.513448	0.172474	-0.235352	0.018555	0.501953
791.0	4.7234	1.909592	8.790018	1.32083	5.825749	0.094301	-0.274902	0.0271	0.495117
792.0	5.624847	2.862321	8.851717	1.215574	6.105217	-0.038058	-0.3125	0.040039	0.485596
793.0	6.881342	3.580375	8.821393	0.996937	6.393173	-0.215251	-0.354492	0.050537	0.460449
794.0	7.765568	3.608644	8.557911	0.740287	6.697306	-0.448583	-0.406982	0.05249	0.442139
795.0	8.722941	3.535243	8.030266	0.5301	6.958026	-0.713715	-0.451172	0.063232	0.407959
796.0	9.166712	2.494594	7.391415	0.453524	7.155205	-0.988238	-0.503906	0.071777	0.359863
797.0	9.470854	1.808542	7.175508	0.574884	7.231551	-1.322207	-0.536621	0.071777	0.305176
798.0	10.379447	1.202239	7.248727	0.813437	7.169407	-1.600409	-0.575928	0.07373	0.250488
799.0	12.115693	1.78736	6.806743	1.185439	7.019439	-1.749279	-0.595215	0.069336	0.187012
800.0	13.22889	2.196579	6.911045	1.576262	6.804942	-1.768533	-0.617432	0.07373	0.125244
801.0	14.453294	2.311234	7.31044	1.864131	6.500249	-1.712455	-0.625977	0.073975	0.070557
802.0	15.4482	1.606535	7.361646	2.250923	6.114863	-1.62354	-0.632813	0.078369	0.024902
803.0	17.368302	2.140198	7.5952	2.766394	5.663489	-1.509892	-0.632813	0.076172	-0.027344
804.0	20.372874	1.973115	7.701837	3.21905	5.373443	-1.297488	-0.628662	0.083008	-0.077637
805.0	22.948437	-1.253861	5.517158	3.899935	5.264378	-1.249818	-0.62207	0.081055	-0.116455
806.0	22.743241	-5.285781	3.325762	4.970532	4.9469	-1.66341	-0.625977	0.070068	-0.164063
807.0	24.898933	-1.301282	1.489297	5.598403	4.276411	-2.253898	-0.62085	0.054932	-0.193359
808.0	27.871378	3.772046	-0.387458	4.739426	3.732009	-2.595127	-0.617676	0.031006	-0.222656
809.0	28.285415	2.656192	-3.20969	2.676357	3.420077	-2.645018	-0.614746	0.013672	-0.245117
810.0	28.186507	-3.127505	-7.49564	0.978766	3.094288	-2.542017	-0.614014	0.000732	-0.269775
811.0	27.793989	-6.071661	-10.724403	0.137468	2.792759	-2.386971	-0.615723	-0.014648	-0.290039
812.0	26.375474	-6.292786	-13.492793	-0.601814	2.489262	-2.198461	-0.610596	-0.027588	-0.308105
813.0	23.792275	-7.996816	-16.270413	-1.37385	1.925849	-1.947083	-0.612549	-0.03418	-0.319336
814.0	22.354407	-10.793562	-18.256974	-1.633794	0.860709	-1.566664	-0.614502	-0.040771	-0.32373
815.0	23.079081	-11.736476	-17.613643	-1.46277	-0.276728	-1.199487	-0.618652	-0.042969	-0.316895
816.0	23.179721	-10.467058	-14.595773	-1.293956	-1.202171	-0.898678	-0.627197	-0.049561	-0.307617
817.0	23.07708	-8.933954	-10.215025	-1.401103	-1.863076	-0.572978	-0.634277	-0.038818	-0.296387
818.0	12.410966	1.47761	22.245287	-2.440727	-2.938845	0.574231	-0.650146	-0.025879	-0.269287
819.0	-40.997514	6.876058	40.119321	-1.454346	-5.516898	2.744929	-0.664307	0.000244	-0.217285
820.0	25.832905	6.97162	-0.956793	-3.988326	-6.177969	2.473643	-0.676514	0.030518	-0.167725
821.0	25.664936	-12.087834	-6.561509	-3.010396	-4.503722	2.349527	-0.677002	0.043457	-0.140625
822.0	18.604457	-1.376675	3.781715	-2.115744	-4.356894	0.88305	-0.684082	0.054199	-0.097656
823.0	11.999771	1.252457	8.041322	-2.042927	-3.85	0.733447	-0.68457	0.062988	-0.072754
824.0	33.67428	2.445096	0.223407	-2.462125	-2.875641	1.185974	-0.685059	0.075928	-0.056885
825.0	34.817413	-2.884492	4.759638	0.106964	0.127397	2.271188	-0.683838	0.095703	-0.05957
826.0	-2.611018	2.249545	9.673809	-1.266313	-0.544434	1.614599	-0.69043	0.095703	-0.04834
827.0	12.301481	-8.438346	7.570401	-0.701121	-0.241605	1.317442	-0.688965	0.113037	-0.039551
828.0	9.536656	-6.35079	6.955566	-0.320068	-0.232706	0.824939	-0.682373	0.115234	-0.044189
829.0	7.885865	-1.046385	8.356365	-0.16264	-0.288795	0.550834	-0.680664	0.124023	-0.039795
830.0	8.157486	-2.577903	7.598097	-0.109131	-0.337053	0.366695	-0.689453	0.124023	-0.035156
831.0	8.027519	-1.49218	7.631431	0.033598	-0.313039	0.150948	-0.682861	0.124023	-0.032959
832.0	7.585016	0.40762	7.817187	0.138998	-0.273456	0.014582	-0.682861	0.124023	-0.032959
833.0	7.606293	0.45801	7.67951	0.079811	-0.252581	-0.015155	-0.67627	0.124023	-0.02832
834.0	8.007721	1.882334	7.414165	0.10097	-0.205822	-0.060602	-0.682861	0.121826	-0.025879
835.0	7.526547	3.799803	7.293236	0.008659	-0.181032	0.032896	-0.685059	0.126221	-0.023682
836.0	7.856213	1.549914	7.033863	-0.055043	-0.147369	0.119426	-0.682861	0.126221	-0.023682
837.0	7.923786	1.323814	6.980022	-0.054092	-0.091365	0.118933	-0.682861	0.126221	-0.02832
838.0	7.928519	1.26119	7.038388	-0.022524	-0.047855	0.122888	-0.674316	0.128418	-0.021484
839.0	7.720275	1.846381	7.0259	-0.038772	-0.014779	0.138137	-0.678711	0.128418	-0.026123
840.0	7.787621	1.421458	6.957549	-0.081563	0.032388	0.147191	-0.678711	0.130615	-0.023926
841.0	7.749016	1.649527	6.969841	-0.097717	0.076518	0.156286	-0.678955	0.13501	-0.01709
842.0	7.641864	1.733422	6.833506	-0.124102	0.118263	0.190299	-0.680908	0.128418	-0.026123
843.0	7.573296	1.697168	6.883479	-0.173131	0.162159	0.224451	-0.678711	0.130615	-0.021484
844.0	7.593315	1.362677	6.978839	-0.214086	0.197906	0.2478	-0.683105	0.130615	-0.021484
845.0	7.520897	1.017735	7.134216	-0.2799	0.218937	0.260638	-0.677002	0.139404	-0.031006
846.0	7.52721	0.869007	7.25786	-0.333946	0.235437	0.255529	-0.677002	0.137207	-0.0354
847.0	7.442178	0.741004	7.214792	-0.343582	0.230148	0.247596	-0.681396	0.141357	-0.028564
848.0	7.403667	0.606962	7.279326	-0.310352	0.190716	0.23809	-0.681641	0.147949	-0.028809
849.0	7.290049	0.39434	7.429345	-0.278061	0.135667	0.214603	-0.679199	0.141357	-0.028564
850.0	7.249145	0.591132	7.341227	-0.244961	0.066199	0.222562	-0.679688	0.152344	-0.03125
851.0	7.285912	0.626364	7.345748	-0.202074	-0.01469	0.215631	-0.675049	0.145752	-0.033203
852.0	7.24198	0.657859	7.326083	-0.200967	-0.062611	0.230481	-0.67749	0.147949	-0.028809
853.0	7.248178	0.325235	7.337706	-0.207515	-0.10123	0.24183	-0.679688	0.150146	-0.02417
854.0	7.265259	0.507704	7.368919	-0.21769	-0.126993	0.256223	-0.67749	0.150146	-0.021973
855.0	7.18302	0.604407	7.378785	-0.239107	-0.158976	0.271116	-0.668701	0.150146	-0.026611
856.0	7.030433	0.43438	7.552788	-0.256641	-0.200955	0.278938	-0.675781	0.16333	-0.022217
857.0	7.198936	-0.178992	7.501325	-0.268453	-0.266368	0.25596	-0.675537	0.156738	-0.019775
858.0	7.185218	-0.368091	7.607545	-0.241501	-0.3423	0.227898	-0.673584	0.161133	-0.013184
859.0	7.486299	-0.070774	7.707488	-0.194163	-0.431799	0.194119	-0.678223	0.167725	-0.010986
860.0	7.575831	-0.09793	7.81279	-0.135021	-0.505486	0.201099	-0.676025	0.165527	-0.008545
861.0	7.155476	-0.770684	7.40267	0.117965	-0.640232	0.173141	-0.673584	0.161133	-0.001709
862.0	6.336812	0.324183	12.130083	0.079193	-0.795944	0.237114	-0.673828	0.165527	0.005127
863.0	7.076817	0.302634	10.440548	-0.046126	-1.209699	0.197451	-0.671875	0.169678	0.018555
864.0	6.579385	-1.077931	10.58052	0.072442	-1.494572	0.290035	-0.671875	0.171875	0.030029
865.0	6.404739	-1.49511	10.758436	0.117961	-1.902803	0.236154	-0.665527	0.17627	0.045898
866.0	6.735842	-1.008583	11.009999	0.221001	-2.290722	0.17317	-0.665527	0.17627	0.05957
867.0	6.305924	-0.342097	11.442502	0.217187	-2.744234	0.145758	-0.661377	0.180664	0.082275
868.0	6.114611	0.627112	11.842536	0.139063	-3.250052	0.158307	-0.659424	0.187012	0.114014
869.0	5.845879	2.412778	12.863784	0.003956	-3.89574	0.194615	-0.655273	0.189209	0.136719
870.0	5.662624	4.168735	13.193551	-0.154362	-4.660299	0.278381	-0.642334	0.191406	0.177734
871.0	4.342117	5.525639	13.500129	-0.379994	-5.409502	0.599284	-0.627441	0.204346	0.227539
872.0	3.209733	5.465189	15.094013	-0.585333	-6.413163	0.986576	-0.60791	0.206543	0.273193
873.0	1.193638	4.543677	16.213558	-0.896216	-7.757298	1.305189	-0.578125	0.219727	0.334229
874.0	1.412251	3.448477	13.584047	-1.153236	-9.685978	1.521693	-0.537109	0.228516	0.406982
875.0	10.330627	-7.773051	5.574747	-0.572756	-11.241757	1.263048	-0.480957	0.246094	0.477295
876.0	24.95741	-6.840008	6.614121	0.773942	-10.323562	1.020689	-0.420898	0.266113	0.533691
877.0	23.505394	3.881635	3.32338	1.547127	-9.522512	1.003103	-0.367432	0.288086	0.565186
878.0	26.050448	3.909317	5.999723	1.606487	-8.628474	1.467854	-0.312012	0.316895	0.598877
879.0	22.779834	10.281246	13.97147	1.335749	-7.895664	2.050561	-0.260254	0.330078	0.628174
880.0	22.892191	13.864918	17.645161	0.246826	-7.226776	2.497017	-0.210938	0.350098	0.657227
881.0	15.074014	13.936521	19.123031	-1.294672	-6.658485	2.562271	-0.158447	0.350342	0.679932
882.0	13.821021	13.423932	14.531121	-3.31036	-5.498137	1.666281	-0.13623	0.341797	0.70752
883.0	17.717094	5.545063	10.588337	-4.169551	-2.133607	0.369742	-0.144043	0.317627	0.728516
884.0	19.173476	0.395987	14.179916	-3.166768	1.305809	-0.839539	-0.176758	0.317383	0.737549
885.0	15.440441	0.035052	15.864212	-2.215659	3.976597	-1.499443	-0.230469	0.301758	0.726563
886.0	6.266616	-0.976796	15.692642	-1.474242	5.274071	-1.559181	-0.302734	0.305664	0.706055
887.0	0.962721	-1.032561	14.423837	-0.481888	5.427028	-1.172893	-0.361572	0.30542	0.674316
888.0	2.305095	-1.073751	11.950253	0.341997	5.455595	-0.728194	-0.425293	0.315918	0.642334
889.0	2.92034	-1.315343	10.18394	0.837498	5.636621	-0.389005	-0.482178	0.320068	0.589844
890.0	4.480287	-1.537124	8.685023	1.277371	5.851325	-0.17368	-0.532471	0.324219	0.525879
891.0	5.375294	-1.231516	7.508519	1.670207	6.102896	-0.068385	-0.56958	0.324219	0.455322
892.0	5.804509	-0.586263	6.999131	1.941667	6.317948	-0.018611	-0.608887	0.324219	0.386963
893.0	6.368696	0.392776	6.857035	2.076113	6.478255	-0.031042	-0.639404	0.322021	0.30957
894.0	6.632787	1.39258	6.962892	2.066076	6.596598	-0.08357	-0.658203	0.30249	0.250732
895.0	7.283095	2.004339	7.030582	1.954105	6.675773	-0.195624	-0.677002	0.284912	0.182861
896.0	8.296786	2.226047	7.11921	1.78748	6.737107	-0.389895	-0.682373	0.258789	0.130859
897.0	8.835082	2.117743	7.086629	1.611216	6.778858	-0.636715	-0.685547	0.235107	0.074463
898.0	9.18184	1.7197	7.026152	1.52334	6.737197	-0.931215	-0.688965	0.213379	0.024658
899.0	9.621117	1.344129	7.300342	1.558043	6.550321	-1.283034	-0.696533	0.187256	-0.018066
900.0	10.84345	1.929826	7.847705	1.585731	6.255685	-1.622	-0.699707	0.161133	-0.063232
901.0	11.764968	1.869179	8.596508	1.491732	5.917956	-1.899419	-0.700928	0.13501	-0.101318
902.0	13.568368	1.369065	8.935588	1.489842	5.502432	-2.122323	-0.706055	0.106689	-0.141846
903.0	17.009239	1.55541	9.190856	1.64982	5.216661	-2.181758	-0.701172	0.091553	-0.177979
904.0	20.332358	1.300643	8.703712	1.92	5.186008	-2.09686	-0.704102	0.061035	-0.22998
905.0	22.538403	-0.176988	7.152694	2.375814	5.259703	-2.045614	-0.696777	0.043701	-0.266113
906.0	22.295461	-2.8437	5.328187	2.962033	5.09442	-2.135744	-0.689209	0.019775	-0.304199
907.0	23.800345	-3.383714	3.012659	3.557589	4.537333	-2.338686	-0.674316	-0.01709	-0.335449
908.0	27.201536	-0.17453	-0.1764	3.747342	3.928029	-2.481547	-0.655518	-0.051758	-0.373535
909.0	29.652863	3.327557	-2.885506	2.888607	3.667374	-2.452969	-0.645264	-0.084473	-0.388916
910.0	28.280295	0.877648	-6.379145	1.383131	3.510771	-2.280664	-0.631592	-0.097412	-0.413818
911.0	26.333293	-5.151721	-10.190625	0.533968	3.168216	-2.033599	-0.608398	-0.127686	-0.431396
912.0	25.507209	-7.947515	-13.581109	0.484713	2.712362	-1.811858	-0.596924	-0.138428	-0.45166
913.0	24.239796	-7.305672	-15.892446	0.349814	2.201957	-1.568424	-0.587402	-0.157959	-0.460449
914.0	23.619273	-7.497706	-18.183132	-0.131751	1.522821	-1.216718	-0.573975	-0.166748	-0.467041
915.0	21.938101	-8.296043	-18.338973	-0.573108	0.571837	-0.767463	-0.573975	-0.168945	-0.467041
916.0	20.690161	-8.227355	-16.386604	-0.857749	-0.56033	-0.349128	-0.571533	-0.170898	-0.464844
917.0	21.137459	-4.44699	-8.679909	-1.114783	-1.504324	-0.074186	-0.582764	-0.162354	-0.453613
918.0	13.650106	4.49324	6.868387	-3.440475	-3.358966	1.063534	-0.59668	-0.147217	-0.424072
919.0	-30.492376	5.86991	36.343003	-3.086024	-5.852198	2.478584	-0.617676	-0.116943	-0.383789
920.0	24.357787	3.579509	0.448693	-4.525429	-6.351596	1.692731	-0.640381	-0.093262	-0.345459
921.0	24.377752	-9.254348	-6.660024	-4.038701	-4.844938	1.628245	-0.651855	-0.080322	-0.309082
922.0	19.39624	-7.412314	4.057579	-2.789877	-4.462914	0.458123	-0.665283	-0.073975	-0.279785
923.0	15.414346	0.232034	6.82922	-2.277787	-3.878512	0.27811	-0.670166	-0.065186	-0.254883
924.0	50.523437	-10.041026	-2.172935	-1.994695	-1.419829	1.92906	-0.670654	-0.050049	-0.24585
925.0	8.721277	4.379341	10.565498	0.410584	0.245546	1.639582	-0.669189	-0.036865	-0.253174
926.0	8.406584	-2.599198	8.914549	-0.856601	-0.434354	1.290753	-0.671631	-0.030273	-0.253174
927.0	5.573413	-7.049107	7.744298	-0.412693	-0.306636	1.009774	-0.66748	-0.023682	-0.248779
928.0	11.053119	-4.863213	7.13404	-0.119323	-0.315588	0.60344	-0.672363	-0.012939	-0.239746
929.0	7.214802	-1.78434	7.72174	-0.039273	-0.368629	0.354384	-0.669922	-0.019531	-0.248779
930.0	8.819016	0.727878	7.239069	-0.001579	-0.332402	0.212586	-0.672119	-0.017334	-0.239746
931.0	7.589172	-0.451769	7.499469	0.012908	-0.29417	0.155778	-0.674561	-0.012939	-0.237549
932.0	7.62947	-0.326037	7.724286	0.126262	-0.262968	0.016195	-0.672363	-0.015137	-0.237549
933.0	7.371699	0.634768	7.671358	0.120232	-0.265347	-0.023865	-0.672119	-0.017334	-0.235107
934.0	7.928388	4.049177	7.342953	0.094339	-0.236588	0.011466	-0.672119	-0.017334	-0.23291
935.0	7.594575	3.502675	7.235742	-0.07845	-0.200044	0.214196	-0.672363	-0.012939	-0.226074
936.0	7.791372	1.584474	7.214811	-0.128926	-0.156497	0.279427	-0.676758	-0.012939	-0.230713
937.0	7.901178	0.92799	7.057503	-0.135434	-0.093882	0.277611	-0.675049	-0.00415	-0.22168
938.0	7.851018	0.963103	7.188177	-0.112849	-0.038684	0.249618	-0.674805	-0.006348	-0.228516
939.0	7.885798	0.831295	7.115819	-0.128705	0.034373	0.231935	-0.675049	-0.001953	-0.226318
940.0	7.862841	0.65863	7.077948	-0.122849	0.10068	0.20231	-0.668701	0.000244	-0.233398
941.0	7.852329	1.09061	7.034125	-0.144216	0.182157	0.183398	-0.670898	0.002441	-0.233398
942.0	7.716966	1.102936	7.115281	-0.19252	0.252502	0.184598	-0.673096	0.004639	-0.233398
943.0	7.727046	0.970752	7.14211	-0.247773	0.296226	0.173234	-0.666504	0.002441	-0.237793
944.0	7.439288	0.661944	7.263254	-0.255162	0.286001	0.164498	-0.671387	0.010986	-0.23584
945.0	7.493405	0.75892	7.234642	-0.274716	0.272851	0.157744	-0.668945	0.004639	-0.240234
946.0	7.24242	0.562093	7.312133	-0.279255	0.246949	0.171406	-0.668945	0.009033	-0.242676
947.0	7.242742	0.622683	7.438798	-0.289415	0.203963	0.167051	-0.669189	0.01123	-0.24707
948.0	7.182404	0.364856	7.559784	-0.274283	0.166355	0.18013	-0.673584	0.010986	-0.240234
949.0	7.225568	0.216402	7.497452	-0.2651	0.119082	0.185388	-0.671387	0.013184	-0.238037
950.0	7.28212	-0.060341	7.447316	-0.244861	0.076551	0.166208	-0.668945	0.009033	-0.24707
951.0	7.21335	0.004145	7.517319	-0.23032	0.054583	0.173839	-0.662842	0.017822	-0.240479
952.0	7.27918	-0.099293	7.540153	-0.207665	0.023448	0.163481	-0.663086	0.019775	-0.240479
953.0	7.315678	-0.109713	7.528034	-0.162737	-0.003073	0.152214	-0.665039	0.019775	-0.247314
954.0	7.283744	0.362992	7.59026	-0.135953	-0.036754	0.137088	-0.665283	0.021973	-0.245117
955.0	7.337161	0.481508	7.615417	-0.126539	-0.058383	0.162392	-0.665283	0.02417	-0.24292
956.0	7.273426	0.338863	7.634593	-0.128449	-0.105217	0.160803	-0.667725	0.026367	-0.236084
957.0	7.213162	0.23604	7.558125	-0.137184	-0.144037	0.162376	-0.66748	0.02417	-0.240479
958.0	7.328478	0.284721	7.461299	-0.131423	-0.19371	0.165396	-0.669922	0.028564	-0.240723
959.0	7.340439	0.026882	7.108721	-0.078504	-0.251725	0.164796	-0.663086	0.02417	-0.238281
960.0	7.695254	0.44547	8.13603	0.043634	-0.328479	0.160264	-0.672363	0.035156	-0.245361
961.0	5.768475	0.559668	9.160257	-0.031875	-0.432523	0.206879	-0.674316	0.028564	-0.227051
962.0	7.742303	0.346629	8.458691	-0.087712	-0.603634	0.193401	-0.672363	0.035156	-0.218018
963.0	6.623235	-0.28774	9.082365	-0.0897	-0.771077	0.213124	-0.666016	0.037354	-0.220459
964.0	6.852171	-1.141994	9.370647	-0.037081	-1.004703	0.158185	-0.674561	0.032715	-0.211182
965.0	6.565234	-1.078794	9.807587	0.05658	-1.283753	0.110912	-0.672363	0.037109	-0.199707
966.0	6.612761	-1.083574	10.15968	0.1457	-1.598093	0.051539	-0.676758	0.037109	-0.188477
967.0	6.681181	-0.492381	10.274865	0.216372	-1.950022	0.002598	-0.681152	0.039307	-0.167969
968.0	6.511954	0.004936	10.524725	0.244696	-2.327559	0.000511	-0.685547	0.036865	-0.147461
969.0	6.421451	0.166404	10.661546	0.234075	-2.758189	0.015612	-0.685547	0.039063	-0.122314
970.0	6.337418	0.969045	10.657484	0.159171	-3.222748	0.036198	-0.685547	0.039063	-0.097168
971.0	5.952035	1.407538	11.048416	0.076018	-3.75412	0.128692	-0.689941	0.038818	-0.067627
972.0	5.441501	1.468936	12.277938	0.010443	-4.393236	0.210603	-0.683594	0.041016	-0.029053
973.0	5.042401	3.842723	12.500515	-0.099155	-5.206843	0.342364	-0.681152	0.038818	0.016602
974.0	3.512181	4.772146	12.97699	-0.354362	-6.089537	0.695199	-0.675049	0.047363	0.06665
975.0	1.999151	3.535986	14.909024	-0.615591	-7.257057	0.996133	-0.666504	0.049561	0.130371
976.0	2.567848	3.376108	13.904318	-0.928404	-8.563068	1.049245	-0.640625	0.060303	0.198486
977.0	6.817474	-1.4676	10.337917	-0.572661	-10.085915	0.836816	-0.612305	0.060303	0.275879
978.0	18.403014	-5.596464	4.221273	0.503997	-10.623307	0.609268	-0.569336	0.071289	0.3396
979.0	26.917052	-1.707562	2.621745	1.37291	-9.299939	0.722903	-0.528076	0.078125	0.400879
980.0	25.85219	5.364777	4.436044	1.533943	-8.45807	0.959094	-0.491699	0.095703	0.450684
981.0	23.965304	6.902855	9.530518	1.296127	-7.598989	1.620994	-0.442139	0.106689	0.49585
982.0	20.894853	11.794206	15.538552	0.536353	-7.131813	2.272031	-0.394775	0.122314	0.525146
983.0	18.403994	13.406871	18.860449	-0.768642	-6.744523	2.669866	-0.346924	0.124512	0.563721
984.0	13.578548	13.524429	18.750962	-2.325213	-6.578868	2.453851	-0.300781	0.118408	0.588867
985.0	16.337886	9.827507	12.397098	-3.71048	-5.196607	1.562889	-0.264893	0.092285	0.614502
986.0	15.584395	3.186412	9.998766	-4.228976	-1.577778	0.496468	-0.263672	0.066162	0.621826
987.0	18.402586	-1.222176	14.27443	-2.881381	1.638436	-0.608063	-0.273926	0.055176	0.617432
988.0	14.635107	-0.845329	15.985258	-1.833334	4.178367	-1.125605	-0.306152	0.043945	0.594971
989.0	6.255936	-0.797881	15.652095	-1.022465	5.3854	-1.148539	-0.336182	0.030762	0.574707
990.0	0.692964	-0.062356	14.264002	-0.175734	5.599771	-0.765028	-0.364746	0.032959	0.554199
991.0	1.897951	0.602929	11.944806	0.390816	5.653177	-0.320445	-0.399902	0.039307	0.522217
992.0	2.150852	-0.032387	10.214959	0.661514	5.788362	0.023673	-0.437012	0.043457	0.494873
993.0	3.889248	-0.345406	8.732899	0.953504	5.91251	0.201364	-0.469971	0.04541	0.465332
994.0	4.545895	-0.105181	7.696137	1.25204	6.069347	0.264486	-0.496826	0.060791	0.424072
995.0	5.359989	0.815423	7.204765	1.444094	6.176834	0.23707	-0.531738	0.060547	0.385254
996.0	6.243699	2.174586	7.130006	1.474014	6.275231	0.164904	-0.557861	0.062744	0.346436
997.0	6.931692	3.135672	7.154714	1.386104	6.37211	0.048149	-0.582031	0.064941	0.303223
998.0	7.855065	3.523014	7.232896	1.251404	6.461474	-0.156873	-0.60376	0.062744	0.264648
999.0	9.109035	3.714977	7.382941	1.095685	6.593761	-0.457402	-0.621094	0.060547	0.209961
1000.0	10.142217	3.347851	7.312821	0.963005	6.763833	-0.83463	-0.642334	0.047363	0.169189
1001.0	10.336274	2.604244	7.437075	0.897042	6.882228	-1.225927	-0.665527	0.031982	0.124023
1002.0	11.145294	2.185372	7.404637	0.985733	6.836294	-1.586564	-0.678223	0.019043	0.076416
1003.0	11.725818	2.048653	7.705314	1.164399	6.644865	-1.824	-0.688477	0.005859	0.031006
1004.0	13.243891	1.926712	8.203833	1.35423	6.355538	-1.90677	-0.696777	-0.004883	-0.016602
1005.0	14.642952	1.507342	8.438106	1.678616	5.987578	-1.900355	-0.707031	-0.017822	-0.071045
1006.0	17.279786	1.631776	9.003357	2.123323	5.582515	-1.76026	-0.706299	-0.033203	-0.109619
1007.0	21.535477	1.701112	8.98634	2.520371	5.433894	-1.464181	-0.716309	-0.052734	-0.161621
1008.0	24.566385	-2.336626	6.599607	3.073118	5.542492	-1.239864	-0.707031	-0.065674	-0.213623
1009.0	24.205356	-6.207065	3.389646	4.198173	5.415034	-1.341991	-0.703857	-0.087158	-0.258789
1010.0	23.943743	-5.196698	0.455871	5.1434	4.763181	-1.473317	-0.6875	-0.115479	-0.29248
1011.0	25.023997	-1.523689	-2.573531	5.235709	3.795843	-1.577523	-0.686279	-0.141602	-0.314697
1012.0	27.287517	1.559114	-5.104625	3.985966	2.924991	-1.679627	-0.669922	-0.16748	-0.339355
1013.0	28.87008	-0.398055	-8.817482	2.037641	2.48783	-1.80646	-0.655762	-0.189209	-0.357178
1014.0	27.480446	-4.950395	-12.486103	0.558875	2.195443	-1.909073	-0.650391	-0.213135	-0.370361
1015.0	25.748849	-7.679099	-15.716283	-0.211433	1.79153	-1.901682	-0.636963	-0.221924	-0.38623
1016.0	25.193795	-8.807983	-18.080103	-0.712816	1.288275	-1.75084	-0.629883	-0.230469	-0.395264
1017.0	24.455681	-9.052684	-19.148167	-1.103497	0.726184	-1.428776	-0.625244	-0.241455	-0.408691
1018.0	22.981724	-9.993248	-18.220479	-1.35842	-0.029992	-1.013009	-0.625	-0.243652	-0.404053
1019.0	21.368109	-8.296988	-12.901695	-1.462422	-0.906068	-0.596563	-0.629395	-0.243652	-0.399414
1020.0	15.006121	0.266724	-2.120678	-3.588432	-3.121444	0.6031	-0.641357	-0.221924	-0.379395
1021.0	-20.412022	1.174624	35.387385	-3.169363	-5.440782	2.155764	-0.66626	-0.198242	-0.332031
1022.0	18.821118	1.920234	6.432505	-3.761853	-5.802741	2.190796	-0.687012	-0.172119	-0.30957
1023.0	23.179935	-10.835655	-6.243269	-3.726891	-4.442736	2.340373	-0.703369	-0.150635	-0.273682
1024.0	17.112576	-9.926785	4.619812	-2.221669	-4.19279	1.267526	-0.710693	-0.133057	-0.246582
1025.0	26.850929	4.27936	4.934229	-2.003674	-3.201368	1.084251	-0.713379	-0.122314	-0.230713
1026.0	47.941358	-5.992498	0.254751	0.01535	0.220664	2.218532	-0.716064	-0.111328	-0.237793
1027.0	-1.891647	2.143927	10.950135	-0.825995	-0.148779	1.244387	-0.712158	-0.098389	-0.229004
1028.0	10.270898	-6.421456	8.139779	-0.446457	-0.211543	0.974323	-0.719482	-0.083008	-0.233887
1029.0	6.731333	-5.460388	7.488915	-0.222842	-0.318011	0.675574	-0.723877	-0.080811	-0.229248
1030.0	8.553627	-0.505325	7.534668	-0.046044	-0.290423	0.48677	-0.72583	-0.085205	-0.229248
1031.0	8.085619	-1.772038	7.588663	-0.081137	-0.309603	0.394687	-0.726318	-0.07666	-0.224854
1032.0	8.408229	0.787005	7.490543	-0.019237	-0.268198	0.267168	-0.724365	-0.072266	-0.218018
1033.0	7.685131	-0.703267	7.687719	-0.029036	-0.23744	0.228544	-0.719971	-0.072266	-0.222656
1034.0	7.831348	-0.94657	7.664583	0.055554	-0.227571	0.10892	-0.724365	-0.072266	-0.213623
1035.0	7.227159	0.224254	7.761455	0.115742	-0.226178	0.029755	-0.719971	-0.070068	-0.213623
1036.0	7.493189	1.942719	7.420292	0.09472	-0.216023	0.025209	-0.726318	-0.07666	-0.211182
1037.0	7.699071	3.12902	7.186481	0.019282	-0.183742	0.107394	-0.722168	-0.072266	-0.206787
1038.0	7.500021	2.428153	7.154362	-0.045633	-0.155931	0.203264	-0.726807	-0.065674	-0.20459
1039.0	7.58867	1.39398	7.234538	-0.097788	-0.123106	0.239144	-0.726563	-0.067871	-0.21582
1040.0	7.784254	0.218112	7.072514	-0.096124	-0.09006	0.226382	-0.726807	-0.065674	-0.209229
1041.0	7.773407	0.833101	7.306166	-0.071259	-0.061904	0.194383	-0.724609	-0.065674	-0.211426
1042.0	7.854999	1.198927	7.163618	-0.103378	-0.016105	0.18097	-0.731201	-0.063477	-0.211426
1043.0	7.680582	0.841441	7.142905	-0.131936	0.037579	0.176928	-0.720459	-0.059082	-0.207031
1044.0	7.855662	0.924999	7.010323	-0.150883	0.102688	0.149514	-0.724854	-0.061279	-0.209229
1045.0	7.626984	0.713241	7.12983	-0.18558	0.160952	0.133406	-0.720459	-0.059082	-0.211426
1046.0	7.570776	0.810576	7.115241	-0.207025	0.198547	0.099395	-0.724854	-0.056885	-0.21167
1047.0	7.570371	1.026012	7.173245	-0.226016	0.206675	0.084656	-0.727051	-0.056885	-0.21167
1048.0	7.336719	0.701235	7.213051	-0.222001	0.180561	0.079835	-0.729492	-0.054688	-0.220703
1049.0	7.477259	0.949417	7.154295	-0.214169	0.154856	0.08774	-0.727295	-0.054688	-0.216064
1050.0	7.345823	0.815076	7.238051	-0.212339	0.140175	0.127362	-0.727539	-0.04834	-0.218506
1051.0	7.378922	0.977378	7.31025	-0.199604	0.105731	0.146606	-0.720459	-0.059082	-0.216064
1052.0	7.484989	1.048828	7.295071	-0.202365	0.085317	0.179273	-0.725342	-0.046143	-0.220947
1053.0	7.310672	0.836296	7.470279	-0.195083	0.058787	0.199329	-0.723389	-0.043945	-0.21875
1054.0	7.416489	0.844929	7.458825	-0.199879	0.008754	0.222414	-0.727783	-0.043945	-0.223145
1055.0	7.338176	0.632863	7.571858	-0.205022	-0.025266	0.251503	-0.723633	-0.039551	-0.223389
1056.0	7.261862	0.425709	7.735256	-0.209139	-0.073332	0.274943	-0.725586	-0.041748	-0.21875
1057.0	7.189932	0.247669	7.746967	-0.215213	-0.129154	0.286736	-0.728271	-0.032959	-0.214355
1058.0	7.308845	0.150537	7.744173	-0.21272	-0.188127	0.283962	-0.726318	-0.028564	-0.214355
1059.0	7.230741	0.155156	7.821899	-0.209047	-0.254616	0.290185	-0.726318	-0.026367	-0.212158
1060.0	7.232121	0.077553	7.784046	-0.213855	-0.33188	0.285985	-0.728516	-0.028564	-0.216797
1061.0	7.090987	-0.536177	7.389023	-0.060927	-0.45436	0.271464	-0.730469	-0.030762	-0.200684
1062.0	7.107651	0.718184	9.725048	-0.018199	-0.572031	0.331017	-0.724365	-0.02002	-0.196289
1063.0	6.504373	0.819994	9.408991	-0.170374	-0.81852	0.285767	-0.729004	-0.017822	-0.194092
1064.0	7.230118	-0.115637	9.199224	-0.159571	-0.990982	0.324313	-0.726807	-0.015625	-0.178223
1065.0	6.629672	0.079903	9.690671	-0.152778	-1.245419	0.317667	-0.735596	-0.01123	-0.169189
1066.0	7.124167	0.08147	9.727837	-0.104996	-1.537553	0.300243	-0.731445	-0.01123	-0.160156
1067.0	6.712798	0.323111	10.022982	-0.065963	-1.867284	0.318469	-0.73584	-0.00708	-0.137451
1068.0	6.904173	0.553755	9.932765	-0.080889	-2.202393	0.343799	-0.740479	-0.000488	-0.123779
1069.0	6.605246	0.265838	10.212823	-0.106491	-2.544829	0.39139	-0.738281	-0.002686	-0.105469
1070.0	6.341813	0.270967	10.446186	-0.218887	-2.941136	0.419692	-0.74292	0.003662	-0.075928
1071.0	6.015921	0.297046	10.928996	-0.254768	-3.419975	0.453718	-0.73877	0.008057	-0.044189
1072.0	5.771634	1.632914	11.745775	-0.266723	-4.034531	0.486625	-0.743408	0.014404	-0.007813
1073.0	5.607123	3.745446	12.065133	-0.411372	-4.702625	0.64761	-0.743408	0.014404	0.031006
1074.0	4.567436	3.704472	13.165288	-0.469418	-5.473277	0.964413	-0.72876	0.027344	0.080811
1075.0	2.96637	3.47126	14.945283	-0.554545	-6.478744	1.243608	-0.718018	0.033936	0.137695
1076.0	1.067167	3.400156	15.097591	-0.736934	-7.851691	1.478061	-0.705811	0.05127	0.208008
1077.0	2.269327	-2.61886	10.345531	-0.991717	-9.548495	1.582975	-0.675537	0.057861	0.282959
1078.0	15.990181	-5.705144	7.161829	-0.27463	-10.133751	1.384715	-0.632568	0.071045	0.355469
1079.0	21.003084	-4.401862	4.131183	0.243908	-9.695393	1.404471	-0.589111	0.079834	0.421387
1080.0	27.495793	2.477894	2.727476	0.807968	-9.027602	1.370826	-0.544434	0.101807	0.480225
1081.0	26.805935	5.052744	7.077879	0.970523	-8.044936	1.751956	-0.494629	0.108398	0.525635
1082.0	23.732133	10.541267	13.355443	0.322237	-7.199297	2.187403	-0.456055	0.128174	0.563965
1083.0	20.320563	11.15648	17.593019	-0.773462	-6.473892	2.40417	-0.408447	0.13501	0.602539
1084.0	13.994975	16.238747	17.336105	-2.466548	-6.197361	2.072643	-0.368652	0.124268	0.627686
1085.0	15.978996	13.90207	10.994259	-4.485831	-4.686691	0.770223	-0.345459	0.09375	0.646484
1086.0	18.207331	2.85113	12.105867	-4.906735	-1.41901	-0.422204	-0.350342	0.054443	0.651855
1087.0	19.61877	0.397127	14.815687	-3.827043	1.539348	-1.333575	-0.365967	0.015137	0.636719
1088.0	14.037618	-2.991364	16.103527	-2.733053	3.770818	-1.661424	-0.395752	-0.004639	0.616699
1089.0	4.294689	-4.226192	15.566967	-1.312081	4.642914	-1.458466	-0.42749	-0.024414	0.596436
1090.0	2.993364	-2.940789	13.781571	0.124942	4.861007	-1.028294	-0.453613	-0.024414	0.562256
1091.0	2.573358	-1.71375	12.029801	1.023287	5.105908	-0.538774	-0.490479	-0.029053	0.530518
1092.0	2.987052	-1.086747	10.642001	1.491963	5.316046	-0.165124	-0.51709	-0.018066	0.498535
1093.0	4.524579	-0.415084	9.369588	1.769416	5.548012	0.049667	-0.55249	-0.009521	0.46875
1094.0	5.193908	0.244026	8.403108	1.896315	5.808892	0.102027	-0.578857	-0.007568	0.425293
1095.0	5.54182	1.281439	7.933206	1.876564	6.038162	0.051509	-0.605225	-0.000977	0.395752
1096.0	5.740989	2.504764	7.940495	1.698849	6.193613	-0.083207	-0.631592	0.005371	0.352295
1097.0	5.995157	2.770163	7.852725	1.408391	6.275327	-0.284332	-0.65332	0.000977	0.311279
1098.0	6.757724	2.792062	7.486948	1.148603	6.340988	-0.564067	-0.677002	-0.005615	0.265869
1099.0	7.392253	2.552596	7.246189	0.933576	6.406611	-0.896539	-0.696289	-0.011963	0.218262
1100.0	7.528376	2.103102	7.350903	0.793008	6.449579	-1.235384	-0.720215	-0.016357	0.179688
1101.0	7.986288	1.217471	7.424726	0.791538	6.409429	-1.560068	-0.730713	-0.025146	0.131836
1102.0	8.932201	0.973214	7.766406	0.929478	6.287981	-1.794223	-0.747559	-0.03833	0.08667
1103.0	10.459331	0.741315	8.030125	1.150965	6.11109	-1.901717	-0.761963	-0.055664	0.032227
1104.0	11.674778	0.005616	8.425037	1.472505	5.905316	-1.921645	-0.772461	-0.068848	0.000732
1105.0	13.168128	-0.085354	8.925894	1.913272	5.588117	-1.89024	-0.771973	-0.07959	-0.051514
1106.0	16.206845	0.776025	9.711615	2.271547	5.320461	-1.720388	-0.780273	-0.088135	-0.087891
1107.0	19.584121	0.926027	9.273183	2.538103	5.306769	-1.456279	-0.779297	-0.107666	-0.133057
1108.0	22.704591	-0.950021	6.816115	3.071832	5.404062	-1.400159	-0.772217	-0.120605	-0.171631
1109.0	23.475098	-1.964856	4.080389	3.751944	5.274457	-1.694841	-0.784668	-0.138184	-0.20752
1110.0	24.279611	-0.844178	1.757076	3.920994	4.793838	-2.164217	-0.779053	-0.162109	-0.234619
1111.0	25.39776	-0.128515	-1.177225	3.425255	4.013575	-2.558122	-0.780273	-0.188232	-0.254395
1112.0	29.50305	1.150488	-5.253969	2.386451	3.238358	-2.839611	-0.783936	-0.201172	-0.274658
1113.0	32.973415	0.019536	-9.957712	0.900351	2.991113	-2.947236	-0.780518	-0.229492	-0.303711
1114.0	30.748085	-4.125806	-13.897098	-0.342559	2.900028	-2.827012	-0.779785	-0.244629	-0.328613
1115.0	27.751744	-7.994813	-16.856093	-0.93439	2.468344	-2.499344	-0.783447	-0.262207	-0.346436
1116.0	26.744505	-9.605638	-19.176672	-1.213792	1.856404	-2.064979	-0.781006	-0.268555	-0.373779
1117.0	25.66725	-9.660742	-21.134496	-1.514304	1.10345	-1.48638	-0.780762	-0.272949	-0.382813
1118.0	24.084252	-9.878999	-18.122962	-1.703901	0.142643	-0.705787	-0.795898	-0.275146	-0.389404
1119.0	21.987138	-11.921042	-20.005625	-1.615854	-2.733615	0.56325	-0.81665	-0.251465	-0.355713
1120.0	-10.371709	5.141728	14.167763	-2.041941	-5.729268	2.458596	-0.850342	-0.227783	-0.301514
1121.0	24.7513	4.438266	15.642882	-2.743041	-5.542458	2.052164	-0.877686	-0.199707	-0.258789
1122.0	16.547307	0.211941	-3.035052	-3.346914	-4.576941	1.770849	-0.896484	-0.171631	-0.2229
1123.0	20.840872	-7.900959	4.133067	-2.517832	-4.313262	0.912854	-0.914307	-0.165283	-0.179688
1124.0	14.426871	-1.078863	5.794401	-1.957975	-3.739817	0.547201	-0.921143	-0.158691	-0.154541
1125.0	40.587525	0.003245	0.607032	-2.010725	-2.114768	1.385076	-0.930908	-0.132813	-0.132324
1126.0	17.11433	0.974911	7.903802	-0.178681	-0.125976	1.697848	-0.935791	-0.121826	-0.134766
1127.0	4.832396	0.376659	8.526291	-0.949275	-0.614349	1.408868	-0.940674	-0.11084	-0.125977
1128.0	10.328616	-6.19256	6.512724	-0.555038	-0.388781	1.125671	-0.947754	-0.100098	-0.128418
1129.0	9.942258	-2.859986	7.305406	-0.250087	-0.290742	0.774254	-0.950195	-0.093506	-0.117188
1130.0	7.492096	-2.035415	7.580869	-0.186831	-0.310343	0.616511	-0.950439	-0.087158	-0.112793
1131.0	8.732156	-1.098887	7.362582	-0.101897	-0.243236	0.467909	-0.952637	-0.084961	-0.110352
1132.0	7.607791	-1.054943	7.683335	-0.011462	-0.193789	0.32845	-0.946533	-0.076172	-0.108398
1133.0	7.017934	-0.374711	8.303416	-0.005461	-0.210406	0.234987	-0.953125	-0.076172	-0.106201
1134.0	7.889677	1.630863	7.57193	-0.022871	-0.185165	0.166683	-0.953369	-0.071777	-0.104004
1135.0	7.508988	1.072272	7.348227	-0.135852	-0.178663	0.220104	-0.953125	-0.073975	-0.10376
1136.0	7.679728	0.67963	7.29679	-0.145718	-0.180875	0.18883	-0.953613	-0.065186	-0.104004
1137.0	7.932668	0.367981	7.36931	-0.176735	-0.133154	0.167648	-0.951172	-0.067383	-0.101807
1138.0	7.795686	0.394173	7.530845	-0.12663	-0.111797	0.133231	-0.956055	-0.061035	-0.097168
1139.0	7.719479	0.590328	7.447224	-0.105352	-0.110231	0.11803	-0.955566	-0.067383	-0.094971
1140.0	7.731626	0.277326	7.258745	-0.066946	-0.122319	0.113697	-0.953613	-0.062988	-0.097168
1141.0	7.745482	1.128656	7.178655	-0.057107	-0.117661	0.107328	-0.955811	-0.063232	-0.092773
1142.0	7.600031	0.78645	7.158834	-0.08675	-0.099117	0.121389	-0.960449	-0.058838	-0.090576
1143.0	7.717739	0.372399	7.090905	-0.097181	-0.070085	0.104835	-0.956055	-0.061035	-0.099609
1144.0	7.67973	0.43882	7.079441	-0.093588	-0.051196	0.083851	-0.956055	-0.061035	-0.097168
1145.0	7.723717	0.628153	7.101983	-0.097443	-0.028512	0.057503	-0.953857	-0.058838	-0.085938
1146.0	7.734927	0.808281	7.11662	-0.101931	-0.011524	0.050313	-0.953857	-0.056641	-0.092773
1147.0	7.731902	1.179829	7.039238	-0.111344	0.00507	0.063031	-0.956055	-0.058838	-0.090576
1148.0	7.716468	1.41397	7.019656	-0.129267	0.014248	0.095255	-0.956055	-0.061035	-0.090332
1149.0	7.730996	1.423471	7.009472	-0.156076	0.020316	0.136526	-0.956055	-0.056641	-0.090576
1150.0	7.598809	1.126364	7.048638	-0.175594	0.024711	0.177948	-0.958496	-0.052246	-0.097412
1151.0	7.651008	1.039037	7.067924	-0.182965	0.020064	0.199238	-0.956055	-0.056641	-0.085938
1152.0	7.667924	0.939636	7.208343	-0.20388	0.018559	0.225983	-0.956543	-0.050049	-0.093018
1153.0	7.520624	0.609322	7.312438	-0.231171	0.006704	0.237966	-0.956543	-0.045654	-0.086182
1154.0	7.506063	0.490528	7.385728	-0.234179	-0.015184	0.238167	-0.957031	-0.036865	-0.093262
1155.0	7.503974	0.106213	7.256662	-0.247063	-0.059611	0.220923	-0.963135	-0.045654	-0.09082
1156.0	7.534091	-0.095641	7.273714	-0.192991	-0.101002	0.218358	-0.961426	-0.036865	-0.086426
1157.0	7.681242	0.284554	7.759151	-0.164491	-0.157342	0.195432	-0.96582	-0.034912	-0.09082
1158.0	7.011607	-0.184991	7.706015	-0.182357	-0.25009	0.199853	-0.96582	-0.032715	-0.084229
1159.0	7.521658	-0.213353	7.864293	-0.15798	-0.317669	0.192478	-0.961426	-0.034912	-0.074951
1160.0	7.291064	-0.258968	8.093211	-0.143072	-0.446991	0.171129	-0.95752	-0.02832	-0.077393
1161.0	7.264954	-0.302286	8.298911	-0.119344	-0.584119	0.155552	-0.959473	-0.030518	-0.068115
1162.0	7.169076	-0.562119	8.422721	-0.092009	-0.757431	0.118378	-0.961914	-0.026123	-0.063721
1163.0	7.155054	-0.741397	8.495452	-0.041072	-0.936958	0.066635	-0.970703	-0.023926	-0.045654
1164.0	7.098708	-0.92195	8.515505	0.009419	-1.136962	0.010046	-0.966309	-0.023926	-0.038818
1165.0	6.949369	-1.060504	8.780646	0.081194	-1.355787	-0.052265	-0.968506	-0.02417	-0.022705
1166.0	6.930042	-0.850834	9.225513	0.14507	-1.620798	-0.105996	-0.962158	-0.019775	0.002197
1167.0	6.974306	-0.03372	9.479374	0.21373	-1.946799	-0.137067	-0.966064	-0.028564	0.020508
1168.0	6.745273	0.478556	9.798353	0.212505	-2.304729	-0.117422	-0.955566	-0.021973	0.045654
1169.0	6.697324	0.650859	9.811328	0.188479	-2.709468	-0.076796	-0.961914	-0.02417	0.070557
1170.0	6.380008	0.754111	10.363094	0.172001	-3.153034	-0.014526	-0.962158	-0.017822	0.111572
1171.0	5.861786	0.489662	11.579898	0.158125	-3.74558	0.03173	-0.953613	-0.013428	0.154785
1172.0	5.345233	2.095938	12.380879	0.132871	-4.532048	0.084478	-0.943359	-0.000488	0.200195
1173.0	3.980714	3.318975	12.998463	-0.05802	-5.404646	0.294533	-0.936768	0.001465	0.261475
1174.0	2.913902	2.743944	14.34898	-0.259248	-6.484495	0.507953	-0.911377	0.016846	0.331787
1175.0	3.051332	2.933003	14.213761	-0.522302	-7.658774	0.610149	-0.887695	0.025391	0.416016
1176.0	4.437815	1.032509	12.146387	-0.445891	-9.277702	0.509333	-0.844727	0.036377	0.513672
1177.0	13.175791	-2.105697	7.293085	0.249448	-10.375238	0.184907	-0.792725	0.049561	0.609131
1178.0	22.945881	-1.091916	5.216127	0.634674	-9.606851	0.278737	-0.728516	0.073975	0.683838
1179.0	23.992127	6.342131	1.900583	0.700338	-9.046084	0.69375	-0.674561	0.087158	0.756348
1180.0	22.350977	4.508033	6.400016	0.294117	-8.138119	1.194145	-0.610107	0.109131	0.810547
1181.0	20.996174	6.754049	13.275753	-0.220508	-7.693299	1.796838	-0.544922	0.115967	0.874268
1182.0	21.72748	10.490541	16.867532	-1.213617	-7.153294	2.321488	-0.484375	0.127197	0.921875
1183.0	17.173561	9.697811	16.690014	-2.283922	-6.345197	2.314828	-0.431152	0.107666	0.967773
1184.0	15.185877	8.778182	13.081846	-3.224601	-5.204367	1.872211	-0.397461	0.088379	0.997559
1185.0	16.986868	1.38712	10.090761	-3.39764	-2.082114	1.015104	-0.39624	0.059814	1.01416
1186.0	24.021994	-1.202794	13.61891	-1.921477	1.630252	0.018636	-0.435059	0.048828	1.009766
1187.0	18.797172	1.033191	15.42089	-0.983731	4.59188	-0.567093	-0.501709	0.028564	0.996582
1188.0	5.54971	1.268795	15.627659	-0.648054	6.025059	-0.555375	-0.58667	0.026123	0.967285
1189.0	-1.223077	0.338322	14.058552	0.058065	5.880912	-0.257983	-0.669434	0.023438	0.933105
1190.0	0.084865	0.822519	11.884894	0.599744	5.506506	0.053401	-0.746338	0.036133	0.910156
1191.0	1.419388	0.90308	10.232595	0.771954	5.280113	0.29072	-0.829834	0.048828	0.875977
1192.0	3.836254	0.986072	8.999866	0.890105	5.25726	0.441857	-0.918213	0.072266	0.827637
1193.0	5.240976	1.173804	7.952335	1.01544	5.45261	0.513042	-1.003662	0.084961	0.775146
1194.0	5.923498	1.715817	7.596165	1.119408	5.741374	0.530803	-1.109375	0.104248	0.695068
1195.0	5.748914	2.286033	7.61542	1.187954	5.983483	0.479353	-1.203613	0.116943	0.599121
1196.0	5.960561	2.529141	7.548958	1.245624	6.139484	0.382566	-1.295898	0.129639	0.469238
1197.0	6.59297	2.62749	7.244623	1.313732	6.260876	0.221206	-1.374512	0.134033	0.323242
1198.0	7.494143	2.467545	6.85392	1.443447	6.387168	-0.038359	-1.413818	0.134033	0.150146
1199.0	8.018073	2.22531	6.710476	1.584371	6.521294	-0.36541	-1.424072	0.11499	-0.036377
1200.0	8.017394	2.011711	7.152343	1.732106	6.502165	-0.724901	-1.394775	0.095947	-0.211426
1201.0	8.990315	1.753301	7.148602	1.935908	6.289222	-1.007864	-1.32373	0.066162	-0.375
1202.0	10.652419	2.361179	7.398661	2.125918	6.026376	-1.237887	-1.230713	0.036621	-0.513672
1203.0	11.195693	2.197591	7.869483	2.197431	5.76716	-1.346581	-1.092041	0.004883	-0.599854
1204.0	12.436836	1.520004	8.533049	2.374083	5.335136	-1.453071	-0.945313	-0.00708	-0.640869
1205.0	15.593021	1.811916	9.202748	2.58829	5.053242	-1.523222	-0.822754	-0.017334	-0.61792
1206.0	19.394318	1.817943	8.813461	2.796889	5.10462	-1.538381	-0.746582	-0.014648	-0.579346
1207.0	20.672742	1.513096	7.502232	3.174258	5.213914	-1.639908	-0.713135	-0.027588	-0.542725
1208.0	21.144418	1.658498	5.877333	3.594065	5.023979	-1.923708	-0.705811	-0.049561	-0.514893
1209.0	21.145649	2.477256	4.84433	3.525764	4.508892	-2.297093	-0.708496	-0.082275	-0.493652
1210.0	23.296775	-0.717344	3.428195	3.032117	3.828574	-2.729784	-0.720459	-0.108643	-0.497803
1211.0	27.42951	-0.935037	0.744748	2.634027	3.368502	-2.986965	-0.723145	-0.147949	-0.503906
1212.0	29.132652	-2.589795	-1.806446	2.125811	3.269554	-3.009358	-0.724365	-0.169678	-0.521484
1213.0	27.638933	-3.626084	-4.766561	1.439943	3.289685	-2.865193	-0.714355	-0.195801	-0.537109
1214.0	25.782933	-4.787022	-8.181661	0.560344	3.261382	-2.484548	-0.70752	-0.204346	-0.573242
1215.0	22.002515	-7.905734	-11.891653	-0.191871	2.89175	-1.883521	-0.695801	-0.22168	-0.58667
1216.0	21.267017	-10.729397	-15.936308	-0.269171	1.844786	-1.217556	-0.68042	-0.22583	-0.60498
1217.0	23.434243	-12.583868	-18.556515	0.042997	0.919546	-0.618823	-0.679932	-0.236816	-0.61377
1218.0	23.066848	-11.702061	-17.917019	0.525653	0.107217	-0.093884	-0.684082	-0.243408	-0.609131
1219.0	21.576321	-8.374175	-14.886587	0.629022	-0.66552	0.42132	-0.692627	-0.243408	-0.597656
1220.0	21.946413	-5.666035	-11.383968	0.211992	-1.262415	0.879588	-0.708496	-0.232666	-0.581787
1221.0	19.7995	5.136466	6.792096	-1.196027	-1.424423	1.420386	-0.717529	-0.221924	-0.568359
1222.0	3.592504	2.706345	29.098262	-2.213091	-1.987697	2.41861	-0.732422	-0.184814	-0.55542
1223.0	-37.207309	18.50278	28.463499	-1.933021	-4.481726	3.739648	-0.769287	-0.141602	-0.515137
1224.0	28.337909	2.144787	-2.692529	-4.804427	-4.816763	3.146313	-0.786621	-0.095947	-0.481934
1225.0	19.118049	-11.441154	-4.6487	-3.266282	-3.980463	2.022687	-0.804688	-0.080811	-0.441162
1226.0	16.769095	-3.485792	4.507689	-2.454301	-3.788932	0.620837	-0.820557	-0.065918	-0.411865
1227.0	10.488756	1.443585	8.468759	-2.317312	-3.561843	0.117697	-0.831787	-0.057129	-0.371094
1228.0	37.080862	-1.888063	0.484586	-2.82843	-2.565037	0.705529	-0.832764	-0.0354	-0.364502
1229.0	22.954196	-11.304914	8.528009	0.182094	0.034679	1.987302	-0.831055	-0.026611	-0.360107
1230.0	3.594907	4.807106	8.233221	-0.991447	-0.632122	1.196232	-0.827637	-0.00708	-0.35376
1231.0	8.928259	-9.379717	7.720063	-0.462828	-0.412306	1.113391	-0.834229	-0.002686	-0.351563
1232.0	10.525898	-3.756293	6.466135	0.024739	-0.37101	0.557323	-0.830322	0.003906	-0.344727
1233.0	7.347131	-1.53097	8.085255	0.052938	-0.360049	0.419626	-0.841064	0.003662	-0.344727
1234.0	8.313416	-2.264655	7.254819	0.163934	-0.365122	0.220327	-0.834717	0.008057	-0.335693
1235.0	7.247453	-1.033615	8.141953	0.2694	-0.338976	0.075838	-0.841309	0.008057	-0.331299
1236.0	7.441738	0.090672	8.204764	0.213343	-0.327438	0.010207	-0.839111	0.005859	-0.333496
1237.0	7.874845	1.309929	7.434616	0.198477	-0.334998	-0.055989	-0.845703	0.008057	-0.328857
1238.0	7.183456	1.884737	7.730153	0.126407	-0.333552	1.3e-05	-0.845459	0.005859	-0.328857
1239.0	7.699212	1.881882	7.372716	0.060068	-0.334579	0.028163	-0.847656	0.003662	-0.322021
1240.0	7.84675	0.576422	6.920166	0.03435	-0.311164	0.051116	-0.850098	0.010254	-0.317627
1241.0	7.504358	1.834826	7.359794	0.04515	-0.306008	0.046149	-0.841309	0.008057	-0.317627
1242.0	7.750705	1.305438	7.192606	0.001961	-0.301406	0.092903	-0.843506	0.008057	-0.310791
1243.0	7.875556	1.00106	7.163654	0.004811	-0.292014	0.093543	-0.849854	0.003662	-0.310547
1244.0	7.792676	0.932106	7.051798	-0.005904	-0.264145	0.088127	-0.850342	0.014404	-0.303955
1245.0	7.928246	1.08166	6.841972	-0.028962	-0.213878	0.063915	-0.849854	0.005859	-0.303711
1246.0	7.983626	1.531914	6.676643	-0.064918	-0.1293	0.068621	-0.848145	0.016602	-0.303955
1247.0	7.887706	1.261049	6.73532	-0.109896	-0.041531	0.087751	-0.845703	0.008057	-0.301514
1248.0	7.843386	0.83979	6.900832	-0.135948	0.017398	0.084836	-0.852539	0.014404	-0.306152
1249.0	7.800666	1.195524	6.945666	-0.139512	0.069082	0.074615	-0.850342	0.014404	-0.308594
1250.0	7.703445	1.206539	6.916362	-0.161572	0.096556	0.088521	-0.845947	0.016602	-0.306396
1251.0	7.747451	1.23183	6.898363	-0.169239	0.135799	0.09972	-0.848389	0.020996	-0.299561
1252.0	7.733722	0.887067	7.028563	-0.172347	0.164651	0.106314	-0.846191	0.020996	-0.313232
1253.0	7.637712	0.960729	6.973507	-0.170825	0.179748	0.101026	-0.84375	0.016602	-0.308594
1254.0	7.633033	1.014613	7.01124	-0.167277	0.189193	0.107356	-0.850586	0.020996	-0.31543
1255.0	7.618387	1.046919	7.04161	-0.169343	0.190482	0.116474	-0.846436	0.023193	-0.308838
1256.0	7.585619	0.768357	7.084784	-0.175044	0.194235	0.12235	-0.846436	0.025391	-0.315674
1257.0	7.669083	0.732371	7.170188	-0.176061	0.193714	0.113295	-0.837646	0.023438	-0.315674
1258.0	7.502076	0.430785	7.356645	-0.176403	0.180469	0.105584	-0.837891	0.031982	-0.320313
1259.0	7.474237	0.420706	7.291248	-0.178285	0.157681	0.075928	-0.844727	0.03418	-0.320313
1260.0	7.539886	0.383043	7.262502	-0.175359	0.129623	0.064853	-0.837891	0.031982	-0.318115
1261.0	7.420151	0.175565	7.450941	-0.155592	0.103418	0.046387	-0.842529	0.036377	-0.315918
1262.0	7.384426	0.33778	7.554007	-0.139845	0.064126	0.024254	-0.842285	0.031982	-0.324951
1263.0	7.425536	0.454244	7.474518	-0.118975	0.010851	0.011397	-0.837891	0.031982	-0.318115
1264.0	7.377305	0.460515	7.4936	-0.109313	-0.026262	-0.001933	-0.840088	0.029785	-0.320313
1265.0	7.375064	0.454443	7.567006	-0.087986	-0.081994	-0.02087	-0.84668	0.031982	-0.320313
1266.0	7.255978	0.655802	7.695379	-0.086819	-0.132564	-0.042812	-0.844727	0.036377	-0.320313
1267.0	7.183031	0.926573	7.744688	-0.086787	-0.225033	-0.048296	-0.842285	0.031982	-0.315674
1268.0	7.235204	1.176333	7.912867	-0.09473	-0.329376	-0.019242	-0.844727	0.03418	-0.308838
1269.0	7.200447	1.334635	8.050572	-0.075859	-0.455064	0.033064	-0.849121	0.03418	-0.306641
1270.0	7.115203	1.505558	8.429862	-0.071701	-0.607864	0.079821	-0.849365	0.040771	-0.297607
1271.0	7.09559	1.674969	8.522584	-0.090848	-0.805039	0.115491	-0.851318	0.038574	-0.290771
1272.0	7.596565	1.59608	8.165552	-0.119276	-0.964658	0.195664	-0.855957	0.042725	-0.286377
1273.0	7.611079	1.535278	8.116998	-0.121297	-1.088741	0.27615	-0.855957	0.042725	-0.274902
1274.0	7.643755	1.637978	7.983	-0.13911	-1.211024	0.37569	-0.860596	0.047119	-0.265869
1275.0	7.622509	1.188403	8.053978	-0.15775	-1.331787	0.488534	-0.86499	0.05127	-0.252197
1276.0	7.357712	0.872828	8.707975	-0.162426	-1.540959	0.510606	-0.861328	0.064453	-0.236572
1277.0	7.694621	1.585938	8.765255	-0.1393	-1.790257	0.549752	-0.863525	0.068848	-0.216064
1278.0	7.559282	2.632026	8.863946	-0.178435	-2.004516	0.66985	-0.866211	0.07959	-0.195801
1279.0	7.52196	3.053892	8.935161	-0.247787	-2.222474	0.834016	-0.866455	0.086182	-0.177734
1280.0	7.212423	2.597982	9.019036	-0.314229	-2.471209	1.024798	-0.86499	0.099121	-0.148438
1281.0	6.985582	1.896733	9.004881	-0.281012	-2.832704	1.220899	-0.870117	0.114258	-0.125977
1282.0	7.13436	1.631685	8.994851	-0.108047	-3.262414	1.441676	-0.872803	0.129395	-0.092041
1283.0	6.511873	0.406722	9.031858	0.202983	-3.776489	1.721094	-0.871826	0.15332	-0.05835
1284.0	6.362896	1.146776	9.706242	0.759847	-4.464719	1.960516	-0.868408	0.175049	-0.017578
1285.0	6.108436	2.728633	9.96658	0.919326	-5.149885	2.29755	-0.860596	0.194824	0.034424
1286.0	7.168697	2.338761	9.13826	0.929274	-5.738722	2.6961	-0.849121	0.233887	0.081299
1287.0	9.154058	1.214168	7.740789	0.855315	-6.132975	3.05879	-0.830811	0.262207	0.130859
1288.0	12.195122	-0.250608	5.847721	1.088226	-6.284839	3.143397	-0.806396	0.303711	0.182617
1289.0	12.916347	-0.874323	4.691338	1.811358	-6.279554	3.029634	-0.786133	0.334473	0.229736
1290.0	15.75258	-0.579504	4.165854	2.726633	-6.004615	2.92349	-0.757324	0.373779	0.260986
1291.0	17.160156	0.015822	6.149911	3.338404	-5.366801	2.938857	-0.726318	0.413086	0.27832
1292.0	17.819489	2.124741	9.048251	3.599343	-4.329838	2.995168	-0.701904	0.454834	0.279785
1293.0	15.757741	3.49623	10.565991	3.611106	-2.930517	2.791733	-0.681641	0.48999	0.276611
1294.0	10.51955	5.485628	10.281542	3.353919	-1.430289	2.297057	-0.674316	0.518311	0.255615
1295.0	6.022616	4.547201	10.762693	3.154241	-0.370254	1.449751	-0.660156	0.544678	0.232422
1296.0	7.845872	7.139686	12.345426	3.458691	0.61179	-0.064884	-0.662598	0.549072	0.186768
1297.0	4.84116	7.379643	11.811384	3.063467	1.622058	-1.196644	-0.675049	0.533936	0.148193
1298.0	4.330038	5.15173	11.39595	2.851663	2.109177	-1.845584	-0.68335	0.527344	0.098145
1299.0	4.702692	2.150374	11.035925	2.850131	2.518647	-2.077126	-0.691406	0.507813	0.048584
1300.0	5.860129	-0.030559	10.571924	3.168248	2.917266	-1.993933	-0.692871	0.492676	-0.008301
1301.0	6.757497	-1.89748	10.212006	3.711603	3.326404	-1.75251	-0.6875	0.468994	-0.0625
1302.0	6.8848	-2.682032	9.972633	4.26025	3.748868	-1.544619	-0.676025	0.458252	-0.132813
1303.0	5.934979	-3.038424	9.665973	4.648549	4.055545	-1.390698	-0.659668	0.432373	-0.184814
1304.0	4.912895	-3.162839	9.119277	4.836868	4.194992	-1.284961	-0.637207	0.417236	-0.232422
1305.0	3.716871	-3.427067	8.813989	4.883986	4.136707	-1.181009	-0.614258	0.393555	-0.279785
1306.0	4.394233	-4.529963	9.003809	4.946266	3.91713	-1.132297	-0.595947	0.374023	-0.324951
1307.0	4.388683	-4.446625	8.99308	4.808244	3.677414	-1.096927	-0.575684	0.361084	-0.349854
1308.0	4.804606	-5.883914	9.204462	4.715754	3.324421	-0.904146	-0.55542	0.346191	-0.388428
1309.0	7.263674	-6.348323	9.314075	4.761915	3.020524	-0.707872	-0.537598	0.335449	-0.420166
1310.0	8.281732	-5.414411	9.16042	4.68544	2.91123	-0.327732	-0.513184	0.326904	-0.454102
1311.0	9.041295	-6.024223	8.926764	4.706634	2.914601	0.19891	-0.493652	0.329346	-0.481445
1312.0	8.387081	-6.662024	8.491452	4.952647	2.869265	0.746174	-0.464844	0.318604	-0.524658
1313.0	8.429964	-6.628277	7.71704	5.2813	2.744101	1.291917	-0.443115	0.318848	-0.556641
1314.0	8.927029	-6.385513	7.159669	5.720374	2.584979	1.775959	-0.418457	0.303955	-0.592773
1315.0	9.786031	-6.187582	6.739217	6.135666	2.413849	2.080043	-0.394043	0.293213	-0.631348
1316.0	10.494161	-5.754871	6.333678	6.48432	2.286173	2.138014	-0.364502	0.271729	-0.660645
1317.0	9.867782	-4.74717	6.084845	6.626952	2.14014	1.990988	-0.345703	0.237061	-0.691895
1318.0	7.864888	-3.960509	6.0341	6.453854	1.802541	1.714589	-0.318604	0.215332	-0.725586
