Acquisition frequency: 100 Hz
PacketCounter	Acc_X	Acc_Y	Acc_Z	Gyr_X	Gyr_Y	Gyr_Z	Mag_X	Mag_Y	Mag_Z
0.0	7.30535	-3.482428	5.811926	0.034958	0.098843	0.014767	-0.624512	0.203369	-0.037354
1.0	7.275698	-3.505723	5.811837	0.032532	0.107213	0.016888	-0.620361	0.203369	-0.035156
2.0	7.249699	-3.507271	5.877177	0.031568	0.10319	0.017099	-0.620361	0.207764	-0.032959
3.0	7.245217	-3.550267	5.863769	0.034052	0.101747	0.02106	-0.622559	0.207764	-0.035156
4.0	7.260927	-3.503864	5.891648	0.034511	0.087291	0.019835	-0.618164	0.205566	-0.041504
5.0	7.186808	-3.542911	5.915875	0.026888	0.078929	0.017168	-0.624756	0.209961	-0.037354
6.0	7.20119	-3.485927	5.919845	0.02541	0.058263	0.01681	-0.626953	0.209961	-0.037354
7.0	7.220668	-3.46163	5.933217	0.020252	0.044956	0.015061	-0.624756	0.207764	-0.035156
8.0	7.218709	-3.483412	5.926012	0.015898	0.041711	0.014531	-0.622559	0.203369	-0.039307
9.0	7.170681	-3.498958	5.954826	0.01197	0.025931	0.013244	-0.622559	0.207764	-0.039307
10.0	7.216405	-3.5054	5.919118	0.01288	-0.006544	0.007759	-0.620361	0.205566	-0.037354
11.0	7.19226	-3.507712	5.921104	0.006208	-0.005446	0.008378	-0.622559	0.205566	-0.041504
12.0	7.1775	-3.542255	5.987436	0.011321	-0.028679	0.004848	-0.622314	0.201172	-0.035156
13.0	7.198064	-3.55093	5.895079	0.002341	-0.067189	-0.002629	-0.622559	0.207764	-0.041504
14.0	7.197251	-3.496258	5.890175	-0.005592	-0.072454	-0.008993	-0.618408	0.209961	-0.035156
15.0	7.274065	-3.489239	5.878745	-0.014004	-0.057789	-0.01063	-0.624756	0.207764	-0.037354
16.0	7.273107	-3.45699	5.863984	-0.017886	-0.037023	-0.006632	-0.624512	0.203369	-0.035156
17.0	7.276844	-3.446616	5.893941	-0.016042	-0.021446	-0.00306	-0.626953	0.209961	-0.035156
18.0	7.250824	-3.438797	5.87259	-0.018864	-0.01142	-0.007203	-0.622803	0.209961	-0.037354
19.0	7.275737	-3.43713	5.869192	-0.011926	-0.008231	-0.00017	-0.622559	0.207764	-0.037354
20.0	7.254486	-3.45091	5.892645	-0.014937	0.009761	-0.00242	-0.624756	0.207764	-0.037354
21.0	7.253831	-3.45172	5.892977	-0.010176	0.011322	0.00435	-0.622803	0.209961	-0.037354
22.0	7.231472	-3.465601	5.91772	-0.007281	0.02158	0.00328	-0.620361	0.207764	-0.030762
23.0	7.25521	-3.485731	5.906141	-0.00756	0.028123	0.002619	-0.620361	0.207764	-0.035156
24.0	7.254493	-3.508165	5.897011	-0.007609	0.03012	0.003093	-0.622559	0.205566	-0.037354
25.0	7.248331	-3.476196	5.888542	-0.003353	0.037362	0.004571	-0.620605	0.214111	-0.037354
26.0	7.22586	-3.511578	5.903901	-0.004487	0.035841	0.003162	-0.618164	0.205566	-0.037354
27.0	7.264851	-3.463912	5.870131	-0.000549	0.046211	0.000954	-0.622803	0.214111	-0.035156
28.0	7.217441	-3.501455	5.888541	-0.002653	0.051439	0.006748	-0.624756	0.205566	-0.037354
29.0	7.233249	-3.445179	5.890496	0.005014	0.052444	0.005459	-0.624756	0.207764	-0.041504
30.0	7.230688	-3.467244	5.883877	-0.001043	0.066192	0.0057	-0.622559	0.207764	-0.039307
31.0	7.252356	-3.454421	5.919499	0.001029	0.071832	0.006921	-0.622559	0.209961	-0.035156
32.0	7.225842	-3.500804	5.904871	-0.00243	0.074685	0.006668	-0.622559	0.207764	-0.037354
33.0	7.221145	-3.501376	5.910274	-0.00144	0.076807	0.006005	-0.622803	0.212158	-0.037354
34.0	7.218277	-3.491058	5.948099	-0.007922	0.069946	0.004722	-0.622559	0.207764	-0.039307
35.0	7.189724	-3.493889	5.95501	-0.003788	0.072363	0.000634	-0.625	0.211914	-0.037354
36.0	7.184033	-3.505409	5.926917	-0.00996	0.062364	0.003032	-0.618164	0.207764	-0.041504
37.0	7.186	-3.527616	5.974321	-0.006539	0.056114	0.000268	-0.626953	0.207764	-0.039307
38.0	7.17605	-3.484759	5.945467	-0.010891	0.052866	-0.000278	-0.622559	0.205566	-0.037354
39.0	7.176943	-3.518069	5.959443	-0.010538	0.047744	0.002936	-0.624756	0.209961	-0.039551
40.0	7.166433	-3.453605	5.940756	-0.010462	0.04032	-0.001045	-0.618164	0.205566	-0.041504
41.0	7.19869	-3.560724	5.940606	-0.013458	0.034027	0.00095	-0.622559	0.207764	-0.039307
42.0	7.167383	-3.509366	5.944706	-0.008956	0.031293	7.7e-05	-0.620361	0.207764	-0.037354
43.0	7.211807	-3.461931	5.96448	-0.013075	0.023464	0.000652	-0.624756	0.207764	-0.043701
44.0	7.16673	-3.554405	5.925522	-0.013076	0.023467	0.000652	-0.618408	0.212158	-0.039551
45.0	7.164263	-3.533352	5.937613	-0.011922	0.019566	-0.00144	-0.618408	0.214355	-0.045898
46.0	7.186275	-3.510007	5.947538	-0.011568	0.014428	0.00177	-0.622803	0.209961	-0.041504
47.0	7.186597	-3.532441	5.937215	-0.009468	0.014628	-0.000509	-0.620605	0.212158	-0.039551
48.0	7.158882	-3.524411	5.918015	-0.00824	0.012158	-4.4e-05	-0.624756	0.207764	-0.041504
49.0	7.182618	-3.489857	5.960543	-0.007242	0.01426	-0.000706	-0.618408	0.209961	-0.043701
50.0	7.162711	-3.579429	5.918885	-0.010683	0.00823	-0.00752	-0.626709	0.203613	-0.043701
51.0	7.204605	-3.498897	5.926661	-0.010558	0.007662	-0.005439	-0.622559	0.205566	-0.039307
52.0	7.182702	-3.512348	5.950472	-0.008137	0.008157	-0.000998	-0.618408	0.209961	-0.041504
53.0	7.183595	-3.534284	5.939751	-0.007282	0.007393	-0.006775	-0.620361	0.205566	-0.039307
54.0	7.179553	-3.501617	5.929256	-0.006054	0.004922	-0.006311	-0.615967	0.205566	-0.039307
55.0	7.186009	-3.544973	5.96188	-0.006107	0.006924	-0.005833	-0.615967	0.207764	-0.043701
56.0	7.156201	-3.525542	5.920584	-0.007282	0.007395	-0.006775	-0.616211	0.209961	-0.039307
57.0	7.203295	-3.499182	5.928085	-0.00828	0.005294	-0.006113	-0.618408	0.212158	-0.037354
58.0	7.203108	-3.499053	5.928388	-0.004058	0.009128	-0.007633	-0.618408	0.209961	-0.041504
59.0	7.181315	-3.512018	5.95234	-0.006107	0.006927	-0.005833	-0.622803	0.209961	-0.037354
60.0	7.180966	-3.511998	5.952773	-0.003864	0.009991	-0.002994	-0.615967	0.205566	-0.041504
61.0	7.175256	-3.490288	5.909792	-0.004932	0.006457	-0.004891	-0.622803	0.212158	-0.039551
62.0	7.205805	-3.531378	5.940718	-0.003811	0.00799	-0.003471	-0.622559	0.207764	-0.041504
63.0	7.17991	-3.511933	5.954085	-0.003865	0.009993	-0.002993	-0.622559	0.207764	-0.039307
64.0	7.179474	-3.512003	5.95457	-0.006038	0.008361	-0.003274	-0.614014	0.207764	-0.039307
65.0	7.179093	-3.512129	5.954954	-0.007213	0.008832	-0.004216	-0.624756	0.209961	-0.039551
66.0	7.176094	-3.501189	5.933694	-0.004059	0.009134	-0.007632	-0.618164	0.207764	-0.041504
67.0	7.203866	-3.531326	5.9431	-0.003866	0.009995	-0.002993	-0.622803	0.209961	-0.037354
68.0	7.201069	-3.487863	5.965494	-0.00593	0.004357	-0.004231	-0.620361	0.207764	-0.041504
69.0	7.176505	-3.522817	5.923753	-0.006108	0.006932	-0.005833	-0.624756	0.209961	-0.041504
70.0	7.177679	-3.512012	5.956728	-0.007036	0.00626	-0.002614	-0.620361	0.207764	-0.039307
71.0	7.202889	-3.53167	5.944079	-0.008212	0.006732	-0.003556	-0.615967	0.203369	-0.037109
72.0	7.177039	-3.512569	5.95717	-0.009318	0.008635	-0.001939	-0.624756	0.207764	-0.039307
73.0	7.176556	-3.512859	5.957582	-0.006094	0.010369	-0.002794	-0.626953	0.209961	-0.035156
74.0	7.173563	-3.502178	5.93617	-0.008157	0.00473	-0.004034	-0.616211	0.209961	-0.041504
75.0	7.197403	-3.500052	5.934724	-0.006149	0.012373	-0.002315	-0.618408	0.209961	-0.041504
76.0	7.19688	-3.500211	5.935264	-0.00369	0.007424	-0.001389	-0.614014	0.212158	-0.045898
77.0	7.174778	-3.513557	5.95931	-0.006149	0.012375	-0.002315	-0.616211	0.209961	-0.041504
78.0	7.194505	-3.478809	5.947451	-0.00492	0.0099	-0.001851	-0.622559	0.203613	-0.041504
79.0	7.176177	-3.557448	5.938351	-0.005972	0.0098	-0.000713	-0.622803	0.209961	-0.039551
80.0	7.217642	-3.477019	5.946671	-0.005972	0.009801	-0.000713	-0.622559	0.207764	-0.043701
81.0	7.195547	-3.49057	5.970571	-0.00697	0.007697	-5.5e-05	-0.629395	0.214111	-0.041748
82.0	7.146441	-3.528256	5.930746	-0.0082	0.010173	-0.000517	-0.618408	0.209961	-0.041504
83.0	7.220127	-3.510609	5.958488	-0.003758	0.005997	-0.003947	-0.625	0.212158	-0.043701
84.0	7.170128	-3.493611	5.973367	-0.005863	0.005795	-0.001672	-0.618164	0.205811	-0.045898
85.0	7.172289	-3.537476	5.951503	-0.010373	0.008542	-0.000801	-0.618408	0.212158	-0.041504
86.0	7.169247	-3.527067	5.93001	-0.006915	0.005695	-0.000534	-0.615967	0.205566	-0.041504
87.0	7.191893	-3.503379	5.939438	-0.00809	0.006168	-0.001476	-0.620605	0.211914	-0.032959
88.0	7.192806	-3.525433	5.928636	-0.008268	0.008746	-0.003076	-0.616211	0.209961	-0.043701
89.0	7.216626	-3.523369	5.927206	-0.004744	0.007329	-0.000249	-0.618164	0.207764	-0.037354
90.0	7.16765	-3.528387	5.931155	-0.010551	0.011123	-0.0024	-0.622559	0.207764	-0.043701
91.0	7.16577	-3.50718	5.942626	-0.00808	0.009604	0.001564	-0.620605	0.209961	-0.045898
92.0	7.190697	-3.527027	5.930245	-0.005975	0.009807	-0.00071	-0.620361	0.207764	-0.037354
93.0	7.191608	-3.516524	5.963329	-0.006916	0.005698	-0.000534	-0.62915	0.209961	-0.043701
94.0	7.191201	-3.516989	5.963544	-0.008025	0.007602	0.001084	-0.620605	0.212158	-0.043701
95.0	7.143658	-3.543897	5.956126	-0.010263	0.004539	-0.001762	-0.622559	0.207764	-0.041504
96.0	7.193166	-3.528782	5.985502	-0.008269	0.008751	-0.003075	-0.620361	0.205566	-0.035156
97.0	7.166022	-3.553061	5.921852	-0.009155	0.002637	-0.00338	-0.618408	0.209961	-0.045898
98.0	7.190088	-3.518464	5.964017	-0.008269	0.008753	-0.003074	-0.618164	0.205566	-0.039307
99.0	7.189662	-3.551406	5.92041	-0.01032	0.006546	-0.001281	-0.622803	0.214111	-0.039551
100.0	7.163909	-3.532303	5.933343	-0.00593	0.004373	-0.004231	-0.616211	0.209961	-0.037354
101.0	7.186615	-3.508337	5.9429	-0.008391	0.00933	-0.005153	-0.616211	0.209961	-0.045898
102.0	7.165982	-3.543404	5.955572	-0.007161	0.006852	-0.004692	-0.618164	0.207764	-0.045898
103.0	7.163104	-3.532662	5.934101	-0.008214	0.006751	-0.003555	-0.620361	0.207764	-0.041504
104.0	7.184484	-3.519505	5.910905	-0.006108	0.006955	-0.005828	-0.618164	0.205811	-0.045898
105.0	7.16527	-3.543602	5.95631	-0.004933	0.006481	-0.004886	-0.620605	0.209961	-0.043701
106.0	7.161178	-3.511048	5.945877	-0.008158	0.004747	-0.004036	-0.618164	0.207764	-0.041504
107.0	7.185334	-3.508687	5.944242	-0.008522	0.006476	-0.010274	-0.622803	0.209961	-0.043701
108.0	7.186522	-3.530257	5.933384	-0.006109	0.006957	-0.005828	-0.618408	0.209961	-0.039307
109.0	7.162181	-3.532656	5.935219	-0.009277	0.003218	-0.00546	-0.622559	0.205566	-0.039307
110.0	7.185079	-3.541137	5.900732	-0.006052	0.004953	-0.006309	-0.620605	0.212158	-0.041504
111.0	7.215848	-3.549707	5.975195	-0.005995	0.002949	-0.006791	-0.618164	0.207764	-0.041504
112.0	7.186415	-3.53024	5.933524	-0.009277	0.003219	-0.00546	-0.620605	0.212158	-0.048096
113.0	7.163494	-3.554462	5.924069	-0.010452	0.003695	-0.006402	-0.622803	0.209961	-0.039551
114.0	7.185158	-3.508634	5.944485	-0.006117	0.003528	-0.00887	-0.620605	0.209961	-0.041504
115.0	7.186481	-3.530232	5.933448	-0.010631	0.006278	-0.007999	-0.622803	0.209961	-0.041504
116.0	7.189229	-3.541085	5.955006	-0.010581	0.000842	-0.011524	-0.618408	0.209961	-0.039307
117.0	7.188135	-3.519413	5.965811	-0.0091	0.00064	-0.003863	-0.618164	0.207764	-0.039307
118.0	7.115693	-3.559214	5.926707	-0.011335	-0.002419	-0.006712	-0.627197	0.214355	-0.043701
119.0	7.210394	-3.47412	5.985198	-0.012331	-0.004526	-0.006058	-0.625	0.211914	-0.035156
120.0	7.212096	-3.528896	5.92943	-0.016603	-0.002932	-0.001028	-0.614014	0.207764	-0.043701
121.0	7.185354	-3.521402	5.908717	-0.021119	-0.000181	-0.000156	-0.616211	0.209961	-0.039307
122.0	7.166385	-3.546818	5.953054	-0.018891	-0.000551	-0.00035	-0.618408	0.212158	-0.037354
123.0	7.189033	-3.556392	5.91818	-0.019179	0.009473	0.002067	-0.623047	0.218506	-0.039551
124.0	7.161803	-3.548822	5.898096	-0.017021	0.004246	-0.003735	-0.616211	0.209961	-0.039307
125.0	7.184452	-3.525534	5.907349	-0.013611	0.006828	5.8e-05	-0.620361	0.205566	-0.037354
126.0	7.162582	-3.571854	5.886825	-0.009217	0.004657	-0.002894	-0.618408	0.212158	-0.043701
127.0	7.186572	-3.537277	5.92914	-0.008342	0.007344	-0.005625	-0.622803	0.212158	-0.039551
128.0	7.187663	-3.526691	5.96208	-0.006988	0.004284	-0.003088	-0.620605	0.209961	-0.035156
129.0	7.188888	-3.548429	5.951044	-0.007231	0.005444	-0.007245	-0.624756	0.205566	-0.039307
130.0	7.213056	-3.545962	5.949462	-0.006056	0.004968	-0.006303	-0.622803	0.214355	-0.041504
131.0	7.161796	-3.539822	5.931412	-0.008222	0.006767	-0.003546	-0.62085	0.216309	-0.037354
132.0	7.187283	-3.526684	5.962543	-0.00371	0.000586	-0.007466	-0.618408	0.212158	-0.043701
133.0	7.160699	-3.550329	5.89853	-0.006994	0.000857	-0.006135	-0.622559	0.209961	-0.035156
134.0	7.188867	-3.548138	5.951243	-0.006056	0.00497	-0.006302	-0.618408	0.214355	-0.043701
135.0	7.186251	-3.537059	5.92966	-0.005998	0.002966	-0.006787	-0.624756	0.207764	-0.043701
136.0	7.184931	-3.547605	5.897026	-0.005061	0.007079	-0.006954	-0.624756	0.209961	-0.037354
137.0	7.185991	-3.536839	5.930106	-0.008345	0.007349	-0.005623	-0.620605	0.212158	-0.045898
138.0	7.211287	-3.556166	5.917579	-0.006174	0.008981	-0.005333	-0.622803	0.212158	-0.039551
139.0	7.182758	-3.525811	5.909244	-0.001594	0.007654	-0.003643	-0.622803	0.212158	-0.041504
140.0	7.185133	-3.536528	5.931331	-0.004007	0.007185	-0.00809	-0.616211	0.214355	-0.039551
141.0	7.209077	-3.533902	5.930121	-0.005179	0.011092	-0.005984	-0.620605	0.212158	-0.039551
142.0	7.184527	-3.536133	5.9323	-0.003886	0.006605	-0.006012	-0.622803	0.209961	-0.041504
143.0	7.184416	-3.535912	5.932566	-0.003827	0.004601	-0.006497	-0.622803	0.209961	-0.037354
144.0	7.18169	-3.52479	5.911151	-0.007292	0.007457	-0.006759	-0.622559	0.207764	-0.043701
145.0	7.188122	-3.568345	5.943511	-0.006057	0.004975	-0.006302	-0.622803	0.214355	-0.041504
146.0	7.184029	-3.535545	5.933254	-0.003887	0.006607	-0.006011	-0.622803	0.209961	-0.037354
147.0	7.186607	-3.57862	5.9113	-0.004008	0.00719	-0.008089	-0.626953	0.207764	-0.041504
148.0	7.182422	-3.545717	5.901216	-0.008648	0.010524	-0.009293	-0.616211	0.209961	-0.037354
149.0	7.181989	-3.513123	5.945664	-0.004068	0.009197	-0.007603	-0.622803	0.212158	-0.039551
150.0	7.185741	-3.545527	5.956571	-0.007414	0.008043	-0.008836	-0.616211	0.212158	-0.041504
151.0	7.182856	-3.534316	5.935406	-0.005304	0.011682	-0.008059	-0.618408	0.211914	-0.035156
152.0	7.17992	-3.523048	5.914338	-0.005244	0.009677	-0.008544	-0.620605	0.212158	-0.037354
153.0	7.181016	-3.544485	5.903668	-0.005124	0.009095	-0.006466	-0.618408	0.214355	-0.039551
154.0	7.183371	-3.555291	5.925712	-0.006239	0.007568	-0.007894	-0.614258	0.214355	-0.039551
155.0	7.181642	-3.53334	5.937456	-0.004311	0.013796	-0.008707	-0.622559	0.207764	-0.039307
156.0	7.156845	-3.53534	5.940055	-0.004493	0.016387	-0.010299	-0.625	0.212158	-0.041504
157.0	7.203697	-3.54071	5.904702	-0.000664	0.008352	-0.006852	-0.620605	0.214355	-0.041504
158.0	7.180264	-3.532044	5.939892	-0.003137	0.013321	-0.007764	-0.625	0.211914	-0.037354
159.0	7.178411	-3.509988	5.951833	-0.003076	0.011317	-0.00825	-0.620605	0.212158	-0.043701
160.0	7.204959	-3.550446	5.928711	-0.002144	0.015435	-0.008413	-0.620605	0.209961	-0.043701
161.0	7.174891	-3.498094	5.931852	-0.003015	0.009312	-0.008736	-0.620605	0.209961	-0.037354
162.0	7.178679	-3.562696	5.899129	-0.002025	0.014853	-0.006335	-0.627197	0.212158	-0.041504
163.0	7.177786	-3.52995	5.944132	0.000205	0.014482	-0.006527	-0.622803	0.212158	-0.041504
164.0	7.178634	-3.551189	5.933907	-0.004314	0.013806	-0.008706	-0.620605	0.214355	-0.041504
165.0	7.202406	-3.548432	5.933017	-0.002958	0.010738	-0.006172	-0.625	0.209961	-0.043701
166.0	7.175064	-3.539579	5.913838	-0.003202	0.015337	-0.007276	-0.622559	0.207764	-0.043701
167.0	7.197355	-3.515102	5.92422	-0.001902	0.010846	-0.007306	-0.627197	0.214355	-0.043701
168.0	7.194335	-3.503717	5.903357	-0.001965	0.012853	-0.00682	-0.624756	0.209961	-0.037354
169.0	7.200257	-3.546954	5.936508	0.00014	0.016496	-0.006038	-0.626953	0.209961	-0.039551
170.0	7.175309	-3.549012	5.939229	-0.002028	0.014862	-0.006333	-0.618408	0.212158	-0.041504
171.0	7.197544	-3.524402	5.949751	0.002496	0.012112	-0.007202	-0.626953	0.207764	-0.032959
172.0	7.170151	-3.515235	5.930815	2e-05	0.017085	-0.008114	-0.620361	0.207764	-0.039307
173.0	7.19504	-3.534149	5.919169	-0.004204	0.01666	-0.003578	-0.625	0.212158	-0.041504
174.0	7.168522	-3.514787	5.93305	0.000257	0.015917	-0.003959	-0.618408	0.212158	-0.041504
175.0	7.194521	-3.522955	5.954263	0.000138	0.016504	-0.006036	-0.624756	0.209961	-0.039551
176.0	7.165933	-3.524699	5.902491	-0.00203	0.01487	-0.006332	-0.622559	0.207764	-0.039307
177.0	7.194543	-3.543836	5.945292	0.002487	0.015549	-0.004148	-0.625	0.212158	-0.039551
178.0	7.168514	-3.556575	5.915163	-0.00438	0.01583	-0.008219	-0.620605	0.212158	-0.037354
179.0	7.16503	-3.512758	5.938467	0.002495	0.012121	-0.007198	-0.618408	0.212158	-0.039551
180.0	7.191171	-3.520808	5.959577	-0.002095	0.016882	-0.005845	-0.618408	0.209961	-0.041504
181.0	7.190368	-3.520512	5.960721	-0.000921	0.016405	-0.004901	-0.622559	0.205566	-0.035156
182.0	7.16687	-3.54432	5.952206	-0.002032	0.014877	-0.006331	-0.618408	0.214355	-0.039551
183.0	7.162204	-3.511336	5.942715	-0.002032	0.014878	-0.006331	-0.622803	0.212158	-0.041504
184.0	7.167022	-3.565312	5.943033	0.000316	0.013921	-0.004443	-0.624756	0.209961	-0.041504
185.0	7.163322	-3.521677	5.966445	-0.000923	0.01641	-0.0049	-0.618408	0.209961	-0.039307
186.0	7.186874	-3.518944	5.965858	-0.001851	0.012285	-0.00474	-0.615967	0.205566	-0.041504
187.0	7.157951	-3.488504	5.957907	-0.004447	0.01785	-0.007732	-0.624756	0.209961	-0.037354
188.0	7.184458	-3.528964	5.935096	0.000198	0.014512	-0.006518	-0.616211	0.209961	-0.041504
189.0	7.181456	-3.517454	5.914342	-0.002021	0.011454	-0.009381	-0.618164	0.207764	-0.043701
190.0	7.185921	-3.538944	5.958618	-0.001043	0.017004	-0.006975	-0.620605	0.209961	-0.041504
191.0	7.184201	-3.549222	5.926886	-0.002035	0.014887	-0.006329	-0.622803	0.209961	-0.041504
192.0	7.132073	-3.510462	5.953333	-0.000978	0.014997	-0.007461	-0.622803	0.209961	-0.039551
193.0	7.182924	-3.548411	5.928919	-0.004384	0.015849	-0.008218	-0.625	0.212158	-0.039551
194.0	7.157458	-3.518194	5.97553	-0.002219	0.017489	-0.007918	-0.620605	0.212158	-0.041504
195.0	7.159835	-3.561102	5.95421	0.000377	0.011923	-0.004926	-0.620605	0.212158	-0.041504
196.0	7.180377	-3.514971	5.976015	-0.004452	0.017863	-0.00773	-0.620605	0.209961	-0.041504
197.0	7.181284	-3.536348	5.965745	-0.001789	0.010286	-0.005226	-0.618652	0.216553	-0.045898
198.0	7.154025	-3.52747	5.946472	-0.00098	0.015005	-0.007459	-0.616211	0.212158	-0.039551
199.0	7.154923	-3.548649	5.93634	-0.000981	0.015006	-0.007459	-0.62085	0.218506	-0.043701
200.0	7.174574	-3.513083	5.925282	-0.003146	0.013368	-0.00776	-0.615967	0.207764	-0.041504
201.0	7.179002	-3.534776	5.969422	-0.00303	0.01278	-0.005683	-0.622803	0.209961	-0.041504
202.0	7.155876	-3.558663	5.960424	-0.004071	0.009239	-0.007603	-0.616211	0.212158	-0.045898
203.0	7.174106	-3.501472	5.960382	-0.002156	0.015491	-0.008403	-0.622559	0.207764	-0.041504
204.0	7.176698	-3.544264	5.93893	-0.002022	0.01147	-0.009378	-0.61792	0.201416	-0.041504
205.0	7.177339	-3.533113	5.972406	-0.006535	0.010791	-0.01157	-0.616211	0.212158	-0.041504
206.0	7.173648	-3.532272	5.918563	-0.004371	0.012433	-0.011268	-0.620361	0.207764	-0.045898
207.0	7.124303	-3.504546	5.966107	-0.006352	0.008193	-0.009981	-0.627197	0.212158	-0.039551
208.0	7.175716	-3.542363	5.941251	-0.00313	0.009944	-0.01081	-0.614014	0.209961	-0.041504
209.0	7.14819	-3.501117	5.965574	-0.007527	0.008675	-0.010926	-0.618164	0.207764	-0.041504
210.0	7.17384	-3.519987	5.953242	-0.008585	0.008566	-0.009795	-0.622803	0.214355	-0.041504
211.0	7.171359	-3.508681	5.931779	-0.008565	0.005136	-0.012847	-0.620605	0.212158	-0.039551
212.0	7.176206	-3.53075	5.975164	-0.012704	0.007537	-0.003194	-0.618408	0.214111	-0.037354
213.0	7.171885	-3.498413	5.964849	-0.013051	0.009311	-0.009423	-0.623047	0.218506	-0.041748
214.0	7.14896	-3.522828	5.955309	-0.013995	0.008611	-0.006216	-0.622803	0.209961	-0.045898
215.0	7.172901	-3.520688	5.953958	-0.012821	0.008132	-0.00527	-0.618408	0.212158	-0.037354
216.0	7.174209	-3.542567	5.942949	-0.008356	0.007391	-0.00564	-0.622559	0.207764	-0.039307
217.0	7.146516	-3.501858	5.967145	-0.005018	0.008551	-0.004391	-0.616211	0.212158	-0.043701
218.0	7.19371	-3.507349	5.93188	-0.008725	0.012599	-0.008814	-0.618408	0.209961	-0.045898
219.0	7.171643	-3.520674	5.955482	-0.004006	0.007244	-0.008086	-0.625	0.212158	-0.045898
220.0	7.171491	-3.520331	5.955868	-0.001658	0.006281	-0.006195	-0.624756	0.205566	-0.041504
221.0	7.172859	-3.541642	5.945129	-0.002902	0.008775	-0.006652	-0.622803	0.212158	-0.043701
222.0	7.149219	-3.533192	5.979983	-0.001843	0.008887	-0.007782	-0.620605	0.209961	-0.039307
223.0	7.17232	-3.540889	5.946228	-0.002902	0.008776	-0.006651	-0.622803	0.209961	-0.039551
224.0	7.172033	-3.540585	5.946755	-0.002903	0.008777	-0.006651	-0.622803	0.209961	-0.039551
225.0	7.170931	-3.508052	5.991403	-0.000625	0.009826	-0.00427	-0.622803	0.209961	-0.037354
226.0	7.172273	-3.529507	5.980618	-0.006055	0.005013	-0.006315	-0.622803	0.214355	-0.043701
227.0	7.169673	-3.51841	5.959191	-0.006125	0.007026	-0.005826	-0.620361	0.205566	-0.039307
228.0	7.171016	-3.539939	5.948367	-0.00631	0.009631	-0.007412	-0.614014	0.207764	-0.043701
229.0	7.216657	-3.523672	5.924373	-0.005207	0.011163	-0.005976	-0.620361	0.207764	-0.041504
230.0	7.145996	-3.542288	5.950874	-0.006196	0.00904	-0.005336	-0.616211	0.209961	-0.035156
231.0	7.165839	-3.506989	5.939446	-0.005137	0.009152	-0.006466	-0.620605	0.209961	-0.039307
232.0	7.167086	-3.528409	5.928808	-0.004148	0.011277	-0.007106	-0.61377	0.205811	-0.048096
233.0	7.147303	-3.552836	5.974171	-0.004034	0.010684	-0.00503	-0.618164	0.205566	-0.039307
234.0	7.1654	-3.495872	5.974125	-0.006382	0.011649	-0.006921	-0.624756	0.207764	-0.045898
235.0	7.193451	-3.525796	5.983532	-0.003822	0.004648	-0.006499	-0.622803	0.209961	-0.039551
236.0	7.142473	-3.519989	5.964763	-0.010222	0.002558	-0.002287	-0.62085	0.216553	-0.043701
237.0	7.142422	-3.520099	5.964759	-0.008518	0.006578	-0.010282	-0.622559	0.207764	-0.043701
238.0	7.168964	-3.528506	5.985174	-0.00836	0.007403	-0.005641	-0.616211	0.214355	-0.039551
239.0	7.192301	-3.536508	5.951011	-0.007158	0.00349	-0.007751	-0.622803	0.209961	-0.039551
240.0	7.166498	-3.517323	5.963651	-0.007159	0.003491	-0.007751	-0.622803	0.209961	-0.041504
241.0	7.168058	-3.538855	5.952575	-0.006128	0.007034	-0.005824	-0.618408	0.209961	-0.041504
242.0	7.168001	-3.538692	5.95274	-0.006099	0.003604	-0.00888	-0.616211	0.209961	-0.037354
243.0	7.168855	-3.52806	5.985568	-0.010452	0.00375	-0.006438	-0.625244	0.216309	-0.043701
244.0	7.165514	-3.527645	5.931162	-0.008477	0.008002	-0.007715	-0.620605	0.214355	-0.043701
245.0	7.167881	-3.5386	5.95294	-0.004811	0.002528	-0.005859	-0.620605	0.209961	-0.041504
246.0	7.170333	-3.549467	5.974667	-0.007346	0.006103	-0.009335	-0.618164	0.207764	-0.043701
247.0	7.162157	-3.484026	5.953921	-0.008219	0.003382	-0.006621	-0.620605	0.212158	-0.041504
248.0	7.165434	-3.52722	5.931512	-0.007232	0.005508	-0.007259	-0.618408	0.209961	-0.039307
249.0	7.192005	-3.53574	5.951826	-0.009351	0.005283	-0.005001	-0.622803	0.212158	-0.041504
250.0	7.16512	-3.52722	5.93189	-0.004083	0.009278	-0.007589	-0.618408	0.209961	-0.043701
251.0	7.19395	-3.546709	5.974103	-0.00825	0.006813	-0.003564	-0.620605	0.212158	-0.037354
252.0	7.165268	-3.516617	5.965544	-0.004156	0.011292	-0.007097	-0.618408	0.209961	-0.039307
253.0	7.185988	-3.513291	5.910152	-0.002722	0.006187	-0.005059	-0.618652	0.216309	-0.039551
254.0	7.188172	-3.524169	5.932191	-0.006318	0.009651	-0.007405	-0.620605	0.214355	-0.041504
255.0	7.190307	-3.534998	5.954317	-0.004084	0.009282	-0.007588	-0.616211	0.212158	-0.041504
256.0	7.163269	-3.526323	5.934659	-0.004043	0.010698	-0.005022	-0.625	0.214111	-0.039551
257.0	7.166153	-3.526605	5.98966	-0.002837	0.006786	-0.007134	-0.616455	0.216309	-0.041504
258.0	7.186949	-3.523314	5.93418	-0.006204	0.009056	-0.00533	-0.622803	0.212158	-0.041504
259.0	7.188908	-3.534331	5.956402	-0.006465	0.013681	-0.006422	-0.618164	0.207764	-0.041504
260.0	7.164163	-3.536762	5.958505	-0.001809	0.010331	-0.005203	-0.618408	0.209961	-0.043701
261.0	7.189668	-3.555697	5.946413	-0.006091	0.00846	-0.003255	-0.616211	0.211914	-0.035156
262.0	7.161717	-3.515076	5.970714	-0.005145	0.009173	-0.006459	-0.620361	0.207764	-0.039307
263.0	7.186526	-3.544404	5.925794	-0.002984	0.010817	-0.006149	-0.618164	0.207764	-0.041504
264.0	7.186747	-3.533692	5.959388	-0.002944	0.012233	-0.003582	-0.614014	0.209961	-0.037354
265.0	7.184529	-3.511988	5.971331	-0.005219	0.011189	-0.005967	-0.615967	0.205566	-0.039307
266.0	7.185892	-3.533432	5.960573	-0.001549	0.005709	-0.004112	-0.620605	0.209961	-0.048096
267.0	7.158934	-3.524743	5.940826	-0.004159	0.011304	-0.007095	-0.623047	0.216309	-0.037354
268.0	7.158567	-3.524535	5.941391	-0.00632	0.009661	-0.007405	-0.616455	0.214355	-0.043701
269.0	7.184879	-3.532906	5.962106	-0.005032	0.008579	-0.004384	-0.618408	0.214355	-0.041504
270.0	7.182044	-3.521839	5.940991	-0.005107	0.010593	-0.003891	-0.61377	0.207764	-0.035156
271.0	7.159795	-3.535534	5.964481	-0.006207	0.009065	-0.00533	-0.618164	0.207764	-0.045898
272.0	7.181271	-3.52183	5.94193	-0.006207	0.009065	-0.00533	-0.620605	0.209961	-0.048096
273.0	7.18334	-3.532818	5.964012	-0.003972	0.008696	-0.005511	-0.620361	0.205566	-0.043701
274.0	7.157163	-3.51386	5.976888	-0.008179	0.004809	-0.004059	-0.615967	0.205566	-0.037109
275.0	7.183019	-3.53282	5.964398	-0.008519	0.006608	-0.010282	-0.620605	0.212158	-0.039551
276.0	7.179711	-3.532206	5.910187	-0.003747	0.007498	-0.001361	-0.618408	0.212158	-0.043701
277.0	7.158264	-3.535431	5.966379	-0.007307	0.007539	-0.006768	-0.618408	0.212158	-0.041504
278.0	7.179853	-3.521817	5.943652	-0.008255	0.006825	-0.003566	-0.618164	0.207764	-0.045898
279.0	7.183721	-3.554583	5.954261	-0.004959	0.00657	-0.004875	-0.620605	0.209961	-0.039307
280.0	7.151693	-3.481366	5.968038	-0.00602	0.006455	-0.003747	-0.620605	0.209961	-0.041504
281.0	7.15495	-3.524622	5.945695	-0.005945	0.004441	-0.00424	-0.620605	0.209961	-0.035156
282.0	7.181399	-3.533148	5.966155	-0.006021	0.006456	-0.003747	-0.618164	0.205566	-0.041504
283.0	7.156225	-3.546446	5.934832	-0.008256	0.006827	-0.003566	-0.616211	0.209961	-0.037354
284.0	7.177682	-3.532854	5.912263	-0.006285	0.011087	-0.004834	-0.620605	0.214355	-0.045898
285.0	7.157886	-3.557922	5.957102	-0.009129	0.004097	-0.000857	-0.618164	0.207764	-0.037354
286.0	7.153532	-3.525528	5.946864	-0.006021	0.006458	-0.003746	-0.620605	0.209961	-0.045898
287.0	7.15328	-3.525618	5.947113	-0.006021	0.006459	-0.003746	-0.622803	0.209961	-0.039551
288.0	7.177839	-3.512673	5.978969	-0.008333	0.008844	-0.003072	-0.616455	0.214355	-0.045898
289.0	7.155019	-3.537277	5.969177	-0.00913	0.004098	-0.000858	-0.615967	0.205566	-0.041504
290.0	7.176577	-3.523774	5.946447	-0.003862	0.008104	-0.003433	-0.616211	0.214111	-0.037354
291.0	7.180484	-3.556672	5.956918	-0.010228	0.00257	-0.002298	-0.620605	0.214355	-0.041504
292.0	7.154386	-3.53812	5.969436	-0.008069	0.004215	-0.001985	-0.622803	0.214355	-0.041504
293.0	7.200978	-3.511723	5.97797	-0.012464	0.002942	-0.002118	-0.618408	0.209961	-0.041504
294.0	7.154126	-3.539249	5.969078	-0.012352	0.002341	-4.4e-05	-0.618408	0.212158	-0.043701
295.0	7.175828	-3.526308	5.94585	-0.016936	0.003686	-0.001756	-0.620361	0.207764	-0.037354
296.0	7.151364	-3.529849	5.946907	-0.015838	0.005215	-0.000315	-0.615967	0.207764	-0.041504
297.0	7.152791	-3.552417	5.935401	-0.018075	0.005588	-0.000134	-0.618408	0.209961	-0.039307
298.0	7.176538	-3.55068	5.934135	-0.01277	0.011007	-0.000137	-0.620605	0.212158	-0.037354
299.0	7.173579	-3.540285	5.912798	-0.012694	0.008993	-0.000632	-0.622803	0.209961	-0.037354
300.0	7.173875	-3.530362	5.945801	-0.010418	0.005196	-0.003876	-0.620605	0.214355	-0.041504
301.0	7.151091	-3.554885	5.935972	-0.009509	0.009342	-0.004013	-0.616211	0.209961	-0.041504
302.0	7.174995	-3.552423	5.934958	-0.006023	0.006469	-0.003742	-0.62085	0.218506	-0.039551
303.0	7.175389	-3.542004	5.968133	-0.006135	0.007073	-0.005815	-0.618408	0.212158	-0.039551
304.0	7.150314	-3.555036	5.936817	-0.006135	0.007073	-0.005815	-0.615967	0.207764	-0.039307
305.0	7.174973	-3.54183	5.968737	-0.005073	0.00719	-0.006942	-0.622803	0.212158	-0.039551
306.0	7.148372	-3.533164	5.948536	-0.005905	0.001029	-0.007302	-0.622803	0.209961	-0.043701
307.0	7.152492	-3.565753	5.958899	-0.006136	0.007075	-0.005815	-0.622559	0.205566	-0.037354
308.0	7.198496	-3.549022	5.934998	-0.004047	0.005897	-0.010637	-0.62085	0.216309	-0.041748
309.0	7.170019	-3.518761	5.92627	-0.007199	0.006959	-0.004688	-0.622803	0.212158	-0.039551
310.0	7.152008	-3.565226	5.959795	-0.006326	0.009696	-0.007392	-0.618408	0.214355	-0.045898
311.0	7.198392	-3.53819	5.969011	-0.003978	0.008721	-0.005498	-0.620605	0.212158	-0.041504
312.0	7.147179	-3.532164	5.950563	-0.004167	0.011342	-0.007075	-0.618408	0.212158	-0.039551
313.0	7.173269	-3.540476	5.971588	-0.005307	0.013241	-0.005453	-0.622559	0.207764	-0.041504
314.0	7.170462	-3.529148	5.950636	-0.00409	0.009328	-0.007571	-0.616211	0.209961	-0.041504
315.0	7.172514	-3.54006	5.972742	-0.001631	0.007746	-0.003604	-0.622803	0.209961	-0.043701
316.0	7.172238	-3.539954	5.973136	-0.006137	0.00708	-0.005815	-0.622559	0.207764	-0.041504
317.0	7.148898	-3.574369	5.930676	-0.003106	0.011463	-0.008201	-0.618408	0.212158	-0.039551
318.0	7.171014	-3.54979	5.941342	-0.004091	0.009331	-0.007571	-0.622803	0.214355	-0.041504
319.0	7.172531	-3.570975	5.930568	-0.003028	0.009449	-0.008697	-0.618408	0.212158	-0.039551
320.0	7.168689	-3.527491	5.953754	-0.005265	0.009821	-0.008517	-0.622803	0.212158	-0.043701
321.0	7.168419	-3.527121	5.954298	-0.003029	0.00945	-0.008696	-0.622559	0.207764	-0.039307
322.0	7.169891	-3.548254	5.943614	-0.004282	0.011956	-0.009146	-0.616455	0.216309	-0.041504
323.0	7.169436	-3.547873	5.94439	-0.004361	0.013974	-0.008649	-0.625	0.214111	-0.037354
324.0	7.169	-3.547421	5.945186	-0.004393	0.012565	-0.011219	-0.620605	0.212158	-0.043701
325.0	7.166876	-3.525447	5.957146	-0.004092	0.009337	-0.00757	-0.616211	0.212158	-0.039551
326.0	7.168952	-3.536226	5.979286	-0.00303	0.009455	-0.008695	-0.616455	0.216309	-0.041504
327.0	7.194672	-3.554666	5.967353	-0.004283	0.011962	-0.009145	-0.618408	0.214111	-0.037354
328.0	7.163558	-3.513031	5.937473	-0.002047	0.011592	-0.009323	-0.620361	0.207764	-0.041504
329.0	7.167924	-3.534911	5.981295	-0.005267	0.009829	-0.008516	-0.618652	0.216309	-0.039551
330.0	7.164719	-3.53381	5.927396	-0.004284	0.011965	-0.009145	-0.620361	0.207764	-0.043701
331.0	7.164891	-3.523138	5.960899	-0.008679	0.010691	-0.009285	-0.616211	0.212158	-0.045898
332.0	7.1642	-3.533342	5.928303	-0.006171	0.00568	-0.008385	-0.625	0.216309	-0.037354
333.0	7.166365	-3.544304	5.95022	-0.007506	0.010204	-0.008338	-0.620605	0.209961	-0.039307
334.0	7.167396	-3.576017	5.906452	-0.006443	0.010323	-0.009462	-0.620605	0.209961	-0.039307
335.0	7.164023	-3.522221	5.962483	-0.006363	0.008308	-0.00996	-0.622803	0.214111	-0.039551
336.0	7.163326	-3.532219	5.930027	-0.004206	0.009955	-0.00964	-0.614014	0.212158	-0.039307
337.0	7.138896	-3.534544	5.931718	-0.005189	0.00782	-0.009012	-0.622803	0.212158	-0.039551
338.0	7.165738	-3.53229	5.985462	-0.004096	0.009348	-0.007567	-0.622803	0.212158	-0.037354
339.0	7.164541	-3.552735	5.920065	-0.004016	0.007331	-0.008064	-0.615967	0.207764	-0.041504
340.0	7.185362	-3.496162	5.974923	-0.006555	0.010938	-0.011534	-0.622559	0.205566	-0.041504
341.0	7.142738	-3.555466	5.976719	-0.00519	0.007823	-0.009011	-0.616211	0.209961	-0.039307
342.0	7.188721	-3.538518	5.95309	-0.00519	0.007824	-0.009011	-0.614014	0.212158	-0.041504
343.0	7.166691	-3.552	5.976284	-0.004127	0.007944	-0.010136	-0.618408	0.209961	-0.041504
344.0	7.166576	-3.55152	5.976707	-0.004127	0.007945	-0.010136	-0.616211	0.209961	-0.037354
345.0	7.139758	-3.542645	5.956895	-0.001943	0.011	-0.007244	-0.62085	0.216309	-0.037354
346.0	7.190755	-3.537534	6.009572	-0.006476	0.008927	-0.012031	-0.615967	0.207764	-0.041504
347.0	7.163267	-3.549198	5.923727	0.00043	0.00519	-0.010987	-0.625	0.211914	-0.037354
348.0	7.163691	-3.538255	5.957035	-0.006366	0.008318	-0.009958	-0.620605	0.209961	-0.039307
349.0	7.161615	-3.516332	5.968849	-0.004211	0.009967	-0.009637	-0.618408	0.212158	-0.039551
350.0	7.185575	-3.513222	5.968197	-0.006449	0.010338	-0.00946	-0.62085	0.216309	-0.041748
351.0	7.16259	-3.54748	5.925575	-0.005303	0.008442	-0.011082	-0.616455	0.216309	-0.039551
352.0	7.188952	-3.555514	5.946436	-0.00645	0.01034	-0.00946	-0.611816	0.212158	-0.041504
353.0	7.16035	-3.525296	5.937736	-0.007348	0.006184	-0.009332	-0.620605	0.212158	-0.039551
354.0	7.164412	-3.55774	5.948308	-0.008799	0.011323	-0.011354	-0.615967	0.207764	-0.041504
355.0	7.138163	-3.538562	5.961231	-0.004046	0.005938	-0.010632	-0.625	0.209961	-0.043701
356.0	7.214578	-3.572723	5.935447	-0.006782	0.01218	-0.015674	-0.622559	0.207764	-0.045898
357.0	7.185884	-3.542071	5.927112	-0.003344	0.012727	-0.012331	-0.620605	0.212158	-0.039551
358.0	7.155627	-3.479497	5.963162	-0.004629	0.013832	-0.01535	-0.625	0.214111	-0.039551
359.0	7.157676	-3.490049	5.985432	-0.007738	0.011451	-0.012478	-0.620361	0.207764	-0.039307
360.0	7.159446	-3.51098	5.974599	-0.005525	0.009678	-0.015223	-0.620605	0.209961	-0.041504
361.0	7.179322	-3.475023	5.963629	-0.007435	0.00821	-0.008833	-0.625	0.209961	-0.043701
362.0	7.15893	-3.520474	5.942307	-0.003963	0.003927	-0.01113	-0.622803	0.209961	-0.039551
363.0	7.183081	-3.517338	5.94145	-0.008694	0.01072	-0.009281	-0.624756	0.209961	-0.041504
364.0	7.159167	-3.509695	5.975688	-0.008136	0.001422	-0.007135	-0.616211	0.209961	-0.037354
365.0	7.185423	-3.528159	5.963211	-0.006397	0.006931	-0.012526	-0.616211	0.214355	-0.039551
366.0	7.159378	-3.509086	5.975793	-0.00942	0.002528	-0.010154	-0.620605	0.209961	-0.041504
367.0	7.163445	-3.552031	5.952884	-0.010485	0.002406	-0.009031	-0.618164	0.205566	-0.039307
368.0	7.159362	-3.519299	5.942483	-0.009311	0.001916	-0.008083	-0.620361	0.207764	-0.041504
369.0	7.190252	-3.560472	5.972962	-0.010461	0.003812	-0.00646	-0.626953	0.207764	-0.045898
370.0	7.157127	-3.508063	5.920836	-0.006289	0.006322	-0.010453	-0.616211	0.209961	-0.039307
371.0	7.186126	-3.527507	5.962751	-0.012639	0.000761	-0.009355	-0.622803	0.214355	-0.041504
372.0	7.162103	-3.53014	5.963755	-0.003854	0.003322	-0.009057	-0.618164	0.207764	-0.043701
373.0	7.184241	-3.515822	5.940945	-0.008161	2.4e-05	-0.009706	-0.624756	0.207764	-0.039307
374.0	7.164492	-3.55117	5.952137	-0.008333	0.004061	-0.008705	-0.622559	0.207764	-0.043701
375.0	7.158395	-3.4968	5.953259	-0.008248	0.002044	-0.009205	-0.622559	0.207764	-0.043701
376.0	7.18471	-3.515349	5.940658	-0.008334	0.004062	-0.008705	-0.625	0.211914	-0.037354
377.0	7.184357	-3.525467	5.907808	-0.003831	0.004727	-0.006484	-0.622803	0.209961	-0.041504
378.0	7.162836	-3.528932	5.96359	-0.008444	0.00468	-0.010776	-0.622803	0.212158	-0.041504
379.0	7.188971	-3.547462	5.95122	-0.008507	0.0081	-0.007704	-0.618408	0.212158	-0.037354
380.0	7.158342	-3.495728	5.953953	-0.001899	0.007612	-0.0103	-0.624756	0.207764	-0.039307
381.0	7.188654	-3.546857	5.951963	-0.007223	0.006992	-0.004685	-0.618408	0.209961	-0.039307
382.0	7.182174	-3.49259	5.953473	-0.006268	0.007734	-0.007879	-0.622803	0.212158	-0.039551
383.0	7.163947	-3.549532	5.95377	-0.006245	0.009136	-0.005307	-0.622803	0.209961	-0.039551
384.0	7.187442	-3.556861	5.920234	-0.004203	0.011403	-0.007052	-0.618164	0.207764	-0.041504
385.0	7.158801	-3.516576	5.94477	-0.007508	0.011648	-0.005754	-0.620605	0.209961	-0.039307
386.0	7.183012	-3.503379	5.977061	-0.003919	0.006751	-0.005983	-0.618408	0.212158	-0.037354
387.0	7.206565	-3.510749	5.943444	-0.006333	0.011157	-0.004806	-0.627197	0.212158	-0.041504
388.0	7.16007	-3.527623	5.967684	-0.006159	0.007121	-0.005808	-0.620361	0.207764	-0.037354
389.0	7.159427	-3.537751	5.935205	-0.004204	0.011407	-0.007051	-0.616211	0.209961	-0.043701
390.0	7.183259	-3.534782	5.934641	-0.006247	0.00914	-0.005307	-0.622803	0.212158	-0.043701
391.0	7.158782	-3.537446	5.936165	-0.004029	0.007372	-0.008053	-0.618164	0.207764	-0.043701
392.0	7.180465	-3.52314	5.913925	-0.006357	0.00976	-0.007377	-0.616211	0.209961	-0.035156
393.0	7.158173	-3.536999	5.937166	-0.004205	0.011411	-0.007049	-0.618652	0.216309	-0.039551
394.0	7.181903	-3.533922	5.936794	-0.006643	0.014418	-0.008444	-0.622803	0.212158	-0.039551
395.0	7.205632	-3.530842	5.936428	-0.004206	0.011413	-0.007049	-0.618408	0.212158	-0.041504
396.0	7.152822	-3.4932	5.962064	-0.001878	0.009026	-0.007724	-0.625	0.212158	-0.041504
397.0	7.180511	-3.53305	5.938995	-0.004472	0.017472	-0.005544	-0.618164	0.207764	-0.037354
398.0	7.177739	-3.511334	5.95145	-0.003319	0.01558	-0.007167	-0.620605	0.209961	-0.037354
399.0	7.181099	-3.553998	5.929643	-0.002144	0.015087	-0.006219	-0.626953	0.209961	-0.041504
400.0	7.176432	-3.510748	5.953371	-0.001947	0.01245	-0.00465	-0.618408	0.209961	-0.045898
401.0	7.177967	-3.53193	5.942736	-0.003142	0.011544	-0.00817	-0.622803	0.209961	-0.039551
402.0	7.155579	-3.545564	5.966185	-0.002165	0.013691	-0.00879	-0.618408	0.212158	-0.041504
403.0	7.15071	-3.512561	5.956869	-0.004188	0.012821	-0.004476	-0.622559	0.207764	-0.039307
404.0	7.176258	-3.531018	5.945342	-0.004585	0.018101	-0.007612	-0.614014	0.209961	-0.041504
405.0	7.151756	-3.523192	5.980259	-0.000812	0.009161	-0.008844	-0.618408	0.209961	-0.041504
406.0	7.177322	-3.551624	5.935635	-0.002148	0.015096	-0.006216	-0.622559	0.207764	-0.039307
407.0	7.17478	-3.519508	5.981111	-0.001172	0.017243	-0.006835	-0.625	0.212158	-0.045898
408.0	7.173489	-3.539552	5.91647	0.000978	0.018897	-0.006505	-0.618164	0.205811	-0.045898
409.0	7.146457	-3.510242	5.963337	0.000996	0.020299	-0.003933	-0.625	0.209961	-0.043701
410.0	7.149924	-3.542485	5.974787	0.002332	0.014365	-0.00656	-0.624756	0.205811	-0.048096
411.0	7.029589	-3.524715	6.079534	0.028315	-0.012369	-0.005189	-0.620605	0.214111	-0.039551
412.0	6.873613	-3.585293	6.17065	0.120152	-0.136897	0.009757	-0.624756	0.207764	-0.039307
413.0	7.0574	-3.619722	6.067559	0.202819	-0.225517	0.011603	-0.624756	0.207764	-0.039307
414.0	6.583988	-3.595223	6.583164	0.317269	-0.395268	0.009008	-0.620605	0.209961	-0.039307
415.0	6.219746	-3.673856	6.635147	0.437732	-0.760536	-0.002573	-0.624512	0.203369	-0.035156
416.0	7.257713	-3.85914	5.73246	0.432063	-0.988742	-0.043221	-0.626953	0.20752	-0.02417
417.0	7.453078	-3.450433	5.492847	0.338584	-0.90839	-0.117521	-0.626709	0.205322	-0.02002
418.0	7.69826	-3.653057	5.381606	0.244426	-0.741711	-0.166389	-0.633301	0.205322	-0.015625
419.0	7.764255	-3.527639	5.466698	0.168875	-0.588585	-0.177027	-0.633057	0.200928	-0.01123
420.0	7.91587	-3.415947	5.485334	0.090291	-0.438941	-0.170336	-0.633301	0.205078	-0.01123
421.0	7.799877	-3.132192	5.613126	0.01986	-0.290398	-0.160917	-0.630859	0.196533	-0.006836
422.0	7.743926	-3.107487	5.613214	-0.027967	-0.17471	-0.155025	-0.630859	0.19873	-0.004639
423.0	7.691265	-3.128625	5.65213	-0.060921	-0.095964	-0.154305	-0.633057	0.19873	-0.009033
424.0	7.725141	-3.414094	5.523176	-0.081367	-0.037657	-0.148077	-0.635254	0.19873	-0.004639
425.0	7.689599	-3.468027	5.524009	-0.094237	0.0184	-0.146197	-0.637207	0.194336	-0.004639
426.0	7.672694	-3.3218	5.514043	-0.097976	0.05825	-0.136509	-0.637451	0.19873	-0.004639
427.0	7.634184	-3.398754	5.509679	-0.078523	0.077935	-0.128694	-0.630859	0.196533	-0.006836
428.0	7.654697	-3.09459	5.631095	-0.068983	0.086372	-0.11175	-0.637207	0.194336	-0.006836
429.0	7.825739	-0.436063	6.762591	-0.072945	0.058746	-0.076888	-0.633057	0.196533	-0.000488
430.0	7.410986	-4.934211	4.674412	-0.189136	0.07682	-0.017022	-0.639404	0.194336	-0.009033
431.0	7.506124	-4.304156	5.278347	-0.076605	0.075672	-0.067023	-0.635254	0.200928	-0.01123
432.0	7.666078	-2.897077	5.628339	-0.07171	0.085705	-0.068283	-0.639404	0.192139	-0.009033
433.0	7.478438	-3.19734	5.595227	-0.084881	0.081339	-0.051774	-0.63501	0.194336	-0.006836
434.0	7.500529	-3.446383	5.497048	-0.071344	0.07887	-0.051023	-0.630859	0.196533	-0.01123
435.0	7.584243	-3.137818	5.558613	-0.061255	0.066698	-0.043471	-0.633057	0.196533	-0.009033
436.0	7.540141	-3.102723	5.697064	-0.071082	0.060123	-0.028835	-0.632813	0.194336	-0.006836
437.0	7.528983	-3.216069	5.699339	-0.065615	0.045842	-0.025953	-0.633057	0.200928	-0.009033
438.0	7.496444	-3.231864	5.615655	-0.063835	0.041589	-0.019299	-0.63501	0.19458	-0.015625
439.0	7.450711	-3.283915	5.598532	-0.056469	0.034855	-0.014714	-0.630615	0.194336	-0.006836
440.0	7.534698	-3.362257	5.601667	-0.0491	0.028111	-0.010132	-0.637451	0.200928	-0.006836
441.0	7.576065	-3.324773	5.587487	-0.042236	0.026539	-0.008719	-0.637207	0.192383	-0.013428
442.0	7.430951	-3.378995	5.557365	-0.031769	0.02355	-0.004534	-0.630859	0.19458	-0.013428
443.0	7.477634	-3.341053	5.597713	-0.025229	0.019873	-0.010297	-0.630859	0.19873	-0.015625
444.0	7.383193	-3.253838	5.519738	-0.020414	0.011334	-0.012676	-0.635254	0.200928	-0.017822
445.0	7.390257	-3.275832	5.562763	-0.020321	0.006034	-0.016201	-0.632813	0.194336	-0.01123
446.0	7.374454	-3.332698	5.56335	-0.013595	-0.00492	-0.025975	-0.630859	0.196533	-0.01123
447.0	7.402112	-3.349105	5.548782	-0.009358	-0.012955	-0.037113	-0.637451	0.196533	-0.006836
448.0	7.349681	-3.363308	5.464717	0.001573	-0.018624	-0.045869	-0.635254	0.196533	-0.013428
449.0	7.321469	-3.340783	5.422385	0.008042	-0.026965	-0.057224	-0.633057	0.200928	-0.01123
450.0	7.276712	-3.310308	5.46897	0.016918	-0.039558	-0.069769	-0.633057	0.19873	-0.009033
451.0	7.369449	-3.203941	5.502639	0.019418	-0.049086	-0.074478	-0.630615	0.192383	-0.01123
452.0	7.322515	-3.161448	5.526346	0.017957	-0.059827	-0.072542	-0.634766	0.187988	-0.01123
453.0	7.362766	-3.028976	5.552394	0.033789	-0.083109	-0.073652	-0.63501	0.192139	-0.009033
454.0	7.473753	-2.954608	5.701952	0.046587	-0.095508	-0.059667	-0.632813	0.192139	-0.009033
455.0	7.533183	-2.983761	5.66889	0.055685	-0.1012	-0.04493	-0.639404	0.196533	-0.006836
456.0	7.633835	-3.10753	5.663996	0.060408	-0.104905	-0.027198	-0.630371	0.185791	-0.009033
457.0	7.697418	-3.106221	5.7294	0.072071	-0.098317	-0.013009	-0.637207	0.194336	-0.002441
458.0	7.747428	-3.313753	5.609963	0.082533	-0.081315	0.009343	-0.63916	0.190186	-0.009033
459.0	7.650704	-3.248563	5.683088	0.098319	-0.074107	0.018928	-0.641602	0.194336	-0.01123
460.0	7.815624	-3.155799	5.697614	0.089824	-0.059414	0.03864	-0.632813	0.194336	-0.002441
461.0	7.780885	-3.226403	5.721677	0.076428	-0.047544	0.049089	-0.632813	0.192139	-0.002441
462.0	7.785491	-3.270216	5.698198	0.051886	-0.034129	0.060669	-0.637207	0.194336	-0.002441
463.0	7.729411	-3.29071	5.61544	0.039805	-0.021378	0.074578	-0.63916	0.187744	0.003906
464.0	7.679907	-3.301541	5.62011	0.030702	-0.016168	0.076448	-0.633057	0.196533	-0.000488
465.0	7.643292	-3.366764	5.678646	0.017287	-0.003819	0.070299	-0.63501	0.189941	-0.006836
466.0	7.594366	-3.400365	5.6732	-0.008719	0.019774	0.068817	-0.632813	0.192139	-0.002441
467.0	7.634587	-3.45379	5.560986	-0.035842	0.055649	0.06144	-0.632813	0.194336	-0.002441
468.0	7.519899	-3.680931	5.389089	0.000465	0.049141	0.032912	-0.635254	0.196533	-0.006836
469.0	7.596171	-3.725277	5.385475	0.019619	0.060273	-0.00358	-0.637207	0.196533	-0.002441
470.0	7.505678	-3.592679	5.443859	0.029109	0.066157	-0.022855	-0.63501	0.194336	-0.006836
471.0	7.585176	-3.39137	5.562354	0.027971	0.071802	-0.034793	-0.63916	0.189941	0.001709
472.0	7.524941	-3.350898	5.541408	0.022208	0.071562	-0.037809	-0.632813	0.194336	-0.009033
473.0	7.534256	-3.181617	5.65522	0.007441	0.060752	-0.034962	-0.639404	0.192139	-0.004639
474.0	7.505824	-3.160942	5.673289	-0.004318	0.059004	-0.029037	-0.635254	0.196533	-0.006836
475.0	7.561533	-2.998465	5.747644	-0.04139	0.051309	-0.023984	-0.637207	0.192139	-0.009033
476.0	7.520752	-3.083132	5.742564	-0.080961	0.053181	-0.014263	-0.637207	0.194336	-0.009033
477.0	7.560701	-3.048589	5.728147	-0.121657	0.046917	-0.011997	-0.632813	0.190186	-0.009033
478.0	7.533819	-3.026761	5.773815	-0.151561	0.047014	-0.008921	-0.63501	0.194336	-0.004639
479.0	7.53579	-3.11121	5.705981	-0.169809	0.04706	0.002289	-0.637207	0.192383	-0.01123
480.0	7.616976	-3.240541	5.630207	-0.188773	0.066762	0.003811	-0.637451	0.19873	-0.009033
481.0	7.642491	-3.312329	5.594286	-0.167474	0.092068	0.013039	-0.635254	0.19873	-0.01123
482.0	7.599314	-3.272004	5.545627	-0.159923	0.110006	0.026951	-0.632813	0.194336	-0.009033
483.0	7.606522	-3.160977	5.637853	-0.129863	0.137936	0.036336	-0.63501	0.194336	-0.006836
484.0	7.582455	-3.250622	5.634469	-0.12072	0.155501	0.0579	-0.632813	0.194336	-0.009033
485.0	7.509651	-3.379117	5.592324	-0.106175	0.170451	0.05621	-0.630859	0.196533	-0.015625
486.0	7.4714	-3.370804	5.616124	-0.094556	0.194908	0.052598	-0.635254	0.200928	-0.017822
487.0	7.561864	-3.658642	5.494711	-0.07245	0.201667	0.038443	-0.63501	0.19458	-0.015625
488.0	7.468329	-4.056574	5.345305	-0.036506	0.226347	0.012324	-0.637451	0.198975	-0.021973
489.0	7.404827	-3.813529	5.468479	-0.007737	0.245948	-0.02798	-0.633057	0.198975	-0.019775
490.0	7.402817	-3.646532	5.597751	0.002876	0.242992	-0.059428	-0.630859	0.198975	-0.019775
491.0	7.312939	-3.742002	5.685838	0.00341	0.238527	-0.094029	-0.635254	0.196777	-0.026367
492.0	7.359108	-3.541203	5.821756	0.012541	0.208038	-0.124365	-0.630859	0.19458	-0.028564
493.0	7.291213	-3.606217	5.86166	0.007045	0.183329	-0.151372	-0.630859	0.196777	-0.02417
494.0	7.287953	-3.593017	5.873807	0.010694	0.141214	-0.196527	-0.632813	0.192383	-0.026367
495.0	7.143559	-3.648419	6.143963	0.024694	0.101403	-0.233838	-0.630859	0.196777	-0.02417
496.0	7.155015	-3.650284	6.192971	0.045143	0.02987	-0.274825	-0.630615	0.19043	-0.026367
497.0	7.198739	-3.489366	6.259916	0.058952	-0.034525	-0.328199	-0.630615	0.190186	-0.021973
498.0	7.12858	-3.519337	6.29453	0.066471	-0.123738	-0.365041	-0.634766	0.183838	-0.028564
499.0	7.100878	-3.623275	6.997563	0.049031	-0.231942	-0.415245	-0.630371	0.186035	-0.017578
500.0	6.998559	-3.737246	7.118122	0.030579	-0.356438	-0.464908	-0.630127	0.17749	-0.021973
501.0	6.841186	-3.574838	7.269858	-0.013087	-0.507982	-0.540956	-0.634277	0.173096	-0.019775
502.0	7.150055	-3.197479	7.331651	-0.054806	-0.662496	-0.603342	-0.636475	0.175049	-0.009033
503.0	7.01442	-2.971699	7.548932	-0.125904	-0.819003	-0.652072	-0.638428	0.170654	-0.009033
504.0	7.075221	-2.959259	7.669065	-0.211605	-0.992716	-0.684993	-0.642578	0.16626	-0.004639
505.0	7.156792	-3.05525	7.60732	-0.272249	-1.179221	-0.720687	-0.64917	0.164063	0.010498
506.0	6.981565	-3.091552	7.651074	-0.346926	-1.39291	-0.757736	-0.648926	0.159668	0.01709
507.0	6.90668	-3.498508	8.40371	-0.403986	-1.651951	-0.808082	-0.648926	0.159424	0.028076
508.0	6.97576	-4.349807	7.886341	-0.402801	-1.970577	-0.877866	-0.655029	0.152588	0.049561
509.0	6.404452	-5.264875	7.075753	-0.318258	-2.208154	-1.045524	-0.656982	0.14624	0.053955
510.0	6.260122	-4.655462	7.822451	-0.255937	-2.470948	-1.268188	-0.665527	0.141602	0.073486
511.0	6.124123	-4.35885	8.179441	-0.188782	-2.854841	-1.458568	-0.663086	0.132813	0.088867
512.0	5.593554	-4.680515	7.993847	-0.112435	-3.311581	-1.683793	-0.664551	0.119385	0.112549
513.0	4.823955	-5.399128	7.753455	-0.026212	-3.84111	-1.991183	-0.664063	0.108398	0.138672
514.0	4.661676	-6.208408	7.332998	0.146683	-4.527981	-2.433983	-0.670166	0.097168	0.17334
515.0	4.919222	-5.598977	7.106663	0.376557	-5.24234	-2.88073	-0.665039	0.07959	0.203857
516.0	5.767296	-4.341431	7.043656	0.524177	-5.915715	-3.332728	-0.664307	0.061768	0.245117
517.0	10.746944	-4.758922	5.88808	0.591416	-6.364061	-3.422732	-0.65918	0.043945	0.286377
518.0	13.46456	-4.402029	2.473481	0.703502	-6.320815	-3.579637	-0.647461	0.026367	0.323486
519.0	21.331129	-2.876216	0.749813	0.970053	-5.748778	-3.675457	-0.633545	0.006592	0.35376
520.0	22.689264	-4.570317	1.183752	0.882767	-4.971299	-3.479305	-0.619873	-0.008789	0.37793
521.0	20.370524	-6.716704	2.361595	1.105816	-4.400065	-3.380567	-0.597656	-0.017578	0.403809
522.0	18.147087	-7.466214	4.341839	1.452478	-3.986699	-3.284259	-0.577637	-0.026367	0.427734
523.0	15.05866	-7.754591	6.925104	1.649352	-3.727623	-3.087704	-0.562256	-0.033203	0.449463
524.0	11.421628	-7.325455	8.393544	1.636339	-3.498365	-2.89505	-0.531738	-0.031006	0.464844
525.0	8.594322	-5.051366	9.302928	1.341128	-3.261627	-2.707142	-0.516357	-0.033203	0.471436
526.0	14.441338	-5.387362	12.278156	0.756101	-2.177532	-1.827537	-0.494629	-0.035645	0.484375
527.0	17.445133	-8.54984	13.165978	0.04487	-0.424234	-0.694357	-0.479736	-0.022461	0.477783
528.0	6.610285	-11.102683	12.590408	-0.110003	0.700952	-0.018716	-0.469482	-0.005127	0.477783
529.0	4.029711	-10.773115	12.374882	0.235873	1.242273	0.28976	-0.454834	0.008057	0.462646
530.0	2.623275	-8.849002	12.367204	0.450563	1.558492	0.465722	-0.442383	0.020996	0.460449
531.0	2.886069	-6.943332	12.070808	0.479514	1.847419	0.697352	-0.427734	0.03833	0.453857
532.0	4.177622	-5.788537	11.70891	0.288775	2.260013	1.026008	-0.413086	0.05127	0.449463
533.0	4.663207	-5.65229	10.931805	0.05148	2.778906	1.394763	-0.398438	0.070557	0.455811
534.0	5.052822	-5.753739	10.041165	-0.117915	3.295913	1.749678	-0.384033	0.087891	0.458008
535.0	5.311324	-5.721859	9.298462	-0.192673	3.76468	2.074614	-0.375977	0.107178	0.457764
536.0	5.765562	-5.586054	8.726175	-0.201542	4.146771	2.390434	-0.369873	0.119873	0.477295
537.0	6.107321	-5.35742	8.351621	-0.171891	4.453499	2.677296	-0.365967	0.132568	0.490234
538.0	6.420524	-5.05287	7.955581	-0.130203	4.665356	2.895276	-0.372803	0.136719	0.500977
539.0	6.675221	-4.632834	7.606062	-0.124511	4.802972	3.035022	-0.38623	0.151611	0.518311
540.0	7.448761	-3.945533	7.379482	-0.199386	4.829537	3.076194	-0.408203	0.15332	0.537842
541.0	8.936288	-3.421339	7.165174	-0.391242	4.826994	3.069984	-0.443359	0.164063	0.541992
542.0	10.13113	-3.320594	6.798778	-0.620098	4.856985	3.032859	-0.482666	0.166016	0.539795
543.0	10.893164	-3.631129	6.493937	-0.823098	4.874932	2.939167	-0.517578	0.17041	0.518066
544.0	11.953619	-3.807998	6.413274	-0.999018	4.847845	2.777279	-0.561279	0.172852	0.491943
545.0	13.044209	-3.466267	6.368327	-1.197484	4.806296	2.626389	-0.602539	0.166504	0.46582
546.0	13.718668	-3.627432	6.40236	-1.494531	4.687037	2.533136	-0.63501	0.162598	0.43335
547.0	14.261153	-4.631136	6.019133	-1.696794	4.471909	2.481343	-0.685303	0.167236	0.398438
548.0	15.131349	-5.888588	5.576292	-1.696781	4.237783	2.427576	-0.73584	0.17627	0.352783
549.0	16.998753	-4.738864	5.720112	-1.701632	3.996178	2.402628	-0.784912	0.202637	0.2854
550.0	17.29468	-2.579814	5.193156	-1.995028	3.724022	2.542131	-0.806152	0.238037	0.218018
551.0	16.217113	-2.356557	3.782888	-2.397403	3.140401	2.74711	-0.812744	0.294678	0.152588
552.0	15.478467	-3.014882	1.773446	-2.465017	2.318566	2.909456	-0.795166	0.343018	0.096191
553.0	16.175931	-3.269873	0.116618	-2.12783	1.47952	2.970659	-0.755615	0.384521	0.054932
554.0	19.000162	-2.732859	-1.137608	-1.507348	0.920188	2.940038	-0.70459	0.417236	0.028809
555.0	21.374467	-0.591575	-1.164379	-0.823119	0.863803	2.794703	-0.650635	0.428467	0.011475
556.0	23.525446	3.401957	-0.84354	-0.421095	1.152185	2.65975	-0.607178	0.426758	-0.003662
557.0	22.216816	6.282358	-1.349672	-0.428496	1.577125	2.535064	-0.558838	0.41626	-0.01001
558.0	19.935322	7.18979	-3.216581	-0.583693	1.779152	2.20224	-0.536621	0.403564	-0.016357
559.0	18.469977	7.084607	-5.666007	-0.611933	1.767004	1.635266	-0.511963	0.386475	-0.018555
560.0	18.832902	7.801254	-7.447391	-0.543643	1.653737	1.077646	-0.500732	0.375732	-0.022705
561.0	19.043739	8.408576	-8.359592	-0.490508	1.480319	0.746752	-0.491211	0.358643	-0.029053
562.0	18.304567	8.223679	-8.773635	-0.39743	1.164256	0.608092	-0.486572	0.352295	-0.029053
563.0	16.691719	7.314193	-8.681532	-0.167766	0.658598	0.466916	-0.484131	0.34375	-0.03125
564.0	16.072115	6.679084	-8.501661	0.148449	-0.003937	0.197047	-0.481689	0.337158	-0.024658
565.0	17.310056	6.126037	-8.15506	0.408169	-0.509771	-0.108491	-0.488037	0.328613	-0.024658
566.0	17.87838	5.592329	-7.079931	0.557498	-0.768298	-0.363004	-0.487549	0.315674	-0.031006
567.0	16.519681	-2.437371	0.661795	1.190592	-1.033501	-0.814813	-0.491455	0.306885	-0.018066
568.0	-3.37719	-10.180099	17.56989	1.390464	-1.832527	-1.72276	-0.506104	0.291748	-0.004883
569.0	-11.391605	-18.924303	11.807487	1.507444	-3.348403	-3.066828	-0.515869	0.263428	0.003906
570.0	23.609969	-2.435107	-0.54275	2.297212	-2.945526	-3.183475	-0.519043	0.235107	0.030029
571.0	18.850873	3.057956	1.146018	2.076172	-2.620174	-1.972709	-0.536133	0.226318	0.042969
572.0	13.901436	-0.838741	6.748315	1.715272	-2.531267	-1.383569	-0.542236	0.215332	0.053955
573.0	8.96631	1.92111	9.402491	1.3672	-2.23318	-1.402963	-0.545898	0.197998	0.069092
574.0	10.139257	5.271247	8.80017	0.717663	-2.035513	-1.542477	-0.553955	0.187012	0.080078
575.0	13.375132	1.793175	5.919867	0.031287	-1.788055	-1.511305	-0.553467	0.169678	0.088867
576.0	32.603911	-6.564815	-1.970628	0.139352	-0.511791	-1.104245	-0.553467	0.169678	0.09082
577.0	7.016922	-6.645596	5.425267	0.483475	-0.116978	-0.745828	-0.552979	0.158936	0.088867
578.0	8.557119	-0.42781	7.504371	0.30111	-0.170283	-0.646817	-0.552979	0.161133	0.095215
579.0	9.223343	-2.299582	5.267198	0.127485	-0.220506	-0.460363	-0.554688	0.150146	0.095459
580.0	8.185534	-3.305498	5.938674	0.131445	-0.185665	-0.351908	-0.557373	0.158936	0.08667
581.0	8.376376	-2.403282	5.957829	0.102394	-0.198308	-0.26164	-0.552734	0.150391	0.093262
582.0	7.936154	-2.81813	5.908288	0.040277	-0.187233	-0.158716	-0.554688	0.147949	0.101807
583.0	8.009925	-3.57326	5.572979	0.003685	-0.184425	-0.108592	-0.557129	0.154541	0.097412
584.0	7.78236	-3.492314	5.666782	-0.013699	-0.169471	-0.080285	-0.559326	0.152344	0.097412
585.0	7.827042	-3.439793	5.560856	-0.050364	-0.161195	-0.059931	-0.554688	0.147949	0.101807
586.0	7.741632	-3.261858	5.516168	-0.07625	-0.155205	-0.030888	-0.557129	0.152344	0.099609
587.0	7.682523	-3.374043	5.652292	-0.107972	-0.15664	-0.008752	-0.558838	0.145752	0.104004
588.0	7.700065	-3.779663	5.399957	-0.130799	-0.149141	-0.011842	-0.559082	0.152344	0.104004
589.0	7.662095	-3.736689	5.446038	-0.145191	-0.125356	-0.028298	-0.561035	0.145752	0.101807
590.0	7.701999	-3.456431	5.518964	-0.176534	-0.09793	-0.045842	-0.556885	0.147949	0.099609
591.0	7.843024	-3.383628	5.466742	-0.238372	-0.050953	-0.059445	-0.556885	0.147949	0.101807
592.0	7.767917	-3.560189	5.298829	-0.298424	0.018847	-0.081965	-0.558838	0.145752	0.101807
593.0	7.736296	-4.068539	5.032233	-0.335046	0.087718	-0.117662	-0.556885	0.147949	0.099609
594.0	7.614963	-4.161796	4.975368	-0.333489	0.132416	-0.160162	-0.556885	0.150146	0.101807
595.0	7.650113	-4.461475	4.80616	-0.310669	0.160649	-0.195055	-0.547852	0.141602	0.097656
596.0	7.532413	-4.684097	4.65062	-0.257072	0.186878	-0.2373	-0.554443	0.143799	0.097656
597.0	7.547276	-4.468884	4.736457	-0.201814	0.198522	-0.280002	-0.558838	0.141602	0.095459
598.0	7.545428	-4.547699	4.609257	-0.137651	0.194589	-0.317294	-0.556641	0.141602	0.101807
599.0	7.596332	-4.259895	4.644597	-0.084423	0.20639	-0.342962	-0.556641	0.139404	0.093262
600.0	7.63703	-4.549598	4.423828	-0.020206	0.229513	-0.37882	-0.554199	0.137451	0.091064
601.0	7.807088	-4.724748	4.132178	0.057314	0.302271	-0.443128	-0.558594	0.135254	0.093262
602.0	7.857264	-4.916012	3.833622	0.13631	0.419245	-0.514067	-0.556152	0.131104	0.08667
603.0	7.878843	-5.005552	3.831381	0.229108	0.556594	-0.573017	-0.558594	0.133057	0.084717
604.0	7.971855	-4.392193	4.314425	0.312666	0.647765	-0.569366	-0.555908	0.122559	0.078125
605.0	7.890525	-4.195008	4.833118	0.376657	0.707664	-0.528727	-0.553955	0.126709	0.084717
606.0	7.644558	-3.651039	5.61562	0.432161	0.705604	-0.484049	-0.551514	0.118164	0.075928
607.0	7.370989	-3.142595	6.148082	0.475805	0.60974	-0.477311	-0.555664	0.116211	0.073975
608.0	7.291965	-2.588981	6.736532	0.480834	0.464571	-0.489941	-0.557861	0.116211	0.071777
609.0	7.295261	-2.005078	7.112959	0.414278	0.242506	-0.498639	-0.553223	0.109863	0.067383
610.0	6.536451	-2.504398	8.297581	0.344891	0.074637	-0.500359	-0.561768	0.105469	0.071777
611.0	7.107502	-2.368088	8.248105	0.30691	-0.175191	-0.51967	-0.552979	0.101074	0.071777
612.0	6.494313	-2.28565	9.150468	0.258656	-0.432483	-0.541917	-0.552734	0.098877	0.078369
613.0	6.288542	-2.294906	9.819347	0.195515	-0.80159	-0.541182	-0.554688	0.090088	0.082764
614.0	6.480189	-2.341731	9.643088	0.060475	-1.182666	-0.579227	-0.556885	0.092285	0.093506
615.0	6.37818	-2.887565	9.654857	-0.096221	-1.546471	-0.652394	-0.563232	0.085693	0.100098
616.0	6.400328	-3.391065	9.345655	-0.220909	-1.94447	-0.743722	-0.562988	0.079102	0.104492
617.0	5.937092	-4.29045	9.146242	-0.296083	-2.342238	-0.898028	-0.564697	0.072266	0.124023
618.0	5.84369	-4.611773	9.023161	-0.355698	-2.77841	-1.109252	-0.564453	0.065674	0.147705
619.0	5.481427	-4.829493	9.038193	-0.341385	-3.230325	-1.35794	-0.568604	0.058838	0.167236
620.0	4.843205	-4.787813	10.24148	-0.323637	-3.772707	-1.651528	-0.565674	0.045654	0.187012
621.0	3.971787	-5.421567	10.852022	-0.279947	-4.510098	-1.97446	-0.564941	0.023682	0.217285
622.0	2.11143	-6.714223	10.758285	-0.177868	-5.499475	-2.438481	-0.566406	0.008057	0.258545
623.0	1.253071	-8.322253	11.980695	0.054413	-6.779074	-3.023541	-0.556885	-0.009521	0.295654
624.0	2.291162	-7.025434	12.726433	0.409961	-8.613372	-3.612572	-0.542725	-0.033936	0.354248
625.0	6.39278	0.852677	7.256885	0.528842	-10.515616	-3.935643	-0.519775	-0.060547	0.417236
626.0	18.56331	-3.06993	4.933335	0.255388	-10.576921	-3.987209	-0.488281	-0.084717	0.469482
627.0	30.583487	-4.905228	2.978054	-0.04165	-8.956903	-3.765563	-0.457031	-0.104492	0.510742
628.0	27.713339	-9.302177	0.390053	0.075311	-7.905079	-3.768914	-0.429932	-0.124512	0.552002
629.0	27.389692	-14.457125	3.291789	0.835849	-6.771966	-3.923279	-0.394287	-0.141846	0.580566
630.0	23.194372	-17.601672	6.946935	2.202524	-5.425411	-3.948999	-0.374512	-0.146484	0.61084
631.0	14.548166	-16.906557	10.984103	3.434601	-4.267648	-3.783584	-0.354736	-0.148926	0.634766
632.0	7.785191	-7.708498	12.629199	3.706687	-3.630193	-3.542937	-0.3396	-0.146973	0.660645
633.0	23.238424	1.548908	19.655037	1.838866	-1.987667	-2.461251	-0.3396	-0.147217	0.671631
634.0	18.760801	-6.316264	20.682454	-0.561156	1.200285	-0.54077	-0.361084	-0.15332	0.643311
635.0	2.427332	-12.585406	18.484607	-1.755338	2.253711	0.039994	-0.375977	-0.161865	0.636963
636.0	2.98434	-14.496905	15.143589	-1.530796	2.574649	0.053922	-0.406494	-0.166016	0.617432
637.0	4.368787	-13.417247	12.743626	-0.825689	3.03077	0.223175	-0.43042	-0.165771	0.591309
638.0	5.658147	-11.393325	11.353879	-0.004797	3.590435	0.695867	-0.457275	-0.152588	0.560791
639.0	7.009034	-8.904799	10.921609	0.514957	4.218363	1.341874	-0.486084	-0.136963	0.517334
640.0	7.39808	-7.03424	10.157934	0.704226	4.820667	1.992654	-0.506836	-0.112793	0.467285
641.0	7.893103	-5.418813	9.067982	0.688912	5.362779	2.551695	-0.514404	-0.088379	0.408691
642.0	7.994683	-4.569947	7.768032	0.551072	5.851154	3.002456	-0.506836	-0.061768	0.354492
643.0	7.350381	-4.269028	6.895807	0.415882	6.171345	3.289443	-0.485596	-0.048096	0.306641
644.0	7.019014	-3.784903	6.150888	0.308214	6.21656	3.338425	-0.458008	-0.036621	0.263428
645.0	6.636216	-3.845009	5.538849	0.23704	6.154016	3.309919	-0.427734	-0.031738	0.233154
646.0	7.101158	-3.625553	5.603327	0.17362	5.953816	3.184975	-0.386475	-0.031494	0.213623
647.0	8.75926	-3.499824	5.473698	0.038633	5.703167	3.050117	-0.333984	-0.037598	0.200684
648.0	10.68218	-3.565961	5.58313	-0.150031	5.489947	2.907288	-0.287598	-0.05249	0.216064
649.0	13.223469	-3.478909	5.301556	-0.435067	5.462206	2.808986	-0.245117	-0.081055	0.259521
650.0	13.940061	-3.604656	5.363758	-0.78109	5.543362	2.771471	-0.239258	-0.114014	0.318359
651.0	13.066822	-4.031147	5.53263	-1.127799	5.514365	2.638693	-0.303223	-0.145264	0.37915
652.0	12.924054	-4.047684	5.651655	-1.499474	5.318839	2.389313	-0.40332	-0.145996	0.400635
653.0	15.540262	-3.813562	5.395319	-1.963245	5.138655	2.110793	-0.509033	-0.115967	0.380615
654.0	19.243895	-2.654691	4.19357	-2.538686	5.160719	2.026525	-0.573975	-0.074463	0.328369
655.0	19.600826	-2.591561	2.2285	-3.108661	5.088449	2.204031	-0.614502	-0.037354	0.276123
656.0	18.167605	-4.012415	0.239724	-3.262085	4.49881	2.473607	-0.637451	-0.009033	0.243408
657.0	18.164489	-4.515327	-1.263492	-2.602372	3.533615	2.592984	-0.666992	0.016846	0.223633
658.0	23.060246	0.020374	-0.857688	-1.89625	2.682462	2.729909	-0.713623	0.042725	0.208252
659.0	29.195072	5.295939	-0.963461	-1.760722	2.360929	2.99639	-0.760498	0.070557	0.192871
660.0	29.857963	7.22982	-3.197808	-1.92776	2.408127	3.34229	-0.809814	0.109619	0.170898
661.0	26.148713	5.907464	-7.619925	-1.567639	2.339731	3.267268	-0.851074	0.156982	0.151123
662.0	24.929347	6.273987	-11.823184	-0.551039	2.046048	2.732884	-0.89209	0.20459	0.124756
663.0	24.985951	10.260338	-14.154935	0.316692	1.632989	2.177857	-0.930908	0.25	0.094238
664.0	23.282919	14.852224	-14.719959	0.355338	0.960658	1.669966	-0.956543	0.29541	0.072266
665.0	23.397956	15.819456	-15.971412	-0.200256	0.210522	1.080651	-0.984131	0.331787	0.063477
666.0	23.520681	14.323777	-16.480934	-0.639883	-0.338347	0.431657	-1.005127	0.364014	0.06543
667.0	22.410786	12.317306	-15.241701	-0.759024	-0.744909	-0.219702	-1.031738	0.381104	0.067383
668.0	19.799396	3.146985	-13.025145	-0.317389	-1.102294	-0.832219	-1.064941	0.393799	0.080322
669.0	6.908888	-3.548251	9.609177	2.325753	-2.260258	-2.279514	-1.095215	0.388916	0.112793
670.0	-12.657526	-15.297463	22.382293	1.596083	-4.120738	-3.322792	-1.135986	0.379639	0.151611
671.0	18.185868	-4.891737	-2.116065	2.45251	-4.069038	-3.657754	-1.164063	0.370361	0.188477
672.0	22.209703	5.809883	0.483915	2.18071	-4.102991	-2.406599	-1.187988	0.375977	0.240479
673.0	17.331943	1.090753	5.29568	1.694478	-3.997832	-1.592291	-1.205566	0.379639	0.277344
674.0	13.613258	1.993783	6.614108	1.232481	-3.530602	-1.635136	-1.229492	0.381348	0.309814
675.0	30.092541	-0.296479	0.675434	0.95094	-2.348649	-1.922088	-1.242188	0.374512	0.331543
676.0	37.183249	0.471932	0.694387	0.037436	0.545943	-1.081093	-1.246338	0.370361	0.318359
677.0	-0.952799	-8.825115	6.021272	0.562448	0.082154	-1.056586	-1.246094	0.361572	0.329346
678.0	10.858823	-0.24097	6.067052	0.34075	0.173753	-1.09648	-1.245605	0.353027	0.327148
679.0	9.542679	-3.451583	4.977727	0.301643	0.169807	-0.868099	-1.25415	0.344482	0.329346
680.0	7.733441	-3.158594	5.341599	0.367817	0.208659	-0.789123	-1.247314	0.340088	0.325195
681.0	8.524112	-2.530336	5.867977	0.424226	0.225038	-0.686787	-1.249268	0.33374	0.325195
682.0	8.325563	-1.602239	6.537843	0.393785	0.182689	-0.545341	-1.253418	0.329346	0.32959
683.0	7.811184	-1.876085	6.711643	0.338517	0.104795	-0.431854	-1.253418	0.327148	0.325195
684.0	8.171491	-2.125584	6.362065	0.277164	0.041722	-0.336721	-1.257568	0.322998	0.325195
685.0	8.029158	-2.614334	5.917932	0.206197	0.007113	-0.253471	-1.251221	0.324951	0.331787
686.0	7.804604	-3.446651	5.666044	0.169445	0.003186	-0.228256	-1.257568	0.320801	0.327393
687.0	7.868057	-3.604007	5.554286	0.160512	0.016737	-0.234674	-1.255371	0.322998	0.327393
688.0	7.942901	-2.657114	5.787681	0.150446	0.005235	-0.213098	-1.253174	0.320801	0.327393
689.0	7.826348	-2.131354	6.085049	0.109474	-0.029301	-0.161865	-1.255371	0.320557	0.333984
690.0	7.860081	-2.709829	5.740322	0.06722	-0.047613	-0.118159	-1.248535	0.314453	0.327393
691.0	7.902288	-3.010098	5.544274	0.022751	0.009421	-0.113806	-1.250732	0.314209	0.333984
692.0	7.964249	-3.10017	5.360302	-0.039345	0.12849	-0.126085	-1.25293	0.316406	0.32959
693.0	7.896537	-3.441434	5.126266	-0.057703	0.246743	-0.144172	-1.25708	0.312256	0.325195
694.0	7.905771	-3.698626	5.029684	-0.040055	0.3617	-0.169043	-1.259277	0.307861	0.320801
695.0	7.860086	-3.85686	5.01917	-0.001977	0.439553	-0.195464	-1.254883	0.310059	0.31665
696.0	7.861017	-3.782626	5.051426	0.041186	0.494288	-0.212665	-1.254883	0.308105	0.314453
697.0	7.786087	-3.880586	5.106736	0.069231	0.532675	-0.219985	-1.256836	0.303955	0.305664
698.0	7.667052	-3.674439	5.381848	0.114105	0.549526	-0.224058	-1.252197	0.297363	0.305908
699.0	7.545385	-3.335658	5.605389	0.141654	0.555346	-0.231404	-1.250244	0.299561	0.301514
700.0	7.577684	-3.072746	5.796161	0.176114	0.522189	-0.236121	-1.250244	0.299805	0.294922
701.0	7.32381	-2.809699	6.106779	0.193373	0.479532	-0.243829	-1.252197	0.29126	0.286377
702.0	7.341862	-2.860718	6.158215	0.208818	0.400993	-0.266395	-1.25	0.29541	0.288574
703.0	7.226173	-2.974599	6.197801	0.217951	0.326353	-0.302032	-1.245605	0.29126	0.281982
704.0	7.27703	-2.815142	6.266823	0.227785	0.24497	-0.336737	-1.243164	0.286865	0.28418
705.0	7.198012	-2.497996	6.491213	0.207805	0.153601	-0.367258	-1.245361	0.282715	0.279785
706.0	7.800698	-2.226048	6.695723	0.146713	0.004639	-0.39915	-1.24292	0.27832	0.280029
707.0	6.085641	-2.997606	7.655332	0.139295	-0.071681	-0.429395	-1.242676	0.271973	0.28418
708.0	7.250492	-2.967057	7.58282	0.13071	-0.268956	-0.483411	-1.240234	0.265381	0.284424
709.0	6.414584	-2.781315	8.599972	0.151489	-0.477348	-0.543443	-1.244385	0.258789	0.292969
710.0	6.646947	-1.864468	8.774654	0.135193	-0.768333	-0.574374	-1.235352	0.252441	0.303955
711.0	6.599056	-1.506905	9.393996	0.054407	-1.042565	-0.591153	-1.239746	0.25415	0.319092
712.0	6.380443	-1.749133	9.799933	-0.09121	-1.383	-0.612768	-1.241699	0.247803	0.321289
713.0	6.359461	-2.016362	9.565071	-0.257616	-1.750407	-0.678666	-1.241211	0.239014	0.338623
714.0	6.208561	-3.123172	9.253763	-0.352447	-2.104779	-0.781342	-1.24292	0.227783	0.360352
715.0	6.041576	-3.856746	9.032749	-0.356222	-2.49569	-0.924506	-1.244629	0.21875	0.390869
716.0	5.86893	-4.256878	8.890752	-0.333133	-2.93983	-1.097261	-1.246338	0.205566	0.4104
717.0	5.394617	-4.824183	8.895232	-0.299094	-3.432072	-1.346213	-1.239258	0.190186	0.438477
718.0	4.701153	-4.875097	9.635141	-0.273579	-4.0137	-1.652274	-1.238281	0.17041	0.477783
719.0	3.148516	-4.934228	11.637384	-0.35544	-4.852357	-2.040013	-1.224365	0.152588	0.525391
720.0	2.149937	-6.502005	11.827708	-0.423232	-6.011926	-2.468511	-1.210205	0.128174	0.586426
721.0	1.194812	-8.157125	12.920084	-0.206172	-7.236118	-2.968748	-1.197998	0.094727	0.662354
722.0	1.124441	-5.985429	16.375464	-0.126399	-9.076985	-3.513406	-1.159424	0.057373	0.74292
723.0	5.652303	4.450989	10.431754	-0.41721	-10.856377	-3.644757	-1.115967	0.012939	0.855957
724.0	17.307685	-7.932363	0.455102	-1.102942	-10.823091	-3.625083	-1.062256	-0.020264	0.934082
725.0	29.166668	-6.621766	-5.460234	-0.441349	-9.724484	-4.161355	-0.983887	-0.07251	0.999512
726.0	34.141927	-10.838228	-2.976229	-0.155359	-7.913185	-4.404295	-0.916748	-0.12207	1.036865
727.0	29.637969	-14.655644	2.386899	0.862377	-6.408865	-4.498548	-0.845215	-0.165283	1.063232
728.0	25.730347	-17.039932	6.669153	2.365277	-4.871896	-4.419662	-0.776611	-0.193115	1.069824
729.0	16.743284	-16.225487	8.867306	3.719477	-3.711419	-4.156383	-0.717773	-0.199463	1.078613
730.0	8.436532	-9.40723	8.558161	4.424457	-3.202244	-3.749931	-0.667725	-0.197021	1.083008
731.0	28.755065	2.996715	15.357712	2.87468	-1.833324	-2.278691	-0.654541	-0.196777	1.067871
732.0	21.023431	-4.22608	16.947067	0.653849	1.370022	-0.104931	-0.671631	-0.209229	1.018066
733.0	3.604966	-9.580033	15.893122	-0.67819	2.151931	0.503917	-0.679932	-0.221436	0.963867
734.0	3.590371	-11.945039	12.65939	-0.601984	2.202875	0.392322	-0.70166	-0.227295	0.925049
735.0	4.557982	-11.233917	10.616501	-0.108774	2.525108	0.284721	-0.708252	-0.226807	0.875
736.0	4.104377	-8.956608	9.643132	0.420912	3.018413	0.476253	-0.72168	-0.22168	0.825195
737.0	4.338331	-6.829504	9.749345	0.591439	3.597368	0.884947	-0.739746	-0.210449	0.779541
738.0	3.271591	-5.776322	9.667734	0.459085	4.117417	1.3429	-0.751221	-0.194824	0.727539
739.0	3.197643	-4.595571	9.446948	0.172363	4.537025	1.76644	-0.769531	-0.177002	0.675293
740.0	3.80129	-4.059369	8.643691	-0.247617	4.946153	2.201901	-0.785645	-0.154785	0.618896
741.0	3.870486	-5.030814	7.546036	-0.548312	5.338861	2.577269	-0.817139	-0.130371	0.56665
742.0	4.381074	-5.535076	7.004228	-0.590496	5.643977	2.847153	-0.836426	-0.088867	0.518799
743.0	5.174289	-4.945127	6.907629	-0.579459	5.8337	3.033789	-0.855713	-0.045166	0.449219
744.0	6.040975	-4.170633	6.897255	-0.639529	5.952844	3.232929	-0.857666	0.005371	0.381592
745.0	7.541494	-3.638728	6.85285	-0.792259	6.052055	3.432387	-0.840332	0.058105	0.294678
746.0	9.429131	-3.337855	6.72442	-1.021798	6.156191	3.58117	-0.796387	0.102295	0.225342
747.0	11.282416	-3.516076	6.814868	-1.352074	6.229976	3.629758	-0.732666	0.135742	0.162354
748.0	12.680401	-3.978016	6.673677	-1.666386	6.269853	3.537643	-0.658936	0.143066	0.127686
749.0	14.951413	-3.038779	6.98351	-2.06296	6.27276	3.342641	-0.588867	0.128418	0.101807
750.0	16.733278	-2.319847	6.381061	-2.645973	6.183685	3.151615	-0.529053	0.103027	0.102051
751.0	18.789751	-2.933633	5.247471	-3.203069	6.009837	3.015233	-0.497314	0.072754	0.108887
752.0	20.257339	-5.670324	3.823241	-3.396934	5.798639	2.868084	-0.484863	0.03418	0.115479
753.0	23.100526	-6.612935	2.758139	-3.189822	5.600851	2.791474	-0.493164	0.019043	0.119873
754.0	25.096171	-4.386686	1.597051	-2.935564	5.284166	3.070418	-0.51001	0.008057	0.115723
755.0	23.769676	-0.789239	0.753766	-2.893004	4.522989	3.510562	-0.531738	0.008301	0.102539
756.0	22.348541	2.60278	-0.92263	-2.939977	3.281314	3.714479	-0.551758	0.016846	0.098145
757.0	24.856229	4.877238	-2.701625	-2.760864	2.216794	3.461471	-0.578613	0.03418	0.089355
758.0	27.718439	7.771446	-3.874969	-2.482248	1.705595	3.056022	-0.60083	0.044678	0.089355
759.0	28.891109	8.842461	-5.994317	-2.008961	1.728529	2.695542	-0.61499	0.070801	0.06958
760.0	27.013087	8.925762	-8.381246	-1.213591	1.918082	2.429296	-0.628662	0.085938	0.058594
761.0	25.144035	10.481435	-10.609549	-0.377245	1.884505	2.150842	-0.640137	0.101074	0.050049
762.0	24.037858	12.455305	-12.822833	0.130293	1.641136	1.849847	-0.647217	0.116211	0.036865
763.0	20.762323	14.768965	-12.996805	0.277486	1.109422	1.378595	-0.649658	0.125	0.030273
764.0	18.628905	16.828897	-12.107912	-0.110331	0.14726	0.634637	-0.660889	0.12915	0.030273
765.0	20.327259	15.020583	-11.574793	-0.555754	-0.720466	-0.049519	-0.662842	0.12915	0.032471
766.0	20.277119	11.029297	-9.764706	-0.444376	-1.147183	-0.502558	-0.673828	0.126953	0.041016
767.0	18.360813	7.752235	-7.324683	0.174235	-1.36836	-0.829409	-0.677734	0.118164	0.056396
768.0	18.136572	-4.342547	11.858294	1.768232	-1.514027	-1.649354	-0.679443	0.10498	0.067139
769.0	-28.139289	-22.486459	36.323886	0.777821	-2.295877	-2.501322	-0.689209	0.081055	0.091064
770.0	-4.689307	-20.445082	-2.811007	1.962681	-4.094942	-4.242533	-0.692383	0.050537	0.119385
771.0	30.033707	6.664087	-4.610166	3.048248	-3.898777	-3.161468	-0.695801	0.026123	0.158691
772.0	17.629346	2.334102	2.613853	2.310278	-4.555087	-1.74206	-0.704102	0.017334	0.182373
773.0	14.072449	-1.408	5.667147	1.986441	-4.076433	-1.509434	-0.705811	0.010254	0.215088
774.0	20.779632	-1.84683	1.430844	1.884177	-3.304933	-1.880761	-0.702881	-0.00708	0.236816
775.0	46.747487	2.29038	-1.389348	1.171548	-0.125305	-1.765394	-0.700439	-0.015625	0.236816
776.0	3.383256	-5.403291	6.848257	1.057502	0.309722	-1.245318	-0.700195	-0.022217	0.239014
777.0	10.859047	1.821271	8.602401	0.676579	-0.175903	-1.130745	-0.695068	-0.039551	0.243408
778.0	8.393157	-1.270208	5.466901	0.342699	-0.139073	-0.859229	-0.695313	-0.035156	0.239014
779.0	8.787816	-5.206804	4.727808	0.363917	-0.001565	-0.793318	-0.70166	-0.041748	0.243408
780.0	8.356299	-3.079505	5.206101	0.382059	0.127932	-0.73617	-0.696777	-0.052246	0.237061
781.0	8.616456	-2.587774	5.8696	0.344557	0.145315	-0.618654	-0.69458	-0.054443	0.234863
782.0	8.162915	-2.786945	5.952459	0.296887	0.135128	-0.502599	-0.69458	-0.054443	0.239258
783.0	7.988484	-2.934764	5.763227	0.263414	0.103551	-0.429588	-0.692383	-0.056641	0.237061
784.0	8.156249	-2.748819	5.623455	0.220671	0.092502	-0.367588	-0.696289	-0.065186	0.237061
785.0	8.133999	-2.791861	5.738856	0.168329	0.076775	-0.290328	-0.691895	-0.065186	0.243652
786.0	7.915594	-3.181533	5.583223	0.133234	0.059297	-0.236006	-0.685547	-0.065186	0.241455
787.0	8.099222	-3.30082	5.513927	0.099657	0.062537	-0.20807	-0.696289	-0.067383	0.237061
788.0	8.052197	-2.606324	5.753153	0.06649	0.071727	-0.172094	-0.689697	-0.06958	0.237061
789.0	7.958198	-2.855088	5.566515	-0.013942	0.098182	-0.147195	-0.689941	-0.065186	0.234863
790.0	8.055307	-2.97586	5.465349	-0.081716	0.180254	-0.154794	-0.689697	-0.06958	0.237061
791.0	7.863184	-3.177857	5.38468	-0.144607	0.270091	-0.178795	-0.691406	-0.078125	0.230713
792.0	7.860079	-3.620925	5.20777	-0.180783	0.331449	-0.189372	-0.687256	-0.077881	0.230713
793.0	7.63913	-3.837961	5.101996	-0.164416	0.368208	-0.210923	-0.689453	-0.075684	0.226318
794.0	7.523365	-4.148387	4.930265	-0.131962	0.385303	-0.2383	-0.69165	-0.077881	0.219727
795.0	7.556859	-4.369584	4.830579	-0.075239	0.391008	-0.276786	-0.689453	-0.077881	0.219727
796.0	7.63877	-4.346945	4.76135	-0.013439	0.409976	-0.327985	-0.689209	-0.080078	0.221924
797.0	7.62431	-4.088847	4.771803	0.046522	0.423171	-0.378113	-0.687012	-0.082031	0.213379
798.0	7.631815	-3.682202	5.209847	0.097269	0.431701	-0.404148	-0.684814	-0.084229	0.211182
799.0	7.753264	-3.624609	5.069185	0.139575	0.410958	-0.416432	-0.68457	-0.088379	0.202637
800.0	7.668748	-3.276918	5.297595	0.165002	0.420072	-0.420513	-0.68457	-0.090576	0.206787
801.0	7.749012	-3.288561	5.404616	0.193514	0.406898	-0.398832	-0.684326	-0.094727	0.200439
802.0	7.690795	-3.078308	5.477352	0.224086	0.402076	-0.37083	-0.682129	-0.098877	0.193848
803.0	7.683293	-2.882227	5.862032	0.234755	0.378624	-0.325866	-0.684082	-0.101318	0.200439
804.0	7.613824	-2.743215	6.007598	0.236807	0.320702	-0.281595	-0.682129	-0.094727	0.196045
805.0	7.468697	-2.86309	6.202651	0.223569	0.261491	-0.255536	-0.679688	-0.105469	0.191895
806.0	7.2665	-2.940353	6.340237	0.212431	0.171274	-0.255454	-0.681885	-0.103516	0.202637
807.0	7.223727	-2.890883	6.477915	0.210081	0.061338	-0.286873	-0.679443	-0.107666	0.196045
808.0	7.245989	-2.3769	6.45746	0.193158	-0.078219	-0.325106	-0.679443	-0.111816	0.194092
809.0	6.966109	-3.037354	7.753884	0.164133	-0.194357	-0.350595	-0.681641	-0.107666	0.200439
810.0	6.636972	-2.892263	8.089663	0.161658	-0.421048	-0.417738	-0.679443	-0.107666	0.202637
811.0	6.67173	-3.612237	8.448401	0.14185	-0.643016	-0.523808	-0.677002	-0.114258	0.209229
812.0	6.134997	-4.024229	9.28221	0.120789	-0.970937	-0.642192	-0.674561	-0.12085	0.21582
813.0	6.493755	-3.858657	9.166114	0.100965	-1.358801	-0.771898	-0.674561	-0.125244	0.222168
814.0	6.371557	-3.654152	9.3591	0.050168	-1.744054	-0.905712	-0.67627	-0.134033	0.237549
815.0	6.234119	-3.589088	9.401483	-0.022968	-2.174541	-1.036961	-0.671631	-0.138672	0.26123
816.0	5.917236	-3.670903	9.366808	-0.102715	-2.621896	-1.20884	-0.658447	-0.145264	0.278809
817.0	5.423584	-4.176832	9.430792	-0.154013	-3.119198	-1.417739	-0.660156	-0.15625	0.296143
818.0	4.813259	-4.455409	9.68101	-0.195544	-3.709425	-1.68422	-0.657471	-0.165283	0.322266
819.0	3.341683	-4.044446	11.624036	-0.279828	-4.500054	-2.029766	-0.636963	-0.184814	0.350586
820.0	2.654711	-5.083582	12.200349	-0.384879	-5.597538	-2.362391	-0.62793	-0.194092	0.393799
821.0	1.545805	-7.121718	12.10617	-0.337327	-6.72902	-2.792719	-0.60083	-0.216064	0.439697
822.0	0.418656	-6.789129	15.521771	-0.346422	-8.310102	-3.393707	-0.56958	-0.233887	0.496094
823.0	3.66	2.559042	13.116843	-0.613591	-10.326466	-3.696254	-0.529541	-0.253906	0.550537
824.0	12.302526	-3.387439	3.641015	-1.186106	-11.175442	-3.407889	-0.476563	-0.269531	0.606934
825.0	23.1759	-8.15604	-3.952567	-0.688157	-10.29957	-3.860514	-0.421387	-0.284912	0.654785
826.0	34.58935	-7.757678	-4.245402	-0.285151	-8.649037	-4.336206	-0.366211	-0.300293	0.6875
827.0	29.354456	-14.260847	0.398728	0.724536	-7.0199	-4.512823	-0.318115	-0.304688	0.709229
828.0	26.00144	-15.65601	4.443101	2.268294	-5.460982	-4.591735	-0.272217	-0.309326	0.748291
829.0	20.082555	-16.521984	9.697667	3.76384	-4.09977	-4.279405	-0.240234	-0.29248	0.780762
830.0	10.70856	-10.777942	8.016216	4.695551	-3.525169	-4.077501	-0.210449	-0.266846	0.811035
831.0	11.844213	3.378561	16.012938	3.653838	-2.8383	-3.367565	-0.185303	-0.245605	0.823975
832.0	32.672594	1.811758	17.399907	0.717506	-0.0006	-1.003459	-0.200195	-0.25	0.832764
833.0	8.120816	-6.493189	15.667376	-1.398249	2.283933	0.407864	-0.224365	-0.247803	0.821777
834.0	2.378208	-13.443751	12.819642	-1.557262	2.475672	0.509745	-0.239502	-0.247803	0.821777
835.0	3.510671	-13.489108	10.077961	-0.800802	2.537327	0.301918	-0.263672	-0.243408	0.815186
836.0	4.212404	-11.411475	8.079052	0.075428	2.773756	0.310563	-0.290039	-0.235107	0.815186
837.0	5.477158	-8.705321	7.499702	0.738887	3.179235	0.604838	-0.321289	-0.215576	0.808594
838.0	6.546151	-6.522968	7.721088	0.942666	3.74679	1.065561	-0.358887	-0.205078	0.799805
839.0	6.031996	-5.229016	7.671164	0.827411	4.316933	1.527463	-0.387939	-0.185547	0.784424
840.0	5.699476	-4.236621	7.468959	0.494299	4.802479	1.896459	-0.427979	-0.163818	0.756104
841.0	5.558764	-4.041898	6.624988	0.092771	5.21553	2.176173	-0.459229	-0.148438	0.727783
842.0	5.289222	-4.263903	5.910126	-0.231974	5.512014	2.374035	-0.487793	-0.139404	0.697266
843.0	5.685388	-4.305489	5.457495	-0.43824	5.664946	2.510961	-0.507813	-0.130615	0.668945
844.0	6.346945	-4.227342	5.546161	-0.587904	5.708884	2.620809	-0.530029	-0.123779	0.634277
845.0	7.841203	-3.892549	5.305176	-0.763195	5.710415	2.725899	-0.54541	-0.121338	0.608154
846.0	8.767836	-3.86808	5.075448	-0.965872	5.774031	2.879654	-0.573242	-0.129883	0.593018
847.0	9.72888	-3.823894	4.985918	-1.188985	5.900533	3.040863	-0.60376	-0.131836	0.582275
848.0	10.954322	-3.637603	5.7217	-1.489184	5.99467	3.139005	-0.649658	-0.129883	0.573486
849.0	11.927922	-3.896226	5.334171	-1.849039	5.910464	3.136391	-0.728516	-0.11499	0.571045
850.0	12.797181	-3.673665	5.53803	-2.206973	5.792496	3.076377	-0.807617	-0.0979	0.544922
851.0	14.095188	-3.530437	5.651009	-2.619389	5.586124	3.022146	-0.890137	-0.04834	0.51416
852.0	15.317343	-3.892767	5.640227	-2.960601	5.281997	3.002032	-0.977783	0.016602	0.468018
853.0	17.662627	-5.637835	5.153735	-3.106202	4.96556	2.97617	-1.043701	0.090088	0.415527
854.0	20.977743	-6.390773	4.435065	-2.93803	4.813375	3.030497	-1.095459	0.185791	0.339111
855.0	22.178309	-4.272941	3.993075	-2.697853	4.611271	3.360782	-1.125977	0.291992	0.258301
856.0	21.540968	-2.463661	2.825944	-2.568211	4.027657	3.746019	-1.117432	0.405029	0.190674
857.0	19.694982	1.722182	1.842242	-2.352989	3.075576	3.939906	-1.084229	0.500488	0.129639
858.0	22.756292	4.172223	0.067056	-2.239243	2.128197	3.757085	-1.026367	0.581055	0.079346
859.0	28.305793	5.381219	-2.710279	-1.977633	1.869149	3.485871	-0.948242	0.637939	0.038086
860.0	29.573211	6.161476	-6.286622	-1.467633	2.205915	3.291759	-0.879639	0.664551	-0.005371
861.0	26.792443	7.379755	-9.164565	-0.714986	2.559227	3.006126	-0.803711	0.66748	-0.035645
862.0	24.510363	10.31159	-11.153692	-0.101448	2.502338	2.590152	-0.751465	0.667725	-0.054932
863.0	23.708083	13.336974	-12.544989	0.106979	2.154311	2.207108	-0.701172	0.657715	-0.078613
864.0	21.118852	15.57485	-13.224658	0.006226	1.512579	1.713688	-0.674561	0.64917	-0.091553
865.0	19.284765	16.274743	-13.582951	-0.239825	0.516895	0.880298	-0.650391	0.638672	-0.09375
866.0	21.565984	15.177581	-13.561524	-0.352574	-0.339914	0.014636	-0.634521	0.623535	-0.087158
867.0	21.236855	6.140872	-7.919631	0.581424	-0.850544	-0.959349	-0.640137	0.604248	-0.084717
868.0	1.968162	5.740599	2.68475	1.926511	-2.488026	-2.701223	-0.654053	0.56958	-0.071533
869.0	-6.505245	-18.255989	21.395853	1.455609	-4.599618	-4.283083	-0.669678	0.526123	-0.043213
870.0	22.844564	-2.139271	-1.424739	2.279666	-3.744703	-3.844321	-0.681396	0.487061	-0.032227
871.0	20.63377	7.645812	-0.110365	1.837348	-4.165907	-2.655751	-0.688965	0.45874	-0.001709
872.0	19.509221	-1.816731	5.509612	1.342737	-3.846974	-1.789957	-0.701172	0.438965	0.017822
873.0	13.273163	-0.193943	5.574114	1.000375	-3.378061	-1.776782	-0.700195	0.417236	0.033203
874.0	17.918112	-3.267561	1.464433	0.838834	-2.812407	-1.759246	-0.70166	0.399902	0.050537
875.0	41.332193	-1.966665	-2.115089	0.824367	-0.421307	-1.384403	-0.707764	0.384766	0.04834
876.0	5.031905	-7.232286	5.655773	0.767514	0.290386	-1.037038	-0.705322	0.380615	0.039795
877.0	7.393177	-0.991918	6.946392	0.699149	-0.212718	-1.094846	-0.711426	0.367676	0.046387
878.0	11.031915	-0.100963	5.56276	0.383781	-0.059774	-0.895212	-0.710938	0.359131	0.041992
879.0	9.068531	-3.581304	5.739647	0.299636	0.040347	-0.709137	-0.715088	0.352539	0.039795
880.0	8.399323	-2.876981	5.507368	0.256172	0.092625	-0.607193	-0.717041	0.343994	0.044189
881.0	8.240673	-3.001821	5.594326	0.244379	0.11032	-0.503884	-0.714844	0.343994	0.040039
882.0	8.18273	-2.96714	5.89181	0.214563	0.098991	-0.390912	-0.716797	0.3396	0.037842
883.0	7.992663	-2.302456	6.373088	0.173843	0.058466	-0.295501	-0.714355	0.335449	0.042236
884.0	7.905403	-2.9879	5.886841	0.09588	-0.008176	-0.210517	-0.718994	0.339844	0.035645
885.0	7.770608	-4.383266	5.046523	0.092668	-0.001086	-0.202994	-0.720947	0.335449	0.037842
886.0	7.733973	-4.494948	4.936454	0.133462	0.045443	-0.25473	-0.716553	0.331055	0.044434
887.0	7.818777	-4.169113	4.864666	0.158444	0.094783	-0.290214	-0.725098	0.326904	0.03125
888.0	7.85908	-4.295301	4.766761	0.18922	0.135405	-0.327157	-0.718262	0.32251	0.033447
889.0	7.826057	-3.826356	4.957621	0.22324	0.179041	-0.345822	-0.713867	0.320313	0.033447
890.0	7.950032	-3.519031	5.067378	0.234119	0.219699	-0.3458	-0.718262	0.318115	0.037842
891.0	7.949827	-3.828934	4.867418	0.262329	0.295376	-0.354285	-0.71582	0.316162	0.031494
892.0	7.910966	-3.692716	4.930151	0.286045	0.393797	-0.372766	-0.722168	0.311768	0.0271
893.0	7.957265	-3.4311	5.099891	0.306274	0.487295	-0.376749	-0.724121	0.30542	0.024902
894.0	7.727311	-3.374055	5.24852	0.313554	0.56031	-0.372591	-0.724121	0.30542	0.018311
895.0	7.790319	-3.536737	5.30149	0.319586	0.623679	-0.376299	-0.724121	0.30127	0.01416
896.0	7.579139	-3.309358	5.504967	0.315399	0.650483	-0.38457	-0.72583	0.292725	0.018555
897.0	7.664052	-2.689254	5.924316	0.27057	0.626409	-0.369908	-0.719238	0.290527	0.007568
898.0	7.529793	-2.318182	6.281845	0.215679	0.583623	-0.323433	-0.728027	0.290771	-0.000977
899.0	7.528099	-1.800506	6.465733	0.156899	0.536012	-0.27567	-0.723389	0.280029	-0.003174
900.0	7.47472	-1.587086	6.622233	0.104063	0.478855	-0.214855	-0.718994	0.282227	-0.000977
901.0	7.536975	-1.832592	6.551307	0.03438	0.42391	-0.156111	-0.721191	0.284424	-0.003174
902.0	7.385591	-2.267919	6.448747	-0.002731	0.377649	-0.122562	-0.721191	0.284424	-0.007568
903.0	7.352284	-2.522517	6.275201	-0.020436	0.317589	-0.102959	-0.716797	0.282227	-0.009521
904.0	7.415191	-2.87346	6.096133	-0.02934	0.263413	-0.101302	-0.721191	0.282227	-0.007568
905.0	7.373259	-3.310191	5.88786	-0.013192	0.219703	-0.118346	-0.712402	0.282227	-0.011719
906.0	7.321529	-3.487689	5.822812	0.017261	0.18459	-0.149582	-0.716553	0.275879	-0.013916
907.0	7.318061	-3.447756	5.955641	0.04685	0.15111	-0.200367	-0.720703	0.271484	-0.016113
908.0	7.169711	-3.540511	6.096119	0.070088	0.114438	-0.251587	-0.725342	0.275879	-0.011719
909.0	7.074889	-3.023133	6.528198	0.090074	0.028142	-0.299181	-0.71875	0.275879	-0.013916
910.0	6.908898	-2.507951	6.877928	0.081825	-0.10645	-0.329626	-0.714111	0.267334	-0.016113
911.0	7.553991	-2.90056	7.352192	0.066835	-0.264642	-0.362724	-0.722656	0.260742	-0.009521
912.0	5.66509	-3.812056	8.561152	0.085714	-0.406753	-0.453652	-0.726807	0.258545	-0.007324
913.0	6.881859	-3.772972	8.615283	0.095813	-0.689157	-0.556203	-0.730957	0.25415	0.005615
914.0	5.911786	-3.754084	9.436796	0.104338	-0.99605	-0.684289	-0.726318	0.245361	0.007813
915.0	6.503866	-3.095405	9.13019	0.05901	-1.386174	-0.790347	-0.730469	0.23877	0.018799
916.0	6.334591	-2.759827	9.350531	-0.01842	-1.716658	-0.903962	-0.72998	0.22998	0.027588
917.0	6.042159	-2.716321	9.515921	-0.120814	-2.097888	-1.02399	-0.729492	0.217041	0.047119
918.0	5.941977	-3.369366	9.439171	-0.202062	-2.523623	-1.168538	-0.735596	0.205811	0.06665
919.0	5.365778	-4.07333	10.516258	-0.225833	-3.031682	-1.370018	-0.739258	0.19043	0.090576
920.0	5.008944	-5.746735	10.229316	-0.209314	-3.709265	-1.584718	-0.738525	0.175049	0.118652
921.0	3.676007	-6.799021	9.815079	-0.172919	-4.416903	-2.018953	-0.737305	0.146484	0.157959
922.0	1.973618	-6.086128	11.508618	-0.205982	-5.349048	-2.601074	-0.73877	0.128662	0.201416
923.0	2.11176	-7.014336	12.418315	-0.284012	-6.525294	-3.104425	-0.730469	0.087158	0.24707
924.0	1.117915	-7.944877	13.456378	-0.211899	-7.954305	-3.616441	-0.705078	0.052002	0.310059
925.0	4.094384	-3.529338	12.003978	-0.18354	-9.683712	-4.169412	-0.672607	0.006104	0.377686
926.0	13.346791	-4.90688	3.697491	-0.445152	-10.292189	-4.183388	-0.63623	-0.029053	0.447266
927.0	24.038315	-5.350489	-2.5239	-0.036509	-9.395311	-4.612399	-0.599365	-0.079102	0.499512
928.0	33.942627	-7.028937	-2.520591	0.16576	-7.810892	-4.883491	-0.554443	-0.114258	0.553955
929.0	29.217689	-13.117163	1.15521	1.190725	-6.261454	-4.913971	-0.507324	-0.146729	0.595459
930.0	25.736275	-14.250015	5.173373	2.558345	-5.040994	-4.689653	-0.471924	-0.160156	0.636719
931.0	18.428026	-13.927013	10.688965	3.624606	-4.05547	-4.283951	-0.442871	-0.179932	0.671631
932.0	10.281159	-9.420165	8.996273	3.913637	-3.642379	-4.126282	-0.407715	-0.182373	0.715088
933.0	7.230354	-2.197204	11.151876	3.215823	-3.218674	-3.547028	-0.376953	-0.189209	0.745361
934.0	31.417374	-0.823674	13.21085	1.10324	-0.835227	-1.293366	-0.372803	-0.185059	0.747559
935.0	12.869389	-7.253878	13.769989	-0.358974	1.599525	0.320503	-0.387695	-0.19165	0.756348
936.0	3.89041	-12.485617	12.448359	-0.563948	2.239213	0.861726	-0.407471	-0.19165	0.749756
937.0	2.203392	-11.680666	11.307973	-0.110014	2.467721	0.806651	-0.431396	-0.187256	0.740967
938.0	1.956495	-9.147099	10.140778	0.221052	2.621214	0.734371	-0.442383	-0.187256	0.736572
939.0	3.1129	-6.21514	9.368295	0.315533	2.883274	0.890415	-0.470947	-0.178467	0.717041
940.0	4.449675	-4.176298	9.065019	0.047279	3.335114	1.27309	-0.499756	-0.169678	0.690918
941.0	4.383934	-3.720129	8.511983	-0.344083	3.803107	1.732865	-0.521729	-0.162842	0.669189
942.0	4.340911	-4.122778	7.601466	-0.629151	4.210631	2.134643	-0.550781	-0.147461	0.638672
943.0	4.471718	-4.381622	6.948491	-0.741335	4.578564	2.445433	-0.579346	-0.142822	0.597412
944.0	4.779195	-4.146913	6.535397	-0.743923	4.866717	2.67821	-0.599609	-0.127197	0.556152
945.0	5.155261	-3.768137	6.542907	-0.724093	5.048106	2.859876	-0.619873	-0.111816	0.512695
946.0	5.798999	-3.088966	6.63817	-0.750215	5.125511	3.001826	-0.62915	-0.098145	0.469238
947.0	6.593792	-2.825723	6.456104	-0.84175	5.200166	3.125314	-0.634277	-0.08252	0.423584
948.0	7.660732	-2.804836	6.437984	-0.96026	5.254034	3.204837	-0.643311	-0.077637	0.375977
949.0	9.121016	-3.028174	6.497928	-1.098503	5.33648	3.266048	-0.644043	-0.059814	0.334717
950.0	10.577208	-3.59529	6.636436	-1.22317	5.468601	3.294864	-0.637939	-0.052979	0.295654
951.0	12.24831	-3.615753	6.581919	-1.36806	5.648092	3.289709	-0.638428	-0.041748	0.263184
952.0	13.476617	-3.138288	6.290721	-1.585111	5.817739	3.310119	-0.640869	-0.034668	0.224121
953.0	14.258317	-2.795896	6.443938	-1.913479	5.798245	3.371935	-0.639404	-0.02124	0.191406
954.0	14.142365	-3.540178	6.126618	-2.216057	5.522322	3.377241	-0.652832	-0.014648	0.178467
955.0	15.493048	-4.784939	5.598737	-2.310596	5.050103	3.290136	-0.66626	-0.001465	0.150146
956.0	19.612705	-6.167686	4.975416	-2.218659	4.657566	3.156198	-0.6875	0.0354	0.123779
957.0	23.749206	-4.840183	3.961527	-2.138422	4.568146	3.260008	-0.70874	0.076416	0.102051
958.0	23.190025	-2.810753	3.035185	-2.27511	4.27307	3.517709	-0.714844	0.12207	0.067139
959.0	21.343514	1.842972	2.175158	-2.597978	3.409205	3.655543	-0.719238	0.17627	0.036377
960.0	22.912115	5.205946	-0.363895	-2.997764	2.288985	3.488999	-0.7146	0.223877	0.016602
961.0	27.775792	6.987242	-3.388035	-3.098927	1.649921	3.137265	-0.698486	0.260742	-0.005127
962.0	30.895159	8.78721	-7.394693	-2.839999	1.605976	2.841826	-0.68457	0.293213	-0.011719
963.0	28.029614	8.969157	-10.648335	-2.129875	1.865713	2.507126	-0.663818	0.317383	-0.035645
964.0	24.19104	11.376557	-12.17444	-1.265603	1.791114	1.93344	-0.65332	0.328125	-0.048828
965.0	24.335518	15.28026	-13.493562	-0.876556	1.399272	1.3754	-0.640625	0.334961	-0.057373
966.0	24.380161	15.986839	-15.156229	-0.887053	1.039461	1.005327	-0.63208	0.337158	-0.063965
967.0	21.740513	14.358609	-15.164328	-0.642247	0.621468	0.589372	-0.623535	0.339355	-0.07251
968.0	19.18771	12.209366	-13.986226	-0.105018	-0.027692	-0.030914	-0.629639	0.333008	-0.068359
969.0	18.296996	11.045284	-11.334306	0.522763	-0.740741	-0.625868	-0.629395	0.324219	-0.070313
970.0	18.441511	1.935064	-5.474588	1.396419	-1.233897	-0.966612	-0.633057	0.307129	-0.065918
971.0	4.549454	-10.750468	28.270482	2.871732	-1.564685	-1.868071	-0.638184	0.274658	-0.052734
972.0	-33.980412	-25.810934	21.28548	2.403727	-3.536719	-3.58484	-0.6521	0.241943	-0.031006
973.0	27.664984	3.496006	-4.315331	3.32745	-3.418993	-4.069171	-0.659424	0.202881	-0.015625
974.0	18.95917	12.923656	1.718148	2.567273	-3.605802	-2.586833	-0.664795	0.176758	0.010498
975.0	17.415616	0.769386	6.973665	1.774843	-3.689023	-1.754481	-0.668457	0.159424	0.025879
976.0	21.174767	0.243777	2.526291	1.440071	-2.915516	-1.938545	-0.674316	0.144043	0.047607
977.0	50.467428	6.653699	1.433126	0.196716	0.445603	-1.638802	-0.673828	0.12915	0.038818
978.0	-2.33588	-12.141643	4.670585	0.814002	0.092426	-1.068199	-0.673584	0.120361	0.039063
979.0	11.694095	2.547309	9.619313	0.704302	0.017662	-1.093662	-0.675049	0.107422	0.04126
980.0	7.732103	1.232436	6.909064	0.312639	-0.145438	-0.737311	-0.670898	0.107422	0.047607
981.0	8.675537	-2.592763	6.240963	0.230351	-0.11856	-0.531564	-0.672852	0.103271	0.045654
982.0	8.68367	-3.80403	4.830295	0.193212	-0.083801	-0.435748	-0.672607	0.098877	0.043457
983.0	8.107162	-4.012147	5.296247	0.261579	0.022431	-0.412762	-0.665771	0.090332	0.045654
984.0	8.195823	-2.456329	5.931741	0.251327	0.04774	-0.346638	-0.670166	0.092529	0.043457
985.0	7.836301	-2.792615	5.94061	0.191332	0.020845	-0.253898	-0.672363	0.090332	0.047852
986.0	7.885438	-3.252634	5.878847	0.15501	0.02302	-0.203231	-0.669922	0.088135	0.045654
987.0	7.898643	-3.3273	5.498721	0.11044	0.018451	-0.168261	-0.674316	0.085938	0.04126
988.0	7.868322	-3.279901	5.441048	0.090029	0.015432	-0.138792	-0.672119	0.08374	0.043457
989.0	7.633177	-3.808918	5.423703	0.080007	0.02864	-0.141619	-0.671875	0.07959	0.04126
990.0	7.736102	-3.437572	5.514363	0.079471	0.042677	-0.152624	-0.665527	0.08374	0.045654
991.0	7.788888	-2.670596	5.789862	0.045512	0.046099	-0.137487	-0.669678	0.077393	0.04126
992.0	7.81073	-3.038604	5.624028	-0.019378	0.095799	-0.119112	-0.671875	0.081787	0.039063
993.0	7.851694	-3.612761	5.326202	-0.076194	0.205539	-0.136614	-0.669678	0.07959	0.037109
994.0	7.921654	-3.730281	5.127778	-0.099507	0.328399	-0.172956	-0.671875	0.07959	0.039063
995.0	7.819283	-3.366671	5.406664	-0.095139	0.405418	-0.189893	-0.66748	0.077637	0.030518
996.0	7.640442	-3.428135	5.424327	-0.094546	0.427899	-0.184428	-0.669678	0.075439	0.023926
997.0	7.619731	-3.71583	5.383907	-0.073072	0.443248	-0.194123	-0.665039	0.069092	0.026123
998.0	7.528335	-3.849694	5.40626	-0.051133	0.441919	-0.197899	-0.66748	0.075439	0.023926
999.0	7.719365	-3.795784	5.262381	-0.032447	0.432104	-0.213631	-0.667236	0.069092	0.021973
1000.0	7.630175	-3.454254	5.446613	-0.011275	0.417733	-0.209364	-0.667236	0.071289	0.017578
1001.0	7.608463	-3.212985	5.678906	-0.00027	0.398732	-0.192342	-0.667236	0.069336	0.010986
1002.0	7.630267	-3.453266	5.515887	0.007298	0.36881	-0.173383	-0.665039	0.071289	0.017578
1003.0	7.45668	-3.656014	5.536139	0.02701	0.365601	-0.184009	-0.665039	0.067139	0.008789
1004.0	7.502038	-3.541135	5.607163	0.05772	0.337754	-0.196682	-0.666992	0.060547	0.009033
1005.0	7.482716	-3.63192	5.52353	0.079326	0.324688	-0.210869	-0.666992	0.064941	0.002441
1006.0	7.393831	-3.713659	5.56257	0.117271	0.309921	-0.240568	-0.6604	0.062988	0.002441
1007.0	7.314369	-3.548011	5.72432	0.142992	0.277576	-0.283016	-0.662354	0.054443	-0.001953
1008.0	7.183722	-3.46839	6.036469	0.171944	0.232307	-0.333156	-0.660156	0.056396	0.002441
1009.0	7.079651	-3.122919	6.33573	0.184498	0.158906	-0.388406	-0.655518	0.050049	-0.003906
1010.0	7.085703	-3.091623	6.261801	0.189799	0.059493	-0.439604	-0.659912	0.047852	0.002441
1011.0	7.727029	-2.919784	6.471841	0.170595	-0.06735	-0.50765	-0.655273	0.039307	0.000488
1012.0	5.843574	-3.38442	7.801644	0.213464	-0.144189	-0.574729	-0.661621	0.039307	0.000488
1013.0	7.256226	-3.099558	7.780268	0.223612	-0.346622	-0.610481	-0.65918	0.030762	0.002686
1014.0	6.249886	-2.936255	8.967511	0.222482	-0.55036	-0.685089	-0.661133	0.026123	0.01123
1015.0	6.370949	-3.100473	9.112945	0.216255	-0.904366	-0.734984	-0.665283	0.021729	0.015625
1016.0	6.711367	-3.237398	8.942103	0.174485	-1.225836	-0.816845	-0.665039	0.015137	0.028564
1017.0	6.472325	-3.590698	8.967231	0.117331	-1.555291	-0.914428	-0.664795	0.010742	0.043945
1018.0	6.430842	-3.665857	8.668746	0.064349	-1.895233	-1.046433	-0.666748	0.00415	0.05249
1019.0	6.228947	-3.782567	8.623826	0.05229	-2.245603	-1.199361	-0.666016	-0.01123	0.074219
1020.0	5.844966	-3.775869	8.882159	0.03896	-2.634866	-1.383337	-0.665771	-0.02002	0.091797
1021.0	5.397882	-4.132366	9.905778	0.022424	-3.133878	-1.620597	-0.669434	-0.0354	0.111328
1022.0	4.97322	-5.424939	10.05183	0.03237	-3.797423	-1.89487	-0.668945	-0.046387	0.130859
1023.0	3.568887	-6.797631	9.66062	0.1047	-4.557788	-2.317443	-0.659424	-0.068604	0.176514
1024.0	2.700457	-6.965102	11.018588	0.054921	-5.477166	-2.888134	-0.656494	-0.086182	0.215576
1025.0	2.20996	-7.452246	12.677835	-0.090627	-6.608856	-3.376452	-0.644287	-0.116943	0.26123
1026.0	1.831256	-6.426626	13.621508	-0.160586	-8.170923	-3.84	-0.621094	-0.149902	0.317871
1027.0	8.39698	-2.039637	10.688397	-0.422241	-9.616506	-4.114461	-0.595947	-0.174072	0.370117
1028.0	16.686444	-3.925585	2.498754	-0.449791	-9.712469	-4.335307	-0.566162	-0.209473	0.439697
1029.0	28.752984	-3.654421	-1.811129	0.189683	-8.7415	-4.731332	-0.525879	-0.23999	0.483154
1030.0	31.263911	-7.903628	-0.110021	0.582601	-7.112331	-4.796376	-0.487549	-0.266357	0.528809
1031.0	27.324513	-14.143291	3.014455	1.585003	-5.800038	-4.76474	-0.445557	-0.283936	0.568115
1032.0	22.337611	-13.95224	7.284137	2.721696	-4.611708	-4.435646	-0.418701	-0.299316	0.600586
1033.0	14.493601	-13.345061	10.546695	3.457066	-3.749982	-4.15693	-0.385986	-0.301758	0.639893
1034.0	6.051929	-9.694842	9.41425	3.886409	-3.187248	-4.024663	-0.359619	-0.306641	0.676758
1035.0	20.931407	3.391118	16.254856	2.203355	-2.122561	-2.364758	-0.352783	-0.308838	0.694092
1036.0	23.042016	-6.596605	16.811845	0.092801	1.164641	-0.0625	-0.374756	-0.304688	0.6875
1037.0	3.255347	-11.571908	15.170779	-0.749902	2.38503	1.022618	-0.396729	-0.304443	0.676514
1038.0	0.886903	-13.734165	13.564454	-0.450675	2.473233	1.161193	-0.424805	-0.306641	0.672363
1039.0	1.518366	-11.450596	11.744133	-0.003497	2.507298	1.063714	-0.442627	-0.300049	0.65918
1040.0	2.810888	-8.565779	10.122663	0.335792	2.754978	1.193468	-0.469238	-0.282959	0.650391
1041.0	4.99681	-5.871479	9.683657	0.356692	3.249083	1.570217	-0.499756	-0.284912	0.626465
1042.0	5.546808	-4.546982	9.158909	0.111947	3.864637	2.060209	-0.537598	-0.267334	0.595947
1043.0	5.140755	-4.171696	8.556363	-0.149995	4.380229	2.487363	-0.572998	-0.251953	0.561279
1044.0	5.291203	-3.865497	7.598113	-0.381372	4.789111	2.813197	-0.606201	-0.240967	0.526367
1045.0	5.80476	-3.479487	6.838772	-0.54953	5.092424	3.068956	-0.626709	-0.223145	0.472168
1046.0	6.492961	-3.318091	6.14681	-0.669385	5.329071	3.287068	-0.651123	-0.21167	0.426514
1047.0	6.938031	-3.091572	6.063858	-0.741691	5.426199	3.424068	-0.666992	-0.196289	0.391602
1048.0	7.431246	-3.045621	5.981294	-0.815622	5.439707	3.515443	-0.687012	-0.187012	0.335205
1049.0	8.230411	-3.441157	5.854014	-0.844454	5.412743	3.575437	-0.700928	-0.167236	0.29834
1050.0	9.412818	-4.257031	5.780449	-0.808446	5.404887	3.562001	-0.723389	-0.151611	0.263428
1051.0	11.428109	-3.742464	6.305413	-0.78011	5.429426	3.517176	-0.748535	-0.125488	0.224365
1052.0	12.286885	-2.985963	6.276169	-0.905698	5.450958	3.411553	-0.767334	-0.090576	0.180664
1053.0	14.052106	-2.278122	6.457938	-1.254418	5.413833	3.279624	-0.781494	-0.064209	0.13501
1054.0	14.611039	-2.380078	6.249079	-1.699027	5.267296	3.139899	-0.790039	-0.018311	0.084961
1055.0	15.459783	-3.603039	5.691385	-2.017518	4.999793	2.904024	-0.789063	0.014648	0.037109
1056.0	16.822343	-5.130593	5.605111	-2.09726	4.74072	2.558972	-0.779541	0.04541	-0.010742
1057.0	20.442706	-4.295212	5.557736	-2.161905	4.646105	2.272483	-0.759033	0.076416	-0.060791
1058.0	22.984283	-1.75014	4.320433	-2.648158	4.600517	2.391043	-0.747314	0.109131	-0.104248
1059.0	20.936936	-1.011283	1.677135	-3.288335	4.06616	2.763066	-0.717773	0.127197	-0.145508
1060.0	19.474229	-0.215014	-0.92761	-3.425137	3.004942	3.008717	-0.706055	0.161621	-0.154297
1061.0	20.882538	2.444127	-2.709759	-3.050206	1.924354	2.928224	-0.69165	0.183594	-0.171631
1062.0	27.516544	6.512861	-4.022188	-2.728469	1.534775	2.818536	-0.681641	0.20752	-0.193359
1063.0	27.840134	8.451836	-5.480899	-2.347283	1.715004	2.769675	-0.662842	0.227051	-0.199951
1064.0	25.682605	9.30267	-7.903552	-1.681704	1.89376	2.513707	-0.652588	0.240234	-0.213135
1065.0	24.546411	11.003124	-10.903148	-0.917738	1.910382	2.046173	-0.639648	0.244629	-0.228271
1066.0	24.815264	13.594281	-13.372558	-0.287448	1.808663	1.628972	-0.631592	0.257813	-0.236816
1067.0	22.65858	15.509105	-14.233816	0.026812	1.441907	1.307079	-0.627197	0.26001	-0.247803
1068.0	18.244996	16.553345	-13.854123	0.085145	0.482666	0.696063	-0.626953	0.253662	-0.251953
1069.0	19.386043	13.09468	-13.866715	0.125254	-0.645943	-0.05472	-0.628906	0.244873	-0.239014
1070.0	18.184953	4.716711	-11.552291	2.414395	-1.932309	-1.639086	-0.643066	0.216797	-0.230225
1071.0	-4.616766	-3.621525	19.107689	2.853862	-3.818828	-3.02604	-0.669922	0.181885	-0.199707
1072.0	7.771739	-12.002289	10.266059	2.726577	-3.895834	-3.476188	-0.681152	0.138428	-0.184326
1073.0	20.938406	8.549906	-0.167646	2.568801	-3.6017	-3.111837	-0.697266	0.105713	-0.151855
1074.0	20.360777	5.281847	4.69025	1.72826	-3.690592	-2.256629	-0.709229	0.081543	-0.123535
1075.0	15.046208	0.576131	6.341249	1.244922	-3.154084	-1.905064	-0.717285	0.064209	-0.105957
1076.0	23.801348	-2.456971	1.546233	0.91158	-2.36844	-1.962777	-0.725342	0.048828	-0.095215
1077.0	39.95454	2.335007	0.92011	0.333765	0.243059	-1.37887	-0.722656	0.033936	-0.101563
1078.0	-1.389216	-10.653356	4.654259	0.73797	-0.04272	-1.184207	-0.722412	0.025146	-0.088623
1079.0	11.599602	-1.075302	6.814946	0.654301	-0.015641	-1.223558	-0.719482	0.010254	-0.092773
1080.0	8.152524	-2.157632	5.195371	0.486765	0.078958	-1.036333	-0.72168	0.008057	-0.088379
1081.0	9.848382	-2.559669	5.738268	0.501279	0.212909	-0.89474	-0.716797	-0.002686	-0.097168
1082.0	8.347615	-3.079086	4.97431	0.499862	0.287256	-0.773786	-0.716797	-0.00708	-0.094971
1083.0	8.11096	-1.922066	6.217247	0.534886	0.354038	-0.709643	-0.716309	-0.019775	-0.096924
1084.0	8.323752	-1.07066	6.959125	0.436877	0.306061	-0.553499	-0.713867	-0.02417	-0.101318
1085.0	7.821865	-1.132511	6.717375	0.339928	0.202184	-0.414741	-0.718018	-0.02832	-0.099121
1086.0	7.914863	-2.117236	6.237571	0.272595	0.128213	-0.307893	-0.711426	-0.032715	-0.101318
1087.0	7.806621	-2.270425	6.308418	0.211597	0.060235	-0.244473	-0.718018	-0.030518	-0.099121
1088.0	7.744205	-2.206384	6.592756	0.152695	-0.00402	-0.201375	-0.713379	-0.034912	-0.099121
1089.0	7.762525	-1.697929	6.783337	0.069465	-0.084741	-0.143062	-0.715576	-0.039307	-0.090332
1090.0	7.688524	-2.424409	6.191407	0.000362	-0.138732	-0.088907	-0.711426	-0.032715	-0.099121
1091.0	7.986821	-3.158022	5.563044	-0.057753	-0.090565	-0.087259	-0.715576	-0.039307	-0.092529
1092.0	8.096977	-3.362086	5.350887	-0.125889	0.023098	-0.113568	-0.713623	-0.032715	-0.092529
1093.0	8.070771	-3.914498	5.072808	-0.163285	0.149397	-0.146248	-0.713135	-0.04126	-0.099121
1094.0	7.96324	-4.040439	4.977013	-0.18624	0.252384	-0.177644	-0.708984	-0.039063	-0.099121
1095.0	7.820215	-3.557979	5.260598	-0.181741	0.316084	-0.2035	-0.711182	-0.039063	-0.109863
1096.0	7.896932	-3.468527	5.364023	-0.169014	0.332105	-0.203618	-0.708984	-0.036865	-0.105469
1097.0	7.926989	-3.692024	5.203446	-0.148861	0.352873	-0.201785	-0.70459	-0.04126	-0.107666
1098.0	7.802403	-3.759266	5.122588	-0.097903	0.386366	-0.206088	-0.702393	-0.041016	-0.112061
1099.0	7.853902	-3.820118	5.103327	-0.035055	0.422957	-0.211218	-0.706543	-0.04541	-0.114258
1100.0	7.821727	-3.486258	5.221598	0.018574	0.443499	-0.208656	-0.706787	-0.043213	-0.118408
1101.0	7.593704	-3.396786	5.409562	0.074446	0.454285	-0.202952	-0.704346	-0.049561	-0.118408
1102.0	7.630722	-3.386555	5.488262	0.133552	0.426822	-0.218032	-0.697754	-0.049561	-0.122803
1103.0	7.364969	-3.445603	5.737659	0.184958	0.392996	-0.2488	-0.693359	-0.049561	-0.127197
1104.0	7.326202	-3.500594	5.868245	0.231734	0.313683	-0.301713	-0.695313	-0.053711	-0.131348
1105.0	7.355003	-3.267295	6.128911	0.266958	0.243732	-0.370742	-0.693115	-0.058105	-0.12915
1106.0	7.215832	-2.765555	5.822367	0.278911	0.160644	-0.448711	-0.695068	-0.060303	-0.122803
1107.0	7.323245	-3.570798	6.910063	0.247129	0.098571	-0.527675	-0.694824	-0.06665	-0.126953
1108.0	7.056836	-2.361014	7.283559	0.27897	-0.049415	-0.560361	-0.692383	-0.073242	-0.124756
1109.0	6.996664	-3.063265	7.137999	0.269931	-0.192364	-0.629284	-0.692383	-0.075439	-0.122559
1110.0	7.041864	-2.705006	7.487853	0.268282	-0.346322	-0.690957	-0.69873	-0.079834	-0.118408
1111.0	6.87653	-2.548665	7.786039	0.243459	-0.529514	-0.756295	-0.691895	-0.088379	-0.115967
1112.0	6.79125	-2.520891	8.081491	0.23979	-0.730482	-0.802146	-0.693848	-0.092773	-0.111816
1113.0	6.710326	-2.428459	8.342083	0.219045	-0.964217	-0.85159	-0.697754	-0.101563	-0.098633
1114.0	6.795618	-2.577813	8.418476	0.184974	-1.224815	-0.901145	-0.699707	-0.110352	-0.083496
1115.0	6.841641	-3.13184	8.244793	0.168936	-1.485581	-0.976831	-0.703857	-0.114502	-0.085693
1116.0	6.738643	-3.521045	8.034645	0.169623	-1.762685	-1.087434	-0.705322	-0.12793	-0.061768
1117.0	6.678745	-3.566405	7.773735	0.207561	-2.060493	-1.225202	-0.707031	-0.143066	-0.050781
1118.0	6.447488	-3.308013	7.803941	0.238464	-2.376459	-1.380967	-0.702393	-0.149902	-0.026855
1119.0	6.007194	-3.344853	7.93732	0.262588	-2.750058	-1.56793	-0.706055	-0.165283	0.001221
1120.0	5.492482	-3.200832	9.026329	0.25925	-3.220086	-1.789056	-0.709717	-0.178467	0.029541
1121.0	5.082936	-4.146631	9.936292	0.248677	-3.879417	-2.024968	-0.717773	-0.194092	0.055664
1122.0	4.351021	-6.227207	9.644961	0.249605	-4.663052	-2.362764	-0.7146	-0.220459	0.101318
1123.0	3.788699	-8.003434	10.648141	0.115455	-5.566345	-2.843823	-0.705078	-0.240479	0.144775
1124.0	3.20108	-8.202822	11.946852	-0.072319	-6.61402	-3.358957	-0.690674	-0.270996	0.19043
1125.0	4.910255	-5.45714	11.52277	-0.199961	-7.778974	-3.938447	-0.676025	-0.306152	0.249268
1126.0	10.502204	0.658723	7.330424	-0.126606	-8.69357	-4.42797	-0.650879	-0.334961	0.318604
1127.0	20.871393	-3.282731	2.107806	0.004287	-8.65515	-4.747626	-0.612305	-0.37207	0.368896
1128.0	30.214442	-4.442325	-1.05082	0.508358	-7.529524	-4.878242	-0.578369	-0.402832	0.423096
1129.0	29.486123	-9.81638	0.788531	0.780694	-6.141007	-4.868477	-0.538086	-0.428955	0.462402
1130.0	25.562864	-12.429593	4.661609	1.458004	-4.909707	-4.668293	-0.504395	-0.450928	0.501709
1131.0	19.418623	-11.787699	8.877239	2.003888	-3.983954	-4.306009	-0.462646	-0.464355	0.538574
1132.0	11.3773	-10.771523	8.635329	2.447843	-3.667816	-4.233519	-0.429443	-0.473145	0.575439
1133.0	8.577422	-7.682906	11.166636	2.568754	-3.076293	-3.266792	-0.409668	-0.475586	0.60376
1134.0	28.596358	-4.598085	13.879644	0.817896	-1.122619	-0.529713	-0.412109	-0.471436	0.612305
1135.0	12.476778	-11.894487	13.527554	0.23063	1.184612	1.205325	-0.429443	-0.471436	0.60376
1136.0	3.44224	-12.833414	13.434096	0.396095	1.685006	1.863084	-0.44751	-0.456543	0.605713
1137.0	3.380696	-10.012059	12.811064	0.612141	1.87526	1.909203	-0.473877	-0.447998	0.603516
1138.0	3.211443	-6.654952	11.481452	0.555179	2.15414	1.896572	-0.483154	-0.437012	0.590332
1139.0	4.224877	-4.099861	10.770221	0.247805	2.593109	2.063418	-0.511475	-0.432617	0.575195
1140.0	5.642152	-3.257185	10.193976	-0.194897	3.100903	2.354664	-0.524902	-0.426025	0.555664
1141.0	6.214028	-3.600728	8.881031	-0.510858	3.666788	2.677589	-0.559814	-0.425781	0.529541
1142.0	6.283879	-3.972238	7.910018	-0.62939	4.245243	2.99107	-0.586426	-0.416992	0.503418
1143.0	6.034825	-3.780057	7.470746	-0.638972	4.685886	3.244894	-0.612793	-0.410156	0.470947
1144.0	5.928692	-3.236941	6.977447	-0.633137	4.935161	3.465887	-0.645752	-0.405518	0.44043
1145.0	5.931289	-2.916924	6.737142	-0.627194	5.011656	3.625582	-0.678467	-0.405029	0.39917
1146.0	6.12206	-3.053066	6.536195	-0.597869	4.958799	3.72154	-0.707275	-0.39624	0.375244
1147.0	6.969146	-3.445366	6.392257	-0.496483	4.885754	3.763185	-0.750732	-0.398193	0.346924
1148.0	8.589715	-3.739419	6.50054	-0.369486	4.851079	3.807093	-0.787842	-0.397949	0.31665
1149.0	9.732467	-3.929052	6.273655	-0.203232	4.886881	3.733917	-0.837891	-0.401855	0.279785
1150.0	11.160232	-2.940937	6.317868	-0.178853	4.963144	3.588649	-0.885742	-0.399414	0.242676
1151.0	12.197666	-2.019213	6.419383	-0.413524	4.993638	3.429325	-0.953613	-0.396973	0.192871
1152.0	13.455742	-2.24362	6.160871	-0.813816	4.94251	3.25736	-1.006348	-0.387695	0.134033
1153.0	14.610277	-3.506997	5.419201	-1.173931	4.871025	3.07818	-1.057617	-0.358887	0.064453
1154.0	15.281054	-5.374549	4.947125	-1.331864	4.802946	2.809833	-1.100342	-0.328369	0.012207
1155.0	17.078545	-5.255918	5.274578	-1.442749	4.751292	2.48567	-1.125977	-0.288574	-0.063721
1156.0	19.779158	-3.157055	4.905076	-1.892092	4.717839	2.357476	-1.147461	-0.242676	-0.12915
1157.0	20.565348	-2.08678	3.398586	-2.693722	4.513355	2.53974	-1.162598	-0.192383	-0.196533
1158.0	20.065275	-3.078069	0.727543	-3.219813	3.870777	2.802131	-1.16748	-0.126953	-0.255371
1159.0	22.016363	-3.776492	-1.81256	-3.064413	3.125085	2.937689	-1.182861	-0.066162	-0.307861
1160.0	23.576653	2.208045	-1.849709	-2.529895	2.525001	2.947923	-1.189941	-0.000977	-0.349365
1161.0	26.58212	8.153691	-2.281462	-2.770616	2.102173	3.000203	-1.195068	0.074707	-0.390869
1162.0	26.041212	8.957404	-5.060864	-3.049832	1.946953	2.920388	-1.197998	0.14624	-0.426025
1163.0	24.763247	8.502533	-8.337756	-2.549096	1.952073	2.531941	-1.189941	0.219971	-0.469727
1164.0	24.256364	10.341035	-10.786063	-1.630925	2.00492	1.997064	-1.179199	0.278564	-0.504639
1165.0	23.693279	14.195675	-12.375191	-0.973942	1.950063	1.503032	-1.155273	0.328613	-0.539551
1166.0	20.829341	16.680811	-13.635536	-0.814911	1.508171	0.95339	-1.141846	0.374268	-0.561279
1167.0	19.314553	16.609372	-14.111638	-0.855055	0.693137	0.278213	-1.140625	0.402344	-0.578857
1168.0	19.638505	13.786621	-13.668124	-0.618756	-0.11907	-0.34526	-1.141602	0.42627	-0.583252
1169.0	20.205105	0.525418	-9.615073	1.301191	-0.791194	-1.296167	-1.162354	0.39624	-0.600586
1170.0	-0.045879	3.022228	8.100161	3.713574	-2.072744	-2.739666	-1.19751	0.348633	-0.585205
1171.0	-6.540068	-21.808046	18.459705	3.566843	-3.543447	-3.843927	-1.232422	0.300781	-0.572021
1172.0	19.612428	6.873339	0.043778	3.593544	-3.401071	-3.831221	-1.265137	0.246582	-0.545654
1173.0	20.883838	11.519947	3.612143	2.719813	-3.666402	-2.751915	-1.294189	0.21167	-0.519531
1174.0	16.788073	3.724421	7.748186	1.904096	-3.345162	-2.040901	-1.321045	0.176758	-0.487061
1175.0	20.289581	2.830348	3.931463	1.232557	-2.747274	-2.079742	-1.343994	0.150635	-0.476074
1176.0	47.883084	3.124577	0.11108	0.466064	0.027475	-1.709352	-1.336914	0.135742	-0.482422
1177.0	-1.976914	-8.760612	5.930487	0.774166	0.171514	-1.132863	-1.338379	0.118652	-0.484619
1178.0	12.166352	0.593138	7.881932	0.612264	-0.172836	-1.144138	-1.344482	0.105713	-0.482422
1179.0	7.664163	-0.949373	5.927476	0.414965	-0.058368	-0.880696	-1.343994	0.094971	-0.486572
1180.0	9.48148	-3.128561	5.845546	0.410091	-0.009904	-0.756767	-1.3479	0.082031	-0.490967
1181.0	8.453471	-3.962962	4.450213	0.395292	0.080073	-0.691804	-1.345459	0.073486	-0.497314
1182.0	8.332659	-2.864758	5.46748	0.466472	0.193384	-0.684205	-1.347168	0.062744	-0.495117
1183.0	8.440299	-1.891566	6.395616	0.405205	0.23026	-0.590503	-1.342773	0.056396	-0.510254
1184.0	8.207369	-2.156379	6.268444	0.319299	0.22268	-0.479694	-1.348877	0.047852	-0.505859
1185.0	8.11004	-3.394575	5.520034	0.283433	0.226989	-0.430942	-1.346436	0.043701	-0.512451
1186.0	7.918539	-2.598349	5.969165	0.259232	0.217443	-0.408959	-1.344238	0.041504	-0.512451
1187.0	7.892462	-2.342161	6.113415	0.206757	0.200275	-0.361845	-1.341797	0.030762	-0.518799
1188.0	7.964231	-1.778395	6.298256	0.168413	0.148852	-0.292954	-1.34375	0.026611	-0.520996
1189.0	7.860266	-2.269911	6.124411	0.115029	0.110753	-0.226536	-1.343506	0.022217	-0.516602
1190.0	7.759583	-2.453058	6.150594	0.090414	0.110201	-0.197521	-1.343506	0.022217	-0.523193
1191.0	7.974938	-1.914445	6.1032	0.014298	0.145686	-0.165729	-1.332764	0.024658	-0.531738
1192.0	7.78518	-2.391312	5.935638	-0.072962	0.232396	-0.140227	-1.341309	0.020264	-0.540527
1193.0	7.934174	-3.141833	5.485925	-0.133146	0.322726	-0.15101	-1.339111	0.020264	-0.536133
1194.0	7.809072	-3.693416	5.27692	-0.132749	0.398581	-0.178315	-1.336914	0.020264	-0.540527
1195.0	7.812199	-3.564559	5.256558	-0.107878	0.44359	-0.194504	-1.334717	0.016357	-0.553467
1196.0	7.815905	-3.633049	5.185711	-0.07003	0.460726	-0.198269	-1.330322	0.01416	-0.553467
1197.0	7.736876	-3.767647	5.148507	-0.029378	0.496639	-0.21172	-1.32373	0.012207	-0.564209
1198.0	7.804399	-3.787707	5.239178	0.020369	0.506533	-0.222174	-1.321533	0.014404	-0.566406
1199.0	7.636117	-3.499751	5.448264	0.084945	0.506308	-0.233412	-1.319092	0.005859	-0.574951
1200.0	7.618546	-3.205293	5.525885	0.1368	0.486079	-0.233674	-1.312744	0.010254	-0.579346
1201.0	7.525788	-3.191965	5.653094	0.187012	0.454077	-0.231227	-1.310059	-0.000488	-0.583496
1202.0	7.386819	-3.190948	5.831667	0.242226	0.408007	-0.244825	-1.308105	0.001953	-0.59668
1203.0	7.490088	-2.778719	6.028971	0.259741	0.356442	-0.272331	-1.307861	-0.006592	-0.60083
1204.0	7.246202	-2.835616	6.206187	0.261827	0.318282	-0.30718	-1.311768	-0.013184	-0.598633
1205.0	7.238256	-2.718572	6.303092	0.258395	0.257314	-0.338699	-1.302979	-0.017334	-0.605225
1206.0	7.263922	-2.535135	6.453007	0.244366	0.207236	-0.37838	-1.300781	-0.019531	-0.603027
1207.0	7.225836	-2.380079	6.562253	0.205608	0.151577	-0.4088	-1.300293	-0.030273	-0.607178
1208.0	7.211048	-1.802299	6.800678	0.130828	0.091473	-0.424948	-1.302246	-0.038818	-0.609375
1209.0	7.50611	-1.270107	6.611168	0.073968	-0.004481	-0.444788	-1.302002	-0.042969	-0.615967
1210.0	6.593284	-2.476649	7.35449	0.037607	-0.031289	-0.432943	-1.299805	-0.041016	-0.60083
1211.0	7.425762	-2.172602	7.246794	0.075695	-0.173833	-0.424717	-1.303955	-0.051758	-0.607178
1212.0	6.803959	-2.222997	7.520456	0.114024	-0.289045	-0.423189	-1.303955	-0.051758	-0.600586
1213.0	7.00711	-2.319666	7.737164	0.137073	-0.452241	-0.444706	-1.307861	-0.062744	-0.596191
1214.0	6.818384	-2.501001	8.009785	0.159278	-0.627054	-0.482795	-1.310059	-0.060791	-0.578857
1215.0	6.645324	-2.42817	8.235578	0.139357	-0.844729	-0.536211	-1.311523	-0.078125	-0.574463
1216.0	6.843087	-2.612655	8.28754	0.113546	-1.086	-0.597856	-1.311035	-0.089111	-0.552734
1217.0	6.82615	-2.694008	8.357774	0.062383	-1.344938	-0.670072	-1.31958	-0.089355	-0.526855
1218.0	6.778751	-3.344546	8.246094	0.049592	-1.606553	-0.772529	-1.323486	-0.102539	-0.509521
1219.0	6.555663	-3.18711	8.236584	0.062668	-1.913157	-0.899264	-1.331787	-0.109619	-0.479004
1220.0	6.459699	-3.22899	8.118954	0.084345	-2.247221	-1.031	-1.337646	-0.127197	-0.446533
1221.0	6.245209	-3.657256	8.115265	0.09997	-2.597402	-1.202936	-1.3479	-0.140625	-0.407471
1222.0	5.756475	-4.024338	8.664503	0.125946	-3.025232	-1.431095	-1.355957	-0.15625	-0.364014
1223.0	5.280904	-4.79371	9.773346	0.122241	-3.599372	-1.747026	-1.35498	-0.176514	-0.311768
1224.0	4.684768	-5.954563	9.461876	0.191532	-4.359605	-2.079386	-1.362793	-0.198975	-0.242432
1225.0	3.460099	-6.509974	9.571389	0.13803	-5.194556	-2.563152	-1.363281	-0.238525	-0.170654
1226.0	3.248819	-7.14155	11.181773	-0.099814	-6.119134	-3.049419	-1.362061	-0.263672	-0.077393
1227.0	2.319822	-5.749491	12.487404	-0.321409	-7.33586	-3.493214	-1.360107	-0.307861	0.016113
1228.0	5.130492	-2.140828	12.04052	-0.531407	-8.635548	-3.962257	-1.336426	-0.3479	0.126953
1229.0	11.395242	1.950442	4.099308	-0.522213	-9.349062	-4.170461	-1.312988	-0.390381	0.241943
1230.0	19.66729	-4.132489	-1.786978	-0.148102	-9.054989	-4.349595	-1.262939	-0.437012	0.359375
1231.0	29.681191	-3.265592	-3.021717	0.193767	-7.831735	-4.558223	-1.206787	-0.474365	0.444092
1232.0	29.010428	-8.522315	-0.719424	0.446275	-6.35438	-4.510286	-1.138184	-0.499023	0.522461
1233.0	26.681552	-9.773472	2.739446	1.212247	-4.94781	-4.316317	-1.076416	-0.516602	0.574707
1234.0	21.997241	-12.118562	6.674484	2.13873	-3.526145	-3.981387	-1.015625	-0.512695	0.618164
1235.0	13.493308	-10.592297	5.265377	3.085166	-2.438772	-3.943335	-0.950439	-0.504395	0.659424
1236.0	11.004157	-3.176801	12.600993	2.917512	-1.597424	-3.130237	-0.909912	-0.48291	0.683105
1237.0	25.410935	-2.602361	16.270394	0.88059	0.707185	-0.536982	-0.880859	-0.448242	0.663574
1238.0	9.157829	-8.904089	14.528644	-0.35664	2.779251	0.753806	-0.871582	-0.406738	0.630859
1239.0	-0.84428	-10.818451	12.813526	-0.542422	2.737761	1.128597	-0.842529	-0.376221	0.598145
1240.0	2.678217	-9.939561	10.860785	-0.274397	2.624888	1.035418	-0.826416	-0.341309	0.574219
1241.0	3.603792	-8.104288	8.968631	-0.044128	2.855881	1.034939	-0.797363	-0.308594	0.550293
1242.0	4.40741	-5.535594	8.392214	0.014713	3.281967	1.248892	-0.772217	-0.282471	0.534912
1243.0	5.358302	-3.754543	8.282419	-0.228982	3.823978	1.646731	-0.746826	-0.264893	0.502441
1244.0	4.908587	-3.275829	7.645531	-0.59525	4.276556	2.074239	-0.730225	-0.24292	0.48291
1245.0	4.718289	-3.574375	6.811789	-0.822919	4.540487	2.42423	-0.72168	-0.238525	0.471924
1246.0	5.119239	-3.94864	6.107021	-0.878915	4.721401	2.683373	-0.730713	-0.231934	0.471924
1247.0	5.687229	-4.08048	5.663981	-0.800987	4.83153	2.821158	-0.742188	-0.216797	0.447998
1248.0	6.61506	-3.646987	5.701501	-0.715522	4.923534	2.888516	-0.781982	-0.205811	0.428467
1249.0	7.266347	-3.526794	5.760077	-0.711106	4.964113	3.000031	-0.813232	-0.186035	0.393555
1250.0	7.32513	-4.09212	5.638727	-0.63849	4.909557	3.014485	-0.844727	-0.164063	0.339111
1251.0	8.855625	-4.177004	5.774662	-0.501592	4.826721	2.976558	-0.865479	-0.137695	0.29126
1252.0	10.661305	-3.487018	5.543305	-0.389898	4.783307	2.931203	-0.868652	-0.111084	0.247803
1253.0	12.25154	-2.857548	5.26241	-0.423067	4.748583	2.918057	-0.867432	-0.091309	0.202148
1254.0	12.927621	-3.350131	4.832125	-0.46441	4.67744	2.892263	-0.876709	-0.075684	0.16748
1255.0	13.345481	-4.449427	4.374934	-0.281364	4.546196	2.840491	-0.894775	-0.064697	0.134766
1256.0	13.332557	-4.875548	4.603398	0.037165	4.344612	2.782155	-0.91748	-0.040527	0.091309
1257.0	14.204557	-4.516909	5.384635	0.219071	4.086053	2.731446	-0.938721	-0.003174	0.043457
1258.0	16.495919	-3.148027	5.854424	0.080198	3.907741	2.801198	-0.953857	0.05127	-0.015381
1259.0	17.355446	-3.716019	5.093571	-0.234341	3.763273	2.979649	-0.939209	0.118896	-0.072021
1260.0	17.295189	-4.852263	3.425722	-0.285302	3.559592	3.11609	-0.887207	0.175537	-0.111328
1261.0	16.939465	-5.020239	1.616392	-0.011481	3.203858	3.159568	-0.828125	0.225342	-0.126465
1262.0	17.106683	-4.438157	0.111908	0.387496	2.667403	3.181839	-0.770508	0.257813	-0.115723
1263.0	18.066989	-4.145476	-1.453264	0.774559	2.008719	3.211026	-0.718994	0.2771	-0.10498
1264.0	20.794405	-4.694702	-3.346013	1.216246	1.491815	3.243551	-0.68457	0.287598	-0.074707
1265.0	23.621161	-3.837122	-4.604458	1.746222	1.375075	3.304133	-0.665039	0.293945	-0.052979
1266.0	25.120055	1.185354	-4.473173	2.020472	1.591417	3.433181	-0.652588	0.306641	-0.037842
1267.0	24.79229	5.699553	-5.224094	1.589717	1.799511	3.692086	-0.64624	0.310791	-0.033447
1268.0	22.313588	5.182042	-8.093891	1.217588	1.954581	3.690688	-0.644531	0.327881	-0.020508
1269.0	19.638951	4.548022	-11.597763	1.496355	1.826988	3.244841	-0.64917	0.334473	-0.031494
1270.0	20.016194	7.82581	-13.904733	1.859398	1.408979	2.670242	-0.654297	0.355713	-0.018555
1271.0	19.893555	10.523931	-15.611222	1.795478	0.815459	2.179382	-0.652344	0.355957	-0.025146
1272.0	18.156603	11.076051	-16.660246	1.567825	-0.004917	1.632739	-0.661377	0.366699	-0.022949
1273.0	17.976678	10.627469	-16.607481	1.389264	-0.930762	0.95838	-0.676514	0.364258	-0.018555
1274.0	20.353172	6.387047	-13.44926	1.860889	-2.239707	0.15181	-0.689209	0.357422	0.000977
1275.0	1.225319	4.640443	7.015219	2.960264	-3.776251	-0.73002	-0.694824	0.335693	0.029053
1276.0	1.424608	-0.478468	27.357992	1.367014	-4.689463	-0.581057	-0.711914	0.326416	0.063965
1277.0	10.594991	-0.239582	4.130716	0.633089	-4.318522	-1.130942	-0.728516	0.311035	0.094238
1278.0	15.800163	9.121876	4.464239	0.524743	-4.203099	-1.318566	-0.736572	0.293213	0.126953
1279.0	15.692503	8.252875	9.027691	-0.230143	-3.784988	-1.125581	-0.753418	0.279785	0.159424
1280.0	10.982601	7.459345	10.141361	-1.135662	-3.390199	-1.321903	-0.757324	0.268555	0.191895
1281.0	11.520386	5.437274	8.839373	-1.95063	-3.036634	-1.550541	-0.763184	0.25293	0.22876
1282.0	34.54096	0.923971	5.982192	-2.847253	-1.87373	-0.660434	-0.758545	0.246338	0.252686
1283.0	25.663448	-23.207845	-14.020917	-1.083298	-0.237911	0.308034	-0.764893	0.243896	0.259277
1284.0	8.111098	-10.048358	4.777569	0.117646	0.006181	-0.201681	-0.756104	0.241943	0.250488
1285.0	6.986953	-0.231722	5.234175	0.129499	-0.059453	-0.335377	-0.764648	0.235596	0.244141
1286.0	8.019138	-1.63849	5.620828	0.118949	0.013049	-0.223941	-0.762451	0.235596	0.250732
1287.0	7.924275	-5.623578	3.895003	0.258909	0.041362	-0.243104	-0.764404	0.233398	0.241943
1288.0	9.071605	0.449379	6.595774	0.334914	0.053103	-0.19138	-0.764404	0.229004	0.250732
1289.0	7.925042	0.166587	7.248798	0.108748	-0.112822	0.034389	-0.761963	0.226807	0.250732
1290.0	7.546645	-4.042307	5.946029	0.086149	-0.169068	0.075883	-0.764404	0.233398	0.25708
1291.0	8.000597	-2.07308	6.493937	0.044621	-0.202791	0.073506	-0.759766	0.224609	0.255127
1292.0	7.841773	-3.892754	5.525234	-0.016321	-0.226778	0.073851	-0.757813	0.231201	0.259277
1293.0	7.828525	-3.150292	5.752103	-0.013459	-0.203213	0.018429	-0.761963	0.224609	0.261475
1294.0	7.937012	-3.12708	5.723119	-0.054396	-0.219046	-0.001546	-0.755615	0.231201	0.259277
1295.0	8.033609	-3.065206	5.627523	-0.087198	-0.198221	-0.014955	-0.761963	0.226807	0.265869
1296.0	8.050804	-3.59629	5.161557	-0.113815	-0.162885	-0.019665	-0.76416	0.22876	0.268066
1297.0	8.075084	-4.399556	4.585473	-0.078193	-0.076263	-0.059131	-0.759766	0.224609	0.268066
1298.0	7.997703	-3.957511	4.872009	-0.012985	0.024356	-0.108408	-0.763916	0.222412	0.272461
1299.0	7.999522	-3.376737	5.232685	-0.002189	0.091857	-0.132482	-0.761963	0.224609	0.265869
1300.0	8.041099	-2.717428	5.582273	-0.000869	0.144191	-0.115967	-0.757324	0.220215	0.263672
1301.0	8.03664	-2.670455	5.756217	-0.013074	0.187836	-0.079602	-0.766113	0.222412	0.25708
1302.0	8.08838	-2.773452	5.687233	-0.029981	0.242315	-0.04601	-0.759521	0.220215	0.263672
1303.0	7.918554	-2.76957	5.811423	-0.041381	0.276255	-0.011893	-0.76416	0.222412	0.25708
1304.0	7.763357	-2.364175	6.251333	-0.047014	0.265269	0.024412	-0.764404	0.229004	0.25293
1305.0	7.664746	-2.151316	6.408492	-0.073261	0.232076	0.061067	-0.761719	0.220459	0.257324
1306.0	7.560115	-1.970829	6.35337	-0.076565	0.162369	0.097202	-0.757568	0.224854	0.248535
1307.0	7.655806	-1.397546	6.502705	-0.169995	0.102047	0.204842	-0.76416	0.224609	0.25708
1308.0	7.493866	-2.676167	6.296932	-0.093347	0.050237	0.26257	-0.76001	0.229004	0.250732
1309.0	7.095325	-3.508209	5.922604	0.045825	-0.010514	0.285957	-0.757568	0.226807	0.261475
1310.0	7.093264	-3.203066	6.300278	0.286454	-0.088742	0.299269	-0.760254	0.239746	0.25708
1311.0	7.180137	-2.657871	6.435699	0.497991	-0.188272	0.360513	-0.760254	0.235596	0.254883
1312.0	7.219134	-2.151071	6.663388	0.620552	-0.298123	0.430109	-0.762695	0.243896	0.263672
1313.0	7.122239	-2.203919	6.733297	0.708983	-0.401944	0.512033	-0.760254	0.239502	0.27002
1314.0	7.199954	-2.453259	6.780117	0.888024	-0.516487	0.589806	-0.756592	0.252441	0.27002
1315.0	7.131788	-2.813543	6.551496	0.973184	-0.626936	0.643552	-0.752197	0.254639	0.278809
1316.0	7.26889	-2.629548	6.845536	1.130933	-0.731667	0.661238	-0.754883	0.267334	0.282959
