Acquisition frequency: 100 Hz
PacketCounter	Acc_X	Acc_Y	Acc_Z	Gyr_X	Gyr_Y	Gyr_Z	Mag_X	Mag_Y	Mag_Z
0.0	9.863082	0.329441	-0.075247	0.048388	0.034032	-0.014234	-0.678467	0.15918	-0.46582
1.0	9.835381	0.348325	-0.082804	0.038827	0.032741	-0.011664	-0.678467	0.156982	-0.472656
2.0	9.863049	0.33184	-0.068815	0.041145	0.036507	-0.012317	-0.682617	0.150391	-0.470215
3.0	9.836359	0.364206	-0.055999	0.031809	0.035944	-0.006936	-0.680664	0.156982	-0.472656
4.0	9.83791	0.317393	-0.079472	0.03653	0.030788	-0.010054	-0.683105	0.15918	-0.472656
5.0	9.859487	0.354345	-0.072859	0.033175	0.030469	-0.006271	-0.678223	0.152588	-0.477051
6.0	9.883623	0.357308	-0.072815	0.025854	0.029382	-0.006234	-0.67627	0.161377	-0.475098
7.0	9.878152	0.350211	-0.123813	0.023396	0.028433	-0.006529	-0.678223	0.154785	-0.486572
8.0	9.860124	0.294723	-0.111187	0.019647	0.028407	-0.007454	-0.680664	0.156982	-0.475098
9.0	9.881704	0.331499	-0.104616	0.021024	0.031029	-0.004964	-0.678223	0.152588	-0.477051
10.0	9.884295	0.29826	-0.107951	0.022005	0.033948	-0.007176	-0.678467	0.156982	-0.475098
11.0	9.83791	0.321777	-0.059161	0.022309	0.030118	-0.004327	-0.676025	0.156982	-0.479736
12.0	9.861122	0.3107	-0.079105	0.022305	0.030124	-0.004324	-0.676025	0.152588	-0.477051
13.0	9.861134	0.31097	-0.076436	0.015297	0.02519	-0.001452	-0.675781	0.150391	-0.479492
14.0	9.836081	0.295015	-0.091176	0.012535	0.028073	-0.004598	-0.67627	0.15918	-0.475098
15.0	9.860239	0.297739	-0.091153	0.009006	0.028781	-0.002713	-0.680664	0.154785	-0.470215
16.0	9.833516	0.329477	-0.079122	0.007711	0.029708	-0.003341	-0.678223	0.154785	-0.470215
17.0	9.836126	0.295945	-0.082933	0.009092	0.024211	-0.002679	-0.675781	0.148193	-0.479248
18.0	9.856779	0.318642	-0.097022	0.015027	0.022698	-0.005183	-0.673828	0.156982	-0.472656
19.0	9.851509	0.311	-0.148712	0.008278	0.020268	0.001425	-0.677979	0.148193	-0.479248
20.0	9.856804	0.318974	-0.093312	0.010348	0.013399	-0.004801	-0.68042	0.152588	-0.472412
21.0	9.878352	0.355285	-0.088248	0.0048	0.014623	0.002407	-0.678223	0.152588	-0.472412
22.0	9.876603	0.32732	-0.127033	0.004758	0.012851	0.001479	-0.676025	0.156982	-0.468018
23.0	9.87751	0.340975	-0.105543	0.009699	0.016545	0.003018	-0.678223	0.150391	-0.470215
24.0	9.853386	0.338431	-0.101144	0.013093	0.01865	0.000182	-0.675781	0.145996	-0.474609
25.0	9.857772	0.332124	-0.065561	0.009778	0.020096	0.004878	-0.682617	0.152588	-0.479492
26.0	9.833645	0.329465	-0.060953	0.010681	0.019467	0.000808	-0.676025	0.154785	-0.474854
27.0	9.812113	0.293348	-0.063131	0.005659	0.012226	-0.00259	-0.68042	0.152588	-0.474854
28.0	9.8578	0.33214	-0.061105	0.003342	0.008459	-0.001937	-0.682861	0.154785	-0.472656
29.0	9.808635	0.313691	-0.075013	-0.003968	0.007351	-0.001928	-0.678223	0.154785	-0.479492
30.0	9.854325	0.352335	-0.073254	-0.006205	0.007131	0.000582	-0.678223	0.154785	-0.472656
31.0	9.878486	0.354561	-0.075261	-0.006032	0.006098	0.00247	-0.678223	0.154785	-0.474854
32.0	9.856961	0.318154	-0.078311	-0.007324	0.007022	0.001837	-0.673584	0.152588	-0.472412
33.0	9.881984	0.334131	-0.06049	-0.011918	0.001261	0.00407	-0.676025	0.156982	-0.475098
34.0	9.85437	0.351506	-0.071109	-0.011106	0.005212	-3e-05	-0.676025	0.154785	-0.474854
35.0	9.881141	0.319876	-0.079972	-0.010667	-0.001436	0.003773	-0.678467	0.15918	-0.481934
36.0	9.875938	0.387057	-0.066846	-0.015542	0.006548	0.00592	-0.673828	0.156982	-0.475098
37.0	9.876849	0.324991	-0.113095	-0.015529	-0.00158	0.004089	-0.67627	0.15918	-0.475098
38.0	9.855296	0.363741	-0.050101	-0.017861	0.002783	0.006572	-0.673828	0.156982	-0.479736
39.0	9.879472	0.365486	-0.052476	-0.020312	0.001826	0.006266	-0.675781	0.150391	-0.474854
40.0	9.851878	0.382509	-0.063273	-0.020353	5.4e-05	0.005337	-0.673828	0.154785	-0.474854
41.0	9.854503	0.34807	-0.069686	-0.025044	-0.001122	0.007542	-0.678467	0.156982	-0.475098
42.0	9.8347	0.338908	-0.033151	-0.022727	0.002647	0.006894	-0.673828	0.156982	-0.475098
43.0	9.876977	0.321368	-0.112253	-0.022636	-0.001932	0.00692	-0.678223	0.154785	-0.477295
44.0	9.855441	0.359895	-0.049253	-0.030044	0.001553	0.006908	-0.678467	0.156982	-0.470459
45.0	9.854611	0.345123	-0.069014	-0.024758	0.003174	0.012228	-0.680664	0.154785	-0.477295
46.0	9.859835	0.351836	-0.014759	-0.027557	0.004292	0.00815	-0.67627	0.15918	-0.470459
47.0	9.882283	0.325731	-0.057329	-0.027467	-0.000287	0.008175	-0.678223	0.154785	-0.474854
48.0	9.85902	0.336531	-0.034535	-0.032546	-0.001159	0.005677	-0.682861	0.156982	-0.472656
49.0	9.858167	0.32221	-0.054735	-0.032589	-0.002928	0.004747	-0.673828	0.156982	-0.477295
50.0	9.859059	0.335371	-0.03464	-0.029886	0.000541	0.008807	-0.678467	0.15918	-0.477295
51.0	9.83493	0.332313	-0.031676	-0.032645	0.003437	0.005665	-0.676514	0.163574	-0.4729
52.0	9.854783	0.340416	-0.067755	-0.032729	-0.000104	0.003801	-0.676025	0.156982	-0.461182
53.0	9.854803	0.339861	-0.067713	-0.029934	-0.00122	0.007881	-0.676025	0.156982	-0.479736
54.0	9.882421	0.321619	-0.056824	-0.031442	-0.001022	0.004435	-0.669434	0.156982	-0.470459
55.0	9.859153	0.33264	-0.034073	-0.033898	-0.001971	0.004131	-0.67627	0.15918	-0.481934
56.0	9.850539	0.344569	-0.101436	-0.036102	-0.000412	0.007581	-0.676514	0.163574	-0.4729
57.0	9.882467	0.320157	-0.056966	-0.029077	-0.0036	0.00288	-0.680664	0.15918	-0.468018
58.0	9.834174	0.314922	-0.05179	-0.034816	-0.001331	0.008215	-0.671631	0.154785	-0.474854
59.0	9.858344	0.316776	-0.054542	-0.030375	-0.002662	0.002256	-0.680664	0.15918	-0.475098
60.0	9.885072	0.284874	-0.063978	-0.032407	-0.002143	0.007592	-0.678467	0.156982	-0.470459
61.0	9.857499	0.301929	-0.074764	-0.028964	0.001731	0.005695	-0.678467	0.156982	-0.470459
62.0	9.857514	0.301465	-0.074637	-0.026593	-0.000858	0.004131	-0.678467	0.15918	-0.468018
63.0	9.858409	0.314776	-0.054521	-0.025301	-0.001786	0.00476	-0.680908	0.161377	-0.470459
64.0	9.860973	0.280572	-0.061339	-0.022888	-0.002606	0.004131	-0.67627	0.15918	-0.475098
65.0	9.857545	0.300359	-0.075014	-0.020646	-0.002385	0.001618	-0.676514	0.163574	-0.475342
66.0	9.85756	0.299874	-0.074985	-0.017725	0.001796	0.008503	-0.67627	0.15918	-0.475098
67.0	9.861894	0.293025	-0.041252	-0.018192	-0.001433	0.001926	-0.674072	0.161377	-0.4729
68.0	9.882622	0.315238	-0.057616	-0.008319	-0.003993	0.002222	-0.674072	0.161377	-0.468262
69.0	9.833431	0.296543	-0.072722	-0.010694	-0.0014	0.003791	-0.680664	0.15918	-0.468018
70.0	9.834329	0.309883	-0.052736	-0.006985	-0.003154	0.003786	-0.678467	0.161377	-0.470459
71.0	9.857603	0.298248	-0.075815	-0.007157	-0.002113	0.001903	-0.683105	0.163574	-0.477539
72.0	9.861927	0.291763	-0.04234	-0.006035	-0.002004	0.000646	-0.676514	0.165771	-0.466064
73.0	9.83345	0.295722	-0.07352	-0.006035	-0.002003	0.000646	-0.680664	0.15918	-0.472656
74.0	9.857612	0.297839	-0.076236	-0.000909	0.00062	0.004078	-0.674072	0.161377	-0.4729
75.0	9.885203	0.280007	-0.065248	-0.00388	0.002797	-0.001877	-0.6875	0.161377	-0.479736
76.0	9.837781	0.289126	-0.039511	0.001163	0.001879	-0.00032	-0.678467	0.161377	-0.4729
77.0	9.881772	0.300172	-0.078348	-0.002415	0.000823	0.000632	-0.678467	0.161377	-0.477539
78.0	9.853293	0.30432	-0.109249	0.000951	0.00115	-0.00314	-0.671631	0.156982	-0.470459
79.0	9.857604	0.298258	-0.075573	0.004659	-0.000605	-0.003146	-0.678711	0.163574	-0.475342
80.0	9.834329	0.309889	-0.052851	0.005953	-0.001537	-0.002521	-0.678467	0.15918	-0.468018
81.0	9.853263	0.305219	-0.109428	0.008238	0.000452	-0.004098	-0.678467	0.15918	-0.470459
82.0	9.853249	0.30566	-0.109495	0.008196	-0.001319	-0.005035	-0.674072	0.163574	-0.475342
83.0	9.87739	0.308434	-0.112178	0.010694	0.0014	-0.003791	-0.680664	0.156982	-0.470459
84.0	9.857536	0.300353	-0.076235	0.012902	-0.008274	-0.009109	-0.678467	0.161377	-0.4729
85.0	9.877344	0.309618	-0.113026	0.013279	-0.000462	-0.002539	-0.680664	0.15918	-0.477295
86.0	9.853174	0.307655	-0.110623	0.014318	-0.003893	-0.00567	-0.67627	0.15918	-0.475098
87.0	9.853149	0.308274	-0.111182	0.016691	-0.006484	-0.007237	-0.680664	0.15918	-0.468018
88.0	9.828078	0.29286	-0.129428	0.017983	-0.007413	-0.00661	-0.678467	0.15918	-0.470459
89.0	9.853092	0.309538	-0.112662	0.015568	-0.00659	-0.005978	-0.678467	0.161377	-0.475098
90.0	9.857401	0.303865	-0.0796	0.01785	-0.004599	-0.007555	-0.676514	0.163574	-0.470703
91.0	9.853926	0.324613	-0.093563	0.015435	-0.003777	-0.006924	-0.680664	0.154785	-0.468018
92.0	9.825409	0.329151	-0.125033	0.020476	-0.004686	-0.005364	-0.678467	0.161377	-0.4729
93.0	9.849539	0.331996	-0.128192	0.02293	-0.003734	-0.005058	-0.680908	0.161377	-0.475098
94.0	9.853863	0.326139	-0.09488	0.027839	-0.001831	-0.004445	-0.678467	0.15918	-0.470459
95.0	9.872762	0.321538	-0.151734	0.024048	-0.003619	-0.006311	-0.680664	0.156982	-0.479736
96.0	9.870169	0.355865	-0.145453	0.024088	-0.001846	-0.005375	-0.67627	0.161377	-0.46582
97.0	9.880523	0.296326	-0.105136	0.020338	-0.001866	-0.006306	-0.676025	0.156982	-0.468018
98.0	9.873576	0.337057	-0.132614	0.015387	-0.005538	-0.007851	-0.676025	0.156982	-0.468018
99.0	9.84939	0.335522	-0.130438	0.017668	-0.003546	-0.009429	-0.680908	0.163574	-0.466064
100.0	9.872627	0.324873	-0.153405	0.012923	0.001635	-0.006302	-0.67627	0.161377	-0.4729
101.0	9.825189	0.334477	-0.12815	0.018012	-0.00562	-0.005658	-0.674072	0.161377	-0.468262
102.0	9.852777	0.317518	-0.117848	0.018958	-0.00447	-0.008798	-0.674072	0.161377	-0.4729
103.0	9.849274	0.338377	-0.131803	0.015251	-0.002722	-0.008797	-0.680664	0.15918	-0.475098
104.0	9.845766	0.359216	-0.145855	0.017795	-0.006348	-0.008473	-0.680664	0.15918	-0.470459
105.0	9.846615	0.373722	-0.126374	0.014262	-0.005639	-0.006587	-0.685303	0.161377	-0.470459
106.0	9.851836	0.381773	-0.073455	0.013406	-0.011365	-0.003427	-0.67627	0.161377	-0.463623
107.0	9.898341	0.359254	-0.119807	0.008357	-0.002341	-0.003141	-0.67627	0.15918	-0.472656
108.0	9.872414	0.329446	-0.157319	0.015799	0.004064	-0.00036	-0.676514	0.165771	-0.475342
109.0	9.900055	0.311753	-0.145699	0.020655	0.012325	0.001163	-0.678467	0.156982	-0.475098
110.0	9.854366	0.273252	-0.145795	0.032582	0.011053	-0.002925	-0.67627	0.161377	-0.46582
111.0	9.85265	0.321276	-0.118358	0.031164	0.006669	-0.006349	-0.678467	0.161377	-0.470459
112.0	9.850914	0.36949	-0.091339	0.020231	0.00274	-0.006312	-0.673828	0.154785	-0.468018
113.0	9.843054	0.396247	-0.138818	0.009393	-0.005772	-0.006255	-0.678467	0.156982	-0.472656
114.0	9.869774	0.365413	-0.148539	0.000823	-0.004169	-0.005937	-0.683105	0.15918	-0.472656
115.0	9.87236	0.332102	-0.155074	0.000812	0.003955	-0.004095	-0.678467	0.15918	-0.475098
116.0	9.869751	0.366148	-0.148272	0.010888	0.002163	-0.000966	-0.680908	0.161377	-0.470459
117.0	9.848208	0.32999	-0.152023	0.018338	0.000452	-2.7e-05	-0.67627	0.15918	-0.472656
118.0	9.849086	0.343757	-0.131944	0.026945	0.000626	0.000588	-0.680664	0.15918	-0.470459
119.0	9.849953	0.357774	-0.112042	0.030219	-0.002584	-0.00504	-0.682861	0.15918	-0.468018
120.0	9.833631	0.329635	-0.062418	0.027979	-0.002801	-0.002526	-0.68335	0.165771	-0.477539
121.0	9.833618	0.329943	-0.062825	0.026644	-0.003645	-0.004086	-0.671875	0.161377	-0.475098
122.0	9.83272	0.316601	-0.083525	0.017955	-0.007364	-0.006562	-0.683105	0.163574	-0.470703
123.0	9.833568	0.331132	-0.06431	0.017913	-0.009135	-0.007491	-0.676514	0.163574	-0.470703
124.0	9.829175	0.337822	-0.09875	0.010721	-0.004918	-0.004685	-0.678467	0.161377	-0.4729
125.0	9.879191	0.371081	-0.064671	0.01025	-0.008166	-0.011248	-0.680664	0.154785	-0.470215
126.0	9.829972	0.353568	-0.08023	0.007798	-0.009123	-0.011552	-0.680908	0.161377	-0.470459
127.0	9.873835	0.365579	-0.120403	0.009049	-0.011818	-0.01185	-0.678467	0.15918	-0.470459
128.0	9.873783	0.366567	-0.121615	0.010556	-0.012003	-0.008402	-0.678467	0.15918	-0.468018
129.0	9.873732	0.367542	-0.122825	0.004186	-0.011962	-0.011528	-0.682861	0.154785	-0.468018
130.0	9.869285	0.374626	-0.157782	0.012965	-0.012812	-0.009026	-0.678467	0.156982	-0.46582
131.0	9.85211	0.33339	-0.129237	0.012707	-0.01532	-0.01277	-0.678467	0.15918	-0.475098
132.0	9.87005	0.390459	-0.140547	0.008318	-0.012218	-0.005888	-0.678467	0.15918	-0.472656
133.0	9.825237	0.366417	-0.123053	0.011897	-0.019267	-0.008667	-0.682861	0.154785	-0.465576
134.0	9.850208	0.383644	-0.107646	0.009269	-0.019191	-0.010856	-0.678467	0.156982	-0.468018
135.0	9.85279	0.35079	-0.116052	0.009443	-0.020222	-0.008968	-0.683105	0.15918	-0.470459
136.0	9.852733	0.351679	-0.11812	0.006991	-0.02118	-0.009269	-0.671631	0.15918	-0.468018
137.0	9.824994	0.370097	-0.131213	0.005831	-0.02306	-0.00894	-0.680664	0.154785	-0.472656
138.0	9.852619	0.353427	-0.122346	0.008187	-0.017522	-0.008668	-0.678467	0.15918	-0.470459
139.0	9.852563	0.354333	-0.124232	0.005694	-0.020251	-0.009896	-0.682861	0.154785	-0.470215
140.0	9.828369	0.352827	-0.123397	0.000874	-0.018629	-0.008643	-0.680908	0.163574	-0.4729
141.0	9.877493	0.372396	-0.11093	0.000967	-0.023201	-0.00861	-0.680664	0.154785	-0.465576
142.0	9.848821	0.376933	-0.144146	0.002081	-0.023087	-0.009865	-0.680664	0.15918	-0.46582
143.0	9.876452	0.360452	-0.135564	0.003194	-0.022972	-0.01112	-0.683105	0.163574	-0.449707
144.0	9.848674	0.378992	-0.148702	0.002078	-0.023082	-0.009862	-0.678467	0.15918	-0.472656
145.0	9.869972	0.340793	-0.213715	0.007957	-0.018242	-0.011477	-0.682861	0.154785	-0.470215
146.0	9.848537	0.38092	-0.152824	0.008449	-0.023108	-0.006742	-0.683105	0.161377	-0.458984
147.0	9.871675	0.370265	-0.177838	0.005682	-0.020232	-0.009887	-0.680664	0.156982	-0.472656
148.0	9.851993	0.362871	-0.143309	0.01036	-0.019043	-0.012101	-0.680908	0.165771	-0.468262
149.0	9.872464	0.386131	-0.161602	0.010804	-0.017568	-0.006473	-0.682861	0.156982	-0.468018
150.0	9.876013	0.366877	-0.149596	0.010666	-0.014764	-0.007434	-0.680664	0.156982	-0.46582
151.0	9.852771	0.37909	-0.12818	0.009372	-0.013843	-0.008063	-0.678467	0.156982	-0.46582
152.0	9.874986	0.35426	-0.172374	0.008523	-0.011449	-0.003067	-0.678711	0.163574	-0.470703
153.0	9.827638	0.363635	-0.14784	0.009636	-0.011335	-0.004323	-0.676025	0.156982	-0.463379
154.0	9.856274	0.360706	-0.118465	0.005717	-0.018452	-0.008952	-0.678467	0.156982	-0.463379
155.0	9.85262	0.3811	-0.133663	0.003844	-0.012633	-0.000848	-0.682861	0.15918	-0.463379
156.0	9.855264	0.347551	-0.14144	0.008434	-0.014982	-0.004915	-0.685303	0.161377	-0.46582
157.0	9.847981	0.38784	-0.170246	0.003575	-0.015136	-0.004584	-0.680664	0.154785	-0.470215
158.0	9.854238	0.334514	-0.164537	0.004868	-0.016054	-0.003954	-0.676025	0.154785	-0.468018
159.0	9.847897	0.388632	-0.173265	0.008475	-0.01321	-0.003989	-0.680664	0.156982	-0.463379
160.0	9.850532	0.355154	-0.181165	0.00616	-0.01697	-0.003322	-0.678467	0.15918	-0.463379
161.0	9.847815	0.389247	-0.176479	0.009904	-0.016925	-0.002395	-0.680664	0.15918	-0.463379
162.0	9.846805	0.375753	-0.198294	0.003482	-0.018667	-0.006428	-0.680664	0.156982	-0.468018
163.0	9.824558	0.401528	-0.157411	0.011289	-0.022406	-0.001724	-0.685303	0.15918	-0.470459
164.0	9.851316	0.370338	-0.168539	0.006201	-0.015197	-0.002394	-0.683105	0.15918	-0.470459
165.0	9.830807	0.348174	-0.153669	0.011194	-0.017836	-0.001762	-0.680664	0.154785	-0.468018
166.0	9.850261	0.356914	-0.192106	0.008516	-0.019534	-0.004868	-0.678223	0.152588	-0.458496
167.0	9.850211	0.35727	-0.193977	0.007448	-0.017877	-0.002685	-0.678467	0.156982	-0.470459
168.0	9.849178	0.343728	-0.21592	0.010919	-0.020334	-0.005495	-0.678467	0.156982	-0.463379
169.0	9.850106	0.358116	-0.197712	0.009714	-0.015881	-0.004277	-0.683105	0.161377	-0.463623
170.0	9.850056	0.358596	-0.199351	0.008374	-0.016729	-0.005829	-0.680908	0.161377	-0.46582
171.0	9.853683	0.338981	-0.187068	0.008738	-0.010689	-0.000249	-0.6875	0.15918	-0.468018
172.0	9.878756	0.355712	-0.17119	0.013091	-0.01377	-0.007128	-0.685547	0.165771	-0.468262
173.0	9.84994	0.359557	-0.203311	0.012436	-0.012407	-0.000247	-0.678467	0.15918	-0.472656
174.0	9.870355	0.382043	-0.220967	0.012116	-0.00858	-0.003101	-0.680664	0.15918	-0.470459
175.0	9.84789	0.332027	-0.245404	0.014703	-0.010412	-0.001841	-0.685303	0.161377	-0.468262
176.0	9.877648	0.342678	-0.195551	0.014565	-0.007614	-0.002806	-0.682617	0.152588	-0.463135
177.0	9.84883	0.346393	-0.227217	0.013408	-0.009493	-0.002469	-0.682861	0.154785	-0.468018
178.0	9.873913	0.363106	-0.211056	0.013224	-0.008463	-0.004357	-0.682861	0.156982	-0.456299
179.0	9.849775	0.360803	-0.208991	0.016086	-0.007788	0.000636	-0.680908	0.161377	-0.458984
180.0	9.844067	0.352858	-0.26341	0.015719	-0.00573	-0.003142	-0.680664	0.15918	-0.463379
181.0	9.844055	0.352886	-0.26382	0.011186	-0.001619	0.001847	-0.682861	0.15918	-0.468018
182.0	9.848736	0.34688	-0.230544	0.013497	-0.005954	-0.000623	-0.683105	0.161377	-0.456543
183.0	9.868142	0.355349	-0.267702	0.015763	-0.00396	-0.002219	-0.6875	0.156982	-0.463379
184.0	9.840329	0.372865	-0.278877	0.017102	-0.003107	-0.000667	-0.682861	0.156982	-0.463379
185.0	9.86913	0.369311	-0.248446	0.022185	-0.002202	0.001808	-0.682617	0.147949	-0.465332
186.0	9.820901	0.36424	-0.242924	0.015991	-0.003217	0.000593	-0.680664	0.156982	-0.45874
187.0	9.847677	0.333	-0.252541	0.013127	-0.003895	-0.004398	-0.682617	0.152588	-0.470215
188.0	9.847658	0.333261	-0.252933	0.013356	-0.003154	-0.001588	-0.682861	0.15918	-0.463379
189.0	9.817172	0.384482	-0.257711	0.016035	-0.001446	0.001515	-0.689453	0.152344	-0.463135
190.0	9.847649	0.333083	-0.253491	0.015988	-0.003213	0.000596	-0.680664	0.15918	-0.463379
191.0	9.843955	0.352873	-0.267531	0.014694	-0.002298	-3.5e-05	-0.68042	0.152588	-0.458496
192.0	9.843952	0.352802	-0.267722	0.019592	-0.000363	0.00055	-0.682861	0.156982	-0.461182
193.0	9.868064	0.355205	-0.27076	0.020701	-0.000249	-0.000708	-0.682861	0.154785	-0.460938
194.0	9.823513	0.330738	-0.251327	0.015388	-0.001897	-0.005991	-0.678467	0.15918	-0.461182
195.0	9.859644	0.381454	-0.318535	0.020699	-0.000245	-0.000706	-0.685303	0.15918	-0.45874
196.0	9.840231	0.373138	-0.28195	0.013445	0.000389	0.000256	-0.680908	0.163574	-0.461426
197.0	9.86535	0.389557	-0.26511	0.007391	-0.003426	1.1e-05	-0.682861	0.154785	-0.463379
198.0	9.841241	0.386918	-0.262324	0.008823	0.000965	0.003399	-0.682861	0.15918	-0.456543
199.0	9.862349	0.346803	-0.324883	0.015106	0.005524	0.006453	-0.685059	0.156982	-0.463379
200.0	9.874465	0.300668	-0.262921	0.018573	0.011168	0.005434	-0.685303	0.15918	-0.463379
201.0	9.82259	0.315233	-0.269875	0.027996	0.008995	0.001042	-0.685059	0.156982	-0.45874
202.0	9.850405	0.2977	-0.25857	0.023188	0.0025	0.000513	-0.682861	0.154785	-0.45874
203.0	9.870843	0.320019	-0.274943	0.020419	0.005351	-0.002643	-0.6875	0.161377	-0.463623
204.0	9.81156	0.374875	-0.310258	0.018014	-0.001947	-0.003797	-0.685303	0.15918	-0.463379
205.0	9.840344	0.371899	-0.279642	0.005729	-0.000462	-0.004399	-0.682861	0.15918	-0.46582
206.0	9.843015	0.338245	-0.285856	0.0	0.0	0.0	-0.685303	0.161377	-0.46582
207.0	9.892255	0.357091	-0.271605	0.004942	0.003708	0.001503	-0.687256	0.154541	-0.465576
208.0	9.882898	0.368386	-0.338693	0.012422	0.003823	0.003356	-0.689697	0.158936	-0.463379
209.0	9.887613	0.362134	-0.304653	0.019902	0.003941	0.005209	-0.685059	0.156982	-0.460938
210.0	9.863523	0.359309	-0.301392	0.028077	0.00445	0.001105	-0.683105	0.161377	-0.463623
211.0	9.847799	0.330989	-0.250401	0.025766	0.008791	0.003565	-0.685059	0.156982	-0.46582
212.0	9.820043	0.347908	-0.260434	0.018515	0.009422	0.004521	-0.682861	0.15918	-0.46582
213.0	9.822745	0.313774	-0.265923	0.018193	0.005137	-0.00012	-0.685303	0.15918	-0.461182
214.0	9.822761	0.313851	-0.265245	0.015471	0.009754	-0.002364	-0.680664	0.15918	-0.463379
215.0	9.821097	0.361959	-0.238369	0.009468	0.0077	-0.001693	-0.689697	0.158936	-0.461182
216.0	9.829448	0.336615	-0.190208	0.009422	0.005931	-0.002609	-0.680664	0.15918	-0.463379
217.0	9.847911	0.330839	-0.246149	0.008358	0.00759	-0.000435	-0.680664	0.156982	-0.461182
218.0	9.848917	0.345046	-0.225498	0.005728	0.007641	-0.002621	-0.682861	0.156982	-0.461182
219.0	9.839613	0.356536	-0.292055	0.008448	0.011131	0.001398	-0.693848	0.150146	-0.467773
220.0	9.843314	0.336649	-0.277313	0.010803	0.008563	-0.00014	-0.678711	0.163574	-0.456787
221.0	9.841639	0.384649	-0.250472	0.011912	0.008676	-0.001396	-0.687256	0.154541	-0.463379
222.0	9.842376	0.32261	-0.295524	0.010848	0.010336	0.000778	-0.689453	0.154541	-0.460938
223.0	9.839726	0.356378	-0.28844	0.010847	0.010336	0.000778	-0.685303	0.161377	-0.46582
224.0	9.843422	0.336479	-0.273643	0.010846	0.010337	0.000779	-0.682861	0.15918	-0.46582
225.0	9.820305	0.348103	-0.250105	0.009601	0.004913	-0.000712	-0.682861	0.15918	-0.46582
226.0	9.81935	0.333863	-0.269312	0.008627	0.010115	0.003293	-0.682861	0.156982	-0.463379
227.0	9.824001	0.328184	-0.235082	0.008175	0.000511	-0.004095	-0.678467	0.15918	-0.461182
228.0	9.840803	0.370272	-0.265274	0.006135	0.007372	0.002082	-0.680664	0.15918	-0.463379
229.0	9.842528	0.322414	-0.290635	0.006791	0.005986	-0.004792	-0.682861	0.15918	-0.46582
230.0	9.848141	0.331092	-0.23643	0.003462	0.00565	-0.001022	-0.6875	0.156982	-0.463379
231.0	9.843526	0.336918	-0.269352	0.006925	0.011301	-0.002044	-0.680664	0.15918	-0.468018
232.0	9.844516	0.351117	-0.248539	0.008353	0.007598	-0.00043	-0.680664	0.15918	-0.461182
233.0	9.86768	0.339678	-0.270566	0.005544	0.008669	-0.004511	-0.682617	0.152588	-0.465576
234.0	9.867693	0.339979	-0.269692	0.010616	0.009595	-0.002026	-0.678467	0.15918	-0.46582
235.0	9.839941	0.357448	-0.27964	0.010659	0.011368	-0.00111	-0.6875	0.156982	-0.46582
236.0	9.839966	0.357413	-0.278792	0.013379	0.006755	0.001141	-0.682861	0.15918	-0.463379
237.0	9.840946	0.371532	-0.258128	0.010614	0.009598	-0.002025	-0.682861	0.154785	-0.463379
238.0	9.865085	0.374111	-0.260065	0.008213	0.010396	-0.001405	-0.680664	0.15918	-0.45874
239.0	9.839076	0.343521	-0.296123	0.00835	0.007603	-0.000428	-0.683105	0.161377	-0.46582
240.0	9.847349	0.318202	-0.247757	0.008168	0.008625	-0.00232	-0.6875	0.156982	-0.46582
241.0	9.843721	0.338091	-0.26061	0.008255	0.012171	-0.000489	-0.680664	0.15918	-0.468018
242.0	9.82057	0.349824	-0.236935	0.01075	0.006807	-0.001045	-0.680664	0.156982	-0.461182
243.0	9.819622	0.336151	-0.256221	0.010118	0.006327	-0.008554	-0.680664	0.15918	-0.463379
244.0	9.825149	0.345338	-0.20204	0.005454	0.005128	-0.00634	-0.683105	0.163574	-0.461426
245.0	9.844667	0.354009	-0.238227	0.01159	0.004398	-0.006022	-0.685059	0.154785	-0.463379
246.0	9.847364	0.320704	-0.243909	0.009145	0.003422	-0.006319	-0.678467	0.156982	-0.463379
247.0	9.848291	0.33543	-0.223711	0.009145	0.003423	-0.006319	-0.680664	0.156982	-0.463379
248.0	9.816855	0.37306	-0.248267	0.012879	0.003491	-0.005383	-0.68042	0.154785	-0.456299
249.0	9.843679	0.342095	-0.256953	0.011726	0.001606	-0.005043	-0.682861	0.154785	-0.465576
250.0	9.851906	0.317302	-0.209066	0.017541	0.004694	-0.007595	-0.682861	0.154785	-0.45874
251.0	9.847311	0.323414	-0.242474	0.015503	0.00345	-0.003191	-0.680664	0.156982	-0.46582
252.0	9.843661	0.343436	-0.255838	0.010563	0.007837	-0.002936	-0.682617	0.152588	-0.465576
253.0	9.844587	0.358145	-0.235341	0.012514	0.005537	-0.009167	-0.685303	0.15918	-0.470459
254.0	9.847307	0.324896	-0.240624	0.012823	0.009838	-0.00453	-0.682861	0.156982	-0.46582
255.0	9.843655	0.345256	-0.253615	0.013707	0.009199	-0.008592	-0.680664	0.156982	-0.468018
256.0	9.841843	0.39393	-0.226909	0.010378	0.008862	-0.004828	-0.680664	0.15918	-0.463379
257.0	9.842743	0.332122	-0.271807	0.009268	0.00875	-0.003573	-0.680664	0.15918	-0.468018
258.0	9.843676	0.346591	-0.250971	0.008019	0.011433	-0.003297	-0.680664	0.154785	-0.463379
259.0	9.84368	0.347048	-0.250179	0.00545	0.005133	-0.006337	-0.68042	0.152588	-0.472412
260.0	9.839115	0.353132	-0.28324	0.007976	0.00966	-0.00421	-0.682861	0.154541	-0.454102
261.0	9.843686	0.347924	-0.248733	0.010516	0.006071	-0.003845	-0.678223	0.150391	-0.463135
262.0	9.844597	0.362486	-0.228167	0.010376	0.008867	-0.004825	-0.683105	0.163574	-0.458984
263.0	9.84735	0.328962	-0.233254	0.011708	0.009735	-0.003271	-0.682617	0.152588	-0.467773
264.0	9.849173	0.357482	-0.192522	0.010639	0.011397	-0.001103	-0.682861	0.156982	-0.463379
265.0	9.871511	0.331752	-0.234004	0.011748	0.011511	-0.002356	-0.682617	0.152588	-0.465576
266.0	9.866092	0.323241	-0.286456	0.010679	0.013174	-0.000188	-0.6875	0.161377	-0.46582
267.0	9.819677	0.346598	-0.239661	0.013161	0.015931	0.001026	-0.685059	0.156982	-0.460938
268.0	9.863423	0.356884	-0.277952	0.018241	0.008753	0.00176	-0.682861	0.15918	-0.45874
269.0	9.888473	0.37349	-0.259715	0.014088	0.017067	-0.00212	-0.685059	0.154785	-0.472656
270.0	9.843017	0.334731	-0.258355	0.011867	0.016843	0.000388	-0.676025	0.152588	-0.463135
271.0	9.868067	0.351335	-0.2398	0.006984	0.014882	-0.000213	-0.680664	0.15918	-0.470459
272.0	9.842223	0.32046	-0.275014	0.005774	0.019342	0.000974	-0.689453	0.154541	-0.463379
273.0	9.86364	0.356789	-0.270292	0.009383	0.014091	-0.000823	-0.682861	0.156982	-0.470459
274.0	9.84319	0.334365	-0.25216	0.011114	0.014697	0.005433	-0.682861	0.156982	-0.461182
275.0	9.843226	0.334244	-0.250904	0.012853	0.011635	-0.0036	-0.680664	0.156982	-0.472656
276.0	9.844122	0.348566	-0.229832	0.008271	0.013981	0.000431	-0.680664	0.15918	-0.45874
277.0	9.87191	0.33126	-0.21726	0.009421	0.015872	9.2e-05	-0.6875	0.156982	-0.468018
278.0	9.836949	0.387836	-0.254844	0.00716	0.013871	0.001685	-0.682861	0.156982	-0.463379
279.0	9.841478	0.382067	-0.219589	0.004798	0.016443	0.003209	-0.678467	0.15918	-0.463379
280.0	9.841525	0.381649	-0.218174	0.001387	0.012552	0.00514	-0.682861	0.156982	-0.46582
281.0	9.840725	0.366792	-0.236616	0.000355	0.015994	0.00822	-0.682861	0.15918	-0.468018
282.0	9.870433	0.300767	-0.249521	0.013406	0.018487	0.004763	-0.682861	0.156982	-0.463379
283.0	9.847207	0.312102	-0.225239	0.020607	0.016106	0.002935	-0.682861	0.154785	-0.465576
284.0	9.82673	0.289547	-0.206849	0.018244	0.018681	0.004459	-0.682861	0.15918	-0.463379
285.0	9.826767	0.28941	-0.205272	0.015328	0.014406	-0.002372	-0.685303	0.15918	-0.470459
286.0	9.819583	0.329059	-0.232051	0.011699	0.009755	-0.00325	-0.682861	0.15918	-0.468018
287.0	9.812397	0.368706	-0.259112	0.008149	0.008659	-0.002302	-0.682861	0.156982	-0.472656
288.0	9.832105	0.376921	-0.294813	0.00313	0.009489	-0.003892	-0.682861	0.15918	-0.463379
289.0	9.836556	0.371669	-0.260146	0.007037	0.008548	-0.001049	-0.682861	0.156982	-0.470459
290.0	9.887596	0.343012	-0.270662	0.01503	0.010096	-0.007001	-0.682861	0.15918	-0.46582
291.0	9.884857	0.377031	-0.263714	0.020736	0.013326	0.003926	-0.685059	0.154785	-0.465576
292.0	9.863524	0.340457	-0.265769	0.020442	0.009011	-0.000705	-0.685059	0.154785	-0.465576
293.0	9.834989	0.343546	-0.29599	0.021551	0.009126	-0.001955	-0.68042	0.150391	-0.465576
294.0	9.815296	0.335737	-0.258513	0.021588	0.010907	-0.001041	-0.689697	0.156738	-0.45874
295.0	9.84027	0.352664	-0.240491	0.022481	0.010261	-0.005098	-0.680664	0.154785	-0.468018
296.0	9.823318	0.311417	-0.208892	0.023553	0.008597	-0.00726	-0.682861	0.156982	-0.46582
297.0	9.821355	0.360193	-0.182646	0.018854	0.005608	-0.005975	-0.683105	0.161377	-0.470459
298.0	9.821352	0.360595	-0.181992	0.017817	0.009057	-0.0029	-0.682861	0.156982	-0.46582
299.0	9.865221	0.371265	-0.220476	0.015201	0.00909	-0.0051	-0.680908	0.161377	-0.46582
300.0	9.848263	0.330093	-0.188897	0.014985	0.008329	-0.007906	-0.685059	0.156982	-0.463379
301.0	9.865214	0.37247	-0.218735	0.013947	0.011778	-0.004832	-0.683105	0.161377	-0.468262
302.0	9.865218	0.372928	-0.21776	0.015198	0.009094	-0.005098	-0.682861	0.15918	-0.461182
303.0	9.860833	0.378761	-0.25056	0.016382	0.012769	-0.004524	-0.685303	0.15918	-0.463379
304.0	9.840295	0.357097	-0.232773	0.020033	0.009294	-0.005393	-0.682861	0.156982	-0.463379
305.0	9.835123	0.348623	-0.28541	0.022505	0.012066	-0.004174	-0.682861	0.154785	-0.468018
306.0	9.840303	0.358029	-0.230998	0.019957	0.005737	-0.007212	-0.685059	0.156982	-0.46582
307.0	9.841086	0.372798	-0.21082	0.025148	0.003903	-0.003716	-0.685059	0.156982	-0.470459
308.0	9.795606	0.33429	-0.210836	0.02271	0.002915	-0.004021	-0.682861	0.156982	-0.463379
309.0	9.84027	0.359385	-0.230318	0.020023	-0.000618	-0.008044	-0.685059	0.154785	-0.463379
310.0	9.844626	0.354733	-0.1964	0.018805	0.00385	-0.00687	-0.680664	0.154785	-0.460938
311.0	9.865153	0.37743	-0.212929	0.020093	0.002948	-0.006222	-0.680664	0.154785	-0.474854
312.0	9.843814	0.341503	-0.215601	0.019017	0.004618	-0.004062	-0.680664	0.154785	-0.463379
313.0	9.841001	0.375814	-0.20942	0.020163	0.006515	-0.004401	-0.680664	0.154785	-0.468018
314.0	9.840993	0.376276	-0.208985	0.022525	0.003945	-0.005911	-0.6875	0.15918	-0.461182
315.0	9.84456	0.357407	-0.194821	0.017404	-0.000584	-0.01024	-0.68042	0.152588	-0.472412
316.0	9.867888	0.346482	-0.217119	0.017332	0.005779	-0.009408	-0.680664	0.156982	-0.468018
317.0	9.865048	0.381104	-0.211217	0.020229	0.000162	-0.005228	-0.680664	0.15918	-0.470459
318.0	9.836526	0.384403	-0.242157	0.020121	0.004744	-0.005306	-0.682861	0.156982	-0.470459
319.0	9.859877	0.373028	-0.264295	0.017686	0.003752	-0.005613	-0.680664	0.156982	-0.470459
320.0	9.840098	0.365807	-0.227552	0.018938	0.00107	-0.005872	-0.680664	0.154785	-0.465576
321.0	9.864213	0.368875	-0.230156	0.01636	0.002875	-0.007168	-0.678223	0.154785	-0.468018
322.0	9.86136	0.403473	-0.224381	0.015214	0.00098	-0.006827	-0.682861	0.156982	-0.46582
323.0	9.840038	0.367653	-0.227163	0.015249	0.002764	-0.005918	-0.682861	0.154785	-0.465576
324.0	9.840018	0.368121	-0.227267	0.013101	-0.003825	-0.004247	-0.685059	0.154541	-0.460938
325.0	9.836386	0.388342	-0.241561	0.0126	0.001003	-0.00903	-0.678223	0.152588	-0.470215
326.0	9.868469	0.366716	-0.196297	0.01038	0.000776	-0.006533	-0.689697	0.15918	-0.46582
327.0	9.840706	0.384425	-0.207683	0.011668	-0.000124	-0.005884	-0.682861	0.156982	-0.475098
328.0	9.865576	0.40189	-0.190784	0.010344	-0.001005	-0.00744	-0.682861	0.156982	-0.456299
329.0	9.837047	0.405159	-0.222003	0.009448	-0.00035	-0.003387	-0.682861	0.154785	-0.468018
330.0	9.883775	0.381662	-0.267052	0.005905	-0.001459	-0.002446	-0.682617	0.152344	-0.458496
331.0	9.864003	0.37431	-0.230402	0.008015	0.003348	-0.005026	-0.682861	0.154785	-0.465576
332.0	9.843464	0.352728	-0.21347	0.012955	-0.001021	-0.005233	-0.682861	0.156982	-0.461182
333.0	9.840604	0.387014	-0.207708	0.015492	0.005324	-0.002204	-0.685059	0.154785	-0.472656
334.0	9.816465	0.384809	-0.204684	0.015421	0.00176	-0.004017	-0.680664	0.154785	-0.470215
335.0	9.867579	0.356101	-0.215589	0.016744	0.002644	-0.00246	-0.682861	0.154785	-0.468018
336.0	9.83983	0.373471	-0.226694	0.014167	0.004445	-0.003759	-0.683105	0.161377	-0.463623
337.0	9.839071	0.359388	-0.246074	0.010625	0.003334	-0.002819	-0.680664	0.154785	-0.463379
338.0	9.835466	0.379021	-0.259799	0.006043	0.005675	0.001181	-0.68042	0.152588	-0.463135
339.0	9.835475	0.379072	-0.259389	0.005795	0.003123	-0.002529	-0.6875	0.156982	-0.46582
340.0	9.839087	0.359716	-0.244918	0.008227	0.004121	-0.00222	-0.68042	0.152588	-0.463135
341.0	9.863228	0.362275	-0.247279	0.006008	0.003893	0.000275	-0.680664	0.154785	-0.470215
342.0	9.8676	0.357083	-0.213015	0.00472	0.004793	-0.000375	-0.682617	0.152588	-0.463135
343.0	9.81859	0.337838	-0.226718	0.006972	0.006804	-0.001964	-0.6875	0.156982	-0.468018
344.0	9.863999	0.376946	-0.226235	0.00465	0.001226	-0.002186	-0.678467	0.156982	-0.46582
345.0	9.863993	0.377218	-0.226038	0.002074	0.003025	-0.003487	-0.682861	0.156982	-0.470459
346.0	9.863985	0.37755	-0.225837	0.00576	0.001341	-0.003434	-0.687256	0.154785	-0.468018
347.0	9.838353	0.346568	-0.262329	0.005794	0.003124	-0.002528	-0.685059	0.154785	-0.470215
348.0	9.883756	0.385773	-0.261797	0.005649	0.005922	-0.00352	-0.6875	0.161377	-0.461182
349.0	9.841978	0.327377	-0.247154	0.013301	0.006891	0.001203	-0.680664	0.15918	-0.468018
350.0	9.834783	0.366397	-0.274693	0.013156	0.009689	0.000211	-0.685059	0.154785	-0.463379
351.0	9.814279	0.344485	-0.256809	0.012798	0.011717	-0.003584	-0.685059	0.154785	-0.463379
352.0	9.83843	0.347305	-0.258465	0.010366	0.010719	-0.003893	-0.678467	0.156982	-0.461182
353.0	9.839179	0.362038	-0.237704	0.007968	0.011505	-0.003296	-0.682861	0.15918	-0.468018
354.0	9.866935	0.345206	-0.225241	0.010543	0.009708	-0.001993	-0.678223	0.154785	-0.460938
355.0	9.867686	0.359687	-0.204449	0.005782	0.013062	0.000104	-0.682617	0.152588	-0.472412
356.0	9.86411	0.379169	-0.217488	0.005926	0.010265	0.001097	-0.682861	0.156982	-0.46582
357.0	9.848642	0.366476	-0.146094	0.006824	0.009609	-0.002953	-0.682861	0.154785	-0.463379
358.0	9.842887	0.342946	-0.218303	0.00335	0.012064	-0.000205	-0.678223	0.154785	-0.460938
359.0	9.839318	0.362398	-0.231305	0.005958	0.012052	0.002003	-0.68042	0.150391	-0.463135
360.0	9.894816	0.3281	-0.207273	0.005925	0.010268	0.001098	-0.682861	0.154785	-0.468018
361.0	9.847292	0.337307	-0.180839	0.007166	0.017524	0.003474	-0.682861	0.156982	-0.470459
362.0	9.864285	0.378603	-0.210453	0.005957	0.012055	0.002005	-0.680664	0.156982	-0.46582
363.0	9.843053	0.341994	-0.212197	0.005923	0.01027	0.0011	-0.680664	0.156982	-0.470459
364.0	9.839502	0.361161	-0.225357	0.003913	0.010815	0.006396	-0.685059	0.152588	-0.467773
365.0	9.84383	0.355603	-0.190603	0.006068	0.007473	0.002093	-0.680664	0.15918	-0.472656
366.0	9.843149	0.340889	-0.209536	0.007388	0.00836	0.003651	-0.682861	0.156982	-0.461182
367.0	9.847464	0.335408	-0.17491	0.004957	0.00736	0.00334	-0.685059	0.154785	-0.465576
368.0	9.843197	0.340282	-0.208252	0.004892	0.003788	0.001529	-0.680664	0.154785	-0.468018
369.0	9.868058	0.356975	-0.190799	0.004925	0.005574	0.002435	-0.678467	0.15918	-0.472656
370.0	9.83895	0.345007	-0.241148	0.006035	0.005688	0.001189	-0.685059	0.152588	-0.465576
371.0	9.842542	0.32536	-0.22646	0.008432	0.004904	0.000596	-0.682861	0.154785	-0.465576
372.0	9.84326	0.33974	-0.206138	0.010717	0.008704	-8.5e-05	-0.6875	0.156982	-0.463379
373.0	9.847554	0.334522	-0.17149	0.010893	0.007693	0.001814	-0.678223	0.154785	-0.468018
374.0	9.868138	0.356413	-0.187679	0.009573	0.006806	0.000256	-0.678223	0.152588	-0.467773
375.0	9.847584	0.3343	-0.170176	0.008463	0.006692	0.001502	-0.685059	0.154785	-0.468018
376.0	9.865292	0.390252	-0.180977	0.008254	0.005918	-0.001301	-0.685059	0.156982	-0.46582
377.0	9.839768	0.358962	-0.217116	0.007143	0.005805	-5.6e-05	-0.682617	0.152344	-0.458496
378.0	9.820599	0.365742	-0.160306	0.008462	0.006694	0.001503	-0.682861	0.154785	-0.460938
379.0	9.844059	0.353744	-0.182058	0.003427	0.005702	-0.001021	-0.680664	0.156982	-0.461182
380.0	9.844762	0.368224	-0.1617	0.010714	0.008709	-8.2e-05	-0.685059	0.156982	-0.463379
381.0	9.824195	0.346193	-0.144327	0.009684	0.002223	0.000348	-0.682861	0.154785	-0.468018
382.0	9.847652	0.334207	-0.166428	0.008397	0.003122	-0.000306	-0.682861	0.156982	-0.46582
383.0	9.844093	0.353706	-0.180275	0.008429	0.004909	0.000599	-0.685059	0.156982	-0.468018
384.0	9.844103	0.353649	-0.179867	0.006	0.003907	0.000286	-0.678467	0.15918	-0.463379
385.0	9.864006	0.361081	-0.216007	0.007318	0.004796	0.001845	-0.683105	0.161377	-0.468262
386.0	9.839884	0.358259	-0.212956	0.006384	0.003671	0.004989	-0.676025	0.156982	-0.46582
387.0	9.867601	0.341138	-0.200987	0.003218	0.004927	-0.003825	-0.682861	0.156982	-0.470459
388.0	9.836337	0.377878	-0.226353	0.005999	0.003908	0.000287	-0.68042	0.152588	-0.465576
389.0	9.843472	0.338782	-0.197412	0.004744	0.006593	0.000537	-0.678467	0.156982	-0.468018
390.0	9.844167	0.353217	-0.177202	0.004712	0.004806	-0.000367	-0.682617	0.152344	-0.456299
391.0	9.816468	0.370307	-0.188452	0.005967	0.00212	-0.000617	-0.682617	0.152588	-0.465576
392.0	9.866954	0.326806	-0.218676	0.004857	0.002007	0.000628	-0.682617	0.152588	-0.465576
393.0	9.84418	0.353301	-0.176283	0.006964	0.006821	-0.001953	-0.682861	0.154785	-0.465576
394.0	9.819361	0.336471	-0.192831	0.008395	0.003125	-0.000303	-0.68042	0.154785	-0.45874
395.0	9.863421	0.346436	-0.231655	0.008427	0.004913	0.000601	-0.680664	0.15918	-0.46582
396.0	9.822939	0.316832	-0.177733	0.010854	0.005918	0.000916	-0.684814	0.150146	-0.465576
397.0	9.820073	0.350684	-0.171855	0.009712	0.004017	0.001257	-0.687256	0.154785	-0.470215
398.0	9.839315	0.343665	-0.227821	0.012078	0.001445	-0.000237	-0.6875	0.156982	-0.46582
399.0	9.842872	0.324151	-0.213481	0.012078	0.001446	-0.000237	-0.685303	0.163574	-0.470703
400.0	9.843547	0.338738	-0.193718	0.014298	0.001673	-0.002726	-0.689453	0.154541	-0.463379
401.0	9.83931	0.343971	-0.227545	0.010759	0.000556	-0.001795	-0.678223	0.152588	-0.467773
402.0	9.840664	0.372965	-0.188009	0.013249	0.005138	0.000327	-0.680664	0.156982	-0.46582
403.0	9.859905	0.366193	-0.24382	0.00801	0.003361	-0.005004	-0.685059	0.154785	-0.465576
404.0	9.864802	0.375916	-0.190031	0.01079	0.002346	-0.00089	-0.680908	0.161377	-0.461182
405.0	9.842199	0.310655	-0.23169	0.009358	0.006042	-0.002542	-0.678467	0.156982	-0.46582
406.0	9.86769	0.342284	-0.194528	0.010644	0.005146	-0.001886	-0.685059	0.152344	-0.460938
407.0	9.838659	0.330523	-0.244863	0.011785	0.007049	-0.002227	-0.685059	0.152588	-0.465576
408.0	9.838674	0.330643	-0.244078	0.009418	0.009622	-0.000734	-0.680664	0.154785	-0.463379
409.0	9.814543	0.328305	-0.240702	0.004533	0.005821	-0.002267	-0.678223	0.152588	-0.470215
410.0	9.865741	0.299361	-0.250437	0.010589	0.013315	-0.000171	-0.67627	0.161377	-0.46582
411.0	9.867106	0.32805	-0.209808	0.006177	0.014651	0.005708	-0.6875	0.15918	-0.468018
412.0	9.862938	0.33255	-0.242692	0.001407	0.006261	0.004269	-0.678223	0.154785	-0.465576
413.0	9.834629	0.334491	-0.273135	0.002784	0.010733	0.007635	-0.682861	0.156982	-0.468018
414.0	9.857521	0.307038	-0.313995	0.004275	0.010617	0.011095	-0.682861	0.156982	-0.46582
415.0	9.848545	0.301279	-0.40046	0.003338	0.009496	0.014239	-0.682861	0.156982	-0.468018
416.0	9.867905	0.292909	-0.456096	0.008215	0.00155	0.012256	-0.682861	0.156982	-0.463379
417.0	9.875023	0.25283	-0.427007	0.007781	0.00995	0.009265	-0.678467	0.156982	-0.461182
418.0	9.889864	0.188098	-0.349296	-0.000171	0.010171	0.016071	-0.685303	0.161377	-0.461182
419.0	9.946614	0.181378	-0.284944	-0.005306	0.025511	0.016965	-0.680664	0.154785	-0.468018
420.0	9.978558	0.157447	-0.236655	-0.007471	0.028872	0.021262	-0.685303	0.15918	-0.463379
421.0	9.982179	0.135312	-0.219139	-0.029782	0.035605	0.032495	-0.680664	0.15918	-0.46582
422.0	9.970541	0.161202	-0.297268	-0.05099	0.042468	0.042489	-0.680908	0.163574	-0.466064
423.0	9.965314	0.133231	-0.366137	-0.066766	0.042744	0.042654	-0.685303	0.161377	-0.4729
424.0	9.913109	0.129313	-0.390395	-0.072667	0.046038	0.045997	-0.685303	0.15918	-0.463379
425.0	9.8791	0.089384	-0.509573	-0.07997	0.054838	0.048603	-0.678467	0.156982	-0.468018
426.0	9.827675	0.099722	-0.513052	-0.083654	0.058375	0.04947	-0.683105	0.161377	-0.470459
427.0	9.7744	0.066776	-0.575086	-0.083739	0.066613	0.051236	-0.680664	0.15918	-0.468018
428.0	9.769573	0.038637	-0.641358	-0.091227	0.076466	0.051967	-0.680908	0.161377	-0.468262
429.0	9.740685	0.008229	-0.70467	-0.088839	0.077535	0.052328	-0.680664	0.15918	-0.475098
430.0	9.906692	0.005706	-0.522525	-0.089776	0.080071	0.057333	-0.680908	0.161377	-0.468262
431.0	9.778974	0.013655	-0.550263	-0.115223	0.083679	0.059867	-0.678711	0.165771	-0.470703
432.0	9.732283	0.032597	-0.497304	-0.129082	0.091758	0.056523	-0.678711	0.163574	-0.4729
433.0	9.653636	0.060343	-0.509494	-0.137925	0.089045	0.052138	-0.676514	0.163574	-0.475342
434.0	9.626081	0.059622	-0.53263	-0.148297	0.082896	0.042448	-0.676514	0.165771	-0.470703
435.0	9.630323	0.050783	-0.491054	-0.157815	0.075247	0.044069	-0.67627	0.161377	-0.470459
436.0	9.574189	0.039889	-0.567246	-0.160485	0.063632	0.038278	-0.681152	0.167969	-0.470703
437.0	9.596639	0.088159	-0.537883	-0.162639	0.058016	0.024581	-0.678467	0.161377	-0.4729
438.0	9.586848	0.131956	-0.594194	-0.168766	0.052494	0.023378	-0.678711	0.165771	-0.4729
439.0	9.529769	0.199857	-0.606534	-0.184784	0.045897	0.01988	-0.681152	0.170166	-0.475586
440.0	9.543683	0.23294	-0.686167	-0.204281	0.03364	0.017332	-0.678711	0.167969	-0.470703
441.0	9.594981	0.203388	-0.693292	-0.235837	0.029127	0.019647	-0.676514	0.167969	-0.473145
442.0	9.61624	0.225285	-0.706521	-0.244197	0.018916	0.021	-0.674316	0.170166	-0.468506
443.0	9.597468	0.154978	-0.714471	-0.263779	0.020412	0.023154	-0.676758	0.170166	-0.475586
444.0	9.580227	0.126165	-0.662679	-0.263695	0.015059	0.025214	-0.677002	0.178955	-0.471191
445.0	9.580346	0.125583	-0.661067	-0.273664	0.011532	0.024047	-0.672363	0.176758	-0.471191
446.0	9.559358	0.102517	-0.644067	-0.273415	0.006939	0.028931	-0.676758	0.172363	-0.473145
447.0	9.566739	0.088458	-0.575478	-0.267214	0.010754	0.034184	-0.677002	0.176758	-0.471191
448.0	9.522067	0.075214	-0.535935	-0.252196	0.015393	0.042944	-0.677002	0.178955	-0.466553
449.0	9.520714	0.132773	-0.486461	-0.230904	0.024486	0.054885	-0.677002	0.181152	-0.468994
450.0	9.473076	0.136711	-0.458258	-0.203227	0.045148	0.073828	-0.679443	0.181152	-0.468994
451.0	9.405999	0.156395	-0.35145	-0.170228	0.070857	0.100063	-0.67041	0.181152	-0.468994
452.0	9.35254	0.195951	-0.344669	-0.137829	0.112507	0.122689	-0.679443	0.181152	-0.47583
453.0	9.284043	0.170631	-0.292545	-0.099377	0.144358	0.140924	-0.672607	0.18335	-0.478271
454.0	9.312899	0.165937	-0.226317	-0.067041	0.15889	0.153975	-0.677246	0.185547	-0.468994
455.0	9.507917	0.181456	-0.207109	-0.048981	0.156443	0.168668	-0.677246	0.18335	-0.473633
456.0	9.931469	0.106031	-0.193298	-0.044758	0.144202	0.175294	-0.670654	0.185547	-0.478271
457.0	10.389597	-0.053471	-0.447357	-0.046137	0.137172	0.172806	-0.674805	0.181152	-0.471191
458.0	10.700934	-0.265549	-0.750465	-0.014191	0.137934	0.155276	-0.672607	0.18335	-0.48291
459.0	10.72626	-0.367083	-0.824201	0.045736	0.176476	0.145456	-0.672852	0.185547	-0.478271
460.0	10.52274	-0.31647	-0.84192	0.12961	0.209529	0.123952	-0.672852	0.187744	-0.480713
461.0	10.216267	-0.026352	-1.012692	0.188432	0.223407	0.109614	-0.666016	0.18335	-0.48291
462.0	9.985699	0.323747	-1.109322	0.223743	0.215001	0.10677	-0.666016	0.185791	-0.485352
463.0	9.938162	0.572087	-1.174251	0.224779	0.20443	0.104708	-0.668213	0.18335	-0.485352
464.0	9.851304	0.695421	-1.245564	0.200186	0.186196	0.101161	-0.668457	0.190186	-0.483154
465.0	9.870043	0.691685	-1.353058	0.175331	0.159071	0.087975	-0.657227	0.187988	-0.483154
466.0	9.939615	0.672697	-1.452532	0.149146	0.132005	0.071225	-0.668213	0.185791	-0.48999
467.0	9.964965	0.612053	-1.523656	0.130836	0.113996	0.042995	-0.665771	0.181152	-0.485107
468.0	10.036119	0.563698	-1.632934	0.120288	0.099225	0.023446	-0.661621	0.187988	-0.487793
469.0	10.061585	0.534826	-1.66574	0.105875	0.093785	0.002932	-0.659424	0.187988	-0.485352
470.0	10.116693	0.524967	-1.591805	0.106744	0.099275	-0.025983	-0.663574	0.183594	-0.487549
471.0	10.173741	0.483951	-1.523192	0.129604	0.115116	-0.050483	-0.663574	0.179199	-0.489746
472.0	10.131798	0.4853	-1.419839	0.173271	0.14862	-0.06543	-0.65918	0.183594	-0.485352
473.0	10.065718	0.485608	-1.311763	0.224389	0.188568	-0.072454	-0.661377	0.181396	-0.489746
474.0	9.931159	0.441066	-1.169197	0.270682	0.215644	-0.081143	-0.661377	0.181396	-0.489746
475.0	9.818521	0.390836	-1.079429	0.301305	0.247845	-0.080334	-0.654541	0.177002	-0.499023
476.0	9.654956	0.371041	-0.979293	0.322303	0.261479	-0.083928	-0.658936	0.179199	-0.499023
477.0	9.462598	0.375165	-0.925318	0.332554	0.278375	-0.079275	-0.647705	0.177002	-0.496582
478.0	9.338237	0.466647	-0.843238	0.32466	0.281035	-0.080021	-0.654541	0.177002	-0.499023
479.0	9.259365	0.610345	-0.738994	0.306177	0.275693	-0.07839	-0.654053	0.168213	-0.503174
480.0	9.251269	0.751172	-0.693107	0.285414	0.271914	-0.073451	-0.651855	0.166016	-0.510254
481.0	9.321957	0.838452	-0.608147	0.265971	0.267091	-0.067904	-0.649414	0.163818	-0.507813
482.0	9.341903	0.9274	-0.555884	0.254879	0.264469	-0.065206	-0.647217	0.166016	-0.503174
483.0	9.336709	0.99097	-0.576498	0.242297	0.268519	-0.065132	-0.64917	0.159424	-0.516846
484.0	9.406937	1.064041	-0.511074	0.237184	0.276221	-0.056233	-0.644775	0.163818	-0.51001
485.0	9.429493	1.104209	-0.482324	0.228999	0.292836	-0.057269	-0.642578	0.159424	-0.516846
486.0	9.43279	1.098234	-0.387599	0.208707	0.31911	-0.048244	-0.649414	0.161621	-0.512451
487.0	9.462768	1.059688	-0.295294	0.192981	0.352285	-0.038383	-0.640137	0.159424	-0.516846
488.0	9.419417	1.014745	-0.198434	0.172604	0.376846	-0.030345	-0.644775	0.159424	-0.516846
489.0	9.423381	0.97839	-0.13445	0.14748	0.392914	-0.028894	-0.638184	0.163818	-0.523926
490.0	9.379895	0.904	-0.195457	0.127306	0.398092	-0.037884	-0.633301	0.152832	-0.52124
491.0	9.329739	0.918244	-0.261734	0.126547	0.394834	-0.056404	-0.635498	0.155029	-0.530762
492.0	9.278867	0.948641	-0.309725	0.133415	0.383189	-0.074429	-0.640137	0.155029	-0.526123
493.0	9.199264	1.035489	-0.403111	0.110199	0.382826	-0.070546	-0.630859	0.148438	-0.532715
494.0	9.148342	1.088614	-0.624238	0.069658	0.366066	-0.066049	-0.633301	0.155029	-0.530762
495.0	9.079255	1.080995	-0.802787	0.034226	0.345406	-0.058807	-0.628662	0.150635	-0.532959
496.0	9.107146	1.086797	-0.894734	0.007659	0.316301	-0.052309	-0.624023	0.14624	-0.534912
497.0	9.201256	1.195122	-1.062406	-0.023259	0.279005	-0.045006	-0.624268	0.152832	-0.539795
498.0	9.294253	1.313007	-1.178683	-0.054269	0.247975	-0.027418	-0.628906	0.157227	-0.5354
499.0	9.435422	1.420609	-1.193136	-0.081833	0.219242	-0.017208	-0.621826	0.150635	-0.544434
500.0	9.540499	1.391506	-1.262327	-0.104895	0.198321	-0.003219	-0.621826	0.150635	-0.542236
501.0	9.762827	1.425802	-1.341231	-0.100596	0.158494	0.001114	-0.621826	0.150635	-0.542236
502.0	10.014489	1.384103	-1.363751	-0.093589	0.114565	0.010612	-0.626465	0.150635	-0.539795
503.0	10.205959	1.48257	-1.440883	-0.097733	0.078532	0.027727	-0.619385	0.148438	-0.537354
504.0	10.281198	1.524646	-1.58274	-0.091093	0.044725	0.049468	-0.61499	0.150635	-0.544434
505.0	10.335756	1.533648	-1.766691	-0.091371	0.027534	0.063836	-0.612793	0.152832	-0.535156
506.0	10.702845	1.235266	-0.803628	-0.185291	0.023233	0.069603	-0.61084	0.157471	-0.544678
507.0	12.776527	-0.226354	1.281774	-0.196962	0.103606	0.015633	-0.61084	0.155273	-0.540039
508.0	14.675612	-1.155925	-1.370347	0.149568	0.099995	-0.191241	-0.617432	0.152832	-0.537598
509.0	14.750662	-1.137009	-2.731916	0.461602	0.307457	-0.265925	-0.60376	0.148682	-0.546631
510.0	12.535369	-1.689462	-0.617391	0.845633	0.45831	-0.178871	-0.605713	0.141846	-0.544189
511.0	10.794879	-0.692669	-0.27326	0.775128	0.242381	-0.083864	-0.605713	0.144287	-0.548828
512.0	11.318746	-0.284162	0.49189	0.61207	0.127009	-0.077133	-0.603271	0.135254	-0.546143
513.0	11.904864	0.200844	0.073003	0.718426	0.112335	-0.10743	-0.605225	0.128662	-0.54834
514.0	11.796211	0.782829	0.21415	0.708975	0.172406	-0.095613	-0.605469	0.133057	-0.550781
515.0	11.601726	0.763581	1.404492	0.477831	0.228975	-0.00387	-0.60083	0.133301	-0.550781
516.0	11.834102	0.554381	2.140555	0.404426	0.167402	0.000616	-0.598633	0.131104	-0.557617
517.0	11.874983	0.297454	2.29107	0.417607	0.158091	-0.043172	-0.596191	0.128906	-0.555176
518.0	10.986879	0.140071	2.692292	0.350068	0.124291	-0.078025	-0.596191	0.126465	-0.54834
519.0	9.936447	0.18485	2.994608	0.239444	0.077999	-0.10788	-0.596191	0.128906	-0.552979
520.0	9.138593	0.515237	3.079912	0.16726	0.009466	-0.144341	-0.595947	0.124268	-0.550537
521.0	8.831635	0.904973	3.044668	0.166121	-0.012843	-0.157017	-0.59375	0.122314	-0.557373
522.0	8.974489	1.262909	2.899631	0.176795	-0.033661	-0.152337	-0.595947	0.12207	-0.552734
523.0	9.045859	1.391857	2.67888	0.180858	-0.06281	-0.149086	-0.591309	0.117676	-0.547852
524.0	8.945569	1.209889	2.6344	0.167158	-0.073715	-0.144564	-0.593506	0.117676	-0.554932
525.0	8.868701	0.842519	2.525514	0.159056	-0.079094	-0.145831	-0.593506	0.115479	-0.554688
526.0	9.098727	0.615532	2.370317	0.139793	-0.057168	-0.127474	-0.591064	0.115479	-0.550049
527.0	9.379874	0.37541	2.201087	0.104351	-0.040979	-0.099795	-0.591064	0.115479	-0.554688
528.0	9.668305	0.289965	2.028139	0.06243	-0.015626	-0.071479	-0.593506	0.119873	-0.552734
529.0	9.824107	0.228424	2.010628	0.011518	0.001968	-0.049016	-0.591064	0.115479	-0.55249
530.0	9.972557	0.275638	1.863954	-0.064211	0.018116	-0.023529	-0.593506	0.117676	-0.550293
531.0	9.947111	0.334718	1.714705	-0.136933	0.041669	-0.005374	-0.591064	0.111084	-0.542969
532.0	9.890812	0.438715	1.587043	-0.201571	0.049335	0.010262	-0.593262	0.113281	-0.547852
533.0	9.732355	0.583431	1.442548	-0.246857	0.049419	0.008089	-0.588867	0.115479	-0.550049
534.0	9.621445	0.710196	1.385681	-0.273105	0.048386	0.007689	-0.586914	0.120117	-0.550293
535.0	9.468913	0.738864	1.40674	-0.285036	0.046546	0.016373	-0.58252	0.124512	-0.552734
536.0	9.356435	0.653437	1.367423	-0.293942	0.034921	0.032434	-0.589111	0.124512	-0.548096
537.0	9.278852	0.506786	1.253032	-0.307219	0.016947	0.050322	-0.586914	0.122314	-0.554932
538.0	9.323951	0.375264	1.107612	-0.3041	0.003191	0.074878	-0.584717	0.124512	-0.550537
539.0	9.269548	0.268668	0.924354	-0.303597	-0.007075	0.108222	-0.587402	0.137695	-0.551025
540.0	9.291663	0.13429	0.739585	-0.283626	-0.023511	0.133874	-0.582764	0.133301	-0.553223
541.0	9.230611	0.030564	0.674637	-0.269233	-0.027531	0.158207	-0.578369	0.133301	-0.548584
542.0	9.101486	-0.090844	0.518304	-0.24701	-0.023087	0.182954	-0.583008	0.135498	-0.550781
543.0	8.919697	-0.183467	0.36244	-0.224054	-0.030255	0.197451	-0.578369	0.135498	-0.546143
544.0	8.858703	-0.286298	0.261383	-0.216933	-0.032792	0.212963	-0.583008	0.137695	-0.551025
545.0	8.788947	-0.324897	0.20185	-0.212077	-0.017865	0.223631	-0.57666	0.146484	-0.546631
546.0	8.669538	-0.326879	0.076234	-0.214419	-0.002605	0.234476	-0.580811	0.14209	-0.548828
547.0	8.622728	-0.344402	0.005284	-0.225478	0.018462	0.237328	-0.581055	0.146484	-0.55127
548.0	8.467366	-0.2944	0.027009	-0.230073	0.052544	0.234472	-0.58374	0.153076	-0.551514
549.0	8.41036	-0.253938	0.071763	-0.226291	0.087615	0.228551	-0.576904	0.153076	-0.544678
550.0	8.351771	-0.174558	0.089285	-0.227339	0.124196	0.218582	-0.581543	0.155273	-0.549316
551.0	8.268597	-0.119735	0.157624	-0.223957	0.145304	0.216783	-0.577148	0.157471	-0.549316
552.0	8.279	-0.003398	0.220952	-0.210928	0.143971	0.212587	-0.579102	0.155273	-0.551514
553.0	8.257149	0.089897	0.01843	-0.213679	0.124168	0.204103	-0.57251	0.159668	-0.551758
554.0	8.104622	0.107946	-0.359247	-0.227897	0.071923	0.190486	-0.57251	0.159668	-0.547119
555.0	8.092006	0.060713	-0.518295	-0.259702	-0.012767	0.175179	-0.572754	0.161865	-0.544922
556.0	8.201973	0.028873	-0.711087	-0.246716	-0.081091	0.161009	-0.577393	0.168457	-0.549805
557.0	8.461299	-0.08269	-0.861253	-0.211059	-0.143597	0.134197	-0.565918	0.164307	-0.544922
558.0	8.845529	-0.339423	-0.891415	-0.155091	-0.180593	0.117679	-0.575195	0.170654	-0.542969
559.0	9.358656	-0.467744	-0.764556	-0.102525	-0.220762	0.093469	-0.570801	0.170898	-0.545166
560.0	9.94866	-0.403257	-0.472362	-0.057177	-0.211779	0.079008	-0.572998	0.170898	-0.542969
561.0	10.417511	-0.350677	-0.677373	-0.009485	-0.225675	0.054396	-0.568604	0.173096	-0.542969
562.0	10.807538	-0.23311	-0.88034	0.043329	-0.247845	0.032899	-0.570801	0.173096	-0.542969
563.0	11.118321	-0.416861	-1.079908	0.083333	-0.280446	-0.002332	-0.570801	0.173096	-0.540771
564.0	11.406555	-0.585199	-1.388625	0.116459	-0.324756	-0.036201	-0.568604	0.170898	-0.533691
565.0	11.591325	-0.660448	-1.781685	0.144743	-0.373187	-0.067336	-0.570801	0.168457	-0.538086
566.0	11.646998	-0.66855	-2.209873	0.188052	-0.411875	-0.106927	-0.577393	0.168457	-0.528809
567.0	11.444198	-0.563464	-2.562785	0.229523	-0.441614	-0.148188	-0.575195	0.16626	-0.53125
568.0	11.826143	-0.699398	-2.189996	0.367138	-0.445296	-0.168752	-0.577148	0.159668	-0.526367
569.0	14.342394	0.092842	-0.14733	0.509494	-0.344153	-0.065136	-0.574951	0.164063	-0.521729
570.0	15.725388	0.465939	0.415068	0.281333	-0.313741	0.131788	-0.575195	0.16626	-0.519531
571.0	15.392528	0.796525	1.682197	-0.150186	-0.232973	0.271443	-0.577148	0.159668	-0.521484
572.0	13.541616	1.402583	1.748955	-0.312344	-0.100009	0.191344	-0.577637	0.170654	-0.521973
573.0	11.82486	1.507028	1.599891	-0.308832	-0.039415	0.081502	-0.575684	0.179443	-0.524658
574.0	10.243996	0.929136	2.097543	-0.186625	-0.065485	-0.019144	-0.575439	0.172852	-0.519775
575.0	9.524785	0.404114	1.744634	-0.039861	-0.0907	-0.083688	-0.575684	0.179443	-0.515381
576.0	9.616268	-0.263787	2.175182	0.159804	-0.026111	-0.083284	-0.577881	0.177246	-0.517578
577.0	10.391781	-0.756125	3.980856	0.373825	0.138687	0.028363	-0.575195	0.170654	-0.521973
578.0	10.505307	-1.49593	4.462153	0.360127	0.081641	0.152016	-0.575684	0.179443	-0.524658
579.0	9.527793	-1.745815	3.049992	0.303024	0.000449	0.185234	-0.570801	0.172852	-0.519775
580.0	9.049199	-1.430123	2.081129	0.318677	-0.048481	0.175796	-0.571045	0.17749	-0.524658
581.0	8.943446	-1.295951	1.835986	0.317117	-0.055244	0.149776	-0.568604	0.175049	-0.519775
582.0	9.143591	-1.366851	1.738754	0.269213	-0.112671	0.109574	-0.568604	0.172852	-0.517578
583.0	9.961455	-1.546386	1.88428	0.252505	-0.172634	0.070338	-0.571045	0.175049	-0.522217
584.0	10.550777	-1.546635	1.870295	0.245615	-0.164369	0.032496	-0.575684	0.179443	-0.517578
585.0	10.633837	-1.235287	1.610907	0.25843	-0.1406	-0.016136	-0.571045	0.177246	-0.517578
586.0	10.501427	-0.59781	1.298857	0.261277	-0.099125	-0.053884	-0.575684	0.181641	-0.513184
587.0	10.341592	0.060848	1.130179	0.251659	-0.032416	-0.074825	-0.573486	0.179443	-0.517578
588.0	10.019194	0.547455	1.036774	0.261261	0.033304	-0.087028	-0.575439	0.175049	-0.510498
589.0	9.566938	0.732202	1.129374	0.285959	0.111554	-0.094851	-0.575439	0.172852	-0.517334
590.0	9.172299	0.763148	1.039659	0.306572	0.170385	-0.087959	-0.568604	0.172852	-0.515137
591.0	8.904848	0.709936	0.997794	0.318178	0.209531	-0.080661	-0.573242	0.172852	-0.519775
592.0	8.734918	0.667804	0.889268	0.335061	0.224972	-0.086837	-0.566406	0.173096	-0.522217
593.0	8.563024	0.654745	0.852138	0.353664	0.220276	-0.10113	-0.568604	0.170654	-0.524414
594.0	8.465288	0.626735	0.86478	0.350966	0.209335	-0.127524	-0.568604	0.175049	-0.519775
595.0	8.386354	0.691638	0.831071	0.338711	0.20254	-0.14952	-0.563721	0.164063	-0.521729
596.0	8.285097	0.719236	0.828145	0.305186	0.196054	-0.168781	-0.568359	0.168457	-0.53125
597.0	8.206282	0.788224	0.758329	0.257261	0.19609	-0.189698	-0.561523	0.164063	-0.526367
598.0	8.128503	0.839069	0.70444	0.202496	0.194464	-0.197105	-0.561768	0.168701	-0.53125
599.0	8.079277	0.840774	0.630665	0.147795	0.193615	-0.201814	-0.561523	0.166504	-0.528809
600.0	8.02715	0.896595	0.508111	0.089874	0.186465	-0.205796	-0.561523	0.162109	-0.531006
601.0	8.026293	0.941419	0.333863	0.042403	0.185924	-0.203362	-0.559082	0.159668	-0.523926
602.0	7.926279	0.991816	0.210463	-0.008731	0.188923	-0.19579	-0.559326	0.166504	-0.533447
603.0	7.736678	0.925845	0.14836	-0.073136	0.197623	-0.184431	-0.552734	0.168701	-0.538086
604.0	7.499947	0.855622	0.050682	-0.120808	0.203814	-0.157751	-0.557129	0.166504	-0.53125
605.0	7.333965	0.823986	-0.04406	-0.149589	0.185047	-0.143565	-0.554932	0.166504	-0.53125
606.0	7.310381	0.836529	-0.099939	-0.168367	0.155283	-0.139127	-0.552734	0.168701	-0.526611
607.0	7.524771	0.921504	-0.129476	-0.204662	0.120102	-0.147764	-0.550293	0.166504	-0.538086
608.0	7.742056	0.973678	-0.163394	-0.230533	0.067118	-0.157417	-0.546143	0.173096	-0.533691
609.0	8.028494	1.109723	-0.296513	-0.236818	0.025648	-0.163168	-0.552979	0.173096	-0.53833
610.0	8.299226	1.118971	-0.35519	-0.235832	-0.01728	-0.157791	-0.550537	0.173096	-0.526855
611.0	8.644292	1.182267	-0.585058	-0.2354	-0.070253	-0.141605	-0.54834	0.173096	-0.531494
612.0	9.156947	1.038925	-0.848808	-0.245898	-0.139882	-0.12592	-0.54834	0.170898	-0.529053
613.0	9.742939	0.885622	-1.102617	-0.249397	-0.207766	-0.1143	-0.550781	0.175293	-0.524414
614.0	10.392283	0.758655	-1.154536	-0.221322	-0.266941	-0.107283	-0.552979	0.17749	-0.526855
615.0	11.030882	0.51671	-1.311894	-0.173203	-0.300903	-0.096026	-0.546387	0.181885	-0.531738
616.0	11.501802	0.272062	-1.65292	-0.142997	-0.311804	-0.083544	-0.551025	0.184082	-0.522461
617.0	11.682071	0.20232	-1.953978	-0.097798	-0.334295	-0.069522	-0.553467	0.186279	-0.515625
618.0	11.646756	0.27056	-2.110605	-0.070499	-0.3562	-0.056274	-0.548828	0.186279	-0.518066
619.0	11.816192	0.352675	-1.397596	-0.076531	-0.332154	-0.033108	-0.551025	0.181885	-0.513184
620.0	12.95125	-0.197068	0.297512	-0.12681	-0.157243	-0.036586	-0.548828	0.186279	-0.513428
621.0	13.874994	-1.177782	-0.625062	-0.09755	-0.17878	-0.12706	-0.553467	0.188477	-0.510986
622.0	15.109987	-1.646282	-1.081923	-0.042533	-0.262091	-0.221935	-0.553467	0.186279	-0.515625
623.0	15.316158	-2.474406	0.477427	0.343838	0.092479	-0.30504	-0.549316	0.195068	-0.51123
624.0	13.628977	-1.902429	2.264135	0.734248	0.106133	-0.359459	-0.551025	0.184082	-0.506348
625.0	11.740673	-0.433135	3.655683	0.820503	0.011987	-0.344259	-0.548584	0.179688	-0.517822
626.0	10.099745	-0.254042	4.189439	0.530232	0.060105	-0.280327	-0.552979	0.175293	-0.512939
627.0	9.49061	0.057143	2.464313	0.405277	0.029275	-0.296277	-0.548584	0.17749	-0.517578
628.0	9.570211	1.578456	3.161821	0.37545	0.053138	-0.268296	-0.548584	0.17749	-0.52002
629.0	10.44899	2.543351	4.177713	0.459914	-0.006445	-0.242614	-0.550781	0.175293	-0.510498
630.0	10.848771	3.194721	1.830262	0.356715	0.001347	-0.257979	-0.543701	0.173096	-0.517578
631.0	10.987862	3.430838	1.590607	0.074296	-0.018209	-0.240617	-0.546387	0.179688	-0.515381
632.0	11.240423	3.308322	2.511822	0.064419	-0.027048	-0.228921	-0.553223	0.179688	-0.517822
633.0	11.817151	2.672616	2.389692	0.097107	0.004675	-0.246519	-0.546143	0.173096	-0.510498
634.0	12.204878	1.844053	1.794756	0.060311	0.005542	-0.243976	-0.552979	0.17749	-0.517578
635.0	12.159058	1.479293	1.519149	0.032146	0.040174	-0.227917	-0.54834	0.175293	-0.517578
636.0	11.771249	1.243492	1.841103	0.043134	0.064297	-0.191577	-0.54834	0.173096	-0.517578
637.0	11.352625	1.057534	1.97821	0.046091	0.092763	-0.135363	-0.543945	0.175293	-0.524414
638.0	11.10087	0.908259	2.069232	-0.002774	0.131634	-0.086124	-0.541504	0.173096	-0.515137
639.0	10.953865	0.725188	1.971605	-0.050036	0.139081	-0.062631	-0.541748	0.17749	-0.522217
640.0	10.606079	0.556028	1.994983	-0.098242	0.139802	-0.048017	-0.546143	0.17749	-0.522217
641.0	10.056536	0.431602	1.843856	-0.136614	0.106369	-0.027486	-0.541992	0.181885	-0.529297
642.0	9.611065	0.292935	1.514771	-0.171576	0.061421	-0.000343	-0.544189	0.184082	-0.520264
643.0	9.279655	0.219822	1.202993	-0.211386	0.037114	0.039584	-0.541992	0.186279	-0.524902
644.0	8.908453	0.235618	1.031186	-0.213052	0.009534	0.081808	-0.544189	0.184082	-0.522461
645.0	8.568837	0.378556	0.812272	-0.20866	-0.022066	0.118522	-0.539795	0.184082	-0.5271
646.0	8.198044	0.386277	0.705275	-0.205316	-0.036496	0.167661	-0.549072	0.190674	-0.522705
647.0	7.957101	0.332487	0.733991	-0.186976	-0.029636	0.21887	-0.540039	0.192871	-0.522949
648.0	7.683984	0.355661	0.52538	-0.162453	-0.029612	0.260956	-0.540283	0.197266	-0.522949
649.0	7.390641	0.332341	0.452131	-0.145092	-0.034776	0.286657	-0.533691	0.199707	-0.530029
650.0	7.269218	0.115263	0.506501	-0.116403	-0.018902	0.303808	-0.547119	0.199463	-0.523193
651.0	7.272925	-0.149979	0.750318	-0.094937	0.015728	0.321323	-0.53833	0.206299	-0.528076
652.0	7.205078	-0.434566	0.873951	-0.053477	0.065579	0.3216	-0.542969	0.208496	-0.528076
653.0	7.125747	-0.587882	0.592913	-0.000378	0.077926	0.299965	-0.538574	0.208496	-0.525879
654.0	7.119186	-0.758934	0.501573	0.044799	0.062276	0.261122	-0.536377	0.210693	-0.530518
655.0	7.048514	-0.999828	0.334823	0.13122	0.034774	0.228075	-0.534424	0.217285	-0.526123
656.0	6.937877	-1.068342	-0.118278	0.237898	-0.054197	0.185955	-0.536621	0.215088	-0.52832
657.0	7.023148	-0.95206	-0.355775	0.289839	-0.139889	0.155891	-0.543457	0.217285	-0.52832
658.0	7.090479	-0.91702	-0.430495	0.292228	-0.188582	0.141066	-0.539063	0.219482	-0.533203
659.0	7.4479	-0.819925	-0.729122	0.266635	-0.240252	0.14445	-0.534424	0.219482	-0.521484
660.0	7.96984	-0.671893	-1.030783	0.259688	-0.292688	0.135377	-0.538818	0.217285	-0.532959
661.0	8.751476	-0.454711	-1.145206	0.271792	-0.307045	0.128698	-0.541016	0.217285	-0.52832
662.0	9.747556	0.044041	-1.23754	0.332154	-0.329733	0.097169	-0.536621	0.217285	-0.52832
663.0	10.656924	0.667404	-1.231408	0.395938	-0.331442	0.067673	-0.54126	0.219482	-0.528564
664.0	11.054746	1.040724	-1.118539	0.420372	-0.299392	0.051536	-0.54126	0.219482	-0.521484
665.0	11.070884	1.298707	-1.303002	0.407068	-0.309136	0.041682	-0.538818	0.215088	-0.52124
666.0	10.800473	1.219007	-1.669754	0.323442	-0.339155	0.047466	-0.538818	0.217285	-0.521484
667.0	10.554639	1.079123	-2.245786	0.173925	-0.373782	0.041665	-0.541016	0.217285	-0.523682
668.0	10.207846	0.718146	-2.653194	0.03187	-0.418341	0.031654	-0.543457	0.217285	-0.523682
669.0	10.268115	0.254207	-2.731843	0.01513	-0.499789	0.026491	-0.545654	0.217285	-0.523682
670.0	13.594988	0.077744	-0.071165	0.186775	-0.35807	0.120101	-0.547852	0.219482	-0.519287
671.0	17.337978	0.97381	2.392092	0.256546	-0.19128	0.245584	-0.543457	0.22168	-0.519287
672.0	16.496664	1.780766	2.307254	-0.041541	-0.160346	0.332544	-0.548096	0.223877	-0.519287
673.0	13.70841	2.313876	2.588992	-0.393486	-0.006405	0.314476	-0.543701	0.228271	-0.521729
674.0	11.0503	2.498293	2.102124	-0.533012	0.03103	0.291116	-0.552979	0.232666	-0.529053
675.0	8.67118	1.84302	1.733836	-0.479422	0.015468	0.214005	-0.543945	0.232666	-0.517334
676.0	10.261234	1.537905	2.244878	-0.193011	0.048713	0.225182	-0.553223	0.237061	-0.522217
677.0	12.322018	0.046224	5.222425	-0.036739	0.174386	0.346644	-0.544434	0.241455	-0.522217
678.0	10.657895	-1.177476	3.948796	-0.22143	0.070834	0.402983	-0.546387	0.239258	-0.517578
679.0	9.75289	-1.335203	1.389527	-0.262105	-0.188982	0.34896	-0.546875	0.250244	-0.518066
680.0	10.216672	-1.274572	1.601568	-0.066356	-0.128179	0.267843	-0.546875	0.248047	-0.524902
681.0	11.219424	-1.828937	1.917564	0.189609	0.02652	0.192034	-0.546875	0.250244	-0.527344
682.0	12.06445	-2.391083	1.958161	0.2927	0.031277	0.142405	-0.546875	0.248047	-0.529541
683.0	12.292406	-2.619965	1.809707	0.252528	-0.026668	0.094636	-0.549072	0.248047	-0.524902
684.0	11.761096	-2.05728	1.037262	0.211567	-0.077601	0.02649	-0.553467	0.241455	-0.526855
685.0	11.282273	-0.950618	0.728432	0.251129	-0.041419	-0.027329	-0.546387	0.239258	-0.529297
686.0	10.910239	0.156782	0.693979	0.312735	0.042148	-0.048331	-0.55127	0.243652	-0.533936
687.0	10.566119	0.86755	0.699805	0.337838	0.106934	-0.045812	-0.55127	0.24585	-0.531738
688.0	10.062954	1.160617	0.960528	0.343612	0.164777	-0.025785	-0.551025	0.241455	-0.538574
689.0	9.490471	1.231579	0.891866	0.35075	0.211458	-0.007179	-0.548828	0.239258	-0.529297
690.0	8.982639	1.113474	0.905066	0.343518	0.245024	-0.00792	-0.548828	0.239258	-0.533936
691.0	8.529423	0.96264	1.05556	0.323273	0.270396	-0.020044	-0.550781	0.234863	-0.536133
692.0	8.243059	0.825955	1.099081	0.284963	0.288626	-0.01599	-0.548584	0.234863	-0.53833
693.0	7.880229	0.718845	1.109954	0.241223	0.279801	-0.029122	-0.553223	0.237061	-0.53833
694.0	7.589865	0.617296	1.083015	0.19778	0.270032	-0.035667	-0.548584	0.232666	-0.545166
695.0	7.316574	0.604439	0.967942	0.164864	0.250054	-0.059646	-0.544189	0.237061	-0.550049
696.0	7.071322	0.576189	0.970726	0.130931	0.230888	-0.07976	-0.551025	0.239258	-0.54541
697.0	6.970422	0.576781	0.917657	0.094869	0.206466	-0.102029	-0.546631	0.239258	-0.547852
698.0	6.869177	0.577941	0.793874	0.050758	0.188242	-0.111038	-0.55542	0.237061	-0.552246
699.0	6.984731	0.647179	0.787789	0.006659	0.167811	-0.125664	-0.539795	0.237061	-0.552246
700.0	7.150198	0.703444	0.763014	-0.025144	0.140423	-0.124736	-0.546387	0.237061	-0.559326
701.0	7.362462	0.781048	0.616298	-0.051396	0.123343	-0.120815	-0.555176	0.232666	-0.559082
702.0	7.482705	0.78259	0.365733	-0.074114	0.10665	-0.115643	-0.544189	0.234863	-0.554688
703.0	7.578439	0.798958	0.269576	-0.090684	0.082858	-0.110042	-0.548584	0.237061	-0.556885
704.0	7.645461	0.866102	0.051869	-0.074234	0.074795	-0.120728	-0.550781	0.232666	-0.556885
705.0	7.596459	0.85644	-0.202081	-0.061676	0.040672	-0.146899	-0.548584	0.234863	-0.561523
706.0	7.637711	0.942271	-0.304109	-0.061927	-0.022963	-0.173473	-0.548584	0.232666	-0.556885
707.0	7.680767	0.99683	-0.583453	-0.08329	-0.080839	-0.19025	-0.550781	0.232666	-0.561523
708.0	7.719106	1.088718	-0.971383	-0.122132	-0.168637	-0.207517	-0.552734	0.226074	-0.561279
709.0	8.02293	1.20581	-1.297198	-0.165846	-0.238594	-0.193801	-0.553223	0.237061	-0.559326
710.0	8.629992	1.211934	-1.460496	-0.195532	-0.307665	-0.177678	-0.550781	0.232666	-0.556885
711.0	9.627705	0.961235	-1.62321	-0.233883	-0.360759	-0.148768	-0.552979	0.232666	-0.554443
712.0	10.530801	0.928516	-1.775731	-0.266475	-0.389928	-0.126287	-0.555176	0.232666	-0.552246
713.0	11.313566	0.883739	-1.830082	-0.249932	-0.37146	-0.117792	-0.560059	0.237061	-0.550049
714.0	11.578967	1.118188	-1.885923	-0.185641	-0.311491	-0.104802	-0.566895	0.241455	-0.547852
715.0	11.56588	1.199834	-1.915184	-0.151769	-0.255938	-0.06338	-0.564453	0.234863	-0.542969
716.0	11.397965	0.878109	-1.909385	-0.142627	-0.218674	-0.017185	-0.562012	0.234863	-0.542969
717.0	10.904821	0.576799	-2.07884	-0.1506	-0.176853	0.012788	-0.564453	0.239258	-0.550049
718.0	10.692746	0.660679	-1.411525	-0.210098	-0.123705	-0.004582	-0.5625	0.241455	-0.543213
719.0	11.998137	-0.17175	0.083242	-0.331288	-0.096221	-0.063664	-0.566895	0.243652	-0.541016
720.0	13.412501	-1.017757	-1.456204	-0.303157	-0.346297	-0.222601	-0.569336	0.243652	-0.543213
721.0	15.506182	-1.670726	-1.257385	-0.059089	-0.262753	-0.384344	-0.57373	0.243652	-0.536377
722.0	14.338957	-2.383864	1.345114	0.492648	0.063004	-0.465542	-0.575439	0.230225	-0.545166
723.0	12.659304	-1.512468	3.276296	0.834786	-0.115482	-0.448929	-0.577637	0.228027	-0.538086
724.0	10.975159	-0.619445	4.606013	0.66792	-0.019599	-0.35615	-0.582031	0.22583	-0.547363
725.0	10.646156	-1.380027	4.392094	0.241117	0.113719	-0.305401	-0.570801	0.223633	-0.544922
726.0	12.54465	0.18052	3.608635	0.246631	0.162927	-0.351809	-0.572998	0.22583	-0.549561
727.0	13.260509	1.534532	4.337908	0.363468	0.190472	-0.317341	-0.574951	0.219238	-0.556396
728.0	13.21689	2.480088	3.237708	0.304765	0.165884	-0.26062	-0.581543	0.214844	-0.556152
729.0	11.723871	2.836871	1.455592	-0.021487	0.116395	-0.200093	-0.579102	0.210449	-0.553711
730.0	10.90173	2.880707	2.258026	-0.189287	0.097094	-0.149223	-0.581787	0.219238	-0.553955
731.0	11.220071	2.850917	2.207227	-0.083018	0.044503	-0.14773	-0.574951	0.219238	-0.556396
732.0	11.706822	2.389925	0.881996	-0.099135	0.009949	-0.187278	-0.574951	0.214844	-0.556152
733.0	11.833505	2.027986	1.038855	-0.159484	0.074084	-0.212886	-0.577148	0.217041	-0.558594
734.0	11.460254	1.783795	1.510531	-0.128718	0.102489	-0.189443	-0.583984	0.219238	-0.551758
735.0	11.068365	1.397618	1.498119	-0.096792	0.110665	-0.142839	-0.576904	0.212646	-0.553711
736.0	10.752059	0.872331	1.688879	-0.096999	0.124741	-0.071189	-0.579346	0.217041	-0.558594
737.0	10.293515	0.427431	1.607082	-0.088705	0.124612	-0.014088	-0.581787	0.217041	-0.556152
738.0	9.749952	-0.12154	1.472031	-0.110789	0.11368	0.030375	-0.581787	0.219238	-0.558594
739.0	9.26725	-0.578564	1.349963	-0.145606	0.093421	0.065547	-0.579346	0.217041	-0.560791
740.0	8.95577	-0.841453	1.325597	-0.165547	0.063621	0.105431	-0.579346	0.217041	-0.563232
741.0	8.730444	-0.865527	1.178761	-0.150218	0.044412	0.135418	-0.582031	0.228027	-0.563721
742.0	8.558158	-0.759093	0.910388	-0.119517	0.025251	0.168335	-0.582031	0.223633	-0.558838
743.0	8.356105	-0.431508	0.663058	-0.089587	0.009917	0.188816	-0.584229	0.22583	-0.561279
744.0	8.026555	-0.228846	0.519622	-0.076515	0.002963	0.213541	-0.579834	0.22583	-0.563477
745.0	7.75396	-0.057306	0.512914	-0.053687	0.013613	0.24658	-0.58667	0.228027	-0.563721
746.0	7.661909	0.035649	0.363381	-0.036956	0.025504	0.276868	-0.582275	0.232422	-0.561523
747.0	7.601337	0.094032	0.317324	-0.028179	0.045207	0.296694	-0.584473	0.228027	-0.565918
748.0	7.505852	0.028141	0.183619	-0.011872	0.041887	0.2923	-0.582275	0.232422	-0.561523
749.0	7.579763	-0.015624	0.047779	0.013746	0.074347	0.277024	-0.577881	0.232666	-0.563721
750.0	7.795387	0.008392	0.035122	0.041768	0.135949	0.241233	-0.580322	0.237061	-0.568604
751.0	7.852906	-0.088205	-0.006298	0.061779	0.199459	0.212429	-0.582275	0.232422	-0.566162
752.0	7.716249	-0.205332	-0.04194	0.070921	0.206705	0.185826	-0.575928	0.241455	-0.566406
753.0	7.558804	-0.342349	0.04179	0.087154	0.173179	0.16279	-0.575928	0.239258	-0.571045
754.0	7.388331	-0.387088	-0.101047	0.133309	0.108235	0.139634	-0.578125	0.239258	-0.571045
755.0	7.359008	-0.378559	-0.319793	0.203496	0.011231	0.117518	-0.580322	0.237061	-0.568604
756.0	7.623348	-0.341038	-0.340371	0.279442	-0.05587	0.110376	-0.577881	0.232666	-0.568359
757.0	7.888796	-0.320746	-0.416904	0.301869	-0.08458	0.111666	-0.577881	0.234863	-0.573242
758.0	8.183801	-0.382524	-0.75755	0.255332	-0.140817	0.112779	-0.578125	0.237061	-0.570801
759.0	8.556299	-0.247843	-0.982516	0.18744	-0.19295	0.111648	-0.577881	0.234863	-0.568604
760.0	9.055431	0.07376	-1.215172	0.162967	-0.238265	0.086398	-0.580078	0.230469	-0.575195
761.0	9.59836	0.453488	-1.370041	0.184647	-0.286949	0.0373	-0.584961	0.239258	-0.568604
762.0	10.194306	0.841475	-1.292303	0.214149	-0.30663	-0.011665	-0.586914	0.232422	-0.568359
763.0	10.646716	1.166892	-1.338708	0.225103	-0.320486	-0.043557	-0.58252	0.237061	-0.570801
764.0	10.772871	1.269414	-1.568805	0.16819	-0.31054	-0.044453	-0.589111	0.230225	-0.565918
765.0	10.441779	1.115934	-2.269023	0.054978	-0.369891	-0.042526	-0.589111	0.234619	-0.568604
766.0	10.054631	0.820655	-2.729047	-0.048177	-0.464387	-0.059948	-0.59375	0.234619	-0.563965
767.0	9.636522	0.386582	-2.983928	-0.045728	-0.521354	-0.077785	-0.602539	0.230225	-0.554443
768.0	9.423968	-0.164403	-3.248965	0.085117	-0.559212	-0.104022	-0.602539	0.228027	-0.561279
769.0	10.369688	-1.134456	-1.99149	0.396122	-0.442408	-0.082374	-0.602295	0.22583	-0.556641
770.0	14.427739	-0.175947	1.175022	0.802345	-0.315406	0.015944	-0.604492	0.223633	-0.554199
771.0	17.014194	0.479639	1.054479	0.541511	-0.467409	0.154243	-0.609131	0.223633	-0.556396
772.0	15.439981	1.301892	3.416724	-0.094885	-0.175815	0.296704	-0.611328	0.223633	-0.558838
773.0	13.254313	2.015165	3.751563	-0.351125	-0.101324	0.317306	-0.609131	0.22583	-0.561279
774.0	10.45478	2.101411	4.284486	-0.368595	0.076505	0.316921	-0.611572	0.232422	-0.552246
775.0	9.350587	1.945394	3.367343	-0.139555	0.076199	0.305821	-0.600342	0.232422	-0.561523
776.0	12.204079	1.590299	4.446862	0.033223	0.147101	0.425095	-0.60498	0.234619	-0.559082
777.0	11.481012	-0.535076	6.129189	-0.172131	0.230949	0.515194	-0.603027	0.241211	-0.564209
778.0	8.413314	-1.356797	2.075364	-0.254835	-0.068046	0.468923	-0.609619	0.239014	-0.559326
779.0	8.706128	-1.132723	0.068585	-0.345686	-0.193113	0.365632	-0.609863	0.245605	-0.557373
780.0	9.896768	-1.173706	0.664035	-0.252643	-0.184351	0.222171	-0.612061	0.245605	-0.552734
781.0	11.650704	-1.757355	1.329089	-0.066837	-0.094718	0.120618	-0.609863	0.245605	-0.552734
782.0	13.060502	-2.530123	1.402861	0.12381	-0.019885	0.059461	-0.610107	0.25	-0.552734
783.0	12.952353	-2.416967	0.283484	0.148753	-0.059535	0.025425	-0.60791	0.25	-0.559814
784.0	11.810411	-1.462115	-0.340983	0.113547	-0.087117	0.011028	-0.607666	0.243408	-0.55249
785.0	11.074458	-0.236229	-0.473742	0.150543	-0.018256	0.010805	-0.612061	0.243408	-0.545654
786.0	10.644596	0.59554	-0.1352	0.185725	0.066096	0.028695	-0.612061	0.245605	-0.548096
787.0	10.494073	0.876087	0.487219	0.171651	0.122984	0.055123	-0.607422	0.241211	-0.55249
788.0	10.178961	1.05719	0.76237	0.121734	0.170612	0.060712	-0.614258	0.243408	-0.561768
789.0	9.702586	1.105456	0.687857	0.075819	0.182755	0.035149	-0.614014	0.234619	-0.556885
790.0	9.211017	1.069535	0.667371	0.029055	0.203641	-0.005514	-0.614014	0.236816	-0.561523
791.0	8.756869	0.919057	0.733901	-0.000704	0.25103	-0.044315	-0.612061	0.241211	-0.561768
792.0	8.424681	0.832053	0.881232	-0.034523	0.292924	-0.07122	-0.614502	0.245605	-0.562012
793.0	8.30495	0.744066	0.89707	-0.075234	0.312175	-0.107141	-0.614258	0.239014	-0.557129
794.0	8.004146	0.731048	0.835441	-0.14586	0.317011	-0.140792	-0.614014	0.236816	-0.568604
795.0	7.714886	0.840995	0.684213	-0.188942	0.30636	-0.166819	-0.611816	0.239014	-0.566406
796.0	7.465243	0.782005	0.564667	-0.236237	0.287964	-0.1866	-0.611816	0.236816	-0.570801
797.0	7.313142	0.713263	0.386451	-0.280099	0.266109	-0.179981	-0.605225	0.241211	-0.573486
798.0	7.390152	0.610195	0.318074	-0.333342	0.25008	-0.168341	-0.614014	0.236816	-0.573242
799.0	7.390734	0.569073	0.286434	-0.375951	0.244278	-0.14237	-0.609619	0.239014	-0.568604
800.0	7.371181	0.473427	0.23694	-0.388568	0.230813	-0.134725	-0.609619	0.239014	-0.566406
801.0	7.360703	0.535573	0.100481	-0.37997	0.210897	-0.130537	-0.609863	0.241211	-0.575684
802.0	7.309033	0.525248	-0.002785	-0.371146	0.180221	-0.133273	-0.611572	0.232422	-0.577637
803.0	7.349013	0.593227	-0.109851	-0.356383	0.148098	-0.138038	-0.609863	0.243408	-0.575684
804.0	7.294078	0.604426	-0.304282	-0.348439	0.104472	-0.152241	-0.616211	0.234619	-0.573242
805.0	7.344568	0.55615	-0.437622	-0.350428	0.049281	-0.162947	-0.616211	0.234619	-0.570801
806.0	7.344469	0.522588	-0.590749	-0.335835	-0.000308	-0.164807	-0.616211	0.236816	-0.575439
807.0	7.494256	0.698064	-0.831566	-0.30724	-0.048582	-0.171338	-0.616211	0.234619	-0.575439
808.0	7.722585	0.858827	-0.887037	-0.29341	-0.074379	-0.170068	-0.61377	0.228027	-0.572998
809.0	8.160224	0.868817	-0.99002	-0.320339	-0.100373	-0.154617	-0.611816	0.239014	-0.575684
810.0	8.696352	0.827928	-1.274163	-0.36779	-0.140743	-0.13535	-0.611816	0.234619	-0.570801
811.0	9.472659	0.875182	-1.394371	-0.366	-0.184711	-0.128849	-0.621094	0.241211	-0.568604
812.0	10.336851	0.806238	-1.408881	-0.322108	-0.223588	-0.128777	-0.623047	0.236816	-0.563965
813.0	11.020229	0.77937	-1.57814	-0.300457	-0.243824	-0.101965	-0.627686	0.236816	-0.563965
814.0	11.363857	0.67086	-1.865359	-0.304897	-0.255226	-0.067868	-0.629639	0.230225	-0.565918
815.0	11.289449	0.508575	-2.297102	-0.29106	-0.24786	-0.03081	-0.63208	0.239014	-0.561768
816.0	10.970405	0.561741	-2.704485	-0.263025	-0.226777	-0.010655	-0.63208	0.236816	-0.554688
817.0	10.561391	0.864916	-2.811427	-0.264338	-0.209115	-0.016873	-0.63208	0.234619	-0.561523
818.0	10.232962	1.453181	-2.60328	-0.310909	-0.181864	-0.044039	-0.629883	0.239014	-0.547852
819.0	11.507752	0.792181	-0.156797	-0.475023	-0.096405	-0.061955	-0.636475	0.236572	-0.550049
820.0	12.833092	-0.413738	-2.127446	-0.444958	-0.431591	-0.181401	-0.645752	0.23877	-0.552246
821.0	16.19219	-1.444562	-2.141819	-0.198461	-0.421565	-0.326691	-0.645264	0.22998	-0.547363
822.0	15.236372	-2.871306	1.407727	0.418801	-0.035609	-0.38666	-0.647461	0.227783	-0.552002
823.0	13.230873	-2.397848	3.305222	0.760079	-0.219433	-0.372362	-0.64502	0.223389	-0.547119
824.0	11.277498	-0.793685	2.700228	0.679157	-0.161903	-0.317024	-0.651367	0.2146	-0.553711
825.0	10.209142	-1.193486	3.260281	0.250003	0.078067	-0.25624	-0.651367	0.212402	-0.553711
826.0	11.239575	-0.768207	4.098139	0.234066	0.137425	-0.291542	-0.651367	0.210205	-0.55127
827.0	12.012469	0.748769	4.720856	0.268746	0.200343	-0.284273	-0.646729	0.208008	-0.558105
828.0	13.030181	1.633256	3.891793	0.143838	0.155976	-0.223783	-0.657715	0.203613	-0.553467
829.0	13.181741	2.400217	1.720913	0.004025	0.138044	-0.175557	-0.651123	0.203613	-0.555664
830.0	12.362582	2.675081	1.449958	-0.167486	0.08849	-0.112482	-0.655518	0.205811	-0.553467
831.0	11.802752	2.469988	2.104089	-0.064895	0.041886	-0.103343	-0.652832	0.194824	-0.55542
832.0	11.899316	2.121537	1.095897	0.029515	-0.003135	-0.157042	-0.659668	0.196777	-0.557861
833.0	12.184072	1.870893	0.148822	-0.014743	0.010081	-0.192561	-0.659912	0.201172	-0.551025
834.0	11.898526	1.921299	0.533025	0.019504	0.05352	-0.21061	-0.661865	0.19458	-0.552979
835.0	11.401835	1.72952	0.952684	0.060959	0.051233	-0.190243	-0.657471	0.19458	-0.54834
836.0	10.920697	1.355556	1.138166	0.081633	0.075825	-0.130671	-0.661865	0.190186	-0.557617
837.0	10.373095	0.914529	1.274717	0.116	0.100686	-0.058727	-0.659424	0.190186	-0.555176
838.0	9.780142	0.368271	1.167905	0.124101	0.102791	0.005707	-0.666504	0.19458	-0.55542
839.0	9.150603	-0.289758	0.988571	0.123595	0.091201	0.049123	-0.661865	0.190186	-0.550537
840.0	8.700949	-0.822232	0.839828	0.133525	0.075403	0.084183	-0.666016	0.185791	-0.55957
841.0	8.525391	-1.039116	0.690892	0.133893	0.065065	0.12454	-0.661621	0.185791	-0.554932
842.0	8.416741	-1.055618	0.495031	0.131519	0.060202	0.165084	-0.668457	0.190186	-0.562256
843.0	8.261963	-0.750437	0.296913	0.121848	0.056527	0.204153	-0.664063	0.187988	-0.557373
844.0	8.075852	-0.544033	0.181944	0.118977	0.058506	0.245338	-0.67041	0.183594	-0.55957
845.0	7.863841	-0.280265	0.208582	0.123525	0.066444	0.278106	-0.661865	0.192383	-0.559814
846.0	7.681608	-0.078673	0.127323	0.14546	0.069139	0.299422	-0.673096	0.192383	-0.562256
847.0	7.6105	0.017376	-0.015854	0.181684	0.055722	0.305908	-0.66626	0.190186	-0.564453
848.0	7.689355	0.066614	-0.272261	0.221733	0.049583	0.303626	-0.670898	0.19458	-0.560059
849.0	7.663767	0.02574	-0.353617	0.267997	0.070985	0.290675	-0.675537	0.19458	-0.560059
850.0	7.6032	0.084477	-0.394637	0.310968	0.082566	0.272457	-0.668457	0.190186	-0.562256
851.0	7.518	0.189975	-0.311834	0.353449	0.101768	0.252875	-0.670654	0.187988	-0.559814
852.0	7.544607	0.188531	-0.217911	0.374191	0.132818	0.234662	-0.672852	0.185791	-0.564209
853.0	7.501028	0.179635	-0.050068	0.370249	0.161002	0.212742	-0.668457	0.187988	-0.562012
854.0	7.414705	0.116446	0.137646	0.33039	0.185864	0.196754	-0.673096	0.190186	-0.576172
855.0	7.188927	0.098408	0.003562	0.297625	0.18461	0.177562	-0.67749	0.190186	-0.571533
856.0	7.085096	0.044797	-0.292371	0.274407	0.152674	0.15325	-0.675049	0.181396	-0.571045
857.0	7.068689	-0.071433	-0.386653	0.223955	0.119406	0.148218	-0.672852	0.185791	-0.571289
858.0	7.37442	-0.190466	-0.38925	0.127318	0.092242	0.166218	-0.672852	0.185791	-0.571289
859.0	7.911903	-0.076149	-0.849221	0.017706	0.042397	0.184525	-0.677734	0.192383	-0.566895
860.0	8.39921	0.308202	-1.275365	-0.027164	-0.005841	0.182374	-0.67749	0.185791	-0.56665
861.0	8.976508	0.645227	-1.344909	-0.000539	-0.034305	0.174204	-0.672852	0.187988	-0.569092
862.0	9.642678	0.850654	-1.351925	0.047551	-0.061642	0.145841	-0.679443	0.181396	-0.571045
863.0	10.351436	0.835386	-1.452502	0.054541	-0.108934	0.12466	-0.677734	0.192383	-0.57373
864.0	10.898118	0.44176	-1.571509	0.021771	-0.13314	0.099332	-0.688721	0.187988	-0.57373
865.0	11.235772	0.136152	-1.789913	0.024458	-0.148765	0.061101	-0.682129	0.192383	-0.569092
866.0	11.312519	-0.04972	-2.105659	0.045931	-0.180669	0.008361	-0.684082	0.185791	-0.564209
867.0	11.051147	-0.104425	-2.568385	0.066793	-0.23166	-0.046477	-0.693115	0.183594	-0.56665
868.0	11.340763	-0.384555	-2.60858	0.162548	-0.269658	-0.084792	-0.695313	0.183594	-0.56665
869.0	14.426778	-0.294744	-0.190467	0.384498	-0.154084	-0.007148	-0.693115	0.183594	-0.564209
870.0	16.956249	0.480698	0.917861	0.223332	-0.132638	0.1931	-0.692871	0.179199	-0.559326
871.0	16.709141	1.064816	2.049099	-0.27909	-0.085694	0.41334	-0.695557	0.190186	-0.564453
872.0	14.316079	1.9779	2.416135	-0.594756	-0.014467	0.378617	-0.695801	0.192383	-0.566895
873.0	11.829309	1.853682	1.955047	-0.613076	0.014116	0.291716	-0.697998	0.196777	-0.564697
874.0	9.495583	1.552911	1.288541	-0.467833	-0.085509	0.171249	-0.700195	0.192383	-0.550537
875.0	9.466183	1.501575	1.042949	-0.245632	-0.128343	0.130141	-0.704834	0.19458	-0.560059
876.0	11.544767	1.106372	3.389074	-0.03492	0.038507	0.241988	-0.698242	0.198975	-0.557861
877.0	10.922061	-0.424799	3.896681	-0.154104	0.023622	0.340111	-0.700684	0.203369	-0.557861
878.0	9.418171	-1.124894	1.613006	-0.212088	-0.174019	0.322558	-0.698486	0.207764	-0.558105
879.0	9.812013	-1.414239	1.274901	-0.053252	-0.19005	0.266062	-0.705322	0.209961	-0.553467
880.0	10.492737	-1.718062	1.811395	0.166602	-0.036264	0.215264	-0.705078	0.203369	-0.555664
881.0	11.41268	-2.257666	1.478532	0.199217	0.006752	0.176009	-0.700928	0.212158	-0.555908
882.0	12.299951	-2.739586	1.563589	0.108409	-0.04581	0.139472	-0.70752	0.205566	-0.555664
883.0	12.29082	-2.621624	1.092762	0.032009	-0.094963	0.081567	-0.70752	0.205566	-0.555664
884.0	11.844899	-1.795217	0.550241	0.036361	-0.086912	0.016758	-0.70752	0.207764	-0.553467
885.0	11.166703	-0.643099	0.619656	0.061211	0.005895	-0.022179	-0.70752	0.207764	-0.553467
886.0	10.573892	0.114328	0.946108	0.075435	0.093798	-0.034651	-0.714355	0.207764	-0.553467
887.0	10.090814	0.48517	1.076131	0.099021	0.152925	-0.030404	-0.705322	0.209961	-0.558105
888.0	9.614092	0.634109	1.08481	0.139895	0.205034	-0.03567	-0.711914	0.203369	-0.551025
889.0	9.093206	0.64385	1.026209	0.175038	0.238708	-0.045008	-0.71167	0.196533	-0.557617
890.0	8.60008	0.637917	1.017434	0.183466	0.24898	-0.059738	-0.711914	0.205566	-0.558105
891.0	8.177353	0.620661	0.917082	0.175851	0.246419	-0.072276	-0.713867	0.19873	-0.553223
892.0	7.920617	0.649353	0.738818	0.133117	0.233463	-0.092677	-0.716064	0.196533	-0.562256
893.0	7.703607	0.524107	0.676971	0.091674	0.219572	-0.112366	-0.707031	0.194336	-0.546143
894.0	7.549423	0.559695	0.594911	0.06296	0.205697	-0.13833	-0.709473	0.196777	-0.564697
895.0	7.443059	0.633779	0.54418	0.044081	0.18638	-0.155185	-0.70459	0.192383	-0.564453
896.0	7.514864	0.599654	0.468011	0.022048	0.163084	-0.165419	-0.711914	0.205566	-0.572021
897.0	7.553469	0.719172	0.444235	0.004776	0.146179	-0.168453	-0.70459	0.187988	-0.56665
898.0	7.691713	0.811085	0.416624	-0.023977	0.135104	-0.159357	-0.711426	0.192139	-0.566895
899.0	7.80482	0.917293	0.407481	-0.063194	0.138707	-0.133304	-0.713867	0.196777	-0.571533
900.0	7.923038	0.953107	0.398769	-0.097903	0.139627	-0.115537	-0.711182	0.18335	-0.566406
901.0	7.871056	0.940809	0.291223	-0.123166	0.141666	-0.092902	-0.706787	0.190186	-0.571533
902.0	7.867458	0.931131	0.147826	-0.157628	0.131995	-0.077266	-0.71582	0.189941	-0.564453
903.0	7.783386	1.018604	0.006613	-0.195775	0.118828	-0.071215	-0.713379	0.185547	-0.573486
904.0	7.73767	0.968673	-7e-06	-0.239285	0.089784	-0.065878	-0.713623	0.192139	-0.571533
905.0	7.651248	0.8281	0.042282	-0.263013	0.055865	-0.071381	-0.709229	0.19458	-0.573975
906.0	7.467835	0.631612	-0.108072	-0.261856	0.011953	-0.08066	-0.71167	0.196777	-0.569336
907.0	7.389765	0.573758	-0.590821	-0.263128	-0.043137	-0.108776	-0.713623	0.192139	-0.566895
908.0	7.332967	0.571977	-0.990208	-0.269658	-0.081296	-0.134308	-0.711426	0.189941	-0.562012
909.0	7.408249	0.477111	-1.260145	-0.279838	-0.136685	-0.14369	-0.71582	0.185547	-0.56665
910.0	7.843202	0.466636	-1.524136	-0.296718	-0.19432	-0.14217	-0.713623	0.187744	-0.564453
911.0	8.617506	0.518625	-1.663002	-0.298681	-0.243593	-0.141081	-0.71582	0.189941	-0.564453
912.0	9.615486	0.616101	-1.501259	-0.272915	-0.241162	-0.131444	-0.720459	0.189941	-0.557373
913.0	10.509951	0.759001	-1.423574	-0.227812	-0.205364	-0.106749	-0.718018	0.189941	-0.557373
914.0	11.1349	0.909457	-1.335739	-0.188201	-0.161703	-0.065454	-0.720215	0.18335	-0.55957
915.0	11.281317	0.895591	-1.357318	-0.142701	-0.145446	-0.024551	-0.720215	0.185547	-0.557373
916.0	11.180788	0.8295	-1.578935	-0.099706	-0.137283	0.001085	-0.729248	0.185547	-0.55957
917.0	10.929556	0.722769	-2.002851	-0.061461	-0.120208	0.001297	-0.727051	0.187744	-0.552734
918.0	10.881674	0.857378	-1.572449	-0.11533	-0.061376	-0.021568	-0.722412	0.18335	-0.550293
919.0	12.367944	0.059858	0.292541	-0.22606	0.095143	-0.07476	-0.720215	0.185547	-0.554932
920.0	13.197536	-0.624848	-1.793579	-0.147628	-0.072732	-0.264114	-0.729248	0.185547	-0.552734
921.0	14.938223	-1.268377	-2.378108	-0.044001	-0.166927	-0.425606	-0.724609	0.18335	-0.554932
922.0	14.35925	-1.913864	-0.791187	0.370198	-0.034322	-0.494429	-0.728516	0.170166	-0.552002
923.0	13.508822	-1.13911	1.219346	0.640356	-0.207623	-0.513571	-0.735352	0.170166	-0.547363
924.0	12.678656	-0.11327	2.568752	0.727007	-0.132288	-0.465679	-0.728516	0.165771	-0.552002
925.0	12.857907	-0.278392	2.555808	0.573418	-0.127092	-0.46491	-0.735107	0.161133	-0.553955
926.0	13.654307	-0.166172	3.380978	0.503028	0.052774	-0.472736	-0.732422	0.152344	-0.553711
927.0	11.58604	0.182023	3.719898	0.417105	0.197314	-0.324829	-0.734619	0.152344	-0.556152
928.0	10.74617	0.312254	3.554491	0.17326	0.203059	-0.175833	-0.725342	0.147949	-0.55835
929.0	10.386299	0.667524	2.61059	-0.018578	0.223979	-0.107555	-0.732178	0.150146	-0.553711
930.0	10.87269	1.911914	2.265226	-0.115863	0.16985	-0.090769	-0.72998	0.145752	-0.562744
931.0	11.022095	2.905964	1.88742	-0.059583	0.022382	-0.120528	-0.732178	0.150146	-0.553711
932.0	10.72352	3.28039	1.176049	-0.035977	-0.081295	-0.196071	-0.732178	0.145752	-0.553467
933.0	10.952566	3.038456	1.241219	-0.031383	-0.09445	-0.26296	-0.72998	0.147949	-0.55835
934.0	11.327323	2.504138	1.468934	-0.025714	-0.072336	-0.26092	-0.732178	0.145752	-0.555908
935.0	11.355098	1.686791	1.190552	-0.056234	-0.043809	-0.221518	-0.731934	0.143555	-0.553467
936.0	11.193759	0.967189	1.40878	-0.039186	-0.000667	-0.177015	-0.729492	0.13916	-0.555664
937.0	10.981408	0.459747	1.687354	0.0396	0.025517	-0.118054	-0.734375	0.143555	-0.558105
938.0	10.67265	-0.007178	1.542975	0.071189	0.082585	-0.047199	-0.729492	0.13916	-0.551025
939.0	10.280146	-0.423789	1.374087	0.047788	0.137139	0.026434	-0.731934	0.141357	-0.557861
940.0	9.778773	-0.60209	1.233026	0.021255	0.15895	0.090998	-0.725098	0.136963	-0.55542
941.0	9.15456	-0.784982	1.112955	-0.008882	0.156743	0.123198	-0.729736	0.143555	-0.558105
942.0	8.781757	-0.828961	0.982494	-0.028475	0.124495	0.139803	-0.729492	0.13916	-0.560303
943.0	8.643404	-0.78795	0.824478	-0.031059	0.096455	0.149175	-0.727783	0.147949	-0.55835
944.0	8.498789	-0.521504	0.650493	-0.034305	0.080767	0.161456	-0.725586	0.150391	-0.555908
945.0	8.411625	-0.285268	0.576494	-0.045177	0.064032	0.186543	-0.727783	0.150391	-0.560547
946.0	8.196079	-0.015319	0.45446	-0.063513	0.06075	0.222344	-0.72583	0.154785	-0.551514
947.0	7.933112	0.087383	0.45221	-0.069538	0.063989	0.254501	-0.723633	0.156982	-0.556152
948.0	7.818325	0.174295	0.376122	-0.065731	0.061863	0.291014	-0.728027	0.156982	-0.563232
949.0	7.803382	0.239246	0.227625	-0.044392	0.063034	0.302373	-0.72583	0.15918	-0.561035
950.0	7.722186	0.244473	0.062874	-0.010043	0.067719	0.291237	-0.728027	0.154785	-0.556152
951.0	7.629614	0.161492	-0.016092	0.033578	0.086855	0.265962	-0.728516	0.170166	-0.554443
952.0	7.652179	-0.062076	-0.081674	0.078799	0.115649	0.233037	-0.728516	0.165771	-0.561279
953.0	7.793453	-0.268855	-0.216278	0.117277	0.14938	0.214244	-0.723633	0.161377	-0.561035
954.0	7.859475	-0.434604	-0.189196	0.134525	0.19123	0.20437	-0.726074	0.165771	-0.561279
955.0	7.999102	-0.592972	-0.091642	0.133489	0.205036	0.200838	-0.723877	0.165771	-0.563477
956.0	7.897274	-0.58539	-0.072447	0.114779	0.200421	0.201816	-0.72168	0.167969	-0.565918
957.0	7.805158	-0.437188	-0.053313	0.116597	0.178827	0.193798	-0.724121	0.172363	-0.563721
958.0	7.605608	-0.226372	-0.276017	0.1298	0.155408	0.170626	-0.719482	0.170166	-0.570557
959.0	7.486296	-0.058069	-0.452865	0.165927	0.092019	0.141757	-0.719727	0.174561	-0.563965
960.0	7.528549	0.004405	-0.413833	0.174493	0.026477	0.129248	-0.717041	0.165771	-0.563477
961.0	7.848374	-0.041989	-0.62554	0.120804	-0.024939	0.134968	-0.721924	0.170166	-0.563721
962.0	8.424659	0.023257	-0.965524	0.032198	-0.081486	0.139524	-0.72168	0.167969	-0.559082
963.0	9.171198	0.103679	-1.24449	-0.010225	-0.132783	0.130973	-0.719971	0.178955	-0.559326
964.0	10.036052	0.279556	-1.16777	-0.01438	-0.158541	0.110958	-0.724121	0.170166	-0.565918
965.0	10.656444	0.432201	-1.194531	-0.005021	-0.165128	0.103249	-0.722168	0.178955	-0.568604
966.0	11.056705	0.548164	-1.375504	-0.014563	-0.177048	0.082147	-0.722168	0.176758	-0.559326
967.0	11.22257	0.524132	-1.641145	-0.033825	-0.189339	0.049477	-0.724365	0.176758	-0.559326
968.0	11.069864	0.458413	-2.022292	-0.047475	-0.201075	0.011022	-0.724121	0.172363	-0.563721
969.0	10.694715	0.361307	-2.520737	-0.047819	-0.234515	-0.040447	-0.729004	0.181152	-0.557129
970.0	10.319302	0.184596	-3.179439	-0.017318	-0.310273	-0.09311	-0.726563	0.174561	-0.554688
971.0	10.477389	-0.501635	-3.099524	0.125737	-0.295111	-0.131549	-0.726563	0.178955	-0.543213
972.0	13.533489	-0.503435	-0.359812	0.402395	-0.172953	-0.041337	-0.726318	0.170166	-0.554443
973.0	15.839969	0.30288	-0.266692	0.287486	-0.297761	0.077147	-0.726563	0.178955	-0.54541
974.0	14.793417	0.453256	0.979997	-0.028456	-0.172555	0.238319	-0.72876	0.174561	-0.542969
975.0	13.264493	1.072193	1.613128	-0.289133	-0.05039	0.217282	-0.72876	0.174561	-0.547607
976.0	12.191883	1.143638	2.593523	-0.296296	0.067462	0.212787	-0.726807	0.18335	-0.545654
977.0	12.064038	1.112236	3.11367	-0.133827	0.12471	0.235214	-0.724609	0.185547	-0.548096
978.0	14.319315	1.07607	4.499554	-0.049931	0.173822	0.373301	-0.727051	0.185547	-0.552734
979.0	12.203801	0.293588	5.693009	-0.144236	0.336793	0.46131	-0.7229	0.194336	-0.543701
980.0	8.379032	-0.285686	3.196613	-0.23198	0.107718	0.363202	-0.724854	0.192139	-0.543701
981.0	7.770617	-0.331089	1.006959	-0.22268	-0.043243	0.260588	-0.729736	0.200928	-0.546143
982.0	8.093462	-0.841297	0.812978	0.017753	-0.052581	0.146035	-0.727539	0.19873	-0.543945
983.0	9.730224	-1.887944	1.50636	0.302886	0.005121	0.098322	-0.720703	0.200928	-0.546387
984.0	11.577112	-2.701667	1.687943	0.386833	0.008359	0.097095	-0.7229	0.19873	-0.543945
985.0	12.300505	-2.809987	1.202579	0.197024	-0.049868	0.084326	-0.7229	0.194336	-0.543701
986.0	11.75693	-2.364161	0.52818	0.053582	-0.066416	0.049026	-0.7229	0.196533	-0.543701
987.0	10.967925	-1.430694	0.053244	0.100588	-0.036297	0.006331	-0.71875	0.203125	-0.546387
988.0	10.516357	-0.458204	0.21173	0.177523	0.051534	-0.001562	-0.716309	0.200928	-0.543945
989.0	10.415302	0.226237	0.779492	0.180668	0.150367	-0.00151	-0.725342	0.19873	-0.541504
990.0	10.165268	0.504451	1.272503	0.172906	0.22858	0.008929	-0.7229	0.196533	-0.543701
991.0	9.731811	0.702364	1.256204	0.183413	0.257593	0.001918	-0.725342	0.203125	-0.548584
992.0	9.254848	0.742285	1.050972	0.183478	0.270784	-0.017184	-0.725098	0.196533	-0.54834
993.0	8.851128	0.822881	0.911266	0.162569	0.279695	-0.039836	-0.718262	0.194336	-0.54834
994.0	8.629631	0.814425	0.973954	0.122014	0.279543	-0.06691	-0.722656	0.189941	-0.555176
995.0	8.402699	0.858054	0.948611	0.068156	0.267739	-0.082149	-0.714111	0.200928	-0.551025
996.0	8.277537	0.839693	0.88588	0.014373	0.252795	-0.101061	-0.716064	0.196533	-0.552979
997.0	8.072387	0.938297	0.907565	-0.04713	0.226365	-0.118726	-0.718506	0.196533	-0.552979
998.0	7.92063	0.953432	0.80632	-0.102803	0.204599	-0.131164	-0.716064	0.192139	-0.557617
999.0	7.8388	1.026004	0.719424	-0.153694	0.18052	-0.142368	-0.707031	0.194336	-0.552979
1000.0	7.717593	0.974782	0.649478	-0.206898	0.16042	-0.144947	-0.720459	0.194336	-0.55542
1001.0	7.722073	0.880544	0.491305	-0.249837	0.148463	-0.14325	-0.709473	0.196533	-0.55542
1002.0	7.704742	0.767456	0.418768	-0.284748	0.143579	-0.132974	-0.707031	0.19458	-0.560059
1003.0	7.759701	0.676667	0.327791	-0.291417	0.135201	-0.11765	-0.71167	0.196533	-0.55542
1004.0	7.793469	0.550443	0.097577	-0.2821	0.128944	-0.120437	-0.713867	0.196533	-0.552979
1005.0	7.723899	0.502277	-0.01174	-0.284751	0.138453	-0.102396	-0.709717	0.203369	-0.557861
1006.0	7.67919	0.456126	-0.155929	-0.275254	0.131367	-0.098518	-0.713867	0.19873	-0.55542
1007.0	7.581894	0.457303	-0.249156	-0.266534	0.115381	-0.094864	-0.705078	0.198975	-0.557861
1008.0	7.647438	0.556957	-0.220924	-0.253032	0.096828	-0.094726	-0.709717	0.203369	-0.553223
1009.0	7.734098	0.693454	-0.192512	-0.239978	0.085723	-0.105516	-0.714111	0.201172	-0.560303
1010.0	7.791107	0.878596	-0.07706	-0.217608	0.076494	-0.118004	-0.711914	0.201172	-0.560303
1011.0	7.904555	0.98569	-0.118562	-0.203131	0.06467	-0.11858	-0.709717	0.203369	-0.555664
1012.0	8.033135	0.944808	-0.424897	-0.226364	0.006163	-0.112763	-0.711914	0.203369	-0.555664
1013.0	8.421067	0.758185	-0.876873	-0.271141	-0.063987	-0.089361	-0.712158	0.209961	-0.553467
1014.0	9.219373	0.624171	-1.21222	-0.281309	-0.150132	-0.079322	-0.709717	0.207764	-0.553467
1015.0	10.199429	0.627485	-1.465836	-0.258763	-0.207581	-0.072796	-0.70752	0.209961	-0.544189
1016.0	11.07762	0.655158	-1.657028	-0.219569	-0.21568	-0.061698	-0.711914	0.203125	-0.543945
1017.0	11.430562	0.792234	-1.932529	-0.194462	-0.18625	-0.021075	-0.714355	0.20752	-0.539551
1018.0	11.454004	0.772128	-2.159708	-0.207445	-0.171366	0.022201	-0.714111	0.205322	-0.537109
1019.0	11.204254	0.786458	-2.209986	-0.221777	-0.160619	0.046048	-0.712402	0.216553	-0.530518
1020.0	10.988197	0.985475	-1.661374	-0.303468	-0.133041	0.045675	-0.712158	0.212158	-0.539795
1021.0	11.783351	0.357359	-0.045819	-0.461833	-0.078365	0.00346	-0.719482	0.223145	-0.537842
1022.0	12.670809	-0.552285	-1.215922	-0.481835	-0.365184	-0.117691	-0.719238	0.218506	-0.537598
1023.0	14.692592	-0.733008	-1.877168	-0.383325	-0.418778	-0.270655	-0.714844	0.220947	-0.526123
1024.0	14.438078	-1.712843	-0.244837	0.007785	-0.114427	-0.347758	-0.723633	0.216309	-0.52832
1025.0	13.739901	-1.713197	2.046097	0.239738	-0.173595	-0.354702	-0.723633	0.216309	-0.523682
1026.0	13.488392	-1.747758	3.987899	0.233719	-0.06557	-0.328647	-0.720947	0.205322	-0.523193
1027.0	14.206484	-1.523809	3.031418	0.276292	-0.245958	-0.448469	-0.718994	0.209717	-0.518799
1028.0	13.661731	-1.00539	3.734419	0.402722	0.105592	-0.494875	-0.7229	0.196533	-0.520508
1029.0	11.160766	-0.126368	3.750087	0.335358	0.022741	-0.356849	-0.718506	0.19873	-0.522949
1030.0	10.009957	0.515283	2.438498	0.016812	0.033077	-0.215147	-0.725098	0.19873	-0.516113
1031.0	9.242838	1.065676	1.689138	-0.253573	0.074519	-0.139225	-0.720703	0.200928	-0.518311
1032.0	9.747157	2.232501	2.349816	-0.319257	0.087603	-0.095774	-0.722656	0.194336	-0.520508
1033.0	10.517011	3.297939	1.877472	-0.170771	-0.025814	-0.126334	-0.725342	0.203125	-0.518555
1034.0	10.827427	3.439517	0.875348	-0.176082	-0.075147	-0.189537	-0.727295	0.196533	-0.518311
1035.0	11.226617	2.838763	1.37049	-0.236525	-0.039016	-0.225789	-0.723145	0.200928	-0.516113
1036.0	11.12723	2.038763	1.174917	-0.284098	-0.018288	-0.188795	-0.7229	0.196533	-0.513672
1037.0	11.121451	1.30927	1.085339	-0.321895	0.021542	-0.142315	-0.729736	0.19873	-0.509033
1038.0	10.94506	0.784944	1.184465	-0.219064	0.049065	-0.099248	-0.727295	0.196533	-0.513672
1039.0	10.727393	0.389398	1.292678	-0.08613	0.078104	-0.045823	-0.727539	0.19873	-0.513672
1040.0	10.395037	-0.237582	1.685121	-0.015297	0.121339	0.021075	-0.729736	0.196533	-0.513672
1041.0	9.904786	-0.84319	1.618105	-0.004746	0.158391	0.08615	-0.727783	0.205322	-0.513916
1042.0	9.367678	-1.316081	1.232937	-0.031822	0.176795	0.129821	-0.727539	0.200928	-0.520752
1043.0	8.843879	-1.506024	1.054102	-0.049496	0.162232	0.145157	-0.725342	0.205322	-0.511475
1044.0	8.448851	-1.544554	0.948907	-0.071823	0.140698	0.150336	-0.725586	0.209717	-0.50708
1045.0	8.264896	-1.305572	0.751967	-0.074135	0.103712	0.157358	-0.727783	0.209717	-0.516357
1046.0	8.123412	-1.003403	0.469189	-0.076316	0.066587	0.169049	-0.732422	0.211914	-0.516357
1047.0	8.077024	-0.662944	0.290884	-0.068597	0.070641	0.201527	-0.72583	0.211914	-0.50708
1048.0	7.984789	-0.340524	0.251664	-0.056487	0.086494	0.248754	-0.723633	0.218506	-0.514404
1049.0	7.929926	-0.116238	0.138176	-0.025883	0.108223	0.293413	-0.728271	0.218506	-0.516846
1050.0	7.86397	0.002552	-0.015261	0.01618	0.127692	0.320151	-0.72168	0.220703	-0.516846
1051.0	7.81093	0.015106	-0.140008	0.076808	0.147341	0.332311	-0.72168	0.225098	-0.512451
1052.0	7.853832	0.051462	-0.210464	0.149362	0.159645	0.331432	-0.717041	0.218506	-0.514404
1053.0	7.949685	0.047586	-0.110582	0.208432	0.149648	0.311333	-0.719727	0.231689	-0.512695
1054.0	8.028025	-0.030891	0.052971	0.220559	0.135128	0.304475	-0.717041	0.2229	-0.514648
1055.0	8.109056	-0.140325	0.178513	0.18369	0.101582	0.285267	-0.719727	0.229492	-0.519531
1056.0	8.035684	-0.167014	0.150611	0.117025	0.070057	0.256849	-0.724121	0.229492	-0.512451
1057.0	7.922419	-0.272533	-0.040218	0.074956	0.046381	0.230332	-0.717773	0.236328	-0.512695
1058.0	7.777905	-0.31509	-0.125338	0.083192	0.0339	0.197356	-0.717285	0.227295	-0.519287
1059.0	7.696708	-0.249306	-0.135241	0.113175	0.039768	0.171101	-0.719971	0.236328	-0.515137
1060.0	7.75613	-0.093719	-0.243724	0.148664	0.027573	0.139068	-0.719727	0.229492	-0.519531
1061.0	8.049289	-0.096469	-0.223825	0.153593	-0.012686	0.112729	-0.715576	0.240723	-0.517578
1062.0	8.378574	-0.201352	-0.505721	0.110843	-0.036741	0.110897	-0.722168	0.233887	-0.517334
1063.0	8.782456	-0.310007	-0.945092	0.084566	-0.060364	0.104305	-0.717773	0.240723	-0.517578
1064.0	9.30176	-0.370698	-1.124216	0.113294	-0.075283	0.087797	-0.724609	0.238525	-0.517578
1065.0	9.943797	-0.477483	-0.857599	0.172421	-0.08753	0.060216	-0.718018	0.24292	-0.510742
1066.0	10.515239	-0.296308	-0.891234	0.221523	-0.115135	0.03425	-0.717773	0.238525	-0.512939
1067.0	10.876304	0.074434	-1.216634	0.241599	-0.166752	-0.019562	-0.724609	0.240479	-0.510498
1068.0	10.850674	0.367569	-1.603966	0.222778	-0.191685	-0.067998	-0.724365	0.231689	-0.505615
1069.0	10.444618	0.495707	-2.036507	0.197761	-0.239476	-0.116854	-0.722412	0.238525	-0.512939
1070.0	10.36949	0.440971	-2.344858	0.197699	-0.313639	-0.144629	-0.724121	0.229492	-0.510254
1071.0	11.807413	0.26421	-1.032487	0.27474	-0.289736	-0.114639	-0.731201	0.236084	-0.503418
1072.0	15.050117	0.951739	1.340644	0.277645	-0.207246	0.02362	-0.726563	0.231689	-0.503174
1073.0	16.841644	0.963647	1.364791	-0.025328	-0.280398	0.234528	-0.722412	0.242676	-0.494385
1074.0	15.207216	1.310356	2.058875	-0.359261	-0.183129	0.279052	-0.731445	0.244873	-0.501465
1075.0	12.142054	1.60635	1.606033	-0.391001	-0.140317	0.225425	-0.727295	0.249268	-0.499268
1076.0	10.419888	1.396746	1.431082	-0.322814	-0.12524	0.161902	-0.731445	0.244873	-0.496826
1077.0	10.775566	1.295735	1.545687	-0.15681	-0.183504	0.12258	-0.729736	0.253906	-0.501709
1078.0	11.93435	0.301164	3.074449	-0.085105	-0.025195	0.236581	-0.736328	0.249268	-0.49707
1079.0	10.372972	-0.845771	2.881551	-0.220374	-0.014143	0.325176	-0.727539	0.258301	-0.497314
1080.0	9.018845	-0.917217	1.031342	-0.182956	-0.179996	0.254278	-0.729736	0.258057	-0.490234
1081.0	8.87652	-0.983558	1.086349	0.063439	-0.144765	0.143192	-0.73877	0.255859	-0.497314
1082.0	9.684292	-1.538312	1.676745	0.406656	0.014516	0.082225	-0.734375	0.255859	-0.497314
1083.0	11.00983	-2.690744	1.867144	0.491714	0.097515	0.104868	-0.732422	0.264893	-0.49292
1084.0	11.817053	-3.008486	1.073758	0.369981	-0.026452	0.112436	-0.732178	0.260498	-0.501953
1085.0	11.752337	-2.541385	0.728614	0.171773	-0.126394	0.092553	-0.732422	0.264893	-0.504395
1086.0	11.23727	-1.75121	0.757434	0.102444	-0.134928	0.045832	-0.736572	0.260254	-0.495117
1087.0	11.101329	-0.692988	0.888936	0.124834	-0.099556	-0.006468	-0.734131	0.255859	-0.488037
1088.0	11.184699	0.129867	1.356454	0.128065	-0.020237	-0.027443	-0.73877	0.258057	-0.499512
1089.0	11.058031	0.65749	1.53243	0.108827	0.038419	-0.028584	-0.736816	0.260498	-0.504395
1090.0	10.592115	0.983979	1.388848	0.115299	0.106095	-0.026535	-0.741211	0.258057	-0.492676
1091.0	9.89515	1.104439	1.300869	0.132528	0.144652	-0.04561	-0.734375	0.260254	-0.48584
1092.0	9.283943	1.023223	1.206951	0.11479	0.18538	-0.048773	-0.73877	0.258057	-0.494873
1093.0	8.945201	0.921226	1.211297	0.094141	0.206839	-0.047269	-0.72998	0.260498	-0.506592
1094.0	8.759843	0.723666	1.245771	0.058221	0.228915	-0.043997	-0.734131	0.253662	-0.508789
1095.0	8.515452	0.661753	1.216754	0.018924	0.240964	-0.046175	-0.739014	0.264893	-0.511475
1096.0	8.370674	0.557106	1.098757	-0.014793	0.248244	-0.068188	-0.725342	0.256104	-0.51123
1097.0	8.118501	0.602694	0.968569	-0.048467	0.253623	-0.091055	-0.734375	0.260498	-0.513672
1098.0	7.849454	0.54435	0.83506	-0.077213	0.254809	-0.108807	-0.734375	0.256104	-0.513428
1099.0	7.651368	0.527552	0.632212	-0.101292	0.265542	-0.110823	-0.734375	0.258301	-0.515869
1100.0	7.504709	0.494092	0.515078	-0.137114	0.280361	-0.101502	-0.731934	0.253906	-0.515625
1101.0	7.47571	0.536843	0.400434	-0.157569	0.296966	-0.078755	-0.729736	0.256104	-0.525146
1102.0	7.548535	0.533083	0.30306	-0.182803	0.312181	-0.058902	-0.734375	0.256104	-0.525146
1103.0	7.623882	0.515322	0.085909	-0.216293	0.322713	-0.046874	-0.727783	0.264893	-0.520752
1104.0	7.741367	0.602424	-0.057029	-0.222699	0.327809	-0.045794	-0.725342	0.256104	-0.531982
1105.0	7.831004	0.716538	-0.02514	-0.214886	0.329262	-0.048802	-0.725342	0.258301	-0.534424
1106.0	7.803727	0.773752	-0.082835	-0.196097	0.321885	-0.05221	-0.727783	0.260498	-0.534424
1107.0	7.824963	0.83304	-0.106021	-0.176837	0.306857	-0.040088	-0.727783	0.260498	-0.539063
1108.0	7.942351	0.896322	-0.05958	-0.154583	0.276066	-0.04195	-0.727783	0.260498	-0.543945
1109.0	8.105587	0.997276	-0.012405	-0.124926	0.240986	-0.03156	-0.725586	0.264893	-0.541748
1110.0	8.298127	1.051005	-0.020935	-0.09024	0.198971	-0.045455	-0.725586	0.262695	-0.543945
1111.0	8.447487	1.131548	-0.291544	-0.07561	0.159024	-0.057203	-0.725342	0.260498	-0.541504
1112.0	8.652745	1.208588	-0.754622	-0.13175	0.093378	-0.050704	-0.72998	0.258301	-0.541504
1113.0	8.961284	1.128332	-1.003436	-0.22067	-0.004502	-0.033698	-0.728027	0.269287	-0.539551
1114.0	9.435608	1.074116	-1.168476	-0.289207	-0.111171	-0.010077	-0.727783	0.260498	-0.543945
1115.0	9.950085	1.149058	-1.421985	-0.311361	-0.201949	-0.007931	-0.732666	0.271484	-0.537354
1116.0	10.376313	1.351341	-1.575346	-0.313759	-0.261294	-0.003737	-0.732422	0.26709	-0.544189
1117.0	10.377092	1.307995	-1.654209	-0.343671	-0.289211	0.007468	-0.730225	0.269287	-0.539551
1118.0	10.099696	1.074805	-1.822723	-0.374672	-0.321838	0.020098	-0.735107	0.273682	-0.541992
1119.0	10.014909	0.671798	-1.278708	-0.428898	-0.403735	-0.0049	-0.737549	0.278076	-0.535156
1120.0	10.67226	-0.242332	-0.081527	-0.538679	-0.454487	-0.07351	-0.737305	0.273682	-0.534912
1121.0	12.159078	-1.618279	-0.834696	-0.544959	-0.660432	-0.210995	-0.746582	0.280273	-0.52832
1122.0	15.058279	-2.614442	-0.894058	-0.349314	-0.657071	-0.378997	-0.750488	0.269287	-0.527832
1123.0	16.070393	-3.990775	1.098915	0.328922	-0.161943	-0.520978	-0.75293	0.271484	-0.523438
1124.0	14.131062	-3.840515	2.838271	1.010692	-0.111636	-0.614266	-0.747803	0.255859	-0.531982
1125.0	11.503139	-1.640113	2.863571	0.929188	-0.238966	-0.564046	-0.752441	0.255859	-0.531982
1126.0	11.006763	-1.110733	3.162799	0.386627	-0.143065	-0.481075	-0.75415	0.24707	-0.524658
1127.0	11.296787	0.163118	2.569206	0.274586	0.041788	-0.441228	-0.758789	0.24707	-0.533936
1128.0	10.732805	0.88265	3.104347	0.103931	0.074563	-0.28684	-0.756104	0.240479	-0.531494
1129.0	11.153125	1.09282	3.40652	-0.070871	-0.00722	-0.132613	-0.760742	0.240479	-0.531494
1130.0	11.453756	2.025242	1.86697	-0.07293	0.058597	-0.077058	-0.756104	0.236084	-0.535889
1131.0	11.24588	3.147428	1.159562	-0.154446	-0.017812	-0.092383	-0.760742	0.242676	-0.538574
1132.0	10.865679	3.276839	1.932014	-0.152137	-0.076842	-0.123694	-0.755859	0.231689	-0.542725
1133.0	11.013404	2.804012	1.36034	-0.121863	-0.083089	-0.190219	-0.760742	0.242676	-0.533936
1134.0	11.808195	2.082491	1.108799	-0.155627	-0.056335	-0.231694	-0.760498	0.236084	-0.53833
1135.0	12.090137	1.374318	1.124471	-0.161787	-0.05093	-0.223156	-0.765137	0.238281	-0.53833
1136.0	11.950046	0.737677	1.357658	-0.130764	-0.040441	-0.193313	-0.762451	0.229492	-0.538086
1137.0	11.728835	0.166483	1.421651	-0.07853	-0.057331	-0.148076	-0.765137	0.236084	-0.533691
1138.0	11.583932	-0.408055	1.587561	-0.035208	-0.039693	-0.096394	-0.764648	0.227295	-0.535645
1139.0	11.289496	-0.787434	1.599174	-0.01192	-0.004834	-0.045729	-0.764893	0.233887	-0.533447
1140.0	10.767311	-0.946484	1.460647	-0.026989	0.032098	-0.002331	-0.766846	0.2229	-0.540039
1141.0	10.158696	-1.016929	1.332663	-0.052346	0.059455	0.035876	-0.764648	0.227295	-0.54248
1142.0	9.617905	-0.855782	1.203787	-0.085852	0.086859	0.08031	-0.771484	0.227295	-0.537842
1143.0	9.149706	-0.688745	1.075088	-0.11107	0.091198	0.118724	-0.771729	0.236084	-0.542969
1144.0	8.832466	-0.544745	1.011637	-0.123177	0.092178	0.153993	-0.771484	0.227295	-0.54248
1145.0	8.51425	-0.395409	0.844526	-0.128037	0.089167	0.187211	-0.771729	0.236084	-0.542969
1146.0	8.215127	-0.194107	0.697509	-0.137368	0.07726	0.214118	-0.769287	0.231689	-0.547363
1147.0	8.055318	-0.120516	0.608608	-0.134953	0.083179	0.233379	-0.767578	0.242676	-0.550049
1148.0	7.929193	-0.121043	0.618885	-0.138205	0.106895	0.258592	-0.767334	0.236084	-0.542969
1149.0	7.754976	-0.133018	0.474538	-0.127623	0.129475	0.266276	-0.765381	0.244873	-0.547852
1150.0	7.5775	-0.112245	0.36838	-0.093153	0.145698	0.263319	-0.765381	0.244873	-0.554932
1151.0	7.459174	-0.181974	0.41092	-0.052357	0.150991	0.24928	-0.772217	0.242676	-0.554688
1152.0	7.506029	-0.421625	0.421589	-0.033404	0.144522	0.238705	-0.765381	0.244873	-0.557129
1153.0	7.674915	-0.664526	0.414421	-0.027853	0.151091	0.245162	-0.772217	0.24707	-0.561768
1154.0	7.859953	-0.831914	0.345459	-0.031606	0.171708	0.240449	-0.769775	0.242676	-0.571045
1155.0	7.84345	-0.946989	0.247249	-0.049253	0.178893	0.217899	-0.770264	0.253662	-0.569092
1156.0	7.691178	-0.904545	0.003518	-0.035971	0.134318	0.175657	-0.765625	0.24707	-0.566406
1157.0	7.621326	-0.669893	-0.33237	0.006424	0.084791	0.147325	-0.768066	0.251465	-0.56665
1158.0	7.590616	-0.298734	-0.78287	0.060327	0.017615	0.111895	-0.772217	0.244873	-0.568848
1159.0	7.635173	0.024702	-0.966058	0.059592	-0.071642	0.089754	-0.765625	0.251465	-0.56665
1160.0	7.832526	0.261623	-0.970608	0.023757	-0.11816	0.090262	-0.77002	0.249268	-0.573486
1161.0	8.103697	0.22822	-0.999438	-0.024884	-0.142414	0.103627	-0.772461	0.251465	-0.56665
1162.0	8.411131	0.053224	-0.972684	-0.058179	-0.165368	0.116171	-0.776855	0.251465	-0.557373
1163.0	8.637428	-0.036576	-1.028909	-0.087971	-0.192627	0.115972	-0.781738	0.255859	-0.569092
1164.0	9.042347	0.068255	-1.143287	-0.098394	-0.236482	0.095874	-0.776855	0.249268	-0.56665
1165.0	9.5766	0.369385	-1.160421	-0.076983	-0.257255	0.054912	-0.774658	0.251465	-0.56665
1166.0	10.019116	0.601197	-1.030753	-0.044315	-0.266483	0.009516	-0.779053	0.249268	-0.56665
1167.0	10.084677	0.655366	-1.19356	-0.025484	-0.292964	-0.046024	-0.788086	0.249268	-0.564209
1168.0	9.914803	0.571242	-1.542559	-0.014356	-0.34003	-0.105032	-0.785889	0.24707	-0.564209
1169.0	9.655099	0.332232	-2.1507	-0.001101	-0.411704	-0.157696	-0.78833	0.251465	-0.552734
1170.0	10.035236	-0.127336	-1.927091	0.106835	-0.426462	-0.178193	-0.792236	0.240479	-0.556885
1171.0	12.375515	-0.141708	0.242732	0.32641	-0.327911	-0.084223	-0.790283	0.24707	-0.557129
1172.0	15.469235	0.199116	0.654172	0.126462	-0.397327	0.142141	-0.792236	0.236084	-0.556885
1173.0	16.505281	0.093786	1.437375	-0.312309	-0.39402	0.350716	-0.794678	0.242676	-0.547852
1174.0	14.495756	0.872269	2.030701	-0.486373	-0.231408	0.299745	-0.794922	0.24707	-0.55249
1175.0	12.481832	1.054053	2.313373	-0.475774	-0.11598	0.193453	-0.803955	0.251465	-0.550293
1176.0	11.523809	1.107343	2.293555	-0.336107	-0.152016	0.106087	-0.806152	0.251465	-0.552734
1177.0	12.922423	0.593572	3.236127	-0.291776	-0.140978	0.164632	-0.806396	0.258057	-0.543701
1178.0	11.089673	-0.450345	3.041225	-0.364536	-0.114521	0.237029	-0.806641	0.258057	-0.54834
1179.0	9.227749	-0.617478	1.192594	-0.277619	-0.243131	0.160855	-0.806641	0.260254	-0.546143
1180.0	8.9593	-0.742511	0.909561	-0.026098	-0.231202	0.052167	-0.815186	0.251221	-0.543457
1181.0	9.727972	-1.361173	1.161911	0.271722	-0.088195	0.001669	-0.808594	0.255615	-0.543701
1182.0	11.234814	-2.38712	1.37111	0.368292	-0.000311	0.035046	-0.80835	0.249023	-0.543457
1183.0	12.414768	-2.754595	0.814683	0.252142	-0.07171	0.077274	-0.808594	0.255615	-0.54126
1184.0	12.301489	-2.397058	0.536048	0.074254	-0.101129	0.09158	-0.810791	0.251221	-0.541016
1185.0	11.847752	-1.841891	0.65407	0.015351	-0.069213	0.073044	-0.812988	0.253418	-0.54126
1186.0	11.613267	-0.99426	0.638311	0.036313	0.003413	0.046785	-0.812744	0.246826	-0.536377
1187.0	11.481881	-0.329656	1.008877	0.023342	0.102401	0.024678	-0.812744	0.246826	-0.547852
1188.0	11.236209	0.223228	1.418136	0.001093	0.177378	-0.006022	-0.812744	0.244629	-0.54541
1189.0	10.902903	0.741915	1.450391	0.008247	0.199424	-0.0532	-0.81958	0.249023	-0.548096
1190.0	10.451997	1.069675	1.261996	0.046887	0.222305	-0.086781	-0.814941	0.240234	-0.552246
1191.0	9.874625	1.141878	1.124079	0.045939	0.240714	-0.094803	-0.81958	0.244629	-0.559326
1192.0	9.350186	0.905746	1.144667	0.027098	0.235988	-0.086852	-0.814697	0.238037	-0.556885
1193.0	8.964882	0.781546	1.167622	0.001438	0.220319	-0.079064	-0.810303	0.240234	-0.563965
1194.0	8.700556	0.640777	1.07815	-0.022323	0.207739	-0.084225	-0.8125	0.23584	-0.554443
1195.0	8.37589	0.639576	0.932	-0.069901	0.19084	-0.093082	-0.816895	0.238037	-0.561523
1196.0	8.126443	0.61296	0.744329	-0.108105	0.179296	-0.102134	-0.814697	0.238037	-0.570801
1197.0	7.826685	0.629141	0.612683	-0.148613	0.170412	-0.105127	-0.819336	0.238037	-0.568359
1198.0	7.631947	0.577865	0.539978	-0.189544	0.170227	-0.111201	-0.809814	0.229248	-0.568115
1199.0	7.508742	0.56339	0.503046	-0.233963	0.167969	-0.114605	-0.814697	0.23584	-0.570801
1200.0	7.486518	0.530672	0.548477	-0.27957	0.172251	-0.106543	-0.809814	0.227051	-0.565674
1201.0	7.54005	0.468609	0.589581	-0.307291	0.17861	-0.094415	-0.814453	0.231445	-0.570557
1202.0	7.710229	0.441127	0.389083	-0.331011	0.177433	-0.075226	-0.812256	0.231445	-0.568359
1203.0	7.753449	0.483473	0.251364	-0.359888	0.178166	-0.064579	-0.819092	0.233643	-0.577637
1204.0	7.849421	0.499199	0.23136	-0.37613	0.164174	-0.049373	-0.807617	0.229248	-0.572754
1205.0	7.864922	0.602553	0.292032	-0.385518	0.150922	-0.045999	-0.819092	0.23584	-0.575439
1206.0	7.901329	0.739047	0.233965	-0.369055	0.123563	-0.041716	-0.816406	0.224854	-0.572754
1207.0	7.889231	0.871513	0.175038	-0.340746	0.102433	-0.037097	-0.814697	0.233643	-0.570557
1208.0	7.808536	0.948685	0.091197	-0.321658	0.074806	-0.03066	-0.816895	0.233643	-0.589111
1209.0	7.660999	0.950324	-0.126467	-0.320953	0.025132	-0.029897	-0.814697	0.238037	-0.573242
1210.0	7.56507	0.921961	-0.59774	-0.320462	-0.048581	-0.032669	-0.818848	0.229248	-0.577393
1211.0	7.602223	1.046575	-0.933646	-0.317812	-0.119954	-0.041684	-0.814697	0.233643	-0.570557
1212.0	7.845778	1.045193	-1.10324	-0.299029	-0.172353	-0.046557	-0.821533	0.23584	-0.577637
1213.0	8.330007	1.081254	-1.260143	-0.314151	-0.245871	-0.040769	-0.823486	0.231445	-0.570557
1214.0	9.113947	1.050981	-1.266157	-0.332157	-0.308854	-0.029715	-0.823486	0.233643	-0.568359
1215.0	9.917914	0.799903	-1.21054	-0.311186	-0.342842	-0.003926	-0.823975	0.240234	-0.563965
1216.0	10.42477	0.577695	-1.203111	-0.282848	-0.341631	0.033381	-0.830078	0.229248	-0.561279
1217.0	10.558018	0.366612	-1.50064	-0.267094	-0.325753	0.071248	-0.830566	0.238037	-0.561523
1218.0	10.4	0.35542	-1.897221	-0.250059	-0.322474	0.091757	-0.830078	0.229248	-0.558838
1219.0	10.232554	0.450219	-2.188431	-0.192332	-0.331423	0.077968	-0.832764	0.23584	-0.552246
1220.0	10.045839	0.71972	-2.572564	-0.145044	-0.334279	0.048145	-0.834961	0.233643	-0.552002
1221.0	9.865513	1.215621	-2.814623	-0.137099	-0.360201	0.016272	-0.834961	0.23584	-0.542725
1222.0	10.539878	1.315376	-1.126714	-0.288025	-0.321773	-0.006898	-0.837158	0.23584	-0.545166
1223.0	12.219622	-0.572755	0.910499	-0.39237	-0.272856	-0.06754	-0.84375	0.229004	-0.540283
1224.0	14.06578	-1.180349	-1.188714	-0.160726	-0.499424	-0.26424	-0.843506	0.226807	-0.535645
1225.0	14.988288	-1.602497	-1.325763	0.250105	-0.50734	-0.460632	-0.8479	0.222412	-0.5354
1226.0	13.235518	-2.15804	0.695747	0.783105	-0.355737	-0.542465	-0.847656	0.213623	-0.532715
1227.0	11.620821	-0.651708	0.525854	0.800644	-0.484065	-0.475922	-0.852051	0.211426	-0.523438
1228.0	10.806914	0.640032	1.337077	0.535968	-0.488119	-0.352126	-0.858398	0.204834	-0.523193
1229.0	10.605587	-0.433416	2.774144	0.259513	-0.242784	-0.257986	-0.854004	0.204834	-0.534668
1230.0	11.51405	-0.905061	2.865698	0.159167	-0.218014	-0.272221	-0.855469	0.187012	-0.5271
1231.0	11.538361	-0.612108	2.0778	0.041958	-0.127725	-0.244955	-0.860352	0.193604	-0.522705
1232.0	11.837508	-0.110543	2.13999	-0.101575	-0.156424	-0.212885	-0.862061	0.182617	-0.529297
1233.0	12.151878	0.72026	2.322886	-0.205575	-0.074212	-0.173248	-0.860107	0.187012	-0.524658
1234.0	11.970571	1.421268	1.962202	-0.268473	-0.04858	-0.151376	-0.859863	0.184814	-0.515381
1235.0	11.90882	1.72719	1.956416	-0.224503	-0.057237	-0.148964	-0.857422	0.178223	-0.517578
1236.0	12.06354	1.953263	1.74283	-0.114797	-0.055154	-0.174593	-0.855469	0.184814	-0.529297
1237.0	11.918236	1.930597	1.04325	-0.031569	-0.04205	-0.190489	-0.864258	0.18042	-0.517578
1238.0	11.532156	1.552585	0.839229	0.020766	0.000768	-0.158856	-0.86377	0.171631	-0.521973
1239.0	11.042208	1.002442	0.940155	0.074354	0.061457	-0.114587	-0.864258	0.178223	-0.517578
1240.0	10.73139	0.37241	0.984568	0.094361	0.110178	-0.071734	-0.859375	0.173828	-0.526611
1241.0	10.553893	-0.22309	0.889053	0.08953	0.167946	-0.029916	-0.861572	0.171631	-0.52417
1242.0	10.428934	-0.850966	0.790238	0.072353	0.20357	0.012358	-0.865967	0.167236	-0.531006
1243.0	10.154152	-1.246505	0.759104	0.058637	0.207443	0.029769	-0.859375	0.171631	-0.526611
1244.0	9.790448	-1.517284	0.753385	0.056749	0.206005	0.038853	-0.861328	0.165039	-0.531006
1245.0	9.46395	-1.555164	0.636651	0.065891	0.180946	0.031637	-0.856934	0.169434	-0.528809
1246.0	9.168205	-1.407226	0.594591	0.064516	0.17218	0.023645	-0.859131	0.162842	-0.533203
1247.0	9.002635	-1.171771	0.430826	0.07198	0.163533	0.021231	-0.861572	0.167236	-0.533203
1248.0	8.904309	-0.811766	0.418924	0.095708	0.159722	0.031184	-0.859131	0.165039	-0.533203
1249.0	8.788363	-0.533178	0.343291	0.136523	0.159418	0.046743	-0.854736	0.169434	-0.535645
1250.0	8.709937	-0.369355	0.230533	0.19085	0.161489	0.068781	-0.856689	0.162842	-0.533203
1251.0	8.60049	-0.325079	0.173152	0.242236	0.170244	0.089534	-0.854492	0.162842	-0.540039
1252.0	8.57101	-0.326653	0.121798	0.300842	0.173269	0.107028	-0.859131	0.165039	-0.547119
1253.0	8.458911	-0.265921	0.049456	0.367614	0.165516	0.112684	-0.861328	0.162842	-0.547119
1254.0	8.377562	-0.241156	0.004345	0.440755	0.163618	0.111305	-0.854736	0.165039	-0.551758
1255.0	8.261901	-0.328325	-0.018563	0.500113	0.157018	0.099972	-0.856445	0.154053	-0.549072
1256.0	8.195248	-0.449396	-0.135732	0.539855	0.149608	0.084536	-0.854004	0.151855	-0.549072
1257.0	8.305366	-0.57721	-0.176614	0.568811	0.139721	0.069722	-0.858887	0.15625	-0.549072
1258.0	8.39529	-0.714541	-0.146717	0.589947	0.132595	0.047103	-0.851563	0.147461	-0.55127
1259.0	8.432881	-0.821565	-0.109161	0.633597	0.132815	0.028129	-0.856201	0.149658	-0.546631
1260.0	8.411573	-0.872556	-0.148996	0.691984	0.113039	0.001346	-0.849121	0.138672	-0.55542
1261.0	8.388756	-0.91861	-0.223723	0.771268	0.090119	-0.035004	-0.85376	0.143066	-0.557861
1262.0	8.374475	-0.865621	-0.413043	0.833013	0.065974	-0.0578	-0.85791	0.134277	-0.557617
1263.0	8.323525	-0.604942	-0.883538	0.87424	0.015029	-0.082314	-0.853271	0.13208	-0.550537
1264.0	8.29007	-0.281864	-1.325318	0.907868	-0.055173	-0.106679	-0.855225	0.125488	-0.55957
1265.0	8.394064	-0.045226	-1.634064	0.949154	-0.111928	-0.126227	-0.855225	0.123291	-0.55957
1266.0	8.593496	-0.033905	-1.515522	0.998985	-0.125928	-0.11747	-0.861572	0.116455	-0.554688
1267.0	8.777845	-0.254618	-1.28327	1.037367	-0.104718	-0.08678	-0.852539	0.114502	-0.559326
1268.0	9.020689	-0.40952	-1.203913	1.065374	-0.115292	-0.055397	-0.854492	0.103271	-0.556396
1269.0	9.207106	-0.535566	-1.188536	1.104502	-0.133339	-0.039608	-0.856689	0.105469	-0.556641
1270.0	9.250824	-0.590797	-1.353782	1.158627	-0.147843	-0.041912	-0.860596	0.087891	-0.546631
1271.0	9.2889	-0.563281	-1.433948	1.197706	-0.178625	-0.04894	-0.862549	0.083496	-0.548828
1272.0	9.303212	-0.522107	-1.465316	1.209454	-0.221913	-0.050034	-0.862305	0.076904	-0.55542
1273.0	9.312673	-0.538323	-1.655303	1.197745	-0.261732	-0.050472	-0.869141	0.076904	-0.546143
1274.0	9.186782	-0.562953	-1.995664	1.190761	-0.30952	-0.056382	-0.859619	0.065918	-0.54126
1275.0	9.280694	-0.622596	-2.370119	1.283518	-0.341554	-0.065498	-0.861816	0.061279	-0.538574
1276.0	10.36337	0.016244	-1.988734	1.544321	-0.380513	-0.074028	-0.872559	0.048096	-0.535889
1277.0	12.732986	0.981249	-1.20508	1.716081	-0.53489	-0.058757	-0.870361	0.05249	-0.529053
1278.0	15.014069	1.278165	0.007881	1.576843	-0.361041	0.12206	-0.876709	0.041504	-0.535645
1279.0	14.301991	2.085527	0.406621	1.308138	-0.080434	0.264336	-0.870117	0.043701	-0.528809
1280.0	11.985595	2.025158	0.563233	1.110875	-0.093931	0.240009	-0.87207	0.037109	-0.526123
1281.0	10.45279	1.120565	0.515136	1.05832	-0.139388	0.165273	-0.874268	0.037109	-0.528564
1282.0	9.906113	0.245658	-1.063409	1.192527	-0.154659	0.054731	-0.874023	0.030518	-0.52832
1283.0	11.336183	-0.001704	-1.514997	1.619587	-0.204894	-0.060708	-0.873535	0.019531	-0.523193
1284.0	13.817678	-0.135096	0.628673	1.912434	-0.142817	-0.058218	-0.873047	0.008301	-0.518066
1285.0	13.84812	-0.722546	1.442058	1.929896	0.117733	0.075277	-0.868408	0.003906	-0.518066
1286.0	12.045772	-0.792829	1.006934	1.928757	0.105247	0.115107	-0.87915	-0.009277	-0.510498
1287.0	10.818268	-0.761382	0.913983	2.085961	0.069843	0.067182	-0.87915	-0.011475	-0.515137
1288.0	10.250131	-0.826997	0.478143	2.220864	0.123389	0.024417	-0.871826	-0.022461	-0.51001
1289.0	10.087501	-1.137815	0.784377	2.328135	0.149106	0.002688	-0.876221	-0.024658	-0.51001
1290.0	10.419958	-1.014225	0.795601	2.440133	0.111127	-0.014353	-0.868652	-0.042236	-0.504639
1291.0	11.066947	-0.534321	0.977288	2.478945	0.109533	-0.024903	-0.875244	-0.046875	-0.506836
1292.0	11.224239	-0.05737	0.967151	2.422539	0.144179	-0.025048	-0.872559	-0.057861	-0.499512
1293.0	10.987374	0.260486	0.851937	2.398473	0.172275	-0.018159	-0.876953	-0.060059	-0.49707
1294.0	10.756259	0.68732	0.636149	2.450091	0.198135	-0.039311	-0.869873	-0.073242	-0.491943
1295.0	10.717504	1.082298	0.548386	2.52669	0.229737	-0.078945	-0.869385	-0.082031	-0.493896
1296.0	10.727402	1.536353	0.273601	2.593778	0.244089	-0.117918	-0.868896	-0.097412	-0.48877
1297.0	10.729168	1.843219	0.246738	2.619225	0.281965	-0.134048	-0.87085	-0.102051	-0.476807
1298.0	10.651497	1.81902	0.20267	2.644647	0.328607	-0.135147	-0.868164	-0.113037	-0.48584
1299.0	10.435127	1.796897	0.0316	2.648557	0.368052	-0.12226	-0.872314	-0.121826	-0.485352
1300.0	10.198568	1.646767	0.043304	2.64063	0.409196	-0.095919	-0.864746	-0.139404	-0.477783
1301.0	9.881426	1.572612	0.040591	2.63404	0.447138	-0.092336	-0.862305	-0.143799	-0.470703
1302.0	9.546964	1.532567	0.125264	2.632935	0.473798	-0.100397	-0.862061	-0.154785	-0.474854
1303.0	9.343737	1.420899	0.259085	2.646686	0.477698	-0.11251	-0.857178	-0.161377	-0.467773
1304.0	9.147971	1.334514	0.249433	2.664939	0.466819	-0.116102	-0.863525	-0.17041	-0.467285
1305.0	9.072454	1.348451	0.261951	2.657144	0.430281	-0.120579	-0.856445	-0.179199	-0.462402
1306.0	9.001589	1.360881	0.318782	2.633899	0.390309	-0.143395	-0.851318	-0.19458	-0.457275
1307.0	8.768322	1.424914	0.242433	2.578415	0.36739	-0.165871	-0.855713	-0.198975	-0.452393
1308.0	8.454697	1.603989	0.144277	2.526637	0.339525	-0.168887	-0.850586	-0.209961	-0.447266
1309.0	8.343962	1.836976	0.137726	2.478348	0.314046	-0.174998	-0.850342	-0.21875	-0.442383
1310.0	8.417443	2.03429	0.251341	2.424224	0.298794	-0.169906	-0.843506	-0.220947	-0.430664
1311.0	8.47119	2.164126	0.387225	2.359905	0.291501	-0.153627	-0.849609	-0.236572	-0.434814
1312.0	8.463864	2.284537	0.376669	2.282009	0.270855	-0.139483	-0.849365	-0.243164	-0.422852
1313.0	8.353623	2.469492	0.336813	2.174157	0.232732	-0.131729	-0.846924	-0.247559	-0.425049
1314.0	8.27905	2.699631	0.452492	2.060741	0.198968	-0.126885	-0.848877	-0.251953	-0.417969
1315.0	8.274765	2.933874	0.528527	1.95918	0.156445	-0.12915	-0.842041	-0.256348	-0.410889
1316.0	8.332845	3.177611	0.4647	1.858273	0.098922	-0.123337	-0.844238	-0.258545	-0.401367
1317.0	8.308936	3.288886	0.521158	1.747887	0.040152	-0.108909	-0.846436	-0.258545	-0.39917
1318.0	8.266688	3.275634	0.573899	1.635088	-0.052805	-0.091552	-0.841309	-0.273926	-0.386963
1319.0	8.153721	3.177474	0.596756	1.517489	-0.169457	-0.069539	-0.850342	-0.269775	-0.380127
1320.0	7.990823	2.953128	0.523809	1.401734	-0.330337	-0.053457	-0.845703	-0.278564	-0.365967
1321.0	8.152788	2.650215	0.468539	1.315375	-0.461888	-0.042942	-0.843506	-0.276367	-0.361328
1322.0	8.226817	2.29213	0.233073	1.249063	-0.52436	-0.030139	-0.847656	-0.282959	-0.347168
