Acquisition frequency: 100 Hz
PacketCounter	Acc_X	Acc_Y	Acc_Z	Gyr_X	Gyr_Y	Gyr_Z	Mag_X	Mag_Y	Mag_Z
0.0	9.899009	-0.620139	0.139647	0.02489	0.033622	-0.003487	-0.603027	0.128662	-0.527344
1.0	9.850968	-0.691768	0.186575	0.024905	0.036011	-0.002498	-0.60083	0.130859	-0.518311
2.0	9.80652	-0.671793	0.286798	0.017167	0.01116	-2e-05	-0.602783	0.126465	-0.527344
3.0	9.833112	-0.683668	0.203934	0.011401	-0.009035	0.000483	-0.607666	0.135254	-0.516113
4.0	9.778552	-0.686163	0.178138	0.018169	-0.023631	0.000479	-0.607422	0.130859	-0.520508
5.0	9.780619	-0.633701	0.189984	0.011228	-0.035423	0.001972	-0.607422	0.126465	-0.513428
6.0	9.822666	-0.599323	0.137664	-0.005658	-0.033657	0.004462	-0.605225	0.130859	-0.522949
7.0	9.849583	-0.611664	0.173224	-0.005993	-0.035234	0.004465	-0.602783	0.126465	-0.518066
8.0	9.831834	-0.604065	0.184166	0.008467	-0.04146	0.002471	-0.607422	0.130859	-0.518311
9.0	9.873839	-0.569849	0.130571	0.015839	-0.05325	0.007399	-0.607666	0.133057	-0.51123
10.0	9.881729	-0.600795	0.110007	0.004477	-0.067262	0.006943	-0.607422	0.128662	-0.513428
11.0	9.941409	-0.574878	0.03955	0.006805	-0.067938	0.00941	-0.607666	0.133057	-0.515869
12.0	9.949201	-0.606139	0.019328	0.002503	-0.044089	0.010885	-0.607422	0.130859	-0.518311
13.0	9.925719	-0.623406	-0.003141	0.008368	-0.01876	0.007392	-0.609619	0.126465	-0.515625
14.0	9.890183	-0.608133	0.024336	0.018104	-0.023988	0.005394	-0.609863	0.130859	-0.518311
15.0	9.85892	-0.487423	0.079946	0.021407	-0.040881	0.001457	-0.611816	0.128662	-0.515869
16.0	9.971942	-0.617732	0.080209	-0.005018	-0.039782	-0.004372	-0.60498	0.126465	-0.515625
17.0	9.942801	-0.658109	0.024458	-0.014867	-0.004929	-0.001913	-0.605225	0.133057	-0.513672
18.0	9.901006	-0.692525	0.075066	0.009751	0.034317	-0.002542	-0.607666	0.133057	-0.518311
19.0	9.888952	-0.66012	0.127373	0.025155	0.032474	0.000368	-0.607422	0.130859	-0.513672
20.0	9.863352	-0.622016	0.159241	0.028525	0.013473	0.00285	-0.60498	0.126465	-0.518066
21.0	9.856156	-0.565823	0.121058	0.019706	0.002146	0.003388	-0.607422	0.128662	-0.515869
22.0	9.846186	-0.588637	0.122029	0.010344	0.013744	0.007346	-0.60498	0.126465	-0.510986
23.0	9.812741	-0.628131	0.104847	-0.002436	0.027854	0.009337	-0.603027	0.130859	-0.515869
24.0	9.762969	-0.633457	0.170539	-0.002032	0.011168	0.011335	-0.609619	0.128662	-0.522705
25.0	9.752965	-0.65688	0.170267	-0.013115	-0.017746	0.011411	-0.60498	0.126465	-0.513428
26.0	9.835306	-0.641528	0.176186	-0.012607	-0.047901	0.017375	-0.607178	0.124268	-0.515625
27.0	9.871401	-0.632909	0.088397	-0.005582	-0.042681	0.015374	-0.607422	0.128662	-0.513428
28.0	9.926703	-0.605497	0.055474	0.006727	-0.021847	0.009383	-0.605225	0.133057	-0.515869
29.0	9.889671	-0.616691	0.015259	0.00378	-0.00784	0.006412	-0.607422	0.128662	-0.522705
30.0	9.912495	-0.626826	0.087918	-0.003633	-0.000836	-0.000479	-0.607422	0.130859	-0.513672
31.0	9.8713	-0.635205	0.083031	-0.007482	-0.005023	0.000528	-0.603027	0.130859	-0.513672
32.0	9.874894	-0.663256	0.101855	-0.003381	-0.008849	-0.004415	-0.600586	0.126465	-0.518066
33.0	9.847866	-0.651153	0.06187	0.002035	-0.013608	1.3e-05	-0.609619	0.128662	-0.515869
34.0	9.856249	-0.655348	-0.007554	0.000991	-0.00697	0.002474	-0.605225	0.133057	-0.518311
35.0	9.86618	-0.633321	-0.008291	0.004625	-0.006134	0.002952	-0.605225	0.130859	-0.518311
36.0	9.92665	-0.606875	0.049616	0.004882	0.002011	0.003432	-0.603027	0.130859	-0.518311
37.0	9.88542	-0.615676	0.045973	0.011656	0.015247	0.005359	-0.605225	0.133057	-0.518311
38.0	9.89891	-0.622041	0.067069	0.012956	0.016753	0.003379	-0.607666	0.135254	-0.520752
39.0	9.863439	-0.60629	0.097913	0.016961	0.0078	0.001406	-0.612061	0.130859	-0.51123
40.0	9.853455	-0.628952	0.098764	0.011518	0.005327	0.006364	-0.605225	0.133057	-0.513672
41.0	9.839908	-0.623393	0.079698	0.010564	0.000932	0.001442	-0.605225	0.128662	-0.513428
42.0	9.82639	-0.617402	0.060524	0.008112	0.003377	-0.002501	-0.611816	0.128662	-0.518066
43.0	9.848336	-0.627214	0.011553	0.016206	-0.004941	-0.002513	-0.607666	0.133057	-0.515869
44.0	9.837018	-0.56838	0.005855	0.033617	-0.013502	-0.004036	-0.612061	0.133057	-0.518311
45.0	9.872478	-0.584136	-0.024828	0.024756	-0.01346	-0.001044	-0.605225	0.133057	-0.513672
46.0	9.913685	-0.575591	-0.021041	0.011487	-0.003934	-0.002498	-0.614502	0.135254	-0.520752
47.0	9.895342	-0.593693	0.047997	0.000299	0.01294	0.002435	-0.609863	0.133057	-0.515869
48.0	9.863452	-0.605871	0.099198	0.01348	0.028573	-0.00258	-0.612061	0.130859	-0.518311
49.0	9.754919	-0.609961	0.17507	0.028836	0.005764	-0.006029	-0.609863	0.133057	-0.518311
50.0	9.73725	-0.601391	0.188581	0.002781	-0.033189	-0.004859	-0.609619	0.128662	-0.515869
51.0	9.784774	-0.649198	0.105901	-0.016234	-0.055236	-0.008188	-0.607422	0.126465	-0.510986
52.0	9.800995	-0.682887	0.017371	0.00473	-0.056398	-0.008753	-0.612061	0.130859	-0.515869
53.0	9.880397	-0.61106	-0.052334	0.038807	-0.053946	-0.006918	-0.609863	0.135254	-0.516113
54.0	9.936194	-0.556035	-0.140841	0.03396	-0.046697	-0.001487	-0.609863	0.133057	-0.513672
55.0	9.99555	-0.529546	-0.208111	0.017276	-0.018489	-0.000512	-0.607422	0.128662	-0.51123
56.0	9.973726	-0.519701	-0.158543	0.001729	0.028845	0.006314	-0.612061	0.133057	-0.51123
57.0	9.925711	-0.605068	-0.084881	0.008941	0.060477	0.002731	-0.607666	0.135254	-0.511475
58.0	9.846589	-0.56892	0.048535	0.025936	0.0569	0.001691	-0.611816	0.128662	-0.520508
59.0	9.814715	-0.581076	0.103296	0.013158	0.054855	-0.000718	-0.612061	0.133057	-0.51123
60.0	9.808922	-0.605297	0.074832	0.01258	0.056821	-0.003679	-0.605225	0.130859	-0.515869
61.0	9.767068	-0.63928	0.129336	0.018463	0.047391	-0.00465	-0.612061	0.133057	-0.520508
62.0	9.776333	-0.642362	0.186989	0.014199	0.032036	-0.007545	-0.612061	0.133057	-0.518311
63.0	9.825339	-0.663625	0.178457	0.015296	-0.004553	-0.005453	-0.609863	0.133057	-0.513672
64.0	9.829642	-0.665091	0.14292	0.019801	-0.025074	-0.008355	-0.609619	0.128662	-0.515869
65.0	9.881498	-0.60781	0.090507	0.017401	-0.03642	-0.003373	-0.605225	0.133057	-0.515869
66.0	9.903509	-0.617371	0.038256	0.007896	-0.03231	-0.009772	-0.607422	0.126465	-0.515625
67.0	9.970295	-0.64635	0.010911	0.010241	-0.021287	-0.009819	-0.609863	0.130859	-0.515869
68.0	9.958976	-0.586713	0.004396	0.018482	-0.008001	-0.013349	-0.605225	0.133057	-0.513672
69.0	9.990328	-0.599052	0.00943	0.029481	0.011315	-0.017405	-0.607422	0.130859	-0.513672
70.0	9.945051	-0.603339	0.041134	0.034422	0.025337	-0.021422	-0.607422	0.126465	-0.515625
71.0	9.931048	-0.621086	0.078434	0.027248	0.028777	-0.025359	-0.60498	0.126465	-0.515625
72.0	9.875851	-0.647343	0.11101	0.016085	0.022601	-0.020366	-0.607178	0.12207	-0.517822
73.0	9.830558	-0.651555	0.142258	0.017797	0.007418	-0.020304	-0.609863	0.130859	-0.513428
74.0	9.789508	-0.658014	0.138139	0.020846	-0.001466	-0.020272	-0.609619	0.126465	-0.522705
75.0	9.720807	-0.678946	0.148183	0.013948	-0.008453	-0.016768	-0.607422	0.130859	-0.515869
76.0	9.662584	-0.652247	0.103228	0.001156	-0.017702	-0.009786	-0.607178	0.124268	-0.520264
77.0	9.654802	-0.621221	0.115483	-0.007372	-0.027764	-0.00429	-0.611816	0.128662	-0.513428
78.0	9.678271	-0.604712	0.131749	-0.000583	-0.033094	0.004594	-0.607422	0.128662	-0.513428
79.0	9.688734	-0.557027	0.073628	0.00301	-0.048746	0.005645	-0.612061	0.133057	-0.513672
80.0	9.775264	-0.543123	0.043004	0.002167	-0.062133	0.011633	-0.609375	0.124268	-0.518066
81.0	9.889371	-0.515232	-0.004072	-0.004137	-0.075583	0.011232	-0.614258	0.130859	-0.51123
82.0	9.991851	-0.536705	-0.119363	0.00287	-0.065886	0.016095	-0.612061	0.133057	-0.518311
83.0	10.056822	-0.487455	-0.154712	-0.000221	-0.033936	0.015954	-0.609619	0.130859	-0.50415
84.0	10.068181	-0.547503	-0.151202	-0.017464	0.001048	0.015858	-0.618652	0.128662	-0.515869
85.0	10.008806	-0.575138	-0.085505	-0.013156	0.028421	0.011266	-0.60498	0.126465	-0.50415
86.0	9.982833	-0.563839	0.000536	-0.004013	0.029627	0.013195	-0.607422	0.130859	-0.518311
87.0	9.909835	-0.585295	0.048296	-0.012776	0.03031	0.006324	-0.607422	0.128662	-0.513428
88.0	9.889927	-0.630734	0.051893	-0.014032	0.033609	0.010261	-0.609863	0.130859	-0.515869
89.0	9.885717	-0.629228	0.089305	0.003346	0.031928	0.004282	-0.605225	0.133057	-0.515869
90.0	9.867929	-0.621822	0.107635	0.001672	0.040224	0.008692	-0.60498	0.126465	-0.515625
91.0	9.836565	-0.608915	0.106269	-0.00197	0.027695	0.010736	-0.607422	0.130859	-0.51123
92.0	9.874049	-0.57349	0.093404	0.001866	0.020187	0.012237	-0.609619	0.126465	-0.510986
93.0	9.911546	-0.538189	0.080259	0.013849	0.020848	0.013182	-0.609619	0.126465	-0.513428
94.0	9.907242	-0.537687	0.116585	0.011869	0.02068	0.022069	-0.612061	0.130859	-0.515869
95.0	9.911305	-0.541965	0.084472	-0.003868	0.020955	0.019158	-0.60498	0.126465	-0.510986
96.0	9.905445	-0.568359	0.052423	-0.016187	0.018722	0.018219	-0.612061	0.135254	-0.513672
97.0	9.957865	-0.620384	0.064404	-0.026332	0.028964	0.020672	-0.607422	0.126465	-0.515625
98.0	9.888189	-0.670608	0.131782	-0.017497	0.035793	0.01322	-0.612061	0.135254	-0.513672
99.0	9.856827	-0.657948	0.129752	-0.001431	0.020917	0.01176	-0.614014	0.124268	-0.510986
100.0	9.815548	-0.667346	0.126283	-0.001651	0.001405	0.008879	-0.609863	0.130859	-0.518311
101.0	9.847431	-0.656128	0.076776	-0.007754	-0.008678	0.006962	-0.609619	0.128662	-0.51123
102.0	9.808397	-0.612319	0.085799	0.011095	-0.005841	0.002462	-0.605225	0.128662	-0.518066
103.0	9.838271	-0.54579	0.084287	0.003732	-0.012625	0.004482	-0.602783	0.126465	-0.513428
104.0	9.828316	-0.56818	0.082944	-0.001644	-0.01924	-0.002383	-0.612061	0.130859	-0.518311
105.0	9.818371	-0.590482	0.080972	-0.00776	-0.024845	0.002591	-0.609619	0.126465	-0.513428
106.0	9.852282	-0.63346	-0.018728	-0.006992	-0.016579	-0.000405	-0.607422	0.126465	-0.513428
107.0	9.830361	-0.623061	0.028877	-0.010822	-0.00907	-0.001904	-0.607666	0.133057	-0.513672
108.0	9.838116	-0.6535	0.013233	-0.022739	-0.011817	0.003571	-0.605225	0.128662	-0.515869
109.0	9.886415	-0.701803	0.055454	-0.020786	-0.018858	0.004087	-0.609619	0.128662	-0.515869
110.0	9.865119	-0.666076	0.047781	0.000907	-0.035145	0.005561	-0.612061	0.135254	-0.513672
111.0	9.889204	-0.624252	0.009531	0.010006	-0.038749	0.005546	-0.607666	0.133057	-0.513672
112.0	9.885586	-0.596851	-0.014072	0.007405	-0.041753	0.009516	-0.612061	0.130859	-0.525146
113.0	9.869743	-0.644329	-0.052153	0.011163	-0.047174	0.004592	-0.612061	0.130859	-0.51123
114.0	9.952658	-0.602075	-0.101989	0.009696	-0.051706	0.003139	-0.611816	0.128662	-0.51123
115.0	9.974396	-0.612656	-0.154647	0.007398	-0.023174	0.002535	-0.612061	0.133057	-0.51123
116.0	9.958549	-0.659705	-0.188557	0.016142	0.017781	0.002319	-0.605225	0.130859	-0.522949
117.0	9.921903	-0.562811	-0.161384	0.024531	0.040984	-0.002258	-0.607422	0.130859	-0.518311
118.0	9.903718	-0.580752	-0.088513	0.010451	0.041934	0.004211	-0.614502	0.135254	-0.513672
119.0	9.907322	-0.609059	-0.063792	0.013863	0.057998	-0.000805	-0.612061	0.130859	-0.513428
120.0	9.826573	-0.598832	0.001592	0.030995	0.064319	-0.002863	-0.609863	0.133057	-0.513672
121.0	9.796933	-0.557712	0.071632	0.024279	0.067566	-0.005318	-0.611816	0.128662	-0.513428
122.0	9.755022	-0.591542	0.127286	0.013401	0.058174	-0.002279	-0.609619	0.128662	-0.51123
123.0	9.73725	-0.583094	0.146527	0.015463	0.033192	-0.004633	-0.609375	0.124268	-0.520264
124.0	9.786207	-0.604827	0.138373	0.021298	0.00039	-0.000544	-0.609619	0.128662	-0.518066
125.0	9.825928	-0.623275	0.07377	0.018134	-0.023693	0.000566	-0.607666	0.135254	-0.516113
126.0	9.897557	-0.629954	-0.041196	0.020009	-0.024163	0.001552	-0.609619	0.128662	-0.51123
127.0	9.915273	-0.63812	-0.057688	0.022991	-0.014796	-0.000475	-0.609619	0.128662	-0.515869
128.0	9.929454	-0.618241	-0.092508	0.013446	0.005175	0.002406	-0.605225	0.133057	-0.515869
129.0	9.903267	-0.605871	-0.00825	0.000345	0.017745	0.004347	-0.612061	0.130859	-0.51123
130.0	9.83364	-0.654556	0.058444	0.002243	0.028959	0.002805	-0.611816	0.126465	-0.520264
131.0	9.815882	-0.646548	0.075697	0.011179	0.022322	-0.000634	-0.612061	0.130859	-0.513428
132.0	9.786118	-0.60581	0.140337	0.013109	0.0036	0.00242	-0.612061	0.130859	-0.513428
133.0	9.780386	-0.63071	0.105204	0.006505	-0.029652	0.004091	-0.612061	0.135254	-0.513672
134.0	9.812332	-0.619181	0.052539	0.008078	-0.043068	0.00268	-0.609863	0.130859	-0.518311
135.0	9.881211	-0.597346	0.03785	0.020579	-0.044703	0.011543	-0.607422	0.128662	-0.513428
136.0	9.913057	-0.586501	-0.015099	0.026738	-0.034313	0.00851	-0.605469	0.137451	-0.516113
137.0	9.885963	-0.575759	-0.056331	0.026057	-0.014406	0.008399	-0.603027	0.130859	-0.520508
138.0	9.875931	-0.598855	-0.056762	0.020063	-0.003199	0.007857	-0.612061	0.133057	-0.51123
139.0	9.83628	-0.580986	0.006899	0.008006	0.002729	0.007363	-0.607666	0.133057	-0.513672
140.0	9.839773	-0.609799	0.026943	0.006249	0.001429	0.007869	-0.614502	0.135254	-0.509033
141.0	9.860959	-0.646899	0.032273	0.008917	0.002338	0.010323	-0.612061	0.133057	-0.515869
142.0	9.876691	-0.600755	0.066339	0.014697	0.006352	0.005349	-0.609863	0.130859	-0.515869
143.0	9.847341	-0.6426	0.014246	0.013778	0.011234	0.009269	-0.612061	0.130859	-0.508789
144.0	9.876581	-0.602422	0.067572	0.026435	-0.008037	0.010343	-0.609619	0.126465	-0.520264
145.0	9.876522	-0.6035	0.066578	0.030259	-0.015551	0.011862	-0.605469	0.135254	-0.506836
146.0	9.924155	-0.545931	0.04933	0.033845	-0.019527	0.0104	-0.609863	0.133057	-0.515869
147.0	9.904767	-0.565782	-0.005432	0.034737	-0.013039	0.008875	-0.611816	0.126465	-0.510986
148.0	9.928259	-0.54981	0.013015	0.027669	-0.004475	0.001928	-0.607422	0.130859	-0.515869
149.0	9.904078	-0.592061	0.048234	0.013668	0.008505	0.000889	-0.609863	0.135254	-0.516113
150.0	9.880552	-0.608584	0.03034	0.004792	0.015465	-0.000617	-0.611816	0.128662	-0.513428
151.0	9.85218	-0.648293	0.100919	0.013259	0.013503	0.001349	-0.611816	0.126465	-0.513428
152.0	9.817434	-0.606356	0.077147	0.016916	0.002954	-0.000558	-0.612061	0.133057	-0.522949
153.0	9.760148	-0.579399	0.154777	0.019918	-0.017622	0.002052	-0.607422	0.128662	-0.518066
154.0	9.805561	-0.573917	0.122308	0.016564	-0.040242	0.00667	-0.614258	0.128662	-0.515869
155.0	9.827419	-0.585281	0.069176	0.015334	-0.04831	0.008217	-0.609619	0.128662	-0.515869
156.0	9.852767	-0.624674	0.035635	0.020267	-0.045996	0.006707	-0.614014	0.124268	-0.513184
157.0	9.866877	-0.605433	-0.003211	0.012135	-0.042461	0.004734	-0.609863	0.133057	-0.51123
158.0	9.898064	-0.619946	-0.002879	0.009822	-0.04868	0.006768	-0.60498	0.126465	-0.510986
159.0	9.97458	-0.628617	-0.032314	0.007755	-0.039869	0.004733	-0.611816	0.128662	-0.508789
160.0	9.919747	-0.631473	-0.059195	0.018107	-0.023742	0.000616	-0.614258	0.128662	-0.513428
161.0	9.894428	-0.59292	-0.032096	0.019915	-0.017638	0.00204	-0.609619	0.128662	-0.51123
162.0	9.913927	-0.574079	0.019059	0.014593	-0.02634	0.001641	-0.614258	0.130859	-0.515869
163.0	9.866733	-0.607393	-0.021604	0.014713	-0.02811	0.003137	-0.611816	0.126465	-0.508789
164.0	9.907948	-0.599382	-0.019416	0.022129	-0.016538	0.003008	-0.614014	0.12207	-0.513184
165.0	9.862631	-0.605633	0.009576	0.020695	-0.004875	0.005875	-0.611816	0.128662	-0.513428
166.0	9.827335	-0.589482	0.038693	0.012389	-0.004375	0.000478	-0.612061	0.135254	-0.511475
167.0	9.820886	-0.640109	0.05799	0.008346	-0.018765	0.007533	-0.609863	0.130859	-0.513428
168.0	9.862111	-0.632238	0.060259	0.015265	-0.023198	0.00162	-0.609619	0.128662	-0.506592
169.0	9.875706	-0.638239	0.077627	0.021573	-0.021461	0.004538	-0.607666	0.133057	-0.506592
170.0	9.883742	-0.643652	0.006862	0.030611	-0.029903	0.002601	-0.609863	0.130859	-0.515869
171.0	9.913768	-0.577129	0.002329	0.029258	-0.036206	0.002668	-0.609375	0.124268	-0.508545
172.0	9.903739	-0.599652	-0.000285	0.020842	-0.029429	0.002646	-0.616211	0.126465	-0.508789
173.0	9.897705	-0.62459	-0.036396	0.026327	-0.022198	-0.000411	-0.611816	0.128662	-0.513428
174.0	9.900131	-0.571586	-0.024897	0.022515	-0.026072	-0.0043	-0.612061	0.130859	-0.508789
175.0	9.890115	-0.59373	-0.0277	0.006155	-0.04266	0.001873	-0.609619	0.130859	-0.508789
176.0	9.929571	-0.587568	-0.149546	0.008126	-0.038024	-0.000156	-0.614014	0.126465	-0.508789
177.0	9.933158	-0.615619	-0.132311	0.014859	-0.018207	0.002075	-0.611816	0.126465	-0.510986
178.0	9.890665	-0.543606	-0.143779	0.017067	-0.005707	0.005391	-0.609375	0.124268	-0.510986
179.0	9.917931	-0.555598	-0.104802	0.003994	0.00692	0.00731	-0.611816	0.128662	-0.508789
180.0	9.841466	-0.548111	-0.077878	0.015724	0.02247	0.007578	-0.612061	0.130859	-0.51123
181.0	9.857203	-0.526942	0.012414	0.021143	0.036279	0.004939	-0.612061	0.130859	-0.506592
182.0	9.81592	-0.535682	0.012282	0.020617	0.043048	0.003887	-0.609863	0.133057	-0.513672
183.0	9.794318	-0.524979	0.064732	0.004331	0.027056	0.000189	-0.609619	0.126465	-0.506348
184.0	9.805499	-0.583425	0.071877	-0.003296	0.00075	-0.000485	-0.612061	0.130859	-0.51123
185.0	9.827104	-0.594169	0.022039	-0.004978	-0.018519	-0.002744	-0.614258	0.128662	-0.508789
186.0	9.875962	-0.616131	0.009671	0.00276	-0.028455	-0.002678	-0.616455	0.130859	-0.51123
187.0	9.866309	-0.612823	-0.047085	-0.00836	-0.034273	-0.002559	-0.607422	0.128662	-0.506592
188.0	9.883897	-0.620941	-0.065206	-0.018747	-0.032128	-0.00055	-0.614258	0.130859	-0.513428
189.0	9.883871	-0.620996	-0.068445	-0.01607	-0.031217	0.001895	-0.612061	0.130859	-0.506592
190.0	9.879921	-0.618372	-0.036956	-0.012127	-0.021941	-0.002171	-0.614014	0.126465	-0.506348
191.0	9.907514	-0.604365	-0.054711	-0.010003	-0.025947	0.001807	-0.611816	0.126465	-0.508789
192.0	9.866226	-0.612938	-0.060925	-0.013645	-0.015378	0.003695	-0.614258	0.130859	-0.51123
193.0	9.89353	-0.62456	-0.023613	-0.01235	-0.01389	0.001698	-0.611816	0.126465	-0.50415
194.0	9.838328	-0.652705	0.005244	-0.008989	-0.021223	0.001752	-0.607178	0.124268	-0.510986
195.0	9.84221	-0.655514	-0.031828	-0.000387	-0.036361	0.002841	-0.614258	0.133057	-0.501953
196.0	9.887314	-0.650248	-0.065798	0.00787	-0.041679	0.006299	-0.614014	0.126465	-0.513428
197.0	9.849854	-0.661665	-0.107997	0.014216	-0.039648	0.004264	-0.614502	0.135254	-0.509033
198.0	9.91127	-0.584163	-0.16266	0.012581	-0.031315	0.008632	-0.614258	0.128662	-0.506592
199.0	9.873597	-0.621106	-0.148873	-0.004155	-0.012626	0.005591	-0.614258	0.133057	-0.51123
200.0	9.852152	-0.610921	-0.100538	-0.005574	-0.000946	0.00844	-0.62085	0.126465	-0.513428
201.0	9.84825	-0.609228	-0.066375	0.004995	-4.8e-05	0.009837	-0.612061	0.130859	-0.506592
202.0	9.85455	-0.559943	-0.087364	0.007214	-0.010344	0.008449	-0.618652	0.126465	-0.515625
203.0	9.864521	-0.538535	-0.0893	0.00552	-0.018225	0.008545	-0.612061	0.130859	-0.506592
204.0	9.868298	-0.541862	-0.125216	0.00823	-0.017017	0.006045	-0.614258	0.130859	-0.508789
205.0	9.917025	-0.564797	-0.136539	0.006351	-0.005144	0.007413	-0.612061	0.135254	-0.504395
206.0	9.899472	-0.556901	-0.121382	0.010722	0.010825	0.0003	-0.616455	0.130859	-0.508789
207.0	9.871755	-0.596075	-0.050781	0.004405	0.009089	-0.002597	-0.612061	0.130859	-0.508789
208.0	9.85807	-0.590189	-0.069271	-0.003482	0.009105	-0.001554	-0.616455	0.130859	-0.506592
209.0	9.86558	-0.620675	-0.083117	-0.00647	-0.000264	0.000542	-0.611816	0.128662	-0.506592
210.0	9.855537	-0.643002	-0.082991	0.000185	-0.008353	0.001075	-0.614258	0.128662	-0.506592
211.0	9.869386	-0.623493	-0.118862	0.002465	-0.013833	0.001611	-0.612061	0.130859	-0.51123
212.0	9.886891	-0.632087	-0.134545	0.000711	-0.003728	0.004477	-0.614258	0.133057	-0.506592
213.0	9.855616	-0.618673	-0.139023	0.005088	0.005065	0.00682	-0.611816	0.128662	-0.506592
214.0	9.861779	-0.594663	-0.10478	0.004936	0.006537	0.01026	-0.612061	0.135254	-0.511475
215.0	9.84036	-0.584766	-0.054718	0.001578	0.013873	0.010205	-0.618652	0.130859	-0.506592
216.0	9.816566	-0.602286	-0.072454	0.008108	0.007551	0.00924	-0.609619	0.128662	-0.506592
217.0	9.812676	-0.600561	-0.037889	0.012543	-0.001643	0.008815	-0.612061	0.130859	-0.50415
218.0	9.82267	-0.579147	-0.039126	0.003235	-0.012745	0.008014	-0.614502	0.135254	-0.511475
219.0	9.871563	-0.576835	-0.105153	-0.002222	-0.019681	0.006154	-0.614258	0.133057	-0.506592
220.0	9.878999	-0.607724	-0.121464	0.003597	-0.022276	0.000711	-0.609619	0.128662	-0.51123
221.0	9.917825	-0.627158	-0.187428	0.001566	-0.020332	0.003173	-0.611816	0.128662	-0.50415
222.0	9.927685	-0.630454	-0.135279	-0.006287	-0.008615	0.001622	-0.614258	0.130859	-0.508789
223.0	9.90391	-0.647106	-0.154521	-0.011183	0.000773	0.000569	-0.616699	0.133057	-0.506592
224.0	9.913959	-0.624908	-0.154971	0.003976	0.002399	0.000438	-0.614502	0.135254	-0.511475
225.0	9.865177	-0.60305	-0.14465	0.00891	-0.002468	0.008353	-0.609619	0.130859	-0.506592
226.0	9.875177	-0.581693	-0.145249	0.006755	0.001246	0.009315	-0.616455	0.128662	-0.506592
227.0	9.851207	-0.62445	-0.109627	0.008512	0.002541	0.008795	-0.616699	0.135254	-0.504395
228.0	9.878744	-0.611278	-0.124402	0.007527	0.00951	0.006257	-0.616211	0.126465	-0.50415
229.0	9.888621	-0.614832	-0.069432	0.011597	0.01702	0.003676	-0.611816	0.126465	-0.50415
230.0	9.847313	-0.623607	-0.071618	0.016159	0.017457	0.007094	-0.614258	0.133057	-0.506592
231.0	9.874674	-0.635734	-0.03143	0.006573	0.009599	0.008238	-0.609619	0.130859	-0.50415
232.0	9.854714	-0.655365	-0.083974	0.003296	-0.000754	0.000479	-0.618652	0.130859	-0.508789
233.0	9.87846	-0.639009	-0.06548	0.003202	-0.005866	0.003499	-0.616455	0.128662	-0.508789
234.0	9.858504	-0.658412	-0.118989	0.007329	-0.004942	0.000497	-0.616699	0.133057	-0.506592
235.0	9.868547	-0.636361	-0.120324	0.013365	-0.011371	0.002995	-0.614258	0.130859	-0.506592
236.0	9.892453	-0.594839	-0.157263	0.012742	-0.021109	0.002616	-0.609619	0.130859	-0.506592
237.0	9.902637	-0.547842	-0.213331	0.007765	-0.005429	0.006917	-0.614014	0.126465	-0.508789
238.0	9.910091	-0.578829	-0.226416	0.011297	0.027139	0.001088	-0.609863	0.133057	-0.506592
239.0	9.874915	-0.587565	-0.139288	0.005791	0.038192	0.001989	-0.614258	0.128662	-0.50415
240.0	9.874946	-0.587963	-0.135322	0.004562	0.041521	0.00591	-0.607666	0.135254	-0.504395
241.0	9.868534	-0.638441	-0.109897	0.012365	0.054954	0.00077	-0.614258	0.128662	-0.506592
242.0	9.805893	-0.63568	-0.059016	0.031717	0.062302	-0.000422	-0.614014	0.126465	-0.510986
243.0	9.808214	-0.607925	0.015006	0.033748	0.060345	-0.002875	-0.614258	0.133057	-0.509033
244.0	9.759441	-0.585466	0.029835	0.022419	0.032925	0.000969	-0.614258	0.128662	-0.513428
245.0	9.77049	-0.644167	0.037719	0.009212	0.005983	0.003828	-0.616455	0.130859	-0.508789
246.0	9.784465	-0.624854	0.00275	0.011021	-0.010705	0.000559	-0.609619	0.126465	-0.510986
247.0	9.791944	-0.655606	-0.013042	0.002291	-0.023752	0.002737	-0.609863	0.133057	-0.504395
248.0	9.795825	-0.658547	-0.050438	-0.008381	-0.041144	0.002018	-0.612061	0.135254	-0.513672
249.0	9.868277	-0.664586	-0.046475	-0.009224	-0.054223	0.003169	-0.614502	0.135254	-0.504395
250.0	9.934786	-0.670488	-0.130795	-0.001273	-0.049437	0.004053	-0.611816	0.128662	-0.513428
251.0	9.945023	-0.623452	-0.189711	0.013651	-0.032893	0.003268	-0.616211	0.126465	-0.506348
252.0	9.958879	-0.604294	-0.226574	0.012285	-0.009516	0.00349	-0.609863	0.133057	-0.504395
253.0	9.931022	-0.643754	-0.156516	0.008425	0.016002	0.004688	-0.614502	0.135254	-0.506836
254.0	9.895716	-0.652534	-0.070741	0.012158	0.021929	0.002123	-0.618652	0.130859	-0.508789
255.0	9.878174	-0.644441	-0.054431	0.020739	0.006774	0.003241	-0.614258	0.133057	-0.506592
256.0	9.846675	-0.656046	-0.004453	0.024674	-0.002524	0.006293	-0.614258	0.128662	-0.508789
257.0	9.850494	-0.659342	-0.039177	0.007692	-0.010244	0.005015	-0.614258	0.133057	-0.506592
258.0	9.809166	-0.668072	-0.04404	0.006616	-0.008386	0.005493	-0.611816	0.128662	-0.506592
259.0	9.805522	-0.640799	-0.06494	0.013207	-0.009899	0.006457	-0.616455	0.130859	-0.508789
260.0	9.856845	-0.611011	-0.062616	0.007813	-0.012011	0.006519	-0.614502	0.139648	-0.509277
261.0	9.870711	-0.592355	-0.098616	0.007321	-0.012109	0.00998	-0.614258	0.133057	-0.501953
262.0	9.911944	-0.585069	-0.095193	0.014296	-0.000356	0.008304	-0.614258	0.130859	-0.506592
263.0	9.894378	-0.577505	-0.079768	0.021733	0.011206	0.008109	-0.612061	0.130859	-0.50415
264.0	9.866722	-0.5922	-0.063343	0.02259	0.006005	0.009158	-0.612061	0.130859	-0.508789
265.0	9.901734	-0.609726	-0.091981	0.010704	0.010516	0.005227	-0.612061	0.133057	-0.506592
266.0	9.88153	-0.654669	-0.089465	0.012461	0.011807	0.004705	-0.609863	0.133057	-0.509033
267.0	9.846456	-0.638308	-0.05888	0.017908	0.007331	0.004236	-0.609619	0.130859	-0.508789
268.0	9.852943	-0.588681	-0.0793	0.006097	-0.001612	0.004427	-0.616455	0.128662	-0.51123
269.0	9.87402	-0.625399	-0.074119	-0.000372	-0.001861	0.004964	-0.616455	0.130859	-0.508789
270.0	9.901626	-0.61186	-0.089405	0.009371	0.0045	0.000376	-0.616699	0.133057	-0.506592
271.0	9.897762	-0.609346	-0.054088	0.012068	0.016815	0.005135	-0.614258	0.133057	-0.509033
272.0	9.856457	-0.617849	-0.056389	0.008925	0.016093	0.001214	-0.607422	0.130859	-0.506592
273.0	9.815154	-0.626261	-0.059336	0.00053	0.00463	0.003392	-0.612061	0.133057	-0.501953
274.0	9.846331	-0.640612	-0.054603	0.000241	-0.003529	0.003008	-0.614258	0.130859	-0.50415
275.0	9.849871	-0.668818	-0.035	2e-05	-0.006869	0.004535	-0.612061	0.130859	-0.50415
276.0	9.836173	-0.663578	-0.055452	0.002906	-0.014023	0.003131	-0.614258	0.128662	-0.50415
277.0	9.84653	-0.616619	-0.111973	0.00364	-0.017458	0.002679	-0.618652	0.130859	-0.506592
278.0	9.89519	-0.639647	-0.124043	0.004464	-0.022943	0.008673	-0.616455	0.128662	-0.508789
279.0	9.918912	-0.623612	-0.107003	-4.8e-05	-0.01169	0.002626	-0.614014	0.126465	-0.501709
280.0	9.926553	-0.629681	-0.176154	0.009514	-0.004137	0.006414	-0.612061	0.133057	-0.504395
281.0	9.891491	-0.613324	-0.146394	0.010979	0.007268	0.003289	-0.614258	0.130859	-0.51123
282.0	9.891482	-0.613733	-0.145262	0.008095	0.014423	0.004692	-0.611816	0.128662	-0.50415
283.0	9.887631	-0.611362	-0.109326	0.005824	0.019906	0.004139	-0.614258	0.130859	-0.50415
284.0	9.881079	-0.661841	-0.08645	0.00946	0.020721	0.0046	-0.611816	0.126465	-0.506348
285.0	9.832353	-0.639795	-0.074193	0.020982	0.021496	0.004027	-0.614258	0.128662	-0.51123
286.0	9.856107	-0.623698	-0.053119	0.020368	0.023165	0.005984	-0.612061	0.130859	-0.508789
287.0	9.82491	-0.610007	-0.055523	0.005242	0.021857	0.001152	-0.616455	0.128662	-0.508789
288.0	9.824904	-0.61023	-0.054088	-0.00384	0.00725	0.003379	-0.611816	0.128662	-0.508789
289.0	9.800771	-0.652222	-0.018293	0.004336	-0.002903	0.004953	-0.609619	0.128662	-0.506592
290.0	9.828393	-0.638784	-0.034681	0.011521	-0.017497	0.001657	-0.614258	0.133057	-0.501953
291.0	9.881289	-0.639401	-0.134949	0.006929	-0.018216	0.003175	-0.616455	0.130859	-0.508789
292.0	9.898786	-0.648163	-0.150504	0.011028	0.00068	0.00289	-0.616455	0.130859	-0.51123
293.0	9.863395	-0.656458	-0.065649	0.012908	0.018476	0.001644	-0.609863	0.130859	-0.51123
294.0	9.852084	-0.623381	-0.015688	0.001011	0.015847	0.007181	-0.609863	0.133057	-0.501953
295.0	9.814289	-0.65982	0.000984	0.001314	-0.005388	0.002537	-0.611816	0.126465	-0.501709
296.0	9.841912	-0.646422	-0.015603	0.007388	-0.018406	0.00466	-0.609863	0.133057	-0.513672
297.0	9.859752	-0.630108	-0.086935	0.008204	-0.028145	-0.001134	-0.612061	0.133057	-0.499756
298.0	9.871291	-0.63872	-0.192808	0.00815	-0.039834	0.001501	-0.612061	0.130859	-0.50415
299.0	9.940442	-0.5921	-0.261982	0.017473	-0.028759	0.002278	-0.614014	0.126465	-0.513428
300.0	9.971584	-0.606508	-0.258147	0.024722	0.009134	0.003669	-0.614258	0.133057	-0.506592
301.0	9.936608	-0.589913	-0.225553	0.016914	0.050543	0.002135	-0.611816	0.128662	-0.50415
302.0	9.891204	-0.620489	-0.135119	0.014785	0.065665	0.00539	-0.612061	0.130859	-0.508789
303.0	9.887377	-0.617997	-0.093979	0.010518	0.073378	0.002345	-0.609863	0.135254	-0.506836
304.0	9.838284	-0.620735	-0.021962	0.02291	0.080342	0.005151	-0.609619	0.128662	-0.51123
305.0	9.813295	-0.581746	0.014252	0.026563	0.070021	-0.001624	-0.616455	0.130859	-0.506592
306.0	9.793034	-0.626178	0.021612	0.021278	0.04789	0.002181	-0.609863	0.130859	-0.51123
307.0	9.796994	-0.629253	-0.008979	0.015349	0.022896	0.001088	-0.611816	0.128662	-0.508789
308.0	9.828156	-0.643352	-0.002378	0.017208	0.01102	-0.000227	-0.614258	0.133057	-0.509033
309.0	9.832137	-0.646386	-0.035615	0.018518	0.005636	0.002316	-0.614258	0.128662	-0.506592
310.0	9.84571	-0.652182	-0.015596	0.008071	0.003011	0.002395	-0.612061	0.130859	-0.506592
311.0	9.85713	-0.686063	-0.063786	0.001309	-0.005383	0.002544	-0.609619	0.128662	-0.51123
312.0	9.898404	-0.678074	-0.06043	0.001242	-0.010203	0.00064	-0.612061	0.133057	-0.509033
313.0	9.898911	-0.653391	-0.115601	0.01249	-0.006192	0.00202	-0.609619	0.130859	-0.506592
314.0	9.936723	-0.617722	-0.131816	0.017834	0.002487	0.002364	-0.609619	0.130859	-0.50415
315.0	9.923124	-0.612476	-0.150668	0.021078	0.008306	0.003253	-0.609863	0.133057	-0.506592
316.0	9.919136	-0.609952	-0.114558	0.019511	0.028336	0.004934	-0.616455	0.128662	-0.508789
317.0	9.873296	-0.640481	-0.026427	0.018336	0.043355	0.006194	-0.614258	0.130859	-0.508789
318.0	9.861236	-0.631858	0.080444	0.022631	0.042763	-0.000229	-0.612061	0.130859	-0.518311
319.0	9.837502	-0.64869	0.064925	0.025686	0.020412	0.004055	-0.607422	0.130859	-0.508789
320.0	9.803656	-0.687712	0.048168	0.016917	0.002856	-0.000588	-0.609619	0.130859	-0.508789
321.0	9.867176	-0.666247	-0.050953	0.022752	-0.006635	-0.001446	-0.614014	0.126465	-0.513428
322.0	9.863746	-0.638601	-0.070906	0.027887	0.010108	0.002725	-0.612061	0.130859	-0.513428
323.0	9.870459	-0.588795	-0.090476	0.019994	0.017011	-0.000817	-0.609619	0.130859	-0.506592
324.0	9.891489	-0.625146	-0.08264	0.016149	0.024267	0.002537	-0.614014	0.126465	-0.508789
325.0	9.887427	-0.622648	-0.045511	0.026499	0.033192	0.007803	-0.609619	0.128662	-0.508789
326.0	9.879938	-0.59249	-0.02792	0.03955	0.038746	0.003735	-0.616455	0.130859	-0.51123
327.0	9.868373	-0.55912	0.024047	0.036372	0.037745	0.004749	-0.612061	0.133057	-0.509033
328.0	9.81692	-0.589874	0.024396	0.024051	0.0356	0.003822	-0.616455	0.128662	-0.508789
329.0	9.822928	-0.56493	0.061534	0.017808	0.038695	0.002797	-0.609863	0.130859	-0.51123
330.0	9.808641	-0.584254	0.099581	0.013931	0.023156	0.001576	-0.607422	0.130859	-0.513672
331.0	9.81686	-0.590478	0.032398	0.00942	-0.002104	2.1e-05	-0.614258	0.130859	-0.515869
332.0	9.893393	-0.599428	0.006681	0.014229	-0.016311	-0.00074	-0.609619	0.128662	-0.515869
333.0	9.929382	-0.591898	-0.078086	0.01594	-0.008451	-0.000871	-0.612061	0.133057	-0.513672
334.0	9.947007	-0.600453	-0.092611	0.010054	0.007618	0.000352	-0.609619	0.126465	-0.510986
335.0	9.91249	-0.663869	-0.054216	0.010753	0.029003	-0.001979	-0.611816	0.128662	-0.51123
336.0	9.883263	-0.62138	0.011439	0.007981	0.034401	0.000899	-0.612061	0.130859	-0.51123
337.0	9.827711	-0.64854	0.045398	0.007804	0.031335	-0.002506	-0.609863	0.130859	-0.513428
338.0	9.820213	-0.61761	0.061333	0.004154	0.012286	-0.000703	-0.607666	0.133057	-0.513672
339.0	9.814214	-0.642914	0.028979	0.013345	0.006853	0.000862	-0.609863	0.130859	-0.51123
340.0	9.841994	-0.629302	0.014619	0.018626	0.010701	-0.000688	-0.614258	0.130859	-0.508789
341.0	9.828508	-0.62377	-0.003855	0.013574	0.01018	-0.000675	-0.609619	0.126465	-0.513428
342.0	9.842002	-0.629119	0.016617	0.010675	0.005938	-0.001589	-0.611816	0.128662	-0.513428
343.0	9.859654	-0.637588	0.00304	0.013916	0.011751	-0.000702	-0.614258	0.128662	-0.513428
344.0	9.869795	-0.615377	0.003235	0.014763	0.006562	0.000374	-0.609375	0.124268	-0.515625
345.0	9.894935	-0.654961	-0.024623	0.017596	-0.000856	0.003957	-0.609619	0.126465	-0.513428
346.0	9.905044	-0.63328	-0.025029	0.021633	0.006344	0.006301	-0.612061	0.130859	-0.518311
347.0	9.905009	-0.633879	-0.023963	0.014658	0.012875	0.005698	-0.614014	0.124268	-0.510986
348.0	9.869677	-0.617247	0.006545	0.01029	0.015499	0.005655	-0.612061	0.130859	-0.51123
349.0	9.907579	-0.582126	-0.008264	0.01301	0.009837	0.007728	-0.609619	0.128662	-0.508789
350.0	9.883918	-0.599573	-0.026369	0.006135	0.003217	0.006363	-0.614258	0.130859	-0.515869
351.0	9.877909	-0.625648	-0.05881	0.012276	0.013269	0.008163	-0.609375	0.124268	-0.515625
352.0	9.873684	-0.623233	-0.022647	0.022902	0.025776	0.006956	-0.614258	0.128662	-0.51123
353.0	9.861951	-0.58984	0.028147	0.015475	0.032489	0.004864	-0.612061	0.130859	-0.508789
354.0	9.792823	-0.612068	0.042507	0.003218	0.035178	0.005804	-0.609619	0.130859	-0.508789
355.0	9.778397	-0.631648	0.080323	0.005531	0.023124	0.006017	-0.609619	0.128662	-0.513428
356.0	9.774118	-0.629132	0.115914	0.007269	0.006175	0.007798	-0.611816	0.124268	-0.513184
357.0	9.819566	-0.624859	0.086326	0.006179	-0.003359	0.00599	-0.609619	0.128662	-0.508789
358.0	9.827971	-0.631952	0.017419	0.002083	-0.010816	0.008589	-0.611816	0.126465	-0.515625
359.0	9.869199	-0.624527	0.020805	0.001519	-0.008879	0.005591	-0.611816	0.124268	-0.510986
360.0	9.892776	-0.608332	0.038717	-0.003533	-0.009394	0.005598	-0.611816	0.124268	-0.513184
361.0	9.907738	-0.670454	0.010663	0.010093	-0.005804	0.004552	-0.607422	0.130859	-0.51123
362.0	9.904433	-0.64317	-0.010429	0.026604	-0.009372	0.002152	-0.609863	0.133057	-0.51123
363.0	9.924744	-0.599126	-0.013126	0.019558	-0.014493	0.004218	-0.612061	0.130859	-0.515869
364.0	9.895125	-0.641764	-0.066503	0.005542	-0.013077	0.00567	-0.609863	0.133057	-0.515869
365.0	9.916947	-0.654027	-0.115597	0.012772	0.001942	0.002438	-0.611816	0.128662	-0.513428
366.0	9.866658	-0.575434	-0.058173	0.01087	0.020389	0.00408	-0.609619	0.128662	-0.515869
367.0	9.856463	-0.598302	-0.054624	0.010718	0.033281	0.009775	-0.609619	0.126465	-0.508789
368.0	9.844728	-0.564922	-0.003348	0.00959	0.037151	0.003778	-0.612061	0.130859	-0.525146
369.0	9.840469	-0.562113	0.034498	0.006753	0.037732	0.004755	-0.607422	0.128662	-0.513428
370.0	9.847924	-0.593429	0.024759	0.010728	0.040105	0.005211	-0.609619	0.128662	-0.518066
371.0	9.853789	-0.568642	0.062297	0.019132	0.044668	0.007611	-0.607422	0.130859	-0.515869
372.0	9.806548	-0.602906	0.028854	0.01305	0.039441	0.007699	-0.614014	0.124268	-0.515625
373.0	9.823121	-0.63645	0.072579	0.004928	0.031623	0.003384	-0.60498	0.126465	-0.513428
374.0	9.785026	-0.672502	0.090954	0.009494	0.014096	0.004206	-0.605225	0.130859	-0.51123
375.0	9.827853	-0.636045	0.163189	0.015761	-0.006973	0.002627	-0.607178	0.124268	-0.513184
376.0	9.867527	-0.657056	0.098104	-0.004669	-0.037135	0.006107	-0.612061	0.133057	-0.522949
377.0	9.871819	-0.660715	0.059423	-0.005091	-0.054923	0.001989	-0.611816	0.128662	-0.506592
378.0	9.95863	-0.648138	0.028207	0.003856	-0.063693	0.00513	-0.609619	0.130859	-0.506592
379.0	9.966541	-0.574596	-0.053243	-0.000258	-0.04635	0.005797	-0.609619	0.128662	-0.513428
380.0	9.940163	-0.644823	-0.088185	0.00115	-0.021843	0.00337	-0.607666	0.133057	-0.518311
381.0	9.900596	-0.624616	-0.026213	0.006411	-3.6e-05	0.004451	-0.611816	0.128662	-0.513428
382.0	9.873509	-0.634034	0.11154	0.007222	0.008182	0.001335	-0.609619	0.128662	-0.513428
383.0	9.831263	-0.66639	0.161773	0.000323	-0.009826	-0.002287	-0.605225	0.128662	-0.506592
384.0	9.803481	-0.679633	0.174676	0.011446	-0.040293	-0.002699	-0.609863	0.135254	-0.520752
385.0	9.856529	-0.705287	0.126535	0.018393	-0.058235	-0.004332	-0.602783	0.126465	-0.515625
386.0	9.855699	-0.709207	-0.000924	0.021915	-0.055684	-0.005363	-0.607666	0.133057	-0.515869
387.0	9.889556	-0.669954	0.011531	0.027985	-0.057297	-0.000882	-0.611816	0.126465	-0.510986
388.0	9.854319	-0.652545	0.035134	0.015732	-0.054597	6.1e-05	-0.612061	0.130859	-0.513428
389.0	9.903053	-0.675432	0.020286	0.017372	-0.058402	0.002607	-0.60498	0.124268	-0.506348
390.0	9.903843	-0.651047	-0.040039	0.040739	-0.059955	-0.00528	-0.614258	0.130859	-0.508789
391.0	9.933651	-0.608248	0.006414	0.046819	-0.054739	-0.005384	-0.614258	0.128662	-0.508789
392.0	9.92421	-0.605818	-0.05201	0.030272	-0.044575	-0.002599	-0.614258	0.128662	-0.508789
393.0	9.886291	-0.64082	-0.039688	0.019989	-0.041845	-0.01054	-0.611816	0.128662	-0.51123
394.0	9.920855	-0.681174	-0.017919	0.022595	-0.03893	-0.014554	-0.611816	0.124268	-0.506348
395.0	9.96563	-0.699164	0.002752	0.034615	-0.04497	-0.013954	-0.609619	0.130859	-0.506592
396.0	9.979891	-0.679089	-0.03635	0.052786	-0.040956	-0.011599	-0.614258	0.128662	-0.508789
397.0	9.990699	-0.631733	-0.095305	0.060352	-0.0312	-0.010335	-0.611816	0.126465	-0.501709
398.0	9.938615	-0.580574	-0.108525	0.053793	-0.018256	-0.009111	-0.611816	0.126465	-0.508789
399.0	9.899548	-0.558868	-0.045853	0.045315	0.001749	-0.008537	-0.614014	0.126465	-0.506348
400.0	9.834557	-0.583216	-0.067311	0.054024	0.014475	-0.005869	-0.616455	0.128662	-0.513428
401.0	9.776315	-0.557977	-0.109683	0.057083	0.017202	-0.008402	-0.611816	0.124268	-0.510986
402.0	9.725819	-0.501952	0.002192	0.032837	0.00113	-0.006015	-0.605225	0.128662	-0.51123
403.0	9.71911	-0.551189	0.022632	0.000917	-0.029775	-0.001796	-0.609619	0.126465	-0.506348
404.0	9.761661	-0.599464	-0.024039	0.009901	-0.056551	-0.001204	-0.618408	0.12207	-0.503906
405.0	9.785899	-0.558604	-0.066655	0.024691	-0.074846	0.00116	-0.611816	0.126465	-0.50415
406.0	9.832256	-0.610261	-0.151286	0.032975	-0.091138	-0.00737	-0.611816	0.128662	-0.508789
407.0	9.905008	-0.591615	-0.207012	0.017804	-0.110929	-0.004875	-0.609375	0.124268	-0.506348
408.0	9.961226	-0.620826	-0.294714	0.008743	-0.088996	-0.007322	-0.612061	0.130859	-0.506592
409.0	9.971205	-0.597831	-0.303005	0.026647	-0.056641	-0.010128	-0.616211	0.12207	-0.503906
410.0	9.883648	-0.552907	-0.234654	0.025854	-0.03979	-0.01398	-0.62085	0.126465	-0.510986
411.0	9.865882	-0.566702	-0.169352	-0.011256	-0.044637	-0.013202	-0.614014	0.126465	-0.50415
412.0	9.831692	-0.628316	-0.136975	-0.023485	-0.059944	-0.01475	-0.61377	0.12207	-0.503906
413.0	9.814042	-0.64197	-0.073731	-0.012997	-0.063948	-0.015196	-0.609375	0.12207	-0.499268
414.0	9.782886	-0.626495	-0.085966	0.003487	-0.085821	-0.015247	-0.618408	0.124268	-0.499268
415.0	9.838045	-0.59797	-0.127438	0.028507	-0.116071	-0.018603	-0.614258	0.128662	-0.501953
416.0	9.900395	-0.600941	-0.183572	0.010637	-0.107819	-0.003859	-0.614258	0.128662	-0.50415
417.0	9.911181	-0.635042	-0.240818	0.008613	-0.087577	-0.003837	-0.614014	0.124268	-0.503906
418.0	9.889988	-0.622571	-0.19931	0.012185	-0.062146	-0.000531	-0.614014	0.126465	-0.506348
419.0	9.824725	-0.671746	-0.171745	0.020219	-0.052541	0.002138	-0.62085	0.128662	-0.499512
420.0	9.799909	-0.632464	-0.149526	0.01705	-0.071806	0.005611	-0.618408	0.124268	-0.494629
421.0	9.764971	-0.615583	-0.12842	0.004432	-0.100396	0.006933	-0.618408	0.12207	-0.506348
422.0	9.809641	-0.611462	-0.169431	0.001441	-0.109518	0.004237	-0.62085	0.126465	-0.501709
423.0	9.729605	-0.575228	-0.174336	0.004688	-0.103706	0.00506	-0.616211	0.126465	-0.494873
424.0	9.749556	-0.531522	-0.189391	0.012654	-0.153593	0.008249	-0.62085	0.126465	-0.49707
425.0	9.838617	-0.523048	-0.26779	-0.00254	-0.184922	0.00875	-0.620361	0.117432	-0.496826
426.0	9.907182	-0.558839	-0.345204	0.000829	-0.180665	0.006168	-0.62085	0.126465	-0.499512
427.0	10.040371	-0.545601	-0.455508	0.01375	-0.162218	0.007536	-0.627686	0.126221	-0.487793
428.0	10.046589	-0.520615	-0.436874	-0.008378	-0.120831	0.007252	-0.618652	0.126465	-0.490234
429.0	10.015731	-0.588058	-0.443774	-0.029202	-0.096507	0.012342	-0.623047	0.124023	-0.49707
430.0	9.984967	-0.655251	-0.448561	-0.018539	-0.07865	0.002836	-0.621094	0.130859	-0.492676
431.0	9.970523	-0.650484	-0.475025	-0.000628	-0.064728	0.007153	-0.625488	0.128662	-0.494873
432.0	10.007651	-0.615285	-0.497876	0.007993	-0.038247	0.000399	-0.622803	0.121826	-0.49707
433.0	9.952126	-0.618469	-0.52056	0.019836	0.025165	0.002491	-0.62085	0.128662	-0.492676
434.0	9.853182	-0.593666	-0.406181	0.034485	0.05157	0.003548	-0.627686	0.126221	-0.487793
435.0	9.816646	-0.540054	-0.236026	0.028654	0.043038	0.001889	-0.618652	0.128662	-0.488037
436.0	9.787123	-0.573906	-0.127337	0.021969	0.021404	0.001579	-0.625244	0.121826	-0.49707
437.0	9.763784	-0.614655	-0.08959	0.025193	-0.008924	-0.00259	-0.618652	0.126465	-0.490234
438.0	9.770009	-0.621692	-0.159851	0.02699	-0.032573	-0.000987	-0.625244	0.126221	-0.49707
439.0	9.803455	-0.61552	-0.24819	0.016721	-0.043543	0.00045	-0.625488	0.132813	-0.48584
440.0	9.872072	-0.650723	-0.312183	2.6e-05	-0.04302	-0.000305	-0.618652	0.126465	-0.494873
441.0	9.919509	-0.649453	-0.381487	0.002059	-0.033318	-0.00554	-0.618408	0.12207	-0.492432
442.0	9.967006	-0.647908	-0.448736	0.018668	-0.002296	-0.00664	-0.622803	0.119629	-0.492188
443.0	9.99749	-0.637596	-0.497365	0.028053	0.038586	-0.006423	-0.623047	0.126221	-0.492432
444.0	9.987722	-0.659345	-0.489638	0.035302	0.083213	-0.005288	-0.623047	0.126465	-0.494873
445.0	9.957815	-0.668697	-0.428582	0.037402	0.122453	-0.005898	-0.623047	0.124023	-0.494629
446.0	9.910466	-0.612806	-0.303593	0.042954	0.140611	0.002929	-0.62085	0.124268	-0.494629
447.0	9.870197	-0.64498	-0.236873	0.046623	0.153071	0.000584	-0.620605	0.124023	-0.48999
448.0	9.842825	-0.601669	-0.160066	0.051924	0.131959	0.001134	-0.62085	0.124268	-0.499268
449.0	9.835839	-0.570942	-0.133896	0.055045	0.121219	0.002902	-0.614014	0.126465	-0.501709
450.0	9.818216	-0.538551	-0.162819	0.057986	0.100995	-0.003954	-0.623047	0.124268	-0.501709
451.0	9.863632	-0.590452	-0.229687	0.05905	0.099316	-0.009337	-0.620605	0.12207	-0.501709
452.0	9.880742	-0.541353	-0.187455	0.043427	0.116231	-0.013111	-0.623047	0.126465	-0.49707
453.0	9.802412	-0.607181	-0.105873	0.030415	0.129214	-0.016311	-0.618652	0.130859	-0.506592
454.0	9.71644	-0.61824	-0.066431	0.03735	0.111163	-0.017811	-0.618652	0.126465	-0.501709
455.0	9.748005	-0.654115	0.002522	0.020323	0.073562	-0.013626	-0.616211	0.12207	-0.499268
456.0	9.745128	-0.682401	-0.058206	0.00733	0.050237	-0.016808	-0.614014	0.124268	-0.503906
457.0	9.803089	-0.60098	-0.073581	0.022261	0.048427	-0.015376	-0.611572	0.12207	-0.506348
458.0	9.84803	-0.571748	-0.154267	0.033634	0.050666	-0.01255	-0.618164	0.115479	-0.503662
459.0	9.844394	-0.519919	-0.225039	0.044803	0.049795	-0.013087	-0.620605	0.119873	-0.501465
460.0	9.95104	-0.461763	-0.250055	0.041758	0.047068	-0.010515	-0.618408	0.119873	-0.499268
461.0	9.954895	-0.464618	-0.278098	0.027362	0.071802	-0.011146	-0.616211	0.12207	-0.506348
462.0	10.007536	-0.513339	-0.258125	0.028933	0.099657	-0.015418	-0.614014	0.12207	-0.508545
463.0	10.001474	-0.561062	-0.224106	0.034479	0.129875	-0.019279	-0.615967	0.117676	-0.499023
464.0	9.974318	-0.572057	-0.194503	0.028688	0.139792	-0.028414	-0.611572	0.117676	-0.503662
465.0	9.947149	-0.582388	-0.164748	0.040738	0.133913	-0.032707	-0.61377	0.117676	-0.503662
466.0	9.940096	-0.548062	-0.138022	0.050369	0.135058	-0.034227	-0.61377	0.117676	-0.503662
467.0	9.878057	-0.516972	-0.134318	0.056311	0.141983	-0.0359	-0.61377	0.117676	-0.501465
468.0	9.847213	-0.499798	-0.125182	0.058982	0.14288	-0.033434	-0.609375	0.12207	-0.510986
469.0	9.781122	-0.465274	-0.086768	0.058478	0.154238	-0.027817	-0.614014	0.12207	-0.508545
470.0	9.749598	-0.472163	-0.021073	0.041289	0.166106	-0.023206	-0.616211	0.12207	-0.510986
471.0	9.701227	-0.551067	0.068122	0.029963	0.150247	-0.01679	-0.609375	0.12207	-0.515625
472.0	9.734107	-0.533012	0.153449	0.026019	0.118204	-0.016807	-0.609375	0.12207	-0.508545
473.0	9.866164	-0.51407	0.107001	0.038206	0.069368	-0.016293	-0.61377	0.117676	-0.512939
474.0	9.819911	-0.524402	0.022692	0.040346	0.081693	-0.008253	-0.609375	0.119873	-0.506104
475.0	9.8155	-0.416136	-0.000536	0.042346	0.068059	-0.007828	-0.61377	0.119873	-0.513184
476.0	9.844774	-0.372299	0.0568	-0.010682	0.058189	0.002645	-0.61377	0.119873	-0.517822
477.0	9.828001	-0.444261	0.086026	-0.019017	0.05167	0.006762	-0.606934	0.115479	-0.512939
478.0	9.85241	-0.507839	0.119345	0.010363	0.055034	0.003828	-0.611572	0.117676	-0.515381
479.0	9.885288	-0.484556	0.318278	0.004478	0.041505	0.005197	-0.609131	0.115479	-0.512939
480.0	9.911598	-0.501971	0.239553	-0.026531	0.030483	0.003405	-0.611572	0.117676	-0.512939
481.0	9.90114	-0.531528	0.121178	-0.015047	0.014934	-0.001013	-0.607178	0.124268	-0.518066
482.0	9.963109	-0.566383	0.01137	0.014625	0.001491	0.003486	-0.609375	0.119873	-0.517822
483.0	10.043196	-0.499877	-0.055048	0.018847	0.023427	0.006311	-0.609131	0.117676	-0.515381
484.0	9.960755	-0.517423	-0.059525	0.015232	0.057064	0.007266	-0.606934	0.117676	-0.524658
485.0	9.871783	-0.57688	0.0816	0.019104	0.049748	0.004052	-0.609131	0.115479	-0.508301
486.0	9.882748	-0.635381	0.09387	0.025088	0.027091	0.002791	-0.606934	0.117676	-0.52002
487.0	9.829081	-0.719467	0.082749	0.052649	0.03575	0.000721	-0.602539	0.117676	-0.513184
488.0	9.767901	-0.668909	0.020989	0.08411	0.053345	-0.000599	-0.606934	0.119873	-0.517822
489.0	9.726898	-0.566818	0.078962	0.077341	0.04964	0.006395	-0.606689	0.113281	-0.510498
490.0	9.714609	-0.532488	0.130616	0.067053	0.043408	0.014428	-0.607178	0.12207	-0.517822
491.0	9.73451	-0.482086	0.253771	0.073727	0.033382	0.02171	-0.602295	0.115479	-0.515381
492.0	9.757767	-0.466776	0.273897	0.068988	-0.006745	0.024923	-0.606934	0.117676	-0.515381
493.0	9.842241	-0.509804	0.234872	0.057284	-0.051751	0.025291	-0.60498	0.12207	-0.515625
494.0	9.914593	-0.525248	0.118431	0.054517	-0.050976	0.021301	-0.609131	0.117676	-0.512939
495.0	9.980003	-0.589504	0.025834	0.054296	-0.029356	0.015661	-0.606934	0.117676	-0.515381
496.0	10.007815	-0.577417	0.008772	0.051309	-0.00695	0.006017	-0.606689	0.113281	-0.517578
497.0	9.992033	-0.626368	-0.022085	0.055178	0.003891	0.000253	-0.609375	0.12207	-0.517822
498.0	9.989989	-0.576543	-0.097403	0.093246	0.015221	-0.006769	-0.609131	0.113281	-0.512939
499.0	9.987189	-0.437695	-0.059941	0.108336	0.03001	-0.011101	-0.611328	0.111084	-0.522217
500.0	9.94963	-0.360656	0.017185	0.078161	0.043465	-0.012271	-0.606934	0.117676	-0.52002
501.0	9.937192	-0.434968	0.013109	0.053372	0.058988	-0.013487	-0.609131	0.117676	-0.515381
502.0	9.901645	-0.415162	0.046966	0.076196	0.052368	-0.019485	-0.606934	0.115479	-0.52002
503.0	9.922935	-0.337456	0.116361	0.07241	0.066586	-0.025935	-0.604736	0.115479	-0.522217
504.0	10.012098	-0.379566	0.054316	0.061277	0.087653	-0.039613	-0.608887	0.111084	-0.522217
505.0	10.145827	-0.327564	0.077296	0.05275	0.132494	-0.04671	-0.604492	0.113281	-0.519775
506.0	10.207304	-0.38084	0.038408	0.065169	0.164428	-0.056096	-0.599854	0.111084	-0.522217
507.0	10.31018	-0.424608	0.007614	0.118018	0.193725	-0.065412	-0.606445	0.106689	-0.512695
508.0	10.320969	-0.36398	0.094141	0.171072	0.219539	-0.071562	-0.602051	0.108887	-0.519775
509.0	10.24388	-0.346858	0.142475	0.167991	0.26267	-0.07063	-0.602051	0.106689	-0.52417
510.0	10.041292	-0.37784	0.235542	0.201572	0.297365	-0.066861	-0.604248	0.104492	-0.52417
511.0	9.832058	-0.292388	0.416764	0.233349	0.275167	-0.064353	-0.602051	0.104492	-0.533447
512.0	9.661994	-0.117998	0.585669	0.227365	0.210675	-0.057865	-0.602051	0.104492	-0.53125
513.0	9.591162	-0.085167	0.534666	0.188887	0.125809	-0.051684	-0.601807	0.100098	-0.528564
514.0	9.566505	-0.001721	0.368841	0.164571	0.042675	-0.04331	-0.604248	0.104492	-0.535889
515.0	9.562132	0.124499	0.193161	0.166906	-0.000778	-0.030558	-0.599609	0.102295	-0.531006
516.0	9.600079	0.343814	0.095506	0.131784	-0.004645	-0.019747	-0.599609	0.102295	-0.533447
517.0	9.581184	0.40198	0.03086	0.070619	0.008734	-0.005304	-0.599609	0.100098	-0.528564
518.0	9.56478	0.464816	0.055251	0.036084	0.019446	0.007331	-0.599854	0.106689	-0.53125
519.0	9.549614	0.446383	0.093487	0.025243	0.039498	0.021044	-0.601807	0.100098	-0.528564
520.0	9.472302	0.453845	0.118872	0.029822	0.038322	0.026136	-0.599609	0.104492	-0.533447
521.0	9.457157	0.433696	0.157625	0.027664	0.031899	0.03971	-0.597168	0.0979	-0.533203
522.0	9.424984	0.357146	0.078984	0.010177	0.047267	0.040631	-0.599609	0.102295	-0.531006
523.0	9.498242	0.268788	0.107676	0.01697	0.044147	0.038453	-0.601807	0.104492	-0.526611
524.0	9.553251	0.189834	0.148422	-0.027398	0.016655	0.036692	-0.597412	0.102295	-0.531006
525.0	9.693664	0.054463	0.294345	-0.090398	-0.06548	0.035916	-0.599854	0.106689	-0.528809
526.0	9.853088	-0.12314	0.35192	-0.155251	-0.165273	0.036878	-0.599609	0.102295	-0.526367
527.0	9.96154	-0.316807	0.250892	-0.123456	-0.283938	0.04172	-0.599854	0.106689	-0.533447
528.0	10.198958	-0.142165	0.102987	-0.028998	-0.377681	0.045701	-0.602051	0.106689	-0.528809
529.0	10.479339	0.130761	-0.237947	-0.000722	-0.417531	0.060426	-0.602051	0.104492	-0.528809
530.0	10.622593	0.043747	-0.774255	-0.002113	-0.345534	0.066347	-0.604492	0.113281	-0.522217
531.0	10.671447	0.034749	-0.861243	0.000682	-0.102283	0.07562	-0.602051	0.106689	-0.521973
532.0	10.492436	-0.018849	-0.454165	-0.028828	0.148621	0.080592	-0.602295	0.113281	-0.522217
533.0	10.119469	-0.183964	-0.164648	-0.018508	0.22159	0.081073	-0.595459	0.111084	-0.529053
534.0	9.786786	-0.158018	0.048874	0.055908	0.160483	0.070537	-0.600098	0.117676	-0.5271
535.0	9.784151	0.038623	0.223609	0.019453	0.073947	0.064827	-0.606445	0.106689	-0.526611
536.0	9.840796	-0.022192	0.212132	-0.09538	0.077513	0.061841	-0.599854	0.106689	-0.52417
537.0	9.745401	-0.153137	0.139649	-0.078193	0.147303	0.060161	-0.602295	0.115479	-0.526855
538.0	9.524718	-0.121801	0.364429	-0.037822	0.180545	0.059983	-0.5979	0.115479	-0.529297
539.0	9.382956	-0.015697	0.643274	-0.150917	0.1703	0.06733	-0.595459	0.113281	-0.526855
540.0	9.277418	-0.234563	0.796897	-0.301641	0.15731	0.071576	-0.595703	0.115479	-0.526855
541.0	9.171243	-0.454993	0.947345	-0.318713	0.138075	0.073128	-0.593506	0.12207	-0.529541
542.0	9.092561	-0.520413	1.199415	-0.308811	0.097811	0.076934	-0.589111	0.124268	-0.529541
543.0	9.055406	-0.513079	1.22984	-0.328226	0.010116	0.084761	-0.598145	0.124268	-0.527344
544.0	9.086648	-0.489806	1.15182	-0.357154	-0.139084	0.08648	-0.595947	0.12207	-0.5271
545.0	9.389765	-0.401001	1.109843	-0.400447	-0.290172	0.090833	-0.598145	0.124268	-0.518066
546.0	9.827981	-0.428865	1.089337	-0.493826	-0.378148	0.108711	-0.598389	0.130859	-0.522949
547.0	10.222838	-0.521618	1.040459	-0.613849	-0.450455	0.124529	-0.605225	0.130859	-0.515869
548.0	10.529306	-0.650248	0.551012	-0.647758	-0.504961	0.13521	-0.603271	0.135254	-0.518311
549.0	10.539443	-0.81315	-0.239212	-0.554768	-0.44261	0.149957	-0.605713	0.141846	-0.511719
550.0	10.625499	-0.721593	-0.617071	-0.468371	-0.35039	0.163241	-0.603271	0.135254	-0.509033
551.0	10.680901	-0.741963	-0.781743	-0.537493	-0.195671	0.175329	-0.610352	0.14624	-0.497803
552.0	10.437672	-0.968628	-0.877735	-0.60832	-0.018456	0.176666	-0.599121	0.14624	-0.504883
553.0	10.119946	-1.313845	-0.729957	-0.535136	0.153899	0.173211	-0.608398	0.152832	-0.507324
554.0	9.866362	-1.444277	-0.46094	-0.425297	0.208159	0.158613	-0.599365	0.150635	-0.504883
555.0	9.682411	-1.339194	-0.289172	-0.402099	0.157859	0.134577	-0.601807	0.155029	-0.512207
556.0	9.40554	-1.325653	-0.303369	-0.364793	0.061199	0.115643	-0.599609	0.157471	-0.51001
557.0	9.48509	-1.346994	-0.365822	-0.368814	-0.040567	0.094988	-0.599609	0.161865	-0.507813
558.0	9.438654	-1.658328	-0.66146	-0.439976	-0.128295	0.071159	-0.599854	0.164063	-0.507813
559.0	9.69713	-1.870482	-1.025647	-0.35297	-0.287946	0.05659	-0.602051	0.164063	-0.505615
560.0	10.143012	-1.738807	-1.169969	-0.25634	-0.306926	0.052568	-0.599854	0.16626	-0.500977
561.0	10.388331	-1.836318	-1.495714	-0.240595	-0.198405	0.074122	-0.597656	0.168457	-0.498779
562.0	10.167807	-2.141612	-1.837407	-0.213093	-0.088338	0.085239	-0.604492	0.168457	-0.496338
563.0	10.213618	-2.063835	-1.64254	-0.136633	-0.141073	0.088083	-0.606934	0.175049	-0.503662
564.0	10.456426	-2.083282	-1.805133	-0.134989	-0.149413	0.10345	-0.606934	0.170654	-0.498779
565.0	10.340639	-1.714675	-1.48637	0.033689	-0.110881	0.12507	-0.609131	0.172852	-0.498779
566.0	10.312351	-1.500392	-1.612183	0.141342	-0.048136	0.164578	-0.606934	0.17041	-0.496338
567.0	10.065453	-1.426985	-1.743714	0.26001	0.09803	0.183966	-0.604492	0.170654	-0.500977
568.0	9.840497	-1.093136	-1.354599	0.278492	0.171935	0.197033	-0.598145	0.177246	-0.501465
569.0	9.781814	-1.004653	-0.948644	0.147366	0.166112	0.219887	-0.602539	0.175049	-0.501221
570.0	9.784287	-1.193412	-0.990065	0.101067	0.171482	0.226226	-0.600342	0.177246	-0.506104
571.0	9.788536	-1.218914	-0.881904	0.152023	0.212579	0.220659	-0.602539	0.177246	-0.501221
572.0	9.727006	-1.072863	-0.666816	0.080442	0.251427	0.216589	-0.595703	0.175049	-0.505859
573.0	9.642458	-1.161003	-0.700046	0.021021	0.254077	0.215373	-0.59375	0.179443	-0.503662
574.0	9.594468	-1.294889	-0.742276	0.059073	0.277963	0.212996	-0.591309	0.179443	-0.510742
575.0	9.547612	-1.181526	-0.604573	0.117364	0.333844	0.20327	-0.591553	0.181641	-0.515381
576.0	9.483056	-1.195519	-0.403828	0.098642	0.375072	0.196484	-0.584717	0.181641	-0.513184
577.0	9.421377	-1.265442	-0.285845	0.054409	0.352705	0.194529	-0.589355	0.181641	-0.517822
578.0	9.495897	-1.350983	-0.324353	0.090363	0.339135	0.188488	-0.584717	0.181641	-0.52002
579.0	9.556822	-1.319056	-0.162051	0.105024	0.359708	0.172402	-0.587158	0.183838	-0.515625
580.0	9.520015	-1.316764	-0.098298	0.040541	0.357968	0.163518	-0.580322	0.183838	-0.520264
581.0	9.439792	-1.454893	-0.209549	-0.020271	0.302914	0.15054	-0.586914	0.181641	-0.524658
582.0	9.495377	-1.470382	-0.279202	0.004389	0.261512	0.136046	-0.582764	0.186035	-0.524902
583.0	9.609182	-1.377088	-0.349385	0.013435	0.257058	0.121354	-0.575928	0.186279	-0.527344
584.0	9.600022	-1.382213	-0.465962	-0.004027	0.270221	0.113235	-0.58252	0.183838	-0.524902
585.0	9.582717	-1.466121	-0.455571	-0.021464	0.259244	0.098093	-0.578369	0.188477	-0.536621
586.0	9.548209	-1.457642	-0.314931	-0.048408	0.267473	0.079295	-0.575928	0.186279	-0.529541
587.0	9.442547	-1.46464	-0.166682	-0.062998	0.281013	0.058735	-0.57373	0.188477	-0.531982
588.0	9.312648	-1.510552	-0.108694	-0.059709	0.250784	0.035409	-0.571533	0.190674	-0.531982
589.0	9.247468	-1.479792	0.020806	-0.078754	0.203104	0.012477	-0.571533	0.190674	-0.534424
590.0	9.282617	-1.443814	0.056939	-0.128199	0.155039	-0.012721	-0.571533	0.190674	-0.534424
591.0	9.491109	-1.551475	-0.066846	-0.184192	0.066438	-0.02641	-0.569092	0.184082	-0.529541
592.0	9.770631	-1.63276	-0.467244	-0.140548	0.025315	-0.038531	-0.571533	0.188477	-0.538818
593.0	10.050193	-1.655366	-0.904005	-0.003708	0.089128	-0.046763	-0.569092	0.186279	-0.53418
594.0	10.003493	-1.479976	-1.064455	0.027739	0.259856	-0.055694	-0.566895	0.188477	-0.538818
595.0	9.774789	-1.410983	-0.816177	-0.051855	0.358535	-0.056881	-0.564941	0.190674	-0.536621
596.0	9.666986	-1.629468	-0.560139	-0.114051	0.342671	-0.059033	-0.571533	0.190674	-0.545898
597.0	9.739749	-1.877839	-0.660875	-0.052702	0.265453	-0.064795	-0.566895	0.184082	-0.536377
598.0	9.745955	-1.979769	-0.730074	0.066482	0.324185	-0.076949	-0.564697	0.188477	-0.543457
599.0	9.568377	-1.823697	-0.598253	0.106487	0.375559	-0.083966	-0.557617	0.181885	-0.543457
600.0	9.39872	-1.894806	-0.432994	0.010569	0.34636	-0.084324	-0.564453	0.181885	-0.541016
601.0	9.371829	-2.070328	-0.275849	-0.089705	0.256935	-0.077707	-0.557861	0.184082	-0.545654
602.0	9.499779	-2.214645	-0.202912	-0.100606	0.210714	-0.082003	-0.555664	0.184082	-0.552734
603.0	9.591158	-2.311603	-0.124497	-0.080847	0.213051	-0.08912	-0.553223	0.179688	-0.545654
604.0	9.536073	-2.135198	-0.076284	-0.050373	0.185538	-0.102149	-0.55542	0.181885	-0.550293
605.0	9.457779	-2.058543	0.003711	-0.04644	0.101127	-0.103031	-0.557617	0.179688	-0.550293
606.0	9.435766	-2.055717	-0.156874	-0.026262	-0.020027	-0.102308	-0.55542	0.181885	-0.545654
607.0	9.728012	-2.242333	-0.390985	0.016314	-0.113589	-0.103828	-0.55542	0.17749	-0.547852
608.0	9.860848	-2.121463	-0.699026	0.130206	-0.135925	-0.104589	-0.553223	0.179688	-0.545654
609.0	9.948994	-2.067672	-0.889111	0.197713	-0.156628	-0.091718	-0.559814	0.17749	-0.543213
610.0	9.895949	-2.176081	-1.433695	0.263759	-0.168185	-0.085741	-0.552979	0.173096	-0.542969
611.0	10.05339	-2.194103	-1.568573	0.282478	-0.145579	-0.079221	-0.554932	0.170898	-0.540527
612.0	10.202253	-2.240927	-1.559182	0.251141	-0.102502	-0.075948	-0.559326	0.168701	-0.540527
613.0	10.56015	-2.29179	-1.34743	0.200287	-0.102343	-0.070786	-0.554932	0.166504	-0.540527
614.0	11.105244	-2.197198	-0.93192	0.147235	-0.062032	-0.050092	-0.55957	0.170898	-0.545166
615.0	11.795146	-1.879288	-0.37739	0.109642	-0.00805	-0.021367	-0.554688	0.162109	-0.540283
616.0	12.290946	-1.344034	-0.192805	0.167038	0.010235	0.025563	-0.557373	0.170898	-0.545166
617.0	12.393389	-0.792638	-0.473082	0.336923	0.065893	0.085289	-0.55249	0.164307	-0.542725
618.0	12.03917	-0.476989	-0.907185	0.426541	0.177668	0.132317	-0.55249	0.162109	-0.542725
619.0	11.39256	-0.402967	-1.12532	0.298056	0.262689	0.148909	-0.55249	0.162109	-0.544922
620.0	10.959246	-0.308086	-0.875866	0.181858	0.266077	0.128938	-0.550049	0.159912	-0.551758
621.0	10.435219	-0.470112	-0.192252	0.018675	0.398088	0.075195	-0.545654	0.162109	-0.549561
622.0	9.74763	-1.194603	0.184865	-0.07416	0.597751	-0.019449	-0.548096	0.164307	-0.552002
623.0	9.124961	-1.887575	0.503553	0.089409	0.536125	-0.138629	-0.547852	0.157715	-0.556396
624.0	8.721585	-2.030262	1.05151	0.238469	0.230841	-0.222336	-0.541016	0.155518	-0.561035
625.0	8.818134	-1.922617	1.322131	0.258138	-0.142593	-0.261997	-0.541016	0.155518	-0.556396
626.0	9.147328	-1.864738	1.14053	0.216517	-0.398422	-0.284591	-0.547363	0.148926	-0.55835
627.0	9.570219	-1.960621	0.818547	0.2324	-0.43882	-0.280295	-0.545166	0.151123	-0.546875
628.0	9.683061	-1.655025	0.554434	0.34929	-0.271661	-0.254979	-0.544922	0.146729	-0.553711
629.0	9.569623	-1.272913	1.145341	0.349259	0.076721	-0.230063	-0.547119	0.142334	-0.55127
630.0	8.855951	-0.948772	1.356656	0.179394	0.390748	-0.165289	-0.544922	0.142334	-0.555908
631.0	8.448825	-0.842383	1.721753	0.341906	0.406516	-0.103505	-0.54248	0.137939	-0.560303
632.0	8.289574	-0.070614	2.581174	0.549824	0.340408	-0.047908	-0.535645	0.135742	-0.557861
633.0	7.871267	0.588964	3.476917	0.554973	0.40539	-0.025123	-0.5354	0.12915	-0.557617
634.0	7.731444	0.537696	3.545828	0.594846	0.166582	0.024533	-0.537842	0.133545	-0.5625
635.0	8.40981	0.128126	2.76461	0.67675	-0.371877	0.060572	-0.539551	0.122559	-0.552734
636.0	9.188303	0.596518	2.375563	0.670663	-0.495223	0.069173	-0.539551	0.124756	-0.550537
637.0	10.0365	0.562301	2.261569	0.228193	-0.642001	0.101698	-0.535156	0.126953	-0.552979
638.0	10.234871	-0.097305	1.822633	-0.082989	-0.771768	0.113406	-0.546387	0.122314	-0.550537
639.0	10.526816	-0.838054	1.302597	-0.121003	-0.706485	0.049785	-0.548584	0.122314	-0.543457
640.0	10.714708	-0.72774	0.175605	0.27751	-0.829873	0.01444	-0.548584	0.124512	-0.538818
641.0	10.979674	-0.388469	0.165561	0.530069	-0.764706	-0.06408	-0.555176	0.120117	-0.536377
642.0	10.962049	0.201559	-0.044738	0.009157	-0.500507	-0.194094	-0.553223	0.124512	-0.529541
643.0	10.070669	0.245256	1.525597	-0.38482	-0.548443	-0.326487	-0.555176	0.11792	-0.533936
644.0	10.524519	0.096153	1.698166	-0.503104	-0.874128	-0.371364	-0.557129	0.113525	-0.522217
645.0	10.703379	-0.593368	0.750445	-0.056098	-0.757211	-0.430143	-0.55957	0.115723	-0.517578
646.0	10.495629	-0.137401	-0.560693	0.437257	-0.65635	-0.458502	-0.561523	0.109131	-0.519775
647.0	10.356481	0.617364	-1.079036	0.406146	-0.542792	-0.438602	-0.563477	0.104492	-0.512695
648.0	10.255488	0.652428	-1.421441	-0.027882	-0.344413	-0.36575	-0.563721	0.106689	-0.512695
649.0	10.204909	-0.027766	-1.927575	-0.111704	-0.032246	-0.30528	-0.567871	0.0979	-0.512451
650.0	10.014433	-0.469472	-1.458844	0.11507	0.192607	-0.270291	-0.56543	0.095703	-0.514648
651.0	9.553563	-0.250308	-0.561777	0.274388	0.303975	-0.245783	-0.561035	0.0979	-0.51709
652.0	9.158954	0.027297	0.123933	0.228185	0.213651	-0.222694	-0.558838	0.095703	-0.514648
653.0	9.080197	0.10522	0.432876	0.14914	0.047835	-0.208221	-0.56543	0.095703	-0.51001
654.0	8.949127	-0.036819	0.013221	0.198181	-0.024205	-0.197724	-0.56543	0.095703	-0.512207
655.0	9.194669	-0.055944	-0.395157	0.299326	-0.207204	-0.149235	-0.560547	0.086914	-0.51416
656.0	9.546406	0.294577	-0.566389	0.331271	-0.120338	-0.130445	-0.562988	0.091309	-0.507568
657.0	9.616101	0.579638	-0.439088	0.290283	0.143519	-0.122345	-0.560547	0.084717	-0.516602
658.0	9.303477	0.53422	-0.495934	0.259197	0.285506	-0.104293	-0.560547	0.086914	-0.518799
659.0	9.138639	0.571262	-0.358943	0.331738	0.325461	-0.078101	-0.555664	0.078125	-0.518555
660.0	9.074449	0.963889	0.074616	0.340254	0.363535	-0.056775	-0.553711	0.084717	-0.525879
661.0	8.957827	1.024009	0.450872	0.224301	0.416167	-0.015471	-0.555908	0.080322	-0.525635
662.0	8.642175	0.773053	0.307967	0.140878	0.256427	0.016464	-0.544678	0.080566	-0.523438
663.0	8.810865	0.573137	0.150733	0.156299	0.013036	0.033425	-0.546875	0.078125	-0.523193
664.0	9.08769	0.340274	-0.122686	0.177963	-0.116051	0.050743	-0.553711	0.080322	-0.528076
665.0	9.16534	0.099468	-0.538761	0.173219	-0.058099	0.056459	-0.549072	0.080322	-0.525635
666.0	9.090972	0.035034	-0.647015	0.149403	0.082461	0.061013	-0.544434	0.078125	-0.523193
667.0	9.019807	-0.056035	-0.725265	0.090725	0.097131	0.077151	-0.544434	0.078369	-0.525635
668.0	9.079506	0.023354	-0.652381	0.08788	0.060057	0.090487	-0.544434	0.078125	-0.520996
669.0	9.160972	0.075114	-0.484863	0.009473	0.032155	0.100353	-0.548828	0.075928	-0.520752
670.0	9.385664	-0.020659	-0.611164	-0.106492	-0.097724	0.095354	-0.549072	0.078125	-0.518555
671.0	9.480258	0.025491	-0.986945	-0.012916	-0.091366	0.087175	-0.548828	0.075928	-0.520752
672.0	9.685295	0.195441	-0.973312	0.000337	-0.066679	0.085263	-0.547119	0.084961	-0.523438
673.0	9.93033	0.280016	-1.350282	-0.023486	-0.157654	0.097468	-0.54248	0.082764	-0.528076
674.0	10.17677	0.291069	-1.626037	0.044097	-0.070779	0.114546	-0.544434	0.078125	-0.520996
675.0	10.395064	0.608968	-1.377981	0.061233	0.155363	0.111435	-0.542236	0.080566	-0.520996
676.0	10.632885	0.706709	-0.542195	0.017046	0.480273	0.115358	-0.537842	0.082764	-0.525635
677.0	10.301688	0.397012	-0.132284	0.012083	0.637252	0.129626	-0.535645	0.080566	-0.530273
678.0	9.825832	0.187402	0.089872	0.214948	0.532152	0.143729	-0.53125	0.087158	-0.530518
679.0	9.462448	0.275282	0.27875	0.257543	0.370187	0.151708	-0.524414	0.084961	-0.530518
680.0	9.46275	0.082529	0.155052	-0.056878	0.094819	0.188902	-0.533691	0.089355	-0.525879
681.0	9.373634	-0.548637	-0.450234	-0.323807	-0.215667	0.211512	-0.535889	0.084961	-0.532715
682.0	9.375996	-0.862105	-1.002212	-0.30636	-0.519731	0.199412	-0.53125	0.084961	-0.525879
683.0	9.583809	-0.376444	-1.565461	-0.214418	-0.846788	0.171527	-0.531494	0.091553	-0.526123
684.0	9.994997	0.171289	-2.453382	-0.245463	-1.13141	0.158208	-0.533691	0.087158	-0.516602
685.0	10.818116	0.78252	-3.450138	-0.340493	-1.2038	0.139869	-0.543213	0.100342	-0.507813
686.0	11.781831	0.896714	-3.91245	-0.530614	-0.869815	0.130554	-0.545166	0.095947	-0.507568
687.0	12.490681	0.257615	-4.004931	-0.622566	-0.401181	0.081104	-0.540771	0.098145	-0.500732
688.0	13.063695	-0.332597	-2.930529	-0.417457	0.109896	-0.000245	-0.538818	0.106934	-0.508057
689.0	14.102166	-0.468699	-0.662288	-0.309355	0.513884	-0.108487	-0.541016	0.102539	-0.512451
690.0	15.527692	-1.661543	1.664061	-0.74637	0.750774	-0.255991	-0.536377	0.102539	-0.510254
691.0	14.979573	-4.122207	2.335635	-1.003983	1.235868	-0.389221	-0.529785	0.104736	-0.517334
692.0	13.81701	-5.589314	3.253729	0.097483	1.442326	-0.551661	-0.520508	0.095947	-0.531006
693.0	12.13759	-4.373547	4.483181	0.891944	0.836853	-0.570191	-0.520264	0.091553	-0.537598
694.0	10.821028	-1.670484	3.959384	0.893667	0.010394	-0.473327	-0.522217	0.084961	-0.532715
695.0	10.415021	-0.41261	2.217625	0.474634	-0.328096	-0.256126	-0.526611	0.082764	-0.525635
696.0	9.788111	0.451864	0.311529	0.493688	-0.137059	-0.098269	-0.522217	0.084961	-0.532715
697.0	8.485329	1.574925	0.629721	0.441444	0.054239	-0.006317	-0.524414	0.084961	-0.530518
698.0	7.722552	3.167983	2.216792	-0.067036	0.033492	0.189633	-0.517822	0.087158	-0.537598
699.0	8.368172	2.435209	2.329534	-0.805201	-0.609533	0.313647	-0.524658	0.089355	-0.530518
700.0	9.2749	1.444435	0.760369	-0.627834	-0.447488	0.321694	-0.524658	0.091553	-0.523682
701.0	9.397636	1.627328	1.457579	-0.175452	0.32171	0.220817	-0.520508	0.098145	-0.531006
702.0	8.416131	1.972687	2.691365	-0.424199	0.517751	0.128978	-0.511719	0.102783	-0.533447
703.0	8.098272	1.334086	3.128796	-0.864409	0.011126	0.066776	-0.522949	0.102539	-0.538086
704.0	8.96002	0.274692	2.226088	-0.823281	-0.456216	-0.00848	-0.518555	0.106934	-0.533691
705.0	9.868765	-0.101252	2.018492	-0.548056	-0.441439	-0.112852	-0.520996	0.109131	-0.526855
706.0	9.954657	-0.254242	1.661508	-0.524463	-0.287386	-0.186095	-0.520996	0.111328	-0.526855
707.0	9.688841	-0.659489	1.584397	-0.615677	-0.21909	-0.213247	-0.520996	0.111328	-0.526855
708.0	9.607609	-1.154313	1.361686	-0.863064	-0.366033	-0.189166	-0.527832	0.113525	-0.531494
709.0	10.060958	-1.842966	0.811413	-0.754466	-0.616936	-0.156806	-0.523682	0.120117	-0.513184
710.0	10.544515	-1.684055	0.207113	-0.417718	-0.507872	-0.128631	-0.525879	0.122314	-0.517822
711.0	10.747894	-1.672991	-0.589762	-0.126645	-0.13373	-0.075323	-0.523438	0.113525	-0.522217
712.0	10.201363	-1.237836	-0.526272	0.072453	0.307488	0.019188	-0.523682	0.11792	-0.52002
713.0	9.273687	-0.610095	1.20313	-0.300409	0.393632	0.085676	-0.521484	0.122559	-0.520264
714.0	8.58836	-1.280955	1.455773	-0.487988	0.184467	0.147546	-0.51709	0.124756	-0.522705
715.0	8.735325	-1.340915	1.380499	-0.077516	-0.032623	0.186108	-0.52832	0.124756	-0.527344
716.0	8.620079	-0.665269	1.28774	0.084058	0.00444	0.211074	-0.521729	0.126953	-0.527344
717.0	8.226277	-0.592138	0.848777	-0.222336	-0.031074	0.245183	-0.521729	0.12915	-0.520508
718.0	8.207726	-0.904824	0.644977	-0.457635	-0.239221	0.276962	-0.526367	0.131348	-0.520508
719.0	8.617502	-1.226901	0.679245	-0.486735	-0.440128	0.278111	-0.526611	0.135742	-0.516113
720.0	9.062195	-1.513597	0.59831	-0.471061	-0.39692	0.256916	-0.524414	0.137939	-0.516113
721.0	9.268461	-1.579659	0.138442	-0.472794	-0.28374	0.210217	-0.522217	0.140137	-0.516357
722.0	9.631778	-1.495161	-0.408117	-0.426639	-0.27399	0.133744	-0.526855	0.144531	-0.518799
723.0	9.782377	-1.489991	-1.195033	-0.256627	-0.071125	0.10354	-0.524658	0.142334	-0.518555
724.0	9.87771	-1.355314	-0.915239	-0.152031	0.028797	0.063813	-0.522461	0.148926	-0.509521
725.0	9.615073	-1.342722	-0.914626	-0.189666	0.078834	0.035739	-0.522461	0.148926	-0.516602
726.0	9.068608	-1.555553	-0.182952	-0.110243	0.212465	0.036833	-0.518066	0.146729	-0.516602
727.0	9.095862	-1.584893	0.861773	-0.095434	0.030231	-0.030448	-0.515869	0.148926	-0.516602
728.0	9.298435	-1.698286	0.471437	-0.083298	-0.123093	-0.040293	-0.522461	0.146729	-0.51416
729.0	9.256353	-1.512766	0.42798	-0.067918	-0.085052	-0.024117	-0.515869	0.148926	-0.516602
730.0	9.356379	-1.739061	-0.026968	-0.00812	-0.091817	-0.022939	-0.518066	0.151123	-0.52124
731.0	9.369014	-1.568012	-0.805772	0.175284	-0.032604	-0.035731	-0.520508	0.151123	-0.519043
732.0	9.263314	-1.349294	-1.175927	0.263463	0.063154	-0.037252	-0.520508	0.151123	-0.519043
733.0	9.104818	-1.194082	-1.037129	0.19523	0.1385	-0.030151	-0.520264	0.146729	-0.52124
734.0	8.973081	-1.428403	-0.889082	0.125436	0.129275	-0.030972	-0.518066	0.148926	-0.523682
735.0	8.912741	-1.481767	-0.550414	0.193677	0.098155	-0.037577	-0.520508	0.151123	-0.516602
736.0	9.031835	-1.561138	-0.55383	0.220094	0.052165	-0.051324	-0.517822	0.144531	-0.518799
737.0	9.094017	-1.55639	-1.009125	0.310276	0.028234	-0.065986	-0.518066	0.151123	-0.523682
738.0	9.12879	-1.325743	-1.130629	0.369672	0.094813	-0.080222	-0.51123	0.148926	-0.530518
739.0	9.113682	-1.151991	-1.109802	0.280732	0.195059	-0.083421	-0.52002	0.144531	-0.525635
740.0	8.914159	-1.160025	-0.958369	0.24086	0.24684	-0.08973	-0.513428	0.146729	-0.525879
741.0	8.974217	-1.045341	-0.757168	0.263927	0.26153	-0.094319	-0.513184	0.140137	-0.530273
742.0	9.14376	-0.846825	-0.633569	0.322825	0.228434	-0.092263	-0.510986	0.142334	-0.530273
743.0	9.135387	-0.621161	-0.625321	0.37053	0.306849	-0.07899	-0.513184	0.137939	-0.530029
744.0	9.035207	-0.596052	-0.608119	0.295899	0.422205	-0.068914	-0.508545	0.137939	-0.541748
745.0	9.003463	-0.711751	-0.673133	0.306792	0.328624	-0.056787	-0.510986	0.142334	-0.537354
746.0	9.354341	-0.75654	-0.19682	0.168196	0.240475	-0.045273	-0.506348	0.140137	-0.546387
747.0	9.776784	-1.347139	0.016837	-0.167037	0.178457	-0.043488	-0.501953	0.137939	-0.539307
748.0	10.028206	-1.942341	-0.262464	-0.101652	0.115172	-0.072505	-0.50415	0.140137	-0.546387
749.0	10.05068	-1.594417	-0.34354	0.168416	0.174143	-0.107735	-0.504395	0.142334	-0.541992
750.0	9.939529	-1.048546	-0.371304	0.074749	0.213719	-0.127077	-0.499756	0.142334	-0.546631
751.0	9.889718	-0.852969	-0.625453	-0.193966	0.145018	-0.129194	-0.499512	0.137939	-0.546387
752.0	10.292116	-0.80616	-0.711192	-0.310703	-0.015809	-0.129798	-0.499756	0.140137	-0.546387
753.0	10.850295	-0.561243	-0.673608	-0.260028	-0.078674	-0.111694	-0.499756	0.142334	-0.544189
754.0	11.247225	-0.40603	-0.888534	-0.229989	-0.078637	-0.08816	-0.506592	0.142334	-0.530273
755.0	11.348022	-0.468352	-1.721679	-0.063458	-0.137073	-0.041894	-0.497559	0.144775	-0.539795
756.0	11.683174	-0.671726	-2.508101	0.127412	-0.171538	0.008145	-0.502197	0.146729	-0.539795
757.0	11.950865	-0.988476	-3.012363	0.115595	-0.064674	0.059707	-0.506592	0.146729	-0.539795
758.0	12.11729	-1.557436	-2.882188	-0.008721	0.134717	0.11606	-0.497803	0.151367	-0.544678
759.0	12.246857	-2.300944	-2.639295	-0.065944	0.251027	0.172437	-0.502441	0.151367	-0.546875
760.0	12.275216	-2.147656	-2.061583	0.108933	0.431932	0.194738	-0.495605	0.14917	-0.544434
761.0	12.181569	-1.382987	0.106115	-0.052056	0.641316	0.214015	-0.495605	0.151367	-0.546875
762.0	11.533364	-1.397206	1.857185	-0.434009	0.674069	0.222457	-0.491211	0.155762	-0.556396
763.0	11.505663	-0.979782	2.805547	-0.271188	0.292065	0.249957	-0.491455	0.162354	-0.554199
764.0	11.970716	0.305283	3.029178	0.221719	-0.242128	0.239348	-0.491455	0.157959	-0.556396
765.0	11.650049	1.016668	1.858931	0.154621	-0.207275	0.229362	-0.496338	0.166748	-0.549805
766.0	10.653856	0.447311	1.077598	-0.061321	-0.07204	0.192615	-0.491699	0.166748	-0.556641
767.0	9.537278	-0.337827	1.030509	-0.401584	-0.290621	0.107259	-0.489746	0.171143	-0.547607
768.0	9.124182	-1.415212	0.48981	-0.257131	-0.348252	0.071219	-0.496338	0.171143	-0.547607
769.0	9.437354	-1.487386	0.583059	0.28269	-0.130492	0.004281	-0.496338	0.171143	-0.550049
770.0	9.124977	-0.992806	1.219381	0.290632	0.244036	-0.00309	-0.491943	0.168945	-0.549805
771.0	8.350355	-0.878441	2.060429	-0.101551	0.277269	0.026268	-0.491943	0.17334	-0.552246
772.0	8.361572	-1.085649	2.360631	-0.16073	0.171546	0.06577	-0.494629	0.182129	-0.564209
773.0	8.668811	-1.090584	3.157609	0.142701	0.196934	0.105845	-0.489746	0.17334	-0.547607
774.0	8.721573	-0.83662	3.973004	0.179938	0.07695	0.134905	-0.483398	0.182129	-0.554932
775.0	9.121721	-0.758457	3.435435	0.097217	-0.264681	0.170458	-0.489746	0.175537	-0.55249
776.0	9.920716	-1.00523	2.272599	0.061007	-0.656352	0.182453	-0.489746	0.175537	-0.547852
777.0	10.815544	-0.79193	1.182891	0.160205	-0.711456	0.168679	-0.494385	0.177734	-0.541016
778.0	11.530573	-0.555766	0.292106	0.32216	-0.432495	0.157405	-0.492188	0.177734	-0.543213
779.0	11.20305	-0.272325	0.453907	0.374019	-0.256937	0.093244	-0.496582	0.175537	-0.543213
780.0	10.838936	0.120571	0.859255	0.149101	-0.19416	0.055665	-0.494629	0.179932	-0.538574
781.0	10.663497	-0.119901	0.847473	-0.022203	-0.216175	-0.025455	-0.501465	0.186523	-0.536621
782.0	10.144173	0.007304	0.888458	0.114579	-0.189594	-0.117037	-0.499023	0.182129	-0.541016
783.0	9.755766	0.573237	1.307612	0.273007	-0.023673	-0.185088	-0.496826	0.182129	-0.541016
784.0	9.171821	0.93847	1.618467	0.268395	0.030547	-0.224354	-0.494629	0.179932	-0.541016
785.0	8.829714	1.070764	1.532436	0.173864	-0.048581	-0.237398	-0.496826	0.179932	-0.536377
786.0	8.669925	0.704844	1.306846	0.070403	-0.153943	-0.244235	-0.496582	0.177734	-0.541016
787.0	8.56331	0.279068	0.789846	0.076539	-0.237926	-0.236283	-0.499023	0.177734	-0.533936
788.0	8.592455	-0.153804	0.446055	0.081738	-0.333211	-0.228573	-0.503662	0.182129	-0.541016
789.0	8.749147	-0.247508	-0.041749	0.0872	-0.400074	-0.204407	-0.505859	0.179932	-0.536377
790.0	9.012301	-0.37175	0.225232	-0.003678	-0.332659	-0.166688	-0.503418	0.175537	-0.536133
791.0	8.904107	-0.801123	-0.085603	-0.136896	-0.17795	-0.138456	-0.505615	0.177734	-0.526855
792.0	9.219445	-1.435028	-0.570913	0.094025	-0.187216	-0.112712	-0.503418	0.177734	-0.531494
793.0	9.351523	-1.145295	-0.800442	0.453871	-0.103157	-0.103614	-0.507568	0.168945	-0.53125
794.0	9.314536	-0.530738	-0.76167	0.502831	0.070325	-0.062364	-0.500977	0.171143	-0.533691
795.0	8.925984	-0.198107	-0.3502	0.358112	0.166839	-0.033977	-0.498779	0.17334	-0.531494
796.0	8.815473	-0.176558	-0.40611	0.219347	0.166896	-0.001114	-0.498535	0.168945	-0.535889
797.0	9.10654	-0.099004	-0.409765	0.501431	0.166657	0.035767	-0.50293	0.166748	-0.535889
798.0	8.816561	0.52555	0.802841	0.447984	0.134164	-0.000968	-0.501221	0.175537	-0.536133
799.0	8.571113	0.75233	0.899119	0.302357	-0.012202	0.053484	-0.503174	0.171143	-0.53833
800.0	8.827141	0.075851	0.156248	0.160972	-0.074123	0.070855	-0.498779	0.17334	-0.536133
801.0	8.679772	0.317506	0.001548	0.185266	-0.203276	0.085877	-0.498779	0.171143	-0.533691
802.0	8.64291	0.286339	0.201326	0.114797	-0.395249	0.121945	-0.503174	0.17334	-0.53833
803.0	8.594982	0.076513	-0.327474	-0.02192	-0.487597	0.135768	-0.505371	0.168945	-0.53125
804.0	8.919416	-0.213245	-1.393778	0.128841	-0.454215	0.141611	-0.503174	0.17334	-0.536133
805.0	9.025038	0.281755	-1.497103	0.287868	-0.259553	0.132413	-0.505615	0.17334	-0.536133
806.0	9.307658	0.424128	-1.217538	0.139164	-0.099538	0.166756	-0.508057	0.177734	-0.529297
807.0	9.413538	0.122998	-1.455427	-0.007266	-0.108117	0.172851	-0.503418	0.179932	-0.531738
808.0	9.600198	-0.23347	-1.553971	0.067648	-0.140568	0.1688	-0.51001	0.175537	-0.522217
809.0	9.534914	0.052153	-1.210931	0.109782	-0.085865	0.15216	-0.508057	0.177734	-0.524658
810.0	9.59083	0.07159	-1.127514	-0.00516	-0.053473	0.149637	-0.503662	0.184326	-0.5271
811.0	9.812279	0.057603	-1.495463	-0.018171	-0.137393	0.141054	-0.505859	0.182129	-0.520264
812.0	10.413758	0.16678	-1.436208	0.124192	-0.162907	0.126599	-0.503662	0.184326	-0.529541
813.0	10.976965	0.092482	-1.505124	0.14124	0.059271	0.110743	-0.503662	0.184326	-0.529541
814.0	10.929834	-0.116262	-1.49878	0.302538	0.296187	0.086081	-0.501465	0.184326	-0.536621
815.0	10.57168	-0.057878	-1.411331	0.422647	0.404205	0.060854	-0.506104	0.186523	-0.527344
816.0	10.605049	-0.024363	-1.019519	0.371637	0.401536	0.052918	-0.501465	0.184326	-0.536621
817.0	10.617509	-0.267767	-0.798572	0.214598	0.392444	0.083434	-0.499023	0.179932	-0.531738
818.0	10.406426	-0.632654	-1.006288	0.161121	0.163161	0.09691	-0.49707	0.184326	-0.54126
819.0	10.127049	-0.635207	-1.506341	0.163721	-0.215306	0.081583	-0.494629	0.182129	-0.538818
820.0	10.044696	0.011246	-2.20687	0.112525	-0.536475	0.065748	-0.499268	0.188721	-0.536621
821.0	10.285143	0.984376	-2.957992	-0.004756	-0.656107	0.059266	-0.501709	0.188721	-0.522705
822.0	10.687105	1.579833	-3.440798	-0.22297	-0.676568	0.042598	-0.501465	0.184326	-0.524902
823.0	11.419414	1.630878	-3.491487	-0.528052	-0.556355	0.007997	-0.501709	0.190918	-0.529785
824.0	12.836191	1.21885	-2.747892	-0.57742	-0.325113	-0.054061	-0.499756	0.19751	-0.522949
825.0	14.061292	0.335425	-1.108446	-0.566856	0.02282	-0.130287	-0.506592	0.19751	-0.516113
826.0	14.97007	-1.517357	1.130286	-0.97586	0.471716	-0.267749	-0.497803	0.204102	-0.525635
827.0	14.962873	-4.472446	1.808508	-1.419507	1.013448	-0.498592	-0.495361	0.199707	-0.530029
828.0	13.880857	-6.233467	1.955881	-0.35498	1.0037	-0.705065	-0.497559	0.201904	-0.539551
829.0	13.53419	-4.571209	2.61336	0.936219	0.72103	-0.814683	-0.497559	0.199707	-0.541748
830.0	12.02983	-0.986882	2.089422	1.205116	0.631673	-0.739405	-0.490479	0.188721	-0.543701
831.0	9.990253	1.268047	1.988635	0.73938	0.978202	-0.499546	-0.490234	0.182129	-0.550293
832.0	8.501458	1.772626	1.95122	-0.020701	1.007417	-0.320335	-0.490234	0.182129	-0.562012
833.0	7.649591	1.444378	2.638704	-0.28103	0.788155	-0.130781	-0.483398	0.182373	-0.562012
834.0	7.344438	1.23506	3.519238	-0.54828	0.522695	-0.017659	-0.483887	0.193359	-0.557861
835.0	7.931283	1.046313	3.900059	-0.671357	-0.184347	0.050098	-0.49292	0.193115	-0.55542
836.0	8.811074	1.214967	3.104811	-0.705453	-0.646255	0.077157	-0.481689	0.195557	-0.553223
837.0	9.48524	1.203896	2.748892	-0.780315	-0.566318	0.079971	-0.481445	0.193359	-0.546143
838.0	9.404285	0.304029	1.644191	-0.938305	-0.403574	0.024795	-0.484131	0.199951	-0.546387
839.0	9.520845	-0.412987	1.070705	-0.649263	-0.221954	-0.011633	-0.488281	0.195313	-0.546143
840.0	10.147256	-0.473475	1.344414	-0.447045	-0.281875	-0.049773	-0.495605	0.20874	-0.544434
841.0	10.617114	-0.625972	1.332465	-0.443195	-0.258844	-0.073861	-0.493408	0.206543	-0.546631
842.0	10.673483	-1.148845	1.818348	-0.50019	-0.086096	-0.086107	-0.489258	0.217529	-0.5354
843.0	10.305363	-1.568108	2.277952	-0.592897	-0.209389	-0.109918	-0.48877	0.206543	-0.539551
844.0	10.098685	-2.172928	0.624289	-0.314303	-0.334315	-0.08198	-0.491455	0.215332	-0.540039
845.0	9.866092	-1.771444	0.115173	0.075007	-0.125008	-0.056839	-0.498291	0.215332	-0.537598
846.0	9.691193	-1.130921	0.829336	-0.033996	0.072284	0.030388	-0.498291	0.215332	-0.542236
847.0	9.30593	-1.583948	1.133498	-0.434789	-0.019237	0.112031	-0.498291	0.219727	-0.54248
848.0	8.880369	-2.052642	0.881108	-0.229138	-0.029052	0.146994	-0.496094	0.221924	-0.537842
849.0	8.559854	-1.581793	1.289276	0.078819	0.004463	0.191228	-0.496094	0.219727	-0.540039
850.0	8.434985	-1.035978	1.230739	-0.010848	-0.105673	0.20918	-0.496338	0.226318	-0.540283
851.0	8.208893	-0.793291	0.991547	-0.182515	-0.201731	0.228363	-0.496338	0.224121	-0.542725
852.0	8.047764	-0.902377	0.899965	-0.313517	-0.259898	0.237272	-0.493896	0.221924	-0.533203
853.0	8.29628	-0.606074	0.71523	-0.266607	-0.33815	0.221503	-0.498779	0.228516	-0.533447
854.0	8.566531	-0.507037	0.663022	-0.286633	-0.357928	0.208787	-0.496826	0.237305	-0.533936
855.0	8.676019	-0.573887	0.301951	-0.374166	-0.288264	0.207012	-0.494385	0.23291	-0.53125
856.0	8.719119	-0.719374	0.234717	-0.377401	-0.285073	0.190515	-0.496826	0.235107	-0.517578
857.0	8.94708	-0.703518	-0.058383	-0.391127	-0.226141	0.165453	-0.501221	0.23291	-0.521973
858.0	9.34832	-0.739271	-0.268806	-0.309866	-0.144354	0.133506	-0.503906	0.243896	-0.524658
859.0	9.532702	-0.831474	-0.494057	-0.282559	0.012825	0.092965	-0.503662	0.241699	-0.529297
860.0	9.452867	-1.049302	-0.227918	-0.278633	0.186506	0.075123	-0.503906	0.243896	-0.5271
861.0	9.582059	-1.409068	-0.271316	-0.260265	0.178631	0.022202	-0.49707	0.243896	-0.529541
862.0	9.58773	-1.617971	0.346354	-0.1292	0.247972	-0.0057	-0.499268	0.241699	-0.531738
863.0	9.312282	-2.053706	0.309069	-0.07497	0.216217	-0.005154	-0.492676	0.246094	-0.531738
864.0	9.083923	-2.077697	0.227649	0.133579	0.171439	-0.012696	-0.497314	0.248291	-0.53418
865.0	8.915921	-1.696608	0.11843	0.189047	0.062983	-0.022589	-0.494873	0.241699	-0.531738
866.0	9.142	-1.359664	-0.190501	0.160198	-0.057816	-0.02031	-0.497314	0.248291	-0.529541
867.0	9.110787	-0.883785	-0.283522	0.066327	-0.008467	0.006909	-0.49707	0.246094	-0.53418
868.0	8.947843	-1.13661	-1.113628	0.059925	0.051718	0.012608	-0.488281	0.250488	-0.536621
869.0	9.078321	-0.897121	-1.319223	0.294104	0.186543	-0.005502	-0.499268	0.241699	-0.536377
870.0	9.12301	-0.230384	-0.798008	0.179216	0.198906	-0.012528	-0.499512	0.248291	-0.536621
871.0	8.660889	-0.197697	-0.912493	0.018546	0.307559	-0.027801	-0.488281	0.248291	-0.54126
872.0	8.339155	-0.368637	-0.82459	0.098651	0.222589	-0.04793	-0.49707	0.243896	-0.541016
873.0	8.800618	-0.280069	-0.908717	0.086188	-0.017221	-0.077171	-0.494873	0.241699	-0.538574
874.0	9.289199	-0.411155	-1.211912	0.031312	0.077745	-0.107233	-0.494873	0.241699	-0.541016
875.0	9.397242	-0.531125	-1.158913	-0.020708	0.22198	-0.12591	-0.492676	0.246094	-0.541016
876.0	9.467971	-0.791316	-1.152492	-0.052767	0.190384	-0.137805	-0.496826	0.239502	-0.54541
877.0	9.622298	-0.744626	-0.92287	-0.093209	0.149489	-0.154373	-0.490234	0.239502	-0.547852
878.0	9.758421	-0.794246	-0.746397	-0.049312	0.134864	-0.171331	-0.492432	0.241699	-0.545654
879.0	10.005448	-1.36593	-0.934394	-0.006071	0.111042	-0.174064	-0.48999	0.237305	-0.54541
880.0	10.444384	-1.765706	-0.76385	-0.095077	0.202361	-0.159091	-0.494629	0.239502	-0.543213
881.0	10.597573	-1.804514	-0.305574	-0.138647	0.407025	-0.127749	-0.487793	0.239502	-0.543213
882.0	10.337562	-1.691935	0.27484	-0.164378	0.58835	-0.121835	-0.483398	0.241699	-0.554932
883.0	9.92895	-1.170972	0.87394	-0.205406	0.565221	-0.12197	-0.48584	0.241699	-0.554932
884.0	9.843774	-0.620955	1.024587	-0.238734	0.34835	-0.110672	-0.488037	0.239502	-0.55249
885.0	10.160412	-0.227891	0.097696	-0.242182	-0.099731	-0.082353	-0.485596	0.237305	-0.554688
886.0	10.797273	0.088774	-1.119144	-0.074315	-0.331326	-0.036045	-0.490234	0.241699	-0.554932
887.0	11.326849	-0.235198	-2.646406	-0.040696	-0.293247	0.025633	-0.483398	0.239502	-0.554932
888.0	11.308625	-1.136937	-3.892261	-0.097371	-0.139405	0.062291	-0.492676	0.246094	-0.554932
889.0	11.015703	-2.127801	-4.59528	-0.159576	-0.097557	0.066114	-0.492676	0.243896	-0.552734
890.0	11.214013	-2.921647	-4.557042	-0.031733	-0.164643	0.063774	-0.494873	0.246094	-0.548096
891.0	11.684793	-2.97818	-3.593903	0.112705	-0.045572	0.064877	-0.490234	0.243896	-0.552734
892.0	11.891112	-2.514101	-2.021699	0.015039	0.176564	0.076805	-0.492676	0.246094	-0.550293
893.0	11.542239	-2.174864	-0.451448	-0.07158	0.301589	0.104223	-0.490479	0.246094	-0.552734
894.0	11.657495	-1.361215	1.221386	-0.043558	0.19197	0.145966	-0.488281	0.250488	-0.555176
895.0	12.19084	-0.370546	1.809363	-0.044254	0.04178	0.248538	-0.486084	0.250488	-0.552979
896.0	11.942711	0.297149	1.367707	0.171198	0.051602	0.308025	-0.481689	0.25293	-0.55542
897.0	11.344135	1.429892	1.305854	0.188207	0.076172	0.31986	-0.490723	0.250488	-0.557617
898.0	10.962327	0.959994	0.626181	-0.317962	0.016956	0.333517	-0.483887	0.25293	-0.557617
899.0	10.506026	-0.438439	-0.089491	-0.124796	0.137705	0.245418	-0.481689	0.25293	-0.550781
900.0	9.587149	-0.055794	1.472692	0.22978	0.192884	0.120529	-0.481689	0.25293	-0.560059
901.0	9.000967	-0.15651	2.354699	0.257191	0.189579	0.074143	-0.488525	0.252686	-0.562256
902.0	8.282943	-0.934707	2.509015	0.141007	0.060898	0.037452	-0.479492	0.255127	-0.562256
903.0	8.494282	-1.255549	2.626062	0.098905	-0.142082	0.011844	-0.488525	0.254883	-0.552979
904.0	8.881817	-1.314453	2.893805	0.088917	-0.198457	0.024473	-0.488525	0.255127	-0.562256
905.0	9.077175	-1.33213	3.055342	0.15933	-0.135169	0.059288	-0.488525	0.252686	-0.557617
906.0	9.85654	-1.755065	3.015734	0.208457	-0.265712	0.114071	-0.488525	0.255127	-0.562256
907.0	10.330766	-2.083345	2.074066	0.176668	-0.514073	0.160786	-0.49292	0.252686	-0.564697
908.0	10.878497	-2.059529	1.308518	0.352198	-0.514076	0.197821	-0.49292	0.250488	-0.555176
909.0	11.351711	-1.690188	0.680058	0.49598	-0.34263	0.21036	-0.49292	0.252686	-0.560059
910.0	11.309367	-1.767588	0.509628	0.584373	-0.297253	0.188207	-0.495117	0.250488	-0.559814
911.0	11.099272	-1.492075	0.588547	0.501371	-0.386588	0.115843	-0.49292	0.250488	-0.555176
912.0	11.1718	-0.796779	0.024144	0.634593	-0.158969	0.066971	-0.499268	0.243896	-0.562012
913.0	10.439249	-0.008371	0.383131	0.812634	0.091435	-0.013237	-0.494873	0.241699	-0.557129
914.0	9.714472	0.897577	1.073718	0.648976	0.191605	-0.046824	-0.492432	0.241699	-0.55957
915.0	9.485156	1.242211	1.472875	0.519711	0.060514	-0.078467	-0.492188	0.235107	-0.563965
916.0	9.349646	1.320245	1.210708	0.566589	-0.084809	-0.114048	-0.494385	0.23291	-0.561523
917.0	9.068928	1.612685	1.305584	0.6281	0.017165	-0.144686	-0.498779	0.230713	-0.552246
918.0	8.668623	1.773183	1.382271	0.470602	0.052533	-0.159836	-0.498779	0.230713	-0.568359
919.0	8.316639	1.41484	1.257394	0.235398	-0.039138	-0.187738	-0.503418	0.23291	-0.573242
920.0	8.521214	0.896543	1.091652	0.113695	-0.123279	-0.204925	-0.498779	0.226318	-0.563721
921.0	8.389698	0.121617	0.564394	0.174342	-0.171227	-0.216685	-0.50293	0.221924	-0.565674
922.0	8.188577	-0.062423	0.506035	0.21014	-0.184206	-0.223612	-0.500732	0.221924	-0.570313
923.0	8.428445	-0.317522	0.498459	0.087947	-0.324797	-0.201896	-0.505127	0.217529	-0.563232
924.0	8.772588	-0.427582	-0.000686	0.0768	-0.537693	-0.166155	-0.507568	0.221924	-0.554199
925.0	9.302774	-0.59218	-0.314684	0.255295	-0.38926	-0.150118	-0.511719	0.217529	-0.563232
926.0	9.205225	-0.725955	-0.87692	0.277149	-0.112802	-0.09958	-0.507568	0.224121	-0.561279
927.0	8.904534	-0.585444	-1.39015	0.4195	0.074675	-0.030087	-0.51416	0.217285	-0.563232
928.0	9.031836	-0.088996	-0.55844	0.571266	0.223108	0.014853	-0.509521	0.217529	-0.563232
929.0	8.760338	0.599302	0.752156	0.015869	0.07106	0.019164	-0.50708	0.213135	-0.562988
930.0	8.865056	0.146491	0.364745	0.039132	-0.124587	0.057894	-0.513916	0.210693	-0.567627
931.0	8.610337	0.245922	0.133254	0.476119	-0.016851	0.058734	-0.516113	0.210693	-0.56543
932.0	9.182332	0.840026	0.163207	0.458741	-0.047147	0.088008	-0.511475	0.210693	-0.562988
933.0	8.945246	0.851456	-0.337195	0.302038	-0.038462	0.12051	-0.511475	0.208496	-0.567627
934.0	8.975079	0.642782	-0.261761	0.124513	-0.124309	0.141463	-0.511475	0.208496	-0.565186
935.0	8.832366	0.342979	-0.30929	-0.007701	-0.22496	0.145887	-0.511475	0.206299	-0.560547
936.0	8.753404	0.149398	-0.35394	-0.006795	-0.336822	0.138594	-0.509521	0.217529	-0.563232
937.0	8.714625	0.105129	-0.671576	0.00156	-0.490237	0.134171	-0.513916	0.215088	-0.558594
938.0	9.069731	0.032532	-1.035882	-0.066815	-0.61453	0.136171	-0.516113	0.210693	-0.556152
939.0	9.227536	-0.166394	-1.730885	-0.056975	-0.624028	0.133093	-0.518555	0.215088	-0.551514
940.0	9.621041	-0.162379	-2.181595	0.018279	-0.553955	0.145481	-0.518799	0.22168	-0.547119
941.0	10.093921	-0.187888	-2.511292	-0.020455	-0.466835	0.125373	-0.525146	0.210693	-0.546631
942.0	10.289799	-0.192744	-2.592335	-0.036693	-0.140393	0.113641	-0.525146	0.215088	-0.556152
943.0	10.058326	-0.199468	-2.58101	0.023656	0.143622	0.084384	-0.525391	0.219482	-0.549316
944.0	10.065155	0.308231	-1.95391	0.1792	0.187789	0.058042	-0.525146	0.215088	-0.553955
945.0	10.675263	0.680638	-0.840274	0.082008	0.176247	0.06738	-0.520996	0.219482	-0.549316
946.0	10.900752	0.17831	-0.885365	0.004553	0.160216	0.069813	-0.520752	0.212891	-0.546875
947.0	10.641993	-0.224824	-1.206189	0.259546	0.174881	0.045983	-0.520996	0.22168	-0.558838
948.0	10.732954	-0.045681	-1.626104	0.407617	0.178799	0.026549	-0.516357	0.219482	-0.553955
949.0	10.784443	-0.14279	-1.990128	0.314527	0.211357	0.020719	-0.520752	0.212891	-0.56543
950.0	10.782329	-0.60045	-2.126913	0.182395	0.201498	0.047806	-0.520752	0.215088	-0.560791
951.0	10.69991	-0.999245	-2.32738	0.198903	-0.007299	0.048109	-0.516357	0.217285	-0.563232
952.0	10.729121	-0.668353	-2.578003	0.29633	-0.153082	0.031934	-0.516113	0.210693	-0.55835
953.0	10.57267	0.053483	-2.827736	0.160459	-0.023977	0.033943	-0.518311	0.210693	-0.560791
954.0	10.298904	0.634878	-2.687894	-0.13324	0.06344	0.033996	-0.518311	0.212891	-0.562988
955.0	10.825245	0.856636	-2.0649	-0.364194	-0.087194	0.01725	-0.522949	0.215088	-0.560791
956.0	11.808935	0.445349	-0.952292	-0.445727	-0.200967	-0.049481	-0.520996	0.219482	-0.563232
957.0	13.129076	-0.599149	0.625536	-0.662647	0.001605	-0.146095	-0.527832	0.22168	-0.563477
958.0	14.210025	-2.551938	1.740007	-1.060367	0.273742	-0.294387	-0.523438	0.226074	-0.558838
959.0	14.464081	-4.686238	1.831528	-0.800095	0.375848	-0.512813	-0.518799	0.22168	-0.558838
960.0	13.975806	-4.905334	1.908124	0.149641	0.486613	-0.680519	-0.520996	0.219482	-0.563232
961.0	12.721524	-2.754356	1.528891	1.006958	0.630572	-0.762486	-0.522705	0.206299	-0.569824
962.0	10.651824	0.22923	1.581998	1.103024	0.968402	-0.684172	-0.520264	0.204102	-0.581299
963.0	8.713049	1.828758	1.922352	0.429056	1.191114	-0.482881	-0.513428	0.19751	-0.581055
964.0	7.587521	1.6545	1.98171	-0.159364	0.687306	-0.23259	-0.513428	0.199707	-0.585938
965.0	7.588427	1.781767	2.61783	-0.275543	0.101926	-0.046544	-0.515625	0.199707	-0.588135
966.0	7.955585	1.79088	3.336964	-0.684552	-0.09869	0.032252	-0.513672	0.204346	-0.585938
967.0	8.72559	1.704867	3.162441	-1.008076	-0.381436	0.049876	-0.522705	0.206299	-0.574463
968.0	9.861097	0.971806	1.928018	-0.851276	-0.73946	0.083839	-0.522705	0.208496	-0.579102
969.0	10.424661	0.93846	1.191199	-0.63635	-0.365386	0.027467	-0.520508	0.210693	-0.572266
970.0	10.50706	0.419552	1.290971	-0.687385	-0.157903	-0.023538	-0.520996	0.219482	-0.570313
971.0	10.767099	-0.126562	1.289882	-0.728288	-0.350355	-0.045116	-0.518799	0.219482	-0.565674
972.0	10.990997	-0.92317	1.06965	-0.794871	-0.499546	-0.140127	-0.527588	0.219482	-0.563232
973.0	11.857566	-1.386193	-0.28318	-0.115083	-0.208671	-0.144208	-0.520996	0.219482	-0.563232
974.0	11.49004	-0.922192	-0.544203	0.212564	0.278728	-0.144867	-0.530273	0.226074	-0.563477
975.0	10.264676	-0.549897	0.625434	-0.057953	0.471779	-0.100366	-0.520752	0.215088	-0.567871
976.0	9.380456	-0.989602	1.522193	-0.452414	0.299464	-0.030811	-0.523438	0.226318	-0.570557
977.0	9.301605	-1.837902	1.626356	-0.342539	-0.037312	0.003595	-0.525391	0.219482	-0.570313
978.0	9.604133	-1.823701	1.150863	0.072074	-0.120707	0.038578	-0.523193	0.219482	-0.570313
979.0	9.339574	-1.1912	0.653594	0.157	0.023782	0.089842	-0.523193	0.22168	-0.563477
980.0	8.788553	-1.104188	0.242363	-0.204509	0.174262	0.149759	-0.525635	0.226074	-0.570557
981.0	8.367487	-1.1196	0.349209	-0.36244	0.132499	0.17549	-0.525635	0.226074	-0.570557
982.0	8.279031	-1.120464	0.655454	-0.37439	0.088106	0.18833	-0.521484	0.230713	-0.572998
983.0	8.090139	-0.944034	1.105773	-0.306979	0.066566	0.193291	-0.526123	0.237305	-0.566406
984.0	8.002335	-0.655969	1.277788	-0.306095	-0.063524	0.196238	-0.521484	0.235107	-0.573242
985.0	8.009631	-0.76048	0.901336	-0.352818	-0.284497	0.188685	-0.526123	0.235107	-0.566162
986.0	8.406737	-0.772707	0.038279	-0.298496	-0.341476	0.196954	-0.526367	0.241699	-0.561768
987.0	8.721443	-0.691664	-0.355513	-0.215541	-0.314369	0.181783	-0.530762	0.241699	-0.561768
988.0	8.838845	-0.384447	-0.328245	-0.220679	-0.135936	0.158427	-0.52417	0.246094	-0.55957
989.0	8.893609	-0.55678	-0.298383	-0.332939	0.053627	0.146764	-0.526367	0.243896	-0.55957
990.0	8.76771	-0.992657	-0.373292	-0.363577	0.107317	0.108374	-0.522217	0.252686	-0.564453
991.0	8.880248	-1.129676	-0.605861	-0.254208	0.114446	0.066356	-0.528809	0.248291	-0.562012
992.0	8.901594	-1.251945	-0.58314	-0.098588	0.238258	0.067482	-0.526611	0.248291	-0.562012
993.0	9.228725	-0.826782	0.297756	-0.106515	0.214949	0.028861	-0.529053	0.250488	-0.559814
994.0	9.235668	-1.310605	-0.143874	-0.207498	0.295172	0.038802	-0.52002	0.250488	-0.566895
995.0	9.331461	-1.922049	-0.199172	-0.060848	0.249895	0.040019	-0.52002	0.250488	-0.571533
996.0	9.352699	-1.727443	0.22938	0.089122	0.079737	0.013673	-0.524658	0.252686	-0.571533
997.0	9.138103	-1.5454	0.073847	0.222126	0.030879	0.015903	-0.522217	0.250488	-0.564453
998.0	8.863184	-1.587376	-1.109806	0.322939	0.068118	-0.007121	-0.521973	0.243896	-0.56665
999.0	8.66404	-0.848244	-1.400715	0.385961	-0.009369	-0.013699	-0.519775	0.243896	-0.564209
1000.0	8.721126	0.06166	-1.189909	0.175942	-0.182014	-0.013151	-0.524414	0.248291	-0.571289
1001.0	8.834697	0.148024	-1.856906	0.064124	-0.149734	-0.030338	-0.526367	0.241699	-0.566406
1002.0	8.886142	0.154515	-2.255382	0.185	0.068523	-0.053205	-0.526367	0.241699	-0.573486
1003.0	8.782825	0.203492	-1.735884	0.151546	0.245469	-0.083459	-0.528564	0.239502	-0.571045
1004.0	8.630591	-0.014787	-1.532474	0.004888	0.215953	-0.095739	-0.52417	0.243896	-0.573486
1005.0	8.892824	-0.633735	-1.793079	-0.042052	0.009502	-0.117041	-0.52417	0.243896	-0.573486
1006.0	9.416661	-1.075177	-1.998247	0.077598	0.019936	-0.14481	-0.526367	0.241699	-0.578125
1007.0	9.808477	-1.163105	-1.309551	0.125178	0.174424	-0.157024	-0.526367	0.239502	-0.571045
1008.0	9.926469	-1.363401	-0.76489	-0.02263	0.280369	-0.162739	-0.521973	0.243896	-0.571289
1009.0	10.218194	-2.308866	-0.707571	-0.178042	0.165915	-0.136172	-0.52417	0.241699	-0.568848
1010.0	10.562128	-2.688297	-0.792254	-0.162845	0.144262	-0.109744	-0.523926	0.237305	-0.580322
1011.0	10.557295	-2.460267	-0.607015	-0.014235	0.368484	-0.096047	-0.519531	0.237305	-0.58252
1012.0	10.271566	-2.003164	-0.302131	0.10066	0.511629	-0.087084	-0.523926	0.235107	-0.580078
1013.0	10.047299	-1.201862	-0.023053	0.073741	0.451917	-0.069743	-0.521484	0.230713	-0.586914
1014.0	10.57509	-0.844106	-0.097013	-0.151137	0.17349	0.005625	-0.523926	0.237305	-0.584961
1015.0	11.397044	-0.504817	-0.919939	-0.040698	-0.126558	0.060299	-0.519531	0.237305	-0.58252
1016.0	11.890701	0.00156	-1.955893	0.254544	-0.223211	0.103955	-0.521484	0.23291	-0.584717
1017.0	11.544342	0.017665	-3.132769	0.374438	0.071401	0.12608	-0.521484	0.23291	-0.584717
1018.0	11.165254	-0.629109	-3.730776	0.16051	0.350585	0.145457	-0.519531	0.239502	-0.584961
1019.0	10.970361	-1.870895	-3.32355	-0.102217	0.439415	0.164149	-0.514648	0.23291	-0.584717
1020.0	11.452869	-2.926985	-1.838706	-0.303256	0.445413	0.196809	-0.512695	0.235107	-0.591797
1021.0	11.947692	-3.274349	-0.660809	-0.172617	0.432079	0.190821	-0.512695	0.235107	-0.591797
1022.0	11.870292	-2.405739	1.850749	-0.071019	0.700439	0.142063	-0.510742	0.243896	-0.59668
1023.0	11.63541	-1.062293	3.86748	-0.041122	0.72739	0.163559	-0.514893	0.235107	-0.601074
1024.0	12.023389	0.488824	4.498391	0.152072	0.108427	0.211507	-0.508301	0.239502	-0.598877
1025.0	12.361583	1.404133	3.96013	0.166503	-0.320189	0.277978	-0.512695	0.235107	-0.598633
1026.0	12.173335	1.692818	2.439596	-0.059832	-0.406831	0.326584	-0.514893	0.239502	-0.594238
1027.0	11.095087	1.335786	1.049391	0.022545	-0.14807	0.368347	-0.512695	0.237305	-0.594238
1028.0	10.26163	0.438422	0.6681	0.183463	0.26707	0.27506	-0.515137	0.241699	-0.598877
1029.0	9.36963	0.279291	0.539549	0.288461	0.540526	0.185879	-0.510254	0.23291	-0.596436
1030.0	8.90732	-0.089078	2.084544	0.376689	0.696787	0.133741	-0.506104	0.239502	-0.603516
1031.0	8.53117	-0.512925	3.082543	0.037306	0.448575	0.134582	-0.508057	0.237305	-0.610352
1032.0	8.145667	-1.381255	4.246942	-0.257494	0.199675	0.149126	-0.508301	0.239502	-0.603516
1033.0	8.419757	-2.144666	4.589567	-0.166168	-0.23023	0.154482	-0.508301	0.239502	-0.601318
1034.0	9.255127	-2.58169	4.229628	0.023922	-0.566548	0.169707	-0.515137	0.241699	-0.598877
1035.0	9.230859	-2.598079	3.061858	0.153222	-0.829764	0.165924	-0.519531	0.239502	-0.5896
1036.0	10.001873	-2.4817	1.069648	0.234386	-1.039007	0.162842	-0.519531	0.237305	-0.598877
1037.0	11.055293	-1.806585	-0.134398	0.367332	-0.907499	0.178566	-0.526367	0.239502	-0.582764
1038.0	11.283975	-1.561296	0.852593	0.361372	-0.47249	0.147602	-0.526123	0.237305	-0.584961
1039.0	11.022382	-1.302574	1.280851	0.103951	-0.431848	0.078562	-0.523682	0.230713	-0.577637
1040.0	10.82413	-0.85195	0.67154	0.519044	-0.390027	0.015047	-0.528076	0.230713	-0.586914
1041.0	10.291733	-0.003703	0.600586	0.83904	-0.126763	-0.091531	-0.534912	0.232666	-0.580078
1042.0	9.699603	1.187175	0.837819	0.79365	-0.149711	-0.119166	-0.543701	0.22168	-0.577393
1043.0	9.523003	1.653463	1.013075	0.440155	-0.250307	-0.133708	-0.534668	0.22168	-0.593506
1044.0	9.392952	1.260286	0.663268	0.227166	-0.151501	-0.172084	-0.543701	0.22168	-0.58667
1045.0	8.955332	1.042362	0.244505	0.45927	0.091048	-0.197684	-0.538818	0.212891	-0.586182
1046.0	8.619586	1.337485	0.940103	0.547756	0.222785	-0.214464	-0.536377	0.210693	-0.588623
1047.0	8.312917	1.254615	1.374792	0.194007	0.188651	-0.213961	-0.53833	0.204102	-0.588379
1048.0	8.027259	0.504712	1.186662	0.039393	0.016865	-0.206041	-0.540771	0.206299	-0.58374
1049.0	8.130827	-0.073356	1.115139	0.175854	-0.177388	-0.209288	-0.538086	0.19751	-0.576416
1050.0	8.121056	-0.144771	0.790204	0.276815	-0.253175	-0.22217	-0.547363	0.201904	-0.585938
1051.0	8.405203	-0.244609	0.564177	0.235171	-0.318525	-0.195678	-0.547119	0.195313	-0.585693
1052.0	8.269764	-0.21986	0.905847	-0.02872	-0.662885	-0.205461	-0.547119	0.19751	-0.581055
1053.0	8.931123	-0.361565	0.242928	-0.104276	-0.786413	-0.181419	-0.558105	0.192871	-0.569336
1054.0	8.870477	-0.904788	-0.94831	0.167784	-0.564872	-0.147914	-0.558105	0.190674	-0.576172
1055.0	9.299974	-0.37142	-1.776784	0.364151	-0.475254	-0.096649	-0.5625	0.190674	-0.566895
1056.0	9.245377	0.171473	-1.680523	0.514834	-0.251092	-0.014933	-0.562744	0.192871	-0.569336
1057.0	9.02497	0.735616	-0.568745	0.237821	-0.308789	0.049577	-0.560059	0.184082	-0.562012
1058.0	9.518846	0.593919	-0.082843	-0.146491	-0.119653	0.086293	-0.564941	0.190674	-0.566895
1059.0	8.775879	-0.239706	-0.854538	0.095982	0.055754	0.118725	-0.566895	0.186279	-0.571289
1060.0	8.471999	-0.225231	-0.617072	0.525918	-0.090667	0.131184	-0.569092	0.184082	-0.56665
1061.0	8.773056	0.66105	-0.183639	0.352771	-0.260883	0.142939	-0.5625	0.186279	-0.564453
1062.0	8.90465	0.118622	-0.829811	-0.003818	-0.216462	0.177855	-0.5625	0.186279	-0.564453
1063.0	8.713414	-0.504459	-1.603634	0.143323	-0.174377	0.173997	-0.569092	0.184082	-0.562012
1064.0	8.680682	-0.220469	-1.436097	0.425136	-0.084389	0.173542	-0.569092	0.184082	-0.568848
1065.0	8.655571	0.347639	-1.12019	0.334281	-0.13547	0.185667	-0.571289	0.181885	-0.564209
1066.0	8.832734	0.362547	-1.281098	0.093784	-0.255596	0.210499	-0.578125	0.181885	-0.554932
1067.0	9.196572	0.254818	-1.728358	0.012511	-0.374751	0.223006	-0.571289	0.184082	-0.557373
1068.0	9.588973	0.220289	-1.85498	-0.010561	-0.313414	0.232294	-0.573486	0.184082	-0.557373
1069.0	10.002576	0.298731	-2.548085	0.039414	-0.404275	0.251772	-0.575684	0.181885	-0.562012
1070.0	10.293911	0.122733	-2.62198	0.109359	-0.425549	0.185143	-0.578125	0.186279	-0.552734
1071.0	10.664009	0.363435	-2.344663	0.203817	-0.1983	0.128872	-0.58252	0.179688	-0.554932
1072.0	11.089098	0.458127	-1.285102	0.114931	0.19094	0.089571	-0.578125	0.184082	-0.552734
1073.0	10.816739	-0.06384	-0.959948	0.090257	0.47605	0.047876	-0.575684	0.17749	-0.55249
1074.0	10.322666	-0.524647	-1.056011	0.376834	0.514618	0.009692	-0.577881	0.179688	-0.55957
1075.0	10.25446	-0.355562	-1.015453	0.544689	0.291906	-0.026698	-0.577637	0.170898	-0.554443
1076.0	10.39033	-0.303258	-1.339367	0.339023	0.147159	-0.027568	-0.577637	0.170898	-0.559082
1077.0	10.344125	-0.741725	-1.919924	0.054183	0.138034	0.007698	-0.577637	0.173096	-0.568604
1078.0	10.141474	-0.88757	-2.104358	0.101005	-0.019558	0.026202	-0.575439	0.173096	-0.561523
1079.0	10.36458	-0.21627	-1.739953	0.235434	-0.229233	0.040217	-0.579834	0.170898	-0.561523
1080.0	10.758683	0.453056	-1.39885	0.010773	-0.446147	0.028138	-0.579834	0.170898	-0.559082
1081.0	11.310512	0.553983	-1.69915	-0.190607	-0.6259	-0.021694	-0.59082	0.164063	-0.558838
1082.0	12.371993	0.235614	-1.270165	-0.286396	-0.38061	-0.105074	-0.584229	0.170654	-0.554443
1083.0	13.827817	-0.69969	-0.010797	-0.607357	-0.045254	-0.260208	-0.58667	0.170654	-0.554443
1084.0	14.963539	-2.319173	1.383505	-1.034081	0.276772	-0.475736	-0.584473	0.172852	-0.550049
1085.0	15.589465	-4.562026	2.095272	-0.958888	0.421696	-0.732514	-0.586426	0.16626	-0.554443
1086.0	14.515716	-4.710936	1.611122	0.245337	0.435224	-0.88945	-0.583496	0.150879	-0.55835
1087.0	11.685944	-0.899692	1.438299	1.584295	0.491147	-0.789231	-0.585449	0.144287	-0.560547
1088.0	9.613581	2.964191	1.169304	1.075972	0.494784	-0.544199	-0.585449	0.139893	-0.56958
1089.0	8.885992	3.822544	0.395507	-0.412423	0.314442	-0.269482	-0.583008	0.139893	-0.564941
1090.0	8.715849	2.022558	-0.02604	-1.138529	0.055987	-0.047849	-0.585449	0.139893	-0.572021
1091.0	9.68066	1.366667	1.526946	-1.017689	0.256803	0.096955	-0.585693	0.150879	-0.572266
1092.0	9.541287	1.313435	3.537959	-0.95927	0.54203	0.090862	-0.585693	0.150879	-0.567627
1093.0	8.796451	1.080785	3.470907	-0.957948	0.437316	0.062565	-0.585938	0.155273	-0.57251
1094.0	8.692656	0.686367	2.706576	-0.852687	-0.026715	-0.006924	-0.593018	0.164063	-0.572754
1095.0	9.567747	0.620636	2.254488	-0.902523	-0.453635	-0.035649	-0.588379	0.159668	-0.556396
1096.0	10.646868	-0.099434	1.045696	-0.883332	-0.61998	-0.088632	-0.597656	0.168457	-0.554443
1097.0	11.03661	-1.080507	0.240079	-0.751906	-0.292137	-0.17009	-0.599609	0.157471	-0.561035
1098.0	10.807145	-1.211829	0.521813	-0.664999	0.091354	-0.222289	-0.593262	0.16626	-0.554443
1099.0	10.920075	-0.825867	0.92703	-0.535277	-0.171429	-0.18306	-0.595459	0.16626	-0.554443
1100.0	11.129625	-1.626548	-0.105526	-0.41335	-0.297277	-0.208699	-0.595459	0.16626	-0.552002
1101.0	10.871894	-1.204659	-0.373396	-0.209437	0.20609	-0.178216	-0.599854	0.161865	-0.556396
1102.0	10.267233	-0.917247	-0.091048	-0.149295	0.429727	-0.091856	-0.597656	0.16626	-0.565918
1103.0	9.846574	-1.197994	0.246285	-0.102768	0.317415	-0.057707	-0.595459	0.16626	-0.561279
1104.0	9.189965	-1.155546	0.098067	-0.167585	0.329536	0.051531	-0.595459	0.164063	-0.563477
1105.0	8.735189	-1.492519	0.503301	-0.01735	0.564591	0.137769	-0.593018	0.164063	-0.568115
1106.0	7.860849	-1.225033	1.086961	-0.298391	0.599134	0.189111	-0.58667	0.172852	-0.559326
1107.0	7.472907	-1.315794	1.465902	-0.63704	0.256814	0.223391	-0.588867	0.170654	-0.563721
1108.0	7.916575	-1.595072	0.788551	-0.508986	-0.278962	0.247091	-0.589111	0.179688	-0.564209
1109.0	8.475672	-1.22677	0.409853	-0.33623	-0.375711	0.252068	-0.598145	0.177246	-0.559326
1110.0	8.593706	-1.088875	-0.010706	-0.299807	-0.145392	0.268239	-0.59375	0.181641	-0.55957
1111.0	8.377742	-1.094775	0.032366	-0.304562	-0.090239	0.242776	-0.593506	0.177246	-0.559326
1112.0	8.372195	-0.9795	0.063729	-0.33861	-0.138162	0.230856	-0.598389	0.186035	-0.557373
1113.0	8.557927	-0.919757	-0.297651	-0.259821	-0.187023	0.212845	-0.603271	0.19043	-0.557617
1114.0	8.808231	-1.076586	-0.625131	-0.26605	-0.217791	0.199511	-0.596436	0.188232	-0.557373
1115.0	8.913611	-0.948079	-1.03837	-0.203384	-0.173424	0.170814	-0.60083	0.186035	-0.552734
1116.0	9.195399	-0.579962	-1.119159	-0.067477	-0.092953	0.130371	-0.60083	0.188232	-0.550537
1117.0	9.169932	-0.386739	-1.343089	-0.046654	0.054406	0.105713	-0.60083	0.186035	-0.555176
1118.0	9.11427	-0.585642	-1.298639	-0.125591	0.135064	0.117265	-0.601074	0.192627	-0.557617
1119.0	8.619872	-1.03889	-0.954601	-0.279287	0.035676	0.053261	-0.603516	0.197266	-0.560059
1120.0	8.968234	-1.368847	-0.837068	-0.065502	0.120645	0.030349	-0.601074	0.192627	-0.557617
1121.0	9.171611	-1.731531	-0.985562	0.224779	0.253443	-0.017107	-0.60083	0.186035	-0.562012
1122.0	9.152803	-1.503608	-0.981454	0.459122	0.385685	-0.073542	-0.598389	0.183838	-0.564209
1123.0	8.668081	-1.231465	-0.129936	0.300136	0.464639	-0.053987	-0.600586	0.181641	-0.55957
1124.0	8.306049	-1.651769	0.059077	-0.029626	0.144248	-0.077389	-0.603027	0.186035	-0.564453
1125.0	8.111911	-1.783087	-0.634105	0.31006	0.034011	-0.125878	-0.602539	0.175049	-0.571045
1126.0	8.249511	-1.033462	-0.296774	0.56387	0.020933	-0.149828	-0.602783	0.179443	-0.566406
1127.0	8.182223	-0.719015	-0.640031	0.456745	-0.142378	-0.161699	-0.604736	0.175049	-0.566162
1128.0	8.55745	-0.801515	-1.170038	0.428619	-0.269462	-0.141874	-0.609375	0.175049	-0.568604
1129.0	8.999074	-0.674756	-0.996728	0.277088	-0.297912	-0.133833	-0.608887	0.16626	-0.563721
1130.0	9.241885	-0.590393	-1.136261	0.176841	-0.370083	-0.130527	-0.611328	0.168457	-0.563721
1131.0	9.547644	-0.372791	-1.069784	0.256191	-0.306907	-0.111031	-0.613281	0.164063	-0.561279
1132.0	9.756477	-0.738503	-1.650376	0.140656	-0.242694	-0.08017	-0.613525	0.168457	-0.559082
1133.0	9.983421	-1.116305	-2.3558	-0.046078	-0.044559	-0.045181	-0.608887	0.164063	-0.556641
1134.0	10.414639	-0.924107	-1.888538	-0.092426	0.168028	-0.022756	-0.61792	0.164063	-0.565918
1135.0	10.882704	-0.394639	-0.81077	-0.273783	0.311581	0.02019	-0.613281	0.164063	-0.563477
1136.0	11.287234	-0.362548	-0.334121	-0.338231	0.430006	0.075794	-0.613281	0.164063	-0.575195
1137.0	11.532432	-0.134423	-0.409297	-0.142702	0.398721	0.097115	-0.611328	0.16626	-0.565918
1138.0	11.565596	0.347215	-1.449054	0.291342	0.26928	0.100068	-0.611328	0.16626	-0.568359
1139.0	11.38039	0.547427	-2.167099	0.41497	0.193507	0.112595	-0.613281	0.161865	-0.582031
1140.0	11.114946	-0.314088	-2.58079	-0.111874	0.158158	0.110574	-0.61792	0.164063	-0.579834
1141.0	10.785268	-2.154728	-2.96454	-0.523381	0.00646	0.097743	-0.611084	0.164063	-0.579834
1142.0	10.998993	-3.892907	-2.98926	-0.311348	-0.147193	0.076426	-0.61792	0.16626	-0.568359
1143.0	11.438401	-4.130339	-2.360048	-0.064071	-0.255282	0.046479	-0.624756	0.168457	-0.575195
1144.0	11.772656	-3.487778	-1.421428	-0.196396	-0.19603	0.05921	-0.615723	0.168457	-0.570557
1145.0	12.028112	-2.570136	-0.57649	-0.360156	-0.098676	0.116435	-0.620605	0.172852	-0.573242
1146.0	12.521451	-1.110193	0.999722	-0.259313	-0.030572	0.223642	-0.625244	0.177246	-0.571045
1147.0	13.121465	0.261652	1.92334	0.004932	-0.057593	0.32617	-0.620605	0.175049	-0.563965
1148.0	12.885967	1.464107	2.022442	0.362285	0.02957	0.399007	-0.625	0.172852	-0.568604
1149.0	12.213384	1.416882	1.797104	0.087606	0.4729	0.396195	-0.62085	0.179443	-0.571045
1150.0	10.643978	0.45392	0.962205	-0.001481	0.795008	0.373235	-0.62085	0.181641	-0.582764
1151.0	9.528185	0.12934	2.338088	0.222334	0.693597	0.329178	-0.62085	0.181641	-0.582764
1152.0	8.761717	0.949305	4.051225	0.369959	0.437133	0.266353	-0.614258	0.186035	-0.587646
1153.0	8.646245	0.365879	4.162871	0.17819	0.032982	0.204711	-0.614014	0.181641	-0.585205
1154.0	8.614129	-0.86956	3.15889	0.026445	-0.427229	0.114777	-0.618408	0.177246	-0.58252
1155.0	9.875648	-1.575062	1.377945	0.169784	-0.382967	0.167067	-0.62085	0.179443	-0.573486
1156.0	10.225914	-1.355403	1.572324	0.359623	-0.061873	0.195855	-0.62085	0.181641	-0.582764
1157.0	10.03566	-1.801139	2.930967	-0.02137	0.103591	0.266098	-0.618408	0.179443	-0.580322
1158.0	9.683786	-3.378375	2.406274	-0.299475	-0.304547	0.250914	-0.62793	0.19043	-0.578369
1159.0	11.281575	-3.940411	1.31435	-0.001513	-0.813546	0.173898	-0.62793	0.188232	-0.571289
1160.0	11.933645	-2.836732	0.713897	0.663387	-0.502319	0.137877	-0.632324	0.186035	-0.57373
1161.0	11.098337	-1.704366	0.597181	0.814736	-0.220876	0.078824	-0.634277	0.177246	-0.573242
1162.0	10.436809	-0.921948	0.798944	0.522866	-0.310687	0.035831	-0.634521	0.186035	-0.571289
1163.0	10.491748	-0.604588	0.282485	0.337378	-0.475655	-0.008372	-0.634277	0.181641	-0.566406
1164.0	10.543783	-0.168843	-0.020792	0.63599	-0.295489	-0.064369	-0.640869	0.177246	-0.566406
1165.0	10.441765	1.062822	0.355619	0.856129	-0.048677	-0.092971	-0.638184	0.166016	-0.561279
1166.0	9.781543	1.946914	0.545726	0.698769	0.063245	-0.143626	-0.638428	0.170654	-0.570801
1167.0	9.084693	2.025116	0.233411	0.528027	0.083753	-0.145921	-0.64502	0.168213	-0.570557
1168.0	8.847326	1.902348	0.079136	0.518223	0.120969	-0.158705	-0.637939	0.159424	-0.574951
1169.0	8.63242	1.778974	0.513211	0.348579	0.16284	-0.159433	-0.640137	0.157227	-0.581787
1170.0	8.284729	1.338234	0.541606	0.1227	0.216928	-0.155147	-0.646973	0.159424	-0.577393
1171.0	8.130016	0.681292	0.843876	0.071386	0.286286	-0.17348	-0.635498	0.155029	-0.577148
1172.0	8.065252	0.173454	1.156176	0.008034	0.211161	-0.210739	-0.640381	0.161621	-0.577393
1173.0	8.238246	-0.650988	0.897789	0.037215	-0.068696	-0.223681	-0.64209	0.148438	-0.58374
1174.0	8.682699	-0.675705	0.624299	0.210392	-0.132402	-0.266441	-0.642334	0.155029	-0.574707
1175.0	8.517956	-0.752033	0.350577	0.213072	0.087545	-0.276296	-0.646484	0.14624	-0.579102
1176.0	8.394315	-0.757353	-0.128957	0.102759	0.10859	-0.261725	-0.646729	0.150635	-0.576904
1177.0	8.472676	-0.797861	-0.808141	0.17605	0.003557	-0.214898	-0.641846	0.141846	-0.583496
1178.0	8.413404	-0.138415	-0.549589	0.479103	0.154814	-0.150448	-0.64624	0.141846	-0.578857
1179.0	8.155118	0.419972	-0.30067	0.384524	0.232032	-0.07668	-0.646484	0.144043	-0.581299
1180.0	7.883776	0.482187	-0.15815	0.208946	0.178011	-0.00367	-0.644043	0.144043	-0.58374
1181.0	7.878517	0.43694	-0.040888	0.198953	-0.012299	0.068877	-0.643799	0.137451	-0.588135
1182.0	7.998352	0.318822	-0.030482	0.216921	-0.144588	0.118298	-0.64624	0.141846	-0.57666
1183.0	7.943829	0.33328	-0.358884	0.426095	-0.227861	0.159057	-0.64624	0.139648	-0.578857
1184.0	8.418506	0.517092	0.700656	0.064074	-0.632441	0.203927	-0.650879	0.141846	-0.574219
1185.0	8.384162	0.466699	0.389376	-0.543359	-0.915865	0.21336	-0.655273	0.141846	-0.564941
1186.0	8.784672	-0.953458	-1.41556	-0.300625	-1.137173	0.262123	-0.664307	0.144043	-0.558105
1187.0	9.227776	-0.925285	-2.284175	0.232091	-0.817444	0.226663	-0.662109	0.144043	-0.558105
1188.0	9.530981	-0.517971	-3.186929	0.394396	-0.51093	0.196851	-0.666748	0.148438	-0.55127
1189.0	9.644653	-0.541996	-3.574538	0.388315	-0.163647	0.180123	-0.668945	0.145996	-0.555908
1190.0	9.460865	-0.435236	-2.965966	0.285855	0.097679	0.15642	-0.668701	0.139404	-0.546387
1191.0	9.796446	-0.134838	-1.174934	0.009114	0.229533	0.139669	-0.664307	0.144043	-0.553467
1192.0	10.169112	-0.438135	-0.878693	0.043684	0.069096	0.107888	-0.668945	0.145996	-0.555908
1193.0	10.764721	-0.338187	-0.652853	0.515456	0.043722	0.062799	-0.666748	0.144043	-0.558105
1194.0	11.310463	-0.013225	-0.821267	0.533227	0.118221	0.058824	-0.664307	0.141846	-0.558105
1195.0	11.111237	-0.144149	-1.469405	0.419729	0.258698	0.01661	-0.666504	0.137207	-0.555664
1196.0	11.013257	-0.167705	-1.717403	0.480669	0.5148	0.046011	-0.664307	0.141846	-0.567383
1197.0	10.780409	-0.09419	-1.327059	0.440338	0.619113	0.011834	-0.659668	0.135254	-0.571777
1198.0	10.550717	-0.208274	-1.311247	0.497125	0.46957	0.026867	-0.657227	0.135254	-0.576416
1199.0	10.387254	-0.339541	-1.573297	0.536166	0.191439	0.029787	-0.664063	0.133057	-0.571533
1200.0	10.501093	0.016591	-1.892719	0.426927	-0.047326	-0.003548	-0.659668	0.135254	-0.571777
1201.0	10.537381	0.080843	-2.628338	0.138132	-0.240487	-0.042107	-0.661621	0.130859	-0.569336
1202.0	10.691354	0.130094	-3.469706	0.002146	-0.406135	-0.079018	-0.664063	0.132813	-0.564697
1203.0	10.926223	0.686641	-3.809602	-0.021117	-0.344064	-0.094154	-0.66626	0.132813	-0.564697
1204.0	11.440598	1.177894	-3.499473	-0.179686	-0.096153	-0.121064	-0.668457	0.13501	-0.5625
1205.0	11.620154	1.075593	-2.810358	-0.388353	0.083692	-0.145141	-0.661621	0.130859	-0.569336
1206.0	12.899469	0.647718	-1.142976	-0.422892	0.213438	-0.228514	-0.663818	0.128418	-0.569092
1207.0	14.421553	-0.540012	0.895756	-0.624496	0.508092	-0.341741	-0.657227	0.133057	-0.566895
1208.0	14.696213	-2.885922	2.232542	-0.925137	0.972803	-0.465482	-0.659668	0.135254	-0.585693
1209.0	14.406963	-5.044985	3.000289	-0.611552	0.996197	-0.615808	-0.656982	0.128662	-0.585449
1210.0	13.692256	-5.168261	3.709897	0.290001	0.841515	-0.755727	-0.656982	0.128662	-0.585449
1211.0	11.917831	-3.271016	3.59943	1.035503	0.82687	-0.801059	-0.649658	0.115479	-0.596436
1212.0	9.832259	-0.240584	3.800013	1.207837	0.646756	-0.687297	-0.651855	0.108887	-0.598633
1213.0	8.005168	1.231566	3.285106	0.247575	0.344889	-0.532938	-0.649414	0.106689	-0.605469
1214.0	7.236396	0.841869	1.850215	-0.390545	-0.058872	-0.275639	-0.647217	0.106689	-0.60083
1215.0	7.68319	0.924609	1.439503	-0.357442	-0.327165	-0.094911	-0.651611	0.106689	-0.60083
1216.0	8.505132	2.602349	2.866165	-0.339316	-0.223249	-0.009495	-0.649414	0.108887	-0.598633
1217.0	8.910468	2.587712	3.349861	-0.9647	-0.051404	0.034626	-0.651855	0.113281	-0.594238
1218.0	8.109982	2.030237	2.839177	-0.995847	-0.143093	0.006132	-0.6521	0.117676	-0.594238
1219.0	9.097464	1.893927	3.54146	-1.032011	-0.64244	0.019842	-0.661377	0.12207	-0.585205
1220.0	10.843455	0.885632	2.372731	-1.166514	-1.275965	0.065766	-0.661865	0.137451	-0.581055
1221.0	12.667285	0.063862	-0.045828	-0.677846	-1.297273	0.023317	-0.663818	0.130615	-0.569336
1222.0	13.141558	-0.248336	-0.460586	-0.346577	-0.572635	-0.070382	-0.668701	0.137207	-0.56958
1223.0	12.236996	-0.831338	-1.669843	-0.338068	0.460343	-0.126614	-0.670654	0.130615	-0.573975
1224.0	11.17223	-1.049946	-1.120497	-0.070127	0.731623	-0.144095	-0.661865	0.135254	-0.576416
1225.0	10.247745	-0.95667	0.783795	0.03239	0.404161	-0.061608	-0.664063	0.133057	-0.580811
1226.0	9.324647	-1.160157	2.071543	-0.451695	0.138844	-0.040648	-0.664307	0.141846	-0.581299
1227.0	9.534856	-1.99612	2.285243	-0.357387	0.11036	-0.017261	-0.659668	0.135254	-0.576416
1228.0	9.550806	-1.890818	1.495373	0.299719	-0.196919	0.045116	-0.664063	0.135254	-0.578613
1229.0	9.223327	-1.301917	0.50444	0.569383	-0.040364	0.121528	-0.659668	0.135254	-0.578613
1230.0	8.619385	-0.663041	0.246791	0.12211	0.100133	0.197371	-0.671143	0.139648	-0.581055
1231.0	7.986527	-0.983364	0.36038	-0.462387	0.160912	0.262571	-0.664307	0.141846	-0.57666
1232.0	7.882886	-1.552436	0.805766	-0.504148	0.050819	0.291564	-0.657959	0.150635	-0.579346
1233.0	7.94424	-1.417156	0.824697	-0.116089	-0.082915	0.262425	-0.666748	0.144043	-0.579102
1234.0	7.868871	-0.499041	1.151655	0.146624	0.037638	0.266562	-0.662598	0.155029	-0.579346
1235.0	7.708272	-0.30578	0.805387	-0.002569	0.048956	0.294488	-0.6604	0.152832	-0.576904
1236.0	7.710595	-0.399097	0.072521	-0.109238	-0.133122	0.291073	-0.662598	0.155029	-0.574707
1237.0	8.397898	-0.24937	-0.286806	-0.102106	-0.284403	0.257916	-0.665039	0.157227	-0.57251
1238.0	9.05014	-0.200142	-0.793368	-0.185894	-7.8e-05	0.236287	-0.66748	0.161621	-0.57959
1239.0	8.756526	-0.500344	-0.545298	-0.407935	0.246163	0.245855	-0.663086	0.166016	-0.575195
1240.0	8.268927	-0.640601	-0.601055	-0.424001	0.241855	0.19855	-0.663086	0.168213	-0.577637
1241.0	8.686984	-0.769416	-0.533062	-0.426719	0.065154	0.159653	-0.660889	0.17041	-0.580078
1242.0	8.947141	-0.915086	-0.788949	-0.28786	0.139709	0.118191	-0.654541	0.177002	-0.575684
1243.0	9.14343	-0.882708	-0.896821	-0.125516	0.06105	0.020012	-0.658936	0.172607	-0.58252
1244.0	9.140117	-0.979145	-0.614136	-0.085214	0.166416	-0.008216	-0.65918	0.181396	-0.578125
1245.0	8.83499	-1.402153	0.105308	-0.100851	0.258582	-0.037477	-0.658936	0.174805	-0.58252
1246.0	8.55852	-1.695033	0.213508	0.065485	0.067213	-0.065955	-0.66333	0.174805	-0.584717
1247.0	8.775485	-1.595666	-0.428037	0.289665	-0.077828	-0.106524	-0.661133	0.172607	-0.575439
1248.0	8.840863	-1.393229	-0.948145	0.309121	-0.001611	-0.116555	-0.658936	0.174805	-0.58252
1249.0	8.794587	-1.301829	-1.451705	0.219121	0.049796	-0.106902	-0.667725	0.168213	-0.584473
1250.0	8.669581	-1.244167	-1.645855	0.242282	0.056857	-0.095666	-0.66333	0.172607	-0.589355
1251.0	8.772201	-0.922628	-1.32662	0.225047	0.029246	-0.088323	-0.660889	0.166016	-0.586914
1252.0	8.584229	-0.85812	-1.391815	0.220154	0.086254	-0.093774	-0.660889	0.168213	-0.586914
1253.0	8.615889	-1.108521	-1.343705	0.28645	0.144935	-0.10327	-0.65625	0.163818	-0.582031
1254.0	8.573042	-0.977376	-1.390478	0.345123	0.044396	-0.103009	-0.663086	0.166016	-0.586914
1255.0	8.910955	-0.718501	-1.241094	0.240167	-0.003923	-0.093918	-0.655762	0.155029	-0.579346
1256.0	9.159305	-0.900697	-1.088571	0.066978	-0.022627	-0.100177	-0.663086	0.166016	-0.584473
1257.0	9.432079	-1.044731	-1.063852	0.055527	-0.070458	-0.106841	-0.660645	0.163818	-0.58667
1258.0	9.844059	-1.337236	-1.108756	0.071043	-0.139343	-0.11122	-0.663086	0.166016	-0.584473
1259.0	10.159041	-1.211426	-1.260993	0.030325	-0.093754	-0.117977	-0.667236	0.159424	-0.582031
1260.0	10.273751	-1.116191	-1.252123	-0.029867	0.128236	-0.127859	-0.660889	0.166016	-0.582275
1261.0	10.408771	-1.091996	-0.931875	-0.18525	0.251788	-0.123751	-0.665039	0.159424	-0.58667
1262.0	10.612069	-1.112328	-0.840761	-0.245049	0.153566	-0.112605	-0.66748	0.163818	-0.579834
1263.0	11.238923	-0.712187	-0.782536	-0.17093	-0.029485	-0.087642	-0.669678	0.163818	-0.58667
1264.0	11.925632	-0.196876	-1.039602	-0.047227	-0.079999	-0.057618	-0.663086	0.166016	-0.589111
1265.0	11.798851	0.002871	-2.090011	0.122693	0.062373	-0.039978	-0.660645	0.163818	-0.589111
1266.0	11.313572	-0.239032	-2.790059	0.18663	0.280899	-0.023968	-0.658691	0.17041	-0.589355
1267.0	11.166391	-1.135167	-3.257876	-0.040277	0.188429	0.007311	-0.663086	0.166016	-0.589111
1268.0	11.140028	-2.249357	-3.779985	-0.079736	0.054426	0.025039	-0.660889	0.17041	-0.586914
1269.0	11.447125	-2.883553	-3.372762	0.096263	0.143688	0.027554	-0.660889	0.166016	-0.589111
1270.0	11.907685	-3.091329	-2.093248	0.027045	0.317169	0.036578	-0.658691	0.168213	-0.591553
1271.0	11.531015	-2.842487	-0.320201	-0.072605	0.595356	0.077428	-0.65625	0.166016	-0.59375
1272.0	11.674725	-2.336808	2.136244	-0.048843	0.689511	0.135347	-0.656494	0.17041	-0.60083
1273.0	12.019204	-1.333492	3.728586	-0.031224	0.370541	0.207157	-0.654297	0.17041	-0.596191
1274.0	12.343293	0.816641	4.759662	0.241125	0.010655	0.275141	-0.656982	0.179443	-0.59668
1275.0	12.554621	2.117455	4.6556	0.316645	-0.036928	0.39768	-0.649902	0.175049	-0.596436
1276.0	11.643723	1.970271	2.837213	0.080844	0.229478	0.423581	-0.650146	0.179443	-0.601318
1277.0	10.317589	1.690638	2.196741	-0.093985	0.229143	0.422669	-0.652588	0.186035	-0.596924
1278.0	9.003573	2.187797	3.071274	0.057849	0.039233	0.436782	-0.648193	0.19043	-0.601563
1279.0	8.949681	0.626758	2.387985	0.004539	-0.250325	0.473154	-0.650391	0.188232	-0.596924
1280.0	8.633182	-0.898452	1.420875	0.029433	-0.033753	0.285381	-0.655273	0.197021	-0.597168
1281.0	10.24609	-1.769043	1.64711	-0.128733	-0.314222	0.182721	-0.655273	0.197021	-0.590332
1282.0	10.08167	-1.65728	2.226156	-0.273291	0.182963	0.187302	-0.65332	0.205811	-0.595215
1283.0	9.388694	-2.660576	4.040294	-0.191554	0.326992	0.174032	-0.648682	0.201416	-0.592773
1284.0	9.136957	-3.30457	3.791281	-0.128192	-0.277562	0.12276	-0.65332	0.205811	-0.593018
1285.0	9.759516	-3.026563	3.549279	0.108769	-0.78825	0.0793	-0.657715	0.203613	-0.583496
1286.0	10.465957	-2.708048	1.228326	0.346954	-0.990046	0.072887	-0.662354	0.203613	-0.574219
1287.0	11.468758	-2.047766	-0.028853	0.549266	-0.978259	0.082589	-0.664307	0.199219	-0.571777
1288.0	11.639516	-1.110441	-0.624784	0.513938	-0.597255	0.098424	-0.664551	0.201416	-0.56958
1289.0	11.377295	-0.625188	0.169654	0.306824	-0.266596	0.017317	-0.666504	0.196777	-0.573975
1290.0	10.907591	-0.039393	0.733878	0.386786	-0.079119	0.001722	-0.671143	0.198975	-0.564697
1291.0	10.349141	0.531729	1.477763	0.429952	0.027236	-0.061746	-0.666504	0.19458	-0.569336
1292.0	9.694104	1.350539	1.509141	0.54234	-0.095716	-0.092386	-0.668701	0.196777	-0.560059
1293.0	9.107325	1.729058	0.967207	0.562341	-0.232315	-0.107488	-0.675293	0.190186	-0.564453
1294.0	8.852737	1.802457	0.19963	0.427574	-0.253031	-0.164504	-0.672852	0.187988	-0.571289
1295.0	9.409529	1.941239	-0.13319	0.321505	-0.409576	-0.087597	-0.675049	0.183594	-0.564209
1296.0	9.30648	1.792629	-0.303178	0.145251	-0.012975	-0.098381	-0.67749	0.190186	-0.557617
1297.0	9.080996	1.195779	-0.566148	0.2071	0.402754	-0.052011	-0.675293	0.187988	-0.559814
1298.0	8.750893	0.717301	0.570035	0.248363	0.390734	-0.068102	-0.670898	0.190186	-0.566895
1299.0	7.973769	0.028867	1.974586	-0.536912	-0.165148	-0.168271	-0.668457	0.190186	-0.564453
1300.0	8.161885	-0.627027	2.008237	-0.685449	-0.73021	-0.169469	-0.675293	0.192383	-0.557617
1301.0	9.324738	-1.52839	0.233905	0.054496	-0.928753	-0.116526	-0.67749	0.187988	-0.552734
1302.0	9.102203	-1.556184	-1.699851	0.769681	-0.430446	-0.152012	-0.679688	0.187988	-0.545898
1303.0	8.53883	-0.275391	-1.553579	0.634084	-0.043573	-0.14618	-0.679443	0.181396	-0.543213
1304.0	8.421283	0.0552	-1.376579	-0.01542	0.123953	-0.093467	-0.679688	0.187988	-0.545898
1305.0	8.331069	-0.071985	-0.584048	-0.40298	0.329928	-0.055061	-0.679443	0.179199	-0.547852
1306.0	7.920621	-0.267634	0.472185	-0.036276	0.435583	-0.029472	-0.67749	0.185791	-0.550293
1307.0	7.866277	-0.079994	0.953318	0.332835	0.224374	0.029379	-0.67749	0.185791	-0.550293
1308.0	7.968146	0.695511	0.552222	0.371313	0.062612	0.07043	-0.679688	0.187988	-0.552734
1309.0	7.988217	1.025262	-0.216087	0.121036	0.010383	0.131595	-0.679443	0.183594	-0.550293
1310.0	7.954077	0.780267	-0.707007	-0.094023	0.046995	0.17158	-0.681885	0.187988	-0.555176
1311.0	7.943633	0.514541	-0.564937	-0.161324	0.130798	0.194132	-0.67749	0.187988	-0.552734
1312.0	8.004947	0.228471	-0.267954	-0.154836	0.049706	0.217029	-0.67334	0.19458	-0.55542
1313.0	8.023347	0.249036	-0.098224	-0.139302	-0.130629	0.233444	-0.684326	0.192383	-0.545898
1314.0	8.073234	0.071193	-0.326252	-0.095294	-0.276915	0.234925	-0.682373	0.201172	-0.546387
1315.0	8.500479	-0.150123	-0.708643	-0.091626	-0.555026	0.241471	-0.684814	0.201172	-0.541748
1316.0	9.078695	-0.386995	-1.261407	-0.080296	-0.941227	0.230596	-0.684814	0.203369	-0.537109
