Acquisition frequency: 100 Hz
PacketCounter	Acc_X	Acc_Y	Acc_Z	Gyr_X	Gyr_Y	Gyr_Z	Mag_X	Mag_Y	Mag_Z
0.0	5.498057	1.687709	8.239774	-0.020757	0.008838	-0.014006	-0.637451	0.035645	-0.38208
1.0	5.5437	1.696216	8.175109	-0.016332	0.010604	-0.01299	-0.637695	0.037842	-0.384521
2.0	5.495974	1.686636	8.241383	-0.010795	0.008778	-0.017251	-0.637451	0.035645	-0.38208
3.0	5.530195	1.708425	8.206589	-0.015592	0.00821	-0.016509	-0.641846	0.035645	-0.386719
4.0	5.517807	1.720689	8.237292	-0.01292	0.007758	-0.013039	-0.635254	0.033447	-0.38208
5.0	5.533863	1.685587	8.199429	-0.013514	0.005591	-0.018293	-0.637451	0.03125	-0.388916
6.0	5.544556	1.700688	8.237739	-0.012724	0.00807	-0.014526	-0.637451	0.033447	-0.38208
7.0	5.509078	1.682564	8.193004	-0.012527	0.008383	-0.016013	-0.639893	0.037842	-0.386719
8.0	5.543286	1.732204	8.226013	-0.014236	0.009806	-0.015989	-0.637451	0.03125	-0.388916
9.0	5.507017	1.682014	8.194502	-0.014433	0.009494	-0.014502	-0.644043	0.035645	-0.384521
10.0	5.51739	1.696968	8.233048	-0.014215	0.011628	-0.017203	-0.637451	0.03125	-0.377441
11.0	5.498833	1.671441	8.217658	-0.020611	0.005506	-0.013072	-0.639648	0.035645	-0.384521
12.0	5.509637	1.68604	8.255983	-0.015246	0.005196	-0.017058	-0.639648	0.035645	-0.379883
13.0	5.538078	1.697934	8.242664	-0.017174	0.004484	-0.014335	-0.641846	0.033447	-0.388916
14.0	5.502938	1.679612	8.197735	-0.012377	0.005057	-0.015074	-0.635254	0.033447	-0.38208
15.0	5.548288	1.684795	8.213639	-0.012378	0.005057	-0.015074	-0.637695	0.037842	-0.38208
16.0	5.530591	1.691767	8.184904	-0.010626	0.00728	-0.017524	-0.637451	0.033447	-0.388916
17.0	5.523664	1.682235	8.206992	-0.008918	0.005859	-0.017549	-0.635498	0.037842	-0.384521
18.0	5.522976	1.682326	8.207436	-0.012006	0.003863	-0.016835	-0.637451	0.033447	-0.38208
19.0	5.533655	1.697675	8.245687	-0.006401	0.008737	-0.015016	-0.637695	0.037842	-0.388916
20.0	5.5214	1.682349	8.208492	-0.015643	0.004569	-0.014088	-0.64209	0.042236	-0.386719
21.0	5.52685	1.691775	8.187429	-0.010847	0.005146	-0.014826	-0.641602	0.03125	-0.384277
22.0	5.514569	1.704093	8.217996	-0.01409	0.00648	-0.015051	-0.635498	0.037842	-0.386719
23.0	5.518619	1.649525	8.223183	-0.015624	0.006392	-0.015301	-0.635254	0.033447	-0.391113
24.0	5.524552	1.69088	8.189165	-0.012558	0.006568	-0.014802	-0.637451	0.033447	-0.386719
25.0	5.511496	1.671241	8.232883	-0.012538	0.008391	-0.016014	-0.626465	0.033691	-0.384521
26.0	5.516689	1.680841	8.211967	-0.012361	0.006883	-0.016289	-0.635498	0.037842	-0.384521
27.0	5.515419	1.648808	8.225473	-0.01183	0.002359	-0.017113	-0.631104	0.040039	-0.391357
28.0	5.481304	1.722508	8.222195	-0.008314	0.009849	-0.013503	-0.639893	0.040039	-0.382324
29.0	5.531902	1.705658	8.229767	-0.013719	0.005288	-0.016814	-0.637451	0.035645	-0.384521
30.0	5.513019	1.648537	8.227136	-0.013897	0.006796	-0.01654	-0.637451	0.03125	-0.379883
31.0	5.530303	1.705222	8.230932	-0.012561	0.00657	-0.014803	-0.637695	0.040039	-0.384521
32.0	5.517604	1.657761	8.206716	-0.014114	0.004658	-0.013843	-0.637695	0.037842	-0.388916
33.0	5.557334	1.685286	8.231242	-0.010635	0.00729	-0.017526	-0.639893	0.040039	-0.384521
34.0	5.539448	1.692165	8.202663	-0.015789	0.009726	-0.01624	-0.635254	0.033447	-0.386719
35.0	5.503922	1.70162	8.225643	-0.011029	0.006659	-0.014554	-0.637451	0.033447	-0.379883
36.0	5.502436	1.669396	8.239315	-0.014453	0.009499	-0.014504	-0.633057	0.035645	-0.391357
37.0	5.524497	1.671711	8.247771	-0.016967	0.006622	-0.017043	-0.637695	0.037842	-0.384521
38.0	5.507304	1.710486	8.206119	-0.01217	0.007205	-0.017777	-0.635254	0.035645	-0.379883
39.0	5.494282	1.690689	8.249776	-0.015631	0.006395	-0.015307	-0.635254	0.035645	-0.386719
40.0	5.499001	1.668206	8.241849	-0.012368	0.006889	-0.016291	-0.639893	0.040039	-0.384521
41.0	5.515795	1.665504	8.190915	-0.01235	0.008714	-0.017502	-0.637451	0.03125	-0.386719
42.0	5.526309	1.680599	8.229301	-0.010853	0.005154	-0.014831	-0.635498	0.037842	-0.386719
43.0	5.525731	1.680549	8.2297	-0.011831	0.002367	-0.01712	-0.637451	0.035645	-0.386719
44.0	5.53125	1.690413	8.208554	-0.010281	0.004281	-0.018079	-0.641846	0.035645	-0.386719
45.0	5.535995	1.668288	8.200547	-0.011017	0.008488	-0.015765	-0.635498	0.037842	-0.386719
46.0	5.52948	1.69033	8.209764	-0.014084	0.008309	-0.016267	-0.64209	0.037842	-0.38208
47.0	5.499455	1.67749	8.224203	-0.014085	0.00831	-0.016268	-0.639893	0.037842	-0.388916
48.0	5.544485	1.682949	8.240381	-0.010641	0.007299	-0.017528	-0.637451	0.033447	-0.38208
49.0	5.526931	1.662841	8.143827	-0.005827	0.009712	-0.019469	-0.637939	0.042236	-0.386719
50.0	5.536405	1.67349	8.263151	-0.018507	0.006532	-0.0173	-0.639648	0.035645	-0.384521
51.0	5.484401	1.662834	8.188779	0.00047	0.006741	-0.017529	-0.637695	0.037842	-0.386719
52.0	5.517948	1.680998	8.234828	-0.015654	0.004568	-0.014103	-0.637695	0.037842	-0.386719
53.0	5.499833	1.65589	8.219013	-0.007774	0.007163	-0.015539	-0.641846	0.035645	-0.388916
54.0	5.562839	1.71861	8.23848	-0.010463	0.005793	-0.017806	-0.637695	0.037842	-0.386719
55.0	5.521273	1.65893	8.227771	-0.009324	0.005247	-0.014582	-0.64209	0.037842	-0.386719
56.0	5.537861	1.683848	8.24465	-0.013712	0.007121	-0.018033	-0.639893	0.040039	-0.382324
57.0	5.502236	1.634121	8.212512	-0.004511	0.007665	-0.016521	-0.637695	0.037842	-0.384521
58.0	5.507625	1.703654	8.246448	-0.012014	0.003878	-0.01685	-0.64209	0.037842	-0.384521
59.0	5.501102	1.666357	8.200617	-0.01101	0.010318	-0.016975	-0.639648	0.035645	-0.386719
60.0	5.517087	1.659517	8.23046	-0.007216	0.00447	-0.01758	-0.637695	0.040039	-0.382324
61.0	5.545387	1.672372	8.217229	-0.010845	0.006984	-0.016044	-0.637451	0.033447	-0.377441
62.0	5.544659	1.672569	8.21768	-0.00588	0.004243	-0.015842	-0.635498	0.037842	-0.391357
63.0	5.486261	1.679523	8.232596	-0.009115	0.007395	-0.017278	-0.639893	0.037842	-0.384521
64.0	5.503168	1.677298	8.181606	-0.009116	0.007395	-0.017278	-0.637451	0.033447	-0.388916
65.0	5.524411	1.67562	8.270743	-0.009327	0.005249	-0.014585	-0.641846	0.035645	-0.386719
66.0	5.512859	1.692489	8.220489	-0.012381	0.006893	-0.016298	-0.64209	0.040039	-0.382324
67.0	5.523489	1.648232	8.203768	-0.008765	0.002555	-0.016626	-0.637451	0.035645	-0.384521
68.0	5.534055	1.663715	8.242003	-0.005671	0.006393	-0.018537	-0.635254	0.035645	-0.38208
69.0	5.481736	1.680593	8.235391	-0.008752	0.004382	-0.017835	-0.639893	0.040039	-0.384521
70.0	5.544757	1.684031	8.199913	-0.012003	0.005706	-0.018063	-0.635254	0.035645	-0.386719
71.0	5.514969	1.671435	8.214062	-0.0076	0.005662	-0.015819	-0.637451	0.035645	-0.386719
72.0	5.53156	1.696679	8.230875	-0.008753	0.004383	-0.017835	-0.633057	0.035645	-0.38208
73.0	5.50759	1.661909	8.236336	-0.010681	0.003651	-0.015117	-0.637939	0.042236	-0.38916
74.0	5.484204	1.691188	8.216176	-0.010445	0.009454	-0.020226	-0.637695	0.037842	-0.388916
75.0	5.517844	1.681852	8.194635	-0.011417	0.00968	-0.014005	-0.637695	0.040039	-0.386719
76.0	5.50514	1.694392	8.225269	-0.002607	0.006583	-0.018031	-0.641846	0.035645	-0.388916
77.0	5.509658	1.640571	8.230001	-0.012202	0.005386	-0.016579	-0.637451	0.033447	-0.388916
78.0	5.509236	1.672718	8.217647	-0.007589	0.007493	-0.017027	-0.633057	0.035645	-0.384521
79.0	5.525586	1.697917	8.234631	-0.010657	0.007307	-0.017534	-0.635254	0.035645	-0.386719
80.0	5.513118	1.651158	8.210153	-0.004326	0.008001	-0.018006	-0.635742	0.044434	-0.386963
81.0	5.535136	1.654568	8.218496	-0.006057	0.007587	-0.016774	-0.639648	0.033447	-0.388916
82.0	5.499924	1.696321	8.22836	-0.007406	0.005987	-0.017306	-0.635254	0.035645	-0.391357
83.0	5.516063	1.689643	8.258066	-0.007221	0.00448	-0.017585	-0.639648	0.033447	-0.386719
84.0	5.481163	1.671781	8.212855	-0.012575	0.0084	-0.016025	-0.637695	0.040039	-0.386719
85.0	5.532304	1.68754	8.2076	-0.006267	0.005439	-0.014082	-0.631104	0.037842	-0.38916
86.0	5.525376	1.677776	8.229598	-0.010846	0.008815	-0.017257	-0.635254	0.033447	-0.384277
87.0	5.512545	1.689735	8.260396	-0.016026	0.009398	-0.014769	-0.633057	0.035645	-0.38208
88.0	5.541039	1.643085	8.192267	-0.009138	0.005575	-0.016076	-0.637451	0.035645	-0.384521
89.0	5.52877	1.687543	8.20998	-0.006257	0.00727	-0.015289	-0.633301	0.040039	-0.386719
90.0	5.556479	1.66864	8.209802	-0.00663	0.010283	-0.014731	-0.635498	0.040039	-0.386719
91.0	5.502882	1.680428	8.28411	-0.009896	0.00494	-0.021067	-0.637695	0.037842	-0.388916
92.0	5.502832	1.653427	8.216595	-0.007989	0.006854	-0.014058	-0.639893	0.037842	-0.386719
93.0	5.513484	1.700729	8.24216	-0.007606	0.00567	-0.015823	-0.635498	0.040039	-0.386719
94.0	5.50129	1.654008	8.21751	-0.005679	0.006409	-0.01854	-0.637451	0.035645	-0.386719
95.0	5.517897	1.711461	8.221665	-0.00913	0.007405	-0.017284	-0.637451	0.035645	-0.38208
96.0	5.528561	1.66753	8.204952	-0.00626	0.007272	-0.01529	-0.637695	0.037842	-0.38208
97.0	5.486825	1.667104	8.249136	-0.007598	0.0075	-0.01703	-0.637695	0.037842	-0.388916
98.0	5.532591	1.646084	8.197373	-0.006261	0.007272	-0.01529	-0.639893	0.037842	-0.384521
99.0	5.508182	1.702922	8.245252	-0.006811	0.008792	-0.022972	-0.641846	0.033447	-0.384277
100.0	5.50199	1.666186	8.19922	-0.009142	0.005576	-0.016079	-0.633301	0.037842	-0.384521
101.0	5.512317	1.681438	8.237605	-0.007609	0.005672	-0.015825	-0.631104	0.035645	-0.386719
102.0	5.494428	1.656867	8.221524	-0.002811	0.006281	-0.016546	-0.635254	0.035645	-0.388916
103.0	5.516925	1.692635	8.216897	-0.002239	0.003591	-0.018591	-0.637695	0.040039	-0.379883
104.0	5.528169	1.681135	8.187129	-0.007225	0.004488	-0.01759	-0.637451	0.033447	-0.384277
105.0	5.509547	1.683642	8.239008	-0.007225	0.004488	-0.017591	-0.639893	0.037842	-0.384521
106.0	5.491977	1.690911	8.210133	-0.010481	0.005803	-0.017821	-0.639404	0.03125	-0.384277
107.0	5.501911	1.674117	8.261394	-0.007603	0.007502	-0.017031	-0.637451	0.035645	-0.386719
108.0	5.547842	1.653129	8.209598	-0.010293	0.004298	-0.018102	-0.637451	0.033447	-0.391113
109.0	5.50653	1.68448	8.240853	-0.007809	0.005349	-0.014341	-0.639648	0.033447	-0.388916
110.0	5.517434	1.640734	8.223997	-0.004152	0.006513	-0.018287	-0.631104	0.040039	-0.382324
111.0	5.511024	1.695329	8.220301	-0.00895	0.005901	-0.017567	-0.635498	0.037842	-0.384521
112.0	5.533179	1.698547	8.228641	-0.007613	0.005673	-0.015827	-0.639648	0.035645	-0.384521
113.0	5.492352	1.670843	8.204732	-0.00741	0.007828	-0.018518	-0.637451	0.035645	-0.384521
114.0	5.526523	1.662081	8.182919	-0.008579	0.001058	-0.016923	-0.644287	0.037842	-0.386719
115.0	5.536986	1.677098	8.221241	-0.011461	0.006014	-0.011601	-0.637695	0.040039	-0.38916
116.0	5.507243	1.664227	8.235267	-0.005688	0.00642	-0.018542	-0.635254	0.033447	-0.384277
117.0	5.523598	1.689481	8.252231	-0.012223	0.003553	-0.015389	-0.635254	0.035645	-0.384521
118.0	5.512122	1.674464	8.214594	-0.007432	0.002339	-0.014903	-0.637451	0.035645	-0.386719
119.0	5.511568	1.674813	8.214895	-0.005696	0.004591	-0.017338	-0.635498	0.037842	-0.384521
120.0	5.527856	1.668145	8.244508	-0.007433	0.002339	-0.014903	-0.639404	0.03125	-0.384277
121.0	5.510603	1.675494	8.215404	-0.005512	0.001255	-0.016413	-0.64209	0.037842	-0.38208
122.0	5.532877	1.678999	8.223619	-0.007029	0.006651	-0.020284	-0.637451	0.035645	-0.38208
123.0	5.515226	1.686355	8.194781	-0.009152	0.005579	-0.016084	-0.637695	0.037842	-0.388916
124.0	5.53729	1.657777	8.215782	-0.002243	0.003608	-0.018593	-0.637939	0.044434	-0.384521
125.0	5.524782	1.702526	8.233459	-0.007227	0.006327	-0.018799	-0.641846	0.033447	-0.377441
126.0	5.490096	1.684907	8.188057	-0.007227	0.006327	-0.018799	-0.635254	0.035645	-0.386719
127.0	5.517152	1.693293	8.255761	-0.007429	0.004171	-0.016109	-0.637939	0.042236	-0.386719
128.0	5.499457	1.668524	8.2396	-0.007424	0.006002	-0.017314	-0.637451	0.035645	-0.38208
129.0	5.533688	1.692041	8.205123	-0.005891	0.006101	-0.017058	-0.635498	0.037842	-0.388916
130.0	5.510117	1.689551	8.197559	-0.003974	0.003188	-0.017364	-0.639648	0.035645	-0.379883
131.0	5.509479	1.689822	8.197932	-0.012223	0.005381	-0.016598	-0.639648	0.033447	-0.384277
132.0	5.554527	1.664099	8.226838	-0.002638	0.002962	-0.015623	-0.637695	0.037842	-0.384521
133.0	5.508165	1.690412	8.198693	-0.01222	0.007213	-0.017803	-0.637451	0.035645	-0.379883
134.0	5.507386	1.69059	8.19918	-0.007235	0.004498	-0.017596	-0.637695	0.037842	-0.38208
135.0	5.529584	1.693843	8.207517	-0.010691	0.00548	-0.016343	-0.639648	0.035645	-0.38208
136.0	5.545549	1.654704	8.25008	-0.01108	0.00666	-0.014576	-0.635254	0.035645	-0.384521
137.0	5.527838	1.661919	8.221308	-0.005891	0.007937	-0.018263	-0.637451	0.035645	-0.38208
138.0	5.504169	1.659091	8.213868	-0.012033	0.003876	-0.016882	-0.639893	0.040039	-0.38916
139.0	5.514549	1.706603	8.239474	-0.002246	0.00362	-0.018594	-0.639648	0.035645	-0.38208
140.0	5.502901	1.659966	8.21454	-0.00916	0.00558	-0.016087	-0.639893	0.037842	-0.386719
141.0	5.525064	1.695418	8.210236	-0.00609	0.007612	-0.016778	-0.637451	0.033447	-0.379883
142.0	5.524189	1.663775	8.223385	-0.005703	0.004601	-0.017341	-0.635498	0.040039	-0.382324
143.0	5.517632	1.718331	8.21972	-0.007237	0.004502	-0.017598	-0.637695	0.037842	-0.38208
144.0	5.50005	1.693604	8.203481	-0.007238	0.004502	-0.017598	-0.639893	0.037842	-0.384521
145.0	5.53921	1.690096	8.241019	-0.004369	0.002543	-0.014396	-0.633301	0.037842	-0.386719
146.0	5.515662	1.687272	8.233484	-0.013175	0.006261	-0.021316	-0.639648	0.033447	-0.384277
147.0	5.543742	1.668468	8.233226	-0.005344	0.006406	-0.01058	-0.637695	0.037842	-0.379883
148.0	5.49721	1.662516	8.217834	-0.008771	0.006236	-0.01906	-0.637451	0.035645	-0.386719
149.0	5.519418	1.698136	8.21347	-0.004368	0.004377	-0.0156	-0.639893	0.040039	-0.384521
150.0	5.518691	1.666402	8.226544	-0.00763	0.005682	-0.015832	-0.639893	0.037842	-0.38208
151.0	5.518093	1.698894	8.214204	-0.005512	0.003099	-0.017625	-0.639893	0.037842	-0.386719
152.0	5.500495	1.674138	8.197986	-0.009164	0.007414	-0.017293	-0.639648	0.035645	-0.386719
153.0	5.516578	1.699881	8.215017	-0.000519	0.004058	-0.019823	-0.635254	0.035645	-0.388916
154.0	5.544948	1.681634	8.214474	-0.00858	0.001065	-0.016937	-0.64209	0.040039	-0.384521
155.0	5.509368	1.690794	8.236975	-0.004565	0.007718	-0.016521	-0.635498	0.037842	-0.38208
156.0	5.526882	1.689637	8.185774	-0.002251	-3.5e-05	-0.01619	-0.635742	0.042236	-0.384521
157.0	5.514349	1.701956	8.216084	-0.01031	0.004302	-0.018116	-0.639893	0.037842	-0.38208
158.0	5.525783	1.690234	8.186393	-0.008972	0.004076	-0.016373	-0.635254	0.035645	-0.38208
159.0	5.542035	1.683313	8.216096	-0.010702	0.003646	-0.015146	-0.635254	0.035645	-0.386719
160.0	5.512483	1.670102	8.229955	-0.009169	0.005582	-0.016091	-0.641846	0.033447	-0.384277
161.0	5.517919	1.680169	8.208991	-0.014912	0.002165	-0.017687	-0.631104	0.035645	-0.384521
162.0	5.552209	1.671491	8.187287	-0.006299	0.007292	-0.015293	-0.641846	0.035645	-0.384521
163.0	5.516556	1.680801	8.209778	-0.003393	0.002359	-0.020622	-0.639893	0.037842	-0.384521
164.0	5.538996	1.68439	8.217924	-0.010311	0.000636	-0.015712	-0.637695	0.037842	-0.38208
165.0	5.550681	1.640412	8.200786	-0.010705	0.003647	-0.015147	-0.637451	0.033447	-0.38208
166.0	5.515021	1.681436	8.210679	-0.005909	0.006117	-0.017061	-0.639893	0.037842	-0.38208
167.0	5.502102	1.72563	8.228597	-0.012044	0.005707	-0.018093	-0.635498	0.037842	-0.38208
168.0	5.54249	1.662826	8.210854	-0.012044	0.003874	-0.016891	-0.637695	0.037842	-0.384521
169.0	5.541663	1.694965	8.198735	-0.009568	0.008594	-0.015526	-0.637451	0.03125	-0.38208
170.0	5.511994	1.649629	8.225321	-0.007836	0.005358	-0.014349	-0.639893	0.037842	-0.384521
171.0	5.528138	1.706962	8.229744	-0.011847	0.002369	-0.017176	-0.635498	0.040039	-0.386719
172.0	5.523027	1.670102	8.183246	-0.009921	0.001297	-0.018686	-0.637451	0.035645	-0.386719
173.0	5.521046	1.697175	8.251746	-0.007447	0.006018	-0.01732	-0.635498	0.037842	-0.386719
174.0	5.538624	1.663673	8.213291	-0.008781	0.002576	-0.01666	-0.635498	0.037842	-0.386719
175.0	5.515054	1.6929	8.193074	-0.007448	0.006019	-0.01732	-0.637451	0.035645	-0.38208
176.0	5.543233	1.674411	8.19277	-0.008982	0.005916	-0.017579	-0.637939	0.042236	-0.375488
177.0	5.536372	1.696507	8.201989	-0.010711	0.005483	-0.016352	-0.637451	0.03125	-0.379883
178.0	5.54643	1.679307	8.253186	-0.013584	0.005606	-0.018355	-0.635498	0.037842	-0.377686
179.0	5.512108	1.661267	8.20763	-0.006111	0.005794	-0.015577	-0.639893	0.040039	-0.382324
180.0	5.534204	1.664478	8.216107	-0.014174	0.00645	-0.015101	-0.639893	0.040039	-0.382324
181.0	5.527267	1.686547	8.225376	-0.005721	0.006457	-0.018547	-0.637695	0.037842	-0.386719
182.0	5.538746	1.642874	8.208359	-0.012247	0.00538	-0.016612	-0.637451	0.035645	-0.386719
183.0	5.525643	1.68694	8.226386	-0.007455	0.007858	-0.018522	-0.637695	0.037842	-0.384521
184.0	5.524679	1.68718	8.226985	-0.009579	0.008598	-0.015527	-0.637451	0.035645	-0.384521
185.0	5.52986	1.665135	8.218899	-0.01418	0.008285	-0.016304	-0.639648	0.033447	-0.375244
186.0	5.551677	1.700531	8.214891	-0.006313	0.007303	-0.015294	-0.637451	0.033447	-0.38208
187.0	5.521783	1.687053	8.228954	-0.016115	0.01119	-0.015996	-0.635498	0.037842	-0.38208
188.0	5.555644	1.678333	8.207665	-0.011119	0.010331	-0.016988	-0.639648	0.035645	-0.384521
189.0	5.525794	1.664797	8.221701	-0.013982	0.006782	-0.01659	-0.639893	0.037842	-0.38208
190.0	5.524697	1.696743	8.20981	-0.012849	0.009896	-0.015763	-0.639648	0.035645	-0.388916
191.0	5.507213	1.60713	8.218964	-0.012654	0.010228	-0.017248	-0.635254	0.035645	-0.386719
192.0	5.539328	1.689657	8.240632	-0.009387	0.008933	-0.017013	-0.639648	0.033447	-0.384277
193.0	5.48658	1.673118	8.246635	-0.010726	0.009161	-0.018758	-0.635498	0.037842	-0.38208
194.0	5.508597	1.67629	8.255197	-0.011303	0.004492	-0.011903	-0.644287	0.040039	-0.382324
195.0	5.548903	1.677855	8.212322	-0.012652	0.008392	-0.016048	-0.637451	0.033447	-0.38208
196.0	5.535728	1.689392	8.243105	-0.012652	0.008393	-0.016049	-0.64209	0.037842	-0.386719
197.0	5.535058	1.657049	8.256255	-0.013784	0.005279	-0.016879	-0.637695	0.040039	-0.382324
198.0	5.546352	1.677384	8.214141	-0.011114	0.006662	-0.014589	-0.637695	0.037842	-0.384521
199.0	5.528907	1.652159	8.19791	-0.010919	0.006995	-0.016074	-0.637695	0.040039	-0.382324
200.0	5.51565	1.696042	8.216035	-0.009385	0.007101	-0.015814	-0.637451	0.035645	-0.386719
201.0	5.52101	1.674228	8.2078	-0.009386	0.007101	-0.015814	-0.637451	0.035645	-0.379883
202.0	5.508042	1.686018	8.23837	-0.008983	0.004094	-0.016385	-0.631104	0.037842	-0.382324
203.0	5.513589	1.664253	8.230001	-0.009185	0.005598	-0.0161	-0.633301	0.037842	-0.384521
204.0	5.529752	1.657297	8.25976	-0.010713	0.003655	-0.015161	-0.639893	0.037842	-0.388916
205.0	5.541211	1.677946	8.217495	-0.00745	0.004201	-0.016125	-0.633301	0.040039	-0.38916
206.0	5.505489	1.686415	8.239995	-0.010916	0.005159	-0.014876	-0.637451	0.035645	-0.388916
207.0	5.533868	1.667816	8.239672	-0.007848	0.005372	-0.014355	-0.637695	0.037842	-0.386719
208.0	5.516418	1.674972	8.210735	-0.008985	0.004096	-0.016386	-0.639648	0.035645	-0.38208
209.0	5.532556	1.668294	8.240456	-0.00706	0.00487	-0.019095	-0.639648	0.035645	-0.384521
210.0	5.5379	1.64665	8.23221	-0.009797	0.010111	-0.015244	-0.637695	0.040039	-0.382324
211.0	5.507717	1.697761	8.221	-0.004188	0.00475	-0.01709	-0.635498	0.040039	-0.384521
212.0	5.507041	1.666	8.234031	-0.008069	0.010552	-0.016468	-0.639893	0.037842	-0.384521
213.0	5.512133	1.676533	8.213295	-0.010129	0.004658	-0.019619	-0.637451	0.035645	-0.38208
214.0	5.521857	1.69171	8.251928	-0.007664	0.007545	-0.01704	-0.639893	0.037842	-0.38208
215.0	5.510485	1.676971	8.214311	-0.012062	0.005721	-0.01811	-0.637451	0.033447	-0.384277
216.0	5.537025	1.685044	8.282294	-0.007461	0.006043	-0.017327	-0.64209	0.037842	-0.384521
217.0	5.50895	1.677271	8.215279	-0.012258	0.005386	-0.016626	-0.639648	0.035645	-0.384521
218.0	5.537259	1.6587	8.215036	-0.009395	0.007105	-0.015817	-0.633301	0.040039	-0.384521
219.0	5.536494	1.658601	8.215572	-0.011515	0.005994	-0.011624	-0.637695	0.037842	-0.38208
220.0	5.529441	1.680608	8.224877	-0.005733	0.006488	-0.01855	-0.64209	0.037842	-0.388916
221.0	5.512078	1.65574	8.208513	-0.009396	0.007106	-0.015818	-0.635498	0.037842	-0.388916
222.0	5.52749	1.713352	8.213409	-0.007463	0.006046	-0.017327	-0.637695	0.037842	-0.38208
223.0	5.520939	1.671063	8.247683	-0.009397	0.007107	-0.015818	-0.635254	0.033447	-0.384277
224.0	5.526077	1.681532	8.226948	-0.009202	0.007442	-0.017303	-0.637695	0.037842	-0.386719
225.0	5.520796	1.67709	8.168012	-0.010727	0.005495	-0.016367	-0.637695	0.037842	-0.379883
226.0	5.530669	1.659801	8.219252	-0.009809	0.010115	-0.015245	-0.64209	0.040039	-0.384521
227.0	5.546582	1.653013	8.249147	-0.007259	0.004545	-0.017615	-0.635254	0.035645	-0.38208
228.0	5.522725	1.682116	8.229079	-0.011871	0.006059	-0.019599	-0.637451	0.035645	-0.386719
229.0	5.534194	1.670909	8.199485	-0.004603	0.00777	-0.016518	-0.637451	0.033447	-0.377441
230.0	5.533344	1.67135	8.199968	-0.007466	0.006049	-0.017329	-0.637695	0.040039	-0.386719
231.0	5.542917	1.68671	8.238641	-0.004409	0.008106	-0.018003	-0.637451	0.033447	-0.384277
232.0	5.520763	1.689594	8.15037	-0.009206	0.007444	-0.017305	-0.639893	0.037842	-0.384521
233.0	5.493592	1.70683	8.291925	-0.01247	0.00689	-0.016345	-0.64209	0.037842	-0.388916
234.0	5.52335	1.694227	8.211054	-0.006747	0.010334	-0.014722	-0.64209	0.037842	-0.379883
235.0	5.50601	1.668875	8.194774	-0.018399	0.004951	-0.017683	-0.64209	0.037842	-0.38208
236.0	5.538425	1.686873	8.241628	-0.010742	0.007337	-0.017568	-0.639648	0.035645	-0.388916
237.0	5.521119	1.661807	8.225265	-0.00787	0.00722	-0.015559	-0.639893	0.037842	-0.386719
238.0	5.491138	1.68039	8.226559	-0.0096	0.006774	-0.014337	-0.635254	0.033447	-0.386719
239.0	5.541989	1.697742	8.221898	-0.005728	0.00466	-0.017356	-0.637695	0.037842	-0.38208
240.0	5.535271	1.687461	8.243627	-0.012864	0.006218	-0.013378	-0.637939	0.042236	-0.38916
241.0	5.517643	1.694498	8.214833	-0.007481	0.007895	-0.018528	-0.639893	0.037842	-0.384521
242.0	5.562685	1.66919	8.244005	-0.012474	0.006892	-0.016348	-0.637451	0.033447	-0.384277
243.0	5.52234	1.672808	8.207086	-0.009199	0.005609	-0.01611	-0.637451	0.035645	-0.38208
244.0	5.503257	1.673805	8.258937	-0.012658	0.004715	-0.013667	-0.635254	0.035645	-0.384521
245.0	5.543568	1.676159	8.216234	-0.00656	0.010677	-0.016205	-0.628906	0.035645	-0.388916
246.0	5.507407	1.684338	8.238885	-0.011137	0.006665	-0.014602	-0.635498	0.037842	-0.379883
247.0	5.519364	1.640718	8.221726	-0.009213	0.007451	-0.017307	-0.644043	0.035645	-0.386719
248.0	5.518213	1.673122	8.209797	-0.008992	0.004108	-0.016399	-0.644043	0.035645	-0.386719
249.0	5.511131	1.695098	8.219081	-0.009201	0.005611	-0.016111	-0.630859	0.033447	-0.379883
250.0	5.510781	1.662999	8.231954	-0.01054	0.005839	-0.017859	-0.631104	0.037842	-0.38916
251.0	5.532714	1.666618	8.24058	-0.007681	0.007563	-0.017045	-0.630859	0.033447	-0.386719
252.0	5.509116	1.663541	8.232959	-0.006134	0.005833	-0.015585	-0.637695	0.037842	-0.384521
253.0	5.514456	1.674265	8.212089	-0.009928	0.003172	-0.019921	-0.637451	0.033447	-0.388916
254.0	5.519799	1.684884	8.19124	-0.009203	0.005612	-0.016112	-0.635254	0.033447	-0.386719
255.0	5.507032	1.664241	8.234212	-0.009008	0.005951	-0.017597	-0.633301	0.037842	-0.38916
256.0	5.522523	1.689576	8.251739	-0.012286	0.007232	-0.017836	-0.635498	0.037842	-0.38208
257.0	5.504943	1.696565	8.222924	-0.010738	0.005502	-0.016377	-0.639648	0.035645	-0.384521
258.0	5.504686	1.664302	8.235768	-0.010934	0.005163	-0.014893	-0.639893	0.042236	-0.384521
259.0	5.509987	1.674753	8.214989	-0.009205	0.005614	-0.016113	-0.644043	0.035645	-0.386719
260.0	5.50926	1.674773	8.215472	-0.012274	0.005391	-0.016642	-0.635254	0.033447	-0.386719
261.0	5.515081	1.652957	8.20702	-0.009191	0.003773	-0.014918	-0.633301	0.037842	-0.38916
262.0	5.513944	1.685456	8.195065	-0.005944	0.006178	-0.01707	-0.641846	0.035645	-0.384521
263.0	5.542388	1.667443	8.194763	-0.009012	0.005955	-0.017599	-0.635498	0.037842	-0.388916
264.0	5.506451	1.675668	8.217173	-0.005929	0.004337	-0.015875	-0.633301	0.037842	-0.38916
265.0	5.529069	1.646983	8.238041	-0.011132	0.004824	-0.01341	-0.633301	0.037842	-0.38916
266.0	5.527832	1.679405	8.226167	-0.007089	0.006747	-0.020303	-0.639404	0.03125	-0.384277
267.0	5.51037	1.686879	8.197176	-0.005719	0.002836	-0.016165	-0.64209	0.037842	-0.377686
268.0	5.526424	1.680253	8.22694	-0.007691	0.007571	-0.017046	-0.635254	0.035645	-0.384521
269.0	5.480091	1.673492	8.21119	-0.010744	0.005504	-0.01638	-0.641846	0.035645	-0.379883
270.0	5.518826	1.670135	8.249177	-0.00882	0.006297	-0.019084	-0.639893	0.037842	-0.38208
271.0	5.518043	1.670306	8.249666	-0.010744	0.005504	-0.016381	-0.635742	0.042236	-0.384521
272.0	5.535843	1.669591	8.198749	-0.008805	0.004455	-0.01789	-0.64209	0.037842	-0.379883
273.0	5.551362	1.6951	8.216227	-0.009017	0.005958	-0.017601	-0.639648	0.033447	-0.388916
274.0	5.521826	1.681442	8.229784	-0.007483	0.006071	-0.017336	-0.639893	0.040039	-0.382324
275.0	5.520945	1.681645	8.230334	-0.009636	0.008622	-0.015538	-0.635254	0.033447	-0.38208
276.0	5.520044	1.68173	8.230921	-0.011891	0.006073	-0.019616	-0.637451	0.033447	-0.379883
277.0	5.519316	1.681749	8.231405	-0.009603	0.004937	-0.013149	-0.64209	0.040039	-0.382324
278.0	5.547944	1.663397	8.231095	-0.010942	0.005164	-0.014898	-0.635254	0.033447	-0.384277
279.0	5.511913	1.67109	8.253604	-0.012494	0.006894	-0.016358	-0.639893	0.040039	-0.379883
280.0	5.517208	1.681434	8.232883	-0.012264	0.003549	-0.015454	-0.635498	0.037842	-0.386719
281.0	5.522503	1.69173	8.212174	-0.014029	0.006781	-0.016624	-0.639893	0.037842	-0.388916
282.0	5.538416	1.684555	8.242144	-0.012496	0.006896	-0.016359	-0.637451	0.035645	-0.386719
283.0	5.527963	1.637302	8.216737	-0.014225	0.006441	-0.01514	-0.641846	0.033447	-0.384277
284.0	5.536846	1.684114	8.24329	-0.012284	0.005395	-0.016649	-0.633301	0.037842	-0.384521
285.0	5.536032	1.684111	8.243837	-0.010769	0.007353	-0.017578	-0.637695	0.037842	-0.386719
286.0	5.518868	1.658736	8.227431	-0.014459	0.009787	-0.016044	-0.637451	0.035645	-0.384521
287.0	5.50712	1.676253	8.17752	-0.007702	0.007582	-0.017047	-0.635498	0.040039	-0.384521
288.0	5.511044	1.648261	8.249856	-0.012694	0.006555	-0.014876	-0.639648	0.035645	-0.386719
289.0	5.516103	1.658797	8.229273	-0.009256	0.009313	-0.018507	-0.639648	0.035645	-0.379883
290.0	5.514672	1.691167	8.217551	-0.012072	0.003894	-0.016943	-0.635254	0.035645	-0.384521
291.0	5.530752	1.68409	8.247384	-0.012286	0.005396	-0.016652	-0.639893	0.037842	-0.391357
292.0	5.535943	1.694509	8.226745	-0.010037	0.007945	-0.01257	-0.637451	0.033447	-0.391113
293.0	5.541679	1.6727	8.218394	-0.010967	0.007014	-0.016096	-0.633301	0.040039	-0.382324
294.0	5.534781	1.662247	8.240184	-0.008114	0.008746	-0.015273	-0.637451	0.035645	-0.384521
295.0	5.539862	1.672814	8.219596	-0.012502	0.006899	-0.016363	-0.637695	0.040039	-0.384521
296.0	5.510126	1.65884	8.233268	-0.007941	0.010934	-0.01795	-0.639648	0.033447	-0.388916
297.0	5.531351	1.694861	8.229761	-0.009199	0.003783	-0.014929	-0.635254	0.035645	-0.384521
298.0	5.531097	1.66273	8.24256	-0.009476	0.01082	-0.018216	-0.637695	0.040039	-0.386719
299.0	5.519903	1.64804	8.204948	-0.012719	0.008401	-0.016073	-0.637451	0.035645	-0.386719
300.0	5.505849	1.691489	8.223399	-0.010344	0.004356	-0.018165	-0.635254	0.033447	-0.379883
301.0	5.534404	1.673433	8.223146	-0.008313	0.008405	-0.013789	-0.637451	0.033447	-0.38208
302.0	5.504836	1.659354	8.236702	-0.009632	0.006788	-0.014348	-0.637451	0.033447	-0.384277
303.0	5.497348	1.681224	8.2462	-0.007709	0.007592	-0.017049	-0.635254	0.035645	-0.38208
304.0	5.521721	1.659065	8.186481	-0.010972	0.007016	-0.016099	-0.635498	0.040039	-0.384521
305.0	5.489628	1.67083	8.268496	-0.009438	0.007133	-0.015832	-0.633301	0.037842	-0.377686
306.0	5.530141	1.674043	8.225889	-0.007494	0.006092	-0.017341	-0.637695	0.040039	-0.377686
307.0	5.500648	1.66001	8.239367	-0.011168	0.006672	-0.014616	-0.635254	0.033447	-0.384277
308.0	5.512523	1.648997	8.209716	-0.006155	0.005865	-0.015591	-0.637695	0.040039	-0.384521
309.0	5.52186	1.664114	8.248471	-0.007083	0.004936	-0.019118	-0.637451	0.035645	-0.38208
310.0	5.49836	1.660816	8.240732	-0.009441	0.007133	-0.015834	-0.633301	0.037842	-0.384521
311.0	5.532333	1.685653	8.20706	-0.009202	0.003787	-0.014934	-0.64209	0.037842	-0.38208
312.0	5.525672	1.67527	8.228642	-0.007496	0.006094	-0.017342	-0.639893	0.040039	-0.38916
313.0	5.560194	1.667966	8.207242	-0.010782	0.007362	-0.017585	-0.635254	0.03125	-0.384277
314.0	5.524068	1.675608	8.22965	-0.009008	0.004132	-0.016419	-0.637451	0.035645	-0.384521
315.0	5.494701	1.661673	8.242999	-0.006158	0.005868	-0.015591	-0.637695	0.037842	-0.386719
316.0	5.522655	1.676	8.230519	-0.012295	0.005399	-0.016662	-0.637695	0.037842	-0.384521
317.0	5.493091	1.661939	8.244019	-0.0064	0.009216	-0.016491	-0.635498	0.037842	-0.384521
318.0	5.53698	1.701724	8.248764	-0.00767	0.003905	-0.014668	-0.635254	0.035645	-0.38208
319.0	5.520269	1.676453	8.232027	-0.012514	0.006901	-0.016371	-0.637695	0.037842	-0.386719
320.0	5.519362	1.676421	8.232642	-0.009664	0.008637	-0.015543	-0.64209	0.037842	-0.386719
321.0	5.525256	1.654559	8.224238	-0.015559	0.004819	-0.015716	-0.635254	0.035645	-0.38208
322.0	5.524367	1.654477	8.224852	-0.010616	0.009558	-0.020262	-0.635498	0.040039	-0.386719
323.0	5.500004	1.683352	8.20504	-0.009229	0.005636	-0.016129	-0.635254	0.035645	-0.384521
324.0	5.52262	1.654432	8.226034	-0.015072	0.008748	-0.011604	-0.633057	0.03125	-0.38208
325.0	5.515046	1.675924	8.235635	-0.009035	0.005984	-0.017613	-0.635254	0.035645	-0.386719
326.0	5.514287	1.676047	8.236118	-0.010764	0.00552	-0.016398	-0.64209	0.040039	-0.384521
327.0	5.480823	1.657808	8.190009	-0.009449	0.007139	-0.015836	-0.637451	0.035645	-0.386719
328.0	5.512759	1.676288	8.237092	-0.007477	0.004256	-0.016154	-0.644287	0.037842	-0.388916
329.0	5.518825	1.654765	8.228513	-0.010765	0.005521	-0.016398	-0.639893	0.037842	-0.379883
330.0	5.517386	1.68717	8.216805	-0.009012	0.004139	-0.016423	-0.635742	0.042236	-0.384521
331.0	5.52346	1.665653	8.208223	-0.009232	0.00564	-0.01613	-0.637451	0.035645	-0.384521
332.0	5.526664	1.669776	8.268258	-0.011911	0.006096	-0.019635	-0.639648	0.033447	-0.379883
333.0	5.515915	1.655233	8.23037	-0.006774	0.006684	-0.012333	-0.639648	0.035645	-0.38208
334.0	5.514325	1.68766	8.218759	-0.009453	0.007141	-0.015838	-0.637695	0.040039	-0.379883
335.0	5.52024	1.666043	8.21031	-0.010988	0.007023	-0.016107	-0.635498	0.040039	-0.384521
336.0	5.529418	1.680927	8.249177	-0.005751	0.004726	-0.017371	-0.637695	0.037842	-0.38208
337.0	5.505938	1.677664	8.241373	-0.007726	0.007608	-0.017053	-0.637695	0.040039	-0.38916
338.0	5.511916	1.656233	8.232847	-0.007895	0.005413	-0.014379	-0.64209	0.040039	-0.38916
339.0	5.517181	1.667041	8.212163	-0.009235	0.005642	-0.016132	-0.635498	0.040039	-0.384521
340.0	5.509608	1.688918	8.221663	-0.008846	0.006337	-0.0191	-0.639893	0.037842	-0.38208
341.0	5.52164	1.678194	8.191955	-0.009015	0.004142	-0.016427	-0.639893	0.040039	-0.382324
342.0	5.50217	1.678612	8.243696	-0.009458	0.007143	-0.015839	-0.639893	0.037842	-0.384521
343.0	5.536826	1.671327	8.222343	-0.012305	0.005403	-0.016672	-0.635254	0.035645	-0.38208
344.0	5.514257	1.635343	8.226657	-0.009237	0.005643	-0.016133	-0.635498	0.037842	-0.384521
345.0	5.52868	1.692818	8.232302	-0.015541	0.002967	-0.014538	-0.637695	0.037842	-0.38208
346.0	5.564242	1.653251	8.223003	-0.006003	0.008082	-0.018268	-0.639893	0.037842	-0.384521
347.0	5.481617	1.685746	8.216845	-0.01348	0.00783	-0.021099	-0.64209	0.037842	-0.384521
348.0	5.517021	1.646363	8.207623	-0.005053	0.007157	-0.013547	-0.633301	0.040039	-0.382324
349.0	5.5321	1.671809	8.225425	-0.012307	0.005404	-0.016674	-0.635498	0.040039	-0.38916
350.0	5.526326	1.628808	8.259061	-0.009017	0.004145	-0.016429	-0.64209	0.037842	-0.38208
351.0	5.502123	1.657588	8.239123	-0.00924	0.005646	-0.016135	-0.64209	0.037842	-0.384521
352.0	5.530078	1.672202	8.226705	-0.007484	0.004266	-0.01616	-0.637451	0.033447	-0.386719
353.0	5.507674	1.636326	8.230871	-0.010552	0.004025	-0.0167	-0.641846	0.035645	-0.38208
354.0	5.506062	1.668847	8.219256	-0.006396	0.007388	-0.015301	-0.639893	0.037842	-0.38208
355.0	5.528971	1.640378	8.240004	-0.012981	0.001133	-0.019314	-0.635498	0.040039	-0.382324
356.0	5.527391	1.672747	8.2284	-0.009689	0.008647	-0.015546	-0.637695	0.040039	-0.384521
357.0	5.526627	1.672756	8.228911	-0.010748	0.003677	-0.015218	-0.633301	0.037842	-0.382324
358.0	5.55559	1.655048	8.22849	-0.007068	0.003119	-0.017939	-0.631104	0.037842	-0.384521
359.0	5.519556	1.662334	8.250697	-0.012283	0.003556	-0.015488	-0.637695	0.037842	-0.384521
360.0	5.50911	1.647897	8.212627	-0.005758	0.004741	-0.017374	-0.637451	0.035645	-0.38208
361.0	5.531129	1.652067	8.221262	-0.008409	0.003349	-0.019694	-0.639893	0.037842	-0.38208
362.0	5.507826	1.648716	8.213324	-0.004838	0.005664	-0.013842	-0.639648	0.035645	-0.384521
363.0	5.50021	1.670785	8.22278	-0.006906	0.005321	-0.020612	-0.633545	0.042236	-0.380127
364.0	5.529079	1.653184	8.222416	-0.010751	0.003677	-0.01522	-0.637451	0.035645	-0.386719
365.0	5.527504	1.685521	8.210812	-0.010782	0.005527	-0.016408	-0.635254	0.035645	-0.379883
366.0	5.527713	1.653194	8.223332	-0.010782	0.005527	-0.016408	-0.637695	0.037842	-0.386719
367.0	5.526988	1.653214	8.223816	-0.010782	0.005528	-0.016409	-0.633057	0.035645	-0.386719
368.0	5.532246	1.663833	8.203218	-0.014045	0.004933	-0.015467	-0.637939	0.042236	-0.386719
369.0	5.503875	1.616705	8.228562	-0.012737	0.006555	-0.014901	-0.637695	0.040039	-0.382324
370.0	5.546561	1.688893	8.221616	-0.009024	0.004152	-0.016434	-0.639648	0.033447	-0.384277
371.0	5.52417	1.653262	8.225699	-0.00384	0.005573	-0.020072	-0.631104	0.037842	-0.379883
372.0	5.529329	1.664372	8.205076	-0.011204	0.006678	-0.014631	-0.635498	0.037842	-0.388916
373.0	5.509687	1.664627	8.256829	-0.005795	0.0066	-0.018564	-0.635254	0.03125	-0.384277
374.0	5.521741	1.654207	8.22714	-0.009057	0.006003	-0.017623	-0.633301	0.040039	-0.38916
375.0	5.498361	1.650675	8.21927	-0.006377	0.005547	-0.014114	-0.635498	0.037842	-0.386719
376.0	5.53606	1.680182	8.245342	-0.006878	0.003479	-0.019427	-0.639893	0.037842	-0.386719
377.0	5.502173	1.694618	8.186791	-0.00704	0.001277	-0.016757	-0.633057	0.035645	-0.384521
378.0	5.529029	1.6696	8.267109	-0.017959	0.00698	-0.012454	-0.631104	0.040039	-0.379883
379.0	5.518539	1.655047	8.229119	-0.001163	0.005123	-0.016563	-0.637451	0.035645	-0.379883
380.0	5.530896	1.64457	8.199257	-0.012257	0.001704	-0.014309	-0.639893	0.040039	-0.384521
381.0	5.503483	1.698644	8.24797	-0.005799	0.006605	-0.018565	-0.637451	0.035645	-0.377686
382.0	5.566073	1.605695	8.19024	-0.009449	0.005302	-0.014658	-0.64209	0.040039	-0.379883
383.0	5.509073	1.677533	8.239702	-0.007268	0.002779	-0.016462	-0.644287	0.037842	-0.384521
384.0	5.528346	1.645663	8.200757	-0.004233	0.004879	-0.017106	-0.639893	0.037842	-0.384521
385.0	5.472246	1.685529	8.262182	-0.004233	0.004879	-0.017107	-0.637451	0.033447	-0.388916
386.0	5.542646	1.671888	8.218923	-0.010985	0.005177	-0.01493	-0.633301	0.037842	-0.382324
387.0	5.533301	1.625007	8.192845	-0.010371	0.004384	-0.018194	-0.639648	0.035645	-0.384521
388.0	5.535446	1.661517	8.240752	-0.002666	0.003153	-0.015648	-0.635498	0.037842	-0.384521
389.0	5.512272	1.65817	8.23269	-0.006156	0.004051	-0.014412	-0.637451	0.033447	-0.384277
390.0	5.530447	1.65862	8.181845	-0.005997	0.006256	-0.017082	-0.644287	0.040039	-0.384521
391.0	5.546466	1.652001	8.211625	-0.00861	0.003009	-0.01822	-0.637695	0.037842	-0.384521
392.0	5.516166	1.670214	8.212745	-0.00293	0.006506	-0.016539	-0.637451	0.035645	-0.386719
393.0	5.533234	1.631273	8.254489	-0.007692	0.003927	-0.014685	-0.637939	0.042236	-0.382324
394.0	5.513665	1.703476	8.201561	-0.004078	0.007089	-0.019778	-0.635254	0.033447	-0.38208
395.0	5.543568	1.653621	8.213256	-0.011605	0.005969	-0.01167	-0.631104	0.040039	-0.379883
396.0	5.50723	1.660727	8.235548	-0.002738	0.006862	-0.018022	-0.633301	0.037842	-0.384521
397.0	5.512215	1.672076	8.215018	-0.007992	0.009131	-0.016762	-0.635498	0.037842	-0.384521
398.0	5.550633	1.669181	8.253317	-0.007728	0.00578	-0.015873	-0.639893	0.040039	-0.379883
399.0	5.524557	1.629475	8.197857	-0.009298	0.007507	-0.017332	-0.637939	0.042236	-0.386719
400.0	5.519275	1.687341	8.255127	-0.006424	0.007405	-0.015304	-0.641846	0.033447	-0.391113
401.0	5.521638	1.662402	8.187025	-0.007994	0.009132	-0.016763	-0.628906	0.037842	-0.382324
402.0	5.530367	1.677358	8.226077	-0.004467	0.006387	-0.016812	-0.639404	0.03125	-0.386719
403.0	5.52008	1.663091	8.187936	-0.011873	0.002406	-0.017287	-0.635254	0.035645	-0.384521
404.0	5.537318	1.623793	8.229648	-0.006583	0.0052	-0.012635	-0.639893	0.040039	-0.384521
405.0	5.512936	1.652574	8.209736	-0.007307	0.004637	-0.017655	-0.637695	0.037842	-0.384521
406.0	5.557452	1.660561	8.226882	-0.009265	0.005656	-0.016148	-0.635498	0.037842	-0.386719
407.0	5.4984	1.66358	8.240871	-0.009726	0.008654	-0.015553	-0.637695	0.037842	-0.388916
408.0	5.533139	1.656942	8.219617	-0.007732	0.005783	-0.015875	-0.64209	0.037842	-0.38208
409.0	5.526449	1.646313	8.241126	-0.009073	0.006012	-0.017632	-0.641846	0.035645	-0.391357
410.0	5.501795	1.675063	8.221393	-0.008	0.009136	-0.016764	-0.639893	0.037842	-0.38208
411.0	5.530683	1.657431	8.221171	-0.013832	0.003424	-0.015783	-0.639893	0.042236	-0.379883
412.0	5.513363	1.664464	8.192181	-0.006199	0.005912	-0.015603	-0.639893	0.037842	-0.377686
413.0	5.516302	1.668182	8.252235	-0.01387	0.005278	-0.016969	-0.635254	0.035645	-0.386719
414.0	5.528612	1.657466	8.222557	-0.009462	0.005304	-0.014666	-0.637451	0.033447	-0.384277
415.0	5.520825	1.678885	8.232173	-0.013871	0.005278	-0.01697	-0.637451	0.033447	-0.377441
416.0	5.534281	1.635899	8.214395	-0.007735	0.005787	-0.015876	-0.639648	0.033447	-0.38208
417.0	5.541926	1.682752	8.241563	-0.014297	0.006422	-0.01519	-0.639893	0.037842	-0.38208
418.0	5.508915	1.664444	8.195177	-0.007156	0.006855	-0.020326	-0.635254	0.035645	-0.384521
419.0	5.511773	1.668051	8.255287	-0.014685	0.00571	-0.012224	-0.64209	0.040039	-0.379883
420.0	5.530049	1.668275	8.204561	-0.007311	0.004647	-0.017658	-0.637695	0.037842	-0.386719
421.0	5.510454	1.66812	8.256154	-0.012108	0.003908	-0.016997	-0.639893	0.040039	-0.382324
422.0	5.535855	1.647042	8.19625	-0.007738	0.00579	-0.015877	-0.639648	0.035645	-0.384521
423.0	5.509138	1.668133	8.257029	-0.01537	0.003297	-0.016062	-0.641846	0.035645	-0.38208
424.0	5.556088	1.683157	8.193584	-0.010342	0.002539	-0.017022	-0.637451	0.035645	-0.386719
425.0	5.499805	1.621069	8.231041	-0.013411	0.002284	-0.017571	-0.633301	0.037842	-0.377686
426.0	5.541995	1.69384	8.224438	-0.005973	0.004422	-0.015902	-0.639893	0.042236	-0.379883
427.0	5.525872	1.668474	8.207334	-0.015412	0.005152	-0.017248	-0.633301	0.040039	-0.382324
428.0	5.513358	1.646541	8.249845	-0.010384	0.004396	-0.018208	-0.635498	0.037842	-0.386719
429.0	5.524633	1.668469	8.208169	-0.010537	0.002184	-0.015541	-0.635254	0.03125	-0.384277
430.0	5.509786	1.711203	8.226903	-0.015607	0.004795	-0.015766	-0.637695	0.037842	-0.386719
431.0	5.496344	1.620844	8.233397	-0.00877	0.000816	-0.015566	-0.637695	0.037842	-0.386719
432.0	5.517243	1.657234	8.230236	-0.010772	0.003683	-0.015242	-0.639648	0.033447	-0.379883
433.0	5.522772	1.668185	8.209479	-0.010071	-0.00081	-0.016141	-0.639893	0.037842	-0.379883
434.0	5.523738	1.635927	8.221483	-0.008578	0.001174	-0.01705	-0.639893	0.040039	-0.382324
435.0	5.514896	1.69025	8.219004	-0.003783	0.001919	-0.01771	-0.644043	0.035645	-0.379883
436.0	5.526494	1.639878	8.281553	-0.017297	0.002452	-0.013375	-0.635254	0.033447	-0.384277
437.0	5.543707	1.672656	8.218885	-0.005552	0.003289	-0.017685	-0.637695	0.040039	-0.382324
438.0	5.544515	1.640343	8.231008	-0.013802	0.00157	-0.014609	-0.637939	0.042236	-0.382324
439.0	5.504913	1.643347	8.193432	-0.007238	0.000948	-0.015294	-0.635498	0.037842	-0.386719
440.0	5.542524	1.672795	8.219655	-0.010734	0.001829	-0.01406	-0.635498	0.037842	-0.38208
441.0	5.543399	1.640607	8.231707	-0.005319	0.001794	-0.017986	-0.635498	0.037842	-0.386719
442.0	5.554773	1.663055	8.189886	-0.005512	0.001436	-0.016503	-0.639648	0.035645	-0.379883
443.0	5.528175	1.684119	8.250515	-0.011163	0.002968	-0.012278	-0.637695	0.040039	-0.377686
444.0	5.518134	1.66963	8.212304	-0.010393	0.004402	-0.01821	-0.64209	0.040039	-0.379883
445.0	5.523384	1.680766	8.191707	-0.009052	0.004173	-0.016453	-0.633057	0.035645	-0.38208
446.0	5.516974	1.669473	8.213114	-0.018836	0.002318	-0.013653	-0.64209	0.042236	-0.379883
447.0	5.552041	1.662494	8.191852	-0.012785	0.006551	-0.014919	-0.635742	0.042236	-0.386963
448.0	5.522891	1.64716	8.204967	-0.015811	0.004435	-0.014287	-0.633301	0.037842	-0.386719
449.0	5.537724	1.672093	8.223032	-0.014234	0.002709	-0.01283	-0.639648	0.035645	-0.38208
450.0	5.531237	1.660702	8.244501	-0.01677	0.005383	-0.019011	-0.633545	0.042236	-0.382324
451.0	5.543596	1.650286	8.214815	-0.006221	0.005936	-0.015603	-0.64209	0.037842	-0.38208
452.0	5.548985	1.661494	8.194125	-0.011415	-0.000574	-0.017906	-0.637939	0.042236	-0.386719
453.0	5.542689	1.650663	8.215351	-0.006179	0.00408	-0.014421	-0.635254	0.035645	-0.386719
454.0	5.521653	1.682529	8.255205	-0.01279	0.006553	-0.01492	-0.637695	0.037842	-0.386719
455.0	5.518723	1.64649	8.207905	-0.012554	0.005056	-0.015221	-0.635742	0.042236	-0.384521
456.0	5.533321	1.67159	8.226098	-0.01586	0.006292	-0.015471	-0.635498	0.037842	-0.38208
457.0	5.523231	1.656835	8.18799	-0.013852	0.003429	-0.015798	-0.639648	0.035645	-0.38208
458.0	5.531959	1.671147	8.227104	-0.009531	0.007176	-0.015853	-0.644287	0.040039	-0.379883
459.0	5.538437	1.649516	8.218449	-0.018502	0.004894	-0.017807	-0.637695	0.040039	-0.384521
460.0	5.53777	1.649327	8.218936	-0.00661	0.005222	-0.012637	-0.637695	0.040039	-0.384521
461.0	5.559653	1.653437	8.227807	-0.013278	0.004511	-0.020248	-0.637939	0.042236	-0.382324
462.0	5.543703	1.628172	8.210556	-0.007524	0.004315	-0.01618	-0.64209	0.040039	-0.386719
463.0	5.53434	1.682212	8.208483	-0.010639	0.005911	-0.017913	-0.637451	0.033447	-0.384277
464.0	5.523166	1.627732	8.262685	-0.011069	0.007047	-0.016129	-0.637695	0.037842	-0.384521
465.0	5.547433	1.639517	8.190983	-0.009014	0.002327	-0.015276	-0.637695	0.037842	-0.384521
466.0	5.519889	1.592131	8.215555	-0.00906	0.004186	-0.016457	-0.637695	0.040039	-0.384521
467.0	5.549832	1.643497	8.251211	-0.003405	0.002671	-0.020681	-0.637695	0.037842	-0.38208
468.0	5.529594	1.647765	8.162117	-0.009986	-0.009549	-0.019726	-0.64209	0.037842	-0.384521
469.0	5.600011	1.903818	8.203979	-0.030012	0.007556	-0.00788	-0.635498	0.037842	-0.384521
470.0	5.603347	1.869066	8.277656	-0.105713	0.031115	0.007676	-0.639893	0.037842	-0.377686
471.0	5.522878	1.622654	8.249042	-0.145389	0.03627	0.012044	-0.635498	0.040039	-0.379883
472.0	5.482254	1.582419	8.226808	-0.102287	0.037154	0.011189	-0.637939	0.042236	-0.38916
473.0	5.469749	1.586174	8.320312	-0.113195	0.034024	0.011898	-0.637939	0.042236	-0.386719
474.0	5.458583	1.563108	8.284473	-0.083959	0.014939	0.013823	-0.637939	0.044434	-0.386963
475.0	5.702372	1.945654	8.224182	-0.099354	0.043393	0.02746	-0.635742	0.044434	-0.386963
476.0	5.582274	2.003213	8.293626	-0.20121	0.077978	0.057249	-0.642578	0.051025	-0.389404
477.0	5.553297	1.733344	8.336107	-0.284566	0.111383	0.081739	-0.633545	0.046631	-0.384766
478.0	5.542614	1.603244	8.261668	-0.254625	0.11663	0.089396	-0.637939	0.046631	-0.382324
479.0	5.498038	1.751061	8.35753	-0.24849	0.136301	0.104548	-0.633545	0.044434	-0.386963
480.0	5.445671	1.474707	8.45115	-0.28927	0.141021	0.124434	-0.633789	0.051025	-0.386963
481.0	5.295332	1.106972	8.429394	-0.072768	0.084118	0.201345	-0.633789	0.051025	-0.391602
482.0	5.646591	1.94135	8.255329	0.133607	0.061005	0.28472	-0.638428	0.05542	-0.389404
483.0	5.618196	1.122482	7.917852	0.072529	0.049103	0.351563	-0.629639	0.053223	-0.391602
484.0	5.648933	1.660466	8.165562	0.381264	0.055022	0.430353	-0.634277	0.059814	-0.391846
485.0	5.490727	1.249271	8.468426	0.234734	0.071326	0.527466	-0.631836	0.05542	-0.389404
486.0	5.588013	1.164355	7.846421	0.606965	0.044675	0.644756	-0.629883	0.057617	-0.394043
487.0	5.581868	1.797415	8.312463	0.572196	0.125505	0.752445	-0.63208	0.062012	-0.394043
488.0	5.679012	1.086671	7.915141	0.53413	0.121861	0.80359	-0.634521	0.064209	-0.396484
489.0	5.452311	1.309476	8.213776	0.605002	0.166453	0.783649	-0.625732	0.066406	-0.396484
490.0	5.574816	1.345447	8.218361	0.377103	0.166503	0.670594	-0.628174	0.068604	-0.398682
491.0	5.434579	0.917712	8.228015	0.209877	0.152998	0.485683	-0.625732	0.066406	-0.396484
492.0	5.321181	0.909568	8.368733	0.100358	0.124797	0.245828	-0.632568	0.070557	-0.391846
493.0	5.311586	0.933575	8.441135	-0.001452	0.046053	-0.008043	-0.628174	0.072998	-0.401123
494.0	5.322859	0.590371	8.384755	0.186772	-0.057296	-0.117366	-0.625977	0.068604	-0.391846
495.0	5.279648	1.414518	8.32238	0.374804	-0.086676	-0.131792	-0.634521	0.066406	-0.394043
496.0	5.640559	1.762059	8.182277	0.341981	-0.111951	-0.139698	-0.630127	0.066406	-0.396484
497.0	5.578214	1.417488	7.994496	0.412424	-0.071445	-0.139792	-0.627686	0.059814	-0.394043
498.0	5.71778	1.919576	8.15874	0.520972	-0.060143	-0.133056	-0.629883	0.059814	-0.394043
499.0	5.623171	2.100864	8.0706	0.382667	0.029025	-0.093067	-0.627441	0.05542	-0.39624
500.0	5.447942	2.166566	8.359848	0.350712	0.031966	-0.075864	-0.627441	0.053223	-0.400635
501.0	5.416184	1.931965	8.313013	0.1825	0.063145	-0.047997	-0.633789	0.051025	-0.391602
502.0	5.19231	1.903872	8.416595	0.181544	0.040573	-0.038364	-0.629639	0.053223	-0.39624
503.0	5.316997	1.699355	8.301252	0.105995	0.007542	-0.030951	-0.629395	0.051025	-0.393799
504.0	5.199226	1.496017	8.135383	0.143595	-0.020169	-0.039405	-0.629639	0.053223	-0.393799
505.0	5.324661	1.641467	8.31247	0.182309	-0.064242	-0.044514	-0.629639	0.05542	-0.391602
506.0	5.227034	1.524953	8.073676	0.161665	-0.078769	-0.054068	-0.631592	0.051025	-0.391602
507.0	5.199183	1.818094	8.398513	0.252116	-0.12784	-0.062356	-0.629395	0.048828	-0.38916
508.0	5.746188	1.771363	8.249739	0.179746	-0.132117	-0.062873	-0.638428	0.053223	-0.386963
509.0	5.651761	1.756404	8.107673	0.242007	-0.100972	-0.066976	-0.629395	0.048828	-0.393799
510.0	5.627416	1.886507	7.99729	0.232397	-0.075627	-0.063814	-0.633545	0.044434	-0.386963
511.0	5.670389	1.94347	8.153307	0.263653	-0.075794	-0.061793	-0.635742	0.042236	-0.38916
512.0	5.512795	1.971621	8.152425	0.21161	-0.053445	-0.05844	-0.635742	0.044434	-0.38916
513.0	5.564004	1.943284	8.248964	0.220157	-0.065853	-0.054613	-0.631104	0.040039	-0.391357
514.0	5.582074	2.007803	8.044375	0.192431	-0.050652	-0.050109	-0.635742	0.044434	-0.393799
515.0	5.467484	2.017424	8.356601	0.176506	-0.054461	-0.047155	-0.633545	0.042236	-0.386963
516.0	5.585441	2.176687	8.336353	0.136987	-0.050477	-0.040339	-0.639893	0.040039	-0.386719
517.0	5.67506	2.024704	8.096386	0.079092	-0.037477	-0.033309	-0.633301	0.037842	-0.386719
518.0	5.605542	2.022178	8.148299	0.112629	-0.025882	-0.033563	-0.635254	0.035645	-0.388916
519.0	5.652842	2.102149	8.13326	0.087671	-0.025136	-0.026485	-0.631104	0.037842	-0.38916
520.0	5.566149	2.040664	8.184367	0.075557	-0.018965	-0.0242	-0.635498	0.037842	-0.386719
521.0	5.571206	2.117779	8.212556	0.051634	-0.025797	-0.018316	-0.637451	0.035645	-0.386719
522.0	5.656253	2.019102	8.028539	0.011566	-0.013715	-0.013226	-0.635254	0.035645	-0.391357
523.0	5.540161	2.008926	8.206472	0.030889	-0.012648	-0.016181	-0.633301	0.040039	-0.386719
524.0	5.667603	2.041349	8.063572	0.016755	-0.016097	-0.014385	-0.633301	0.037842	-0.393555
525.0	5.573931	1.964673	8.13851	0.012472	-0.009057	-0.012233	-0.637451	0.033447	-0.384277
526.0	5.594918	2.094445	8.169758	0.008718	-0.017271	-0.012756	-0.633301	0.037842	-0.386719
527.0	5.644485	2.065206	7.978986	-0.010532	-0.011243	-0.005339	-0.639893	0.040039	-0.382324
528.0	5.570042	1.988159	8.143999	-0.018759	-0.007291	-0.00597	-0.637451	0.035645	-0.384521
529.0	5.63559	2.021929	8.095385	-0.004859	-0.009552	-0.002526	-0.639648	0.033447	-0.379883
530.0	5.596879	1.959807	8.08542	-0.025677	-0.003514	-0.004837	-0.633301	0.040039	-0.386719
531.0	5.639027	1.926889	8.057216	-0.00705	-0.006805	-0.010285	-0.635498	0.037842	-0.384521
532.0	5.613958	2.015252	8.087079	-0.030457	-0.004161	-0.004156	-0.637695	0.040039	-0.38916
533.0	5.604422	1.996163	8.049956	-0.030246	-0.003867	-0.005648	-0.637451	0.03125	-0.384277
534.0	5.591433	1.975717	8.093827	-0.036119	-0.002234	-0.009472	-0.637695	0.037842	-0.386719
535.0	5.529819	1.940497	8.061766	-0.026356	-0.002452	-0.011075	-0.635254	0.035645	-0.38208
536.0	5.56261	1.95933	8.10779	-0.033844	-0.013455	-0.015883	-0.637451	0.033447	-0.384277
537.0	5.618364	1.974826	8.022054	-0.045121	-0.009737	-0.01705	-0.637451	0.035645	-0.379883
538.0	5.589306	1.928592	8.049838	-0.031884	-0.007317	-0.022345	-0.639893	0.040039	-0.382324
539.0	5.605966	1.953761	8.065636	-0.025026	-0.014562	-0.030449	-0.635498	0.040039	-0.384521
540.0	5.606229	1.921369	8.079726	-0.038457	-0.010044	-0.028658	-0.633301	0.037842	-0.38916
541.0	5.578119	2.071388	8.162351	-0.022189	-0.012808	-0.029669	-0.635254	0.035645	-0.386719
542.0	5.591533	2.05731	8.133021	-0.037158	-0.01384	-0.024401	-0.637695	0.037842	-0.386719
543.0	5.549609	1.923985	8.09192	-0.034114	-0.013602	-0.023862	-0.637451	0.035645	-0.38208
544.0	5.5219	2.042073	8.188498	-0.025677	-0.020869	-0.022242	-0.639648	0.035645	-0.386719
545.0	5.545768	1.94309	8.098493	-0.058783	-0.030117	-0.026178	-0.637451	0.03125	-0.38208
546.0	5.560821	1.958899	8.05436	-0.042307	-0.034382	-0.027444	-0.64209	0.042236	-0.382324
547.0	5.473075	1.979177	8.145877	-0.058037	-0.045054	-0.030393	-0.639404	0.03125	-0.384277
548.0	5.592681	1.995334	8.105376	-0.077163	-0.047666	-0.027665	-0.635498	0.040039	-0.382324
549.0	5.543984	1.941785	8.123614	-0.098709	-0.044184	-0.033682	-0.635742	0.042236	-0.384521
550.0	5.556978	1.885334	8.047703	-0.061249	-0.061229	-0.038688	-0.644043	0.035645	-0.388916
551.0	5.657909	1.939659	8.042862	-0.025163	-0.053365	-0.042456	-0.639648	0.035645	-0.379883
552.0	5.619764	1.908147	8.096897	-0.035007	-0.060238	-0.04533	-0.644287	0.037842	-0.38208
553.0	5.791155	2.007861	8.022005	-0.039931	-0.046871	-0.043632	-0.637451	0.035645	-0.377686
554.0	5.831885	2.034464	8.045685	-0.095852	-0.019071	-0.039534	-0.635254	0.035645	-0.38208
555.0	5.818239	1.972487	7.964615	-0.124215	0.007736	-0.03908	-0.639893	0.037842	-0.38208
556.0	5.771063	2.056162	8.050392	-0.145582	0.030603	-0.030322	-0.637695	0.040039	-0.382324
557.0	5.685936	2.014364	8.07489	-0.189781	0.064192	-0.024794	-0.635498	0.040039	-0.382324
558.0	5.641466	2.037523	8.171004	-0.209927	0.072554	-0.013832	-0.637695	0.040039	-0.382324
559.0	5.664146	1.934754	8.067113	-0.215592	0.074338	-0.009692	-0.639893	0.042236	-0.384521
560.0	5.526102	1.875609	8.238002	-0.193437	0.066351	-0.004484	-0.638184	0.048828	-0.384766
561.0	5.621011	1.919943	8.162361	-0.167864	0.055798	-0.008702	-0.637695	0.040039	-0.382324
562.0	5.50403	1.794935	8.166359	-0.130538	0.036687	-0.011068	-0.642334	0.044434	-0.382324
563.0	5.491836	1.902384	8.217815	-0.052049	0.015507	-0.011842	-0.635742	0.044434	-0.382324
564.0	5.575725	1.838334	8.160325	-0.021322	-0.016972	-0.022637	-0.637939	0.044434	-0.386963
565.0	5.622311	1.941926	8.135444	0.018727	-0.029453	-0.016928	-0.639893	0.042236	-0.386719
566.0	5.630836	1.857981	8.152688	-0.00043	-0.024821	-0.01916	-0.640137	0.044434	-0.382324
567.0	5.551742	1.927803	8.268708	0.013098	-0.025899	-0.013992	-0.640137	0.044434	-0.382324
568.0	5.747603	1.906959	8.037736	-0.01173	-0.032051	-0.012911	-0.637939	0.046631	-0.386963
569.0	5.520365	1.873627	8.313975	-0.004201	-0.015877	-0.002196	-0.637939	0.042236	-0.384521
570.0	5.606068	1.903463	8.073709	-0.010819	-0.03834	-0.004488	-0.640137	0.044434	-0.382324
571.0	5.53514	1.822391	8.235303	0.0027	-0.033948	-0.003014	-0.644287	0.040039	-0.379883
572.0	5.575096	1.718068	8.110701	0.065218	-0.076751	-0.007529	-0.64209	0.042236	-0.382324
573.0	5.40503	1.707059	8.236898	0.122278	-0.106563	-0.016755	-0.64209	0.040039	-0.379883
574.0	5.342277	1.410236	8.064238	0.259494	-0.182279	-0.020401	-0.637939	0.042236	-0.379883
575.0	5.149595	1.627128	8.038095	0.544801	-0.27691	-0.027827	-0.64624	0.035645	-0.373047
576.0	5.004282	2.19864	9.126767	0.568475	-0.367616	-0.025746	-0.64624	0.035645	-0.38208
577.0	5.369348	1.7396	7.735978	0.446843	-0.472952	-0.023668	-0.644043	0.035645	-0.373047
578.0	5.607014	2.272114	8.316758	0.658673	-0.475697	-0.006166	-0.648438	0.035645	-0.368408
579.0	5.281306	2.156912	8.134289	0.534925	-0.553762	0.011095	-0.654541	0.026855	-0.365967
580.0	5.687145	2.351285	8.190549	0.646525	-0.59846	0.042775	-0.654541	0.026855	-0.36377
581.0	5.31693	2.536529	8.491461	0.567714	-0.686137	0.073759	-0.658936	0.026855	-0.356934
582.0	5.721973	2.376145	7.959787	0.538539	-0.766046	0.093057	-0.658936	0.026855	-0.354492
583.0	5.709987	2.548749	7.9899	0.522786	-0.792287	0.120486	-0.660889	0.020264	-0.349854
584.0	5.065894	2.454381	7.981013	0.540254	-0.924225	0.173697	-0.667236	0.017822	-0.343018
585.0	4.947639	2.584716	7.869708	0.769223	-1.247191	0.262515	-0.676025	0.017822	-0.336182
586.0	4.813016	2.95408	8.236523	0.855225	-1.572223	0.37343	-0.68042	0.017822	-0.320313
587.0	4.374851	3.194181	9.603086	0.720884	-2.005859	0.53273	-0.684814	0.02002	-0.311035
588.0	3.690996	2.720802	8.533199	0.427375	-2.674596	0.676391	-0.700439	0.026367	-0.290771
589.0	3.978266	3.045886	9.317967	0.27555	-3.4476	0.88301	-0.708984	0.026123	-0.270264
590.0	4.444701	3.483109	10.459606	-0.190365	-4.050835	1.075087	-0.729248	0.036865	-0.236328
591.0	5.196942	3.502957	8.987787	-0.590548	-4.528243	1.27614	-0.742676	0.04541	-0.213623
592.0	5.575686	3.425389	9.315804	-0.827893	-4.910274	1.524878	-0.753906	0.056152	-0.181885
593.0	7.215363	3.484171	10.397337	-1.00377	-5.200804	1.795855	-0.767578	0.064697	-0.143311
594.0	6.636939	3.442413	8.038258	-1.168664	-5.415479	1.987302	-0.783691	0.086426	-0.10498
595.0	7.979996	3.42195	8.540405	-1.150479	-5.722943	2.267928	-0.792969	0.099365	-0.066406
596.0	10.377531	3.673772	9.15358	-0.97866	-6.032339	2.376698	-0.800293	0.116699	-0.025635
597.0	13.224713	3.549602	10.249275	-0.638494	-6.063266	2.451556	-0.802979	0.129639	0.003662
598.0	7.632094	1.363558	5.673658	-0.557739	-6.154653	2.495978	-0.799316	0.144775	0.048828
599.0	14.095158	3.114609	9.518656	0.369673	-7.033259	2.496425	-0.804199	0.153564	0.092041
600.0	20.324285	5.573802	8.551792	0.796961	-6.650903	2.586366	-0.79834	0.173096	0.125732
601.0	20.808533	6.966903	7.944231	0.542229	-5.766231	2.609624	-0.783447	0.179688	0.153076
602.0	21.884435	8.133315	11.995314	0.363783	-5.199942	3.022632	-0.766846	0.197021	0.179932
603.0	18.051566	6.556735	9.711173	-0.436296	-4.259673	3.112281	-0.74292	0.199463	0.186768
604.0	11.600693	7.586308	11.863839	-0.355669	-3.418649	3.389403	-0.723633	0.208252	0.188965
605.0	6.126043	11.977495	14.390694	-0.615805	-2.339645	3.541712	-0.699707	0.206299	0.182129
606.0	-1.201004	13.563834	21.763209	-1.842014	-0.190359	3.579078	-0.682617	0.215088	0.166016
607.0	-5.794848	2.70098	-1.310774	-5.235823	-1.58952	3.822175	-0.666992	0.20874	0.175049
608.0	33.591771	1.262295	-1.134553	-3.621016	-6.113002	1.545672	-0.64209	0.189209	0.164063
609.0	16.365429	0.203161	30.405686	3.333109	3.901887	-0.370862	-0.621826	0.174316	0.114258
610.0	9.904771	13.46471	15.966752	3.956988	3.40026	-1.014877	-0.59668	0.148193	0.064453
611.0	-1.994446	11.036406	9.292712	-0.710191	4.55564	-1.165597	-0.560059	0.111572	0.028809
612.0	-2.722624	3.878504	5.944381	-1.52382	3.456448	-0.708985	-0.510986	0.085693	-0.007324
613.0	0.609809	1.710461	4.636782	0.049194	3.84118	-0.493628	-0.453125	0.057861	-0.038574
614.0	-0.856347	2.98379	6.31094	0.787876	3.895037	-0.53239	-0.381836	0.027832	-0.063232
615.0	0.470015	2.813461	5.443526	0.466873	3.710716	-0.67397	-0.29541	-0.004395	-0.06958
616.0	2.183008	2.352889	5.131521	0.921985	3.828074	-0.936697	-0.198486	-0.025635	-0.060059
617.0	3.145259	3.561845	6.12035	1.304826	4.085002	-1.280406	-0.097412	-0.044678	-0.028076
618.0	4.382467	4.402625	7.083588	1.214477	4.321885	-1.659516	0.000977	-0.048584	0.022217
619.0	5.073777	4.987527	7.186393	1.100701	4.590375	-1.983504	0.091797	-0.032959	0.10376
620.0	5.506469	5.127752	7.221224	0.795508	4.779007	-2.219275	0.13623	-0.000244	0.205566
621.0	6.09376	4.653728	7.176211	0.519165	4.916342	-2.391913	0.129395	0.054199	0.318604
622.0	6.778294	3.963194	7.376231	0.33687	4.999824	-2.531637	0.078857	0.110352	0.410889
623.0	7.870953	3.066997	7.797567	0.232618	5.07406	-2.637729	-0.012695	0.161865	0.476074
624.0	8.773619	2.346091	8.205918	0.332259	5.110227	-2.679227	-0.130371	0.206787	0.516357
625.0	11.124634	1.776366	9.586413	0.322511	4.971521	-2.651137	-0.258057	0.236572	0.513672
626.0	12.818629	0.214422	8.411293	0.585306	4.956995	-2.575074	-0.374268	0.249023	0.472656
627.0	12.788031	-0.690913	8.757662	1.337762	4.877861	-2.526427	-0.46582	0.248535	0.420166
628.0	13.32485	0.399109	9.762831	2.075244	4.735675	-2.567731	-0.537598	0.241699	0.356689
629.0	14.105097	1.965486	9.225079	2.086668	4.643513	-2.532482	-0.595703	0.224121	0.281738
630.0	14.382215	2.988218	8.991891	2.085541	4.552412	-2.371171	-0.638184	0.199951	0.21167
631.0	15.251801	3.091638	9.327753	1.893091	4.231134	-2.355712	-0.661621	0.184814	0.143799
632.0	14.487067	3.500639	8.121863	1.611751	4.022182	-2.252055	-0.671631	0.163086	0.080322
633.0	14.259162	3.128298	8.482509	1.330888	3.587832	-2.170224	-0.674805	0.13916	0.032959
634.0	14.475317	2.461536	8.4924	1.161284	3.168231	-2.072096	-0.676025	0.117432	-0.014404
635.0	14.80624	1.531315	7.976365	1.06883	2.794947	-2.026469	-0.668701	0.0979	-0.055176
636.0	15.045868	1.697774	8.117364	1.218308	2.380636	-1.924213	-0.661133	0.078369	-0.08667
637.0	16.313307	1.273696	7.362784	1.127843	2.011171	-1.818806	-0.653809	0.061035	-0.120605
638.0	17.053691	0.921771	6.271789	1.38306	1.841059	-1.71861	-0.644531	0.048096	-0.143066
639.0	17.478071	1.347569	6.03955	1.591187	1.701492	-1.616218	-0.63501	0.028564	-0.165527
640.0	17.399308	0.042711	5.125405	1.472282	1.641725	-1.549284	-0.629883	0.013428	-0.190186
641.0	16.620443	-3.57865	5.482334	1.375366	1.588315	-1.720987	-0.616211	0.000488	-0.201416
642.0	16.893693	-5.568102	5.137029	1.99634	1.487352	-2.093376	-0.608887	-0.02124	-0.217041
643.0	17.1075	-6.490359	3.997714	2.504741	1.641784	-2.45339	-0.603271	-0.045166	-0.225586
644.0	20.57199	-7.075309	6.080265	2.35972	1.362614	-2.855055	-0.589111	-0.069092	-0.236572
645.0	25.100925	-3.03163	-0.369045	2.35547	1.140529	-2.859561	-0.581543	-0.095215	-0.24292
646.0	25.760406	0.298177	-6.948348	0.811822	0.985194	-2.294811	-0.568115	-0.101807	-0.256348
647.0	20.092676	-2.276404	-10.958049	-1.737181	1.897198	-1.08926	-0.563721	-0.10376	-0.27002
648.0	12.297779	-7.837871	-6.626532	-2.740187	2.508461	-0.062297	-0.558105	-0.083984	-0.28418
649.0	4.084452	-11.02766	-0.946217	-1.822346	0.718012	0.61267	-0.557861	-0.088379	-0.286377
650.0	7.057915	-8.568878	-2.829977	-0.671696	-0.998797	1.035859	-0.558594	-0.073242	-0.29126
651.0	7.68098	-4.931218	-1.68204	-0.302601	-1.208405	1.342815	-0.562988	-0.071045	-0.279785
652.0	0.144571	8.05772	3.73526	0.38226	-2.305257	2.069207	-0.583252	-0.053711	-0.266602
653.0	4.182506	6.55222	11.727536	-1.157217	-3.596103	3.278714	-0.597412	-0.029785	-0.241943
654.0	3.576813	8.254301	2.910838	-4.847471	-1.684326	3.140084	-0.605225	-0.001465	-0.24707
655.0	-0.309891	10.699613	36.407878	-2.742048	-1.25419	3.570906	-0.61084	0.026855	-0.233887
656.0	6.764505	1.403386	14.314842	-5.07644	-2.601933	3.247365	-0.614746	0.063721	-0.220947
657.0	8.671416	-17.99183	-1.391704	-6.395353	-2.29308	1.785576	-0.62207	0.081055	-0.205322
658.0	6.710468	-13.436725	2.768259	4.188511	-2.78925	0.639599	-0.632324	0.067871	-0.193604
659.0	12.138801	16.050393	21.789177	6.016806	-2.577944	0.982283	-0.634521	0.067871	-0.177734
660.0	20.722025	23.047003	23.193991	-3.103613	-3.569082	1.684307	-0.641846	0.085205	-0.157471
661.0	27.414977	-8.405826	3.76206	-9.241734	-1.153745	0.819166	-0.642578	0.102783	-0.151123
662.0	5.010738	-23.720055	2.175652	-1.010478	0.966579	0.17475	-0.642334	0.096191	-0.159912
663.0	1.169532	-1.231197	11.911136	6.941269	0.013524	-0.157295	-0.64209	0.087402	-0.164307
664.0	4.774957	20.217964	11.094156	3.600197	-0.090403	0.194632	-0.644287	0.091797	-0.162109
665.0	5.326363	10.443423	11.743707	-5.91496	-0.700192	0.295612	-0.642578	0.100586	-0.15332
666.0	8.374476	-8.298456	9.305528	-6.364849	-0.803023	0.183356	-0.645264	0.109131	-0.146484
667.0	8.032898	-7.661141	-1.124701	1.688733	0.197003	-0.098321	-0.638428	0.10498	-0.148682
668.0	3.493765	8.442673	10.939768	4.784467	0.746948	0.021577	-0.642334	0.096191	-0.159912
669.0	4.73554	10.038744	15.195432	-1.66293	-0.351391	0.117635	-0.63623	0.102783	-0.148682
670.0	7.583391	-1.752802	4.363419	-5.054519	-0.359133	-0.057801	-0.643066	0.109375	-0.146484
671.0	4.726928	-4.079239	4.133781	0.907056	0.212494	0.007696	-0.640625	0.10498	-0.148682
672.0	5.877301	4.199935	10.433989	2.223485	0.273528	-0.001763	-0.643066	0.111572	-0.153564
673.0	4.729246	5.230886	9.843837	-1.004134	0.003531	0.002157	-0.643066	0.109375	-0.144287
674.0	5.864821	0.161029	7.412475	-1.459799	-0.121722	0.011016	-0.643066	0.109375	-0.148926
675.0	5.259328	0.00491	7.499981	0.26115	0.071056	-0.020569	-0.643066	0.109375	-0.151123
676.0	5.337808	2.861223	9.162022	0.390611	0.026855	-0.024301	-0.642822	0.107178	-0.148926
677.0	5.204155	1.675457	8.545598	-0.39643	-0.045457	-0.02703	-0.63623	0.107178	-0.148926
678.0	5.278337	0.732601	8.09494	0.062331	-0.062094	-0.051616	-0.638672	0.111572	-0.153564
679.0	5.290012	2.083754	8.427084	0.273817	-0.06143	-0.064502	-0.642822	0.107178	-0.148926
680.0	5.126788	1.776446	8.458032	0.033077	-0.103626	-0.062486	-0.642822	0.10498	-0.151123
681.0	5.485296	1.930746	8.122871	0.177575	-0.102584	-0.05877	-0.64502	0.107178	-0.148926
682.0	5.426115	2.114584	8.322956	0.046533	-0.084806	-0.044849	-0.64502	0.107178	-0.148926
683.0	5.434489	1.839245	8.120247	0.042351	-0.084952	-0.039245	-0.640381	0.100586	-0.146484
684.0	5.486271	1.931557	8.287254	0.027825	-0.071109	-0.030908	-0.640381	0.102783	-0.146484
685.0	5.586804	1.818279	8.171002	-0.019457	-0.055739	-0.028033	-0.640625	0.107178	-0.146484
686.0	5.457841	1.904311	8.254333	0.012781	-0.043242	-0.021287	-0.647217	0.109131	-0.14209
687.0	5.557157	1.863343	8.233459	-0.036846	-0.040001	-0.022967	-0.640625	0.107178	-0.148926
688.0	5.473546	1.748567	8.233635	-0.017699	-0.016735	-0.022635	-0.638428	0.107178	-0.146484
689.0	5.43877	1.686106	8.218984	-0.015783	-0.014053	-0.026517	-0.642578	0.102783	-0.144287
690.0	5.350965	1.707039	8.228635	0.006419	-0.019419	-0.039716	-0.647217	0.109131	-0.146484
691.0	5.396486	1.718713	8.245571	0.01327	-0.023357	-0.039351	-0.640869	0.109375	-0.15332
692.0	5.287643	1.774474	8.292036	0.018635	-0.038025	-0.049512	-0.642578	0.102783	-0.141846
693.0	5.41155	1.848113	8.22112	-0.00314	-0.040721	-0.050714	-0.64502	0.10498	-0.148682
694.0	5.259375	1.928301	8.296657	-0.056561	-0.044751	-0.043371	-0.64502	0.107178	-0.148926
695.0	5.084584	2.164311	8.220873	-0.132194	-0.052611	-0.02476	-0.642822	0.10498	-0.146484
696.0	5.465807	2.317122	8.138796	-0.236386	-0.074807	0.01293	-0.645264	0.109375	-0.148926
697.0	5.428677	1.911045	8.362578	-0.385183	-0.03963	0.023195	-0.646973	0.102783	-0.146484
698.0	5.431877	1.593939	8.108777	-0.381752	-0.014758	0.029093	-0.643066	0.109375	-0.144287
699.0	5.384644	1.592508	8.482217	-0.273921	-0.02225	0.020677	-0.647217	0.109131	-0.144287
700.0	5.497596	1.549388	8.2238	-0.259158	-0.020517	0.007612	-0.645264	0.109131	-0.14209
701.0	5.402596	1.503487	8.410075	-0.183576	-0.028166	0.001539	-0.642822	0.107178	-0.148926
702.0	5.438929	1.514137	8.318154	-0.103037	-0.040137	-0.011016	-0.642822	0.107178	-0.144287
703.0	5.261728	1.647324	8.563184	-0.057314	-0.050031	-0.018019	-0.64502	0.106934	-0.14209
704.0	5.384988	1.603566	8.290152	-0.060893	-0.076579	-0.022991	-0.647217	0.106934	-0.141846
705.0	5.451174	1.60293	8.334902	-0.025753	-0.072873	-0.025629	-0.647217	0.10498	-0.146484
706.0	5.343358	1.613535	8.473743	-0.018427	-0.077954	-0.027097	-0.643066	0.109131	-0.14209
707.0	5.212096	1.757666	8.675137	-0.000482	-0.078343	-0.028869	-0.64502	0.106934	-0.14209
708.0	5.323533	1.731986	8.689163	-0.023397	-0.090603	-0.016408	-0.645508	0.11792	-0.14209
709.0	4.975308	1.523989	9.067931	-0.056444	-0.111356	-0.021996	-0.647461	0.113525	-0.137451
710.0	5.409988	1.49827	8.488913	0.036664	-0.166292	-0.027929	-0.643311	0.115723	-0.137695
711.0	5.241719	1.636739	8.606612	0.094667	-0.198845	-0.033334	-0.64502	0.10498	-0.137451
712.0	5.384422	1.482135	8.428444	0.116873	-0.256293	-0.034511	-0.642822	0.10498	-0.141846
713.0	4.986284	1.210135	8.814329	0.336591	-0.355546	-0.037359	-0.651367	0.100342	-0.13501
714.0	5.642216	1.697607	7.859444	0.774172	-0.437632	-0.013398	-0.647217	0.106934	-0.132813
715.0	4.664587	2.092224	8.915198	0.757809	-0.511857	0.005416	-0.649414	0.106934	-0.128174
716.0	4.697081	1.071785	8.864155	0.603822	-0.676577	-0.025012	-0.649414	0.106934	-0.128174
717.0	6.104389	2.003955	7.490523	1.373593	-0.812914	-0.009417	-0.651123	0.095947	-0.121338
718.0	4.698156	3.296993	9.623448	0.946254	-0.904454	0.058182	-0.651611	0.106934	-0.114502
719.0	5.14445	2.412502	8.258432	0.71435	-1.165396	0.145085	-0.653564	0.100342	-0.112305
720.0	5.195524	2.657963	7.175913	1.015221	-1.36959	0.273246	-0.657715	0.100342	-0.103027
721.0	4.91289	3.087118	7.791824	1.115415	-1.635932	0.406505	-0.660156	0.102539	-0.087158
722.0	2.863007	3.459781	9.909674	1.054154	-2.196976	0.618078	-0.662354	0.102295	-0.075684
723.0	1.577363	2.408803	8.893748	0.784709	-3.283918	0.782696	-0.666748	0.104492	-0.052979
724.0	0.187221	2.074933	9.729287	1.217697	-4.563115	1.08812	-0.669189	0.113037	-0.023438
725.0	1.864261	3.747986	12.009047	0.755372	-6.001707	1.518463	-0.674316	0.126221	0.019531
726.0	5.312726	4.765465	12.286083	-0.548408	-6.653743	1.867725	-0.672363	0.134766	0.060303
727.0	6.806394	4.936947	12.259591	-1.442693	-6.863727	2.15481	-0.670654	0.145508	0.101074
728.0	5.511155	4.46233	9.483348	-1.606409	-7.116044	2.503076	-0.658691	0.167236	0.153076
729.0	8.456555	6.130894	11.783114	-1.071405	-7.59684	2.920037	-0.650391	0.18042	0.200684
730.0	10.248208	5.620778	10.745203	-0.999367	-7.83094	3.271904	-0.634033	0.202148	0.248047
731.0	12.075415	1.611863	9.281843	-1.435784	-8.619405	3.300446	-0.606201	0.213135	0.29126
732.0	14.005874	0.609171	8.164906	0.343694	-9.026097	2.947697	-0.580811	0.23291	0.34082
733.0	25.094175	6.032087	11.030491	1.568359	-8.752812	2.941147	-0.550781	0.241699	0.368164
734.0	25.062955	8.649815	9.584041	1.092432	-7.50977	2.986311	-0.512451	0.263672	0.404053
735.0	27.843722	9.115352	15.592862	0.54281	-6.562881	3.323436	-0.482422	0.274658	0.422119
736.0	21.554489	9.883915	16.199564	0.619161	-4.955754	3.448026	-0.454834	0.294434	0.439941
737.0	8.043603	14.254583	20.160439	0.146147	-3.593246	3.69123	-0.431396	0.30542	0.44873
738.0	-2.548038	19.55452	27.02646	-0.905337	-0.935886	3.994523	-0.416504	0.312256	0.44165
739.0	-13.237912	4.385334	2.786994	-5.965454	-0.338361	4.493425	-0.391602	0.294922	0.473877
740.0	15.024976	-2.218773	-24.970944	-5.279017	-9.967094	2.430795	-0.360596	0.286133	0.508301
741.0	47.860402	-5.882789	57.857792	3.897685	2.246126	0.450331	-0.379395	0.312256	0.47583
742.0	10.833618	13.869646	11.203579	5.681359	5.098116	-0.821505	-0.412354	0.318848	0.446045
743.0	-6.746545	14.296451	11.985851	0.875145	4.581348	-0.770292	-0.42749	0.314453	0.42334
744.0	2.77737	8.185519	9.326335	-1.015221	3.925932	-0.425061	-0.453125	0.30542	0.398682
745.0	-0.301567	4.270443	5.220699	0.166862	4.875964	-0.317098	-0.466064	0.299072	0.371338
746.0	-1.934704	6.278823	5.971724	0.8488	4.58565	-0.235609	-0.490234	0.303223	0.353027
747.0	0.363096	5.838255	5.764999	-0.169783	4.341567	-0.302121	-0.509033	0.287842	0.333008
748.0	2.480533	3.66698	4.243261	-0.084861	4.411809	-0.552097	-0.518066	0.290039	0.298584
749.0	3.802093	3.34524	5.103339	0.517201	4.663522	-0.99957	-0.534668	0.274658	0.271729
750.0	5.32313	3.502326	6.074361	0.805281	4.980837	-1.572462	-0.549805	0.268311	0.235352
751.0	5.625285	3.650062	5.751965	1.132283	5.287825	-2.127643	-0.561768	0.244141	0.197021
752.0	6.131994	4.323839	5.717342	1.278253	5.418737	-2.57077	-0.562988	0.224609	0.165527
753.0	6.849028	4.549323	5.815695	1.146161	5.473347	-2.891596	-0.564453	0.209473	0.131592
754.0	7.612079	4.409147	6.34152	0.966672	5.483911	-3.094344	-0.557373	0.194336	0.100098
755.0	8.637764	3.804509	6.843379	0.765746	5.456105	-3.223614	-0.551758	0.168213	0.075439
756.0	9.551853	2.875955	7.796046	0.61098	5.417431	-3.28499	-0.542236	0.148682	0.057617
757.0	10.411064	1.374642	8.455246	0.56837	5.372358	-3.329811	-0.532715	0.133545	0.039795
758.0	11.625664	-0.025901	8.69014	0.881812	5.414455	-3.338512	-0.525879	0.125	0.014893
759.0	13.762453	1.006451	9.586044	1.717648	5.451995	-3.190582	-0.516357	0.107422	0.006104
760.0	17.12083	1.430363	11.121384	1.737243	5.289863	-2.86951	-0.51001	0.109863	-0.014648
761.0	19.079786	-1.133702	9.575377	1.467469	5.321551	-2.693951	-0.504883	0.09668	-0.028076
762.0	16.278106	0.449968	7.846262	2.790308	5.230883	-2.69627	-0.500732	0.099121	-0.05542
763.0	15.677441	4.072769	9.029758	2.787287	4.892604	-2.694248	-0.500244	0.088135	-0.08252
764.0	16.373058	3.585642	8.460276	1.735668	4.529926	-2.718805	-0.498047	0.086182	-0.105225
765.0	16.751262	3.379399	8.335358	1.746965	4.183183	-2.741236	-0.493164	0.072998	-0.143799
766.0	17.253041	3.775662	8.747622	1.254971	3.728453	-2.707003	-0.468506	0.0625	-0.168701
767.0	17.398867	1.763012	7.917072	0.82879	3.195865	-2.609471	-0.441162	0.036377	-0.184082
768.0	18.381	-0.225362	6.847496	0.948452	2.811446	-2.521158	-0.401123	0.01709	-0.192871
769.0	18.959887	-0.632521	7.467756	1.254387	2.540188	-2.480232	-0.36499	-0.01123	-0.167236
770.0	18.988492	-0.85783	6.219428	1.423064	2.239709	-2.363212	-0.342529	-0.026367	-0.128418
771.0	19.59147	-0.932455	5.762401	1.587093	2.020369	-2.185408	-0.324707	-0.032959	-0.093994
772.0	21.102337	-1.266316	5.13275	1.577057	1.879329	-2.088392	-0.329102	-0.030762	-0.057617
773.0	21.983523	-2.511965	3.490432	1.483794	1.818421	-2.036453	-0.342041	-0.037598	-0.027832
774.0	24.966959	-7.246248	3.724259	0.846634	1.439589	-2.220301	-0.353027	-0.0354	-0.000488
775.0	33.64018	-13.010456	-1.400953	0.359312	0.73971	-2.895016	-0.36792	-0.042236	0.017822
776.0	34.709727	-12.940487	-16.734943	2.044302	0.403276	-3.267811	-0.374023	-0.051025	0.0271
777.0	27.899592	-8.856466	-22.472513	2.799909	2.02067	-2.523197	-0.374268	-0.048828	0.024902
778.0	15.250763	-6.203124	-9.992802	2.132379	4.270784	-1.375827	-0.37207	-0.044434	0.022461
779.0	1.224926	0.053899	4.582216	1.252768	1.162107	0.320779	-0.376709	-0.037842	0.033691
780.0	-9.889095	3.918378	7.798372	-1.125087	-2.478841	2.295781	-0.384033	-0.020508	0.051758
781.0	-6.271619	0.848573	-18.100435	-5.063911	-4.437819	3.363274	-0.387207	0.001221	0.085449
782.0	5.438342	1.425541	2.059585	-3.130608	-5.115119	3.632997	-0.373047	0.025146	0.125977
783.0	11.242311	13.20173	22.614396	-1.196012	-2.58564	3.766228	-0.371826	0.044678	0.145996
784.0	13.606874	14.334981	26.310358	-4.166807	-3.286541	3.46214	-0.376953	0.064209	0.168457
785.0	22.941925	-8.21423	4.069764	-9.822231	-2.893607	2.585798	-0.372559	0.060059	0.18457
786.0	6.416602	-30.403297	8.985167	-3.272072	-1.899488	1.430063	-0.366455	0.072998	0.207031
787.0	9.034411	-11.734857	13.766056	5.611101	-1.96158	0.816729	-0.36084	0.090576	0.218018
788.0	14.825911	17.463974	24.019481	3.116103	-1.920851	2.161462	-0.361084	0.099121	0.233887
789.0	20.189692	11.076802	11.235835	-5.483045	-1.869452	1.57876	-0.352051	0.090576	0.243164
790.0	15.376986	-1.840489	0.101274	-4.050922	-0.421403	0.434964	-0.351807	0.088379	0.240967
791.0	1.352249	-3.848252	12.488187	0.063422	-0.041152	0.610765	-0.350098	0.099121	0.247559
792.0	4.434755	0.224068	16.168613	-1.249051	-1.000011	0.453923	-0.339111	0.094971	0.252197
793.0	7.491398	3.071838	4.565376	-0.967963	-0.751039	0.287084	-0.347656	0.090576	0.256836
794.0	9.368573	4.234218	8.607007	-0.117493	-0.345666	0.359575	-0.345459	0.092773	0.254395
795.0	8.309882	-2.927784	11.548585	-2.587455	-0.082334	0.123505	-0.347168	0.081787	0.259277
796.0	4.177595	-1.32916	3.675511	0.334381	0.171961	-0.063821	-0.347656	0.090576	0.259033
797.0	5.968831	4.572065	10.732054	1.430958	0.060581	0.033897	-0.351807	0.088379	0.259277
798.0	5.351969	2.469005	8.701957	-1.405431	-0.039345	-0.024682	-0.347656	0.090576	0.261475
799.0	5.492509	-0.027949	6.940459	-0.235797	-0.055569	-0.025427	-0.345215	0.083984	0.263916
800.0	5.376375	2.757349	8.916926	0.374992	0.072785	-0.023245	-0.347656	0.090576	0.256836
801.0	5.488547	2.396643	8.468675	-0.449803	-0.041997	-0.008624	-0.347168	0.081787	0.261475
802.0	5.319588	1.198709	8.122258	-0.164283	-0.011167	-0.015505	-0.349854	0.090576	0.259033
803.0	5.049741	2.11508	8.633812	0.088817	-0.057667	-0.023427	-0.347168	0.081787	0.259277
804.0	5.456236	1.789458	8.252606	-0.131503	-0.08979	-0.021463	-0.347656	0.090576	0.265869
805.0	5.278859	1.575269	8.223547	-0.035611	-0.087744	-0.020222	-0.347412	0.086182	0.261475
806.0	5.195009	2.043489	8.365284	0.006004	-0.091892	-0.015505	-0.345215	0.086182	0.266113
807.0	5.283411	2.118898	8.255668	-0.10408	-0.105043	0.000754	-0.351807	0.086182	0.256836
808.0	5.685623	1.360921	8.443073	-0.20342	-0.129015	0.001918	-0.345215	0.086182	0.261475
809.0	5.50616	1.398123	8.151104	-0.042199	-0.070108	-0.017347	-0.345215	0.083984	0.263916
810.0	5.517301	1.520748	8.389885	-0.020071	-0.108972	-0.035497	-0.343262	0.090576	0.265869
811.0	5.642076	1.446478	8.085397	0.047745	-0.111751	-0.053365	-0.347412	0.083984	0.268311
812.0	5.50396	1.780031	8.244907	0.134164	-0.094958	-0.066696	-0.343262	0.090576	0.259033
813.0	5.525492	1.897156	8.272115	0.064451	-0.090253	-0.058294	-0.343262	0.088379	0.261475
814.0	5.590964	1.793673	8.251001	0.037952	-0.071787	-0.052088	-0.341309	0.092773	0.265869
815.0	5.58525	1.817197	8.196048	0.035255	-0.060607	-0.046727	-0.345459	0.088379	0.261475
816.0	5.610619	1.713153	8.13765	0.038684	-0.050004	-0.04849	-0.345459	0.092773	0.26123
817.0	5.551954	1.636837	8.070153	0.074601	-0.049891	-0.052009	-0.349609	0.083984	0.261475
818.0	5.565046	1.706819	8.072414	0.133521	-0.0408	-0.057588	-0.347656	0.090576	0.261475
819.0	5.479708	1.81494	8.094737	0.134269	-0.04877	-0.064154	-0.349609	0.088379	0.268311
820.0	5.474467	1.928692	8.114736	0.112539	-0.029442	-0.05853	-0.345459	0.090576	0.270508
821.0	5.43232	1.966442	8.20097	0.039867	-0.034764	-0.051126	-0.349609	0.088379	0.266113
822.0	5.351444	2.074908	8.205467	-0.019456	-0.020282	-0.03687	-0.347412	0.086182	0.263672
823.0	5.427903	2.105645	8.33132	-0.109498	-0.023316	-0.023792	-0.349609	0.086182	0.266113
824.0	5.468248	2.018435	8.216813	-0.195207	-0.012588	-0.011618	-0.343262	0.088379	0.275146
825.0	5.468205	1.844889	8.248946	-0.250753	-0.015225	-0.003934	-0.347168	0.081787	0.266113
826.0	5.549327	1.793366	8.142181	-0.227042	-0.007524	0.000207	-0.349609	0.083984	0.270752
827.0	5.343579	1.709076	8.424094	-0.184444	-0.019094	-0.003421	-0.345215	0.086182	0.272949
828.0	5.540038	1.698753	8.27989	-0.156827	-0.033908	-0.01034	-0.349609	0.083984	0.268311
829.0	5.359059	1.666036	8.476458	-0.122718	-0.037772	-0.018395	-0.349365	0.081787	0.270752
830.0	5.493134	1.69077	8.270764	-0.079866	-0.047753	-0.015179	-0.340576	0.081787	0.272949
831.0	5.474973	1.754005	8.416062	-0.05517	-0.070152	-0.026032	-0.349609	0.086182	0.270508
832.0	5.249856	1.640966	8.31526	-0.024954	-0.074027	-0.029937	-0.345215	0.086182	0.270508
833.0	5.422019	1.780055	8.288955	0.036987	-0.106969	-0.032286	-0.349365	0.081787	0.272949
834.0	5.346707	1.843303	8.521488	0.06878	-0.128403	-0.02891	-0.343018	0.086182	0.277344
835.0	5.189131	1.703611	8.615662	0.040848	-0.141779	-0.031939	-0.344971	0.077393	0.268555
836.0	5.045219	1.547013	8.697775	0.162496	-0.231131	-0.020367	-0.349609	0.083984	0.268311
837.0	5.458998	1.901981	8.309496	0.373016	-0.273952	-0.009047	-0.347168	0.081787	0.268311
838.0	5.339072	1.875479	8.414905	0.444679	-0.309762	0.008352	-0.349609	0.083984	0.277588
839.0	4.833484	1.806616	8.726825	0.682651	-0.384851	0.026882	-0.342773	0.081787	0.277588
840.0	4.239111	1.871323	9.565729	0.454995	-0.505913	-0.006884	-0.343262	0.092773	0.272705
841.0	5.462014	1.029877	7.461199	1.06812	-0.816268	-0.004951	-0.347412	0.088135	0.277344
842.0	5.242741	2.867886	9.0194	1.20012	-0.815348	0.005401	-0.343262	0.088379	0.272949
843.0	4.617197	2.135517	8.695753	1.076459	-1.162166	0.064964	-0.345703	0.094727	0.277344
844.0	4.737347	2.680362	7.773666	1.353967	-1.510775	0.145546	-0.339111	0.096924	0.293213
845.0	3.782633	2.880999	7.461582	1.435994	-2.112731	0.254559	-0.339111	0.096924	0.302246
846.0	1.988519	2.445315	8.805274	1.73051	-2.970757	0.401181	-0.322266	0.110107	0.308838
847.0	0.754739	3.419771	10.929072	1.929765	-4.103417	0.635281	-0.320313	0.114502	0.32251
848.0	0.213588	4.154596	12.713812	0.854974	-5.501478	1.013221	-0.305176	0.118896	0.347412
849.0	2.757117	3.620021	11.107422	-0.534696	-6.7356	1.345579	-0.289795	0.114502	0.363525
850.0	5.42093	3.780619	10.870761	-0.782141	-7.218989	1.686408	-0.267822	0.110352	0.38623
851.0	7.157416	4.926733	11.355834	-0.915891	-7.524565	1.953145	-0.244141	0.116943	0.406494
852.0	6.722305	5.103111	11.413535	-0.982033	-7.803441	2.264687	-0.213379	0.11499	0.429443
853.0	8.855236	5.867106	10.612378	-0.556257	-8.465103	2.656219	-0.189453	0.11499	0.445313
854.0	13.814122	6.008109	12.652376	-0.464015	-8.731432	2.920496	-0.147949	0.11084	0.461426
855.0	12.443139	0.252018	8.653003	-1.149369	-9.163528	2.880909	-0.123779	0.106689	0.472656
856.0	19.895584	2.044587	10.376179	1.098256	-9.457614	2.605001	-0.08252	0.113525	0.486328
857.0	22.680478	7.830212	7.222103	2.110641	-8.379275	2.812702	-0.056885	0.124512	0.490479
858.0	28.515304	12.489183	15.592319	1.365101	-7.656254	3.094777	-0.031006	0.131104	0.497314
859.0	24.706496	7.382965	15.054982	-0.353926	-6.365207	3.21938	-0.013428	0.12915	0.497314
860.0	13.846258	9.663314	17.767974	0.824052	-5.007349	3.276471	-0.007568	0.142334	0.506104
861.0	7.081264	17.825073	27.788389	0.51435	-3.086637	3.172683	-0.011719	0.139893	0.508545
862.0	-7.284887	9.126684	23.382965	-3.224646	0.44843	3.616519	-0.015625	0.131104	0.526855
863.0	4.559888	3.330275	-34.153056	-3.933998	-5.689345	3.513746	0.019531	0.122803	0.52002
864.0	46.093966	-1.293494	62.12541	1.297162	-1.911631	0.622751	-0.005615	0.146484	0.519775
865.0	13.025904	7.588486	8.574641	4.632175	4.989176	-0.85069	-0.053223	0.189941	0.523438
866.0	-4.748711	14.534011	13.825653	2.871382	5.281092	-0.979953	-0.089111	0.211426	0.520752
867.0	-0.552532	12.541535	8.95824	-0.038555	4.268191	-0.351821	-0.135742	0.22876	0.509033
868.0	-0.060153	6.604357	7.027369	-1.362456	4.795464	0.10069	-0.179932	0.243652	0.504395
869.0	-1.719542	4.311799	4.007679	-0.259369	4.806556	0.41614	-0.227051	0.269531	0.487793
870.0	0.417266	4.737525	5.843486	-0.175569	4.729676	0.471758	-0.271484	0.29126	0.462402
871.0	2.98868	3.676325	4.999968	-0.30469	4.904587	0.280645	-0.328857	0.304199	0.418945
872.0	4.027174	3.315092	4.375686	0.335953	5.21806	-0.105397	-0.375	0.314941	0.368652
873.0	5.293841	3.904955	5.304621	0.831362	5.496144	-0.634813	-0.403564	0.314697	0.307129
874.0	5.642881	4.408132	5.407733	1.137023	5.803009	-1.160566	-0.405029	0.301758	0.239014
875.0	5.883831	5.005649	5.136126	1.305047	5.951253	-1.582642	-0.371338	0.280273	0.184814
876.0	6.120043	5.362497	5.154398	1.246779	5.988542	-1.883399	-0.300537	0.256836	0.166992
877.0	6.508848	4.944416	5.289917	1.031062	5.883525	-2.098232	-0.236572	0.241943	0.192139
878.0	7.314285	4.122811	6.06372	0.949745	5.761405	-2.273236	-0.202148	0.250732	0.249023
879.0	8.682759	3.1062	6.925218	0.880892	5.627521	-2.458159	-0.240479	0.280762	0.3396
880.0	10.175839	1.944001	7.652246	1.005886	5.541705	-2.637029	-0.33374	0.317139	0.402832
881.0	11.995154	1.556551	8.466264	1.482179	5.513519	-2.780513	-0.474854	0.348877	0.416016
882.0	15.415658	2.627886	10.196434	1.922669	5.361955	-2.736511	-0.601563	0.356934	0.375
883.0	16.989954	0.675958	9.113829	1.651494	5.159279	-2.6682	-0.711914	0.336914	0.304932
884.0	16.272974	-0.299572	8.039856	2.394963	5.051601	-2.738879	-0.782471	0.303955	0.212158
885.0	16.076462	1.906672	8.353122	3.105484	4.922229	-2.821061	-0.841309	0.253662	0.119873
886.0	16.63745	3.058076	8.324785	2.714267	4.749328	-2.867105	-0.863037	0.203369	0.036377
887.0	17.514958	2.871125	8.415332	2.467395	4.425546	-2.916028	-0.873535	0.144531	-0.0354
888.0	19.264645	3.463511	8.10029	2.296554	4.133413	-2.949079	-0.873047	0.085938	-0.100342
889.0	18.644487	4.635114	8.088029	1.974462	3.794919	-2.907691	-0.862061	0.031494	-0.153809
890.0	18.935723	4.412117	7.980371	1.082209	3.387643	-2.805086	-0.840576	-0.005371	-0.19873
891.0	18.803909	2.388296	8.496875	0.668253	3.082177	-2.687722	-0.81665	-0.053223	-0.236572
892.0	19.190412	-0.028304	7.950433	0.398172	2.768164	-2.713478	-0.784912	-0.083496	-0.270264
893.0	19.377111	-1.160012	6.403525	0.777879	2.660951	-2.631204	-0.761475	-0.120361	-0.287842
894.0	19.232336	-1.103398	6.902074	1.139032	2.516738	-2.499641	-0.729736	-0.14624	-0.30542
895.0	19.642199	-2.314841	6.574467	0.97765	2.341639	-2.400134	-0.699951	-0.176514	-0.321045
896.0	20.313498	-3.19156	5.471631	1.125465	2.224548	-2.450677	-0.677246	-0.196045	-0.332031
897.0	19.845363	-4.38772	3.734387	1.13477	2.102289	-2.488326	-0.649902	-0.222168	-0.335938
898.0	25.452154	-7.933128	3.286862	0.533483	1.373069	-2.668573	-0.625488	-0.234863	-0.340332
899.0	31.113394	-10.306881	-6.117953	0.460019	0.661014	-2.953649	-0.607178	-0.252197	-0.342285
900.0	30.12093	-12.084644	-18.490871	0.912228	0.534141	-2.675242	-0.589355	-0.263184	-0.34668
901.0	21.282429	-11.720672	-19.147596	1.94809	2.348026	-1.865123	-0.572998	-0.284912	-0.348633
902.0	9.089254	-7.570118	-4.331727	3.582285	2.559649	-0.692365	-0.561523	-0.297852	-0.34375
903.0	1.26099	2.518731	3.50138	2.25797	-0.620345	0.977364	-0.574707	-0.295898	-0.330078
904.0	-5.013157	8.951	7.595799	-1.662536	-3.517194	2.614756	-0.5979	-0.265381	-0.323975
905.0	-1.474938	3.602168	-11.585486	-5.887912	-5.144117	3.403698	-0.621338	-0.228516	-0.303955
906.0	21.165806	-0.364764	7.983375	-5.37337	-4.286609	3.569627	-0.638184	-0.193604	-0.30249
907.0	7.698809	3.900339	17.160931	-1.306457	-0.875983	2.908773	-0.649902	-0.174072	-0.291504
908.0	11.011396	13.401391	28.694725	-1.882869	-2.503132	2.619942	-0.657715	-0.147949	-0.289551
909.0	8.049952	-2.996222	10.088491	-8.138933	-1.916182	2.13501	-0.672363	-0.111084	-0.290283
910.0	-1.393424	-27.503792	1.335731	-5.935137	-2.533839	1.58869	-0.677734	-0.091309	-0.2771
911.0	5.186863	-15.105532	6.413291	5.916742	-3.082416	1.178412	-0.685547	-0.111084	-0.249268
912.0	11.297239	11.670561	19.521299	4.050912	-3.001756	1.608368	-0.699219	-0.098145	-0.229004
913.0	21.734064	23.293112	28.05774	-2.051989	-3.570205	1.969779	-0.706299	-0.083008	-0.201904
914.0	26.873348	3.820006	-0.85924	-5.723714	-2.769766	1.11035	-0.71167	-0.061279	-0.20459
915.0	14.958326	-14.72097	4.402014	-4.438041	1.381233	0.640757	-0.705322	-0.054688	-0.21167
916.0	-3.23272	-7.780786	13.317298	2.936557	0.000337	0.330482	-0.709473	-0.059082	-0.207031
917.0	5.212515	10.5602	9.322422	2.775827	-0.832767	0.242479	-0.716064	-0.059082	-0.202393
918.0	6.696816	12.364072	11.959404	-2.328694	-0.505354	0.543202	-0.712402	-0.043945	-0.200439
919.0	10.762337	-3.4568	11.62203	-5.86177	-0.940891	0.345122	-0.714844	-0.037354	-0.198242
920.0	7.116938	-8.960009	0.531442	-1.244454	0.256866	-0.017761	-0.715088	-0.035156	-0.200684
921.0	4.777348	2.572248	8.531914	4.523226	0.530166	-0.065663	-0.716553	-0.050293	-0.200439
922.0	5.929833	9.46561	12.278607	0.1427	0.137538	0.032911	-0.710205	-0.043701	-0.200439
923.0	5.069862	1.06675	8.102295	-3.311489	-0.229787	-0.002159	-0.717285	-0.035156	-0.202881
924.0	5.452517	-2.820214	5.097485	-0.19514	0.042957	-0.013209	-0.708252	-0.039307	-0.205078
925.0	4.781915	2.848904	9.684754	1.628205	0.166884	-0.035453	-0.708008	-0.043701	-0.207275
926.0	5.242563	4.081896	9.477847	-0.469269	-0.104519	-0.023706	-0.714844	-0.039551	-0.202881
927.0	5.648022	0.357101	7.287995	-0.796865	-0.143787	-0.022056	-0.715088	-0.035156	-0.202881
928.0	5.444793	1.109459	7.945743	0.325267	-0.059354	-0.041877	-0.710449	-0.037354	-0.202881
929.0	5.460641	2.778958	8.64321	0.030274	-0.096558	-0.033531	-0.7146	-0.043945	-0.200439
930.0	5.773752	1.607779	7.927331	-0.240876	-0.093248	-0.01609	-0.708496	-0.035156	-0.196045
931.0	5.524403	1.167188	8.328058	0.045296	-0.063896	-0.031354	-0.714844	-0.037354	-0.200684
932.0	5.225844	1.813308	8.334744	0.140338	-0.088208	-0.044623	-0.7146	-0.043945	-0.195801
933.0	5.490924	1.682064	8.32138	0.049442	-0.114628	-0.052274	-0.710449	-0.041748	-0.198242
934.0	5.478091	1.804706	8.168473	0.147748	-0.104101	-0.053636	-0.710205	-0.043945	-0.188965
935.0	5.585824	1.865525	8.216337	0.071225	-0.108996	-0.053584	-0.716797	-0.041748	-0.191406
936.0	5.638955	1.850679	8.179984	0.086139	-0.086241	-0.050505	-0.710205	-0.045898	-0.195801
937.0	5.690404	1.913631	8.160706	0.036787	-0.066958	-0.04482	-0.712402	-0.046143	-0.193604
938.0	5.622701	1.969653	8.165417	0.034283	-0.042034	-0.036184	-0.717041	-0.037354	-0.191406
939.0	5.554876	1.787911	8.184651	-0.019638	-0.030976	-0.033174	-0.717041	-0.039551	-0.196045
940.0	5.579498	1.756865	8.084697	0.025631	-0.021363	-0.034439	-0.712402	-0.043945	-0.198242
941.0	5.406651	1.839807	8.251814	0.016359	-0.020621	-0.037463	-0.7146	-0.043945	-0.200439
942.0	5.331054	1.803651	8.263647	0.030839	-0.032656	-0.044255	-0.708496	-0.037354	-0.196045
943.0	5.333498	1.887018	8.276659	0.00639	-0.049679	-0.044373	-0.710449	-0.039551	-0.196045
944.0	5.394648	1.887996	8.202845	-0.017374	-0.059801	-0.04597	-0.716797	-0.041748	-0.189209
945.0	5.372445	2.033274	8.302131	-0.032054	-0.071039	-0.04306	-0.717041	-0.039551	-0.193604
946.0	5.563609	2.057695	8.16418	-0.086975	-0.0731	-0.03999	-0.712646	-0.039551	-0.191406
947.0	5.530752	2.013303	8.275444	-0.128001	-0.056567	-0.023733	-0.714844	-0.039551	-0.193604
948.0	5.493352	1.954895	8.209007	-0.185197	-0.055215	-0.02989	-0.715088	-0.035156	-0.198242
949.0	5.548199	1.928136	8.159824	-0.203275	-0.03483	-0.020088	-0.710449	-0.041748	-0.193604
950.0	5.473813	1.95051	8.191681	-0.217217	-0.039781	-0.009165	-0.717285	-0.035156	-0.191406
951.0	5.511838	1.883353	8.205536	-0.274637	-0.041674	-0.001652	-0.712646	-0.037354	-0.191406
952.0	5.565324	1.725745	8.172904	-0.269412	-0.045894	-0.00024	-0.717285	-0.035156	-0.191406
953.0	5.651742	1.679448	8.123644	-0.214374	-0.045657	-0.002211	-0.714844	-0.041748	-0.193604
954.0	5.499548	1.696656	8.216547	-0.167252	-0.052503	-0.007233	-0.719238	-0.037354	-0.196045
955.0	5.58642	1.737205	8.18204	-0.145076	-0.061243	-0.015325	-0.714844	-0.037354	-0.189209
956.0	5.440889	1.729249	8.344113	-0.110402	-0.071085	-0.010291	-0.717041	-0.037354	-0.189209
957.0	5.441433	1.709622	8.362249	-0.087533	-0.079346	-0.013323	-0.717285	-0.035156	-0.182373
958.0	5.423387	1.689754	8.429205	-0.032285	-0.110297	-0.013287	-0.712891	-0.032959	-0.189209
959.0	5.25504	1.795999	8.52426	0.037861	-0.120817	-0.00736	-0.717285	-0.035156	-0.187012
960.0	5.100587	1.839484	8.958616	0.07366	-0.161624	0.012724	-0.712891	-0.035156	-0.180176
961.0	5.449046	1.760536	8.399147	0.250766	-0.236246	0.031753	-0.712891	-0.035156	-0.187012
962.0	4.838219	1.407237	8.775528	0.393236	-0.303551	0.03694	-0.717041	-0.037354	-0.187012
963.0	4.592379	1.414277	9.201193	0.737365	-0.455898	0.036126	-0.717041	-0.039551	-0.173096
964.0	3.928396	1.488425	9.536353	0.676732	-0.669016	-0.020527	-0.72583	-0.039551	-0.177734
965.0	5.467581	1.564908	7.721218	1.425253	-0.975707	0.007254	-0.718994	-0.043945	-0.159424
966.0	5.1352	3.246841	9.079189	1.403266	-1.064438	0.080399	-0.725586	-0.041748	-0.154785
967.0	4.056344	2.842454	8.596853	1.129611	-1.497111	0.213945	-0.727539	-0.046143	-0.138916
968.0	3.774415	2.355552	7.561024	1.479272	-2.090485	0.325005	-0.732178	-0.044189	-0.120605
969.0	2.210814	2.566164	8.758315	1.805488	-2.830367	0.436505	-0.731934	-0.046387	-0.100098
970.0	0.557792	3.255086	10.297842	1.841164	-4.021801	0.670229	-0.739258	-0.029053	-0.063965
971.0	-0.684981	3.507893	12.206514	0.912272	-5.445786	1.065216	-0.747803	-0.031494	-0.025146
972.0	1.130278	3.146005	10.533951	-0.003547	-7.094131	1.509557	-0.744629	-0.007568	0.029053
973.0	5.827504	4.147058	11.969216	-0.429352	-7.775193	1.906878	-0.74292	0.003174	0.083496
974.0	6.12937	4.608376	11.515137	-1.019226	-8.022021	2.10569	-0.741699	0.0271	0.142334
975.0	8.958307	5.472652	11.561647	-0.703516	-8.350856	2.481805	-0.725098	0.044678	0.198975
976.0	7.366032	6.236994	10.456057	-0.347887	-8.679208	2.869882	-0.708496	0.066406	0.253174
977.0	13.968735	6.11458	12.565737	-0.674055	-9.2334	3.159872	-0.689941	0.085938	0.314209
978.0	14.129015	0.696621	8.207601	-1.175577	-9.626803	3.183285	-0.653564	0.105713	0.364014
979.0	22.15349	3.95019	9.993398	1.307004	-9.529254	2.988142	-0.615723	0.136475	0.417969
980.0	24.011187	7.793116	7.479172	1.527537	-8.587799	3.133804	-0.56665	0.160645	0.465332
981.0	27.711745	9.343578	14.181325	0.978717	-7.577105	3.290656	-0.526123	0.182617	0.494629
982.0	21.932968	5.697305	14.693796	-0.014844	-6.389784	3.373606	-0.481201	0.202393	0.519287
983.0	17.016854	12.811507	20.406003	1.198692	-5.168297	3.48714	-0.438477	0.220215	0.532471
984.0	10.164885	16.96779	30.551597	-0.565333	-2.835904	3.129039	-0.415283	0.237793	0.538818
985.0	-3.357564	7.067853	14.866501	-3.142592	0.310945	3.732892	-0.399902	0.237793	0.543457
986.0	8.618552	5.090781	-17.870507	-1.892382	-5.048648	2.73348	-0.365479	0.246826	0.552246
987.0	33.620698	-1.06943	54.012467	0.160552	0.902059	0.393448	-0.381104	0.253174	0.538574
988.0	11.645264	7.689681	10.691257	4.454676	5.475	-0.730595	-0.399658	0.281494	0.499268
989.0	-4.410837	15.046148	10.420968	3.308678	5.235266	-0.574796	-0.422363	0.299072	0.476074
990.0	-0.791017	14.166088	10.476509	-0.913495	4.457896	0.12251	-0.435303	0.296631	0.460205
991.0	-0.72708	5.758795	5.489529	-2.292476	4.751024	0.629209	-0.446533	0.301025	0.441895
992.0	-1.055243	2.780363	3.75682	-0.62376	4.756216	0.845656	-0.457764	0.309814	0.425781
993.0	1.237709	4.105378	5.776468	0.041523	4.82402	0.707583	-0.473633	0.322754	0.405029
994.0	3.525954	4.003864	5.552848	-0.053487	5.053662	0.344255	-0.482666	0.331543	0.38208
995.0	4.448304	3.770542	4.919102	0.540969	5.323146	-0.143262	-0.504883	0.338135	0.359375
996.0	4.99977	4.329588	5.292233	1.023128	5.591122	-0.717676	-0.520752	0.351074	0.331787
997.0	5.346545	4.759439	5.476177	1.31089	5.780957	-1.2746	-0.547119	0.357422	0.308838
998.0	6.476526	5.50662	5.685424	1.494171	5.882374	-1.734459	-0.565186	0.368408	0.274414
999.0	6.985948	5.997722	5.515944	1.394256	5.917071	-2.075866	-0.595459	0.364014	0.244873
1000.0	7.630212	5.821397	6.11016	1.168527	5.823793	-2.31689	-0.617432	0.368164	0.20166
1001.0	8.702242	4.993305	6.934111	0.975588	5.730524	-2.516235	-0.638916	0.359375	0.178955
1002.0	9.836954	3.591261	8.085796	0.819401	5.616467	-2.711613	-0.667236	0.359375	0.137939
1003.0	10.910758	1.589368	8.721545	0.833907	5.546687	-2.896268	-0.690918	0.350586	0.088135
1004.0	12.450733	0.485361	9.577397	1.459857	5.526559	-3.025255	-0.705811	0.341797	0.051758
1005.0	16.770128	0.930724	10.47274	1.9185	5.487005	-3.051305	-0.726807	0.324463	0.008789
1006.0	16.924357	0.327155	11.811472	2.437961	5.340495	-2.791227	-0.737305	0.315674	-0.038818
1007.0	17.823362	-2.037836	8.086049	2.409628	5.221685	-2.772565	-0.756104	0.300537	-0.081787
1008.0	16.616436	-0.113005	7.810013	3.947824	5.112861	-2.760668	-0.766357	0.280762	-0.140625
1009.0	16.456082	2.58204	9.052521	3.797812	4.845336	-2.764	-0.780518	0.256836	-0.187988
1010.0	16.935217	2.718717	8.815969	3.206624	4.535377	-2.802399	-0.785889	0.23291	-0.23999
1011.0	17.660725	3.778286	9.319607	3.068427	4.155117	-2.793872	-0.793213	0.200195	-0.282715
1012.0	18.246724	3.352817	7.648619	2.326808	3.77626	-2.733848	-0.791748	0.167725	-0.320801
1013.0	19.13323	2.110772	8.994803	2.092931	3.14389	-2.688589	-0.788086	0.132813	-0.361084
1014.0	19.364235	0.273499	8.284391	1.236671	2.599185	-2.6771	-0.777832	0.102539	-0.396973
1015.0	19.682321	-2.606321	6.452714	1.011453	2.362023	-2.674747	-0.769775	0.06543	-0.423584
1016.0	19.203657	-3.076111	5.056859	1.992323	2.230984	-2.589579	-0.755127	0.030762	-0.450195
1017.0	19.364287	-2.657854	6.072596	1.971793	1.985639	-2.491227	-0.736084	-0.006104	-0.467773
1018.0	20.338988	-3.386172	5.234983	1.901615	1.779556	-2.454951	-0.723633	-0.038818	-0.480957
1019.0	21.692699	-2.272557	4.110613	1.972628	1.653948	-2.419663	-0.708984	-0.075684	-0.498291
1020.0	24.62793	-3.541223	3.570889	1.210581	1.410407	-2.335652	-0.695068	-0.09082	-0.511719
1021.0	32.010888	-6.535106	0.951178	0.023918	1.001297	-2.378745	-0.680908	-0.114746	-0.518066
1022.0	34.647374	-8.393319	-10.591482	-0.261318	0.855141	-2.205411	-0.669434	-0.130127	-0.529297
1023.0	29.242489	-10.071005	-19.70936	-0.382616	1.930166	-1.560821	-0.651611	-0.138672	-0.540527
1024.0	17.362747	-10.292585	-13.408315	0.163056	3.784548	-0.897428	-0.62085	-0.140625	-0.563232
1025.0	-0.468616	-1.344757	-0.642079	1.293576	0.632175	0.195536	-0.631348	-0.153809	-0.556152
1026.0	-7.942324	-3.566605	2.776098	-2.329375	-2.353577	1.556336	-0.654541	-0.121094	-0.543213
1027.0	-4.629392	4.546542	-25.743551	-2.971799	-5.381285	2.114728	-0.687988	-0.104004	-0.513916
1028.0	6.322182	12.662781	7.660157	-1.394967	-4.388626	3.974773	-0.711914	-0.05835	-0.496338
1029.0	5.895	12.301981	41.271829	-8.04811	-3.642044	3.451078	-0.738525	0.000488	-0.479248
1030.0	18.361295	-10.561183	6.112648	-9.52458	-4.517484	3.012362	-0.756836	0.067871	-0.446533
1031.0	14.710643	-32.934341	3.963937	-4.289751	-2.908695	1.037262	-0.77417	0.06543	-0.428223
1032.0	14.673991	-16.653912	15.392262	5.66391	-3.186413	0.564964	-0.780029	0.050049	-0.409668
1033.0	17.324882	11.07569	27.36722	2.711165	-2.474191	1.826296	-0.795654	0.058594	-0.393799
1034.0	24.377275	11.762989	21.528103	-4.346637	-2.322593	1.779821	-0.805908	0.095703	-0.374023
1035.0	22.430025	-1.650748	-6.812522	-5.076088	-0.903938	0.394267	-0.808594	0.106689	-0.383301
1036.0	0.431421	-5.944144	9.763863	0.17349	1.488735	0.448242	-0.795654	0.108887	-0.385742
1037.0	-2.293987	2.64595	21.602562	0.65694	-0.880936	0.513877	-0.806641	0.113037	-0.37207
1038.0	8.543784	6.03744	3.33883	-1.051649	-1.45529	0.178	-0.807129	0.124023	-0.363281
1039.0	10.380681	2.604823	10.36537	-1.622729	-0.259937	0.378047	-0.807617	0.130615	-0.358643
1040.0	9.240588	-4.416253	7.733663	-2.667753	-0.119797	0.119226	-0.808105	0.141602	-0.358887
1041.0	1.563129	0.841482	5.194138	1.212468	0.389994	-0.085321	-0.807373	0.128418	-0.365479
1042.0	6.654914	5.682377	11.426602	0.961585	-0.416816	0.121458	-0.809814	0.13501	-0.358887
1043.0	6.057276	1.037858	8.122936	-2.149317	-0.126519	0.012686	-0.812012	0.13501	-0.356445
1044.0	6.143191	-1.263609	6.189774	0.141368	-0.240754	0.002601	-0.807861	0.139404	-0.356689
1045.0	5.782373	2.816047	9.260183	0.799277	0.012363	-0.013719	-0.809814	0.132813	-0.358887
1046.0	5.90313	2.31558	8.5758	-0.405986	-0.12995	-0.004505	-0.809814	0.13501	-0.354248
1047.0	5.755794	0.737819	7.594037	-0.104349	-0.022459	-0.017839	-0.816406	0.134766	-0.352051
1048.0	5.382133	2.064542	8.604386	0.185086	-0.025947	-0.02299	-0.814209	0.132813	-0.354248
1049.0	5.188082	1.638581	8.380375	-0.091116	-0.042238	-0.026653	-0.809814	0.13501	-0.354248
1050.0	5.440608	1.721099	8.264958	0.083425	-0.043053	-0.034206	-0.809814	0.13501	-0.345215
1051.0	5.381716	1.887325	8.424561	0.016593	-0.042739	-0.031608	-0.807617	0.13501	-0.354248
1052.0	5.516994	1.756871	8.147912	0.068211	-0.039245	-0.03443	-0.812012	0.132813	-0.356445
1053.0	5.437526	1.839548	8.281192	0.067434	-0.034386	-0.035019	-0.814209	0.134766	-0.352051
1054.0	5.388531	1.774726	8.251664	0.026577	-0.037713	-0.038292	-0.812012	0.13501	-0.352051
1055.0	5.507869	1.781489	8.109219	0.051354	-0.027336	-0.042681	-0.813965	0.130615	-0.349609
1056.0	5.431777	1.834807	8.374454	0.015692	-0.029588	-0.039894	-0.813965	0.130615	-0.351807
1057.0	5.471371	1.620105	8.052915	0.028614	-0.032175	-0.046299	-0.814209	0.134766	-0.352051
1058.0	5.466353	1.824393	8.251116	0.039276	-0.030781	-0.044069	-0.814209	0.132813	-0.349609
1059.0	5.574907	1.849448	8.11864	-0.022847	-0.015547	-0.046603	-0.809814	0.132813	-0.349609
1060.0	5.563024	1.825045	8.159961	-0.047844	0.002689	-0.033723	-0.812012	0.13501	-0.354248
1061.0	5.527932	1.79105	8.1935	-0.103076	0.026027	-0.03792	-0.814209	0.132813	-0.352051
1062.0	5.475489	1.760064	8.198509	-0.118842	0.040785	-0.037172	-0.812012	0.134766	-0.345215
1063.0	5.445882	1.77834	8.181953	-0.124987	0.043473	-0.03278	-0.811768	0.130615	-0.351807
1064.0	5.308658	1.773415	8.296374	-0.13059	0.041604	-0.035871	-0.809814	0.13501	-0.354248
1065.0	5.273946	1.655174	8.314833	-0.139859	0.023205	-0.046888	-0.813965	0.130615	-0.351807
1066.0	5.403697	1.600576	8.239034	-0.081084	-0.003078	-0.04118	-0.812256	0.136963	-0.349854
1067.0	5.248453	1.718752	8.325155	-0.042684	-0.008059	-0.051712	-0.816406	0.132568	-0.349609
1068.0	5.384373	1.887696	8.288134	-0.043282	-0.039823	-0.061236	-0.813965	0.130615	-0.356445
1069.0	5.368418	1.97028	8.274397	-0.088353	-0.031116	-0.044504	-0.813965	0.130615	-0.351807
1070.0	5.251897	2.078944	8.281309	-0.14149	-0.023495	-0.035953	-0.816406	0.134766	-0.347412
1071.0	5.384402	2.147969	8.370616	-0.214754	-0.014993	-0.006499	-0.81665	0.136963	-0.349854
1072.0	5.190741	1.782433	8.406513	-0.301663	-0.016294	0.000239	-0.810059	0.136963	-0.349854
1073.0	5.046503	1.69596	8.591134	-0.154375	-0.032973	-0.000267	-0.816406	0.132568	-0.349609
1074.0	5.105204	1.678988	8.65973	-0.088474	-0.095715	-0.005817	-0.814453	0.13916	-0.349854
1075.0	5.264036	1.837687	8.710909	-0.072514	-0.094395	-0.005887	-0.816406	0.132568	-0.349609
1076.0	5.526638	1.797344	8.347231	-0.10768	-0.126389	0.005703	-0.814453	0.13916	-0.349854
1077.0	5.310752	1.711977	8.585466	-0.09795	-0.102623	0.008544	-0.818604	0.136963	-0.345215
1078.0	5.478317	1.800481	8.477538	-0.062516	-0.124316	0.004469	-0.81665	0.141357	-0.343018
1079.0	5.413218	1.879472	8.590159	-0.03789	-0.117013	0.03173	-0.816406	0.134766	-0.342773
1080.0	4.933593	1.336336	8.909249	0.027102	-0.182574	0.04276	-0.820801	0.136963	-0.343018
1081.0	5.378631	1.533908	8.385047	0.45908	-0.310534	0.056817	-0.818604	0.136963	-0.340576
1082.0	4.186142	1.549771	9.356768	0.555456	-0.386127	0.099526	-0.818848	0.13916	-0.340576
1083.0	4.34331	1.677143	9.52363	0.512448	-0.512252	0.063639	-0.825195	0.134766	-0.331543
1084.0	5.328811	1.084706	8.09902	0.891977	-0.786906	0.060534	-0.822998	0.132568	-0.329102
1085.0	5.116299	2.49298	9.500557	1.03531	-0.891635	0.084515	-0.827148	0.128174	-0.319824
1086.0	4.597954	1.840656	8.557183	0.837596	-1.23824	0.109545	-0.831543	0.130371	-0.308594
1087.0	5.252407	2.049286	7.158624	1.431179	-1.524584	0.175593	-0.839844	0.121582	-0.303711
1088.0	4.341119	3.00056	8.014789	1.72543	-1.806254	0.310396	-0.842041	0.121338	-0.278809
1089.0	2.267421	3.886788	9.703483	1.673598	-2.543042	0.525354	-0.861572	0.119141	-0.258057
1090.0	-0.222153	2.857612	9.83307	1.181011	-3.859822	0.79609	-0.868652	0.129883	-0.22876
1091.0	-1.441302	2.355198	10.304648	1.271588	-5.489464	1.174882	-0.881592	0.131836	-0.17627
1092.0	0.698299	3.689818	12.356725	0.73155	-7.253385	1.665981	-0.893311	0.146973	-0.112793
1093.0	5.73465	5.07129	13.623879	-0.460096	-8.052681	2.076298	-0.904785	0.161865	-0.037842
1094.0	7.725433	5.16115	12.75443	-1.307813	-8.088514	2.331202	-0.9104	0.189941	0.034424
1095.0	5.766906	4.893098	9.824307	-1.160455	-8.591638	2.610936	-0.911133	0.207275	0.109375
1096.0	11.12252	5.893395	12.253431	-0.399014	-8.7961	2.929969	-0.894775	0.229004	0.184082
1097.0	14.398991	3.580314	12.741545	-0.635753	-9.339777	3.040227	-0.874023	0.25293	0.263428
1098.0	13.657236	-0.551291	8.189315	-0.52059	-9.611342	2.70157	-0.842285	0.2771	0.331299
1099.0	24.405404	4.184972	10.076584	2.019324	-9.216123	2.563957	-0.801758	0.298828	0.394531
1100.0	23.802412	10.359353	9.541699	2.00332	-8.116843	2.858316	-0.761719	0.327393	0.441895
1101.0	28.656541	11.014068	16.8626	0.277705	-7.149484	3.271253	-0.712402	0.347168	0.489258
1102.0	20.371645	7.476378	15.777769	-0.106617	-5.591969	3.356401	-0.671875	0.367188	0.518311
1103.0	8.659996	14.05035	21.387954	0.513769	-4.468465	3.461578	-0.633545	0.386963	0.540771
1104.0	0.529248	18.193101	31.62309	-1.416065	-1.428166	3.523362	-0.605225	0.387207	0.547607
1105.0	-7.799613	3.469925	-2.4082	-5.747393	-1.126523	4.357935	-0.578369	0.374023	0.595703
1106.0	17.278374	-0.466275	-17.059379	-3.914099	-9.340201	2.744321	-0.528076	0.37207	0.627441
1107.0	43.043491	-5.904656	59.892382	2.146221	2.377465	1.142405	-0.548828	0.393799	0.599854
1108.0	7.223141	9.697306	10.034653	5.146216	5.092258	0.044449	-0.58667	0.415527	0.562988
1109.0	-2.232067	12.342504	12.131465	1.454325	4.271235	0.163885	-0.599609	0.411133	0.533447
1110.0	3.868259	7.484214	10.622309	-0.432247	4.586918	0.324056	-0.623535	0.408936	0.508545
1111.0	-0.544589	4.386824	5.004774	0.883597	5.220852	0.410439	-0.654297	0.415283	0.47876
1112.0	-0.957951	6.09623	6.314552	1.404724	5.058617	0.331605	-0.672363	0.42627	0.439697
1113.0	1.664962	5.564978	5.830602	0.564516	4.960623	0.08436	-0.698242	0.421875	0.410156
1114.0	2.461148	5.000393	4.012309	0.950129	5.22548	-0.232057	-0.715576	0.41748	0.362549
1115.0	3.222771	5.793239	4.848826	1.016918	5.288361	-0.628776	-0.74585	0.410889	0.323975
1116.0	4.374005	4.697553	5.305914	0.876412	5.435467	-1.090863	-0.764893	0.399902	0.292236
1117.0	5.086744	4.146418	5.1201	1.154077	5.569574	-1.616355	-0.792725	0.384521	0.244629
1118.0	5.061781	4.348445	5.269207	1.23584	5.586141	-2.085166	-0.813965	0.371338	0.199463
1119.0	5.54471	4.142396	5.448824	1.166216	5.536335	-2.41394	-0.832031	0.34082	0.154541
1120.0	5.958212	3.289289	6.110363	1.053156	5.410649	-2.652338	-0.848633	0.319092	0.114014
1121.0	7.422419	2.190368	7.375065	0.984268	5.274935	-2.825342	-0.866943	0.28833	0.062012
1122.0	8.774811	0.792349	8.045669	1.122255	5.27082	-2.968616	-0.871826	0.253662	0.028564
1123.0	9.90105	-0.328611	8.415801	1.610166	5.319446	-3.073699	-0.876953	0.223145	-0.025391
1124.0	11.057234	-0.276671	9.005237	2.289001	5.414473	-3.102641	-0.87793	0.192627	-0.070557
1125.0	12.45762	0.784277	10.533806	2.781349	5.50889	-3.055988	-0.869629	0.153564	-0.113037
1126.0	14.587832	1.385008	11.463751	2.964817	5.497199	-2.946558	-0.869873	0.112305	-0.155518
1127.0	17.766228	0.758619	12.031107	2.980633	5.470308	-2.863545	-0.859863	0.07959	-0.195801
1128.0	18.521287	1.474705	11.084459	3.276071	5.517083	-2.860832	-0.847412	0.047119	-0.238525
1129.0	17.276434	3.703158	11.029837	3.402374	5.103691	-2.80912	-0.830078	-0.000732	-0.269531
1130.0	19.164901	2.821367	10.810425	2.632574	4.669188	-2.847704	-0.811279	-0.026611	-0.30542
1131.0	20.340538	0.821775	8.801631	2.591287	4.50565	-3.064543	-0.791992	-0.070313	-0.325195
1132.0	20.387074	2.570237	7.873102	2.891975	4.225724	-3.221675	-0.769043	-0.098389	-0.349609
1133.0	20.028664	3.139217	8.279359	2.108343	3.555195	-3.222039	-0.75	-0.133057	-0.367188
1134.0	20.157376	3.534497	9.435172	1.553791	2.845228	-2.946447	-0.731201	-0.161377	-0.378174
1135.0	23.446446	0.15918	8.73524	0.338617	2.485457	-2.561301	-0.710938	-0.176514	-0.405273
1136.0	20.341877	-5.091454	1.26567	-0.591868	2.403256	-2.810019	-0.695068	-0.189453	-0.409668
1137.0	23.698448	-3.873456	4.712473	1.993434	2.806651	-2.68789	-0.676025	-0.224121	-0.427246
1138.0	21.745281	-0.696297	7.13044	1.539968	2.712743	-2.611311	-0.655762	-0.239258	-0.438232
1139.0	23.210398	-2.951372	2.366662	0.212992	2.068724	-2.349889	-0.641846	-0.256592	-0.447021
1140.0	29.541244	-9.092921	0.615618	-0.425531	1.274544	-2.281167	-0.630615	-0.263184	-0.453857
1141.0	35.411462	-13.10206	-10.784618	-0.280775	0.212898	-2.466386	-0.625732	-0.27832	-0.451172
1142.0	32.937431	-14.046763	-25.416879	0.644564	0.421903	-2.084132	-0.601074	-0.29126	-0.455566
1143.0	18.808767	-7.124222	-24.268439	1.540207	2.8892	-1.045988	-0.593506	-0.312988	-0.457275
1144.0	1.742219	-3.399093	8.146353	2.087938	2.116137	0.518671	-0.593994	-0.306396	-0.462158
1145.0	-8.579958	-1.542226	-5.187347	-2.059018	-3.254852	1.880859	-0.621094	-0.280518	-0.448975
1146.0	-5.888921	7.434049	-21.769292	-0.967769	-4.705748	3.330572	-0.657227	-0.256836	-0.415039
1147.0	6.816724	14.112912	20.982164	-3.526826	-4.546089	4.16656	-0.6875	-0.211182	-0.406982
1148.0	8.449379	8.521413	30.674935	-7.537697	-3.800675	3.448229	-0.716309	-0.154785	-0.39209
1149.0	19.943864	-5.156868	4.112003	-6.571378	-4.688941	2.982369	-0.737793	-0.111084	-0.374512
1150.0	14.676905	-18.070068	9.793188	-3.793526	-2.766038	1.715067	-0.756104	-0.091797	-0.356689
1151.0	14.493462	-17.953186	16.625957	0.571399	-3.214527	1.03451	-0.769043	-0.098389	-0.338379
1152.0	16.67523	7.218998	20.919967	3.486167	-2.527359	1.523764	-0.780273	-0.087646	-0.311279
1153.0	26.355198	8.631737	20.809911	-2.202167	-2.105831	1.850244	-0.790039	-0.063721	-0.311523
1154.0	22.239054	-8.072092	4.661692	-6.81948	-0.204879	0.300216	-0.782471	-0.039551	-0.31665
1155.0	0.620384	-12.534478	5.057988	0.336173	0.979862	0.288001	-0.790527	-0.054932	-0.321045
1156.0	-1.778357	6.135558	14.229838	4.289611	-0.504137	-0.009445	-0.785889	-0.059326	-0.30957
1157.0	5.762938	17.296669	8.841117	-0.094483	-0.876128	0.384111	-0.794922	-0.054932	-0.302734
1158.0	3.681343	8.294598	8.642507	-4.884734	-0.693511	0.504343	-0.787354	-0.028809	-0.298584
1159.0	13.390604	-6.302064	9.441936	-4.712884	-1.234978	0.575734	-0.799072	-0.011475	-0.30127
1160.0	9.689632	-8.957596	-1.551141	-1.0376	0.803722	-0.036864	-0.796387	-0.02002	-0.307861
1161.0	0.730105	4.791817	12.851843	4.510786	0.725926	0.008128	-0.793701	-0.033203	-0.307617
1162.0	6.128464	8.226705	12.45855	-1.024406	-0.167938	0.082914	-0.789795	-0.02002	-0.305664
1163.0	4.840924	-0.255635	7.143153	-3.62157	-0.26871	-0.015177	-0.794434	-0.015625	-0.303467
1164.0	5.675719	-2.906155	5.468027	0.425159	-0.093895	0.013557	-0.794434	-0.017822	-0.310303
1165.0	5.281123	3.345702	9.76172	1.437004	-0.007144	-0.015759	-0.800537	-0.024414	-0.301025
1166.0	5.754492	3.47296	9.3614	-0.673738	-0.177368	0.011262	-0.790283	-0.013428	-0.303467
1167.0	5.739094	-0.143731	7.477256	-0.724459	-0.137774	0.000755	-0.794434	-0.017822	-0.305664
1168.0	5.665515	1.035569	8.237039	0.448594	-0.057899	-0.024205	-0.796631	-0.015625	-0.30127
1169.0	5.557976	2.287047	8.803356	-0.003237	-0.038352	-0.024462	-0.796387	-0.022217	-0.303223
1170.0	5.360859	1.000533	8.215243	-0.120862	-0.079232	-0.032809	-0.796875	-0.01123	-0.308105
1171.0	5.565446	1.616552	8.282512	0.200695	-0.055456	-0.042719	-0.796387	-0.02002	-0.301025
1172.0	5.464814	1.697574	8.402922	-5.5e-05	-0.058329	-0.039989	-0.798828	-0.015869	-0.30127
1173.0	5.52632	1.369882	8.163344	0.072936	-0.054366	-0.044438	-0.796387	-0.02002	-0.305664
1174.0	5.418473	1.672436	8.29585	0.07584	-0.053692	-0.051819	-0.796387	-0.017822	-0.301025
1175.0	5.408742	1.449694	8.210722	0.059181	-0.057576	-0.054333	-0.794189	-0.02002	-0.294189
1176.0	5.517376	1.595346	8.20297	0.080494	-0.050836	-0.053506	-0.792236	-0.015625	-0.296631
1177.0	5.472957	1.625238	8.228272	-0.000823	-0.033365	-0.050241	-0.796143	-0.028809	-0.303223
1178.0	5.529497	1.741254	8.223347	-0.015023	-0.014771	-0.04362	-0.791748	-0.024414	-0.301025
1179.0	5.47093	1.86537	8.337865	-0.075627	0.009815	-0.0282	-0.796387	-0.022217	-0.301025
1180.0	5.437101	1.667915	8.277619	-0.134962	0.019207	-0.022672	-0.796631	-0.017822	-0.303467
1181.0	5.451659	1.571701	8.234374	-0.097265	0.023731	-0.020885	-0.794434	-0.017822	-0.303467
1182.0	5.370321	1.605942	8.324158	-0.090125	0.022287	-0.023119	-0.792236	-0.013428	-0.30127
1183.0	5.32944	1.554291	8.257719	-0.08345	0.014301	-0.02541	-0.796387	-0.02002	-0.296631
1184.0	5.303479	1.49913	8.280702	-0.076915	0.002454	-0.031907	-0.796631	-0.015869	-0.294434
1185.0	5.171574	1.468781	8.399809	-0.047496	-0.01584	-0.042084	-0.79834	-0.024414	-0.298828
1186.0	5.209625	1.548168	8.455944	0.016699	-0.055167	-0.053998	-0.796387	-0.02002	-0.298828
1187.0	5.215429	1.550969	8.392263	0.029819	-0.081455	-0.056298	-0.794189	-0.02002	-0.296631
1188.0	5.346791	1.651757	8.305401	0.05438	-0.10556	-0.052662	-0.792236	-0.013428	-0.296631
1189.0	5.460429	1.917082	8.222561	0.033163	-0.067609	-0.044203	-0.800781	-0.017822	-0.303467
1190.0	5.378962	2.02277	8.284916	-0.067965	-0.044555	-0.018849	-0.798828	-0.013672	-0.303467
1191.0	5.332957	1.962862	8.47646	-0.180326	-0.012509	0.014692	-0.796387	-0.02002	-0.291992
1192.0	5.239375	1.711104	8.575652	-0.227583	-0.015803	0.027588	-0.796387	-0.017822	-0.298828
1193.0	5.206341	1.537105	8.561953	-0.173233	-0.034778	0.031542	-0.796387	-0.022217	-0.296387
1194.0	5.443397	1.565913	8.513519	-0.130058	-0.053986	0.034942	-0.794434	-0.013428	-0.296631
1195.0	5.447897	1.633023	8.530116	-0.103669	-0.05768	0.035761	-0.794434	-0.017822	-0.301025
1196.0	5.409565	1.614889	8.6277	-0.089366	-0.068924	0.0389	-0.794189	-0.02002	-0.296631
1197.0	5.389439	1.510966	8.676565	-0.0659	-0.092435	0.039087	-0.798584	-0.018066	-0.294189
1198.0	5.324138	1.512728	8.770202	-0.002283	-0.122243	0.046872	-0.799072	-0.011475	-0.296631
1199.0	5.019872	1.427442	9.25977	0.076373	-0.194102	0.064768	-0.801025	-0.015869	-0.294434
1200.0	4.947567	1.262325	8.778137	0.405536	-0.370767	0.111288	-0.805176	-0.018066	-0.285156
1201.0	3.480591	0.999981	9.998422	0.469761	-0.466497	0.086245	-0.807373	-0.020264	-0.285156
1202.0	5.38848	0.906807	8.178421	0.839718	-0.762903	0.065719	-0.802979	-0.020264	-0.276123
1203.0	5.120048	2.288324	9.205182	1.125721	-0.841679	0.091163	-0.813721	-0.024658	-0.266846
1204.0	4.298517	1.55128	9.031475	0.724244	-1.180227	0.085974	-0.815918	-0.024658	-0.262207
1205.0	4.534944	1.337715	7.913347	1.378129	-1.48079	0.097449	-0.820068	-0.026855	-0.250732
1206.0	4.381088	2.755973	7.881474	1.848745	-1.817493	0.192973	-0.819824	-0.03125	-0.225586
1207.0	4.275666	3.717459	7.89623	1.658493	-2.323266	0.38967	-0.833008	-0.031494	-0.207275
1208.0	0.929122	3.15307	9.343477	1.091966	-3.070757	0.640706	-0.844238	-0.025146	-0.177979
1209.0	-2.246687	2.180684	10.017871	1.375098	-4.814435	1.011897	-0.857666	-0.016602	-0.132324
1210.0	-0.60026	3.037251	11.938327	1.374931	-6.893138	1.588627	-0.871338	-0.003662	-0.064209
1211.0	5.07473	4.676457	13.124398	0.346042	-7.972174	2.136595	-0.880859	0.015625	-0.000977
1212.0	7.291161	5.899392	14.374738	-1.083029	-7.986737	2.447059	-0.877686	0.043945	0.071533
1213.0	5.66766	5.116167	11.591305	-1.400898	-8.235324	2.810905	-0.88501	0.059082	0.130371
1214.0	7.641324	6.400759	11.371322	-0.757423	-8.738415	3.343189	-0.87793	0.095947	0.209473
1215.0	12.193884	6.036364	13.525915	-0.973371	-9.313791	3.607442	-0.85498	0.119873	0.28418
1216.0	14.605538	1.830599	9.256019	-1.264971	-9.929294	3.524041	-0.825439	0.145996	0.356689
1217.0	23.567157	7.542066	9.533384	1.506347	-9.955777	3.506547	-0.787598	0.176758	0.426514
1218.0	28.0092	9.71318	9.869569	-0.307104	-8.75819	3.81331	-0.742676	0.196533	0.478516
1219.0	26.306938	6.448387	12.75225	-0.909906	-7.028353	3.943244	-0.700195	0.220703	0.537354
1220.0	19.16304	6.886375	14.273607	0.330384	-6.206927	3.856255	-0.655762	0.249268	0.561768
1221.0	9.434857	13.936405	19.578248	0.006759	-5.181991	4.023606	-0.610596	0.266846	0.595459
1222.0	5.392426	17.372353	28.150797	-2.450492	-3.877785	4.065105	-0.584961	0.277832	0.618164
1223.0	-1.854136	6.211116	19.34205	-5.01048	-0.740701	4.105893	-0.56665	0.258301	0.634521
1224.0	13.795753	1.694828	-11.200991	-3.365815	-6.304962	3.561523	-0.520752	0.258545	0.673096
1225.0	34.171577	-7.276318	35.133251	-0.83711	0.655935	0.913193	-0.542969	0.26709	0.656982
1226.0	17.29395	3.06952	20.378947	6.115204	3.572292	-1.053492	-0.575439	0.308594	0.601563
1227.0	1.455905	13.848166	12.776754	5.585196	6.283802	-1.565543	-0.619385	0.317139	0.56958
1228.0	-3.211626	15.5826	7.770583	1.606071	4.977065	-1.009246	-0.647949	0.319092	0.530762
1229.0	0.842602	9.516148	8.447458	-1.219211	4.730617	-0.364351	-0.676025	0.3125	0.510498
1230.0	0.820326	4.422453	4.572132	-0.389288	4.963956	-0.020926	-0.699707	0.308105	0.47168
1231.0	1.370085	4.414214	5.430145	0.361819	5.036405	-0.111305	-0.728027	0.308105	0.4375
1232.0	3.664923	4.411475	5.181777	0.126219	5.148479	-0.414839	-0.751953	0.303711	0.401367
1233.0	4.228112	4.0121	4.875321	0.524536	5.455747	-0.801202	-0.778076	0.303467	0.355713
1234.0	4.886565	3.985528	5.512524	0.835359	5.582689	-1.273008	-0.803711	0.29248	0.312744
1235.0	5.612488	3.698017	5.788661	1.012976	5.731067	-1.757326	-0.820557	0.277344	0.260498
1236.0	5.804412	3.880631	5.676593	1.240903	5.824105	-2.16761	-0.841553	0.261963	0.215332
1237.0	6.051997	4.039829	5.735799	1.189836	5.772654	-2.455059	-0.864746	0.242432	0.161133
1238.0	6.707588	3.665683	6.375417	1.101564	5.6876	-2.618391	-0.878906	0.218506	0.109131
1239.0	7.830175	2.998649	7.418874	0.997618	5.587786	-2.707801	-0.880371	0.198975	0.066162
1240.0	9.262261	1.785068	8.164559	0.896348	5.550083	-2.736019	-0.894775	0.179199	0.018799
1241.0	10.502768	0.359441	8.994666	1.063891	5.55083	-2.724601	-0.899902	0.148682	-0.033203
1242.0	12.316353	-0.228283	9.890891	1.645656	5.558624	-2.60844	-0.894531	0.127197	-0.075928
1243.0	14.72878	-0.835894	10.97116	2.18218	5.43344	-2.31758	-0.891113	0.098877	-0.132324
1244.0	16.097727	-3.14104	10.081964	2.23336	5.430289	-2.208928	-0.883789	0.081543	-0.175293
1245.0	15.394788	-2.421519	9.181075	3.796306	5.457846	-2.281307	-0.873535	0.049072	-0.222656
1246.0	15.744547	1.399143	9.785268	4.367769	5.355295	-2.391994	-0.863525	0.018555	-0.267578
1247.0	16.214301	2.994367	10.169459	3.681138	5.090049	-2.517742	-0.851318	-0.011719	-0.30127
1248.0	16.451038	2.630313	9.414312	3.186791	4.70788	-2.714254	-0.828369	-0.0354	-0.3396
1249.0	16.486012	3.094108	9.31225	2.946879	4.212361	-2.961658	-0.811035	-0.083252	-0.365967
1250.0	16.150932	2.437414	9.828804	2.356861	3.483431	-3.190382	-0.794434	-0.115967	-0.388184
1251.0	17.155877	-1.133182	8.48797	1.781861	2.556763	-3.442788	-0.781738	-0.150635	-0.401123
1252.0	21.227338	-3.110575	8.117784	2.226744	2.070897	-3.775797	-0.765137	-0.185547	-0.409668
1253.0	23.292889	-1.511953	7.031476	3.09737	1.855403	-3.993544	-0.752197	-0.229004	-0.41333
1254.0	24.559957	0.561044	6.878847	2.823275	1.658923	-4.015233	-0.731201	-0.261719	-0.419434
1255.0	25.479324	0.204774	5.800304	2.105881	1.568839	-3.957471	-0.709717	-0.302979	-0.418701
1256.0	26.63536	0.556556	3.533988	1.837849	1.511972	-3.827021	-0.697754	-0.326904	-0.431885
1257.0	28.243506	-0.462499	0.873218	0.950332	1.415329	-3.544943	-0.678955	-0.357422	-0.431396
1258.0	35.541426	-6.816645	-0.08238	-0.991624	0.648062	-3.325882	-0.661133	-0.36377	-0.447266
1259.0	38.990881	-13.478148	-13.550956	-1.95231	0.041699	-3.294941	-0.647217	-0.378906	-0.449219
1260.0	35.63553	-14.921788	-27.100849	-0.70802	1.148955	-2.201405	-0.627441	-0.385254	-0.471924
1261.0	22.868848	-10.889988	-20.643244	0.97414	4.230572	-0.52754	-0.611816	-0.391602	-0.487793
1262.0	7.625395	-8.106838	-1.911189	0.770253	4.648752	0.84824	-0.599365	-0.380615	-0.506104
1263.0	-13.840402	2.709403	4.314589	-1.1371	-1.497225	2.419196	-0.628418	-0.365479	-0.497314
1264.0	-17.279222	3.302486	2.779675	-2.165416	-3.912348	3.680105	-0.676025	-0.322266	-0.470703
1265.0	0.47172	4.152381	-7.024437	-5.544603	-6.409543	4.179207	-0.721924	-0.272461	-0.458008
1266.0	8.362024	12.439434	9.822663	-3.199886	-2.698697	4.598339	-0.754883	-0.220215	-0.449951
1267.0	6.374274	9.546403	36.19377	-6.631923	-3.526028	4.207097	-0.783447	-0.161621	-0.439697
1268.0	15.669833	-12.23577	3.933297	-10.821476	-4.836906	3.576985	-0.809082	-0.081055	-0.425293
1269.0	13.337737	-39.63159	3.339026	-4.076246	-3.493238	0.928353	-0.826172	-0.085449	-0.388672
1270.0	17.876928	-1.98694	17.97524	10.659567	-3.67308	0.492757	-0.845947	-0.129395	-0.351318
1271.0	32.847986	31.215769	37.853316	3.349234	-3.261956	2.626529	-0.863037	-0.092529	-0.324707
1272.0	36.082566	-7.268095	0.429134	-16.420964	-2.124983	0.094599	-0.861328	-0.033447	-0.346436
1273.0	1.667883	-30.508082	-9.303013	-2.624209	4.190764	1.113449	-0.849854	-0.046387	-0.368896
1274.0	-14.366615	5.85544	18.955969	12.57981	-0.175697	-0.476272	-0.858643	-0.090332	-0.345215
1275.0	10.084003	32.064564	17.770413	3.469124	-1.467327	0.40321	-0.856934	-0.08374	-0.343018
1276.0	14.856363	3.618599	6.066614	-13.092367	-0.748156	0.081657	-0.85498	-0.029053	-0.351074
1277.0	3.62845	-20.907649	-1.469221	-5.398852	0.35606	0.072686	-0.856689	-0.037842	-0.346191
1278.0	5.009403	-2.991991	1.253224	9.247181	0.223171	-0.258122	-0.859863	-0.063965	-0.350342
1279.0	6.780857	16.455007	19.407194	3.716751	0.743133	-0.036061	-0.851074	-0.063965	-0.357178
1280.0	3.340737	6.382258	9.645844	-5.422302	-0.593685	-0.042261	-0.856445	-0.044434	-0.346191
1281.0	6.822065	-6.231529	3.846918	-3.378532	-0.23501	0.007213	-0.86084	-0.042236	-0.35083
1282.0	4.927909	-2.970372	4.810288	2.985775	0.275822	-0.10455	-0.85376	-0.055176	-0.359619
1283.0	4.797731	7.063033	12.010927	2.587435	0.288173	-0.032952	-0.857666	-0.066162	-0.350342
1284.0	4.894289	5.38833	10.231004	-1.860171	-0.193451	0.002238	-0.855957	-0.052979	-0.350586
1285.0	5.963439	-1.489684	6.371357	-1.791481	-0.159748	0.004416	-0.86084	-0.044434	-0.357422
1286.0	5.410919	-0.389244	7.290162	0.83525	0.091368	-0.033635	-0.854248	-0.044434	-0.348389
1287.0	5.062075	3.63325	9.899138	0.598267	0.009412	-0.026255	-0.862549	-0.053223	-0.35498
1288.0	5.3474	1.758925	8.594826	-0.71378	-0.125702	-0.026428	-0.858643	-0.044434	-0.353027
1289.0	5.377366	0.42323	7.658174	0.052205	-0.101177	-0.04402	-0.862305	-0.057617	-0.348145
1290.0	5.542651	2.397581	8.530286	0.359767	-0.078379	-0.051354	-0.856201	-0.046631	-0.346191
1291.0	5.393354	1.842901	8.428086	-0.151745	-0.090381	-0.033905	-0.85791	-0.05957	-0.350342
1292.0	5.463082	1.18809	8.048972	0.098856	-0.078492	-0.047209	-0.858398	-0.046631	-0.348389
1293.0	5.431799	1.922347	8.496021	0.135039	-0.071347	-0.048199	-0.860352	-0.051025	-0.348389
1294.0	5.477139	1.688071	8.0916	0.032383	-0.061715	-0.047855	-0.85791	-0.057373	-0.341309
1295.0	5.457678	1.957558	8.26696	0.095651	-0.045522	-0.038173	-0.860107	-0.05957	-0.345703
1296.0	5.530382	1.943679	8.187467	-0.034123	-0.014293	-0.027945	-0.855957	-0.053223	-0.341309
1297.0	5.476788	1.82769	8.250727	-0.057474	0.007099	-0.020713	-0.864502	-0.057617	-0.345947
1298.0	5.409886	1.804883	8.281947	-0.121515	0.023011	-0.016172	-0.855957	-0.052979	-0.350586
1299.0	5.343091	1.728771	8.226498	-0.163305	0.027756	-0.01497	-0.849365	-0.057373	-0.345947
1300.0	5.229512	1.7652	8.256264	-0.188212	0.027135	-0.011843	-0.854004	-0.046631	-0.34375
1301.0	5.198953	1.854216	8.257063	-0.218478	0.018539	-0.006869	-0.862549	-0.053223	-0.345947
1302.0	5.300852	1.772351	8.31698	-0.295637	0.01097	0.003854	-0.864746	-0.051025	-0.345947
1303.0	5.282697	1.615433	8.264977	-0.314214	-0.020115	0.003758	-0.862549	-0.053223	-0.345947
1304.0	5.599719	1.280249	8.205237	-0.240151	0.020854	0.000767	-0.858643	-0.044434	-0.350586
1305.0	5.087428	1.32665	8.471488	-0.126828	-0.018335	-0.016383	-0.858398	-0.051025	-0.352783
1306.0	5.272122	1.514555	8.443165	-0.084102	-0.025644	-0.01968	-0.862793	-0.048828	-0.350586
1307.0	5.305227	1.618479	8.431447	-0.08173	-0.044064	-0.022285	-0.862793	-0.048828	-0.345947
1308.0	5.397166	1.633111	8.352658	-0.118309	-0.05391	-0.017284	-0.862793	-0.046631	-0.348389
1309.0	5.379138	1.618851	8.341759	-0.098134	-0.028662	-0.011796	-0.862549	-0.051025	-0.341553
1310.0	5.395223	1.604745	8.431859	-0.115338	-0.038237	-0.006211	-0.86084	-0.040039	-0.337158
1311.0	5.387115	1.569579	8.411898	-0.109873	-0.032134	-0.00685	-0.860596	-0.048828	-0.345947
1312.0	5.306316	1.507105	8.49959	-0.075089	-0.045508	-0.005161	-0.860596	-0.046631	-0.348389
1313.0	5.326661	1.44945	8.438714	-0.036992	-0.065258	-0.014257	-0.867188	-0.048828	-0.34375
1314.0	5.166573	1.524712	8.788809	0.031298	-0.085241	-0.019195	-0.858643	-0.044434	-0.346191
1315.0	5.166111	1.334145	8.744311	0.062615	-0.152913	-0.030614	-0.862793	-0.048828	-0.334717
1316.0	5.301756	1.52424	8.554292	0.205502	-0.187765	-0.036535	-0.86499	-0.046631	-0.339355
1317.0	5.235692	1.537459	8.717629	0.235425	-0.237565	-0.042065	-0.862549	-0.051025	-0.339111
1318.0	5.278598	1.521823	8.621495	0.306749	-0.269593	-0.035217	-0.864746	-0.051025	-0.339111
1319.0	4.95339	1.284559	8.799818	0.474855	-0.360752	-0.017274	-0.864746	-0.05542	-0.329834
1320.0	5.153521	1.51704	8.249302	0.798576	-0.444147	-0.007995	-0.866943	-0.053223	-0.332275
1321.0	4.363138	1.499677	9.176269	0.951843	-0.603239	0.021651	-0.873047	-0.059814	-0.320801
1322.0	4.066337	1.591747	9.364391	0.724909	-0.704824	-0.059247	-0.873047	-0.062012	-0.318359
1323.0	4.994651	1.213206	7.820082	1.462468	-1.082727	-0.025638	-0.883545	-0.068604	-0.304688
1324.0	4.882695	3.262647	9.118666	1.571331	-1.12797	0.054418	-0.881592	-0.066406	-0.286377
