Acquisition frequency: 100 Hz
PacketCounter	Acc_X	Acc_Y	Acc_Z	Gyr_X	Gyr_Y	Gyr_Z	Mag_X	Mag_Y	Mag_Z
0.0	5.343268	0.8509	8.739193	-0.011217	0.007767	-0.012198	-0.629883	0.060059	-0.4646
1.0	5.362792	0.843381	8.728536	-0.0104	0.009349	-0.017679	-0.632324	0.064209	-0.462402
2.0	5.327169	0.881425	8.747424	-0.010398	0.00935	-0.017682	-0.63208	0.062012	-0.464844
3.0	5.326185	0.881347	8.748032	-0.010316	0.010034	-0.013426	-0.634521	0.066406	-0.460205
4.0	5.339458	0.850551	8.741555	-0.011377	0.009706	-0.015971	-0.634277	0.059814	-0.460205
5.0	5.332642	0.87307	8.7168	-0.011949	0.010853	-0.016999	-0.63208	0.057861	-0.4646
6.0	5.323211	0.880891	8.749887	-0.010226	0.007416	-0.013923	-0.632324	0.064209	-0.462402
7.0	5.363076	0.865786	8.728114	-0.014894	0.011917	-0.011858	-0.632324	0.064209	-0.460205
8.0	5.317442	0.825633	8.726873	-0.009326	0.009685	-0.01515	-0.634521	0.064209	-0.464844
9.0	5.340739	0.872828	8.74052	-0.010299	0.006737	-0.018188	-0.634521	0.064209	-0.460205
10.0	5.348301	0.865144	8.708575	-0.005399	0.011575	-0.017262	-0.634277	0.059814	-0.462402
11.0	5.320705	0.849507	8.724471	-0.008338	0.009334	-0.01687	-0.636475	0.062012	-0.462402
12.0	5.337795	0.873345	8.742267	-0.012834	0.008592	-0.01579	-0.636475	0.062012	-0.4646
13.0	5.316485	0.880453	8.75402	-0.010789	0.008567	-0.014962	-0.634521	0.066406	-0.462646
14.0	5.326567	0.84119	8.693634	-0.011847	0.008241	-0.01751	-0.634521	0.064209	-0.462402
15.0	5.355483	0.865648	8.732789	-0.009889	0.010838	-0.016189	-0.634277	0.059814	-0.467041
16.0	5.322235	0.87232	8.723234	-0.007111	0.007725	-0.010564	-0.632324	0.064209	-0.460205
17.0	5.327157	0.849631	8.749147	-0.010372	0.009365	-0.017712	-0.63208	0.062012	-0.462402
18.0	5.311874	0.879941	8.75687	-0.015851	0.008973	-0.014919	-0.634277	0.059814	-0.4646
19.0	5.343241	0.872885	8.767619	-0.011353	0.00972	-0.016001	-0.634521	0.064209	-0.462402
20.0	5.344972	0.887692	8.710368	-0.008897	0.010491	-0.017913	-0.63208	0.057861	-0.4646
21.0	5.364255	0.834376	8.729151	-0.011674	0.006304	-0.013755	-0.636719	0.066406	-0.462646
22.0	5.349342	0.910641	8.707403	-0.012333	0.010073	-0.014291	-0.63208	0.062012	-0.462402
23.0	5.348222	0.864358	8.737365	-0.011671	0.006306	-0.013758	-0.630127	0.064209	-0.462402
24.0	5.335524	0.86361	8.716561	-0.009304	0.0097	-0.015177	-0.634277	0.057617	-0.459961
25.0	5.314099	0.870899	8.728334	-0.010358	0.009375	-0.017727	-0.638428	0.057617	-0.4646
26.0	5.351736	0.887569	8.734899	-0.008068	0.004785	-0.013618	-0.632324	0.064209	-0.464844
27.0	5.298095	0.855377	8.765707	-0.012721	0.005983	-0.016314	-0.634277	0.062012	-0.462402
28.0	5.358947	0.879415	8.703268	-0.010768	0.00858	-0.014989	-0.63208	0.057861	-0.462402
29.0	5.299381	0.869734	8.708798	-0.013132	0.005186	-0.013574	-0.632324	0.064209	-0.460205
30.0	5.363427	0.856268	8.729486	-0.00969	0.005612	-0.017201	-0.634277	0.057861	-0.462402
31.0	5.336052	0.840244	8.745211	-0.009867	0.010854	-0.016216	-0.638916	0.064209	-0.467041
32.0	5.335465	0.886117	8.716355	-0.011088	0.005163	-0.012745	-0.632324	0.064209	-0.464844
33.0	5.328953	0.86236	8.720703	-0.01297	0.003241	-0.009809	-0.636475	0.062012	-0.462402
34.0	5.31968	0.869974	8.753637	-0.008305	0.00936	-0.016908	-0.634277	0.059814	-0.467041
35.0	5.327431	0.862249	8.721644	-0.009201	0.007089	-0.015687	-0.636719	0.066406	-0.462646
36.0	5.356429	0.886862	8.76075	-0.00716	0.007065	-0.014854	-0.632324	0.064209	-0.467041
37.0	5.340431	0.831936	8.715337	-0.009679	0.005618	-0.017213	-0.636475	0.062012	-0.457764
38.0	5.334566	0.894407	8.772736	-0.00617	0.006719	-0.016573	-0.634277	0.057861	-0.4646
39.0	5.324432	0.816984	8.752619	-0.005597	0.005571	-0.015545	-0.632324	0.064209	-0.458008
40.0	5.350548	0.879204	8.708455	-0.013182	0.004519	-0.017862	-0.634277	0.062012	-0.462402
41.0	5.3475	0.910238	8.737241	-0.006908	0.002499	-0.011581	-0.636475	0.062012	-0.460205
42.0	5.33744	0.832574	8.717108	-0.008296	0.009367	-0.01692	-0.632324	0.064209	-0.464844
43.0	5.348819	0.879185	8.709519	-0.010984	0.002547	-0.013256	-0.636719	0.064209	-0.462402
44.0	5.342251	0.855601	8.713879	-0.012217	0.007466	-0.014822	-0.634277	0.062012	-0.460205
45.0	5.347492	0.878809	8.710372	-0.009189	0.007096	-0.015703	-0.632324	0.066406	-0.467041
46.0	5.34651	0.832707	8.74019	-0.010747	0.008592	-0.015017	-0.634277	0.062012	-0.469238
47.0	5.369477	0.879892	8.754109	-0.008707	0.008569	-0.014182	-0.636719	0.064209	-0.460205
48.0	5.312374	0.839055	8.731137	-0.012304	0.010089	-0.014334	-0.634521	0.064209	-0.467041
49.0	5.349794	0.855342	8.737939	-0.014187	0.008161	-0.011398	-0.638672	0.059814	-0.457764
50.0	5.35493	0.878158	8.734541	-0.014816	0.008643	-0.016701	-0.632324	0.064209	-0.464844
51.0	5.315779	0.861186	8.728855	-0.008131	0.007424	-0.013158	-0.63208	0.059814	-0.460205
52.0	5.34728	0.854418	8.739568	-0.014813	0.008645	-0.016705	-0.634277	0.062012	-0.462402
53.0	5.346433	0.853991	8.740127	-0.013192	0.007818	-0.013122	-0.636719	0.066406	-0.464844
54.0	5.360155	0.86946	8.704243	-0.00885	0.010531	-0.017969	-0.632324	0.064209	-0.464844
55.0	5.350604	0.877175	8.73729	-0.012677	0.006004	-0.016368	-0.634521	0.066406	-0.460205
56.0	5.329467	0.883898	8.748876	-0.014084	0.005544	-0.011906	-0.629883	0.062256	-0.464844
57.0	5.369775	0.868887	8.727068	-0.01825	0.008212	-0.013092	-0.636719	0.068604	-0.462646
58.0	5.362961	0.845123	8.731575	-0.009739	0.00826	-0.016755	-0.63208	0.062012	-0.464844
59.0	5.329704	0.851621	8.721949	-0.011298	0.009755	-0.016071	-0.638916	0.064209	-0.464844
60.0	5.334667	0.874749	8.718641	-0.012287	0.0101	-0.014356	-0.634521	0.064209	-0.462402
61.0	5.333714	0.874397	8.71926	-0.014796	0.008654	-0.016726	-0.638672	0.059814	-0.462402
62.0	5.344633	0.828374	8.770374	-0.014645	0.006698	-0.012949	-0.636719	0.066406	-0.464844
63.0	5.317248	0.857959	8.756879	-0.010966	0.013187	-0.01833	-0.636719	0.064209	-0.462402
64.0	5.336823	0.850567	8.746332	-0.014072	0.005548	-0.011923	-0.632324	0.064209	-0.464844
65.0	5.365344	0.881315	8.67402	-0.015305	0.01047	-0.01349	-0.636475	0.062012	-0.457764
66.0	5.323146	0.84901	8.726207	-0.011856	0.010914	-0.017115	-0.636475	0.062012	-0.460205
67.0	5.33973	0.82691	8.773498	-0.006793	0.010527	-0.01715	-0.63208	0.062012	-0.460205
68.0	5.327068	0.919072	8.694322	-0.003196	0.009012	-0.016994	-0.636719	0.066406	-0.460205
69.0	5.331632	0.810845	8.666907	-0.017334	0.010495	-0.014343	-0.62793	0.064453	-0.464844
70.0	5.363198	0.889264	8.731141	-0.014926	0.010622	-0.020528	-0.629883	0.060059	-0.462402
71.0	5.309166	0.85656	8.761918	-0.00877	0.011214	-0.013723	-0.630127	0.064209	-0.467041
72.0	5.387659	0.85899	8.746508	-0.014059	0.005552	-0.01194	-0.634766	0.068604	-0.467041
73.0	5.310168	0.825108	8.734456	-0.008492	0.013988	-0.020256	-0.634521	0.066406	-0.462646
74.0	5.353274	0.865078	8.737577	-0.017651	0.007067	-0.012103	-0.638916	0.064209	-0.462402
75.0	5.334764	0.886854	8.691509	-0.009238	0.00975	-0.015258	-0.630127	0.064209	-0.460205
76.0	5.339564	0.817844	8.746554	-0.011838	0.010925	-0.017137	-0.63208	0.057861	-0.459961
77.0	5.323818	0.848134	8.754491	-0.011837	0.010926	-0.01714	-0.634277	0.062012	-0.462402
78.0	5.328775	0.871308	8.751207	-0.012161	0.007495	-0.014889	-0.634277	0.057861	-0.469238
79.0	5.336754	0.863902	8.719163	-0.003651	0.00756	-0.018539	-0.63208	0.059814	-0.460205
80.0	5.341734	0.841442	8.744933	-0.009231	0.009754	-0.015267	-0.634521	0.064209	-0.467041
81.0	5.33508	0.864109	8.720167	-0.01102	0.005193	-0.012829	-0.636719	0.064209	-0.462402
82.0	5.346037	0.864729	8.742042	-0.00781	0.010229	-0.019738	-0.638916	0.064209	-0.462402
83.0	5.345012	0.864921	8.74265	-0.009227	0.009756	-0.015272	-0.634521	0.066406	-0.464844
84.0	5.361628	0.849698	8.678234	-0.011257	0.00978	-0.016121	-0.634521	0.064209	-0.460205
85.0	5.337144	0.841272	8.747751	-0.01225	0.010119	-0.014406	-0.636719	0.066406	-0.467041
86.0	5.330145	0.863851	8.72321	-0.011353	0.012402	-0.015627	-0.632324	0.066406	-0.464844
87.0	5.361455	0.811177	8.763207	-0.00969	0.008292	-0.016811	-0.632324	0.066406	-0.464844
88.0	5.334273	0.840848	8.749543	-0.009973	0.005512	-0.010277	-0.63623	0.057617	-0.466797
89.0	5.348285	0.856379	8.713624	-0.012145	0.007502	-0.014911	-0.634766	0.068604	-0.464844
90.0	5.350289	0.86456	8.768088	-0.007795	0.01024	-0.019753	-0.632324	0.066406	-0.460205
91.0	5.361188	0.826371	8.707427	-0.008121	0.006806	-0.017502	-0.640869	0.062012	-0.462402
92.0	5.325176	0.863784	8.726251	-0.010577	0.006014	-0.0156	-0.629883	0.060059	-0.460205
93.0	5.324412	0.863764	8.726719	-0.009681	0.008298	-0.016822	-0.638916	0.064209	-0.462402
94.0	5.33844	0.833316	8.719877	-0.012037	0.004884	-0.015419	-0.634277	0.062012	-0.462402
95.0	5.322885	0.863746	8.727652	-0.007788	0.010247	-0.019763	-0.638916	0.064209	-0.458008
96.0	5.374904	0.850634	8.727348	-0.010143	0.006833	-0.01836	-0.636475	0.059814	-0.469238
97.0	5.341921	0.857088	8.717457	-0.007972	0.004843	-0.013725	-0.630127	0.066406	-0.460205
98.0	5.341113	0.857207	8.717941	-0.008779	0.010586	-0.01805	-0.627686	0.060059	-0.462402
99.0	5.340078	0.857248	8.718571	-0.011236	0.009792	-0.01615	-0.632568	0.068604	-0.464844
100.0	5.344902	0.880442	8.715388	-0.01223	0.010129	-0.014434	-0.632324	0.064209	-0.464844
101.0	5.332258	0.833433	8.723648	-0.011232	0.009794	-0.016154	-0.636475	0.062012	-0.4646
102.0	5.339945	0.864806	8.774368	-0.012263	0.009481	-0.018725	-0.63208	0.059814	-0.457764
103.0	5.321352	0.886885	8.728349	-0.011658	0.008978	-0.013405	-0.634277	0.062012	-0.462402
104.0	5.36756	0.850261	8.731903	-0.008237	0.008793	-0.021314	-0.636719	0.066406	-0.458008
105.0	5.313632	0.863591	8.733304	-0.012223	0.010132	-0.014444	-0.632324	0.064209	-0.462402
106.0	5.359836	0.826737	8.736891	-0.011689	0.008332	-0.017699	-0.636475	0.059814	-0.467041
107.0	5.338164	0.879804	8.719581	-0.011223	0.0098	-0.016166	-0.634521	0.066406	-0.469482
108.0	5.331491	0.856384	8.723909	-0.010121	0.006847	-0.018386	-0.632324	0.064209	-0.467041
109.0	5.342341	0.857029	8.745842	-0.010222	0.009468	-0.017889	-0.636475	0.059814	-0.467041
110.0	5.356156	0.872911	8.71009	-0.013143	0.007203	-0.017525	-0.629883	0.062012	-0.462402
111.0	5.319981	0.863403	8.758053	-0.013644	0.009649	-0.009983	-0.632324	0.064209	-0.464844
112.0	5.339751	0.856079	8.747517	-0.013139	0.007206	-0.017529	-0.634277	0.062012	-0.462402
113.0	5.353594	0.82551	8.740834	-0.012315	0.012759	-0.01396	-0.636719	0.064209	-0.462402
114.0	5.332012	0.832088	8.752541	-0.011539	0.006365	-0.013925	-0.634277	0.059814	-0.4646
115.0	5.348651	0.855809	8.770727	-0.013237	0.009829	-0.017036	-0.629883	0.062256	-0.464844
116.0	5.344827	0.847712	8.717448	-0.009748	0.010943	-0.016366	-0.636475	0.062012	-0.460205
117.0	5.308507	0.83861	8.765414	-0.009641	0.008324	-0.016868	-0.636719	0.064209	-0.458008
118.0	5.339867	0.878831	8.747268	-0.007076	0.006506	-0.01927	-0.630127	0.064209	-0.458008
119.0	5.336475	0.824623	8.72276	-0.011637	0.008989	-0.013434	-0.634521	0.064209	-0.469238
120.0	5.320648	0.854757	8.730686	-0.009176	0.009792	-0.015337	-0.634277	0.059814	-0.460205
121.0	5.337331	0.878795	8.748819	-0.008964	0.004552	-0.016338	-0.632324	0.064209	-0.460205
122.0	5.342504	0.85591	8.774463	-0.0112	0.009814	-0.016196	-0.634277	0.059814	-0.4646
123.0	5.350636	0.848481	8.742456	-0.008501	0.006019	-0.014804	-0.634766	0.068604	-0.460205
124.0	5.343919	0.871322	8.717762	-0.010631	0.008661	-0.015162	-0.63208	0.062012	-0.464844
125.0	5.331619	0.824424	8.725748	-0.009064	0.007176	-0.015845	-0.630127	0.064209	-0.460205
126.0	5.353958	0.871884	8.740199	-0.008603	0.008642	-0.014309	-0.63208	0.059814	-0.460205
127.0	5.320839	0.878022	8.730343	-0.011521	0.006373	-0.013948	-0.634521	0.064209	-0.467041
128.0	5.329325	0.824276	8.727164	-0.01111	0.00656	-0.021002	-0.634277	0.062012	-0.464844
129.0	5.325426	0.855175	8.756334	-0.007927	0.004869	-0.013776	-0.636719	0.064209	-0.462402
130.0	5.371766	0.865121	8.73086	-0.007598	0.008315	-0.016034	-0.638916	0.068604	-0.47168
131.0	5.336163	0.817255	8.695929	-0.009056	0.007181	-0.015855	-0.638916	0.064209	-0.462402
132.0	5.343827	0.848909	8.746579	-0.005028	0.006503	-0.018437	-0.632324	0.066406	-0.460205
133.0	5.354607	0.896026	8.739508	-0.009947	0.004891	-0.01464	-0.629883	0.060059	-0.462402
134.0	5.298398	0.854711	8.715637	-0.011184	0.009823	-0.016217	-0.634521	0.066406	-0.464844
135.0	5.329822	0.848635	8.72654	-0.007613	0.007683	-0.020339	-0.638672	0.059814	-0.460205
136.0	5.340677	0.849275	8.748467	-0.012075	0.007533	-0.015003	-0.632324	0.064209	-0.460205
137.0	5.345585	0.872469	8.745264	-0.012073	0.007534	-0.015005	-0.634521	0.064209	-0.460205
138.0	5.344814	0.872461	8.745736	-0.008044	0.006859	-0.017586	-0.636475	0.062012	-0.460205
139.0	5.347381	0.841835	8.717374	-0.009045	0.007188	-0.015869	-0.630127	0.064209	-0.460205
140.0	5.314223	0.848102	8.7075	-0.009609	0.008345	-0.016909	-0.632324	0.064209	-0.462402
141.0	5.368773	0.889427	8.732409	-0.009042	0.007189	-0.015872	-0.638672	0.059814	-0.4646
142.0	5.315385	0.856008	8.762351	-0.009934	0.004897	-0.014655	-0.629883	0.057861	-0.4646
143.0	5.323586	0.848671	8.730342	-0.009714	0.010967	-0.016413	-0.636475	0.062012	-0.462402
144.0	5.322746	0.84842	8.730879	-0.01498	0.005265	-0.01466	-0.636475	0.059814	-0.4646
145.0	5.342763	0.841447	8.720242	-0.009037	0.007193	-0.015879	-0.630127	0.064209	-0.464844
146.0	5.359326	0.865611	8.738453	-0.008032	0.006868	-0.0176	-0.634521	0.066406	-0.462646
147.0	5.326227	0.872027	8.728512	-0.008031	0.006869	-0.017602	-0.636719	0.066406	-0.462646
148.0	5.357758	0.866007	8.739375	-0.009597	0.008352	-0.016924	-0.63208	0.057861	-0.471436
149.0	5.339644	0.842143	8.722085	-0.008028	0.00687	-0.017606	-0.627686	0.060059	-0.462402
150.0	5.318283	0.848782	8.733563	-0.012949	0.005247	-0.013811	-0.629883	0.057861	-0.4646
151.0	5.35545	0.866062	8.740785	-0.006678	0.01063	-0.017285	-0.634766	0.068604	-0.462646
152.0	5.31654	0.848972	8.734605	-0.010045	0.006893	-0.018473	-0.63208	0.057861	-0.4646
153.0	5.33639	0.842537	8.724039	-0.008146	0.008864	-0.021414	-0.634521	0.066406	-0.460205
154.0	5.352907	0.866713	8.742277	-0.0089	0.005211	-0.012094	-0.634277	0.062012	-0.462402
155.0	5.32324	0.842259	8.703483	-0.007126	0.009172	-0.018835	-0.63208	0.062012	-0.462402
156.0	5.330559	0.873662	8.754312	-0.010026	0.007526	-0.014178	-0.627686	0.057861	-0.462402
157.0	5.342316	0.835614	8.693422	-0.011041	0.007221	-0.016763	-0.63208	0.062012	-0.458008
158.0	5.317422	0.872934	8.733788	-0.010475	0.006065	-0.015724	-0.632324	0.066406	-0.464844
159.0	5.322565	0.850164	8.759411	-0.007684	0.010334	-0.019883	-0.636475	0.059814	-0.462402
160.0	5.357584	0.81356	8.741418	-0.007888	0.00489	-0.013823	-0.634521	0.064209	-0.464844
161.0	5.368055	0.860764	8.734562	-0.008132	0.008874	-0.02143	-0.63208	0.057861	-0.462402
162.0	5.346683	0.8676	8.745997	-0.008778	0.002595	-0.012608	-0.632324	0.064209	-0.467041
163.0	5.349686	0.836888	8.717428	-0.008448	0.00605	-0.014868	-0.634521	0.064209	-0.460205
164.0	5.348917	0.836863	8.717902	-0.010581	0.008689	-0.015232	-0.634277	0.057861	-0.462402
165.0	5.36531	0.860881	8.736237	-0.00901	0.007209	-0.015913	-0.63208	0.062012	-0.462402
166.0	5.326658	0.843574	8.729884	-0.009458	0.005748	-0.017459	-0.636475	0.059814	-0.462402
167.0	5.343215	0.867719	8.748105	-0.009457	0.005749	-0.017461	-0.634521	0.064209	-0.460205
168.0	5.342501	0.867779	8.748535	-0.007993	0.007516	-0.013331	-0.638672	0.062012	-0.469238
169.0	5.345259	0.836987	8.720133	-0.01203	0.007552	-0.015064	-0.634277	0.059814	-0.4646
170.0	5.329331	0.867106	8.728029	-0.007997	0.006892	-0.017642	-0.63208	0.059814	-0.457764
171.0	5.364422	0.830524	8.710037	-0.009565	0.008372	-0.016965	-0.632324	0.066406	-0.464844
172.0	5.339309	0.86797	8.750464	-0.007993	0.006894	-0.017646	-0.636719	0.064209	-0.460205
173.0	5.347732	0.860888	8.718375	-0.010454	0.006075	-0.015751	-0.630127	0.066406	-0.462646
174.0	5.326098	0.867416	8.729971	-0.011695	0.011013	-0.017334	-0.638916	0.066406	-0.460205
175.0	5.331149	0.844457	8.755661	-0.009559	0.008376	-0.016973	-0.636475	0.062012	-0.460205
176.0	5.32437	0.867176	8.73105	-0.01493	0.005275	-0.014728	-0.634277	0.062012	-0.458008
177.0	5.339001	0.836847	8.723979	-0.007867	0.004903	-0.013848	-0.632324	0.066406	-0.462646
178.0	5.343804	0.860659	8.720805	-0.006085	0.00888	-0.020596	-0.636475	0.062012	-0.462402
179.0	5.339287	0.891776	8.75023	-0.006528	0.008043	-0.017833	-0.638672	0.062012	-0.462402
180.0	5.359687	0.838966	8.76837	-0.009552	0.008381	-0.016982	-0.636475	0.062012	-0.457764
181.0	5.332047	0.868565	8.754832	-0.008988	0.007223	-0.015941	-0.63208	0.062012	-0.455566
182.0	5.328803	0.861043	8.701321	-0.008541	0.008063	-0.018707	-0.630127	0.066406	-0.458008
183.0	5.360385	0.855005	8.71224	-0.010439	0.006704	-0.011457	-0.63208	0.062012	-0.460205
184.0	5.327195	0.860888	8.702321	-0.009101	0.009845	-0.015441	-0.632324	0.064209	-0.464844
185.0	5.337805	0.86165	8.72438	-0.007082	0.009209	-0.018887	-0.636475	0.062012	-0.467041
186.0	5.316165	0.868369	8.73593	-0.010997	0.007244	-0.016819	-0.636475	0.062012	-0.467041
187.0	5.326968	0.86883	8.757898	-0.009988	0.007546	-0.014229	-0.634277	0.062012	-0.464844
188.0	5.356149	0.855093	8.714837	-0.010994	0.007246	-0.016823	-0.638672	0.062012	-0.457764
189.0	5.308214	0.844742	8.740999	-0.008085	0.009532	-0.017172	-0.636475	0.062012	-0.460205
190.0	5.333555	0.861677	8.726977	-0.011556	0.009026	-0.013556	-0.632324	0.064209	-0.460205
191.0	5.347954	0.831701	8.720046	-0.007516	0.007756	-0.020447	-0.636719	0.066406	-0.460205
192.0	5.346571	0.878467	8.691895	-0.009978	0.006932	-0.018554	-0.632324	0.064209	-0.467041
193.0	5.340199	0.855028	8.695988	-0.009089	0.009853	-0.015457	-0.632324	0.066406	-0.462646
194.0	5.341667	0.862547	8.750549	-0.011994	0.007568	-0.015113	-0.636475	0.062012	-0.4646
195.0	5.359371	0.848263	8.685981	-0.01042	0.006092	-0.015793	-0.630371	0.068604	-0.460205
196.0	5.334739	0.838958	8.75499	-0.007955	0.00692	-0.01769	-0.638672	0.059814	-0.4646
197.0	5.348684	0.85561	8.71937	-0.009969	0.006937	-0.018564	-0.636475	0.062012	-0.457764
198.0	5.311821	0.892416	8.738297	-0.006942	0.006606	-0.019416	-0.634277	0.059814	-0.4646
199.0	5.326328	0.862666	8.731292	-0.010528	0.008099	-0.019613	-0.634277	0.059814	-0.4646
200.0	5.325603	0.862576	8.731743	-0.009858	0.00555	-0.010439	-0.640869	0.059814	-0.4646
201.0	5.357301	0.856701	8.742618	-0.006937	0.006609	-0.019421	-0.638916	0.064209	-0.460205
202.0	5.350564	0.880044	8.717938	-0.007826	0.004306	-0.018206	-0.632324	0.064209	-0.467041
203.0	5.356005	0.857155	8.743368	-0.009968	0.007557	-0.014257	-0.634521	0.064209	-0.467041
204.0	5.308173	0.846617	8.769401	-0.006941	0.007226	-0.015107	-0.640869	0.062012	-0.467041
205.0	5.359924	0.88099	8.740744	-0.008945	0.00663	-0.020302	-0.634521	0.064209	-0.464844
206.0	5.336784	0.833734	8.726693	-0.006367	0.005455	-0.018385	-0.630127	0.064209	-0.467041
207.0	5.332201	0.864355	8.756142	-0.011538	0.009034	-0.013586	-0.632568	0.068604	-0.460205
208.0	5.34597	0.881068	8.720652	-0.00302	0.009205	-0.01718	-0.634277	0.062012	-0.469238
209.0	5.339663	0.857764	8.724686	-0.012976	0.007278	-0.017739	-0.630127	0.066406	-0.462646
210.0	5.344315	0.881249	8.721648	-0.008947	0.007247	-0.015992	-0.630127	0.064209	-0.460205
211.0	5.332633	0.834243	8.729181	-0.009507	0.008409	-0.01704	-0.638672	0.062012	-0.457764
212.0	5.337292	0.857884	8.726124	-0.009383	0.00579	-0.017548	-0.634277	0.062012	-0.462402
213.0	5.35354	0.882101	8.744543	-0.009943	0.006952	-0.018596	-0.634277	0.062012	-0.460205
214.0	5.345153	0.851146	8.694456	-0.00938	0.005792	-0.017551	-0.63208	0.062012	-0.464844
215.0	5.346737	0.858589	8.748898	-0.010406	0.006716	-0.011507	-0.634766	0.068604	-0.458008
216.0	5.355198	0.851669	8.716885	-0.007036	0.009247	-0.018943	-0.634277	0.059814	-0.4646
217.0	5.354131	0.852232	8.717485	-0.005131	0.011243	-0.021886	-0.634521	0.064209	-0.464844
218.0	5.370205	0.876729	8.735986	-0.007814	0.004931	-0.013912	-0.632324	0.064209	-0.464844
219.0	5.331728	0.859107	8.729405	-0.009496	0.008416	-0.017055	-0.636475	0.059814	-0.4646
220.0	5.347824	0.883315	8.747918	-0.009931	0.006959	-0.01861	-0.634521	0.064209	-0.462402
221.0	5.330079	0.859312	8.730392	-0.009493	0.008418	-0.017059	-0.630127	0.064209	-0.460205
222.0	5.372972	0.854086	8.763026	-0.009616	0.011038	-0.016554	-0.638916	0.064209	-0.464844
223.0	5.360554	0.853437	8.742068	-0.011394	0.006422	-0.014122	-0.634277	0.062012	-0.462402
224.0	5.327475	0.859344	8.731978	-0.005901	0.006933	-0.016863	-0.634277	0.059814	-0.460205
225.0	5.326814	0.859411	8.732375	-0.010831	0.005261	-0.013077	-0.636475	0.062012	-0.462402
226.0	5.325991	0.859553	8.732862	-0.00557	0.010406	-0.019131	-0.63208	0.062012	-0.462402
227.0	5.336529	0.860412	8.754949	-0.009484	0.008423	-0.01707	-0.63208	0.062012	-0.460205
228.0	5.350345	0.877136	8.719493	-0.009483	0.008424	-0.017072	-0.636719	0.066406	-0.464844
229.0	5.34946	0.877223	8.720027	-0.009481	0.008425	-0.017074	-0.634521	0.064209	-0.462402
230.0	5.343113	0.853816	8.724088	-0.00859	0.010736	-0.018293	-0.634277	0.062012	-0.458008
231.0	5.359088	0.877955	8.742687	-0.012377	0.006131	-0.01674	-0.634766	0.068604	-0.462646
232.0	5.330006	0.85336	8.703533	-0.004896	0.007237	-0.014272	-0.634277	0.059814	-0.467041
233.0	5.345985	0.877694	8.722111	-0.010035	0.009591	-0.01813	-0.629883	0.062012	-0.458008
234.0	5.339752	0.854121	8.726115	-0.009929	0.007576	-0.01431	-0.638916	0.064209	-0.460205
235.0	5.345088	0.831183	8.751597	-0.008455	0.008122	-0.01881	-0.629883	0.060059	-0.4646
236.0	5.351724	0.917995	8.662817	-0.001663	0.013011	-0.01688	-0.634277	0.062012	-0.462402
237.0	5.327234	0.760766	8.763058	-0.0232	0.001877	-0.016118	-0.632324	0.064209	-0.462402
238.0	5.282533	0.957929	8.837331	-0.009035	0.009891	-0.015534	-0.634277	0.062012	-0.462402
239.0	5.324118	0.853863	8.707087	0.002717	0.005731	-0.012312	-0.634277	0.062012	-0.460205
240.0	5.369227	0.81115	8.656455	-0.012923	0.0073	-0.017808	-0.634521	0.064209	-0.464844
241.0	5.355097	0.848097	8.718492	-0.013836	0.00559	-0.012262	-0.636719	0.066406	-0.462646
242.0	5.317838	0.884438	8.737495	-0.002521	0.010107	-0.020001	-0.632324	0.064209	-0.462402
243.0	5.370172	0.873002	8.737573	-0.005874	0.006954	-0.016893	-0.630371	0.068604	-0.460205
244.0	5.341071	0.848495	8.698423	-0.011467	0.008452	-0.017984	-0.634277	0.062012	-0.462402
245.0	5.35167	0.849074	8.7205	-0.009457	0.00844	-0.017104	-0.634766	0.068604	-0.458008
246.0	5.335157	0.879167	8.72859	-0.005999	0.009577	-0.01639	-0.63208	0.062256	-0.47168
247.0	5.346692	0.833158	8.779026	-0.011361	0.006435	-0.014166	-0.630371	0.068604	-0.462646
248.0	5.337702	0.848602	8.70048	-0.012909	0.007306	-0.017826	-0.634521	0.066406	-0.467041
249.0	5.332684	0.878925	8.730125	-0.008032	0.010192	-0.012945	-0.634277	0.062012	-0.460205
250.0	5.358768	0.849723	8.744718	-0.008001	0.009595	-0.01728	-0.63208	0.062012	-0.464844
251.0	5.34227	0.879643	8.752804	-0.009907	0.007587	-0.01434	-0.634277	0.062012	-0.458008
252.0	5.303848	0.861843	8.746103	-0.007868	0.006977	-0.017792	-0.63208	0.057861	-0.459961
253.0	5.350209	0.873173	8.721171	-0.007308	0.005815	-0.016743	-0.634277	0.059814	-0.457764
254.0	5.338139	0.872813	8.699975	-0.008754	0.004665	-0.016578	-0.636475	0.062012	-0.455566
255.0	5.37083	0.820578	8.739282	-0.008325	0.006121	-0.01502	-0.636475	0.059814	-0.462402
256.0	5.348177	0.873707	8.722363	-0.006974	0.009296	-0.019016	-0.63623	0.057617	-0.457764
257.0	5.347401	0.873792	8.72283	-0.010789	0.005276	-0.013132	-0.636475	0.059814	-0.467041
258.0	5.320458	0.85645	8.737665	-0.008978	0.009312	-0.019905	-0.636719	0.064209	-0.462402
259.0	5.357141	0.874525	8.745416	-0.008451	0.008744	-0.014519	-0.636475	0.059814	-0.4646
260.0	5.328143	0.849884	8.706212	-0.008877	0.007289	-0.01608	-0.63208	0.057861	-0.457764
261.0	5.339816	0.904653	8.753965	-0.006408	0.008138	-0.017973	-0.63208	0.062012	-0.464844
262.0	5.338013	0.850825	8.728696	-0.009336	0.00643	-0.013306	-0.634277	0.062012	-0.460205
263.0	5.363288	0.86837	8.714879	-0.007523	0.010469	-0.02008	-0.630127	0.064209	-0.458008
264.0	5.336315	0.851222	8.729696	-0.007754	0.004963	-0.013984	-0.634277	0.062012	-0.462402
265.0	5.352333	0.875484	8.748264	-0.009854	0.007003	-0.018702	-0.632324	0.066406	-0.467041
266.0	5.340059	0.875138	8.727192	-0.008406	0.008156	-0.018869	-0.636719	0.064209	-0.460205
267.0	5.360271	0.869206	8.716651	-0.006729	0.004663	-0.015714	-0.634521	0.064209	-0.460205
268.0	5.324048	0.858791	8.763825	-0.007286	0.005828	-0.016768	-0.634521	0.064209	-0.464844
269.0	5.364284	0.893245	8.713974	-0.007748	0.004967	-0.013991	-0.634277	0.057861	-0.462402
270.0	5.348969	0.876412	8.750228	-0.011293	0.005855	-0.018547	-0.636475	0.059814	-0.460205
271.0	5.34727	0.822658	8.72491	-0.006395	0.008149	-0.01799	-0.632324	0.064209	-0.462402
272.0	5.377683	0.863912	8.707782	-0.008013	0.010207	-0.012977	-0.634521	0.066406	-0.462646
273.0	5.323381	0.875753	8.708717	-0.009976	0.009629	-0.018208	-0.632324	0.064209	-0.458008
274.0	5.333861	0.876222	8.730873	-0.01146	0.009068	-0.013705	-0.634277	0.062012	-0.464844
275.0	5.327817	0.852448	8.734766	-0.01086	0.007314	-0.016995	-0.63208	0.062012	-0.460205
276.0	5.337363	0.89971	8.728562	-0.009413	0.008468	-0.017161	-0.629883	0.060059	-0.460205
277.0	5.352223	0.870006	8.721515	-0.00843	0.008757	-0.014547	-0.634277	0.062012	-0.462402
278.0	5.304313	0.858656	8.747259	-0.009875	0.007605	-0.014385	-0.634521	0.064209	-0.462402
279.0	5.350557	0.870167	8.722522	-0.007362	0.007871	-0.02062	-0.632324	0.064209	-0.460205
280.0	5.349622	0.870396	8.723073	-0.008005	0.010213	-0.012989	-0.630127	0.064209	-0.458008
281.0	5.327783	0.876601	8.734545	-0.009827	0.007019	-0.018734	-0.629883	0.060059	-0.460205
282.0	5.354205	0.84751	8.748988	-0.008846	0.007308	-0.016119	-0.63208	0.062012	-0.462402
283.0	5.358585	0.871071	8.746138	-0.011871	0.00762	-0.015285	-0.636719	0.064209	-0.462402
284.0	5.362111	0.84062	8.717503	-0.010424	0.008775	-0.01545	-0.63208	0.062012	-0.460205
285.0	5.366268	0.86424	8.714788	-0.009536	0.011096	-0.016669	-0.638672	0.062012	-0.462402
286.0	5.33914	0.84656	8.729686	-0.013448	0.009087	-0.014618	-0.63208	0.060059	-0.4646
287.0	5.322441	0.876332	8.737829	-0.007347	0.007882	-0.020636	-0.638428	0.05542	-0.459961
288.0	5.326237	0.846204	8.709003	-0.011589	0.002385	-0.016315	-0.636719	0.066406	-0.462646
289.0	5.342115	0.870314	8.72768	-0.007996	0.010221	-0.013002	-0.629883	0.062012	-0.460205
290.0	5.347369	0.847188	8.753198	-0.010973	0.009946	-0.016516	-0.629883	0.060059	-0.460205
291.0	5.361179	0.864193	8.717925	-0.008833	0.007317	-0.016135	-0.63208	0.062012	-0.462402
292.0	5.327976	0.869829	8.707768	-0.009388	0.008484	-0.017192	-0.629883	0.062012	-0.460205
293.0	5.354326	0.840729	8.722276	-0.008411	0.008771	-0.014573	-0.632324	0.066406	-0.462646
294.0	5.353434	0.840712	8.722825	-0.01041	0.008783	-0.015468	-0.636719	0.066406	-0.464844
295.0	5.388908	0.905882	8.702496	-0.003331	0.007871	-0.018865	-0.63208	0.062012	-0.462402
296.0	5.330753	0.847143	8.734752	-0.012927	0.008508	-0.009235	-0.636475	0.062012	-0.467041
297.0	5.361048	0.887972	8.717837	-0.013939	0.009678	-0.020045	-0.629883	0.062012	-0.462402
298.0	5.350559	0.894618	8.750888	-0.006822	0.007313	-0.015253	-0.636719	0.064209	-0.460205
299.0	5.333225	0.870586	8.733088	-0.009377	0.008491	-0.017205	-0.638672	0.062012	-0.462402
300.0	5.336817	0.84026	8.704435	-0.011428	0.009084	-0.013752	-0.632324	0.064209	-0.464844
301.0	5.326267	0.84684	8.737518	-0.007931	0.00965	-0.01737	-0.627686	0.057861	-0.462402
302.0	5.356504	0.888078	8.720619	-0.011425	0.009086	-0.013756	-0.634277	0.059814	-0.462402
303.0	5.334508	0.894228	8.732133	-0.00843	0.01024	-0.02278	-0.629883	0.060059	-0.4646
304.0	5.349459	0.864676	8.725073	-0.011839	0.007635	-0.015327	-0.632324	0.066406	-0.464844
305.0	5.327665	0.870463	8.736493	-0.010865	0.00792	-0.012706	-0.629639	0.055664	-0.462402
306.0	5.336329	0.86379	8.704588	-0.009506	0.011118	-0.016708	-0.634277	0.062012	-0.467041
307.0	5.358079	0.865116	8.748367	-0.006338	0.008195	-0.018052	-0.634521	0.064209	-0.460205
308.0	5.313509	0.870204	8.716565	-0.009834	0.007628	-0.014439	-0.636475	0.059814	-0.4646
309.0	5.340419	0.89493	8.757048	-0.008946	0.009953	-0.015657	-0.638672	0.062012	-0.460205
310.0	5.376397	0.859274	8.739096	-0.011358	0.008514	-0.018124	-0.63623	0.057617	-0.462402
311.0	5.322105	0.870413	8.739886	-0.013469	0.009679	-0.010318	-0.636719	0.066406	-0.467041
312.0	5.321023	0.870133	8.740573	-0.010053	0.012293	-0.017776	-0.643066	0.059814	-0.462402
313.0	5.340916	0.864228	8.73035	-0.00991	0.009675	-0.01829	-0.641113	0.064209	-0.455566
314.0	5.339973	0.864399	8.730909	-0.007354	0.008498	-0.016337	-0.63208	0.059814	-0.457764
315.0	5.34413	0.888075	8.728209	-0.012377	0.008812	-0.016407	-0.63208	0.062012	-0.460205
316.0	5.359181	0.858229	8.721143	-0.012375	0.008813	-0.01641	-0.634521	0.064209	-0.462402
317.0	5.337253	0.863975	8.732615	-0.011405	0.009096	-0.013785	-0.638916	0.068604	-0.455811
318.0	5.324885	0.863247	8.711647	-0.010517	0.011424	-0.015003	-0.632324	0.064209	-0.462402
319.0	5.351588	0.887676	8.752294	-0.015396	0.009119	-0.015588	-0.63208	0.062012	-0.460205
320.0	5.376385	0.851187	8.71271	-0.011813	0.007649	-0.01536	-0.632324	0.064209	-0.462402
321.0	5.301057	0.868295	8.724334	-0.011954	0.010269	-0.01485	-0.63208	0.062012	-0.460205
322.0	5.348357	0.83325	8.728055	-0.008452	0.010846	-0.018467	-0.634277	0.059814	-0.457764
323.0	5.347608	0.887236	8.754771	-0.00948	0.011139	-0.016741	-0.634277	0.059814	-0.462402
324.0	5.351268	0.857079	8.726114	-0.010365	0.008812	-0.015527	-0.636475	0.062012	-0.460205
325.0	5.329388	0.862967	8.737516	-0.010774	0.007362	-0.017099	-0.634521	0.064209	-0.462402
326.0	5.343104	0.88026	8.702411	-0.008034	0.012301	-0.016904	-0.632324	0.064209	-0.460205
327.0	5.327539	0.86306	8.738635	-0.011103	0.003866	-0.014829	-0.632324	0.064209	-0.460205
328.0	5.315588	0.862484	8.717398	-0.008774	0.007355	-0.016203	-0.634277	0.062012	-0.458008
329.0	5.32602	0.863123	8.739554	-0.009882	0.009695	-0.018323	-0.634521	0.064209	-0.462402
330.0	5.325014	0.863207	8.740159	-0.008915	0.009977	-0.015695	-0.638916	0.064209	-0.464844
331.0	5.312748	0.862844	8.719094	-0.008293	0.008238	-0.018997	-0.634277	0.062012	-0.462402
332.0	5.355535	0.85802	8.75202	-0.011384	0.009108	-0.013814	-0.634277	0.062012	-0.462402
333.0	5.341971	0.904157	8.70295	-0.010352	0.008819	-0.015544	-0.63208	0.062012	-0.460205
334.0	5.331039	0.856783	8.709924	-0.00891	0.009981	-0.015702	-0.632324	0.064209	-0.462402
335.0	5.330202	0.85686	8.710428	-0.008209	0.006192	-0.015157	-0.632324	0.066406	-0.462646
336.0	5.366814	0.875134	8.71846	-0.011788	0.007661	-0.015393	-0.634521	0.064209	-0.464844
337.0	5.333553	0.880601	8.708233	-0.006843	0.009407	-0.019164	-0.634277	0.062012	-0.462402
338.0	5.338935	0.85753	8.733621	-0.011377	0.009112	-0.013825	-0.636719	0.066406	-0.460205
339.0	5.310686	0.886424	8.720206	-0.010751	0.007376	-0.017128	-0.634521	0.064209	-0.462402
340.0	5.332275	0.83374	8.737842	-0.00931	0.008538	-0.017286	-0.63208	0.059814	-0.457764
341.0	5.330053	0.880545	8.710382	-0.01178	0.007665	-0.015403	-0.634277	0.059814	-0.457764
342.0	5.33553	0.857089	8.735745	-0.013365	0.009124	-0.014737	-0.634277	0.059814	-0.462402
343.0	5.33979	0.880506	8.73303	-0.011077	0.003878	-0.01486	-0.625732	0.062256	-0.460205
344.0	5.343882	0.850556	8.704134	-0.006832	0.009417	-0.019177	-0.636475	0.062012	-0.469238
345.0	5.323549	0.863414	8.76959	-0.010667	0.005327	-0.01329	-0.630127	0.064209	-0.458008
346.0	5.337598	0.880858	8.734334	-0.006681	0.006801	-0.019694	-0.632324	0.064209	-0.467041
347.0	5.341812	0.904776	8.731599	-0.010185	0.006213	-0.016083	-0.636475	0.062012	-0.4646
348.0	5.331251	0.857316	8.738335	-0.009225	0.00649	-0.013449	-0.640625	0.057617	-0.459961
349.0	5.356524	0.875131	8.724786	-0.010736	0.007385	-0.017147	-0.636719	0.064209	-0.455566
350.0	5.355673	0.875088	8.725312	-0.010329	0.008834	-0.015575	-0.634277	0.059814	-0.4646
351.0	5.366271	0.875497	8.747389	-0.011065	0.003883	-0.014874	-0.63208	0.060059	-0.462402
352.0	5.331678	0.873866	8.682918	-0.008888	0.009999	-0.015732	-0.636475	0.062012	-0.467041
353.0	5.338616	0.857484	8.762402	-0.011764	0.007675	-0.015426	-0.632324	0.064209	-0.464844
354.0	5.352436	0.874877	8.72732	-0.007851	0.009716	-0.017465	-0.634277	0.062012	-0.460205
355.0	5.31431	0.856466	8.720172	-0.011207	0.006505	-0.014368	-0.634521	0.064209	-0.462402
356.0	5.345828	0.851116	8.731499	-0.008883	0.010003	-0.015739	-0.638428	0.057617	-0.466797
357.0	5.340016	0.881169	8.761411	-0.010723	0.007394	-0.017163	-0.634277	0.059814	-0.462402
358.0	5.355404	0.851553	8.754195	-0.011756	0.007679	-0.015436	-0.641113	0.064209	-0.462402
359.0	5.33691	0.874175	8.708295	-0.009282	0.008559	-0.01732	-0.63208	0.060059	-0.462402
360.0	5.363532	0.845162	8.722752	-0.011753	0.00768	-0.01544	-0.640869	0.062012	-0.460205
361.0	5.325415	0.880078	8.741847	-0.014777	0.007974	-0.014621	-0.634277	0.057617	-0.459961
362.0	5.366693	0.868247	8.720761	-0.010865	0.010018	-0.016659	-0.630127	0.064209	-0.462402
363.0	5.376942	0.868806	8.743035	-0.009828	0.009737	-0.018391	-0.636475	0.062012	-0.460205
364.0	5.32267	0.879705	8.743556	-0.012631	0.005348	-0.014233	-0.636719	0.068604	-0.464844
365.0	5.317098	0.855801	8.747102	-0.010709	0.007403	-0.01718	-0.636475	0.062012	-0.462402
366.0	5.331082	0.873222	8.71196	-0.010156	0.006231	-0.016119	-0.636719	0.064209	-0.464844
367.0	5.362546	0.868018	8.723334	-0.00942	0.011188	-0.016821	-0.638428	0.057617	-0.462402
368.0	5.335707	0.849819	8.737814	-0.013661	0.005633	-0.012511	-0.632324	0.066406	-0.464844
369.0	5.33999	0.873353	8.735093	-0.008562	0.00478	-0.016791	-0.638916	0.066406	-0.462646
370.0	5.360364	0.867597	8.724717	-0.01229	0.008863	-0.016522	-0.632324	0.066406	-0.462646
371.0	5.333535	0.849473	8.739173	-0.009748	0.007682	-0.01455	-0.634521	0.064209	-0.464844
372.0	5.343928	0.849854	8.761371	-0.012287	0.008865	-0.016527	-0.634277	0.059814	-0.4646
373.0	5.336669	0.87287	8.737171	-0.011733	0.007693	-0.015465	-0.634277	0.062012	-0.467041
374.0	5.324575	0.872377	8.716023	-0.00727	0.008569	-0.016436	-0.634277	0.062012	-0.462402
375.0	5.336386	0.879649	8.792327	-0.011179	0.006521	-0.014405	-0.636475	0.062012	-0.4646
376.0	5.344168	0.866665	8.706135	-0.009655	0.007134	-0.018931	-0.640869	0.062012	-0.462402
377.0	5.317421	0.848748	8.7205	-0.007752	0.007679	-0.013647	-0.636475	0.062012	-0.462402
378.0	5.35388	0.867246	8.728732	-0.012125	0.006251	-0.017054	-0.638428	0.057617	-0.4646
379.0	5.353079	0.867142	8.729234	-0.010289	0.008863	-0.015627	-0.636475	0.062012	-0.460205
380.0	5.352169	0.867081	8.729798	-0.010288	0.008864	-0.015629	-0.634766	0.070801	-0.464844
381.0	5.292939	0.854142	8.733388	-0.010286	0.008865	-0.015631	-0.640869	0.062012	-0.462402
382.0	5.350463	0.866978	8.730854	-0.010131	0.006247	-0.016149	-0.636475	0.059814	-0.4646
383.0	5.360889	0.867356	8.753032	-0.011322	0.009145	-0.013904	-0.63208	0.062012	-0.462402
384.0	5.32297	0.848762	8.745681	-0.009487	0.004525	-0.019463	-0.636719	0.064209	-0.460205
385.0	5.343325	0.84323	8.735331	-0.008846	0.010035	-0.015788	-0.634521	0.066406	-0.462646
386.0	5.358509	0.8676	8.754465	-0.009086	0.005972	-0.017887	-0.634277	0.062012	-0.462402
387.0	5.340133	0.890552	8.708493	-0.007649	0.00714	-0.018038	-0.640869	0.059814	-0.462402
388.0	5.324673	0.87302	8.744472	-0.011161	0.00653	-0.014429	-0.63208	0.062012	-0.460205
389.0	5.319073	0.849075	8.748021	-0.012262	0.00888	-0.016561	-0.636719	0.064209	-0.462402
390.0	5.355257	0.867531	8.756461	-0.009878	0.010317	-0.014066	-0.634766	0.068604	-0.464844
391.0	5.343285	0.866732	8.735273	-0.014026	0.004199	-0.014137	-0.634521	0.064209	-0.460205
392.0	5.32138	0.87217	8.746561	-0.008837	0.010042	-0.0158	-0.638672	0.062012	-0.462402
393.0	5.325634	0.842245	8.717656	-0.01265	0.00744	-0.018152	-0.63208	0.062012	-0.464844
394.0	5.319662	0.872055	8.747617	-0.010663	0.007433	-0.017237	-0.634277	0.059814	-0.460205
395.0	5.349976	0.860352	8.704803	-0.008676	0.007427	-0.016322	-0.63208	0.059814	-0.455566
396.0	5.328084	0.866083	8.716045	-0.008124	0.006253	-0.015258	-0.630127	0.064209	-0.462402
397.0	5.333413	0.896505	8.767617	-0.010108	0.006261	-0.016177	-0.634277	0.062012	-0.464844
398.0	5.3592	0.861085	8.727682	-0.007965	0.003636	-0.015778	-0.634277	0.062012	-0.464844
399.0	5.326147	0.86614	8.717223	-0.011303	0.009157	-0.013932	-0.640869	0.062012	-0.457764
400.0	5.347581	0.867094	8.761194	-0.009771	0.009782	-0.018462	-0.632324	0.066406	-0.458008
401.0	5.335469	0.866558	8.740066	-0.011693	0.007715	-0.015519	-0.634277	0.059814	-0.460205
402.0	5.318239	0.895777	8.748368	-0.009708	0.007709	-0.014602	-0.632324	0.064209	-0.467041
403.0	5.339049	0.836602	8.711598	-0.009216	0.008611	-0.017402	-0.632324	0.064209	-0.458008
404.0	5.333012	0.866412	8.74158	-0.011139	0.006542	-0.014459	-0.634277	0.062012	-0.458008
405.0	5.351604	0.907731	8.703646	-0.010804	0.010063	-0.016741	-0.634277	0.062012	-0.462402
406.0	5.326569	0.842548	8.745625	-0.008111	0.006262	-0.015274	-0.638916	0.064209	-0.464844
407.0	5.319311	0.865741	8.721436	-0.011293	0.009163	-0.013947	-0.634521	0.064209	-0.464844
408.0	5.372106	0.854884	8.722029	-0.010583	0.005369	-0.013399	-0.638916	0.064209	-0.462402
409.0	5.340136	0.8666	8.765783	-0.005791	0.009779	-0.016639	-0.636475	0.062012	-0.462402
410.0	5.353953	0.884496	8.730848	-0.010638	0.007449	-0.017268	-0.63208	0.062012	-0.467041
411.0	5.37434	0.879001	8.720544	-0.008654	0.007443	-0.016349	-0.63208	0.060059	-0.462402
412.0	5.315168	0.865868	8.723949	-0.010794	0.01007	-0.016754	-0.634277	0.062012	-0.460205
413.0	5.330082	0.890083	8.743273	-0.010243	0.008895	-0.015689	-0.632324	0.064209	-0.458008
414.0	5.345589	0.860564	8.736077	-0.013816	0.010352	-0.015949	-0.636719	0.064209	-0.462402
415.0	5.305994	0.88859	8.700982	-0.010023	0.004197	-0.012344	-0.632324	0.066406	-0.464844
416.0	5.333029	0.859703	8.71526	-0.007707	0.007714	-0.013704	-0.634277	0.062012	-0.458008
417.0	5.369185	0.878547	8.723765	-0.009744	0.009803	-0.018496	-0.632324	0.064209	-0.458008
418.0	5.335962	0.883547	8.713371	-0.011119	0.006553	-0.014484	-0.63208	0.062012	-0.464844
419.0	5.362778	0.854628	8.727792	-0.010784	0.010078	-0.016768	-0.634521	0.064209	-0.464844
420.0	5.345343	0.883806	8.736192	-0.011665	0.007731	-0.015557	-0.632324	0.064209	-0.462402
421.0	5.329866	0.865837	8.772107	-0.011114	0.006555	-0.01449	-0.63208	0.060059	-0.462402
422.0	5.353926	0.877359	8.704648	-0.013094	0.006563	-0.015415	-0.634277	0.062012	-0.460205
423.0	5.338392	0.859295	8.740602	-0.011273	0.009176	-0.013975	-0.634277	0.057861	-0.462402
424.0	5.327361	0.865017	8.773709	-0.010884	0.010618	-0.012389	-0.634277	0.057617	-0.459961
425.0	5.357813	0.853321	8.730969	-0.011496	0.005118	-0.016085	-0.636475	0.059814	-0.457764
426.0	5.350627	0.876422	8.706771	-0.01072	0.008001	-0.012911	-0.641113	0.064209	-0.462402
427.0	5.360972	0.876761	8.728994	-0.009675	0.007732	-0.014645	-0.634277	0.062012	-0.458008
428.0	5.332402	0.90539	8.715667	-0.011266	0.00918	-0.013983	-0.636475	0.062012	-0.457764
429.0	5.333427	0.858118	8.743748	-0.012038	0.0063	-0.017161	-0.638672	0.062012	-0.462402
430.0	5.337374	0.881647	8.741281	-0.012146	0.006833	-0.012774	-0.634277	0.059814	-0.4646
431.0	5.331685	0.857537	8.744867	-0.012522	0.014158	-0.015608	-0.63208	0.059814	-0.460205
432.0	5.352039	0.851863	8.734652	-0.010387	0.002769	-0.01396	-0.634277	0.062012	-0.458008
433.0	5.355991	0.875646	8.732163	-0.009718	0.009826	-0.018526	-0.630127	0.064209	-0.464844
434.0	5.333953	0.880915	8.743443	-0.013571	0.005664	-0.012638	-0.63208	0.062012	-0.464844
435.0	5.338703	0.850933	8.714322	-0.010597	0.007478	-0.017317	-0.632324	0.066406	-0.458008
436.0	5.321297	0.879988	8.722694	-0.012687	0.008016	-0.013854	-0.632324	0.066406	-0.458008
437.0	5.34171	0.874272	8.71246	-0.01164	0.007749	-0.015589	-0.638916	0.066406	-0.464844
438.0	5.358482	0.851229	8.759355	-0.011254	0.009189	-0.014001	-0.632324	0.066406	-0.469482
439.0	5.339919	0.873863	8.713599	-0.012184	0.00893	-0.016663	-0.63208	0.057861	-0.459961
440.0	5.335455	0.856239	8.771248	-0.010703	0.008012	-0.012934	-0.634277	0.059814	-0.460205
441.0	5.359476	0.868055	8.703911	-0.012565	0.007493	-0.018257	-0.63623	0.05542	-0.459961
442.0	5.33287	0.849426	8.71804	-0.01213	0.006842	-0.012796	-0.638916	0.064209	-0.464844
443.0	5.336724	0.873011	8.715642	-0.009653	0.007748	-0.014672	-0.636475	0.062012	-0.460205
444.0	5.347041	0.873429	8.737868	-0.009652	0.007749	-0.014673	-0.636719	0.064209	-0.460205
445.0	5.346188	0.873528	8.73838	-0.007174	0.008656	-0.016549	-0.632324	0.066406	-0.464844
446.0	5.325095	0.825813	8.722838	-0.005961	0.005773	-0.018804	-0.632324	0.064209	-0.467041
447.0	5.35496	0.868166	8.706679	-0.009982	0.004219	-0.012395	-0.636475	0.062012	-0.460205
448.0	5.349625	0.844331	8.710009	-0.009695	0.009846	-0.018554	-0.63208	0.060059	-0.4646
449.0	5.353316	0.868431	8.707664	-0.005575	0.007215	-0.017218	-0.634521	0.064209	-0.460205
450.0	5.342488	0.874347	8.740561	-0.012502	0.005407	-0.014401	-0.636719	0.068604	-0.464844
451.0	5.342778	0.820776	8.714238	-0.008596	0.007489	-0.016418	-0.63208	0.062012	-0.455566
452.0	5.319738	0.879746	8.752217	-0.008595	0.00749	-0.01642	-0.634277	0.057861	-0.4646
453.0	5.36602	0.892943	8.728349	-0.008593	0.007491	-0.016421	-0.638428	0.05542	-0.457764
454.0	5.339335	0.874538	8.742469	-0.010187	0.008937	-0.015762	-0.641113	0.068604	-0.467041
455.0	5.338532	0.874571	8.742955	-0.008043	0.006313	-0.015353	-0.632568	0.068604	-0.458008
456.0	5.336841	0.868236	8.689199	-0.011613	0.007764	-0.015625	-0.636475	0.062012	-0.467041
457.0	5.343509	0.850985	8.768521	-0.010684	0.008023	-0.012962	-0.634521	0.064209	-0.458008
458.0	5.357367	0.868927	8.733731	-0.009133	0.008677	-0.017502	-0.630127	0.064209	-0.464844
459.0	5.330638	0.850499	8.747862	-0.01018	0.008941	-0.015771	-0.634521	0.066406	-0.464844
460.0	5.355583	0.868772	8.73484	-0.012655	0.008031	-0.0139	-0.636719	0.064209	-0.467041
461.0	5.339083	0.844371	8.716471	-0.009128	0.008681	-0.017508	-0.634277	0.059814	-0.462402
462.0	5.360405	0.845293	8.760488	-0.011603	0.00777	-0.015637	-0.629883	0.062256	-0.464844
463.0	5.320631	0.873448	8.725431	-0.0082	0.00894	-0.014845	-0.632324	0.064209	-0.458008
464.0	5.35213	0.868514	8.736982	-0.010675	0.008028	-0.012974	-0.634277	0.062012	-0.462402
465.0	5.351195	0.868132	8.737593	-0.014791	0.010659	-0.014321	-0.636475	0.059814	-0.455566
466.0	5.328985	0.873184	8.748916	-0.010548	0.007512	-0.017378	-0.638916	0.066406	-0.458008
467.0	5.332851	0.896692	8.746533	-0.014953	0.004505	-0.012563	-0.63208	0.059814	-0.460205
468.0	5.385993	0.886069	8.747184	-0.011929	0.004238	-0.013364	-0.632324	0.064209	-0.458008
469.0	5.359883	0.867355	8.76093	-0.007265	0.000427	-0.010945	-0.63208	0.062012	-0.460205
470.0	5.430156	0.767859	8.672544	-0.019192	0.007654	-0.009513	-0.634277	0.059814	-0.460205
471.0	5.336973	0.991842	8.934463	0.014234	0.002098	-0.018823	-0.632324	0.066406	-0.467041
472.0	5.421872	0.669685	8.651336	0.014368	-0.007192	-0.021987	-0.636475	0.062012	-0.457764
473.0	5.379573	0.860723	8.695936	0.015209	-0.002731	-0.027083	-0.63208	0.059814	-0.460205
474.0	5.348804	0.881081	8.793146	0.024362	0.001045	-0.022967	-0.634277	0.057617	-0.459961
475.0	5.361858	0.955863	8.7846	0.022222	0.00367	-0.023385	-0.63208	0.057861	-0.457764
476.0	5.350728	0.898762	8.681736	0.022268	0.001571	-0.019507	-0.63208	0.062012	-0.464844
477.0	5.310735	0.988669	8.727328	0.005204	0.009573	-0.013803	-0.63208	0.057861	-0.457764
478.0	5.344799	0.878589	8.685084	0.017219	0.006933	-0.00872	-0.632568	0.068604	-0.458008
479.0	5.312556	0.891767	8.728498	0.019699	0.00785	-0.010597	-0.63208	0.057861	-0.4646
480.0	5.32843	0.864989	8.720968	0.017139	0.011136	-0.016493	-0.63208	0.059814	-0.460205
481.0	5.316448	0.866363	8.699583	0.01025	0.007206	-0.009793	-0.629883	0.062012	-0.458008
482.0	5.364945	0.834202	8.703031	0.013408	0.006426	-0.015	-0.634277	0.059814	-0.460205
483.0	5.3221	0.7872	8.643692	0.019837	0.007339	-0.01501	-0.629883	0.060059	-0.460205
484.0	5.046522	0.86306	8.617477	0.019091	0.004464	-0.018203	-0.634277	0.062012	-0.462402
485.0	5.204729	1.067109	8.88804	-0.012113	-0.008619	-0.014239	-0.634277	0.059814	-0.4646
486.0	5.380004	0.863593	8.721735	-0.023458	-0.013468	-0.006593	-0.632324	0.064209	-0.462402
487.0	5.42823	0.698502	8.673805	-0.004125	-0.007042	-0.018798	-0.629639	0.053467	-0.462158
488.0	5.374736	0.888215	8.696162	0.021557	-0.010057	-0.021468	-0.636475	0.062012	-0.4646
489.0	5.430231	0.828027	8.669125	0.021478	-0.005853	-0.029248	-0.634277	0.059814	-0.462402
490.0	5.404742	0.813532	8.682154	0.035939	-0.005456	-0.029937	-0.636719	0.064209	-0.460205
491.0	5.365386	0.906854	8.726758	0.05054	-0.00557	-0.035042	-0.632324	0.064209	-0.464844
492.0	5.363356	0.96008	8.698464	0.048072	-0.006481	-0.033178	-0.634277	0.057617	-0.457764
493.0	5.371634	0.889386	8.695663	0.048591	-0.005553	-0.036008	-0.636475	0.059814	-0.460205
494.0	5.380435	0.943388	8.689189	0.053804	-0.001743	-0.033786	-0.63208	0.059814	-0.460205
495.0	5.379679	0.944072	8.634155	0.069191	-0.007733	-0.034465	-0.634033	0.055664	-0.457764
496.0	5.387185	0.935557	8.712165	0.072354	0.000277	-0.040979	-0.631836	0.053467	-0.462158
497.0	5.361507	1.04931	8.721199	0.06586	0.004466	-0.03005	-0.629883	0.057861	-0.460205
498.0	5.430457	1.01124	8.659306	0.067127	0.008279	-0.029706	-0.63623	0.05542	-0.455566
499.0	5.388125	0.974657	8.654219	0.050188	0.013614	-0.024497	-0.63208	0.057861	-0.462402
500.0	5.411508	0.875924	8.645222	0.080202	0.023009	-0.028982	-0.631836	0.053467	-0.4646
501.0	5.394996	0.991851	8.676711	0.099186	0.024402	-0.03071	-0.633789	0.05127	-0.4646
502.0	5.357155	0.928961	8.642857	0.097257	0.031102	-0.029077	-0.634033	0.055664	-0.459961
503.0	5.419432	1.055932	8.660879	0.132052	0.028003	-0.029925	-0.629639	0.053467	-0.455322
504.0	5.415687	1.179718	8.547679	0.14352	0.025119	-0.017716	-0.638184	0.05127	-0.466797
505.0	5.443988	1.05644	8.509936	0.122708	0.04076	-0.024044	-0.63623	0.053467	-0.459961
506.0	5.513829	0.992051	8.586092	0.172221	0.046427	-0.03146	-0.638428	0.05542	-0.462402
507.0	5.250359	1.126927	8.740435	0.191819	0.073075	-0.036266	-0.633789	0.049072	-0.459961
508.0	5.374912	1.004577	8.627499	0.155071	0.080351	-0.044348	-0.634033	0.055664	-0.462402
509.0	5.340582	1.06473	8.723731	0.187501	0.080631	-0.05131	-0.629395	0.05127	-0.457764
510.0	5.337123	1.231097	8.716832	0.166776	0.085408	-0.052502	-0.635986	0.049072	-0.462158
511.0	5.316242	1.051464	8.735825	0.135936	0.083885	-0.056415	-0.635498	0.040283	-0.455078
512.0	5.252344	0.998949	8.715661	0.154021	0.081054	-0.063077	-0.631592	0.049072	-0.464355
513.0	5.231033	1.137649	8.855172	0.14861	0.069604	-0.055158	-0.626709	0.038086	-0.45752
514.0	5.248163	1.08654	8.766876	0.148016	0.05126	-0.059578	-0.633789	0.046875	-0.464355
515.0	5.272635	1.144769	8.750784	0.146124	0.058012	-0.058098	-0.631104	0.040283	-0.464355
516.0	5.265532	1.090267	8.784298	0.142648	0.04864	-0.053129	-0.631348	0.04248	-0.464355
517.0	5.194479	1.174953	8.841316	0.126341	0.041356	-0.045912	-0.62915	0.04248	-0.466553
518.0	5.145597	1.252038	8.887581	0.098994	0.032084	-0.037553	-0.633301	0.038086	-0.466553
519.0	5.252995	1.05624	8.818828	0.075415	0.018768	-0.02935	-0.628906	0.038086	-0.466553
520.0	5.183611	1.234601	8.704997	0.077452	0.010045	-0.027018	-0.631348	0.04248	-0.462158
521.0	5.05853	1.313752	8.870694	0.047856	0.000689	-0.029428	-0.628906	0.038086	-0.464355
522.0	5.372028	1.306148	8.660557	0.018474	-0.019509	-0.016467	-0.635254	0.035889	-0.464111
523.0	5.253324	1.132037	8.676004	0.029999	-0.003182	-0.015435	-0.631104	0.038086	-0.466553
524.0	5.140466	1.200968	8.809128	0.027155	-0.019033	-0.020079	-0.637695	0.038086	-0.461914
525.0	5.287409	1.258369	8.677329	0.007833	-0.024696	-0.020247	-0.633301	0.035889	-0.461914
526.0	5.328645	1.102474	8.666814	0.029521	-0.022192	-0.024068	-0.633301	0.035889	-0.461914
527.0	5.314822	1.206272	8.638874	0.048353	-0.028808	-0.030037	-0.639404	0.029297	-0.455078
528.0	5.246015	1.258869	8.696213	0.049082	-0.02849	-0.037337	-0.631104	0.040283	-0.46875
529.0	5.222849	1.246326	8.707911	0.038827	-0.038937	-0.042051	-0.635254	0.035889	-0.461914
530.0	5.237317	1.251901	8.726979	0.004548	-0.055467	-0.041439	-0.633301	0.035889	-0.464111
531.0	5.355371	1.197914	8.64373	0.016318	-0.055196	-0.045931	-0.633301	0.038086	-0.464355
532.0	5.281834	1.270901	8.674639	0.021388	-0.053316	-0.049845	-0.633301	0.035889	-0.459717
533.0	5.352692	1.353383	8.769445	-0.001741	-0.054996	-0.049773	-0.635254	0.033691	-0.457275
534.0	5.373364	1.309496	8.652096	-0.014576	-0.052939	-0.047518	-0.64209	0.038086	-0.466553
535.0	5.377662	1.327525	8.757636	-0.01192	-0.041178	-0.04493	-0.637451	0.033691	-0.457275
536.0	5.386301	1.280879	8.619304	-0.027637	-0.041536	-0.042286	-0.635254	0.035889	-0.461914
537.0	5.342672	1.276358	8.695956	-0.014814	-0.036844	-0.042075	-0.637451	0.031494	-0.459473
538.0	5.321525	1.336388	8.729416	-0.028714	-0.039206	-0.044522	-0.641846	0.035889	-0.459717
539.0	5.330179	1.297408	8.645354	-0.026557	-0.035059	-0.041579	-0.637451	0.035889	-0.461914
540.0	5.308331	1.294926	8.765882	-0.037378	-0.037641	-0.044878	-0.637451	0.033691	-0.457275
541.0	5.351125	1.329249	8.714276	-0.045269	-0.041915	-0.040632	-0.637451	0.035889	-0.461914
542.0	5.349903	1.295767	8.662185	-0.038343	-0.046115	-0.041734	-0.637451	0.035889	-0.464111
543.0	5.345423	1.256111	8.721748	-0.017664	-0.032466	-0.039289	-0.639648	0.033691	-0.457275
544.0	5.290571	1.242026	8.722698	-0.008109	-0.04654	-0.036948	-0.637451	0.035889	-0.464111
545.0	5.298669	1.274669	8.770751	-0.027992	-0.046997	-0.046103	-0.637451	0.031494	-0.459473
546.0	5.363545	1.30563	8.707849	-0.0196	-0.05204	-0.043435	-0.639648	0.033691	-0.457275
547.0	5.34158	1.27932	8.665499	-0.021014	-0.053232	-0.043274	-0.644043	0.033691	-0.455078
548.0	5.405289	1.38058	8.735358	-0.034401	-0.050057	-0.042082	-0.641846	0.035889	-0.461914
549.0	5.378431	1.320551	8.643129	-0.044155	-0.048252	-0.040646	-0.641846	0.033691	-0.455078
550.0	5.378248	1.295246	8.644693	-0.040504	-0.049606	-0.040429	-0.637695	0.038086	-0.461914
551.0	5.430601	1.393939	8.693178	-0.03473	-0.046834	-0.037227	-0.633301	0.035889	-0.457275
552.0	5.379242	1.3217	8.669304	-0.071475	-0.050999	-0.029561	-0.644287	0.038086	-0.455078
553.0	5.431583	1.346231	8.750734	-0.089295	-0.053452	-0.033871	-0.635498	0.040283	-0.45752
554.0	5.448837	1.348687	8.65946	-0.102864	-0.045081	-0.021719	-0.644043	0.033691	-0.450439
555.0	5.429682	1.266745	8.647653	-0.132269	-0.041695	-0.023436	-0.637451	0.035889	-0.455078
556.0	5.48351	1.295241	8.618516	-0.110356	-0.043727	-0.02394	-0.641846	0.033691	-0.457275
557.0	5.273299	1.274187	8.810622	-0.114191	-0.035089	-0.017208	-0.641846	0.035889	-0.452881
558.0	5.289749	1.135931	8.783775	-0.078669	-0.057808	-0.016171	-0.64209	0.038086	-0.45752
559.0	5.346153	1.241009	8.72025	-0.010427	-0.078516	-0.020631	-0.644043	0.033691	-0.450439
560.0	5.317138	1.221462	8.708172	0.002475	-0.095385	-0.019778	-0.641846	0.035889	-0.455078
561.0	5.438821	1.099226	8.652005	0.040928	-0.109546	-0.021005	-0.641846	0.035889	-0.450439
562.0	5.314129	1.160897	8.518137	0.134943	-0.136224	-0.0264	-0.639648	0.035889	-0.452881
563.0	5.340445	1.053796	8.702159	0.203676	-0.17217	-0.032558	-0.641602	0.029297	-0.450439
564.0	5.234926	1.217011	8.660464	0.300506	-0.207306	-0.026337	-0.648193	0.031494	-0.452637
565.0	4.710221	1.157103	8.771204	0.492729	-0.265609	0.018323	-0.645996	0.0271	-0.450439
566.0	4.688773	1.320422	10.125282	0.284903	-0.398341	-0.032589	-0.650146	0.0271	-0.447998
567.0	4.967676	1.19552	8.236529	0.585017	-0.50827	-0.021646	-0.652344	0.022705	-0.441162
568.0	5.444783	1.352468	8.822118	0.434404	-0.523224	-0.01364	-0.654297	0.022705	-0.441162
569.0	4.964541	1.43131	8.625278	0.70777	-0.588409	-0.011302	-0.652344	0.022705	-0.438965
570.0	4.667415	1.464056	8.670726	0.736038	-0.784061	0.020113	-0.662842	0.013916	-0.431885
571.0	4.926537	1.7285	8.858481	0.881216	-0.984784	0.045101	-0.6604	0.011719	-0.427246
572.0	5.299545	1.748341	8.49095	0.829481	-1.147766	0.040936	-0.67334	0.005127	-0.422607
573.0	4.056075	1.47045	8.63888	1.071304	-1.370917	0.092227	-0.67749	0.002686	-0.408691
574.0	3.73301	1.760392	8.760701	1.301283	-1.89224	0.131631	-0.688232	-0.001709	-0.399658
575.0	3.584591	1.814272	8.031188	1.409406	-2.435821	0.23774	-0.696533	-0.010498	-0.381104
576.0	3.151007	2.327131	10.619844	1.237823	-3.164731	0.331408	-0.716309	-0.008545	-0.35376
577.0	3.28782	2.639939	10.811756	0.581093	-3.933143	0.463576	-0.731445	-0.008789	-0.331055
578.0	4.201781	2.432759	9.911164	0.047415	-4.646275	0.584598	-0.755859	-0.000244	-0.301514
579.0	5.14893	2.525417	9.458069	-0.242812	-5.198967	0.768336	-0.773193	-0.000488	-0.265137
580.0	5.750002	2.769067	10.340188	-0.333491	-5.548985	1.000827	-0.784424	0.005859	-0.226318
581.0	7.218722	3.219845	11.093312	-0.284693	-5.946879	1.299165	-0.804688	0.020996	-0.187988
582.0	5.783147	2.416368	9.75495	-0.07099	-6.090031	1.574763	-0.820313	0.029541	-0.146973
583.0	8.030048	4.241461	9.870546	0.444863	-6.75396	1.833891	-0.835938	0.035889	-0.106201
584.0	11.219942	4.685776	10.935166	0.106282	-7.320724	1.954681	-0.841309	0.057617	-0.061035
585.0	15.717288	3.295174	10.234299	-0.21793	-7.374769	1.971406	-0.845703	0.05957	-0.013184
586.0	13.899898	0.181008	8.495234	0.920134	-7.217829	2.043726	-0.848633	0.074707	0.032227
587.0	15.433881	9.769671	14.061537	2.173444	-7.48551	1.975522	-0.835693	0.076904	0.079834
588.0	22.292627	9.992512	9.561522	-0.254684	-7.705861	2.431602	-0.822998	0.085693	0.114014
589.0	22.81279	8.57873	13.582678	0.210983	-6.370223	2.886796	-0.799561	0.098877	0.143311
590.0	19.825996	7.381916	14.443154	-0.424293	-5.46817	3.160422	-0.769531	0.112061	0.154297
591.0	13.175227	11.543465	16.754174	-0.80591	-4.250714	3.55409	-0.730469	0.116699	0.158691
592.0	5.123746	15.186362	22.640915	-2.183857	-2.793459	3.519175	-0.696045	0.125732	0.151611
593.0	-6.262169	7.869519	21.761637	-5.073615	-0.33123	3.729167	-0.669922	0.125732	0.133545
594.0	12.325681	0.023955	-24.912411	-3.957269	-4.573526	2.204655	-0.636963	0.123779	0.133545
595.0	29.610657	3.75183	43.785038	2.688434	0.10645	0.295733	-0.607666	0.100098	0.095215
596.0	11.499615	11.134258	26.017872	-0.058131	3.369915	-0.077673	-0.559082	0.085205	0.049805
597.0	0.108751	5.335112	8.997382	-0.519224	4.67559	-0.118306	-0.503906	0.070557	0.0
598.0	-4.948044	6.133912	8.629518	0.37237	4.098332	0.042044	-0.435547	0.057861	-0.03418
599.0	0.005298	3.84847	7.634613	-0.378808	4.093937	0.181759	-0.354248	0.043213	-0.059082
600.0	-2.346153	3.06045	5.7042	0.335027	4.307135	0.341383	-0.262207	0.032959	-0.070313
601.0	-1.14045	3.416724	6.375956	0.331692	4.03541	0.37082	-0.156982	0.018311	-0.061035
602.0	1.486181	2.782518	6.493797	0.623327	4.097566	0.288731	-0.047852	0.020996	-0.031494
603.0	2.687803	2.310347	6.464391	0.953347	4.334162	0.009252	0.060791	0.026123	0.027344
604.0	3.525789	2.607652	6.898775	1.430693	4.646411	-0.391388	0.140869	0.041504	0.109131
605.0	4.18	3.697865	7.398783	1.66084	4.94082	-0.794649	0.174561	0.069824	0.217773
606.0	4.80889	4.220714	7.57278	1.680871	5.160287	-1.141393	0.157227	0.117432	0.328613
607.0	5.461189	4.300364	7.79059	1.57567	5.304945	-1.440901	0.091797	0.162598	0.43042
608.0	6.03914	4.136096	8.412006	1.404607	5.415808	-1.689884	-0.01709	0.209961	0.48877
609.0	6.680225	3.621469	8.899796	1.170087	5.452336	-1.878674	-0.140625	0.243896	0.529297
610.0	7.960413	2.88882	9.156773	1.0296	5.504201	-1.985773	-0.274902	0.26709	0.524414
611.0	8.820826	1.843721	9.722597	0.999469	5.572854	-2.012258	-0.390625	0.270752	0.48584
612.0	10.391064	1.472878	10.964803	1.161682	5.599222	-2.02959	-0.488525	0.265869	0.424561
613.0	12.474744	0.878685	11.99629	1.253647	5.582023	-2.102108	-0.570801	0.252441	0.351807
614.0	14.638641	0.013691	12.556553	1.443441	5.476169	-2.199952	-0.628906	0.234863	0.281738
615.0	16.176261	-1.549993	10.662674	1.704709	5.325562	-2.359735	-0.662598	0.20874	0.200195
616.0	16.453986	0.170148	9.732159	2.281049	5.188759	-2.474368	-0.689941	0.182373	0.118652
617.0	16.281887	2.376217	8.859374	2.125831	4.867061	-2.551768	-0.701416	0.149902	0.053223
618.0	15.780609	4.561347	8.776265	1.733767	4.429458	-2.582257	-0.698242	0.128174	-0.010254
619.0	15.65361	5.446317	9.177576	0.836909	3.828454	-2.56389	-0.697266	0.102051	-0.055176
620.0	16.169987	2.699252	8.977228	0.092758	3.175981	-2.594606	-0.6875	0.082764	-0.102783
621.0	17.150679	-0.913947	7.800306	-0.131741	2.683169	-2.739894	-0.677734	0.056641	-0.134033
622.0	17.40896	-1.498548	7.200082	0.332245	2.416099	-2.82508	-0.66333	0.030518	-0.158691
623.0	16.941056	-1.230307	6.577016	0.524995	2.048756	-2.837609	-0.658203	0.008789	-0.185547
624.0	17.567207	-0.567074	6.241684	0.830873	1.71122	-2.798325	-0.643799	-0.019287	-0.210205
625.0	19.604061	0.651689	6.177244	0.836192	1.429697	-2.696866	-0.63623	-0.038818	-0.228027
626.0	22.339755	1.52893	5.286765	0.586989	1.460518	-2.579693	-0.622314	-0.05835	-0.241211
627.0	22.960388	1.561822	3.681522	0.164077	1.482484	-2.355487	-0.61499	-0.075684	-0.256836
628.0	26.134107	-2.334183	1.026404	-0.340316	1.513793	-2.343023	-0.605957	-0.08667	-0.270508
629.0	34.015778	-7.141003	-3.907541	-0.353605	1.911759	-2.535468	-0.583252	-0.104004	-0.28833
630.0	35.104759	-9.190788	-13.244245	0.206559	2.84996	-2.606084	-0.571777	-0.118896	-0.31543
631.0	24.519877	-10.838911	-13.691644	1.229912	3.259894	-2.332972	-0.549072	-0.13623	-0.324219
632.0	13.218595	-8.494855	-9.336446	2.073254	2.48102	-1.73546	-0.543945	-0.153809	-0.335205
633.0	0.592937	2.297868	-9.503237	0.783154	0.586775	-0.26571	-0.550537	-0.153809	-0.319336
634.0	-0.948752	-3.08553	1.57151	-0.28128	-2.852478	0.124546	-0.557373	-0.14502	-0.319336
635.0	-2.445492	2.22435	-24.145328	-0.972583	-4.1338	1.420103	-0.575439	-0.134277	-0.296875
636.0	-7.113734	23.888838	3.721679	-0.330823	-4.123198	3.809478	-0.598389	-0.106201	-0.276855
637.0	-1.126729	9.324264	29.236671	-6.73378	-5.081983	3.575423	-0.615234	-0.071533	-0.254639
638.0	20.998646	-12.597759	7.534998	-5.97515	-5.600831	2.231097	-0.638428	-0.043213	-0.232422
639.0	30.644478	-14.550746	18.819975	-0.111309	-4.546976	1.650502	-0.651855	-0.034668	-0.200684
640.0	39.269195	4.747895	33.484343	-1.843745	-2.664003	2.340852	-0.655029	-0.012939	-0.203369
641.0	29.228804	-29.39234	4.503966	-4.53373	0.105867	0.984366	-0.650635	-0.010742	-0.205811
642.0	4.850771	-0.034475	10.919356	3.276188	1.395724	0.507322	-0.650879	-0.008545	-0.214844
643.0	-9.019418	15.980672	11.438946	-0.491527	-0.076696	0.512892	-0.653076	-0.006348	-0.210449
644.0	3.511247	4.004283	9.015682	-2.91836	-1.977419	-0.120706	-0.657471	-0.00415	-0.196777
645.0	14.323144	-5.880619	6.602155	-1.018923	-1.012461	0.142631	-0.657715	0.000244	-0.196777
646.0	6.546569	1.093813	10.714149	0.100401	0.050775	0.229258	-0.658203	0.008789	-0.199219
647.0	2.270396	5.147508	8.569867	-0.661969	-0.214053	0.184629	-0.658203	0.013184	-0.190186
648.0	5.424529	1.372658	9.438473	-0.710691	-0.659385	0.125448	-0.658203	0.008789	-0.190186
649.0	8.759142	-0.951972	8.404888	-0.357471	-0.286523	0.087999	-0.656006	0.008789	-0.187988
650.0	5.649856	0.297242	9.227496	0.000299	0.037584	0.039749	-0.658203	0.013184	-0.190186
651.0	4.911537	1.516727	8.810279	0.012943	-0.040378	0.008155	-0.662598	0.010986	-0.185547
652.0	5.80826	0.72069	8.747126	-0.043196	-0.061636	-0.003825	-0.656006	0.013184	-0.194824
653.0	5.439514	1.157381	8.819281	0.089069	0.052487	-0.006168	-0.662598	0.013184	-0.192627
654.0	5.047015	1.876545	8.697045	0.007883	0.023172	0.003492	-0.660645	0.015381	-0.18335
655.0	5.16796	1.076595	8.900832	-0.050474	0.019103	0.005026	-0.666748	0.008789	-0.187988
656.0	5.337584	0.887726	8.775621	-0.003922	0.007354	-0.005993	-0.6604	0.010986	-0.18335
657.0	5.066799	1.030168	8.870819	0.06493	0.0013	-0.03424	-0.6604	0.008789	-0.187988
658.0	5.133941	1.088101	8.888843	0.1136	-0.017823	-0.040434	-0.662598	0.010986	-0.187988
659.0	5.13034	1.218224	8.800479	0.145911	-0.039655	-0.048974	-0.658203	0.010986	-0.187988
660.0	5.305534	1.439816	8.673947	0.165519	-0.034268	-0.047743	-0.656006	0.008789	-0.187988
661.0	5.239581	1.387144	8.707096	0.142217	-0.035315	-0.041097	-0.662354	0.008789	-0.190186
662.0	5.305275	1.380348	8.782865	0.121353	-0.024992	-0.036448	-0.662598	0.013184	-0.185791
663.0	5.250524	1.315803	8.730814	0.090684	-0.017371	-0.032405	-0.669189	0.010986	-0.18335
664.0	5.105143	1.520151	8.678313	0.056041	-0.008126	-0.020041	-0.662598	0.010986	-0.185547
665.0	5.006905	1.56092	8.804251	-0.01347	-0.021487	-0.018828	-0.6604	0.010986	-0.18335
666.0	5.183701	1.549272	8.774042	-0.085002	-0.022721	-0.004428	-0.656006	0.010986	-0.18335
667.0	5.227177	1.462353	8.759589	-0.16453	-0.019258	0.002346	-0.657959	0.006592	-0.187744
668.0	5.07461	1.455365	8.83561	-0.230575	-0.006801	0.005821	-0.662842	0.017578	-0.181152
669.0	5.218257	1.393404	8.745109	-0.35074	-0.02023	0.006517	-0.662598	0.013184	-0.185791
670.0	5.043335	1.599996	8.577017	-0.362479	0.00059	0.008782	-0.669189	0.010986	-0.18335
671.0	5.252592	1.24786	8.660966	-0.384678	-0.035835	0.014076	-0.6604	0.010986	-0.187988
672.0	5.067966	0.863971	8.771538	-0.286046	-0.021375	0.0051	-0.665283	0.021973	-0.183594
673.0	4.841364	1.200987	8.921106	-0.220306	-0.087797	-0.009895	-0.662842	0.015381	-0.18335
674.0	5.268405	1.205445	8.714321	-0.224998	-0.108192	-0.014486	-0.662842	0.015381	-0.181152
675.0	5.610809	0.684275	8.678636	-0.243773	-0.073836	-0.019196	-0.662842	0.017578	-0.185791
676.0	5.097314	1.342463	9.093504	-0.16482	-0.064554	-0.017199	-0.665039	0.019775	-0.185791
677.0	5.448773	1.09343	8.66084	-0.293956	-0.035242	-0.016325	-0.665039	0.017578	-0.181152
678.0	5.222068	1.133922	8.799277	-0.234515	-0.018132	-0.007571	-0.662842	0.017578	-0.187988
679.0	5.332775	1.081902	8.748633	-0.264747	-0.025308	0.000101	-0.662842	0.017578	-0.187988
680.0	5.376194	1.008952	8.731439	-0.229246	0.00191	0.010551	-0.660889	0.019775	-0.181152
681.0	5.201717	1.049979	8.871812	-0.199407	0.004329	0.003534	-0.660645	0.017578	-0.183594
682.0	5.197535	0.914923	8.98766	-0.191371	-0.01328	0.006909	-0.665039	0.019775	-0.183594
683.0	5.173719	0.7565	9.003947	-0.104479	-0.044496	-0.010152	-0.660889	0.019775	-0.183594
684.0	5.187807	1.04326	8.990208	-0.043937	-0.072978	-0.021708	-0.663086	0.021973	-0.181396
685.0	5.113928	0.953531	9.218802	-0.054133	-0.086964	-0.023783	-0.660645	0.015381	-0.181152
686.0	5.175989	0.879145	9.216518	0.027667	-0.129571	-0.038993	-0.66333	0.026367	-0.183594
687.0	5.087028	0.769916	9.28902	0.072749	-0.164199	-0.048296	-0.662598	0.013184	-0.174316
688.0	4.651645	0.642574	9.643345	0.213351	-0.227035	-0.064274	-0.662842	0.019775	-0.174316
689.0	4.722217	0.589746	9.226062	0.533495	-0.391948	-0.073225	-0.665039	0.017578	-0.174316
690.0	4.434796	0.65978	9.038105	0.91065	-0.50399	-0.049166	-0.664795	0.013184	-0.174316
691.0	3.983541	1.292017	9.954131	0.643238	-0.603721	-0.128431	-0.669189	0.015381	-0.169678
692.0	4.850478	0.939871	8.362075	1.100087	-0.915704	-0.081979	-0.666748	0.004395	-0.1604
693.0	4.456516	1.417115	9.032648	0.986537	-1.018506	-0.066796	-0.668701	0.004395	-0.155762
694.0	3.80025	1.331513	8.503735	1.426382	-1.428921	-0.05358	-0.677734	0.006348	-0.142334
695.0	4.046634	1.971745	7.489062	1.543675	-1.94124	-0.025601	-0.681396	-0.004639	-0.125977
696.0	0.803748	1.071068	9.062929	2.054172	-2.613353	0.096569	-0.675049	-0.004639	-0.110107
697.0	-0.82385	1.547043	9.817781	2.499406	-3.920093	0.248886	-0.690186	-0.004639	-0.075928
698.0	0.602403	2.924099	12.148262	1.883275	-5.414667	0.524838	-0.69458	-0.002686	-0.034912
699.0	2.396493	2.404396	11.880839	0.523613	-6.564588	0.737219	-0.698975	-0.000732	0.010742
700.0	4.794254	1.926684	10.661191	0.135003	-7.378391	0.981572	-0.708496	0.014404	0.058105
701.0	5.951347	2.14197	12.11737	0.252909	-7.786533	1.290477	-0.701904	0.016602	0.108398
702.0	7.945909	4.339033	14.929487	0.507925	-8.176964	1.505735	-0.698242	0.031738	0.162598
703.0	5.476835	5.35284	10.051408	0.475563	-8.82171	1.801636	-0.692383	0.044678	0.223877
704.0	30.77014	5.721141	13.522026	0.046806	-8.662249	2.893634	-0.682373	0.066406	0.269043
705.0	8.541462	0.625243	12.733499	1.565473	-8.361583	2.653117	-0.652344	0.077393	0.321289
706.0	11.017322	8.237464	17.270286	1.37729	-10.955013	2.240658	-0.618164	0.094971	0.371094
707.0	16.452225	8.92247	13.12531	1.214996	-9.525612	2.319609	-0.577393	0.110352	0.418457
708.0	21.588853	13.155888	13.319889	0.532457	-10.015403	1.597337	-0.531738	0.112793	0.473145
709.0	36.595435	0.002459	15.206001	-1.191699	-7.533661	2.91057	-0.501709	0.121582	0.48877
710.0	18.052406	13.853297	26.468524	3.005648	-5.773761	3.124127	-0.457031	0.145996	0.51123
711.0	9.675265	14.347625	36.463968	-1.426435	-3.137533	2.654885	-0.447998	0.139404	0.518066
712.0	-7.016694	3.51712	7.421658	-3.339999	0.114751	3.945663	-0.437256	0.143799	0.522461
713.0	16.050868	5.290619	7.21645	0.397178	-5.080324	2.217121	-0.424316	0.145996	0.529297
714.0	32.644751	-1.593284	36.995365	2.043107	1.687784	0.755313	-0.440186	0.163574	0.508545
715.0	6.966272	10.129653	22.542212	3.136301	5.241577	0.171442	-0.468994	0.169922	0.474121
716.0	-7.052943	11.122359	8.87971	1.490189	5.19307	0.307598	-0.490967	0.17627	0.448975
717.0	-2.171544	8.669422	10.180088	0.5172	4.303082	0.673347	-0.510498	0.171875	0.421875
718.0	-1.293179	5.052672	6.561796	0.296208	4.795356	0.928616	-0.528076	0.174072	0.383057
719.0	-1.678627	4.615482	5.926976	0.323836	4.699355	0.925157	-0.547607	0.171875	0.360352
720.0	0.264253	4.092107	5.97184	0.291546	4.656694	0.768541	-0.554199	0.17627	0.325928
721.0	2.016655	4.375873	5.893448	0.34172	4.80253	0.519451	-0.560547	0.169922	0.285156
722.0	3.465389	3.913976	5.790713	0.379593	5.031183	0.159215	-0.564941	0.167725	0.262451
723.0	4.545096	3.237979	5.909005	0.598184	5.362911	-0.273133	-0.569092	0.16333	0.223877
724.0	4.660813	3.101765	6.263858	0.884741	5.646828	-0.723701	-0.566406	0.152588	0.192139
725.0	5.471602	2.888756	6.730717	1.079492	5.777575	-1.152954	-0.570557	0.148193	0.157959
726.0	6.33553	2.814647	7.227564	1.224788	5.909736	-1.486872	-0.561523	0.141846	0.130615
727.0	7.147855	2.554432	7.667796	1.309239	5.973489	-1.739618	-0.552246	0.131104	0.105957
728.0	8.334755	1.931694	8.467074	1.399446	6.002257	-1.909663	-0.543213	0.122559	0.071777
729.0	9.807899	1.29366	9.173389	1.5281	6.026529	-1.982448	-0.530273	0.124756	0.044434
730.0	11.691058	0.758943	10.532044	1.758855	6.100843	-1.986238	-0.521729	0.131348	0.014648
731.0	13.853907	-0.14587	11.282958	1.915965	6.104003	-1.959329	-0.515381	0.133789	-0.010498
732.0	16.74274	-2.058158	11.339918	2.299002	6.038103	-1.964983	-0.51123	0.138184	-0.031006
733.0	19.018819	-2.454335	10.563502	3.052758	6.122162	-1.979156	-0.511475	0.144775	-0.062988
734.0	18.801727	-0.295669	9.543844	3.49507	6.057333	-2.052475	-0.511475	0.142822	-0.122314
735.0	17.669245	2.737156	8.805033	3.529556	5.857321	-2.083073	-0.495605	0.127686	-0.172119
736.0	17.413483	5.600949	9.964089	2.889657	5.370641	-2.079372	-0.453125	0.108398	-0.215088
737.0	18.523518	4.937349	9.247077	1.853875	4.815015	-2.135146	-0.394775	0.06958	-0.228027
738.0	18.606495	4.582054	8.444873	1.169391	4.203378	-2.26135	-0.330566	0.045898	-0.202637
739.0	19.097141	2.630072	7.290325	0.524899	3.427995	-2.436625	-0.286133	0.032959	-0.147705
740.0	19.132212	-0.352772	6.074333	0.380108	2.757994	-2.666516	-0.273438	0.037354	-0.081787
741.0	18.311182	-3.952445	4.543573	0.625097	2.169421	-2.982252	-0.29126	0.045654	-0.024902
742.0	17.556252	-6.131584	4.62249	1.384991	1.74436	-3.332312	-0.321777	0.049805	0.011475
743.0	17.935598	-5.786871	4.36227	1.850896	1.352447	-3.609871	-0.354492	0.047363	0.029785
744.0	19.746677	-4.297839	3.452334	2.097097	0.968676	-3.736616	-0.382568	0.040527	0.039063
745.0	23.084746	-3.400916	2.26306	2.047589	0.650732	-3.724733	-0.403809	0.027344	0.039307
746.0	31.292125	-5.332862	0.844074	1.976983	0.485717	-3.826188	-0.414063	0.01416	0.041992
747.0	43.544143	-5.593044	-2.684941	1.606126	1.277677	-4.011416	-0.424072	-0.005371	0.0354
748.0	41.000379	-4.14316	-16.002529	1.063165	2.471874	-3.700059	-0.429932	-0.018555	0.026611
749.0	26.111589	-7.449287	-13.912994	0.583082	2.913482	-2.638718	-0.431885	-0.025146	0.015381
750.0	12.094214	-5.772332	-6.096875	-0.177337	1.872645	-0.961102	-0.437012	-0.009766	0.012695
751.0	6.183574	-1.259589	-4.068729	-2.033215	0.625605	1.022904	-0.435059	-0.001221	0.014893
752.0	-7.599772	-5.403725	4.450511	-2.849074	-3.611086	2.740141	-0.438232	0.020508	0.037354
753.0	-9.014962	-13.841409	-17.135335	-3.233696	-3.622682	3.231725	-0.43042	0.040283	0.066406
754.0	10.665413	8.467402	2.319858	-1.019646	-5.09782	3.151387	-0.420654	0.062012	0.095703
755.0	2.337299	28.234459	26.345303	-1.080232	-2.310893	3.727038	-0.417236	0.085938	0.115723
756.0	9.167627	14.798636	22.112836	-8.221674	-4.312745	3.447567	-0.404541	0.096924	0.154297
757.0	16.241804	-38.969223	-3.975418	-6.532127	-4.435465	1.262801	-0.39209	0.110107	0.178955
758.0	28.29729	11.106916	31.591143	5.270529	-3.795904	2.880646	-0.375488	0.127441	0.199219
759.0	35.915401	-7.569168	24.493718	-9.502547	-2.424532	1.719035	-0.377197	0.116699	0.213135
760.0	23.422141	-32.626417	-4.923181	0.640644	0.854711	0.601546	-0.373535	0.131836	0.203613
761.0	-6.808312	15.598658	14.949854	2.693473	1.236622	0.628322	-0.373291	0.125488	0.203857
762.0	-5.981319	18.743797	13.753543	-2.839126	-1.701225	0.465415	-0.366699	0.125488	0.221924
763.0	11.353346	-4.883126	6.725851	-3.764749	-2.201583	-0.0414	-0.36377	0.112305	0.229004
764.0	14.792917	-11.539254	9.120735	-0.306699	-0.334872	0.195865	-0.366455	0.123291	0.224365
765.0	5.481413	6.014118	7.963425	0.9263	0.448153	0.164707	-0.366455	0.121094	0.224365
766.0	4.413357	2.650656	10.078989	-1.116566	-0.181067	-0.001912	-0.364258	0.123291	0.226563
767.0	6.594671	-2.171037	7.654097	-0.148894	0.053054	-0.039026	-0.368652	0.118896	0.229004
768.0	4.769709	2.945909	9.344966	0.085827	0.063443	-0.010166	-0.364258	0.123291	0.224365
769.0	4.934868	0.648412	8.508511	-0.24247	-0.037881	-0.02145	-0.364258	0.121094	0.226563
770.0	4.738587	1.38531	9.206317	-0.11301	-0.056628	-0.00741	-0.366455	0.123291	0.22876
771.0	5.519589	1.741738	8.422257	-0.203777	-0.081864	-0.004649	-0.364014	0.116699	0.226807
772.0	5.016093	1.278437	8.977823	-0.275441	-0.050992	0.011855	-0.362061	0.118896	0.229004
773.0	5.491097	0.898698	8.749099	-0.169467	-0.075935	-0.007974	-0.366211	0.114502	0.231201
774.0	5.344	1.179399	8.858618	-0.158574	-0.056066	0.001647	-0.366455	0.123047	0.235596
775.0	5.518001	0.582772	8.804152	-0.080817	-0.068672	-0.011985	-0.364258	0.118896	0.233398
776.0	5.281649	0.891552	9.008062	0.002579	-0.064631	-0.023977	-0.362061	0.118896	0.23584
777.0	5.339039	0.801962	8.849415	0.0199	-0.070875	-0.035227	-0.362061	0.121094	0.231201
778.0	5.372535	0.973495	8.797809	0.066107	-0.079971	-0.043613	-0.359863	0.121094	0.233398
779.0	5.307565	0.914041	8.775608	0.088367	-0.075965	-0.054302	-0.359619	0.114502	0.231201
780.0	5.294763	1.073124	8.745513	0.113926	-0.083186	-0.060416	-0.362305	0.123291	0.235596
781.0	5.341075	1.150577	8.691115	0.082997	-0.074605	-0.05587	-0.362061	0.118896	0.23584
782.0	5.269863	1.202116	8.80183	0.070189	-0.058667	-0.051439	-0.366455	0.121094	0.231201
783.0	5.414867	1.253845	8.621148	0.025946	-0.059859	-0.042286	-0.357666	0.121094	0.23584
784.0	5.365909	1.319959	8.721403	-0.010244	-0.02676	-0.034927	-0.364258	0.123291	0.22876
785.0	5.502898	1.19562	8.581469	-0.053227	-0.010202	-0.027332	-0.362061	0.121094	0.231201
786.0	5.288819	1.024	8.691963	-0.063251	-0.00834	-0.021572	-0.364502	0.125244	0.235596
787.0	5.287197	1.03113	8.800733	-0.036363	-0.008033	-0.029647	-0.360107	0.123291	0.231201
788.0	5.18832	1.015276	8.821372	-0.043579	-0.033615	-0.030969	-0.364258	0.121094	0.23584
789.0	5.442401	0.89483	8.814692	0.013303	0.002236	-0.037094	-0.362061	0.121094	0.238037
790.0	5.02416	0.776991	8.991994	-0.028497	-0.057783	-0.061354	-0.362061	0.121094	0.238037
791.0	5.063777	1.190975	8.897526	0.124914	-0.028547	-0.05238	-0.359863	0.118896	0.233398
792.0	5.271923	1.093899	8.720853	0.030076	-0.0859	-0.0675	-0.364258	0.121094	0.238037
793.0	5.155939	1.276928	8.928018	0.019425	-0.072573	-0.062517	-0.361816	0.114502	0.238037
794.0	5.301816	1.472889	8.766037	-0.058991	-0.069894	-0.039573	-0.359619	0.114502	0.240479
795.0	5.21139	1.230687	8.794806	-0.14632	-0.079778	-0.033084	-0.359619	0.116699	0.23584
796.0	5.243587	1.151892	8.864747	-0.104992	-0.077432	-0.029644	-0.357666	0.118896	0.242676
797.0	5.290587	1.056412	8.73811	-0.101006	-0.103176	-0.032429	-0.361816	0.112305	0.240479
798.0	5.316214	1.125611	8.748699	-0.047306	-0.113203	-0.038788	-0.359863	0.121094	0.233398
799.0	5.233305	1.063909	8.790536	0.007231	-0.137827	-0.034634	-0.361816	0.114502	0.240479
800.0	5.046368	1.049341	8.879947	0.156737	-0.188324	-0.056222	-0.359619	0.116699	0.244873
801.0	5.340937	0.825211	8.826408	0.294596	-0.223433	-0.065103	-0.361816	0.112305	0.238281
802.0	4.934857	1.133282	8.977422	0.455804	-0.332531	-0.061597	-0.357666	0.121094	0.244873
803.0	5.066517	1.043901	8.857798	0.618792	-0.398578	-0.058074	-0.359619	0.114502	0.242676
804.0	4.691912	1.160203	9.031992	0.71555	-0.488659	-0.073016	-0.355469	0.118896	0.242676
805.0	3.626195	0.945822	9.697809	0.600079	-0.657751	-0.125246	-0.355225	0.114502	0.244873
806.0	4.560502	1.016237	8.579804	1.290247	-1.000529	-0.124494	-0.351318	0.125488	0.251709
807.0	5.118419	1.958908	8.544689	1.08888	-1.161823	-0.110827	-0.353271	0.118896	0.256348
808.0	4.276163	1.576376	8.641497	1.555373	-1.437524	-0.097258	-0.349365	0.127686	0.260742
809.0	4.309705	2.033884	8.818958	1.398515	-1.866108	-0.106652	-0.342773	0.127686	0.265137
810.0	2.650713	1.429405	7.935875	1.899676	-2.478176	-0.029897	-0.338623	0.13208	0.271973
811.0	1.293614	2.371154	10.100838	2.005432	-3.359165	0.093196	-0.329834	0.13208	0.285645
812.0	1.178489	2.750993	11.172174	1.281862	-4.485115	0.269374	-0.317383	0.143066	0.294434
813.0	2.184676	3.631922	12.174906	0.311757	-5.580627	0.543345	-0.299805	0.145264	0.326416
814.0	3.280797	2.870226	10.481339	-0.462789	-6.444342	0.841373	-0.27832	0.149658	0.342285
815.0	5.255604	2.828848	11.086432	-0.424831	-7.157842	1.181651	-0.247314	0.138916	0.367432
816.0	7.999421	4.009206	12.355519	-0.068891	-7.643745	1.555361	-0.219238	0.145508	0.383301
817.0	5.336316	4.2289	11.666593	-0.0021	-7.709653	1.925562	-0.191162	0.152344	0.398926
818.0	8.493769	6.013918	12.317841	-0.035061	-8.863447	2.2113	-0.145752	0.158936	0.423828
819.0	26.391455	4.176848	16.202114	-0.151813	-8.516621	2.94683	-0.119873	0.165771	0.4375
820.0	9.566457	-2.284248	10.017501	0.539851	-8.885421	2.172777	-0.074463	0.176758	0.450928
821.0	12.796825	7.178512	14.070237	1.72093	-10.561573	1.791448	-0.044434	0.187988	0.459717
822.0	17.324481	12.997934	14.411909	1.720645	-9.268725	2.12902	0.000488	0.207764	0.463867
823.0	29.666971	10.789377	16.950506	0.731278	-9.921054	2.903861	0.037354	0.212402	0.479492
824.0	30.272141	4.335768	18.974091	-0.39969	-6.204469	3.140269	0.047363	0.232178	0.488281
825.0	23.480829	16.363823	32.191578	1.247028	-5.214938	2.880635	0.040283	0.245117	0.501709
826.0	3.115048	13.480394	37.946625	-1.330914	-0.257741	2.778471	0.002441	0.26001	0.52417
827.0	-10.22978	5.342841	-32.945939	-5.020085	0.213239	3.220912	-0.001709	0.257813	0.547119
828.0	30.450938	2.118466	56.8532	3.586831	-6.018147	-0.745483	-0.036133	0.29248	0.541992
829.0	25.065175	10.812947	24.60522	1.438736	5.658366	-0.027973	-0.115479	0.311768	0.534912
830.0	-9.794399	11.19721	8.473037	0.645282	5.166234	-0.113967	-0.194824	0.330811	0.520752
831.0	-4.407914	8.552185	11.552871	-0.735406	3.426075	0.044439	-0.261963	0.323975	0.496094
832.0	1.918131	3.180614	8.407949	-0.857687	4.266059	0.417142	-0.320801	0.321533	0.443604
833.0	-1.234117	3.879456	7.250056	-0.247557	4.419466	0.538751	-0.35791	0.321533	0.395996
834.0	0.83202	3.265739	6.957951	-0.303367	4.381146	0.481068	-0.36377	0.303955	0.334717
835.0	2.127399	3.867383	6.524951	-0.089357	4.648135	0.372616	-0.34375	0.297852	0.293701
836.0	3.177537	3.662032	5.516477	0.111502	4.940786	0.169632	-0.281982	0.280762	0.266602
837.0	4.026057	4.13571	6.091913	0.436031	5.221635	-0.127866	-0.225098	0.278809	0.282715
838.0	4.405214	4.476561	6.244496	0.585103	5.464795	-0.462925	-0.188232	0.283447	0.323486
839.0	4.892493	4.74296	6.372431	0.693699	5.620957	-0.774037	-0.20166	0.291992	0.382568
840.0	5.696113	4.750658	6.551545	0.706699	5.685024	-1.058927	-0.272217	0.304443	0.439453
841.0	6.481805	4.489668	6.978016	0.715736	5.754686	-1.294844	-0.376953	0.305908	0.476074
842.0	7.124551	3.61249	7.431764	0.725212	5.810211	-1.505764	-0.496826	0.307129	0.469238
843.0	8.11582	2.662629	7.912422	0.885094	5.836225	-1.691913	-0.609375	0.286865	0.431152
844.0	9.121082	1.683938	8.549092	1.154447	5.891274	-1.863858	-0.704102	0.258057	0.370117
845.0	10.453463	1.110169	9.334454	1.565775	5.940192	-1.984522	-0.778809	0.220703	0.298096
846.0	12.141501	1.263991	10.65203	1.99478	6.010621	-2.066072	-0.835938	0.181396	0.212402
847.0	14.289866	1.745969	11.365637	2.296928	6.068357	-2.077789	-0.873291	0.139893	0.126709
848.0	17.274077	1.503512	11.928004	2.51013	5.963492	-2.034757	-0.897705	0.100586	0.036133
849.0	19.920143	-0.541915	9.558888	2.715674	5.871772	-2.17076	-0.895996	0.059326	-0.038086
850.0	17.840512	2.772199	9.27914	3.465523	5.763957	-2.314428	-0.885254	0.013672	-0.119385
851.0	17.465143	4.997788	9.625158	2.750217	5.216617	-2.413061	-0.858887	-0.03833	-0.179932
852.0	17.762016	4.089409	9.121934	2.249395	4.790526	-2.542524	-0.813477	-0.074951	-0.236084
853.0	18.135633	3.070985	9.429515	1.47993	4.213083	-2.733543	-0.770508	-0.11377	-0.265137
854.0	19.841138	-0.295024	7.420779	1.082884	3.506262	-2.967189	-0.72998	-0.139648	-0.291992
855.0	22.420669	-0.24718	7.308288	1.221596	3.074156	-3.072812	-0.691895	-0.161377	-0.302979
856.0	24.214448	1.215036	6.364791	0.921761	2.660612	-2.991994	-0.662842	-0.17627	-0.302734
857.0	25.466609	1.708584	5.008727	0.46585	2.373201	-2.706503	-0.633789	-0.193604	-0.318359
858.0	26.969462	1.018779	3.548885	-0.085681	2.26732	-2.390671	-0.60791	-0.188965	-0.320801
859.0	28.307779	-0.149081	1.167302	-0.480932	2.290406	-2.129593	-0.590088	-0.193359	-0.327637
860.0	29.895482	-3.285921	-2.320254	-0.66225	2.334293	-2.020842	-0.574951	-0.193115	-0.345703
861.0	34.758485	-11.180677	-7.023664	-0.381707	2.159093	-2.259192	-0.559082	-0.203857	-0.3479
862.0	41.400892	-18.717607	-16.18237	0.370518	2.484913	-2.779404	-0.537109	-0.212646	-0.361328
863.0	30.520591	-12.717473	-17.548572	1.880606	3.036376	-2.333647	-0.520996	-0.227783	-0.36792
864.0	14.397107	-0.715051	-10.732006	0.462174	2.18711	-0.700024	-0.517334	-0.2146	-0.375
865.0	-4.291396	0.491788	1.95892	-1.231832	-2.782303	1.290608	-0.539551	-0.20166	-0.364014
866.0	-3.520365	-7.601763	-22.359347	-5.240184	-3.830433	1.980782	-0.556152	-0.17334	-0.348389
867.0	-0.21992	4.994852	-9.175775	-0.89678	-5.04072	2.963082	-0.581055	-0.151855	-0.330566
868.0	2.710049	10.514398	32.192513	-3.025383	-3.643665	2.710752	-0.5979	-0.116943	-0.31543
869.0	9.598346	1.07964	25.113458	-5.596097	-4.276639	2.145121	-0.616699	-0.08667	-0.293213
870.0	20.865673	-32.623743	-1.561787	-3.918153	-4.688603	0.368985	-0.625488	-0.08667	-0.272705
871.0	20.372523	-8.438764	19.182385	4.200113	-3.940593	0.250647	-0.642822	-0.089111	-0.24292
872.0	25.221976	24.658626	39.542936	-0.744151	-3.649804	2.575374	-0.650635	-0.058594	-0.232178
873.0	36.504798	-17.307881	-1.848552	-7.58292	-1.669254	0.866755	-0.65332	-0.047607	-0.236816
874.0	7.783504	-5.242612	9.584082	4.151062	0.973188	0.207182	-0.648926	-0.052002	-0.234619
875.0	-9.300294	5.43005	10.76299	-0.127231	-0.235534	-0.011778	-0.657471	-0.054199	-0.225342
876.0	5.787451	9.004525	11.452326	-0.391123	-1.811428	0.533765	-0.657959	-0.045654	-0.214111
877.0	10.450005	0.968221	9.469808	-2.288612	-1.299568	0.326738	-0.660645	-0.034668	-0.212158
878.0	11.652325	-5.104656	9.000511	-1.081649	-0.602154	0.233042	-0.658447	-0.030273	-0.20752
879.0	5.776208	2.466086	9.00735	-0.272603	-0.018463	0.162649	-0.656006	-0.036865	-0.20752
880.0	4.473902	3.342669	7.568138	-0.413605	-0.220624	0.099752	-0.660645	-0.032471	-0.203125
881.0	6.315651	-0.114578	10.005278	-0.38041	-0.208773	0.107993	-0.666992	-0.036865	-0.205322
882.0	6.021482	-0.244207	8.878355	-0.093046	-0.06254	0.052021	-0.665039	-0.030518	-0.209961
883.0	4.76489	2.449465	7.952338	0.05365	-0.035234	0.022815	-0.662842	-0.030518	-0.205322
884.0	5.11944	1.865907	9.64368	-0.140397	-0.173014	0.015027	-0.667236	-0.02832	-0.207764
885.0	6.88196	0.52478	8.162509	-0.215547	-0.074211	0.003223	-0.667236	-0.02832	-0.205322
886.0	5.271192	1.359842	8.639658	-0.042088	0.016778	-0.032654	-0.665039	-0.030518	-0.20752
887.0	5.358084	1.607445	8.715141	-0.025058	-0.036786	-0.030712	-0.665039	-0.030518	-0.205322
888.0	5.607503	0.805552	8.658353	0.037333	-0.030746	-0.042254	-0.663086	-0.02832	-0.205322
889.0	5.370332	1.349694	8.727592	0.104105	-0.018297	-0.054718	-0.660889	-0.02832	-0.200928
890.0	5.51711	1.178165	8.670736	0.128998	-0.019937	-0.063619	-0.662842	-0.032471	-0.205322
891.0	5.598608	1.256702	8.597953	0.160049	0.000564	-0.068378	-0.664795	-0.034668	-0.205322
892.0	5.507127	1.4459	8.543488	0.180718	0.035526	-0.067103	-0.667236	-0.02832	-0.207764
893.0	5.519747	1.210405	8.691952	0.192468	0.043289	-0.069557	-0.671387	-0.034912	-0.202881
894.0	5.560385	1.275312	8.667019	0.191264	0.069736	-0.078145	-0.660645	-0.032471	-0.205322
895.0	5.05161	1.771749	8.537077	0.189142	0.109071	-0.06746	-0.6604	-0.034668	-0.205322
896.0	4.728983	2.122197	8.547352	0.105045	0.073068	-0.037433	-0.667236	-0.030518	-0.20752
897.0	4.85661	2.115887	8.487601	0.029902	0.033505	-0.003318	-0.666992	-0.034668	-0.212158
898.0	4.987693	1.915055	8.526321	-0.064757	0.005217	0.030974	-0.662842	-0.030518	-0.205322
899.0	5.231869	1.509639	8.612219	-0.130644	-0.025847	0.03835	-0.662842	-0.030273	-0.209961
900.0	5.236878	1.068874	9.00144	-0.206314	-0.03335	0.034487	-0.663086	-0.02832	-0.203125
901.0	4.996322	2.051216	8.435289	-0.312456	-0.03591	0.030092	-0.667236	-0.030518	-0.20752
902.0	5.418582	2.427701	8.618086	-0.567309	-0.04947	0.066136	-0.66748	-0.026123	-0.205322
903.0	5.375209	1.455758	8.371928	-0.835712	0.073068	0.085791	-0.660889	-0.028076	-0.207764
904.0	5.099535	1.320264	8.625655	-0.767578	0.026028	0.094181	-0.667725	-0.019531	-0.207764
905.0	5.645672	-0.795977	9.038923	-0.58241	-0.008487	0.041281	-0.66333	-0.021729	-0.205566
906.0	4.846013	1.114039	8.980013	-0.251036	-0.042946	-0.014164	-0.661133	-0.019531	-0.212402
907.0	5.500782	1.150299	8.56487	-0.276974	-0.084085	-0.021716	-0.667725	-0.021729	-0.203125
908.0	5.31316	1.299703	8.754185	-0.240635	-0.073487	-0.018402	-0.669922	-0.019531	-0.205566
909.0	5.20516	1.597601	8.684419	-0.26548	-0.070093	-0.007483	-0.665283	-0.023926	-0.207764
910.0	5.665155	0.741134	9.101957	-0.399343	-0.103102	0.007714	-0.665771	-0.017334	-0.205566
911.0	5.523934	0.623706	8.687243	-0.153052	-0.020591	-0.016956	-0.656738	-0.021729	-0.207764
912.0	5.133044	1.267323	9.116834	-0.204369	-0.07752	-0.01107	-0.667969	-0.015137	-0.201172
913.0	5.261778	1.209894	8.978243	-0.214846	-0.076917	-0.002592	-0.667725	-0.019531	-0.210205
914.0	5.256539	1.139512	8.957337	-0.246589	-0.091265	0.011079	-0.660889	-0.023926	-0.207764
915.0	5.142837	0.942217	9.180822	-0.188341	-0.110696	0.009718	-0.665771	-0.015137	-0.19873
916.0	5.183667	0.587838	9.171933	-0.040977	-0.184531	-0.022165	-0.672363	-0.015137	-0.19873
917.0	4.976233	0.73744	9.346107	0.138201	-0.229802	-0.039574	-0.672119	-0.019531	-0.196533
918.0	4.758882	0.679254	9.34201	0.408478	-0.362001	-0.030477	-0.669922	-0.019531	-0.196533
919.0	5.047399	0.621409	8.956066	0.643153	-0.452178	-0.029308	-0.669678	-0.023926	-0.189453
920.0	4.907632	0.943244	8.786194	1.063166	-0.552749	-0.045674	-0.669922	-0.019531	-0.189697
921.0	3.425945	0.416841	9.773447	0.673267	-0.734427	-0.133451	-0.673828	-0.02832	-0.187012
922.0	5.105037	1.60061	8.567613	1.490898	-1.081156	-0.092497	-0.68042	-0.026123	-0.175781
923.0	4.393435	1.900957	9.232117	1.105959	-1.226576	-0.023471	-0.68042	-0.02832	-0.171143
924.0	3.538695	2.043765	8.648852	1.359427	-1.660858	0.05296	-0.68042	-0.028564	-0.150635
925.0	3.326435	1.958682	7.659198	1.468714	-2.260355	0.15087	-0.68457	-0.032959	-0.134521
926.0	-0.168223	0.768722	9.516062	1.967093	-3.156025	0.258343	-0.687012	-0.028564	-0.109619
927.0	-0.735289	1.925861	11.080991	1.834788	-4.66098	0.381401	-0.697754	-0.028809	-0.077637
928.0	1.432395	2.039232	11.049898	0.650115	-6.164135	0.610323	-0.707031	-0.020264	-0.025391
929.0	3.764765	1.367725	10.550091	0.220535	-7.194668	0.809935	-0.711426	-0.016113	0.02002
930.0	5.853113	3.199174	11.811093	0.103329	-7.702148	1.136344	-0.709717	-0.005127	0.076904
931.0	8.528567	4.225907	13.186044	-0.202527	-7.963821	1.478918	-0.708008	0.005615	0.12915
932.0	5.961573	4.841964	11.119928	0.259206	-8.086294	1.885793	-0.702637	0.029541	0.178711
933.0	8.778297	8.192358	12.293152	0.233832	-9.031778	2.311629	-0.68335	0.040283	0.237793
934.0	18.730874	1.096599	18.421258	0.03353	-7.664178	3.349805	-0.671387	0.064453	0.27832
935.0	18.494537	3.166594	3.596828	0.811084	-9.827897	1.941824	-0.630615	0.079834	0.339355
936.0	16.360915	8.158666	17.240353	1.445749	-9.75906	2.199615	-0.594727	0.10376	0.391357
937.0	15.378919	8.401651	9.016115	2.74518	-8.582065	2.098468	-0.551758	0.121338	0.438721
938.0	38.884449	10.167232	17.91862	-0.54289	-8.98304	3.05906	-0.506836	0.13916	0.472656
939.0	14.230398	6.084087	16.107134	1.97361	-5.82141	3.338181	-0.466553	0.167725	0.49707
940.0	13.660611	16.562426	29.059269	0.039769	-5.049915	3.44615	-0.434814	0.185303	0.512695
941.0	2.345842	7.122344	29.702697	-1.982806	-2.086343	3.548774	-0.410889	0.1875	0.526123
942.0	7.805446	6.886885	-7.496053	-2.856791	-3.6609	3.201727	-0.374512	0.205322	0.546387
943.0	23.773091	8.610364	32.40102	2.26895	-1.505569	1.310597	-0.374756	0.211914	0.541748
944.0	19.102568	6.330839	29.163237	0.675705	2.560329	0.217165	-0.391113	0.233643	0.525391
945.0	4.845036	9.607413	16.438281	1.698745	5.063485	-0.244777	-0.41333	0.242188	0.502441
946.0	-2.451177	11.429354	12.384907	0.70098	4.781224	-0.190783	-0.4375	0.246582	0.484131
947.0	-0.51522	7.962813	9.959037	-0.433834	4.795673	0.101234	-0.457275	0.250732	0.46582
948.0	-1.784172	4.500011	7.48721	-0.502778	4.960438	0.247064	-0.473145	0.265869	0.454102
949.0	-0.488695	3.008276	6.60159	-0.170094	4.886735	0.094892	-0.503906	0.268066	0.438232
950.0	1.825624	3.458647	7.246766	0.234821	5.067846	-0.189102	-0.521973	0.283203	0.4104
951.0	3.60454	3.604593	6.728286	0.459527	5.398981	-0.507324	-0.550537	0.289551	0.380859
952.0	4.421901	3.539971	6.07994	0.754422	5.717631	-0.867456	-0.57959	0.302734	0.357666
953.0	4.43724	3.347336	5.918173	1.0189	5.946746	-1.253166	-0.60791	0.30249	0.319092
954.0	4.8209	3.328671	6.352519	1.166958	6.046169	-1.608592	-0.634277	0.306885	0.287109
955.0	5.700524	3.418529	6.687769	1.221551	6.122857	-1.913588	-0.664551	0.30249	0.239258
956.0	6.751895	3.509295	7.923271	1.160961	6.16828	-2.131245	-0.684326	0.302246	0.202881
957.0	7.757272	3.267831	8.691301	1.018287	6.154831	-2.266878	-0.716797	0.295654	0.150635
958.0	8.828415	2.509713	9.649051	0.906845	6.122326	-2.334251	-0.731934	0.295654	0.109619
959.0	10.486084	1.62661	10.346901	0.862647	6.200997	-2.353086	-0.755615	0.286865	0.062012
960.0	12.111837	1.374422	12.041625	1.008757	6.271738	-2.211567	-0.781494	0.280518	0.009766
961.0	15.255898	0.516297	13.157565	1.083777	6.348263	-1.965682	-0.791748	0.267334	-0.044678
962.0	17.992821	-1.247779	12.987196	1.466187	6.365414	-1.732704	-0.806641	0.258789	-0.115234
963.0	18.497923	-3.289317	11.478755	2.169934	6.351766	-1.716436	-0.810059	0.237061	-0.174072
964.0	17.358436	-1.239435	10.628396	3.116048	6.272775	-1.867754	-0.802246	0.208984	-0.250977
965.0	17.264161	1.224068	11.263433	3.091073	5.829704	-1.98928	-0.796875	0.182861	-0.316406
966.0	18.502268	0.934427	10.222157	3.003996	5.46058	-2.128228	-0.779785	0.145996	-0.370361
967.0	19.466274	1.641679	9.567924	2.776673	4.940037	-2.297895	-0.756104	0.104736	-0.415283
968.0	21.050838	1.572486	8.139999	2.42184	4.271333	-2.425727	-0.728516	0.07251	-0.458008
969.0	21.824559	1.308404	6.549228	2.099971	3.550997	-2.459337	-0.709473	0.0354	-0.482422
970.0	23.814625	1.418303	5.976453	1.773678	2.829145	-2.375338	-0.686523	0.007324	-0.506836
971.0	25.188868	0.211936	4.373513	1.388486	2.29844	-2.215076	-0.667969	-0.016602	-0.515625
972.0	27.780482	-1.587388	3.149679	1.157266	2.109083	-2.17658	-0.649414	-0.04248	-0.533203
973.0	28.968525	-4.229543	1.511989	0.959794	2.214161	-2.276344	-0.630859	-0.066406	-0.546631
974.0	30.43758	-9.566867	-1.595591	0.881837	2.159419	-2.614484	-0.612305	-0.090332	-0.54834
975.0	41.492152	-15.749782	-6.700776	0.688349	1.995532	-3.428446	-0.591309	-0.120605	-0.565918
976.0	39.457851	-7.8325	-17.297308	1.01874	2.951261	-3.259903	-0.562012	-0.140137	-0.577148
977.0	22.335432	-3.232398	-17.611079	-0.450659	2.523656	-1.641471	-0.553223	-0.144287	-0.590576
978.0	10.340074	-2.935111	-11.90901	-1.875647	1.070045	0.296292	-0.549805	-0.120361	-0.593506
979.0	-5.304924	-5.486568	1.350261	-2.303329	-3.787098	1.406424	-0.585938	-0.09668	-0.571045
980.0	-6.772249	-6.919661	-21.69933	-4.603999	-3.981155	1.852401	-0.611084	-0.070557	-0.553223
981.0	3.448952	8.317317	4.566054	-0.584656	-5.886456	2.042238	-0.64209	-0.055664	-0.523926
982.0	1.43844	13.98711	19.072425	-3.436738	-4.092801	1.740446	-0.678711	-0.020996	-0.499512
983.0	9.646062	1.438548	21.118381	-5.586369	-4.997437	1.13542	-0.701904	0.009277	-0.470459
984.0	19.637002	-29.87192	4.896844	-4.270237	-5.455632	-0.039846	-0.728027	0.01123	-0.438477
985.0	28.778948	-2.298421	24.870579	3.509945	-4.771405	1.142045	-0.745361	0.010986	-0.406494
986.0	40.90096	-2.076798	36.159335	-6.499254	-3.116413	2.797443	-0.756348	0.061035	-0.384766
987.0	30.231082	-29.624368	-8.411235	-0.18428	-0.023934	0.280145	-0.753662	0.045898	-0.398193
988.0	2.014568	10.873411	18.527657	2.102758	1.644031	0.612898	-0.749512	0.054688	-0.409668
989.0	-6.027198	7.592653	6.673564	-3.617769	-0.579796	0.488883	-0.748291	0.072021	-0.40332
990.0	-0.964007	9.545388	12.403902	0.677211	-0.255219	0.536904	-0.750732	0.078613	-0.39209
991.0	-0.690548	8.485462	7.288846	-3.128707	-2.320052	0.393626	-0.764404	0.091553	-0.371826
992.0	20.190898	-9.033899	11.43684	-1.967194	-2.021388	0.181033	-0.764893	0.102539	-0.360596
993.0	14.376088	-6.493059	2.958111	-0.612167	1.026826	0.162512	-0.766602	0.09375	-0.371826
994.0	-1.095527	6.41859	12.482059	0.960952	-0.370082	0.080901	-0.769043	0.098145	-0.369629
995.0	8.471304	-2.316971	7.650496	-1.186734	0.045182	-0.05405	-0.764648	0.100342	-0.367432
996.0	5.292902	2.213824	9.252313	0.585364	-0.03501	-0.002606	-0.764648	0.098145	-0.367188
997.0	5.424873	0.611433	8.08455	-0.328214	0.042966	-0.005195	-0.764648	0.098145	-0.371826
998.0	5.651081	1.538993	9.121904	-0.054947	0.017749	0.011568	-0.76709	0.106934	-0.369629
999.0	5.399135	0.994856	8.858161	0.058437	0.036791	0.021434	-0.766846	0.098145	-0.371826
1000.0	5.486282	0.629354	8.352903	-0.163072	0.002461	-0.000449	-0.762695	0.102539	-0.371826
1001.0	5.165394	1.278722	9.246743	0.212904	0.04088	-0.0005	-0.766602	0.095947	-0.369629
1002.0	5.564009	0.461411	8.030876	-0.091332	-0.013961	-0.008135	-0.766846	0.098145	-0.374023
1003.0	4.979535	1.912077	9.542084	0.216512	-0.001732	-0.004548	-0.769043	0.100342	-0.371826
1004.0	5.477011	1.010012	8.446096	0.187211	0.027226	0.001271	-0.764893	0.102539	-0.371826
1005.0	5.377795	1.160122	8.617235	0.026211	0.004695	0.0172	-0.766846	0.098145	-0.371826
1006.0	5.198152	0.927112	8.682816	-0.094246	-0.016857	0.010257	-0.76709	0.102539	-0.369629
1007.0	5.367013	1.091479	8.84048	-0.094659	-0.01656	0.014877	-0.762207	0.09375	-0.371826
1008.0	5.148207	0.964478	8.677438	-0.01923	0.019885	0.008048	-0.764893	0.104736	-0.367432
1009.0	5.210055	0.933873	8.704996	-0.075053	0.00665	-0.005241	-0.766846	0.100342	-0.369629
1010.0	5.29665	0.897767	8.667925	-0.022033	0.007838	-0.023525	-0.760254	0.098145	-0.369629
1011.0	5.193816	1.382586	8.880351	-0.068682	0.014525	-0.024937	-0.758301	0.100342	-0.367432
1012.0	5.373228	0.6905	8.348775	-0.076764	0.018606	-0.022345	-0.773682	0.104736	-0.37207
1013.0	5.326236	1.621486	9.080193	-0.097386	0.03821	-0.020089	-0.764648	0.098145	-0.369629
1014.0	5.276524	0.622188	8.397127	-0.444197	0.015508	-0.017368	-0.760742	0.106934	-0.369629
1015.0	5.481055	0.675331	8.251079	-0.118867	0.066822	-0.022203	-0.764893	0.104736	-0.374268
1016.0	5.342669	1.424017	8.957163	-0.255527	0.11321	-0.023178	-0.760498	0.104736	-0.367432
1017.0	5.371353	0.86482	8.433455	-0.557973	0.1064	-0.025371	-0.764893	0.104736	-0.369629
1018.0	5.378507	0.767976	7.957603	-0.523678	0.204693	-0.002969	-0.762695	0.104736	-0.37207
1019.0	5.076077	1.996453	9.458459	-0.375496	0.218683	0.046867	-0.767334	0.111328	-0.369873
1020.0	5.093384	0.66661	8.392111	-0.753309	0.209824	0.070583	-0.758789	0.113525	-0.37207
1021.0	4.810665	0.866952	9.158184	-0.137732	0.182078	0.071528	-0.754639	0.115723	-0.372314
1022.0	4.782482	0.822573	8.828649	-0.514308	0.11858	0.071278	-0.759033	0.11792	-0.374512
1023.0	5.071372	0.741178	9.345911	-0.094249	0.084507	0.067605	-0.758789	0.115723	-0.378906
1024.0	4.962516	0.426082	8.916848	-0.155653	0.029608	0.047242	-0.759033	0.120117	-0.37915
1025.0	5.08221	0.565248	9.290933	-0.054748	-0.019826	0.025675	-0.76123	0.11792	-0.37915
1026.0	5.135213	0.726432	9.187556	-0.015066	-0.069222	0.004868	-0.759277	0.124268	-0.376953
1027.0	5.163954	0.749012	9.227449	-0.016661	-0.097374	0.010281	-0.763184	0.115723	-0.376709
1028.0	5.209555	0.895129	9.339465	-0.00692	-0.111386	0.020549	-0.76123	0.11792	-0.374512
1029.0	5.127485	0.529415	9.241252	-0.007666	-0.156129	0.030016	-0.761475	0.12207	-0.376953
1030.0	5.013432	1.075281	9.687727	0.254002	-0.216491	0.051826	-0.759033	0.119873	-0.367676
1031.0	4.433175	0.215055	9.784628	-0.143747	-0.341953	0.070615	-0.765625	0.117676	-0.372314
1032.0	2.368911	-0.501651	11.596265	0.478547	-0.554959	0.058504	-0.767822	0.119873	-0.36084
1033.0	4.932194	0.286004	9.500688	0.403168	-0.955142	-0.028813	-0.773926	0.111084	-0.356201
1034.0	3.977181	-0.284572	8.873198	1.101387	-1.15671	-0.064341	-0.773926	0.111084	-0.349365
1035.0	3.99403	1.288337	7.715242	1.410313	-1.519225	-0.05361	-0.789063	0.106689	-0.337891
1036.0	3.041611	1.293673	8.428753	1.731351	-2.006335	0.033844	-0.790771	0.100098	-0.321777
1037.0	0.5702	2.245023	9.92006	1.757656	-2.839157	0.105449	-0.808105	0.093262	-0.294189
1038.0	-3.129529	1.636456	10.947861	1.484712	-4.398638	0.25808	-0.821289	0.095215	-0.257813
1039.0	-2.472573	2.204787	9.96593	1.010988	-6.845857	0.580269	-0.844971	0.090576	-0.193848
1040.0	5.168124	2.071093	12.550813	0.814603	-8.115639	1.0397	-0.863037	0.105713	-0.132568
1041.0	6.516532	2.286417	12.758337	0.083892	-8.050972	1.559502	-0.874268	0.114014	-0.062012
1042.0	6.061768	3.170383	14.080791	0.343833	-7.791358	2.111406	-0.88208	0.140137	0.001221
1043.0	4.750005	5.056789	14.358622	0.572914	-8.294257	2.762508	-0.887451	0.166016	0.071289
1044.0	9.790115	6.868188	14.187994	0.107286	-9.913497	3.001398	-0.884033	0.187744	0.159912
1045.0	21.211582	5.628904	17.012163	-0.647118	-9.623785	1.951575	-0.862549	0.194092	0.241699
1046.0	17.26499	9.611721	13.911818	-0.341398	-11.051172	2.451503	-0.82666	0.218262	0.321045
1047.0	17.93774	7.441166	13.013401	0.793933	-9.772161	3.021714	-0.785889	0.23584	0.379883
1048.0	27.695301	5.274219	12.383664	1.736402	-9.325945	4.482218	-0.728516	0.270996	0.445068
1049.0	27.001819	8.046642	18.793248	-0.156255	-7.258179	3.263235	-0.681885	0.297363	0.490234
1050.0	9.12501	10.654907	22.809533	0.767323	-6.595074	3.717593	-0.641357	0.321533	0.51709
1051.0	7.304215	16.534768	35.659485	-1.684234	-4.564148	3.897413	-0.602295	0.32373	0.551025
1052.0	0.708666	4.854176	11.526404	-5.607375	-1.397539	4.564374	-0.571777	0.326172	0.578369
1053.0	21.715895	1.452472	7.618305	-0.209804	-5.16395	2.228775	-0.543701	0.330566	0.598877
1054.0	33.325008	-0.86553	38.155349	2.417147	0.978846	0.933357	-0.557617	0.348145	0.571045
1055.0	15.76429	9.496689	28.295	2.706687	5.226739	-0.016639	-0.592529	0.350098	0.534668
1056.0	-2.701589	8.179792	8.843101	1.803189	6.714076	-0.411444	-0.62793	0.36084	0.48877
1057.0	-4.678553	11.402646	9.549909	1.70516	5.390657	-0.468649	-0.656006	0.352051	0.459473
1058.0	-0.83372	7.40103	7.676706	0.289272	5.306085	-0.245519	-0.679932	0.349854	0.420898
1059.0	-2.937675	5.378527	5.541153	0.401079	5.280423	-0.157456	-0.703613	0.347656	0.391113
1060.0	-0.222526	3.700486	5.640022	0.27026	4.958621	-0.392226	-0.7229	0.33667	0.345947
1061.0	3.130396	3.069113	5.795082	0.617906	5.15386	-0.732639	-0.748535	0.327881	0.318848
1062.0	4.395737	3.096826	5.905656	0.930818	5.517245	-1.146694	-0.765625	0.314697	0.280273
1063.0	4.824641	2.772473	6.144857	1.211626	5.796271	-1.602482	-0.786621	0.299561	0.230469
1064.0	4.973257	2.653937	6.547347	1.397729	6.007724	-2.000572	-0.805664	0.28418	0.185303
1065.0	4.997075	2.457182	6.615105	1.478774	6.106356	-2.303799	-0.817139	0.249268	0.140381
1066.0	5.723813	2.4307	7.106459	1.445526	6.091895	-2.457018	-0.824951	0.229736	0.092773
1067.0	6.653661	2.06226	8.048311	1.29742	6.079286	-2.479851	-0.832764	0.208008	0.04541
1068.0	7.821045	1.19441	8.888844	1.138232	6.040635	-2.419073	-0.835693	0.17749	-0.006348
1069.0	8.757048	-0.297551	9.729525	1.139931	6.060829	-2.349185	-0.829834	0.14502	-0.044434
1070.0	10.416147	-0.012763	12.130577	1.391186	6.037255	-2.150648	-0.829102	0.125488	-0.092041
1071.0	13.852452	-1.092954	13.56577	1.490209	6.018889	-1.919608	-0.82373	0.10376	-0.130371
1072.0	17.834686	-3.040074	13.522482	1.8783	6.035206	-1.742937	-0.809814	0.084229	-0.18457
1073.0	19.352771	-5.789786	10.17138	2.723219	6.074214	-1.898245	-0.797607	0.053955	-0.2229
1074.0	18.140562	-0.184879	10.868908	3.939177	6.095862	-2.128996	-0.783447	0.032227	-0.265625
1075.0	18.390361	1.619561	9.717919	3.365897	5.615549	-2.389785	-0.764404	-0.002441	-0.303711
1076.0	19.372637	2.984008	8.64759	3.234062	5.236334	-2.659281	-0.745605	-0.034912	-0.332764
1077.0	19.096391	5.205477	9.350851	2.410761	4.377597	-2.890941	-0.726807	-0.067627	-0.357178
1078.0	21.561451	1.678044	8.152054	1.302831	3.373275	-3.05323	-0.714844	-0.089111	-0.375
1079.0	24.498134	0.278155	8.013993	1.093271	2.919912	-3.056875	-0.691895	-0.113037	-0.388184
1080.0	25.447646	-0.971602	6.577831	0.553791	2.652469	-2.920204	-0.682129	-0.134766	-0.401611
1081.0	25.644945	-4.408998	4.153561	0.473949	2.357257	-2.795768	-0.659424	-0.156494	-0.414795
1082.0	26.140358	-5.899992	2.842586	0.674538	2.217028	-2.812806	-0.645752	-0.171631	-0.428223
1083.0	26.199369	-5.025592	-0.140224	0.701257	2.136302	-2.85077	-0.629395	-0.197754	-0.439209
1084.0	28.734011	-6.784245	-1.979317	0.728946	1.823038	-2.814564	-0.613281	-0.212891	-0.452393
1085.0	41.987763	-11.709894	-5.533748	0.033942	1.606145	-3.01714	-0.597412	-0.230225	-0.461182
1086.0	42.396648	-12.622204	-19.576329	0.170596	2.822919	-2.64158	-0.577148	-0.24292	-0.486084
1087.0	23.482846	-8.338695	-17.749354	0.662293	2.899765	-1.251857	-0.557373	-0.247314	-0.488281
1088.0	3.726049	0.3007	-11.022454	-1.799115	0.271339	0.788932	-0.571045	-0.232178	-0.484131
1089.0	1.88233	-9.415035	-1.887559	-3.2868	-3.57469	1.494461	-0.596191	-0.203857	-0.477783
1090.0	-2.274799	-1.079792	-28.002416	-3.034001	-4.280715	2.196696	-0.629883	-0.18457	-0.455322
1091.0	-1.185044	11.138202	16.622779	-1.745581	-4.134653	3.406879	-0.657715	-0.147705	-0.435547
1092.0	-2.308165	-0.899887	32.910714	-5.429285	-4.900128	2.398408	-0.687744	-0.108643	-0.41333
1093.0	17.817448	-25.718817	1.847759	-4.53233	-5.68088	0.533834	-0.711914	-0.106689	-0.376953
1094.0	28.037724	-17.446809	15.622076	2.99789	-4.677482	-0.192518	-0.726563	-0.117676	-0.347168
1095.0	29.779669	16.116571	43.446377	1.137084	-4.862791	2.031253	-0.760498	-0.093994	-0.315674
1096.0	52.579103	-12.082968	3.296684	-8.199223	-1.828356	0.891958	-0.750488	-0.074219	-0.325195
1097.0	7.15357	-10.873682	-0.528543	3.379191	2.901971	0.179366	-0.741211	-0.085205	-0.34082
1098.0	-15.802703	14.888989	18.139514	0.620609	0.347112	0.606311	-0.746094	-0.072021	-0.33667
1099.0	0.55881	9.869558	9.918621	-2.738272	-2.098706	0.250455	-0.75708	-0.070068	-0.322998
1100.0	10.339272	-2.589618	8.322658	-2.027201	-1.690615	0.124283	-0.76001	-0.05249	-0.321045
1101.0	12.652183	-4.9202	8.171525	-1.033072	-0.498477	0.210173	-0.758057	-0.050293	-0.30957
1102.0	8.531939	1.504355	8.775512	-0.526944	0.13313	0.140679	-0.758057	-0.048096	-0.314209
1103.0	4.651583	1.621709	8.000364	-0.527165	0.33299	0.127248	-0.762695	-0.043945	-0.312012
1104.0	5.053864	-1.068044	10.380313	-0.477767	-0.085628	0.045584	-0.756104	-0.045898	-0.31665
1105.0	5.923528	0.513337	8.084805	-0.051855	0.123561	3.8e-05	-0.758301	-0.043701	-0.321289
1106.0	4.761127	1.236224	9.437193	-0.202184	-0.021946	-0.019695	-0.760498	-0.043945	-0.314453
1107.0	5.586214	0.555221	8.547091	-0.07922	0.014227	-0.022888	-0.760498	-0.043945	-0.318848
1108.0	5.235258	1.21374	8.868073	-0.159468	0.006473	-0.013323	-0.753906	-0.043701	-0.321289
1109.0	5.250657	0.638594	8.874505	-0.117936	0.012757	-0.007477	-0.766846	-0.046143	-0.318848
1110.0	5.222578	0.854904	8.962403	-0.092422	-0.004554	-0.013058	-0.762695	-0.041748	-0.318848
1111.0	5.204657	0.408096	8.925392	-0.060544	-0.01821	-0.02232	-0.760254	-0.045898	-0.318848
1112.0	5.057143	0.759847	8.954675	0.034562	-0.029172	-0.042917	-0.756104	-0.041504	-0.31665
1113.0	5.213632	0.658944	8.889092	0.068751	-0.07392	-0.052322	-0.760498	-0.041748	-0.314453
1114.0	5.272544	0.955609	8.777009	0.094984	-0.066558	-0.056616	-0.758301	-0.041748	-0.314453
1115.0	5.19274	0.799316	8.785912	0.071875	-0.067494	-0.054958	-0.760254	-0.048096	-0.314209
1116.0	5.143263	0.86238	8.830579	0.073943	-0.076721	-0.060182	-0.756104	-0.043701	-0.31665
1117.0	5.245926	0.937082	8.730078	0.084238	-0.077987	-0.058153	-0.758057	-0.048096	-0.309814
1118.0	5.142704	0.935791	8.905226	0.074067	-0.088348	-0.062478	-0.760498	-0.043945	-0.309814
1119.0	5.272976	1.029874	8.738691	0.062203	-0.093134	-0.05631	-0.764648	-0.04834	-0.314209
1121.0	5.281868	1.106896	8.690948	-0.011581	-0.063595	-0.044022	-0.758057	-0.050293	-0.30957
1122.0	5.370136	0.976724	8.614973	-0.066995	-0.059684	-0.02063	-0.762451	-0.04834	-0.305176
1123.0	5.140873	0.91791	8.821812	-0.072777	-0.032366	-0.017409	-0.758057	-0.045898	-0.314209
1124.0	5.259966	0.759132	8.800524	-0.087243	-0.062074	-0.0213	-0.760498	-0.041748	-0.312012
1125.0	5.177457	0.731879	8.78327	-0.080342	-0.058522	-0.029795	-0.760254	-0.045898	-0.31665
1126.0	5.313391	0.863362	8.694142	-0.091027	-0.062322	-0.031266	-0.766846	-0.046143	-0.314209
1127.0	4.963774	1.028041	8.895648	-0.083492	-0.052276	-0.038688	-0.764648	-0.046143	-0.309814
1128.0	5.114257	1.093172	9.095386	-0.17002	-0.067453	-0.015163	-0.764893	-0.041748	-0.309814
1129.0	5.26044	0.886602	8.770018	-0.221906	-0.053801	-0.010613	-0.764648	-0.046143	-0.309814
1130.0	5.289038	1.063293	8.862399	-0.252808	-0.023908	0.021277	-0.769287	-0.041748	-0.307617
1131.0	5.312135	0.936365	8.803119	-0.305085	-0.01877	0.036217	-0.769043	-0.046143	-0.309814
1132.0	5.450029	0.73035	8.773965	-0.282932	-0.006899	0.043987	-0.77124	-0.043945	-0.307617
1133.0	5.266321	0.686532	8.723311	-0.259205	0.005816	0.039523	-0.773438	-0.043945	-0.309814
1134.0	5.588052	0.703465	8.903629	-0.197617	-0.023119	0.043352	-0.760742	-0.039551	-0.309814
1135.0	5.315466	0.648148	8.890929	-0.171062	-0.014752	0.028573	-0.762695	-0.041748	-0.309814
1136.0	5.329201	0.73232	8.965425	-0.123054	-0.032094	0.031661	-0.762939	-0.039551	-0.312256
1137.0	5.189944	0.707257	9.186811	-0.091893	-0.050312	0.042726	-0.769531	-0.037354	-0.307617
1138.0	4.956056	0.669412	9.422253	0.048295	-0.144667	0.070464	-0.769531	-0.037354	-0.309814
1139.0	4.847153	0.531078	9.575884	0.022729	-0.153868	0.093637	-0.764893	-0.039551	-0.307617
1140.0	3.394323	-0.083756	10.353857	0.199347	-0.335159	0.058992	-0.769775	-0.032959	-0.30542
1141.0	5.277716	0.291559	9.136349	0.387398	-0.530739	0.041837	-0.773926	-0.035156	-0.300781
1142.0	4.830169	0.381618	9.117615	0.553481	-0.646168	0.026651	-0.769531	-0.035156	-0.296387
1143.0	4.477133	0.211171	8.954819	0.740601	-0.884875	-0.006133	-0.778076	-0.039551	-0.282471
1144.0	4.164575	0.20832	8.803886	1.029395	-1.21993	-0.057564	-0.777832	-0.046143	-0.275635
1145.0	3.819247	0.748943	8.167439	1.466034	-1.614991	-0.078838	-0.788574	-0.048584	-0.259521
1146.0	2.369152	1.323807	8.424118	1.794149	-2.193225	-0.055067	-0.79248	-0.05957	-0.234131
1147.0	1.097794	1.441513	9.333926	1.906911	-3.132738	-0.046286	-0.807617	-0.05957	-0.211426
1148.0	-1.898317	1.854585	11.247281	1.911779	-4.564874	0.177507	-0.820801	-0.057617	-0.168213
1149.0	-0.191032	2.008994	10.235583	1.332339	-6.415633	0.48348	-0.836182	-0.057861	-0.113525
1150.0	3.913305	1.709501	11.483393	0.804416	-7.62312	0.865313	-0.851563	-0.051758	-0.045166
1151.0	6.392031	2.132092	12.259935	0.76789	-8.082068	1.293997	-0.861084	-0.036621	0.020752
1152.0	7.229871	4.547464	14.203326	0.709723	-7.855464	1.856154	-0.870605	-0.019287	0.088623
1153.0	5.554557	6.10061	14.25707	0.538229	-8.382692	2.365581	-0.867188	0.004395	0.156494
1154.0	10.868735	6.219514	12.081337	0.130731	-9.40327	2.757791	-0.857178	0.026123	0.224609
1155.0	21.372357	0.044714	16.672194	0.106061	-8.831246	2.603651	-0.838379	0.041504	0.303955
1156.0	14.812232	9.748548	12.618333	0.696895	-10.795987	2.060966	-0.800049	0.063232	0.371826
1157.0	18.578613	9.060089	15.819668	1.103448	-9.899269	2.633025	-0.766113	0.083008	0.435303
1158.0	19.075013	6.770098	9.824289	2.137437	-8.761513	3.244746	-0.72168	0.11377	0.500732
1159.0	36.419531	10.405572	18.971753	-1.252387	-8.470005	3.871456	-0.669922	0.12915	0.539063
1160.0	9.679422	9.501209	19.479165	0.78654	-6.404077	3.928388	-0.627441	0.15332	0.572754
1161.0	9.46543	20.028954	33.9391	-2.149373	-5.187561	4.003643	-0.588135	0.155762	0.609131
1162.0	1.655801	5.242671	23.402294	-5.874688	-1.914539	4.356221	-0.57251	0.146973	0.625244
1163.0	14.168603	1.679411	-4.135893	-2.718513	-4.51109	3.022951	-0.546387	0.149414	0.643311
1164.0	31.897796	-7.01211	39.250313	1.232619	-0.129162	1.230015	-0.5625	0.164551	0.629395
1165.0	16.735312	3.684113	27.594442	3.326989	4.612095	0.178286	-0.591797	0.186279	0.597168
1166.0	-0.108665	8.332178	11.334939	2.901091	6.141366	-0.218609	-0.631592	0.199219	0.55127
1167.0	-4.362888	11.843467	10.090736	2.314749	5.239332	-0.184423	-0.660645	0.212158	0.516846
1168.0	-1.86245	8.257911	7.694278	0.683366	4.951716	0.104028	-0.686768	0.214355	0.482666
1169.0	-2.35603	6.238775	5.528221	0.626975	4.938119	0.253095	-0.710693	0.212158	0.448486
1170.0	-0.342637	5.06136	6.0441	0.365706	4.652773	0.107867	-0.728271	0.212158	0.414551
1171.0	3.488109	4.56969	6.712258	0.304587	4.781264	-0.22899	-0.75	0.209717	0.380371
1172.0	5.402283	4.329461	6.730185	0.459648	5.214544	-0.671077	-0.771484	0.205322	0.343994
1173.0	6.034452	3.694841	6.537523	0.630107	5.668973	-1.19946	-0.79126	0.205322	0.302979
1174.0	5.934756	3.279145	6.660767	0.917573	5.966279	-1.731784	-0.811768	0.181396	0.250977
1175.0	5.893672	3.171488	6.658351	1.048645	6.162162	-2.182636	-0.826416	0.16626	0.196777
1176.0	6.111486	3.114624	6.747315	1.106982	6.19792	-2.489274	-0.845459	0.150879	0.14917
1177.0	6.693815	2.86893	7.19731	1.041349	6.158785	-2.641822	-0.859619	0.124756	0.097168
1178.0	7.419401	2.338069	8.145002	0.92212	6.026009	-2.675142	-0.867432	0.105225	0.052002
1179.0	8.985729	0.869702	9.137016	0.817478	5.947925	-2.65985	-0.864258	0.081299	0.002441
1180.0	10.397823	0.375745	10.56935	1.029868	5.902099	-2.53703	-0.869629	0.057373	-0.047363
1181.0	13.359302	0.071616	12.179507	1.105116	5.73135	-2.272927	-0.864258	0.035645	-0.092529
1182.0	16.65751	-2.411513	11.951767	1.445584	5.70607	-2.02388	-0.863525	0.016113	-0.139893
1183.0	17.581977	-3.145208	11.260392	2.326262	5.801184	-1.939815	-0.851563	-0.005371	-0.18042
1184.0	18.769899	-2.049822	10.375168	2.883571	5.736875	-2.060059	-0.839844	-0.024902	-0.22583
1185.0	19.927187	1.78838	10.486393	3.196002	5.745015	-2.092757	-0.823486	-0.046631	-0.268555
1186.0	20.910612	3.160645	10.066141	2.779537	5.532771	-2.190896	-0.806885	-0.079102	-0.306641
1187.0	21.626286	3.542824	10.033656	2.313044	5.206594	-2.433235	-0.790771	-0.098633	-0.338379
1188.0	21.35752	2.487364	9.253181	1.668534	4.764394	-2.761828	-0.769775	-0.128906	-0.367432
1189.0	21.789047	0.420474	7.886625	1.26831	4.16949	-3.077882	-0.749023	-0.154785	-0.394287
1190.0	22.395764	-0.326433	6.666741	1.232169	3.740609	-3.237198	-0.735107	-0.174316	-0.412109
1191.0	23.226707	-1.083986	4.999181	1.213447	3.211497	-3.269488	-0.711914	-0.200439	-0.434326
1192.0	25.188411	-1.604215	3.991897	1.322446	2.816477	-3.19776	-0.691162	-0.228516	-0.44751
1193.0	26.641598	-1.512091	2.391049	1.245813	2.65735	-3.082921	-0.677246	-0.24585	-0.463135
1194.0	27.798874	-0.350482	0.295038	0.916183	2.511782	-2.839401	-0.656494	-0.271973	-0.478516
1195.0	30.901968	-4.295669	-3.234226	0.433057	2.212722	-2.579434	-0.640625	-0.284912	-0.485352
1196.0	43.834546	-13.047953	-9.651307	-0.328854	2.060477	-2.74377	-0.626953	-0.297852	-0.503174
1197.0	42.628112	-15.196107	-23.534878	0.534906	3.17906	-2.444342	-0.604492	-0.315186	-0.518799
1198.0	22.398801	-9.125003	-17.52841	1.521126	2.98171	-1.208237	-0.586426	-0.325928	-0.527832
1199.0	10.463372	-2.369799	-8.718975	-0.328736	1.134654	0.373866	-0.59375	-0.310547	-0.534912
1200.0	-6.873218	-0.867088	0.744676	-1.407148	-3.375064	1.6273	-0.622803	-0.29126	-0.519287
1201.0	-12.075956	0.119728	-16.573784	-4.600846	-3.997085	2.482449	-0.661621	-0.256592	-0.490234
1202.0	1.267242	7.865416	0.890456	-2.46744	-6.297583	3.023559	-0.710938	-0.226563	-0.468018
1203.0	0.317624	8.40181	21.296417	-3.945984	-3.706141	2.877813	-0.732178	-0.189453	-0.448242
1204.0	8.549381	-0.994778	20.619171	-5.469278	-5.397406	1.961225	-0.766602	-0.150635	-0.430664
1205.0	22.274418	-34.471962	3.152421	-4.144117	-5.338688	0.195501	-0.795166	-0.144287	-0.385254
1206.0	31.319851	-3.411148	27.319993	4.852741	-4.571133	0.989327	-0.821289	-0.148926	-0.341797
1207.0	46.797223	2.78398	42.432814	-5.854212	-3.579495	2.332223	-0.830078	-0.098877	-0.344971
1208.0	32.377663	-27.295281	-20.562091	-2.032497	1.887581	0.117251	-0.816406	-0.109619	-0.365479
1209.0	-15.007024	15.449379	15.364596	4.931648	2.343991	0.921109	-0.818604	-0.111816	-0.365479
1210.0	-10.106134	20.792383	22.52357	-3.602007	-2.060386	0.197357	-0.825928	-0.094238	-0.354248
1211.0	7.530081	-3.06102	6.180362	-5.169895	-2.494083	-0.050473	-0.841797	-0.079102	-0.34082
1212.0	17.834751	-10.517206	3.410019	-0.829135	-1.000433	0.151616	-0.839844	-0.072754	-0.345703
1213.0	7.69611	3.788672	10.751616	0.509674	0.595064	0.236452	-0.842041	-0.072754	-0.343262
1214.0	2.701529	0.335868	10.174653	-0.951985	-0.239459	0.018491	-0.833496	-0.070557	-0.338867
1215.0	7.272449	-1.065223	7.389929	-0.192743	-0.111683	-0.007603	-0.837646	-0.074707	-0.338623
1216.0	5.248589	1.120531	9.946271	-0.025987	-0.129279	-0.037125	-0.840088	-0.068359	-0.338867
1217.0	5.927859	-0.100483	8.364578	-0.101104	-0.092888	-0.049043	-0.837891	-0.070557	-0.341064
1218.0	5.238834	1.219646	9.155782	-0.025261	-0.067063	-0.053564	-0.835449	-0.074707	-0.338623
1219.0	5.433919	0.763009	8.553058	-0.07392	-0.038209	-0.042915	-0.839844	-0.070557	-0.336426
1220.0	5.249585	1.037009	8.915744	-0.081502	-0.028933	-0.033513	-0.837891	-0.070557	-0.343262
1221.0	5.30377	0.663666	8.871674	-0.075285	-0.013242	-0.027241	-0.839844	-0.074951	-0.343262
1222.0	5.368632	0.389954	8.848009	-0.045865	-0.0212	-0.036288	-0.842041	-0.070557	-0.341064
1223.0	5.237249	0.543731	8.899894	0.084498	-0.024345	-0.060326	-0.837402	-0.076904	-0.336426
1224.0	5.188314	0.726083	8.890293	0.08641	-0.051587	-0.061293	-0.846191	-0.074951	-0.341064
1225.0	5.225097	0.786717	8.899122	0.107323	-0.054255	-0.069267	-0.833008	-0.079102	-0.338623
1226.0	5.249439	1.017062	8.804553	0.10226	-0.055354	-0.059753	-0.842041	-0.072754	-0.336426
1227.0	5.153519	0.957	8.8169	0.090182	-0.061788	-0.059148	-0.837646	-0.074951	-0.32959
1228.0	5.296857	0.890025	8.703834	0.07919	-0.066871	-0.054335	-0.839844	-0.072754	-0.336426
1229.0	5.135881	1.025072	8.740077	0.090676	-0.053739	-0.048254	-0.837402	-0.077148	-0.331787
1230.0	5.159272	1.082397	8.780672	0.033323	-0.049795	-0.038118	-0.837646	-0.074951	-0.334229
1231.0	5.166906	1.132013	8.722796	-0.023548	-0.035523	-0.02873	-0.839355	-0.081299	-0.333984
1232.0	5.316236	1.003384	8.636387	-0.075479	-0.023889	-0.022843	-0.839844	-0.074951	-0.334229
1233.0	5.267702	0.925601	8.711479	-0.103732	-0.003079	-0.015546	-0.833252	-0.072754	-0.332031
1234.0	5.267419	0.893377	8.712859	-0.093351	0.000896	-0.013625	-0.837402	-0.076904	-0.338623
1235.0	5.269784	0.834744	8.660821	-0.120655	0.016464	-0.011611	-0.842041	-0.074951	-0.32959
1236.0	5.131054	0.99969	8.770147	-0.107043	0.016623	-0.004796	-0.839844	-0.072754	-0.338867
1237.0	5.125276	0.964354	8.827452	-0.165386	0.024509	0.004909	-0.844238	-0.072754	-0.332031
1238.0	5.154267	0.875415	8.844773	-0.179375	0.027257	0.010332	-0.842041	-0.074951	-0.338623
1239.0	5.197334	0.906025	8.828469	-0.194887	0.032734	0.025818	-0.837646	-0.074951	-0.334229
1240.0	5.238667	0.81235	8.814394	-0.218952	0.04073	0.030797	-0.842041	-0.072754	-0.332031
1241.0	5.229278	0.839644	8.741373	-0.212623	0.064295	0.03692	-0.840088	-0.068359	-0.33667
1242.0	5.298588	0.890726	8.794584	-0.234002	0.050345	0.047519	-0.835693	-0.066162	-0.334229
1243.0	5.201902	0.771256	8.838003	-0.223957	0.081772	0.063723	-0.840332	-0.063965	-0.338867
1244.0	5.222866	0.69957	8.911586	-0.213614	0.074158	0.067617	-0.833496	-0.066162	-0.33667
1245.0	5.190277	0.653871	8.980415	-0.194441	0.065137	0.067995	-0.837891	-0.068359	-0.338867
1246.0	5.153093	0.488419	9.102615	-0.165353	0.046842	0.055408	-0.840088	-0.068359	-0.33667
1247.0	5.048568	0.597145	9.1741	-0.101447	0.016526	0.043046	-0.833984	-0.05957	-0.345947
1248.0	5.056407	0.658384	9.38339	-0.0982	-0.015927	0.043633	-0.833984	-0.05957	-0.339111
1249.0	5.094417	0.551654	9.340553	-0.041729	-0.055347	0.040265	-0.835938	-0.061768	-0.338867
1250.0	4.688693	0.380102	9.875265	-0.023393	-0.113915	0.037324	-0.838135	-0.061768	-0.33667
1251.0	5.110369	0.722383	9.358503	0.172524	-0.273803	0.048877	-0.840332	-0.061768	-0.332031
1252.0	3.103434	-0.723439	10.473079	0.127422	-0.363879	0.021989	-0.842529	-0.061768	-0.329834
1253.0	4.112925	-0.262973	10.002607	0.562778	-0.692886	-0.083763	-0.853271	-0.066162	-0.322998
1254.0	5.074351	0.348549	8.921773	0.805206	-0.830671	-0.123367	-0.851074	-0.066162	-0.316162
1255.0	4.281633	0.404112	9.126725	1.011073	-1.042513	-0.163018	-0.853027	-0.068359	-0.306885
1256.0	4.27409	0.628633	7.991322	1.214134	-1.354769	-0.178037	-0.859131	-0.079346	-0.290771
1257.0	3.665223	1.326522	8.160319	1.591537	-1.749148	-0.13523	-0.865234	-0.090332	-0.276855
1258.0	2.728084	1.71947	8.025973	1.840422	-2.322999	-0.046119	-0.878418	-0.090576	-0.251709
1259.0	0.880122	1.758054	10.123461	1.815257	-3.140934	0.048272	-0.886963	-0.093018	-0.217529
1260.0	-1.740013	1.899923	11.097575	1.719452	-4.631608	0.2863	-0.900146	-0.088867	-0.165039
1261.0	0.487418	2.065126	10.338592	1.059634	-6.397681	0.585052	-0.917725	-0.089111	-0.108154
1262.0	4.343357	1.277131	11.072075	0.573359	-7.39648	0.908848	-0.93335	-0.076172	-0.028564
1263.0	6.428591	1.887946	11.948801	0.653928	-7.72073	1.302215	-0.942871	-0.059082	0.034912
1264.0	6.426454	3.60197	13.534346	0.668692	-7.615676	1.857311	-0.947998	-0.041748	0.107422
1265.0	6.068413	6.054955	12.870863	0.756988	-8.26062	2.407571	-0.949463	-0.011475	0.175293
1266.0	12.386917	6.282408	11.227475	0.204424	-9.025744	2.890048	-0.939941	0.019043	0.254395
1267.0	19.739598	0.968052	17.431765	0.468147	-8.380722	2.976397	-0.916992	0.045166	0.335938
1268.0	14.540573	11.399486	14.366531	0.310466	-10.532186	2.337572	-0.883057	0.069092	0.412842
1269.0	17.774095	9.125071	13.943416	0.399885	-9.946081	3.005345	-0.832031	0.097656	0.487549
1270.0	15.262055	4.545395	9.899349	1.916404	-8.050572	3.168947	-0.794434	0.132813	0.552734
1271.0	37.666854	11.383232	17.752463	-1.556333	-9.781503	3.904541	-0.734131	0.150391	0.609375
1272.0	13.019872	2.75484	15.995216	0.26279	-5.775853	3.491379	-0.676758	0.185547	0.649658
1273.0	12.314852	18.167977	31.305135	-0.676678	-5.333626	3.686746	-0.640625	0.205322	0.68335
1274.0	2.905701	5.769928	29.934045	-4.569162	-1.810683	3.624879	-0.614014	0.19458	0.704102
1275.0	2.533876	2.935279	-12.5105	-2.929416	-3.253708	3.789828	-0.573486	0.21875	0.735352
1276.0	30.967073	-5.081593	34.836759	0.619195	-2.487314	1.554856	-0.572266	0.236328	0.739746
1277.0	19.064034	-1.047704	26.093741	3.65557	3.0792	0.527103	-0.598145	0.279785	0.716064
1278.0	4.486727	8.939208	15.461434	3.291114	5.285053	0.004301	-0.641113	0.31665	0.681152
1279.0	-3.843896	10.532382	8.457807	2.623064	4.725193	-0.11977	-0.66626	0.338379	0.655762
1280.0	-0.662315	9.410923	8.394389	1.414227	4.431882	0.096158	-0.702637	0.371094	0.634521
1281.0	-1.981942	7.055869	6.086133	1.086776	4.623299	0.20502	-0.732178	0.401367	0.615723
1282.0	-0.929379	6.730014	6.030732	0.620809	4.40904	0.093109	-0.77002	0.418701	0.594971
1283.0	1.89389	5.360141	5.709438	0.335039	4.392656	-0.22496	-0.814941	0.446777	0.576172
1284.0	3.711797	4.956136	5.940662	0.379358	4.723046	-0.630576	-0.881592	0.470459	0.548584
1285.0	4.315284	4.173197	6.428416	0.401362	5.021442	-1.136332	-0.945557	0.487549	0.51416
1286.0	5.159596	3.005274	6.583959	0.558475	5.299769	-1.693227	-1.029053	0.500244	0.470703
1287.0	5.617696	2.431201	6.77948	0.849631	5.549886	-2.210904	-1.127686	0.512939	0.406738
1288.0	6.020245	2.584295	7.047797	1.031804	5.679902	-2.61343	-1.223633	0.514648	0.333984
1289.0	7.027628	2.419983	7.537429	1.05916	5.73454	-2.847581	-1.321289	0.503418	0.236084
1290.0	8.061875	2.290639	8.434975	1.015078	5.768668	-2.916452	-1.438232	0.483154	0.125
1291.0	10.316833	1.648834	9.51559	0.823868	5.818314	-2.898167	-1.550537	0.458984	-0.015625
1292.0	11.87526	0.103631	10.242503	0.809293	5.991451	-2.824063	-1.640381	0.417236	-0.194824
1293.0	15.165162	-0.689889	11.941983	0.7046	5.951989	-2.641663	-1.672607	0.358643	-0.410156
1294.0	16.607443	-1.636475	13.269718	1.265897	6.244427	-2.290813	-1.638916	0.283203	-0.638916
1295.0	18.191843	-4.870361	10.67383	1.511126	6.318656	-2.020812	-1.52832	0.201416	-0.844727
1296.0	19.784187	-4.577986	10.062682	2.662523	6.394666	-1.945298	-1.362793	0.111084	-1.002686
1297.0	18.800585	-3.103649	8.623505	3.228828	6.283026	-2.021182	-1.171631	0.025391	-1.112793
1298.0	18.393344	-0.018536	8.937151	3.563582	6.11204	-2.134804	-0.949707	-0.060303	-1.175293
1299.0	18.705054	0.47801	8.438197	3.17959	5.689723	-2.334549	-0.733154	-0.122314	-1.14917
1300.0	18.88235	0.455289	7.523317	2.919703	5.225224	-2.612531	-0.570313	-0.154297	-1.062256
1301.0	18.375541	0.734855	6.929811	2.421619	4.543552	-2.915215	-0.483398	-0.143066	-0.950928
1302.0	18.27221	-0.356996	5.765054	1.858602	3.654718	-3.093694	-0.471436	-0.121338	-0.846436
1303.0	19.680466	-0.728532	5.606304	1.584551	3.01032	-3.085078	-0.495605	-0.113037	-0.775879
1304.0	19.980758	-0.549417	4.911437	1.154456	2.463858	-2.924652	-0.534912	-0.113281	-0.737061
1305.0	21.510105	-0.963664	3.953582	0.755767	2.035529	-2.724669	-0.565186	-0.122314	-0.727783
1306.0	23.06576	-0.754126	2.824081	0.324157	1.759256	-2.534638	-0.590576	-0.135498	-0.725342
1307.0	25.080622	-0.07296	0.831672	-0.17205	1.638484	-2.286985	-0.60083	-0.150879	-0.729492
1308.0	26.958289	-1.874959	-2.080721	-0.784576	1.530569	-2.061259	-0.600586	-0.159668	-0.740723
1309.0	33.654102	-7.188471	-5.804964	-1.277577	1.287267	-2.091749	-0.598145	-0.161621	-0.749756
1310.0	37.939236	-9.386742	-14.908136	-1.377222	1.801291	-2.07626	-0.582275	-0.174805	-0.760986
1311.0	26.709035	-9.413063	-17.347141	-0.791305	2.00466	-1.390278	-0.566895	-0.178955	-0.767822
1312.0	14.21521	-4.574486	-9.762315	-0.836538	1.094295	-0.333514	-0.578369	-0.166016	-0.774902
1313.0	-3.176186	-4.478855	0.077765	-1.146178	-3.533884	0.499164	-0.61792	-0.159668	-0.747559
1314.0	-3.17974	-9.748694	-18.542342	-3.586744	-3.675147	0.963938	-0.657959	-0.144775	-0.731934
1315.0	-3.980484	6.063372	-2.636023	0.62762	-4.77074	1.517218	-0.708008	-0.142822	-0.702148
1316.0	-2.704483	20.742668	19.771646	-1.745102	-4.480386	2.194009	-0.763184	-0.128174	-0.672852
1317.0	10.566795	6.860828	32.494493	-5.6196	-5.666883	2.038013	-0.812012	-0.065186	-0.635254
1318.0	27.068061	-34.324352	0.998316	-6.127515	-5.704184	0.405231	-0.855713	-0.059082	-0.594238
1319.0	44.768131	4.769166	34.438204	6.377417	-4.16018	2.372334	-0.879639	-0.059326	-0.564697
1320.0	48.897992	-17.774077	19.76305	-9.40532	-0.160318	0.836239	-0.871094	-0.009033	-0.58374
1321.0	3.941238	-18.4324	-7.376579	2.989407	2.711179	0.380479	-0.85498	-0.030518	-0.601563
1322.0	-17.666791	23.731897	14.521924	2.986076	0.570481	1.002877	-0.861816	-0.02417	-0.592773
1323.0	-0.78274	19.013859	15.065699	-4.402156	-2.439108	0.045513	-0.878174	0.00415	-0.574951
1324.0	10.956864	-8.340628	6.967497	-4.456535	-2.036624	-0.223439	-0.885742	0.023682	-0.557129
