Acquisition frequency: 100 Hz
PacketCounter	Acc_X	Acc_Y	Acc_Z	Gyr_X	Gyr_Y	Gyr_Z	Mag_X	Mag_Y	Mag_Z
0.0	9.892979	0.317284	1.224111	0.03539	0.015454	-0.003889	-0.584717	0.069336	-0.54834
1.0	9.828657	0.3607	1.236136	0.017076	0.032223	-0.004456	-0.586914	0.069336	-0.550781
2.0	9.817518	0.348618	1.290981	0.010281	0.025935	-0.000779	-0.584717	0.069336	-0.54834
3.0	9.751731	0.290707	1.299957	0.01203	0.020125	-0.007186	-0.580322	0.071533	-0.546143
4.0	9.753914	0.267804	1.29652	0.004557	0.016394	-0.007548	-0.584717	0.067139	-0.552979
5.0	9.756182	0.244718	1.292521	0.002145	0.00829	-0.004776	-0.584473	0.064941	-0.550537
6.0	9.788378	0.220857	1.304891	-0.007264	-0.00617	-0.008582	-0.587158	0.071533	-0.548584
7.0	9.878354	0.217046	1.253167	-0.008663	-0.004984	-0.010368	-0.58252	0.069336	-0.550781
8.0	9.891023	0.209129	1.299278	-0.01459	0.000202	-0.011276	-0.584961	0.07373	-0.548584
9.0	9.887109	0.190642	1.271053	-0.021095	0.001834	-0.009917	-0.584961	0.071533	-0.548584
10.0	9.874449	0.200414	1.224555	-0.014425	-0.006163	-0.013214	-0.589111	0.062744	-0.550537
11.0	9.857956	0.191159	1.149247	-0.011172	-0.006979	-0.013892	-0.586914	0.067139	-0.552979
12.0	9.87453	0.202716	1.223522	-0.012326	-0.001799	-0.011708	-0.586914	0.067139	-0.550781
13.0	9.880834	0.199234	1.246786	-0.015868	0.003383	-0.011069	-0.58252	0.071533	-0.550781
14.0	9.880802	0.199996	1.246919	-0.017432	-0.001356	-0.008561	-0.580322	0.071533	-0.548584
15.0	9.87884	0.159692	1.316751	-0.016898	-0.001731	-0.004552	-0.577637	0.062744	-0.552734
16.0	9.878786	0.159633	1.317163	-0.02246	0.009442	0.000498	-0.582275	0.064941	-0.543701
17.0	9.804479	0.128982	1.306643	-0.024558	0.005076	-0.001002	-0.580322	0.071533	-0.548584
18.0	9.876223	0.182556	1.323205	-0.010911	-0.004669	0.006573	-0.584717	0.069336	-0.552979
19.0	9.840147	0.186913	1.282409	-0.021081	0.000143	0.006596	-0.580322	0.071533	-0.548584
20.0	9.87131	0.22832	1.333804	-0.008381	0.005434	0.005795	-0.58252	0.067139	-0.54834
21.0	9.871279	0.227507	1.334174	-0.015586	0.00151	0.007439	-0.580078	0.064941	-0.54834
22.0	9.846401	0.179567	1.306571	-0.023822	0.004759	0.013257	-0.580322	0.069336	-0.54834
23.0	9.842437	0.159077	1.279039	-0.020814	0.012245	0.006269	-0.58252	0.067139	-0.552979
24.0	9.815015	0.134984	1.257251	-0.025221	0.005945	0.01148	-0.577881	0.067139	-0.54834
25.0	9.815006	0.133673	1.257457	-0.022791	-0.002416	0.009089	-0.58252	0.071533	-0.55542
26.0	9.823853	0.104669	1.274903	-0.01793	-0.006844	0.001968	-0.580078	0.067139	-0.54834
27.0	9.858228	0.120606	1.216252	-0.012991	-0.013214	0.003102	-0.58252	0.069336	-0.54834
28.0	9.889557	0.162072	1.266515	-0.024168	-0.005407	0.005347	-0.584961	0.07373	-0.546387
29.0	9.881817	0.123023	1.209563	-0.019638	0.002888	0.002127	-0.58252	0.067139	-0.550781
30.0	9.88568	0.141709	1.238198	-0.017107	0.0007	0.003687	-0.587158	0.07373	-0.553223
31.0	9.870603	0.173783	1.197014	-0.022048	-0.005223	0.004889	-0.577881	0.069336	-0.55542
32.0	9.84721	0.169554	1.202308	-0.021593	-0.003658	0.000643	-0.584961	0.07373	-0.551025
33.0	9.848703	0.211846	1.235706	-0.0253	-0.004412	0.00558	-0.582764	0.075928	-0.560303
34.0	9.832628	0.136552	1.225243	-0.015376	-0.000918	-0.000761	-0.584961	0.071533	-0.548584
35.0	9.84146	0.108078	1.24267	-0.01017	-0.00748	0.002368	-0.582764	0.07373	-0.553223
36.0	9.89335	0.067737	1.219881	-0.002411	-0.008113	0.002756	-0.587158	0.07373	-0.548584
37.0	9.8822	0.119537	1.206778	0.006915	-0.004001	0.000643	-0.584961	0.07373	-0.555664
38.0	9.887133	0.072259	1.195768	0.013276	-0.003444	-0.000749	-0.58252	0.071533	-0.543945
39.0	9.871522	0.107062	1.257957	0.014675	-0.004634	0.001032	-0.584717	0.069336	-0.54834
40.0	9.84429	0.084461	1.234287	0.020355	-0.013806	-0.002056	-0.584717	0.071533	-0.546143
41.0	9.867923	0.088511	1.227085	0.020766	-0.016182	-3.2e-05	-0.580078	0.067139	-0.552979
42.0	9.865614	0.112626	1.231275	0.023032	-0.005887	-0.002807	-0.587158	0.07373	-0.548584
43.0	9.839815	0.133074	1.24152	0.033591	-0.0089	0.001148	-0.580078	0.067139	-0.54834
44.0	9.878011	0.169075	1.211439	0.039808	-0.006162	-0.000255	-0.584717	0.067139	-0.546143
45.0	9.847318	0.236986	1.232287	0.03106	-0.006714	-0.0004	-0.584717	0.067139	-0.550781
46.0	9.828822	0.186321	1.226843	0.026408	-0.004712	-0.001493	-0.584961	0.075928	-0.555664
47.0	9.83034	0.229819	1.260057	0.025009	-0.003524	-0.003272	-0.58252	0.069336	-0.550781
48.0	9.811843	0.179153	1.254678	0.020192	-0.007451	-7.8e-05	-0.584961	0.075928	-0.548584
49.0	9.862758	0.205988	1.270734	0.018216	-0.00982	0.000406	-0.58252	0.067139	-0.550781
50.0	9.88488	0.166732	1.230127	0.021159	-0.01438	0.003996	-0.584717	0.067139	-0.550781
51.0	9.908501	0.170471	1.222953	0.020623	-0.014005	-1.1e-05	-0.589111	0.064941	-0.552979
52.0	9.902272	0.175199	1.19866	0.021324	-0.008453	-0.000292	-0.587158	0.071533	-0.550781
53.0	9.876504	0.195564	1.208662	0.023588	-0.010454	-0.000731	-0.58252	0.067139	-0.54834
54.0	9.884496	0.234498	1.264326	0.019079	-0.010635	-0.001808	-0.584717	0.069336	-0.54834
55.0	9.901719	0.243097	1.234122	0.016978	-0.015	-0.003304	-0.586914	0.069336	-0.543701
56.0	9.897887	0.224259	1.204808	0.010887	-0.003448	-0.002268	-0.587158	0.071533	-0.546143
57.0	9.853485	0.19347	1.210717	0.006648	-0.003816	-0.001343	-0.5896	0.075928	-0.541748
58.0	9.836446	0.185616	1.239389	0.002983	-0.000629	-0.002687	-0.587158	0.071533	-0.550781
59.0	9.845289	0.157865	1.257055	0.009631	-0.004445	-0.004029	-0.580322	0.07373	-0.543945
60.0	9.83412	0.210239	1.243569	0.014571	-0.010817	-0.00288	-0.584717	0.071533	-0.546143
61.0	9.881109	0.218091	1.231067	0.016547	-0.008449	-0.003364	-0.584717	0.069336	-0.539063
62.0	9.878729	0.242257	1.235719	0.016384	-0.002084	-0.001428	-0.589355	0.069336	-0.546143
63.0	9.887576	0.214478	1.253411	0.011875	-0.002265	-0.002507	-0.584717	0.071533	-0.546143
64.0	9.866612	0.186968	1.253728	0.012089	-0.002196	0.007736	-0.587158	0.071533	-0.550781
65.0	9.840807	0.206777	1.264172	0.015953	-0.007823	0.00087	-0.577881	0.069336	-0.54834
66.0	9.836944	0.187625	1.235126	0.006791	-0.006002	-0.001314	-0.58252	0.071533	-0.543945
67.0	9.843426	0.183384	1.257509	0.010457	-0.009189	3.4e-05	-0.587158	0.07373	-0.543945
68.0	9.854201	0.196165	1.204435	0.014571	-0.01082	-0.002869	-0.584717	0.067139	-0.543701
69.0	9.907579	0.199524	1.215035	0.012307	-0.00882	-0.002431	-0.584717	0.067139	-0.543701
70.0	9.905225	0.223603	1.219486	0.01554	-0.005454	-0.001155	-0.586914	0.069336	-0.541504
71.0	9.928662	0.227648	1.213615	0.006934	0.004104	-0.00366	-0.584961	0.071533	-0.548584
72.0	9.898757	0.228742	1.196793	0.008047	0.007286	-0.001923	-0.582275	0.064941	-0.54834
73.0	9.867005	0.189216	1.250294	0.016652	0.010019	-0.00179	-0.584961	0.071533	-0.548584
74.0	9.860494	0.194148	1.228005	0.014137	0.008021	-0.005311	-0.587158	0.075928	-0.541748
75.0	9.875017	0.226723	1.20476	0.019797	0.003018	-0.0064	-0.589111	0.067139	-0.536621
76.0	9.881354	0.223275	1.228168	0.017408	0.003019	-0.007942	-0.589355	0.07373	-0.551025
77.0	9.85636	0.177558	1.200791	0.020516	0.004386	-0.008644	-0.580078	0.067139	-0.543701
78.0	9.874828	0.229626	1.205763	0.022042	0.0052	-0.004875	-0.589355	0.069336	-0.54834
79.0	9.849845	0.183553	1.178428	0.020067	0.002833	-0.004387	-0.589355	0.069336	-0.54834
80.0	9.874697	0.2312	1.206532	0.024881	0.00675	-0.007579	-0.584717	0.069336	-0.543701
81.0	9.80426	0.220995	1.224744	0.016236	0.012385	-0.003812	-0.584473	0.064941	-0.555176
82.0	9.810579	0.217154	1.248328	0.019638	-0.002904	-0.002078	-0.587158	0.071533	-0.543945
83.0	9.865698	0.260976	1.189481	0.015398	-0.00327	-0.001157	-0.587158	0.071533	-0.550781
84.0	9.861752	0.241724	1.161296	0.011836	0.0061	0.001415	-0.584717	0.069336	-0.539063
85.0	9.844618	0.233688	1.190914	0.016201	0.008467	0.002476	-0.584717	0.067139	-0.54834
86.0	9.832398	0.178277	1.210204	0.018341	0.004464	6.8e-05	-0.587158	0.071533	-0.543945
87.0	9.83875	0.174171	1.233572	0.025259	0.000461	0.000754	-0.584717	0.067139	-0.54834
88.0	9.868975	0.17104	1.147053	0.024436	-0.007093	-0.000922	-0.584717	0.071533	-0.541504
89.0	9.892455	0.175041	1.140853	0.021883	-0.000724	-0.000546	-0.587158	0.071533	-0.548584
90.0	9.887583	0.222859	1.150673	0.023304	-0.006093	-0.000701	-0.589111	0.067139	-0.550781
91.0	9.89735	0.302451	1.136249	0.025569	-0.008096	-0.001128	-0.584717	0.067139	-0.541504
92.0	9.918383	0.330117	1.135038	0.022152	-0.000907	0.001465	-0.587158	0.071533	-0.550781
93.0	9.873937	0.299167	1.141729	0.016077	0.006463	0.000504	-0.584717	0.071533	-0.546143
94.0	9.850421	0.295689	1.148153	0.012555	0.007463	-0.000829	-0.596191	0.07373	-0.546143
95.0	9.82939	0.268318	1.14926	0.007886	0.001367	0.002395	-0.586914	0.067139	-0.550781
96.0	9.814772	0.236904	1.173231	0.003433	0.000906	-0.006931	-0.587158	0.071533	-0.541504
97.0	9.843162	0.193674	1.156838	0.004426	-0.010195	-0.004777	-0.586914	0.064941	-0.54126
98.0	9.836867	0.198644	1.132774	0.001623	-0.007831	-0.008359	-0.58252	0.069336	-0.543701
99.0	9.847267	0.214522	1.183352	0.005413	-0.009012	-0.005019	-0.584717	0.069336	-0.54834
100.0	9.844932	0.238772	1.187307	0.008093	-0.013379	-0.003411	-0.584717	0.069336	-0.539063
101.0	9.870985	0.218968	1.175047	0.011884	-0.014559	-7e-05	-0.589111	0.067139	-0.546143
102.0	9.881744	0.231515	1.121846	0.009777	-0.006645	-0.003958	-0.584717	0.067139	-0.54834
103.0	9.881839	0.231882	1.120934	0.008217	-0.011376	-0.001433	-0.591797	0.07373	-0.539307
104.0	9.862471	0.247883	1.153867	0.004965	-0.010557	-0.000761	-0.586914	0.069336	-0.543701
105.0	9.888487	0.22808	1.141852	0.00245	-0.012563	-0.004282	-0.591553	0.069336	-0.54834
106.0	9.891066	0.204449	1.135723	0.00085	-0.008917	0.00213	-0.593994	0.07373	-0.548584
107.0	9.891123	0.204216	1.135265	-0.00185	-0.000362	0.002463	-0.584717	0.067139	-0.543701
108.0	9.861298	0.204618	1.117828	0.001402	-0.001181	0.001792	-0.589111	0.067139	-0.54834
109.0	9.874167	0.196002	1.163727	0.001567	-0.007554	-0.000119	-0.587158	0.07373	-0.548584
110.0	9.869353	0.24358	1.173003	0.003832	-0.009556	-0.000546	-0.589355	0.069336	-0.550781
111.0	9.869435	0.243777	1.172276	0.003272	-0.005008	-0.002614	-0.580322	0.069336	-0.539063
112.0	9.861348	0.207802	1.218878	0.00295	-0.004547	0.003615	-0.589111	0.067139	-0.550781
113.0	9.830032	0.165047	1.168016	0.00212	0.000182	-0.000458	-0.589355	0.069336	-0.543701
114.0	9.842928	0.156685	1.213783	0.003707	-0.011561	-0.002518	-0.589355	0.071533	-0.550781
115.0	9.870487	0.179955	1.234809	2.8e-05	-0.016474	0.000468	-0.584473	0.064941	-0.543701
116.0	9.865971	0.22441	1.139768	2.8e-05	-0.016474	0.00047	-0.59375	0.067139	-0.54126
117.0	9.92753	0.263253	1.102817	-0.007753	-0.01165	0.001996	-0.580322	0.071533	-0.541504
118.0	9.887223	0.251273	1.136693	-0.014402	-0.007827	0.003309	-0.584961	0.071533	-0.548584
119.0	9.888847	0.293928	1.169292	-0.019773	-0.00719	0.004443	-0.584961	0.07373	-0.539307
120.0	9.910803	0.253412	1.129849	-0.025038	-0.000361	0.009493	-0.595947	0.069336	-0.54834
121.0	9.89873	0.19673	1.148699	-0.025037	-0.000362	0.009496	-0.586914	0.067139	-0.54834
122.0	9.885708	0.207208	1.206184	-0.019239	0.004734	0.006051	-0.584717	0.069336	-0.550781
123.0	9.847895	0.168141	1.132396	-0.010899	-0.004641	0.006587	-0.589111	0.067139	-0.543701
124.0	9.838984	0.198357	1.217067	-0.007213	-0.012014	0.006006	-0.587158	0.075928	-0.546387
125.0	9.888441	0.181361	1.199045	-0.01185	-0.0142	0.002949	-0.593994	0.075928	-0.548584
126.0	9.865117	0.177178	1.204131	-0.012446	-0.001274	0.004769	-0.591797	0.075928	-0.546387
127.0	9.822363	0.185953	1.140788	-0.012163	0.006645	0.002427	-0.586914	0.069336	-0.54834
128.0	9.8182	0.168896	1.216475	-0.010471	0.001092	0.004279	-0.591553	0.071533	-0.546143
129.0	9.83522	0.176486	1.187321	-0.00607	-0.004916	0.001444	-0.589355	0.071533	-0.546143
130.0	9.862754	0.199242	1.208888	-0.006353	-0.012835	0.003787	-0.5896	0.075928	-0.551025
131.0	9.892855	0.195233	1.121675	-0.005383	-0.007465	0.005486	-0.584717	0.069336	-0.543701
132.0	9.948667	0.173839	1.127326	-0.000872	-0.007283	0.006569	-0.586914	0.069336	-0.543701
133.0	9.925314	0.16949	1.132648	-0.00328	-0.003095	0.00697	-0.589355	0.071533	-0.557861
134.0	9.92535	0.168699	1.132452	-0.001033	-0.000911	0.008483	-0.59375	0.071533	-0.543945
135.0	9.908352	0.160033	1.161652	0.008144	0.005369	0.006331	-0.589355	0.07373	-0.546387
136.0	9.867861	0.148135	1.197179	0.010564	0.009283	0.001582	-0.59375	0.069336	-0.543701
137.0	9.812043	0.16876	1.191691	0.015346	0.009282	0.004672	-0.582764	0.07373	-0.546387
138.0	9.79664	0.201183	1.151394	0.010022	0.009647	-0.002427	-0.59375	0.069336	-0.539063
139.0	9.76259	0.185437	1.209848	0.01777	0.000907	0.002332	-0.5896	0.075928	-0.551025
140.0	9.803057	0.19704	1.174657	0.013836	-0.008013	0.001372	-0.591553	0.071533	-0.541504
141.0	9.83302	0.196236	1.191142	0.009868	-0.008558	0.0043	-0.587158	0.075928	-0.543945
142.0	9.890541	0.21541	1.126415	0.01339	-0.00956	0.005632	-0.591553	0.069336	-0.546143
143.0	9.920465	0.214274	1.143286	0.008432	0.001001	0.006396	-0.582764	0.07373	-0.541748
144.0	9.911566	0.241846	1.125685	0.011108	0.008919	0.005595	-0.593994	0.07373	-0.541504
145.0	9.920337	0.213167	1.144599	0.011651	0.008556	0.009608	-0.586914	0.069336	-0.543701
146.0	9.894396	0.232699	1.156457	0.006455	0.010922	0.004479	-0.591553	0.071533	-0.541504
147.0	9.860426	0.213496	1.111846	0.004479	0.008557	0.004972	-0.591797	0.07373	-0.543945
148.0	9.852183	0.177013	1.159736	0.000239	0.008195	0.005892	-0.591309	0.067139	-0.54126
149.0	9.877957	0.156452	1.149499	0.003363	0.00537	0.003244	-0.587158	0.071533	-0.539307
150.0	9.83926	0.184704	1.114202	-0.001164	-0.002909	0.006511	-0.58252	0.067139	-0.543701
151.0	9.839274	0.18443	1.114124	0.003108	0.001363	-0.000706	-0.587158	0.071533	-0.543945
152.0	9.852057	0.176002	1.160959	0.005786	0.00928	-0.001506	-0.589355	0.07373	-0.543945
153.0	9.826091	0.196678	1.172793	0.007093	0.010003	-0.007984	-0.591553	0.069336	-0.539063
154.0	9.872834	0.204347	1.162079	0.010567	0.009279	0.001589	-0.596191	0.075928	-0.546387
155.0	9.866283	0.208761	1.140039	0.007619	0.013829	-0.002027	-0.587158	0.07373	-0.546387
156.0	9.895957	0.208291	1.158834	0.007746	0.015833	-5.1e-05	-0.596191	0.07373	-0.541504
157.0	9.915207	0.192435	1.126443	0.007873	0.017836	0.001926	-0.591553	0.071533	-0.543945
158.0	9.93842	0.196142	1.122577	0.012688	0.021744	-0.001272	-0.5896	0.075928	-0.541748
159.0	9.9099	0.239845	1.140678	0.002755	0.022484	0.007009	-0.587158	0.07373	-0.551025
160.0	9.917911	0.275074	1.095653	0.006419	0.019297	0.008378	-0.587158	0.071533	-0.539307
161.0	9.921666	0.293863	1.125995	0.003743	0.023666	0.006769	-0.587158	0.07373	-0.543945
162.0	9.904319	0.28499	1.157737	-0.005902	0.032323	0.012705	-0.593994	0.07373	-0.539307
163.0	9.897612	0.28799	1.137726	-0.00928	0.03114	0.011404	-0.589355	0.071533	-0.541504
164.0	9.864	0.203927	1.160489	-0.011543	0.033143	0.011836	-0.591553	0.069336	-0.541504
165.0	9.812786	0.176178	1.147154	-0.00897	0.034865	0.007128	-0.589355	0.07373	-0.539307
166.0	9.784574	0.155673	1.231357	-0.009614	0.029035	-0.000807	-0.591797	0.07373	-0.539307
167.0	9.775515	0.183877	1.215575	-0.009436	0.018477	-0.004673	-0.584961	0.075928	-0.546387
168.0	9.798795	0.187802	1.211157	-0.016484	0.0082	-0.004953	-0.584961	0.075928	-0.551025
169.0	9.836793	0.223341	1.182707	-0.019032	0.014572	-0.004581	-0.587158	0.071533	-0.543945
170.0	9.898194	0.262398	1.149014	-0.017919	0.017755	-0.002841	-0.591553	0.071533	-0.541504
171.0	9.965924	0.296837	1.138721	-0.020637	0.018213	0.001845	-0.589355	0.071533	-0.546143
172.0	9.968108	0.272518	1.135889	-0.017421	0.025762	0.005083	-0.593994	0.07373	-0.548584
173.0	9.974708	0.264527	1.058576	-0.017725	0.034314	0.006987	-0.591797	0.075928	-0.546387
174.0	9.94244	0.223834	1.115225	-0.016773	0.043864	0.010663	-0.593994	0.07373	-0.548584
175.0	9.871587	0.211884	1.136675	-0.020415	0.042864	0.007354	-0.580322	0.07373	-0.548584
176.0	9.832899	0.175788	1.170383	-0.021934	0.042044	0.00359	-0.587158	0.075928	-0.543945
177.0	9.800249	0.199746	1.162042	-0.022057	0.040042	0.001617	-0.580322	0.071533	-0.548584
178.0	9.777784	0.238811	1.204644	-0.019102	0.031304	0.003274	-0.589355	0.07373	-0.551025
179.0	9.783702	0.233976	1.230733	-0.021203	0.026939	0.001774	-0.582764	0.075928	-0.539307
180.0	9.781014	0.257253	1.237987	-0.022614	0.015842	0.002348	-0.580322	0.071533	-0.543945
181.0	9.832661	0.216387	1.217838	-0.022066	0.011292	0.004404	-0.584961	0.075928	-0.553223
182.0	9.875625	0.203555	1.179659	-0.02136	0.016839	0.004124	-0.585205	0.078125	-0.548828
183.0	9.841875	0.184396	1.135619	-0.019644	0.019386	0.001644	-0.580566	0.078125	-0.551025
184.0	9.8752	0.202554	1.183384	-0.018249	0.0182	0.003438	-0.582764	0.07373	-0.541748
185.0	9.821817	0.199265	1.173089	-0.016107	0.014199	0.001022	-0.584961	0.07373	-0.548584
186.0	9.89214	0.209837	1.157197	-0.015539	0.005467	0.001108	-0.593994	0.075928	-0.546387
187.0	9.853745	0.174304	1.187408	-0.020733	0.012022	-0.002059	-0.587158	0.07373	-0.551025
188.0	9.857351	0.193482	1.217382	-0.02316	0.020387	0.000324	-0.589355	0.07373	-0.548584
189.0	9.773216	0.193713	1.2933	-0.017643	0.017565	-0.000777	-0.584961	0.07373	-0.548584
190.0	9.766873	0.197843	1.271043	-0.017377	0.000918	0.001605	-0.584961	0.07373	-0.543945
191.0	9.785564	0.248768	1.275185	-0.022546	-0.013167	-0.003153	-0.585205	0.078125	-0.546387
192.0	9.807801	0.273648	1.169674	-0.029879	-0.019075	-0.003517	-0.587402	0.080322	-0.541992
193.0	9.87742	0.350952	1.189566	-0.046446	-0.022898	0.002156	-0.5896	0.080322	-0.546631
194.0	9.896068	0.226594	1.185014	-0.071076	-0.01754	0.009352	-0.5896	0.078125	-0.551025
195.0	9.944431	0.100895	1.197822	-0.066144	-0.023917	0.010523	-0.582764	0.078125	-0.548828
196.0	10.075551	0.106059	1.109783	-0.060081	-0.031295	0.01147	-0.592041	0.08252	-0.539551
197.0	10.075693	0.16871	1.042867	-0.076589	-0.014736	0.01055	-0.587402	0.080322	-0.544189
198.0	10.077299	0.145303	1.140861	-0.079257	0.006094	0.008646	-0.587646	0.086914	-0.539795
199.0	9.969887	0.140332	1.221848	-0.054104	0.016826	0.005099	-0.587402	0.080322	-0.541992
200.0	9.883495	0.163371	1.302565	-0.035701	0.008747	-0.000739	-0.585205	0.078125	-0.541748
201.0	9.789329	0.213167	1.261781	-0.029761	0.015845	-0.002156	-0.587646	0.084717	-0.546631
202.0	9.792996	0.231764	1.291582	-0.041679	0.009994	0.00465	-0.5896	0.078125	-0.541748
203.0	9.83227	0.135034	1.288899	-0.053802	0.008274	0.003186	-0.582764	0.078125	-0.541748
204.0	9.860498	0.090124	1.273395	-0.062146	0.005352	0.005056	-0.589844	0.084717	-0.546631
205.0	9.90594	0.053263	1.229309	-0.065821	0.012711	0.005726	-0.589844	0.08252	-0.55127
206.0	9.907189	0.094482	1.264507	-0.059799	0.013679	0.010603	-0.589844	0.084717	-0.541992
207.0	9.877304	0.093966	1.248409	-0.051839	0.014801	0.004759	-0.585449	0.084717	-0.55127
208.0	9.868444	0.055957	1.296896	-0.046119	0.024303	0.011598	-0.587646	0.08252	-0.541992
209.0	9.797649	0.043134	1.316279	-0.035006	0.029004	0.015298	-0.587402	0.080322	-0.548828
210.0	9.721638	-0.031362	1.273159	-0.039754	0.024854	0.010231	-0.585449	0.086914	-0.544434
211.0	9.731039	-0.12792	1.253193	-0.03348	0.009159	0.017387	-0.580811	0.08252	-0.544189
212.0	9.7682	-0.027808	1.265138	-0.023573	0.020995	0.015048	-0.585449	0.086914	-0.544434
213.0	9.755547	-0.020179	1.220794	-0.01919	0.01918	0.014133	-0.583008	0.084717	-0.55127
214.0	9.890587	0.113881	1.238705	-0.010312	0.001078	0.014572	-0.587646	0.086914	-0.551514
215.0	9.967391	0.183287	1.181216	-0.022921	0.001955	0.019351	-0.576416	0.084717	-0.55127
216.0	9.953332	0.082653	1.166429	-0.02757	0.024594	0.019995	-0.589844	0.086914	-0.542236
217.0	9.846699	0.075371	1.144807	-0.014839	0.025698	0.017225	-0.583008	0.084717	-0.544434
218.0	9.835339	0.060637	1.198597	-0.017777	0.013813	0.013934	-0.585205	0.08252	-0.55127
219.0	9.807893	0.036583	1.176879	-0.014785	0.013195	0.011238	-0.585449	0.089111	-0.549072
220.0	9.843537	0.029805	1.219311	-0.011479	0.020507	0.00629	-0.585449	0.086914	-0.553711
221.0	9.794907	-0.020715	1.198113	-0.001582	0.015879	0.004219	-0.587646	0.084717	-0.546631
222.0	9.797193	-0.044515	1.193439	0.012001	-0.000277	-0.000534	-0.592285	0.089111	-0.551514
223.0	9.838089	-0.032292	1.158815	0.0168	-0.008638	-0.001444	-0.585449	0.089111	-0.556152
224.0	9.835787	-0.008213	1.163595	0.026402	-0.004736	-0.001521	-0.587646	0.08252	-0.55127
225.0	9.81235	-0.01134	1.168577	0.035289	-0.006381	-0.001354	-0.585449	0.086914	-0.551514
226.0	9.831187	0.040001	1.173088	0.041583	-0.009789	0.003526	-0.583252	0.089111	-0.544434
227.0	9.882127	0.06634	1.189373	0.037617	-0.014523	0.004467	-0.587646	0.084717	-0.541992
228.0	9.908114	0.046395	1.17752	0.032158	-0.003585	0.001354	-0.589844	0.08252	-0.539551
229.0	9.898151	0.032112	1.125748	0.02988	0.002581	0.003808	-0.580811	0.084717	-0.541992
230.0	9.900518	0.008643	1.120432	0.033881	-0.001027	-0.001111	-0.587646	0.086914	-0.546875
231.0	9.87467	0.029014	1.131099	0.027914	-0.003954	0.002289	-0.585449	0.089111	-0.544434
232.0	9.921735	0.036343	1.119457	0.029183	-0.007138	0.002074	-0.585205	0.08252	-0.541992
233.0	9.917055	0.083834	1.129577	0.033549	-0.004786	0.003158	-0.583252	0.089111	-0.546875
234.0	9.935602	0.069894	1.198911	0.023515	0.002031	0.005204	-0.587891	0.089111	-0.542236
235.0	9.909698	0.089909	1.210069	0.026368	0.003589	0.002505	-0.585449	0.084717	-0.546631
236.0	9.871226	0.054444	1.239112	0.03115	-0.000607	0.003614	-0.594482	0.086914	-0.546875
237.0	9.897111	0.034517	1.22812	0.034142	-0.001232	0.000927	-0.578857	0.089111	-0.549072
238.0	9.843946	0.032284	1.215942	0.042891	-0.000701	0.001105	-0.589844	0.086914	-0.542236
239.0	9.865099	0.060001	1.215514	0.04303	-0.002886	0.001122	-0.581055	0.086914	-0.542236
240.0	9.880083	0.092302	1.191837	0.044021	-0.001706	0.000896	-0.583008	0.084717	-0.55127
241.0	9.916123	0.151634	1.168542	0.039468	0.010641	0.005773	-0.587646	0.084717	-0.544434
242.0	9.928323	0.142513	1.216109	0.032303	0.014846	0.003113	-0.583008	0.08252	-0.548828
243.0	9.917248	0.194435	1.204884	0.023815	0.014122	0.004946	-0.583008	0.084717	-0.544434
244.0	9.895935	0.166656	1.206685	0.013188	0.017393	0.009219	-0.583008	0.084717	-0.546631
245.0	9.895705	0.165796	1.208687	0.006406	0.023398	0.010557	-0.580811	0.084717	-0.541992
246.0	9.803787	0.127067	1.227759	0.015904	0.021126	0.006515	-0.585449	0.084717	-0.546631
247.0	9.803592	0.126554	1.229367	0.012212	0.012036	0.007475	-0.585205	0.080322	-0.541992
248.0	9.837873	0.077981	1.237345	0.019345	0.005601	-0.000105	-0.585449	0.086914	-0.544434
249.0	9.878695	0.090223	1.203444	0.020965	0.001989	-0.006563	-0.587646	0.08252	-0.539551
250.0	9.951536	0.077948	1.181975	0.02333	0.006151	-0.003021	-0.585205	0.08252	-0.548828
251.0	9.925517	0.098778	1.193898	0.02238	0.017252	-0.005088	-0.581055	0.086914	-0.539795
252.0	9.883019	0.045195	1.19621	0.030611	0.01816	-0.00891	-0.583008	0.084717	-0.546631
253.0	9.875689	0.117602	1.21358	0.035253	0.016146	-0.007791	-0.583252	0.089111	-0.542236
254.0	9.881646	0.113927	1.238124	0.030931	0.011853	-0.000604	-0.587646	0.086914	-0.544434
255.0	9.851928	0.115615	1.22097	0.033108	-0.000493	-0.007003	-0.585693	0.091309	-0.542236
256.0	9.869245	0.124398	1.192694	0.023312	0.010323	-0.001015	-0.587646	0.084717	-0.544434
257.0	9.843192	0.144909	1.204722	0.020775	0.016689	-0.0006	-0.583008	0.08252	-0.544189
258.0	9.814345	0.124698	1.286899	0.027539	0.014855	7e-05	-0.585205	0.08252	-0.544189
259.0	9.787011	0.102145	1.264583	0.031028	-0.002612	0.001741	-0.585449	0.084717	-0.544434
260.0	9.804451	0.110627	1.235435	0.033903	-0.005242	-0.002929	-0.585449	0.084717	-0.541992
261.0	9.826654	0.071935	1.195862	0.032514	-0.004054	-0.004715	-0.587402	0.080322	-0.541992
262.0	9.836568	0.087657	1.247032	0.032514	-0.004055	-0.00471	-0.585449	0.086914	-0.546875
263.0	9.857804	0.115882	1.245763	0.036322	-0.013608	-0.005312	-0.583008	0.08252	-0.548828
264.0	9.942097	0.116335	1.170965	0.038901	-0.0077	-0.00803	-0.587646	0.08252	-0.546631
265.0	10.004162	0.156188	1.135775	0.03688	-0.001706	-0.003603	-0.585449	0.084717	-0.549072
266.0	9.972097	0.18138	1.12347	0.037834	0.007829	0.000121	-0.587646	0.086914	-0.549072
267.0	9.999239	0.204556	1.147244	0.034562	0.012831	0.002769	-0.587646	0.08252	-0.553467
268.0	9.937016	0.165768	1.183635	0.033136	0.022375	0.004932	-0.585205	0.08252	-0.548828
269.0	9.928231	0.193797	1.167888	0.026232	0.026389	0.004239	-0.585205	0.080322	-0.546631
270.0	9.857369	0.182894	1.18716	0.023098	0.02921	0.006902	-0.585449	0.084717	-0.55127
271.0	9.798709	0.163599	1.252789	0.027721	0.024934	-0.002208	-0.583252	0.086914	-0.546875
272.0	9.809305	0.112319	1.267966	0.017999	0.019049	-0.004167	-0.585205	0.080322	-0.548828
273.0	9.771029	0.142149	1.233324	0.022562	0.00668	-0.008971	-0.583252	0.086914	-0.549072
274.0	9.787049	0.108171	1.171765	0.018932	0.00569	-0.012309	-0.585205	0.078125	-0.546387
275.0	9.822702	0.104373	1.213104	0.020459	0.002322	-0.010493	-0.587646	0.086914	-0.544434
276.0	9.835317	0.161178	1.194443	0.02161	-0.002862	-0.012677	-0.5896	0.080322	-0.544189
277.0	9.894545	0.161063	1.229739	0.018217	0.000145	-0.012034	-0.589844	0.084717	-0.549072
278.0	9.911905	0.170481	1.201269	0.0253	0.006219	-0.013638	-0.582764	0.078125	-0.548828
279.0	9.896732	0.140392	1.22606	0.018235	0.016595	-0.012394	-0.585205	0.078125	-0.551025
280.0	9.89523	0.09885	1.194429	0.025339	0.018487	-0.015967	-0.585205	0.078125	-0.544189
281.0	9.818357	0.094471	1.189402	0.031848	0.016836	-0.017276	-0.582764	0.078125	-0.541748
282.0	9.855146	0.134481	1.264778	0.03544	0.00556	-0.011586	-0.580566	0.078125	-0.546387
283.0	9.860318	0.15242	1.190063	0.030062	0.006206	-0.010481	-0.580811	0.08252	-0.548828
284.0	9.866327	0.149307	1.213793	0.022958	0.004313	-0.006906	-0.584961	0.075928	-0.546387
285.0	9.87882	0.205518	1.195654	0.020811	0.008317	-0.004492	-0.587402	0.078125	-0.544189
286.0	9.857622	0.178849	1.196928	0.025314	0.008491	-0.003365	-0.580566	0.078125	-0.546387
287.0	9.887155	0.178528	1.215182	0.022993	0.002411	0.001373	-0.580811	0.08252	-0.55127
288.0	9.853828	0.16005	1.169771	0.027554	0.010668	-0.001813	-0.587402	0.080322	-0.546631
289.0	9.800589	0.157978	1.158414	0.020299	0.008673	-0.008502	-0.583008	0.080322	-0.548828
290.0	9.786671	0.170576	1.216255	0.015177	0.009141	-0.005397	-0.585205	0.08252	-0.548828
291.0	9.789044	0.147408	1.211696	0.009369	-0.000115	-0.003985	-0.580566	0.080322	-0.546631
292.0	9.877054	0.166348	1.166376	0.006254	-0.001472	-0.003312	-0.585205	0.078125	-0.548828
293.0	9.875801	0.123539	1.133554	0.005296	0.009614	-0.00543	-0.583008	0.080322	-0.544189
294.0	9.949856	0.154076	1.146514	0.006775	0.01462	0.000325	-0.578369	0.080322	-0.546631
295.0	9.976847	0.177349	1.170616	0.008782	0.012794	-0.002103	-0.585205	0.080322	-0.544189
296.0	9.979106	0.153709	1.167177	0.01663	0.018329	0.002331	-0.585205	0.08252	-0.546631
297.0	9.949251	0.15425	1.151726	0.016184	0.029057	0.004237	-0.584961	0.075928	-0.541748
298.0	9.88439	0.139101	1.19434	0.021678	0.030409	0.005141	-0.578369	0.078125	-0.541748
299.0	9.845497	0.103506	1.226326	0.020345	0.025512	0.00965	-0.583008	0.084717	-0.549072
300.0	9.848838	0.122416	1.256675	0.024021	0.018142	0.009071	-0.580811	0.08252	-0.544189
301.0	9.860097	0.133984	1.206272	0.02266	0.015137	0.005307	-0.583008	0.084717	-0.55127
302.0	9.863507	0.153324	1.236007	0.023652	0.016315	0.00508	-0.585205	0.080322	-0.544189
303.0	9.863286	0.152932	1.237822	0.018247	0.021149	0.008134	-0.582764	0.078125	-0.548828
304.0	9.856991	0.156675	1.216771	0.018845	0.024685	0.005876	-0.582764	0.078125	-0.539551
305.0	9.836762	0.172578	1.252637	0.025243	0.021026	0.002603	-0.583008	0.084717	-0.546631
306.0	9.806993	0.173182	1.236532	0.024784	0.015308	0.004891	-0.582764	0.078125	-0.551025
307.0	9.768202	0.138254	1.267059	0.024304	0.011475	-0.001093	-0.585205	0.078125	-0.541748
308.0	9.791643	0.142393	1.262301	0.024356	0.003104	-0.005022	-0.582764	0.075928	-0.548584
309.0	9.82361	0.118719	1.27531	0.022512	-0.001433	-0.004539	-0.578369	0.075928	-0.548584
310.0	9.870671	0.126482	1.264475	0.020108	0.002753	-0.004147	-0.585205	0.080322	-0.541992
311.0	9.862122	0.155366	1.246763	0.016665	0.011828	-0.009835	-0.582764	0.07373	-0.543945
312.0	9.900617	0.191195	1.218427	0.01895	0.007942	-0.001972	-0.582764	0.075928	-0.546387
313.0	9.880096	0.228118	1.153864	0.020988	0.001924	-0.006356	-0.580566	0.078125	-0.551025
314.0	9.86359	0.264569	1.216141	0.022066	0.009294	-0.002632	-0.585205	0.08252	-0.553467
315.0	9.84592	0.257321	1.245829	0.022178	0.011299	-0.000642	-0.585205	0.078125	-0.551025
316.0	9.807159	0.22263	1.276081	0.02682	0.009293	0.000528	-0.589844	0.08252	-0.544189
317.0	9.859062	0.182341	1.256039	0.025116	0.002575	0.001037	-0.580566	0.078125	-0.548828
318.0	9.904994	0.146026	1.212572	0.011838	0.006063	0.001578	-0.585205	0.08252	-0.544189
319.0	9.950863	0.109952	1.169655	0.008283	0.013127	-0.006105	-0.580566	0.078125	-0.551025
320.0	9.907055	0.123457	1.210776	0.005666	0.029742	-0.010091	-0.585205	0.08252	-0.548828
321.0	9.89026	0.160188	1.274881	0.008995	0.018665	-0.006377	-0.580322	0.07373	-0.555664
322.0	9.893569	0.180562	1.304581	0.00616	0.012951	-0.005667	-0.580566	0.075928	-0.541748
323.0	9.863902	0.181664	1.287732	0.011193	0.008592	-0.00246	-0.582764	0.078125	-0.546387
324.0	9.840262	0.178386	1.293846	0.00946	0.006063	8e-06	-0.587402	0.078125	-0.548828
325.0	9.849327	0.21409	1.247175	0.010593	0.00506	-0.000195	-0.587646	0.08252	-0.548828
326.0	9.864371	0.245455	1.223834	0.002207	0.006369	0.003517	-0.582764	0.075928	-0.548584
327.0	9.879411	0.276566	1.200618	0.001074	0.007372	0.003721	-0.580566	0.078125	-0.546387
328.0	9.890204	0.224344	1.215152	0.004554	0.010558	0.007061	-0.583008	0.080322	-0.546631
329.0	9.930196	0.191367	1.148881	0.004834	0.006197	0.00711	-0.578369	0.080322	-0.55127
330.0	9.943016	0.226314	1.22983	0.010856	0.021325	0.001423	-0.585449	0.084717	-0.546631
331.0	9.941626	0.182616	1.19974	-0.001879	0.036719	0.003615	-0.583008	0.080322	-0.544189
332.0	9.884866	0.139567	1.261564	-0.006408	0.04073	0.004434	-0.583008	0.080322	-0.55127
333.0	9.819712	0.124382	1.304456	-0.004576	0.028825	0.004354	-0.580566	0.075928	-0.553223
334.0	9.778227	0.112947	1.340863	0.008872	0.018968	0.001894	-0.583008	0.080322	-0.55127
335.0	9.765203	0.077425	1.262416	-0.000912	0.005017	0.00418	-0.578613	0.08252	-0.546631
336.0	9.773529	0.049463	1.281401	0.00372	0.004881	-0.002916	-0.578369	0.078125	-0.551025
337.0	9.79703	0.053483	1.276429	0.00786	0.003222	-0.005762	-0.583008	0.08252	-0.55127
338.0	9.844106	0.060988	1.265951	0.013991	0.002048	-0.000789	-0.585449	0.084717	-0.549072
339.0	9.860239	0.136423	1.275258	0.022241	0.002916	-0.004514	-0.580811	0.084717	-0.549072
340.0	9.913184	0.140266	1.288459	0.025821	0.009976	-0.00745	-0.585205	0.078125	-0.553467
341.0	9.874119	0.126098	1.220566	0.026612	0.021707	-0.003767	-0.580811	0.08252	-0.55127
342.0	9.827637	0.163093	1.266923	0.019647	0.034092	-0.000608	-0.580566	0.078125	-0.551025
343.0	9.764725	0.144741	1.207041	0.015269	0.052359	-0.000158	-0.580566	0.075928	-0.551025
344.0	9.784167	0.109	1.277936	0.002065	0.063905	-0.003959	-0.585205	0.08252	-0.548828
345.0	9.708239	0.086432	1.601376	0.004798	-0.02667	0.007895	-0.580566	0.080322	-0.548828
346.0	9.956936	0.081585	1.123995	0.043822	-0.081745	0.003509	-0.580811	0.084717	-0.55127
347.0	10.060381	0.241906	1.12185	0.012613	0.001358	0.005688	-0.583008	0.08252	-0.546631
348.0	9.990981	0.143661	1.201436	0.001035	0.048621	0.006862	-0.576172	0.080322	-0.553467
349.0	9.847615	0.189569	1.275104	0.024786	0.031738	0.004614	-0.580322	0.07373	-0.553223
350.0	9.89709	0.17275	1.260603	0.022835	-0.011862	0.001927	-0.582764	0.078125	-0.553467
351.0	9.903147	0.188823	1.183801	0.03675	-0.016018	-0.002784	-0.580811	0.08252	-0.553467
352.0	9.941951	0.224325	1.154079	0.023206	0.008269	-0.002739	-0.580811	0.08252	-0.548828
353.0	9.908894	0.185729	1.208203	0.013975	0.022666	0.000799	-0.580566	0.075928	-0.553223
354.0	9.835511	0.198945	1.230767	0.009399	0.014435	0.003963	-0.587402	0.075928	-0.557861
355.0	9.842829	0.127193	1.217286	-0.00301	0.000661	0.002636	-0.580811	0.080322	-0.553467
356.0	9.837901	0.174545	1.226738	0.003754	-0.001171	0.0034	-0.585205	0.078125	-0.551025
357.0	9.819301	0.122992	1.222396	-0.003615	-0.002865	0.004898	-0.583008	0.080322	-0.553467
358.0	9.807544	0.110934	1.274171	0.005134	-0.002345	0.005213	-0.587402	0.080322	-0.548828
359.0	9.763883	0.123532	1.312574	0.014659	-0.004669	0.001329	-0.583008	0.08252	-0.548828
360.0	9.754628	0.107416	1.260765	0.001132	-0.002859	0.008075	-0.580811	0.084717	-0.55127
361.0	9.75716	0.083437	1.255503	0.008811	-0.00786	-0.003608	-0.582764	0.078125	-0.551025
362.0	9.713592	0.096283	1.293239	0.007957	-0.013071	0.004918	-0.584961	0.075928	-0.543945
363.0	9.728048	0.083958	1.234813	0.01652	-0.020763	-0.000699	-0.583008	0.080322	-0.55127
364.0	9.752928	0.131384	1.259595	0.019482	-0.033671	-0.000962	-0.580811	0.08252	-0.544189
365.0	9.80294	0.114979	1.240741	0.019373	-0.035684	-0.002941	-0.576172	0.080322	-0.544189
366.0	9.795009	0.143397	1.218552	0.022631	-0.036517	-0.003557	-0.587402	0.078125	-0.553467
367.0	9.830853	0.139631	1.256262	0.024506	-0.036178	-0.005986	-0.578613	0.084717	-0.546631
368.0	9.878466	0.147068	1.241469	0.022808	-0.044744	0.002811	-0.587646	0.08252	-0.541992
369.0	9.916668	0.138508	1.174961	0.021917	-0.04206	-0.003245	-0.582764	0.078125	-0.548828
370.0	9.94906	0.114825	1.184433	0.025608	-0.032998	-0.004207	-0.587402	0.078125	-0.546387
371.0	9.955322	0.111519	1.205166	0.028138	-0.018737	-0.003025	-0.5896	0.075928	-0.546387
372.0	10.006101	0.139148	1.220848	0.030584	-0.010682	-0.005779	-0.582764	0.075928	-0.548584
373.0	10.003736	0.163953	1.224692	0.031297	-0.005146	-0.006066	-0.582764	0.075928	-0.543945
374.0	9.954148	0.181808	1.240416	0.030317	0.010116	-0.006283	-0.583008	0.080322	-0.553467
375.0	9.905809	0.131815	1.220049	0.023746	0.02017	-0.001136	-0.587402	0.078125	-0.544189
376.0	9.811424	0.117958	1.243293	0.023927	0.011952	0.005229	-0.5896	0.080322	-0.544189
377.0	9.817285	0.114122	1.267387	0.025859	0.0039	-0.001101	-0.585205	0.080322	-0.548828
378.0	9.808813	0.142388	1.249105	0.028976	0.005246	-0.001751	-0.587402	0.078125	-0.544189
379.0	9.820672	0.13493	1.296152	0.027242	0.002728	0.000723	-0.582764	0.078125	-0.546387
380.0	9.832283	0.146403	1.244237	0.018743	0.002045	0.00242	-0.585205	0.080322	-0.546631
381.0	9.853345	0.173591	1.243712	0.01673	0.003889	0.004825	-0.585449	0.084717	-0.55127
382.0	9.894429	0.184093	1.210072	0.010075	0.007738	0.00603	-0.584961	0.075928	-0.543945
383.0	9.887507	0.124723	1.254456	0.008846	0.023165	0.003785	-0.585205	0.078125	-0.551025
384.0	9.876566	0.156858	1.341608	0.009949	0.026354	0.005539	-0.582764	0.078125	-0.539551
385.0	9.80801	0.122315	1.355806	0.011824	0.026689	0.003107	-0.587158	0.075928	-0.548584
386.0	9.755538	0.182212	1.279043	0.017655	0.015287	0.000224	-0.583008	0.08252	-0.55127
387.0	9.74106	0.214038	1.238174	0.015809	0.010757	0.000714	-0.580322	0.069336	-0.546143
388.0	9.705596	0.218799	1.197201	0.01703	-0.002836	-0.005319	-0.587402	0.080322	-0.541992
389.0	9.814212	0.20183	1.216937	0.016347	-0.012567	-0.006969	-0.580811	0.08252	-0.546631
390.0	9.900172	0.244318	1.175338	0.008589	-0.011909	-0.007522	-0.580811	0.08252	-0.55127
391.0	9.92266	0.205017	1.137652	0.005138	0.017766	-0.011795	-0.582764	0.078125	-0.553467
392.0	9.891927	0.16267	1.089144	0.00635	0.022973	-0.008062	-0.583008	0.08252	-0.546631
393.0	9.880965	0.196162	1.175853	-0.002369	0.018259	-0.010334	-0.580566	0.075928	-0.546387
394.0	9.864688	0.121907	1.168439	-0.001881	0.001496	-0.005845	-0.585205	0.078125	-0.541748
395.0	9.910301	0.197279	1.194759	-0.002099	-0.002536	-0.009804	-0.587402	0.080322	-0.55127
396.0	9.953926	0.185166	1.15619	-0.006911	0.005843	-0.009096	-0.587158	0.07373	-0.546387
397.0	9.959705	0.182089	1.180634	-0.008606	0.015567	-0.009034	-0.587158	0.075928	-0.548584
398.0	9.984588	0.118557	1.139644	-0.005982	0.01541	-0.005428	-0.578369	0.080322	-0.544189
399.0	10.007943	0.122471	1.135989	0.003869	0.01912	-0.003343	-0.585205	0.080322	-0.55127
400.0	10.022026	0.09127	1.179976	0.000502	0.017937	-0.004707	-0.585205	0.08252	-0.544189
401.0	10.027679	0.087564	1.205459	0.007451	0.024333	0.001987	-0.580566	0.080322	-0.548828
402.0	9.98612	0.076725	1.242335	0.008906	0.031206	-0.000539	-0.585205	0.080322	-0.544189
403.0	10.024399	0.111356	1.216631	0.0053	0.044789	0.003912	-0.582764	0.078125	-0.553467
404.0	9.991855	0.135231	1.208276	0.007963	0.056867	0.005133	-0.580811	0.08252	-0.544189
405.0	9.997052	0.130517	1.237235	0.00796	0.055034	0.013423	-0.583008	0.080322	-0.55127
406.0	10.042658	0.092285	1.199555	0.019329	0.055392	0.017391	-0.583008	0.080322	-0.548828
407.0	9.998433	0.122482	1.144929	0.033175	0.057771	0.024946	-0.585205	0.08252	-0.548828
408.0	9.957218	0.153394	1.217975	0.031064	0.074024	0.02495	-0.580566	0.075928	-0.543945
409.0	9.844245	0.129843	1.274952	0.038562	0.071694	0.031824	-0.583008	0.080322	-0.548828
410.0	9.796961	0.16436	1.325401	0.030895	0.080384	0.026935	-0.584961	0.075928	-0.548584
411.0	9.760222	0.147547	1.390845	0.03048	0.086911	0.026884	-0.580811	0.08252	-0.55127
412.0	9.685805	0.159059	1.419256	0.021524	0.082361	0.02258	-0.580566	0.078125	-0.551025
413.0	9.700106	0.188504	1.402934	0.009068	0.078812	0.01685	-0.580811	0.080322	-0.553467
414.0	9.702222	0.207053	1.438757	-0.001329	0.083821	0.01462	-0.578613	0.08252	-0.546631
415.0	9.609061	0.168608	1.462907	-0.010245	0.081096	0.002013	-0.580811	0.080322	-0.555908
416.0	9.532211	0.206059	1.494228	-0.006462	0.061137	-0.004367	-0.578613	0.08252	-0.555908
417.0	9.520174	0.214505	1.4519	0.009746	0.034319	-0.010893	-0.575928	0.075928	-0.557861
418.0	9.576886	0.25798	1.396346	0.015561	0.012518	-0.019692	-0.582764	0.07373	-0.546387
419.0	9.654277	0.285531	1.306112	0.016909	0.000948	-0.023779	-0.571777	0.08252	-0.55127
420.0	9.730123	0.250463	1.281209	0.013583	-0.010438	-0.020817	-0.580811	0.08252	-0.553467
421.0	9.806121	0.215414	1.255231	0.011673	-0.021173	-0.024305	-0.576172	0.078125	-0.553467
422.0	9.863598	0.12918	1.224728	0.012288	-0.023674	-0.020243	-0.578369	0.078125	-0.560303
423.0	9.951029	0.08642	1.244993	0.012905	-0.020163	-0.022497	-0.582764	0.075928	-0.557861
424.0	9.976679	0.024251	1.20138	0.016185	-0.010594	-0.017182	-0.580811	0.080322	-0.555908
425.0	9.980582	0.08987	1.260865	0.01875	-0.006552	-0.011598	-0.576172	0.078125	-0.553467
426.0	10.006781	0.07051	1.250587	0.022827	-0.005852	-0.004162	-0.578369	0.075928	-0.553223
427.0	10.060356	0.118061	1.29582	0.022886	0.000361	-0.000216	-0.580566	0.078125	-0.553467
428.0	10.034181	0.138478	1.305815	0.02205	0.007418	0.005932	-0.580566	0.078125	-0.551025
429.0	10.025217	0.121671	1.255554	0.027596	0.014982	0.010864	-0.575928	0.075928	-0.5625
430.0	9.996353	0.165212	1.271498	0.039287	0.023208	0.012572	-0.580811	0.08252	-0.548828
431.0	9.877946	0.147394	1.299885	0.041752	0.031238	0.00986	-0.580811	0.080322	-0.55127
432.0	9.851466	0.167254	1.312213	0.045768	0.025725	0.013371	-0.582764	0.078125	-0.551025
433.0	9.756614	0.153358	1.335578	0.041797	0.033038	0.001606	-0.578369	0.075928	-0.553223
434.0	9.699701	0.156076	1.429012	0.03953	0.035046	0.001991	-0.583008	0.080322	-0.553467
435.0	9.67875	0.173363	1.464976	0.033986	0.027478	-0.002935	-0.57373	0.07373	-0.555664
436.0	9.693951	0.205277	1.442556	0.034861	0.010214	-0.004702	-0.582764	0.075928	-0.546387
437.0	9.762192	0.240412	1.432236	0.029653	0.00451	-0.005635	-0.582764	0.07373	-0.551025
438.0	9.811848	0.224139	1.418223	0.022094	0.009213	-0.002293	-0.580566	0.078125	-0.546387
439.0	9.900054	0.198195	1.342507	0.02667	0.000992	-0.004981	-0.580566	0.075928	-0.551025
440.0	9.926181	0.178569	1.333005	0.025675	-0.00018	-0.004762	-0.578369	0.075928	-0.555664
441.0	9.967198	0.146019	1.267164	0.029556	0.002485	-0.007604	-0.578613	0.08252	-0.558105
442.0	9.964595	0.171008	1.272034	0.020389	0.008506	-0.008116	-0.576172	0.078125	-0.548828
443.0	9.967467	0.192289	1.301443	0.026034	0.02409	-0.007517	-0.583008	0.080322	-0.553467
444.0	9.902366	0.223535	1.375246	0.01985	0.033626	-0.008675	-0.578125	0.07373	-0.553223
445.0	9.804289	0.190723	1.371221	0.01309	0.035457	-0.009523	-0.582764	0.078125	-0.555664
446.0	9.767803	0.177831	1.431207	0.020077	0.023047	-0.012532	-0.575928	0.075928	-0.553223
447.0	9.714748	0.17596	1.41914	0.010694	0.002621	-0.010258	-0.57373	0.07373	-0.555664
448.0	9.709181	0.180727	1.395326	0.021512	-0.008912	-0.007834	-0.585205	0.078125	-0.558105
449.0	9.785274	0.144212	1.370365	0.021887	-0.011244	-0.005784	-0.578369	0.080322	-0.555908
450.0	9.843865	0.144704	1.406056	0.025009	-0.009906	-0.006392	-0.580566	0.078125	-0.551025
451.0	9.877528	0.183702	1.351964	0.023162	-0.014428	-0.005926	-0.580322	0.07373	-0.553223
452.0	9.916787	0.218659	1.321333	0.013706	-0.01004	-0.000194	-0.582764	0.075928	-0.551025
453.0	9.91125	0.222413	1.297297	0.007755	-0.000659	0.000645	-0.582764	0.07373	-0.555664
454.0	9.874687	0.164071	1.322452	0.002224	0.002191	0.001585	-0.582764	0.078125	-0.546387
455.0	9.869063	0.167496	1.299125	0.003594	0.001032	0.003419	-0.575928	0.075928	-0.553223
456.0	9.884599	0.198443	1.274371	0.009214	-0.010221	-0.001415	-0.580566	0.078125	-0.558105
457.0	9.89031	0.195007	1.297038	0.011297	-0.005853	0.000137	-0.578369	0.080322	-0.558105
458.0	9.938105	0.246721	1.318614	0.019579	0.000948	-0.009791	-0.580811	0.080322	-0.553467
459.0	9.972764	0.244433	1.361565	0.016475	0.022004	-0.015962	-0.580566	0.078125	-0.553467
460.0	9.901472	0.236218	1.379558	0.020691	0.03252	-0.02113	-0.585205	0.080322	-0.548828
461.0	9.987789	0.324301	1.375204	0.028969	0.033336	-0.024714	-0.57373	0.075928	-0.553223
462.0	10.111635	0.429033	1.442349	0.028179	0.069031	-0.021431	-0.580566	0.078125	-0.551025
463.0	10.086538	0.427626	1.457045	0.029182	0.123871	-0.010755	-0.57373	0.075928	-0.5625
464.0	9.956534	0.421934	1.576457	0.029067	0.164819	-0.017905	-0.578125	0.071533	-0.557861
465.0	9.917226	0.366404	1.617713	0.047909	0.164417	-0.025278	-0.582764	0.078125	-0.560303
466.0	9.898454	0.424633	1.594479	0.06214	0.149861	-0.023227	-0.580566	0.078125	-0.560303
467.0	9.86618	0.469566	1.495879	0.074953	0.157064	-0.021471	-0.571289	0.071533	-0.560059
468.0	9.739379	0.500789	1.41773	0.105373	0.17329	-0.023022	-0.580322	0.07373	-0.564941
469.0	9.610852	0.647301	1.532939	0.118149	0.141733	-0.014056	-0.575928	0.071533	-0.557861
470.0	9.677275	0.858348	1.533015	0.112538	0.083464	0.000814	-0.580566	0.078125	-0.562744
471.0	9.812682	1.013139	1.456318	0.09115	0.086275	0.016842	-0.57373	0.078125	-0.558105
472.0	9.806269	1.056043	1.345959	0.060965	0.099021	0.038212	-0.575928	0.07373	-0.557861
473.0	9.731751	1.021546	1.3415	0.03656	0.092113	0.050855	-0.578125	0.07373	-0.557861
474.0	9.620829	1.01311	1.296593	0.014814	0.054063	0.059687	-0.575928	0.07373	-0.564941
475.0	9.626412	1.044946	1.228318	-0.021909	0.012565	0.058834	-0.575928	0.075928	-0.564941
476.0	9.600605	1.015184	1.206373	-0.057629	-0.001216	0.053014	-0.57373	0.075928	-0.564941
477.0	9.537822	0.972119	1.24059	-0.082253	-0.004315	0.045042	-0.571533	0.078125	-0.562744
478.0	9.543601	0.91946	1.23145	-0.09151	-0.033384	0.033007	-0.567139	0.080322	-0.560547
479.0	9.617927	0.860465	1.304492	-0.090731	-0.058897	0.025312	-0.576172	0.078125	-0.558105
480.0	9.782198	0.860228	1.238151	-0.096236	-0.066482	0.020344	-0.576172	0.078125	-0.560303
481.0	9.890714	0.751643	1.192794	-0.095925	-0.060943	0.005847	-0.580566	0.078125	-0.558105
482.0	9.970403	0.777124	1.225639	-0.084871	-0.035908	0.001331	-0.576172	0.08252	-0.558105
483.0	9.98376	0.700801	1.233899	-0.094336	-0.031768	-0.003219	-0.573975	0.078125	-0.564941
484.0	9.946964	0.5978	1.22391	-0.084761	-0.034152	-0.006867	-0.573975	0.080322	-0.562744
485.0	9.936784	0.562951	1.268739	-0.075017	-0.032486	-0.00654	-0.578613	0.08252	-0.560547
486.0	9.955281	0.439402	1.267908	-0.074518	-0.036994	-0.004446	-0.575928	0.075928	-0.555664
487.0	9.98454	0.394255	1.251189	-0.077336	-0.036467	0.000182	-0.576172	0.08252	-0.562744
488.0	9.974154	0.313964	1.264493	-0.080998	-0.012481	0.010621	-0.573975	0.080322	-0.565186
489.0	9.942873	0.379955	1.282379	-0.075312	0.009292	0.015336	-0.571777	0.08252	-0.558105
490.0	9.996056	0.467446	1.361629	-0.09433	0.001881	0.037415	-0.576416	0.084717	-0.555908
491.0	10.169917	0.415176	1.443273	-0.100853	0.020385	0.05881	-0.57666	0.091309	-0.558594
492.0	10.25918	0.423914	1.404611	-0.107059	0.050918	0.079955	-0.576416	0.084717	-0.553711
493.0	10.321583	0.406873	1.346783	-0.108588	0.095819	0.102117	-0.574219	0.084717	-0.562988
494.0	10.288556	0.375396	1.440939	-0.144704	0.167141	0.121977	-0.579102	0.093506	-0.565674
495.0	10.13979	0.191203	1.618018	-0.147633	0.225295	0.128082	-0.571777	0.08252	-0.562988
496.0	9.956615	0.141237	1.725662	-0.108601	0.234023	0.141907	-0.57666	0.093506	-0.561035
497.0	9.752369	0.107123	1.739397	-0.123293	0.251026	0.136501	-0.569824	0.091553	-0.560791
498.0	9.493186	-0.059672	1.769121	-0.130574	0.2904	0.141986	-0.574463	0.095947	-0.565674
499.0	9.203574	-0.093326	2.004007	-0.137128	0.275454	0.133499	-0.565674	0.100342	-0.565918
500.0	9.072443	-0.008921	2.095345	-0.14239	0.226444	0.129015	-0.572266	0.095947	-0.568115
501.0	9.15148	0.064548	2.087454	-0.19586	0.193572	0.120456	-0.56543	0.09375	-0.567871
502.0	9.237644	0.10989	2.100043	-0.236124	0.245838	0.107288	-0.563721	0.106934	-0.568359
503.0	9.12914	0.042939	2.212231	-0.301843	0.29608	0.088626	-0.563721	0.106934	-0.566162
504.0	9.150885	-0.040568	2.345163	-0.365647	0.241533	0.061395	-0.563721	0.106934	-0.572998
505.0	9.292624	-0.075925	2.179332	-0.378729	0.168709	0.016678	-0.559326	0.109131	-0.568604
506.0	9.414863	0.027677	1.834647	-0.392188	0.100398	-0.017872	-0.563721	0.106934	-0.563721
507.0	9.578667	0.059475	1.514001	-0.44881	0.062397	-0.052696	-0.554932	0.109131	-0.573242
508.0	9.828296	0.135563	1.283769	-0.45753	0.041584	-0.089621	-0.563965	0.113525	-0.566406
509.0	10.038321	0.294954	1.024106	-0.451239	-0.000855	-0.119307	-0.564209	0.11792	-0.573486
510.0	10.402881	0.327367	0.52776	-0.457964	-0.021613	-0.133924	-0.564209	0.11792	-0.571045
511.0	10.895265	0.415302	0.096785	-0.466505	0.057889	-0.137973	-0.557617	0.120117	-0.573486
512.0	11.184754	0.320228	-0.043877	-0.507432	0.182166	-0.130447	-0.557373	0.115723	-0.568848
513.0	10.900289	-0.030493	-0.094287	-0.504293	0.285722	-0.118746	-0.557373	0.11792	-0.571045
514.0	10.674732	-0.325986	-0.039782	-0.460649	0.29398	-0.110949	-0.557617	0.120117	-0.568848
515.0	10.937238	-0.492618	-0.105059	-0.423345	0.187746	-0.071034	-0.557617	0.124512	-0.578369
516.0	10.99788	-0.757846	-0.289298	-0.38875	0.182244	-0.025633	-0.555176	0.120117	-0.578125
517.0	10.909043	-0.915453	-0.187667	-0.333421	0.254097	0.041155	-0.549072	0.131348	-0.578613
518.0	10.457074	-1.224471	0.026444	-0.33995	0.325475	0.087255	-0.551025	0.124756	-0.578369
519.0	10.018227	-1.582459	0.120735	-0.273924	0.253057	0.131768	-0.546631	0.131348	-0.573975
520.0	9.911005	-1.597053	0.284338	-0.180802	0.176161	0.156026	-0.553467	0.133545	-0.573975
521.0	9.881545	-1.497254	0.229002	-0.107659	0.128729	0.18728	-0.546875	0.133545	-0.578613
522.0	9.725105	-1.326439	0.416635	-0.036768	0.12928	0.200707	-0.542236	0.133545	-0.583252
523.0	9.515146	-1.23277	0.492442	0.022565	0.130075	0.206114	-0.55127	0.133545	-0.578613
524.0	9.426468	-0.94639	0.749286	0.086729	0.115789	0.220195	-0.549316	0.137939	-0.574219
525.0	9.393013	-0.76281	1.120028	0.101055	0.042409	0.236647	-0.540039	0.135742	-0.574219
526.0	9.375045	-0.640055	0.956939	0.151289	-0.019327	0.24697	-0.546875	0.137939	-0.574219
527.0	9.410836	-0.578943	0.946587	0.184535	0.008815	0.246661	-0.538086	0.140137	-0.57666
528.0	9.255127	-0.583455	0.929562	0.1857	0.072225	0.237675	-0.542725	0.144531	-0.576904
529.0	9.2174	-0.567423	1.078063	0.205831	0.048445	0.226936	-0.540283	0.140137	-0.583496
530.0	9.231769	-0.691458	1.104621	0.20834	0.013262	0.221	-0.54248	0.135742	-0.583496
531.0	9.385878	-0.689126	0.982926	0.247647	-0.04845	0.207	-0.540283	0.142334	-0.58374
532.0	9.518298	-0.7132	0.855696	0.25992	-0.044717	0.199176	-0.544922	0.144531	-0.574463
533.0	9.50102	-0.826641	0.834267	0.268521	-0.014738	0.189099	-0.533447	0.140137	-0.585938
534.0	9.549361	-0.776343	0.893339	0.313702	-0.0179	0.179171	-0.540283	0.142334	-0.581299
535.0	9.557399	-0.681736	0.865127	0.321001	-0.057269	0.16424	-0.54248	0.140137	-0.581299
536.0	9.675191	-0.640662	0.676163	0.316477	-0.094462	0.153684	-0.540283	0.137939	-0.57666
537.0	9.811809	-0.584495	0.638003	0.328062	-0.081763	0.142312	-0.535645	0.133545	-0.583252
538.0	9.824471	-0.534959	0.593916	0.313262	-0.055063	0.121536	-0.540283	0.137939	-0.583496
539.0	9.80839	-0.430109	0.745033	0.307743	-0.036916	0.102835	-0.537842	0.133545	-0.583252
540.0	9.817402	-0.471027	0.785685	0.287815	-0.011869	0.084724	-0.542236	0.133545	-0.581055
541.0	9.739434	-0.454445	0.778422	0.30155	0.00551	0.060372	-0.537842	0.133545	-0.573975
542.0	9.681753	-0.427987	0.746217	0.311766	0.030221	0.036879	-0.540039	0.133545	-0.581055
543.0	9.471776	-0.502896	0.795119	0.289448	0.065712	0.021367	-0.5354	0.12915	-0.585449
544.0	9.254468	-0.578127	0.973044	0.307598	0.076932	-0.006009	-0.537598	0.126953	-0.580811
545.0	9.081651	-0.640336	1.119769	0.327277	0.038495	-0.026644	-0.5354	0.12915	-0.583252
546.0	9.16812	-0.719359	0.966103	0.331405	-0.02524	-0.051511	-0.537354	0.124756	-0.583008
547.0	9.507422	-0.690286	0.738717	0.357649	-0.074181	-0.062774	-0.537354	0.120361	-0.585205
548.0	9.536082	-0.630324	0.614104	0.370077	-0.066847	-0.06608	-0.534912	0.118164	-0.575928
549.0	9.707423	-0.585434	0.613517	0.342933	-0.094209	-0.065775	-0.534912	0.120361	-0.580566
550.0	9.770658	-0.624589	0.486777	0.320015	-0.104726	-0.057534	-0.537354	0.122559	-0.583008
551.0	9.629476	-0.715613	0.284807	0.324432	-0.067321	-0.04876	-0.537109	0.115967	-0.578125
552.0	9.556355	-0.649695	0.329101	0.311606	-0.047326	-0.048019	-0.537109	0.115967	-0.580322
553.0	9.508165	-0.73688	0.267739	0.297378	-0.059456	-0.04131	-0.532471	0.111572	-0.580322
554.0	9.620523	-0.800353	0.133025	0.290722	-0.086893	-0.029723	-0.537109	0.118164	-0.580566
555.0	9.799102	-0.830247	-0.031629	0.27699	-0.059861	-0.022768	-0.534668	0.111572	-0.575684
556.0	9.878498	-0.917419	-0.059563	0.26647	0.003781	-0.009899	-0.532227	0.109375	-0.577881
557.0	9.920691	-1.047314	0.140697	0.264915	0.000945	-0.003105	-0.532227	0.107178	-0.580078
558.0	10.023779	-1.177106	0.078735	0.276474	-0.04718	-0.006842	-0.536377	0.100342	-0.570557
559.0	10.030563	-1.198787	-0.227351	0.303908	-0.043207	-0.014758	-0.5271	0.093994	-0.577148
560.0	9.941276	-1.101388	-0.095606	0.286241	0.02084	-0.024096	-0.531982	0.10498	-0.572998
561.0	9.750217	-1.210236	0.050054	0.261091	0.037593	-0.030407	-0.529297	0.09375	-0.577148
562.0	9.714548	-1.17723	0.164154	0.291254	-0.025522	-0.040679	-0.529785	0.100586	-0.570557
563.0	9.835352	-1.160129	0.144435	0.30222	-0.081482	-0.056277	-0.531494	0.091553	-0.574951
564.0	9.979988	-1.250924	-0.12294	0.303521	-0.095322	-0.074659	-0.531494	0.089355	-0.57251
565.0	10.015503	-1.181749	-0.351491	0.373525	-0.116049	-0.1069	-0.529053	0.087158	-0.570068
566.0	10.202611	-1.103304	-0.557934	0.418121	-0.165557	-0.13276	-0.531494	0.087158	-0.572266
567.0	10.458405	-1.016789	-0.955683	0.462638	-0.212986	-0.158154	-0.531006	0.076172	-0.574219
568.0	10.757245	-1.008448	-1.125899	0.484435	-0.229263	-0.178298	-0.526611	0.078369	-0.572021
569.0	11.084764	-0.913901	-1.369116	0.506621	-0.247723	-0.181597	-0.52832	0.06958	-0.573975
570.0	11.744917	-0.528675	-1.365242	0.527427	-0.204335	-0.167271	-0.530762	0.073975	-0.560303
571.0	12.35734	-0.043782	-0.384681	0.373155	0.024337	-0.117829	-0.530518	0.067383	-0.566895
572.0	12.469605	-0.030004	0.906256	0.147253	0.203107	-0.031715	-0.526123	0.067383	-0.564697
573.0	12.755864	0.724654	2.248144	0.048557	0.098976	0.077837	-0.52832	0.06958	-0.573975
574.0	12.855295	2.044994	2.461957	-0.038399	-0.207932	0.214271	-0.530762	0.06958	-0.564697
575.0	13.127209	2.668539	1.400009	-0.23857	-0.427255	0.321007	-0.530762	0.06958	-0.564697
576.0	12.719098	2.437237	0.40061	-0.503694	-0.21631	0.315664	-0.531006	0.078369	-0.569824
577.0	11.711658	1.489239	0.355519	-0.820891	-0.029263	0.260137	-0.519775	0.080566	-0.567383
578.0	10.56765	0.269224	-0.171728	-0.752199	0.050034	0.130445	-0.524414	0.082764	-0.562988
579.0	10.092642	-0.128854	-0.265286	-0.562378	-0.154381	0.006047	-0.528809	0.080566	-0.553467
580.0	10.005661	-0.986895	0.32097	-0.446476	-0.087547	-0.088624	-0.522217	0.084961	-0.55835
581.0	9.860837	-1.449577	1.236125	-0.42204	0.228571	-0.162862	-0.524414	0.080566	-0.562744
582.0	9.359443	-1.755828	2.417118	-0.380805	0.590077	-0.192702	-0.522461	0.089355	-0.563232
583.0	8.391617	-1.560571	3.467894	-0.27756	0.726281	-0.181999	-0.515625	0.084961	-0.56543
584.0	7.737536	-1.059611	4.275904	-0.140648	0.60335	-0.129309	-0.517822	0.084961	-0.56543
585.0	7.797983	-0.875497	4.298006	-0.052111	0.265284	-0.033541	-0.513428	0.087402	-0.572266
586.0	8.401518	-0.811684	3.769332	0.073066	-0.004292	0.057694	-0.515381	0.080566	-0.567383
587.0	9.48706	-0.43804	3.821788	0.226037	-0.09384	0.170159	-0.515625	0.087402	-0.567627
588.0	10.674672	-0.316449	3.86437	0.230977	-0.125413	0.300843	-0.510986	0.085205	-0.570068
589.0	11.463047	-0.569624	2.999032	0.227496	0.023347	0.370541	-0.508789	0.085205	-0.570068
590.0	11.733248	-0.901951	2.498832	0.258861	0.148564	0.368705	-0.513184	0.085205	-0.570068
591.0	11.188921	-0.318543	2.479425	0.406028	0.388134	0.306583	-0.506348	0.078613	-0.574463
592.0	10.903154	0.030629	3.057327	0.145472	0.225367	0.206932	-0.506592	0.085205	-0.572266
593.0	10.997822	-0.837716	2.189072	-0.028698	-0.010804	0.106479	-0.506348	0.080811	-0.572021
594.0	10.454096	-0.166357	1.750946	0.208243	0.189571	-0.037514	-0.502197	0.0896	-0.579346
595.0	9.623992	0.936766	2.398714	-0.000585	0.345164	-0.157235	-0.497314	0.083008	-0.572266
596.0	8.720277	1.238987	2.604013	-0.117218	0.400665	-0.240937	-0.501953	0.085205	-0.576904
597.0	8.177706	1.572969	2.94902	-0.007279	0.217841	-0.325908	-0.49707	0.076416	-0.578857
598.0	8.110159	1.883989	2.701995	0.083391	-0.071657	-0.414828	-0.501709	0.076416	-0.578857
599.0	8.41123	2.502449	2.449477	0.203772	-0.140436	-0.458851	-0.499268	0.072021	-0.581055
600.0	8.406429	2.611619	2.145379	0.043484	-0.110637	-0.480204	-0.501465	0.069824	-0.573975
601.0	8.584508	2.030447	1.928377	-0.005252	-0.087258	-0.476889	-0.499023	0.06543	-0.583252
602.0	8.911254	1.753566	2.098852	0.006424	-0.199141	-0.452276	-0.503418	0.065186	-0.571533
603.0	9.021909	1.280081	1.919147	-0.073331	-0.30272	-0.413379	-0.499023	0.067627	-0.576172
604.0	9.314097	0.706644	1.493481	-0.088683	-0.330055	-0.360624	-0.500977	0.060791	-0.569092
605.0	9.469494	0.129784	1.315284	-0.096023	-0.222548	-0.303898	-0.496582	0.063232	-0.571533
606.0	9.245791	-0.105944	1.22723	-0.025295	-0.114856	-0.262492	-0.507813	0.058594	-0.569092
607.0	9.18114	-0.14274	1.397825	-0.089506	-0.039121	-0.219034	-0.500732	0.056396	-0.564209
608.0	9.172816	-0.579865	1.264001	-0.194828	0.021692	-0.169814	-0.499023	0.06543	-0.566895
609.0	9.104762	-0.558026	0.981744	-0.053193	0.093422	-0.107829	-0.496338	0.056396	-0.56665
610.0	8.792929	-0.268274	1.186611	0.026288	0.289777	-0.017408	-0.500977	0.060791	-0.57373
611.0	8.308513	-0.113898	1.314731	-0.007728	0.436471	0.013774	-0.491943	0.061035	-0.578369
612.0	7.983682	-0.066305	1.430921	-0.011366	0.42126	0.056033	-0.487549	0.061035	-0.575928
613.0	7.793943	0.163049	1.246168	0.107519	0.346911	0.090112	-0.48291	0.058838	-0.57373
614.0	7.862466	0.584624	1.115759	0.106292	0.253807	0.115296	-0.485107	0.058838	-0.580566
615.0	7.822897	0.742242	0.811568	0.086134	0.189698	0.144771	-0.487305	0.056641	-0.580566
616.0	7.806285	0.878503	0.644116	0.11081	0.083815	0.174478	-0.487549	0.063232	-0.576172
617.0	7.859808	1.111567	0.519143	0.118964	-0.060773	0.200113	-0.48291	0.061035	-0.578369
618.0	7.805303	1.143708	0.301053	0.08282	-0.133296	0.229549	-0.487793	0.06543	-0.573975
619.0	8.050646	1.085137	0.396331	0.06707	-0.203493	0.258676	-0.487305	0.058838	-0.578369
620.0	8.753706	1.012538	0.367607	0.020665	-0.271043	0.271445	-0.487793	0.067627	-0.566895
621.0	9.453679	0.89649	-0.092572	-0.007386	-0.227445	0.277648	-0.480957	0.06543	-0.573975
622.0	10.276545	0.895206	-0.255889	-0.057276	-0.172374	0.274218	-0.48999	0.067627	-0.578613
623.0	10.03529	1.11174	-0.392237	-0.037964	0.061947	0.258867	-0.483154	0.067627	-0.576416
624.0	10.762724	0.930278	0.627814	-0.182149	-0.012355	0.270254	-0.483643	0.076416	-0.56958
625.0	11.823092	0.106706	-0.085301	-0.282779	-0.457363	0.196474	-0.479004	0.074219	-0.5625
626.0	11.555204	0.112418	-0.774307	0.090655	-0.150423	0.116498	-0.48584	0.076416	-0.564941
627.0	11.845087	0.55221	0.033251	-0.095802	0.054097	0.046162	-0.476807	0.074219	-0.567139
628.0	12.111066	0.305242	0.346162	-0.187823	0.15834	-0.01594	-0.483643	0.074219	-0.56958
629.0	11.597583	0.892362	0.150373	0.066168	0.171941	-0.052721	-0.476807	0.074219	-0.57666
630.0	11.098619	1.449575	-0.336538	0.024547	0.012895	-0.042719	-0.479004	0.076416	-0.574219
631.0	10.840972	1.091487	-1.050731	-0.040846	-0.126601	-0.033675	-0.47876	0.069824	-0.567139
632.0	10.826932	0.949311	-1.089236	0.016971	-0.249585	-0.05162	-0.477051	0.078613	-0.569824
633.0	11.180781	1.150197	-0.551299	-0.098725	-0.326991	-0.080615	-0.474609	0.078613	-0.562744
634.0	11.531956	1.135878	-0.042009	-0.394308	-0.247588	-0.117382	-0.477051	0.078613	-0.567383
635.0	11.8734	0.804667	-0.019068	-0.566376	-0.210119	-0.182541	-0.479248	0.080811	-0.565186
636.0	12.73479	0.46257	1.319901	-0.55801	-0.110432	-0.246228	-0.477051	0.080811	-0.567627
637.0	12.982481	-0.241187	3.451145	-0.449453	0.196666	-0.334828	-0.474854	0.085205	-0.562988
638.0	13.457767	-1.514802	4.954178	-0.551826	-0.010364	-0.479258	-0.481689	0.085205	-0.572266
639.0	15.0414	-3.676139	5.502649	-0.46821	-0.356283	-0.645779	-0.476807	0.078613	-0.555908
640.0	15.154871	-5.053374	4.720911	0.217424	-0.269806	-0.836955	-0.483643	0.078613	-0.565186
641.0	13.248006	-4.100706	3.286462	0.862513	-0.019667	-0.894519	-0.474121	0.067627	-0.564697
642.0	10.255316	-2.221655	2.150343	1.22285	0.382187	-0.737672	-0.478516	0.063232	-0.566895
643.0	7.646393	0.012141	2.694936	1.052455	0.476977	-0.544988	-0.476074	0.056641	-0.573486
644.0	6.489629	2.047893	4.664413	0.907118	0.007853	-0.336654	-0.478027	0.052246	-0.571045
645.0	6.488395	3.099573	4.383659	0.255201	-0.308223	-0.241259	-0.478027	0.050049	-0.563965
646.0	6.949468	3.526467	4.183304	-0.261158	-0.280108	-0.170384	-0.473633	0.052246	-0.568848
647.0	7.731753	3.170792	4.628712	-0.585795	-0.16159	-0.169793	-0.478516	0.061035	-0.562012
648.0	8.27102	2.745712	4.262909	-0.507382	-0.142794	-0.215725	-0.48291	0.058838	-0.562012
649.0	9.186128	2.890589	3.541416	-0.408511	-0.182983	-0.215806	-0.476074	0.058838	-0.562012
650.0	10.192678	2.553247	2.858134	-0.46246	-0.201574	-0.200631	-0.476074	0.058838	-0.559814
651.0	11.729602	1.841142	2.686777	-0.401971	-0.325063	-0.144444	-0.476074	0.058838	-0.559814
652.0	12.5037	1.151006	2.293522	-0.209656	-0.226242	-0.119054	-0.485352	0.063232	-0.557617
653.0	12.326785	0.399213	1.731757	-0.17239	-0.008016	-0.096481	-0.47876	0.06543	-0.566895
654.0	11.45753	-0.374109	1.728318	-0.095826	0.309656	-0.076706	-0.474121	0.06543	-0.571533
655.0	10.445942	-0.781305	2.399675	0.055254	0.44553	-0.04968	-0.471924	0.067627	-0.562256
656.0	9.043766	-1.038984	2.708287	0.063247	0.404577	-0.033739	-0.476563	0.067627	-0.571777
657.0	8.359659	-1.207959	2.529212	0.135377	0.132895	0.007739	-0.474121	0.063232	-0.566895
658.0	8.381115	-0.949852	2.666501	0.107702	-0.030393	0.046849	-0.479004	0.074219	-0.574219
659.0	8.302476	-1.380521	2.294444	0.013554	-0.031076	0.080618	-0.47876	0.067627	-0.569336
660.0	7.968877	-1.635895	2.117111	0.07871	-0.033687	0.115476	-0.472168	0.074219	-0.574219
661.0	7.663156	-1.384811	2.228134	0.102268	-0.093692	0.142743	-0.474365	0.069824	-0.567139
662.0	7.494512	-1.209552	2.150203	0.042851	-0.149815	0.172079	-0.479004	0.076416	-0.578857
663.0	7.482465	-1.233993	2.037991	-0.009201	-0.20413	0.200518	-0.468018	0.078613	-0.569824
664.0	7.711201	-1.177352	1.789697	0.061118	-0.243809	0.209082	-0.477051	0.078613	-0.567383
665.0	8.055668	-0.481469	1.856984	0.142771	-0.210428	0.227426	-0.477051	0.078613	-0.569824
666.0	8.226375	-0.000383	2.002134	0.079079	-0.204535	0.227181	-0.483887	0.085205	-0.562988
667.0	8.9459	-0.05096	1.415852	0.174235	-0.310354	0.239154	-0.475098	0.087402	-0.56543
668.0	9.124531	0.506855	1.063308	0.246109	-0.133384	0.230519	-0.477051	0.083008	-0.562988
669.0	8.667438	0.596077	1.407356	0.115158	-0.027039	0.206307	-0.4729	0.087402	-0.567871
670.0	8.653511	0.401434	1.581161	0.115583	-0.101029	0.175239	-0.475098	0.0896	-0.563232
671.0	8.853553	0.259935	1.29228	0.207448	-0.081557	0.147154	-0.4729	0.0896	-0.563232
672.0	8.771351	0.288854	1.136717	0.216235	0.074818	0.114735	-0.479736	0.091797	-0.561035
673.0	8.699678	0.076106	1.134392	0.178453	0.170026	0.08421	-0.470703	0.0896	-0.56543
674.0	8.528923	-0.187108	1.250036	0.206671	0.201441	0.035024	-0.477295	0.087402	-0.560791
675.0	8.592465	-0.53822	1.183026	0.265678	0.094268	-0.00972	-0.470459	0.087402	-0.567871
676.0	8.805159	-0.743641	0.772843	0.35586	-0.027944	-0.058326	-0.475098	0.0896	-0.570068
677.0	8.873184	-0.664996	0.344728	0.445099	-0.005203	-0.113478	-0.470459	0.083008	-0.572266
678.0	8.87927	-0.508808	0.213845	0.436524	0.037753	-0.151046	-0.474609	0.078613	-0.562744
679.0	8.785461	-0.363089	0.077435	0.410735	0.075509	-0.178071	-0.470215	0.080811	-0.567627
680.0	8.614023	0.059356	0.033362	0.428965	0.079174	-0.202031	-0.470459	0.083008	-0.572266
681.0	8.091975	0.489665	0.149469	0.380996	0.052906	-0.224332	-0.470215	0.080811	-0.569824
682.0	7.666063	0.649104	0.140132	0.325938	-0.031503	-0.227782	-0.472412	0.080811	-0.565186
683.0	7.45721	0.674813	0.247791	0.34663	-0.07201	-0.236436	-0.468018	0.078613	-0.572021
684.0	8.269904	0.799398	0.533495	0.345261	-0.379336	-0.205768	-0.472412	0.078613	-0.569824
685.0	9.872992	0.676501	0.466003	0.183537	-0.679342	-0.15298	-0.476563	0.072021	-0.557861
686.0	10.896222	-0.092851	0.064866	-0.048928	-0.518774	-0.10962	-0.479004	0.074219	-0.560303
687.0	11.583708	-0.819055	-0.055482	-0.021762	-0.323975	-0.066818	-0.476807	0.076416	-0.553467
688.0	12.369235	-0.805419	0.196595	0.032787	-0.296387	-0.032662	-0.479248	0.083008	-0.553711
689.0	12.69067	-0.759421	-0.478003	0.045494	-0.27432	-0.018954	-0.476807	0.076416	-0.558105
690.0	12.859068	-0.188412	-0.954617	0.072301	-0.282614	-0.007747	-0.486084	0.080811	-0.558105
691.0	12.905963	0.402591	-1.126857	-0.04305	-0.233966	0.04048	-0.479492	0.085205	-0.553711
692.0	12.605246	0.345772	-1.540906	-0.039114	-0.142072	0.083812	-0.483887	0.080811	-0.553467
693.0	12.269696	0.257851	-1.767144	0.118542	-0.137446	0.126127	-0.477051	0.083008	-0.555908
694.0	12.152309	0.032891	-1.649653	0.138251	-0.137964	0.16814	-0.484131	0.087402	-0.551514
695.0	12.130579	-0.517131	-1.195819	0.095809	-0.047863	0.222151	-0.477539	0.091797	-0.549316
696.0	12.456499	-0.528463	0.386853	-0.070471	0.019418	0.313399	-0.477539	0.096191	-0.551758
697.0	12.692875	0.035768	2.123204	-0.334803	0.144589	0.391782	-0.475342	0.098389	-0.544922
698.0	12.210233	1.108684	2.966302	-0.306189	0.083283	0.436904	-0.478027	0.107178	-0.552246
699.0	12.530644	2.115163	3.413881	-0.47269	-0.274273	0.495272	-0.482666	0.109375	-0.552246
700.0	13.261928	2.233977	2.21709	-0.61552	-0.363381	0.552514	-0.478271	0.11377	-0.547852
701.0	12.106106	1.557519	1.158779	-0.601944	0.152751	0.562014	-0.474121	0.120605	-0.545654
702.0	9.89823	0.963679	1.104882	-0.660674	0.468613	0.51181	-0.476563	0.127197	-0.545898
703.0	8.831962	-0.030489	2.631851	-0.711575	0.496312	0.448933	-0.469971	0.129395	-0.546143
704.0	8.700744	-1.925838	3.820598	-0.493775	0.424994	0.378914	-0.467773	0.133789	-0.555664
705.0	8.697813	-2.368839	4.749653	0.074541	0.380764	0.312335	-0.468262	0.142578	-0.548828
706.0	9.031418	-1.197523	5.034404	0.424069	0.151198	0.287309	-0.468018	0.135986	-0.555664
707.0	10.199648	-0.879034	4.015916	0.302757	-0.169036	0.309521	-0.470459	0.140381	-0.555908
708.0	11.806442	-1.045101	2.328522	0.388131	-0.214125	0.348537	-0.466064	0.142578	-0.55127
709.0	12.608227	-0.789223	1.599133	0.420363	0.151441	0.385391	-0.456787	0.140381	-0.558105
710.0	12.534225	-0.989202	2.417101	0.206205	0.549641	0.39009	-0.464111	0.151367	-0.556152
711.0	11.148791	-1.650322	2.859294	0.186846	0.64949	0.302832	-0.455078	0.149414	-0.55835
712.0	10.338742	-1.140549	2.945483	0.452393	0.236277	0.193073	-0.457031	0.144775	-0.555908
713.0	10.876801	0.001105	2.402961	0.43493	-0.149064	0.081144	-0.457031	0.146973	-0.560791
714.0	10.70134	0.342923	1.716337	0.251253	0.044161	0.001115	-0.459229	0.144775	-0.565186
715.0	9.717956	0.627208	2.119159	0.297854	0.350044	-0.037925	-0.452393	0.140381	-0.565186
716.0	8.907269	0.975383	2.572466	0.360101	0.228816	-0.078849	-0.46167	0.146973	-0.562988
717.0	7.761195	1.711885	1.984301	0.536848	0.172724	-0.132423	-0.449951	0.13623	-0.56958
718.0	6.905661	2.604411	2.466998	0.584278	0.303277	-0.145627	-0.456787	0.138184	-0.56958
719.0	7.111413	2.936782	3.02195	0.429576	-0.053982	-0.194436	-0.447754	0.138428	-0.574219
720.0	7.34555	2.619654	2.134342	0.409261	-0.269543	-0.225689	-0.458984	0.133789	-0.5625
721.0	7.550253	2.471629	1.759898	0.355318	-0.177825	-0.248947	-0.451904	0.131592	-0.569336
722.0	7.483862	2.215346	2.08452	0.155065	-0.058398	-0.26685	-0.449707	0.131592	-0.573975
723.0	7.263591	1.372921	2.181413	0.061809	-0.089243	-0.257881	-0.453857	0.122803	-0.562012
724.0	7.244571	0.745778	1.955224	0.084046	-0.219979	-0.27445	-0.45874	0.131592	-0.564697
725.0	7.546791	0.361268	1.829282	0.063237	-0.281867	-0.274386	-0.45874	0.131592	-0.564697
726.0	7.871237	-0.101575	1.495697	0.060091	-0.181508	-0.264134	-0.456543	0.129395	-0.566895
727.0	7.978549	-0.412053	1.444574	0.088705	-0.079409	-0.225201	-0.456299	0.125	-0.569092
728.0	8.204289	-0.572975	1.186832	0.070169	-0.046106	-0.183266	-0.45874	0.129395	-0.569336
729.0	8.455011	-0.409872	0.875006	0.124433	0.050386	-0.127003	-0.454102	0.127197	-0.564697
730.0	8.306379	-0.054764	0.985391	0.095058	0.222341	-0.060621	-0.465576	0.131592	-0.576416
731.0	7.974933	-0.080233	1.239097	0.043328	0.248217	0.01851	-0.454102	0.127197	-0.573975
732.0	7.640974	0.156184	1.228046	0.161675	0.078566	0.059098	-0.456299	0.127197	-0.571533
733.0	8.017322	0.537138	1.199602	0.162279	-0.206024	0.097258	-0.456543	0.131592	-0.573975
734.0	8.527699	0.577691	0.561811	0.119763	-0.330977	0.128219	-0.460938	0.131592	-0.576416
735.0	8.9922	0.808237	0.208861	0.124074	-0.318758	0.158553	-0.456543	0.133789	-0.564941
736.0	9.3477	1.229055	0.061462	0.074348	-0.267414	0.201226	-0.454102	0.127197	-0.564697
737.0	9.504457	1.530837	-0.148449	0.080187	-0.19078	0.258297	-0.458496	0.127197	-0.564697
738.0	9.644719	1.955026	-0.117137	-0.012782	-0.127871	0.31791	-0.458984	0.133789	-0.567139
739.0	9.926311	2.007044	0.044535	-0.236964	-0.179792	0.376416	-0.456787	0.135986	-0.571777
740.0	10.202225	1.425179	-0.278622	-0.401406	-0.19273	0.399137	-0.461426	0.142578	-0.567383
741.0	10.346565	1.027445	-0.263697	-0.344757	-0.079838	0.376014	-0.457275	0.149414	-0.56543
742.0	10.530592	0.750577	0.153985	-0.388747	-0.056414	0.304512	-0.457275	0.149414	-0.570068
743.0	11.199441	0.639275	0.835829	-0.297491	-5.5e-05	0.208701	-0.450439	0.149414	-0.570068
744.0	11.546286	0.658014	1.22565	-0.223756	0.104928	0.130783	-0.455322	0.1604	-0.568115
745.0	11.958598	0.2767	0.747257	-0.22318	0.016808	0.056488	-0.455322	0.158203	-0.570313
746.0	11.677285	0.22957	-0.060935	-0.033005	0.192225	0.019395	-0.455322	0.1604	-0.575195
747.0	10.770927	0.133109	-0.511007	0.026116	0.254426	0.016744	-0.453369	0.162598	-0.579834
748.0	10.51969	-0.380307	-1.010805	0.030896	0.022927	0.02601	-0.453125	0.158203	-0.572754
749.0	10.691336	-0.374725	-1.807161	0.207286	-0.293362	0.046077	-0.453125	0.158203	-0.572754
750.0	11.243631	0.275994	-1.881818	0.048527	-0.404496	0.032246	-0.455322	0.158203	-0.568115
751.0	11.707511	0.547564	-1.57103	-0.34319	-0.286485	0.006683	-0.455811	0.166992	-0.568359
752.0	11.998049	0.557463	-0.873562	-0.561551	-0.048362	-0.050143	-0.453369	0.166992	-0.568359
753.0	12.45386	0.574838	0.158905	-0.611892	0.01308	-0.157397	-0.455566	0.164795	-0.565918
754.0	13.390356	0.087973	1.889533	-0.656303	0.254612	-0.271374	-0.453369	0.166992	-0.568359
755.0	13.224352	-0.551274	3.6475	-0.535176	0.731255	-0.440395	-0.453369	0.166992	-0.572998
756.0	13.286318	-2.010604	5.454054	-0.573066	0.50433	-0.623046	-0.453613	0.169189	-0.580078
757.0	13.597079	-4.707083	5.140024	-0.248002	-0.132274	-0.848764	-0.450928	0.162598	-0.570557
758.0	13.359715	-4.190555	5.852948	0.72116	-0.147126	-1.020385	-0.457764	0.1604	-0.575195
759.0	11.583611	-2.478286	4.826152	0.978025	-0.113506	-1.060152	-0.461914	0.151611	-0.579346
760.0	9.143436	-1.395049	3.118627	1.043444	0.057333	-0.908428	-0.459229	0.142822	-0.579102
761.0	7.838963	0.436136	3.490027	0.988708	-0.049087	-0.713118	-0.458984	0.133789	-0.581055
762.0	7.412595	2.537369	4.281042	0.588268	-0.201109	-0.55561	-0.465576	0.133789	-0.576416
763.0	7.678445	3.970596	4.428773	-0.010288	-0.199982	-0.436432	-0.465576	0.131592	-0.581055
764.0	8.208849	3.644816	4.44332	-0.487665	-0.162623	-0.351198	-0.467773	0.131592	-0.578613
765.0	8.829483	2.817004	3.994191	-0.564798	-0.113226	-0.322287	-0.463379	0.135986	-0.585938
766.0	9.645566	2.885713	3.353622	-0.417174	-0.122008	-0.279025	-0.468018	0.133789	-0.578857
767.0	10.763629	2.672692	2.820217	-0.505377	-0.241562	-0.222995	-0.472412	0.131592	-0.571777
768.0	11.506569	1.6101	2.042403	-0.556814	-0.248601	-0.187794	-0.470215	0.133789	-0.576416
769.0	11.932825	0.852931	1.696891	-0.289438	-0.170393	-0.13148	-0.46582	0.138184	-0.57666
770.0	11.97252	0.854491	1.378115	-0.105659	-0.00362	-0.085404	-0.475098	0.142578	-0.579102
771.0	11.12857	0.172244	1.248188	-0.166394	0.291105	-0.043492	-0.466064	0.142578	-0.579102
772.0	10.311038	-0.389274	2.010231	-0.122458	0.285612	-0.012792	-0.470215	0.138184	-0.581299
773.0	9.883807	-0.646342	2.355824	-0.113842	0.246095	0.02844	-0.472412	0.135986	-0.583496
774.0	9.241983	-1.092132	2.072554	-0.169401	0.199715	0.054704	-0.470459	0.142578	-0.581299
775.0	8.91891	-1.339471	1.783439	-0.096144	0.171471	0.088219	-0.470459	0.142578	-0.593018
776.0	8.521795	-1.375167	1.70279	-0.06781	0.210782	0.110955	-0.468506	0.149414	-0.588623
777.0	8.219039	-1.430982	1.698507	-0.034989	0.131695	0.134076	-0.468262	0.142578	-0.581299
778.0	7.936007	-1.354759	1.646372	0.034505	0.073949	0.161232	-0.466064	0.146973	-0.581543
779.0	7.475899	-1.346556	1.523227	0.066297	0.111377	0.16154	-0.464111	0.149414	-0.581543
780.0	7.392497	-1.075201	1.770591	0.072687	0.035534	0.163915	-0.468506	0.149414	-0.591064
781.0	7.514788	-0.748671	1.798918	0.02866	-0.093825	0.175341	-0.466064	0.14502	-0.59082
782.0	7.855871	-0.576376	1.486176	0.077884	-0.191322	0.199124	-0.470947	0.151611	-0.588623
783.0	8.440883	-0.100108	1.393553	0.144299	-0.243005	0.22495	-0.46875	0.153809	-0.586426
784.0	8.90983	0.284756	1.263653	0.134118	-0.197545	0.23498	-0.468506	0.149414	-0.588623
785.0	8.959798	0.291272	0.867862	0.094562	-0.082848	0.231601	-0.468506	0.151611	-0.583984
786.0	9.002778	0.246044	0.926492	0.147806	-0.032305	0.214061	-0.473145	0.151367	-0.583984
787.0	8.991384	0.380114	1.115654	0.189404	0.017723	0.187996	-0.468506	0.146973	-0.586182
788.0	8.85872	0.135936	1.027597	0.143573	0.073826	0.151313	-0.477539	0.151367	-0.591064
789.0	8.76917	-0.005556	0.994696	0.240691	0.144949	0.128803	-0.470947	0.151611	-0.5979
790.0	8.483156	-0.137409	1.134122	0.239392	0.227272	0.086837	-0.473389	0.156006	-0.588867
791.0	8.375985	-0.288251	1.011787	0.240871	0.18128	0.046655	-0.466309	0.151611	-0.591064
792.0	8.304414	-0.333123	0.887559	0.286792	0.156264	0.019925	-0.466553	0.153809	-0.598145
793.0	8.39834	-0.36192	0.578251	0.295774	0.088254	-0.003833	-0.466064	0.142822	-0.600098
794.0	8.540673	-0.233804	0.243025	0.328254	0.093475	-0.024046	-0.470703	0.147217	-0.600098
795.0	8.31772	-0.016692	0.036899	0.329943	0.140723	-0.06277	-0.463867	0.147217	-0.600098
796.0	8.065391	0.477857	0.02718	0.271296	0.12627	-0.107081	-0.470703	0.147217	-0.5979
797.0	7.975071	0.643242	-0.19192	0.181521	-0.011259	-0.147284	-0.463623	0.140625	-0.606934
798.0	7.694646	0.632349	-0.365661	0.23248	-0.019242	-0.189225	-0.472656	0.140381	-0.602295
799.0	8.2512	0.85674	-0.173448	0.267678	-0.163394	-0.225354	-0.470215	0.135986	-0.599854
800.0	8.676221	1.035657	-0.190801	0.150492	-0.173974	-0.264897	-0.477051	0.138184	-0.604492
801.0	9.483606	0.624808	-0.150691	0.05157	-0.388168	-0.259716	-0.474854	0.135986	-0.595215
802.0	9.419816	0.276991	-0.284988	0.074556	-0.221428	-0.251906	-0.474609	0.133789	-0.597412
803.0	10.39122	-0.004253	0.025226	-0.053459	-0.279188	-0.215994	-0.477051	0.133789	-0.599609
804.0	11.715451	-0.974702	-0.003564	-0.214822	-0.265827	-0.176246	-0.477051	0.138184	-0.599854
805.0	12.328476	-0.678665	0.112322	0.034183	-0.034116	-0.106984	-0.474609	0.133789	-0.597412
806.0	11.786774	-0.059823	0.191502	-0.02819	0.206863	-0.104654	-0.481445	0.135986	-0.606689
807.0	11.262147	0.121434	-0.133453	-0.204897	-0.101508	-0.092984	-0.479248	0.133789	-0.606689
808.0	11.716599	0.603534	-0.266322	-0.256996	-0.533333	-0.035964	-0.483887	0.140381	-0.599854
809.0	12.429196	1.075686	-1.364752	-0.159051	-0.619877	0.043277	-0.488281	0.135986	-0.594971
810.0	12.569059	1.142391	-2.570681	-0.040537	-0.20787	0.116121	-0.488281	0.135986	-0.597412
811.0	11.620731	-0.058655	-3.099097	-0.021157	0.233015	0.136697	-0.477051	0.135986	-0.595215
812.0	10.915125	-1.21794	-1.728534	0.041504	0.198343	0.147078	-0.486328	0.140381	-0.597656
813.0	11.400122	-1.472507	0.638019	-0.021326	-0.050715	0.181932	-0.486328	0.142578	-0.595215
814.0	12.222292	-2.168791	1.992447	-0.332248	0.057193	0.23476	-0.490723	0.140381	-0.599854
815.0	11.978612	-1.769809	2.567546	-0.234282	0.401963	0.267579	-0.482178	0.14917	-0.5979
816.0	11.5379	0.885775	3.836146	0.034896	0.13184	0.368425	-0.484375	0.14917	-0.595459
817.0	12.855578	3.370376	5.19704	-0.302662	-0.597499	0.566198	-0.482178	0.151367	-0.593262
818.0	15.030463	4.338665	4.456083	-0.616836	-0.728713	0.79317	-0.489258	0.160156	-0.595947
819.0	13.423664	3.98859	1.6234	-0.554133	0.007768	0.933444	-0.48291	0.169189	-0.591553
820.0	10.037202	3.550427	1.05086	-0.605469	0.809948	0.965728	-0.483154	0.177979	-0.598877
821.0	8.640968	1.252134	3.855826	-0.830021	0.864296	1.007947	-0.481445	0.188965	-0.599365
822.0	8.981241	-2.150595	3.61184	-0.899378	0.204935	0.812796	-0.476807	0.188965	-0.601807
823.0	9.096092	-2.536491	4.596188	0.511453	0.335865	0.74341	-0.474854	0.191162	-0.601807
824.0	9.78254	-1.679754	4.932365	0.115629	0.123615	0.652679	-0.474854	0.195557	-0.602051
825.0	10.827093	-3.871578	3.240153	-0.327579	0.023859	0.542108	-0.475342	0.204346	-0.602295
826.0	11.281139	-3.958787	2.020967	0.306253	0.062714	0.391507	-0.470703	0.202148	-0.602295
827.0	11.775295	-2.132647	2.858733	0.409502	0.277062	0.284399	-0.470459	0.197754	-0.599609
828.0	11.853062	-1.498139	3.032093	0.064457	0.411847	0.190386	-0.466309	0.20459	-0.611572
829.0	11.618848	-1.314456	2.765594	0.188305	0.334612	0.077671	-0.46582	0.195557	-0.602051
830.0	11.134443	0.358537	2.832927	0.427737	0.15309	-0.060108	-0.463623	0.195557	-0.608887
831.0	9.894163	1.628284	2.207189	0.275704	0.292655	-0.114442	-0.463623	0.195801	-0.613525
832.0	9.819684	1.626456	2.568432	-0.054186	0.293195	-0.126137	-0.470459	0.197754	-0.615967
833.0	8.836338	1.558652	2.091131	0.129332	0.387779	-0.146632	-0.461426	0.195801	-0.625244
834.0	7.760248	2.338191	2.376326	0.224223	0.35545	-0.167491	-0.461426	0.195801	-0.620605
835.0	7.435925	2.958484	2.300545	0.111156	0.100219	-0.184242	-0.463623	0.195801	-0.620605
836.0	7.333091	2.910452	2.141675	0.02424	0.088449	-0.191478	-0.461182	0.191406	-0.625
837.0	7.3788	2.523625	2.250038	-0.049851	0.035714	-0.194951	-0.460938	0.18457	-0.61792
838.0	7.456907	2.002934	1.986705	-0.120611	-0.131935	-0.176512	-0.468018	0.191162	-0.625
839.0	7.490246	1.035555	1.934317	-0.284594	-0.085956	-0.194275	-0.470215	0.188965	-0.613281
840.0	7.31393	0.254717	2.058303	-0.354312	-0.090836	-0.265574	-0.470215	0.188965	-0.61792
841.0	7.341681	-0.366928	1.803103	-0.319237	-0.2886	-0.315239	-0.477051	0.191162	-0.613281
842.0	7.873662	-0.698424	1.576399	-0.183696	-0.319434	-0.33316	-0.479248	0.191162	-0.615723
843.0	8.044903	-0.914953	1.204407	-0.107528	-0.122817	-0.308993	-0.476807	0.18457	-0.608398
844.0	8.004896	-0.953278	1.051448	-0.076028	0.02169	-0.263296	-0.479248	0.188965	-0.608643
845.0	8.038488	-0.761527	1.067889	-0.061509	0.097522	-0.188672	-0.479248	0.188965	-0.615723
846.0	8.222924	-0.571068	0.961886	-0.096495	0.116995	-0.103793	-0.479248	0.188965	-0.615723
847.0	8.337683	-0.426599	0.717868	-0.13193	0.16603	-0.005272	-0.474609	0.18457	-0.61792
848.0	8.256427	-0.263064	0.515027	-0.121077	0.195538	0.077317	-0.479248	0.191162	-0.620361
849.0	8.242438	-0.146747	0.695367	-0.041305	0.173202	0.160287	-0.474609	0.188965	-0.615723
850.0	8.027654	-0.03482	0.709371	0.016094	0.150045	0.236065	-0.470215	0.188965	-0.61792
851.0	7.919345	0.044967	0.421917	0.06068	0.02627	0.293295	-0.474854	0.195557	-0.622803
852.0	8.000642	0.080879	0.18709	0.072208	-0.109734	0.326415	-0.475098	0.199951	-0.623047
853.0	8.103431	0.249727	-0.146388	0.081294	-0.217056	0.34915	-0.475098	0.199951	-0.625244
854.0	7.869133	0.652675	-0.426728	0.143929	-0.238461	0.373316	-0.472656	0.197754	-0.620605
855.0	7.854824	0.937727	-0.206247	0.005889	-0.144811	0.394548	-0.477539	0.202148	-0.623047
856.0	8.385961	0.89812	-0.044304	-0.176868	-0.324959	0.391994	-0.475342	0.20459	-0.618652
857.0	9.148517	0.689282	-0.23128	-0.111044	-0.419655	0.382708	-0.479736	0.199951	-0.615967
858.0	10.753286	0.803071	0.143227	-0.14395	-0.560005	0.345067	-0.482178	0.20874	-0.614014
859.0	12.014969	0.643469	0.10904	-0.216814	-0.48396	0.279782	-0.484375	0.206543	-0.606934
860.0	12.851584	1.194409	0.531413	-0.048361	-0.110434	0.197727	-0.47998	0.206543	-0.609375
861.0	13.190465	1.24634	1.459955	-0.15299	0.228412	0.10644	-0.482178	0.20874	-0.609375
862.0	12.554649	0.112974	0.962676	-0.121798	0.404943	0.025681	-0.482422	0.213135	-0.616455
863.0	11.650492	-0.377873	0.607264	0.297491	0.158121	-0.027123	-0.47998	0.20874	-0.611816
864.0	11.14146	-0.26811	0.158911	0.48023	-0.27717	-0.074429	-0.47998	0.20874	-0.607178
865.0	11.38769	-0.467419	-1.086384	0.474359	-0.637289	-0.125175	-0.486572	0.202148	-0.602295
866.0	12.405014	-0.492536	-1.819125	0.396236	-0.707619	-0.181597	-0.490967	0.202148	-0.611572
867.0	13.084023	0.007186	-1.86799	0.106415	-0.254517	-0.187546	-0.486572	0.202148	-0.611572
868.0	12.33462	0.289042	-1.892953	-0.262998	0.193254	-0.22741	-0.491211	0.206543	-0.614014
869.0	12.336111	0.307997	-0.46837	-0.344178	0.176029	-0.285036	-0.493164	0.197754	-0.611328
870.0	12.871836	0.510492	2.176189	-0.200981	0.30017	-0.349961	-0.495605	0.202148	-0.616211
871.0	12.551618	0.486331	4.0102	-0.284406	0.514102	-0.427427	-0.490723	0.195557	-0.608887
872.0	13.277064	-0.901997	5.306733	-0.523787	0.265782	-0.575147	-0.493164	0.199951	-0.615967
873.0	14.609288	-3.807805	4.958943	-0.121861	-0.203077	-0.826745	-0.495117	0.191162	-0.615723
874.0	14.808716	-4.683854	4.007101	0.860894	-0.448497	-1.043059	-0.501465	0.180176	-0.605957
875.0	12.454703	-2.526791	2.497501	1.562027	-0.038667	-1.010085	-0.500732	0.166748	-0.612549
876.0	9.334943	-0.393825	2.204899	1.105327	0.708672	-0.835368	-0.500732	0.162354	-0.619385
877.0	6.825812	1.288829	4.302661	0.895868	0.565508	-0.657503	-0.500244	0.14917	-0.623535
878.0	5.635808	2.747088	5.413604	0.416672	-0.099133	-0.523895	-0.506836	0.14917	-0.616455
879.0	6.322342	3.316151	4.493291	-0.126675	-0.513922	-0.438398	-0.5	0.14917	-0.611816
880.0	7.632398	3.488472	3.802638	-0.396583	-0.295426	-0.360901	-0.511475	0.14917	-0.616455
881.0	8.778475	3.333872	3.793364	-0.658915	0.013468	-0.347238	-0.50708	0.151367	-0.614258
882.0	9.944835	2.688183	4.307963	-0.696426	-0.004977	-0.343035	-0.50708	0.155762	-0.616699
883.0	11.101007	1.574853	3.377132	-0.542737	-0.069184	-0.355714	-0.511475	0.153564	-0.612061
884.0	11.911258	0.899862	2.255462	-0.357204	-0.089265	-0.365827	-0.513672	0.151367	-0.611816
885.0	12.837239	0.766857	1.673552	-0.175381	-0.027752	-0.303539	-0.51123	0.144775	-0.606934
886.0	13.248536	0.83256	1.494304	-0.029371	0.047918	-0.205498	-0.520264	0.146973	-0.604736
887.0	12.141634	0.253513	1.111793	-0.036327	0.22112	-0.107452	-0.506836	0.14917	-0.604736
888.0	10.598708	-0.448993	1.548557	0.045043	0.413705	-0.011637	-0.513672	0.14917	-0.611816
889.0	9.592819	-0.423114	1.93553	0.073886	0.331954	0.060987	-0.51123	0.144775	-0.616211
890.0	8.580283	-0.438674	1.956516	-0.048889	0.244599	0.103	-0.51123	0.146973	-0.614014
891.0	8.184689	-0.839468	1.790005	-0.08001	0.120005	0.150395	-0.518066	0.14917	-0.614014
892.0	7.912686	-1.193823	1.797177	-0.065899	0.131448	0.184562	-0.513672	0.151367	-0.618896
893.0	7.364463	-1.729494	1.492252	-0.076567	0.169125	0.196862	-0.511475	0.151367	-0.614258
894.0	6.717859	-1.853059	1.613008	0.021287	0.150001	0.191376	-0.509277	0.151367	-0.618896
895.0	6.640098	-1.727801	2.069338	0.027083	0.070224	0.185649	-0.511475	0.14917	-0.616455
896.0	6.909696	-1.775767	1.867255	0.017997	-0.063691	0.173572	-0.515869	0.146973	-0.616455
897.0	7.328684	-1.525664	1.630472	0.161216	-0.178528	0.167815	-0.513672	0.14917	-0.616455
898.0	7.865001	-0.957173	1.343007	0.289162	-0.212589	0.195756	-0.520508	0.151367	-0.616455
899.0	8.237782	-0.285313	1.217897	0.241002	-0.113855	0.214776	-0.513672	0.151367	-0.614258
900.0	7.989159	-0.047284	1.301962	0.16428	-0.09235	0.213951	-0.518066	0.144775	-0.611572
901.0	8.12213	0.160937	1.231645	0.196667	-0.226937	0.187604	-0.518066	0.146973	-0.611816
902.0	8.633812	0.078096	0.63333	0.209867	-0.284474	0.156596	-0.522705	0.14917	-0.607178
903.0	8.730125	-0.052513	0.213819	0.163369	-0.128881	0.102958	-0.518066	0.144775	-0.616211
904.0	8.579531	0.08262	0.323189	0.173066	0.007163	0.064915	-0.524658	0.142578	-0.609131
905.0	8.311196	0.215095	0.610899	0.166354	0.026477	0.008048	-0.522461	0.146973	-0.614014
906.0	8.339363	0.357307	0.738387	0.143138	-0.051365	-0.041975	-0.524658	0.142578	-0.609131
907.0	8.673827	0.448455	0.572955	0.107933	-0.077109	-0.111325	-0.517578	0.138184	-0.611328
908.0	8.933599	0.339929	0.384128	0.084405	-0.025248	-0.171825	-0.529053	0.137939	-0.61377
909.0	9.109716	0.092109	0.307736	0.057849	0.047796	-0.224862	-0.521973	0.12915	-0.613281
910.0	9.010826	-0.036488	0.198784	0.109014	0.088161	-0.273605	-0.526367	0.131348	-0.608887
911.0	8.615362	-0.007232	0.112044	0.18051	0.141717	-0.315128	-0.521729	0.124756	-0.604004
912.0	8.561956	-0.191934	-0.075123	0.180158	0.195581	-0.333391	-0.528564	0.124756	-0.620117
913.0	8.573447	-0.440809	-0.248936	0.188718	0.228196	-0.377684	-0.523682	0.118164	-0.615234
914.0	8.934607	-0.45155	0.050934	0.275373	0.256719	-0.380247	-0.530518	0.120361	-0.615479
915.0	9.346996	0.040155	0.413682	0.265629	0.134684	-0.367495	-0.530273	0.11377	-0.617432
916.0	9.478478	0.020252	0.115505	0.148828	-0.075389	-0.358154	-0.530273	0.111572	-0.619629
917.0	9.544707	0.336684	0.055147	0.365491	-0.154248	-0.24892	-0.530029	0.107178	-0.617188
918.0	10.76009	0.457229	0.030583	-0.016985	-0.266973	-0.146865	-0.529785	0.10498	-0.610107
919.0	11.961977	0.156856	0.49278	-0.392125	-0.019138	-0.01037	-0.534668	0.109375	-0.612549
920.0	11.197303	1.024715	1.035315	-0.265211	0.103291	0.074797	-0.534424	0.10498	-0.614746
921.0	10.625833	1.443286	0.664833	-0.426342	-0.262159	0.112382	-0.530029	0.109375	-0.61499
922.0	11.276813	1.034525	-0.744103	-0.449431	-0.574231	0.105713	-0.536865	0.111572	-0.610352
923.0	12.16251	1.188956	-1.539819	-0.27495	-0.413293	0.09314	-0.538818	0.10498	-0.605469
924.0	12.096406	0.369845	-2.254861	-0.286656	-0.093426	0.071785	-0.541504	0.111572	-0.603516
925.0	11.634034	-0.930011	-2.451278	-0.094178	-0.032576	0.044009	-0.539063	0.107178	-0.60791
926.0	11.939889	-1.351331	-0.997322	0.031533	-0.032661	0.037865	-0.54126	0.107178	-0.603271
927.0	12.323663	-2.130164	0.14678	-0.059347	0.0385	0.08198	-0.545654	0.107178	-0.605469
928.0	11.967918	-2.851265	1.496673	-0.131023	0.436927	0.122789	-0.54126	0.109375	-0.612549
929.0	10.889199	-2.122417	3.595192	-0.119081	0.738466	0.168016	-0.532227	0.109375	-0.60791
930.0	10.601752	-0.360023	5.442404	-0.073992	0.255597	0.29721	-0.54126	0.107178	-0.61499
931.0	11.913044	2.088572	6.074712	0.048704	-0.529626	0.469957	-0.541504	0.11377	-0.610596
932.0	14.251494	4.493826	5.596707	-0.118491	-0.766916	0.717765	-0.546143	0.118164	-0.613037
933.0	14.456497	5.465519	3.44573	-0.196697	-0.484808	0.937547	-0.54834	0.118164	-0.608398
934.0	11.819963	5.405132	1.271226	-0.286815	0.141514	1.010428	-0.553223	0.126953	-0.611084
935.0	9.538604	3.486076	1.906417	-0.639699	0.641209	1.07422	-0.542236	0.12915	-0.606445
936.0	9.394479	-1.051332	2.637231	-1.32432	0.419099	0.954466	-0.547119	0.137939	-0.615967
937.0	8.711794	-3.596704	3.516287	-0.03505	0.634471	0.832853	-0.545166	0.146729	-0.609375
938.0	8.837451	-2.553667	5.541599	0.338359	0.188008	0.692257	-0.540771	0.148926	-0.609375
939.0	10.305325	-3.467198	4.314586	-0.1029	-0.558669	0.587375	-0.540771	0.151123	-0.609619
940.0	11.882127	-4.200722	0.962311	0.16949	-0.557464	0.418523	-0.552002	0.151123	-0.611816
941.0	12.219759	-2.469339	1.621569	0.484934	0.169188	0.293902	-0.545166	0.146729	-0.607178
942.0	11.409893	-1.469676	3.174443	0.127612	0.521767	0.205977	-0.545166	0.148926	-0.614014
943.0	10.862753	-1.696993	3.04506	0.266737	0.192136	0.119738	-0.547119	0.142334	-0.611572
944.0	11.116919	0.042635	3.12503	0.690793	-0.146082	0.037627	-0.551514	0.140137	-0.61377
945.0	11.392142	1.24628	2.263944	0.389749	-0.231432	-0.015461	-0.549316	0.142334	-0.609131
946.0	11.094901	1.064173	1.745024	0.175899	0.130788	-0.026587	-0.551758	0.142334	-0.616211
947.0	10.108866	1.310547	2.394779	0.186225	0.374648	-0.058501	-0.549072	0.133545	-0.615967
948.0	8.997401	2.062263	2.611496	0.275547	0.314547	-0.068772	-0.546875	0.135742	-0.615967
949.0	8.465745	3.042603	2.67022	0.303092	0.098353	-0.087744	-0.546875	0.133545	-0.615967
950.0	7.979515	3.298112	2.601164	0.149201	0.095899	-0.099559	-0.55127	0.131348	-0.618164
951.0	8.025334	2.524354	2.332488	-0.068323	-0.079421	-0.113306	-0.55542	0.122559	-0.613037
952.0	7.693574	1.502257	2.036432	-0.084211	0.008989	-0.142082	-0.557861	0.12915	-0.613281
953.0	7.604212	1.125718	1.897447	-0.077104	-0.036752	-0.182524	-0.55542	0.122559	-0.613037
954.0	7.659606	0.787326	2.030751	-0.21123	-0.079312	-0.261584	-0.557861	0.12915	-0.61792
955.0	7.403379	-0.192175	1.423807	-0.261495	0.046007	-0.301419	-0.557617	0.122559	-0.615479
956.0	6.80774	-0.278883	1.528772	-0.011079	0.184149	-0.368741	-0.557617	0.120361	-0.615479
957.0	6.409503	-0.314535	1.802083	-0.074895	0.089359	-0.406009	-0.555176	0.118164	-0.615234
958.0	6.500694	-0.951919	1.608727	-0.075125	-0.051451	-0.4142	-0.55957	0.115967	-0.62207
959.0	6.810969	-1.12851	1.210931	0.04912	-0.059302	-0.387297	-0.557373	0.11377	-0.617432
960.0	7.115623	-0.724579	1.187465	0.125043	0.030726	-0.343978	-0.563965	0.109131	-0.61499
961.0	7.447546	-0.230672	1.26774	0.11054	0.028428	-0.261394	-0.561523	0.104736	-0.617188
962.0	8.047916	0.023092	1.005091	0.10372	-0.028852	-0.151139	-0.563721	0.104736	-0.614746
963.0	8.53423	0.195685	0.606499	0.110119	0.006963	-0.040357	-0.568115	0.102539	-0.619385
964.0	8.773017	0.260097	0.44703	0.116483	0.057638	0.080015	-0.568359	0.106934	-0.617188
965.0	9.03623	0.316195	0.283202	0.069169	-0.002048	0.197222	-0.561279	0.102539	-0.619385
966.0	9.017101	0.130018	-0.101716	0.04416	-0.072427	0.289846	-0.566162	0.106934	-0.621826
967.0	9.106982	0.126894	-0.298754	0.04955	-0.12382	0.357793	-0.563721	0.104736	-0.621826
968.0	8.953636	0.302072	-0.339341	0.044756	-0.070433	0.39799	-0.568359	0.111328	-0.617432
969.0	8.810376	0.436422	-0.207618	0.044419	-0.067144	0.421398	-0.566162	0.109131	-0.617188
970.0	8.442621	0.518931	-0.26066	-0.025141	-0.022824	0.420488	-0.570557	0.106934	-0.617188
971.0	8.377684	0.965426	0.0577	-0.004969	-0.064203	0.418571	-0.566162	0.111328	-0.619629
972.0	9.797718	1.29667	0.502876	-0.164055	-0.466963	0.380411	-0.570801	0.115723	-0.612793
973.0	11.209834	1.099547	0.42176	-0.135365	-0.660855	0.319019	-0.575684	0.122314	-0.61084
974.0	12.401746	1.519742	0.39695	-0.028904	-0.362957	0.230036	-0.584473	0.11792	-0.613037
975.0	13.170972	1.547902	1.434701	-0.171945	0.092432	0.137578	-0.577637	0.113525	-0.612793
976.0	13.256504	-0.042434	0.514995	-0.376058	0.281885	0.066674	-0.58252	0.122314	-0.615479
977.0	12.408398	-1.006406	-0.035232	0.003674	0.421011	0.006311	-0.572998	0.113525	-0.608154
978.0	11.360211	-1.320613	-0.022461	0.216955	0.288888	-0.032234	-0.575439	0.115723	-0.617432
979.0	10.970024	-1.683478	-0.289673	0.421811	-0.09909	-0.083412	-0.575195	0.109131	-0.612549
980.0	11.039155	-0.791899	-1.024226	0.504683	-0.37036	-0.136845	-0.57959	0.109131	-0.61499
981.0	11.265469	0.102853	-1.967674	0.177748	-0.451927	-0.162675	-0.57959	0.106934	-0.617188
982.0	11.492694	0.768617	-1.909492	-0.050569	-0.309457	-0.185692	-0.59082	0.106934	-0.612549
983.0	11.332645	1.696124	-0.865153	-0.107044	-0.139338	-0.236951	-0.588379	0.102539	-0.607666
984.0	11.280523	2.090188	0.235369	-0.391716	-0.101008	-0.277908	-0.588379	0.102539	-0.607666
985.0	11.681489	2.08892	1.716857	-0.537022	0.230169	-0.303395	-0.588135	0.098145	-0.607666
986.0	11.521909	1.882972	3.282552	-0.473377	0.616481	-0.382038	-0.586182	0.104736	-0.60791
987.0	12.54026	0.427764	5.497476	-0.775745	0.497576	-0.551908	-0.585938	0.100342	-0.612305
988.0	13.296733	-2.901724	5.54378	-0.420377	0.005693	-0.803654	-0.592529	0.091553	-0.616699
989.0	12.892694	-4.454666	4.6492	0.540966	-0.431591	-1.048084	-0.592041	0.080322	-0.609131
990.0	11.077461	-3.455144	2.922607	1.018333	-0.317541	-1.118157	-0.598633	0.07373	-0.611328
991.0	9.806314	-1.245612	2.094612	1.049078	0.009852	-0.975174	-0.595703	0.060547	-0.615479
992.0	8.059302	1.184535	3.099838	0.734316	0.334862	-0.830188	-0.595703	0.060547	-0.620117
993.0	6.55225	2.608122	5.193555	0.152732	0.213839	-0.656909	-0.595215	0.049561	-0.617432
994.0	6.884427	2.6004	5.429425	-0.422383	-0.109399	-0.549085	-0.599854	0.049561	-0.619629
995.0	8.745917	1.972073	5.009916	-0.543346	-0.099039	-0.506844	-0.593018	0.051758	-0.617432
996.0	10.669956	1.607044	3.91898	-0.530442	0.029436	-0.486783	-0.595215	0.049561	-0.61499
997.0	12.219282	1.542023	2.967071	-0.405638	-0.037242	-0.434777	-0.597412	0.045166	-0.612549
998.0	13.174308	1.634078	2.328188	-0.210695	-0.119125	-0.35987	-0.597412	0.047363	-0.619629
999.0	13.164703	1.46252	1.657927	-0.047039	-0.049919	-0.233377	-0.601807	0.042969	-0.614746
1000.0	12.859478	1.188851	1.344408	0.036022	-0.020826	-0.099347	-0.602051	0.049561	-0.610352
1001.0	11.695674	0.475441	1.289417	-0.010358	0.23214	0.000128	-0.599365	0.040771	-0.614746
1002.0	10.132349	-0.162356	1.931413	0.015697	0.31906	0.060927	-0.599609	0.047363	-0.621826
1003.0	9.709375	0.05034	2.246712	0.058409	0.086468	0.116584	-0.594971	0.042969	-0.614746
1004.0	9.807639	0.184063	1.69366	-0.022519	-0.000864	0.180559	-0.604248	0.047363	-0.617188
1005.0	8.917874	-0.436918	1.457946	-0.130362	0.190559	0.213253	-0.599854	0.049561	-0.62207
1006.0	7.539546	-1.048835	2.069857	-0.13482	0.303744	0.203302	-0.600098	0.053955	-0.626709
1007.0	7.000178	-1.503844	2.328733	-0.120433	0.191127	0.192817	-0.595459	0.051758	-0.62207
1008.0	7.175	-1.632378	1.796769	0.005109	0.039743	0.196051	-0.600098	0.056152	-0.619873
1009.0	7.298718	-1.533754	1.635556	0.005933	0.05087	0.191659	-0.597656	0.053955	-0.624512
1010.0	7.311122	-1.621248	1.655267	0.002826	0.033302	0.188894	-0.595459	0.056152	-0.624512
1011.0	7.787672	-1.475164	1.826483	0.161363	-0.108803	0.185672	-0.5979	0.05835	-0.626953
1012.0	8.0056	-0.91931	1.470243	0.285571	-0.172151	0.177728	-0.600098	0.056152	-0.610596
1013.0	8.170589	-0.232126	0.928518	0.329555	-0.174702	0.193305	-0.599854	0.051758	-0.62207
1014.0	8.183561	0.461304	0.811148	0.307698	-0.132004	0.194679	-0.602539	0.060547	-0.622314
1015.0	8.042737	0.755421	0.997146	0.206453	-0.07238	0.186347	-0.602295	0.05835	-0.615234
1016.0	7.952029	0.657611	0.949698	0.136308	-0.146079	0.176501	-0.600342	0.060547	-0.613037
1017.0	8.275672	0.944666	0.617237	0.188681	-0.210559	0.147598	-0.606934	0.056152	-0.613037
1018.0	8.549988	1.202909	0.53937	0.127205	-0.147666	0.111652	-0.602539	0.060547	-0.629395
1019.0	8.568142	1.051859	0.49139	0.003816	-0.10389	0.083929	-0.604492	0.053955	-0.612793
1020.0	8.62676	0.878808	0.510141	0.022816	-0.128292	0.046627	-0.606934	0.05835	-0.605957
1021.0	8.833863	0.866653	0.382397	0.026948	-0.141908	0.01055	-0.606689	0.053955	-0.615234
1022.0	8.853481	0.618591	0.129833	-0.012081	-0.081752	-0.020291	-0.61377	0.062744	-0.61792
1023.0	8.977176	0.487756	-0.131041	0.048755	-0.011411	-0.033663	-0.611328	0.056152	-0.619873
1024.0	8.941051	0.342233	-0.17848	0.14982	0.106842	-0.054588	-0.611572	0.062744	-0.627197
1025.0	8.834208	0.280039	-0.125996	0.200171	0.13815	-0.094579	-0.608887	0.053955	-0.619873
1026.0	8.603752	0.193078	0.048155	0.20116	0.094823	-0.130357	-0.615723	0.051758	-0.624268
1027.0	8.599913	-0.068426	0.066417	0.215503	0.065077	-0.152271	-0.608643	0.047363	-0.624268
1028.0	8.488233	-0.441632	0.076472	0.221022	0.094063	-0.19662	-0.611328	0.053955	-0.62207
1029.0	8.866551	-0.826187	0.261318	0.223346	-0.062009	-0.209486	-0.613037	0.042969	-0.617188
1030.0	9.513956	-0.888852	-0.002556	0.304659	-0.212096	-0.176958	-0.617432	0.040527	-0.612305
1031.0	9.574074	-0.919881	-0.280062	0.292513	-0.16037	-0.158023	-0.617432	0.040527	-0.612305
1032.0	10.141574	-0.935794	0.662616	0.221615	-0.19395	-0.052684	-0.619873	0.042725	-0.624023
1033.0	10.822688	-0.706208	1.08276	0.051609	-0.302352	-0.011617	-0.617676	0.044922	-0.612549
1034.0	11.071535	-0.378065	0.781711	-0.004296	-0.395817	0.017852	-0.622314	0.047119	-0.621826
1035.0	11.630386	-0.159031	0.171993	-0.133629	-0.531304	0.051527	-0.621826	0.03833	-0.609863
1036.0	12.038806	0.10557	-0.74004	-0.173883	-0.48823	0.064583	-0.628906	0.042725	-0.612549
1037.0	11.933714	0.95269	-1.54262	-0.053664	-0.46409	0.087322	-0.626465	0.042725	-0.60791
1038.0	12.375958	1.938638	-1.793275	-0.107219	-0.608337	0.140478	-0.631348	0.051514	-0.601074
1039.0	13.306774	1.561441	-1.788497	-0.370065	-0.496222	0.208197	-0.638184	0.049316	-0.598633
1040.0	13.473611	0.483501	-1.959123	-0.350731	-0.06826	0.26095	-0.633789	0.055908	-0.59668
1041.0	12.859042	0.267916	-1.110842	-0.349416	0.198488	0.300318	-0.631592	0.058105	-0.601318
1042.0	12.301912	-0.151909	0.098162	-0.662496	0.114793	0.357179	-0.634277	0.064697	-0.599365
1043.0	12.348089	-0.278527	1.52255	-0.702282	0.055696	0.391746	-0.627686	0.071533	-0.606445
1044.0	13.054928	1.055593	3.802922	-0.680388	0.098418	0.441504	-0.630127	0.078125	-0.602051
1045.0	12.955872	2.09315	4.297062	-0.7244	0.254959	0.490486	-0.632813	0.084717	-0.600098
1048.0	9.819782	2.448116	3.190144	-0.70574	0.377342	0.54045	-0.629395	0.111084	-0.601074
1049.0	8.490431	-0.221258	3.321223	-0.851151	0.212049	0.581147	-0.620605	0.115479	-0.608154
1050.0	8.822393	-2.102825	3.596096	-0.409656	0.145775	0.56126	-0.629883	0.12207	-0.606201
1051.0	9.582903	-2.341809	4.52182	-0.111391	0.082314	0.526261	-0.622803	0.115479	-0.605957
1052.0	10.620598	-2.905194	4.59012	-0.185872	-0.028946	0.515794	-0.627686	0.124268	-0.61084
1053.0	11.791519	-3.43288	3.2577	0.031288	-0.316134	0.503146	-0.625488	0.128662	-0.599365
1054.0	12.971048	-2.801924	1.757941	0.261648	-0.286818	0.493781	-0.630127	0.133057	-0.608887
1056.0	12.661743	-1.625537	2.119912	0.227449	0.495271	0.429846	-0.62793	0.135498	-0.608887
1057.0	11.123897	-0.887352	3.034284	0.150701	0.541449	0.293442	-0.619141	0.139893	-0.61377
1058.0	10.759754	-0.028408	2.979521	0.233762	0.233749	0.162963	-0.628418	0.14209	-0.618408
1059.0	10.484611	0.969207	2.571372	0.254536	0.134201	0.05024	-0.619385	0.14209	-0.625488
1060.0	9.917033	1.634876	2.148722	0.182674	0.248329	-0.031637	-0.621582	0.14209	-0.627686
1061.0	8.928585	1.875226	1.964417	0.119209	0.447125	-0.091776	-0.619141	0.135498	-0.622803
1063.0	7.516662	2.588802	2.586876	0.187494	0.310602	-0.186494	-0.614502	0.135498	-0.618164
1064.0	7.199552	2.775669	2.147063	0.134274	-0.09852	-0.257439	-0.619141	0.135498	-0.625244
1065.0	7.4881	2.333642	1.683298	0.033343	-0.146484	-0.293791	-0.616699	0.135498	-0.625244
1066.0	7.374724	1.854621	1.464815	-0.071072	-0.09728	-0.307207	-0.623291	0.131104	-0.620361
1067.0	7.286231	1.251313	1.459397	-0.139234	-0.012152	-0.29545	-0.623535	0.133301	-0.613525
1072.0	7.458582	-0.034243	1.496774	-0.152232	-0.095157	-0.327277	-0.621094	0.131104	-0.608643
1073.0	8.382986	-0.547409	1.130277	-0.019659	0.032877	-0.197505	-0.62085	0.124512	-0.613037
1074.0	8.451104	-0.201345	0.91028	-0.012835	0.075032	-0.082319	-0.629883	0.124268	-0.617676
1075.0	8.604468	-0.111965	0.574494	-0.060978	0.116571	0.026296	-0.618652	0.126709	-0.615479
1076.0	8.47938	0.021555	0.554754	0.023928	0.25731	0.132064	-0.616455	0.128906	-0.613281
1077.0	8.349805	0.154683	0.666585	0.00711	0.247604	0.219384	-0.618896	0.128906	-0.61792
1078.0	8.423014	0.118475	0.667697	-0.012963	0.141415	0.282695	-0.623291	0.131104	-0.61792
1079.0	8.377491	0.144984	0.44242	0.04458	0.103025	0.321268	-0.616699	0.131104	-0.618164
1080.0	8.121124	0.318014	0.24568	0.045382	0.113154	0.350379	-0.621582	0.139893	-0.623047
1082.0	8.575946	0.509024	-0.012673	-0.022223	0.013533	0.383508	-0.619385	0.144287	-0.618652
1083.0	8.59789	0.605286	-0.252658	-0.03671	0.155154	0.38996	-0.617188	0.146484	-0.62085
1084.0	9.075993	0.885121	0.287579	-0.09576	0.088422	0.387794	-0.619873	0.155273	-0.618896
1085.0	9.908713	0.740809	0.282008	-0.102168	-0.093049	0.384396	-0.615234	0.150879	-0.616455
1088.0	11.023899	0.693558	0.067282	-0.048826	-0.125542	0.225539	-0.626953	0.161865	-0.609863
1089.0	11.828888	-0.290593	1.575851	-0.063052	0.255521	0.04012	-0.615479	0.157471	-0.614502
1090.0	12.180189	-1.132001	0.699698	0.145603	-0.01633	-0.045577	-0.620117	0.164063	-0.614502
1093.0	11.951714	-0.065316	-0.893243	0.450169	0.143813	-0.14086	-0.61084	0.155273	-0.616699
1095.0	10.696579	0.055244	-0.694785	0.434861	-0.143525	-0.188267	-0.621826	0.148682	-0.609375
1096.0	11.640007	0.398451	-0.920343	0.183815	-0.490064	-0.230118	-0.626221	0.148682	-0.604736
1097.0	11.889907	0.82154	-1.437438	-0.144357	-0.152866	-0.267136	-0.621582	0.14209	-0.609131
1098.0	11.992604	1.082023	-0.080697	-0.298045	0.244066	-0.30832	-0.617432	0.150879	-0.609375
1099.0	11.754753	1.364136	3.431407	-0.249427	0.701627	-0.380069	-0.617188	0.144287	-0.61377
1100.0	11.347784	0.642027	6.101726	-0.305653	0.483729	-0.517537	-0.617432	0.150879	-0.609375
1101.0	12.360162	-2.167929	5.438107	-0.389266	-0.300025	-0.693262	-0.621582	0.14209	-0.609131
1102.0	13.598119	-4.278613	3.850504	0.378824	-0.519259	-0.874258	-0.634521	0.130859	-0.604004
1103.0	12.987965	-2.602212	4.338745	1.052656	-0.316044	-0.994124	-0.625488	0.126465	-0.608643
1104.0	11.19433	-0.730879	3.216735	0.964094	-0.137348	-0.938959	-0.627441	0.117676	-0.605957
1105.0	8.815407	0.416536	3.483449	0.937981	0.159304	-0.730542	-0.62915	0.106689	-0.610107
1106.0	7.227128	1.847748	4.236234	0.548634	0.059335	-0.56375	-0.626709	0.102295	-0.610107
1107.0	6.519272	2.775322	4.908193	-0.061079	-0.112345	-0.458975	-0.633301	0.0979	-0.609863
1108.0	7.335162	2.687738	4.895742	-0.445456	-0.263293	-0.373479	-0.633545	0.104492	-0.60083
1109.0	8.780317	2.093844	3.810189	-0.543092	-0.227988	-0.363556	-0.628906	0.102295	-0.595947
1110.0	10.640667	2.217602	3.33406	-0.465394	-0.210493	-0.378016	-0.637939	0.102295	-0.598389
1111.0	12.247384	2.180089	3.227534	-0.482997	-0.329595	-0.354779	-0.635986	0.108887	-0.596191
1112.0	12.50944	1.203869	2.09189	-0.447066	-0.337417	-0.337101	-0.640137	0.102295	-0.591309
1113.0	13.084282	0.944062	1.717812	-0.087372	-0.293743	-0.246792	-0.640381	0.106689	-0.589355
1114.0	12.757647	0.913698	1.508856	-0.000617	-0.020849	-0.173341	-0.637939	0.102295	-0.589111
1115.0	11.925742	0.481364	1.616892	0.039933	0.076737	-0.092683	-0.642578	0.102295	-0.582031
1116.0	10.636282	-0.640918	1.569808	-0.015601	0.153319	-0.044403	-0.638184	0.106689	-0.586914
1117.0	9.9174	-1.091708	1.890706	0.124655	0.145432	-0.008475	-0.637939	0.100098	-0.58667
1119.0	9.881471	-0.889863	1.668125	0.075854	0.077637	0.097972	-0.638184	0.106689	-0.584717
1120.0	8.725508	-1.492629	1.554039	0.100282	0.241812	0.181382	-0.638428	0.111084	-0.589355
1121.0	7.948432	-1.594251	2.116091	0.135513	0.227741	0.219984	-0.633545	0.106689	-0.584717
1122.0	7.390269	-2.032478	2.006396	0.142994	0.177717	0.231571	-0.638184	0.108887	-0.591553
1123.0	7.366969	-2.107172	1.870026	0.203983	0.128264	0.234416	-0.633789	0.113281	-0.5896
1124.0	7.54316	-1.819125	1.645547	0.212631	0.056837	0.240748	-0.634033	0.117676	-0.5896
1125.0	7.503448	-1.193656	1.657994	0.327846	0.066388	0.260968	-0.633789	0.113281	-0.591797
1126.0	7.294423	-0.461625	2.078535	0.279409	0.021563	0.275531	-0.635986	0.111084	-0.587158
1127.0	7.1879	0.006785	1.780044	0.269508	-0.124595	0.291929	-0.634033	0.115479	-0.591797
1128.0	7.342551	0.436847	1.469481	0.295967	-0.230226	0.290407	-0.638428	0.115479	-0.587158
1129.0	7.446015	1.020144	1.269992	0.283698	-0.265265	0.270275	-0.640625	0.113281	-0.584961
1132.0	8.199851	1.314627	0.67353	0.265764	-0.218133	0.220322	-0.643066	0.119873	-0.582764
1133.0	8.129422	1.256288	0.568235	0.162345	0.134974	0.137317	-0.645508	0.12207	-0.580566
1135.0	8.056179	0.713547	0.9466	0.056983	-0.126334	0.044229	-0.643066	0.119873	-0.578125
1136.0	8.944408	0.286581	-0.016149	0.121266	-0.143943	-0.06299	-0.645508	0.12207	-0.575928
1137.0	9.06595	0.29753	-0.167603	0.108474	0.089582	-0.118087	-0.642822	0.113281	-0.577881
1138.0	9.004462	0.067791	-0.007581	0.08481	0.146637	-0.153074	-0.647705	0.119873	-0.580566
1139.0	8.925532	-0.059793	0.136303	0.170607	0.094776	-0.214657	-0.645264	0.113281	-0.58252
1140.0	8.845688	0.134918	-0.01121	0.244566	-0.023385	-0.268417	-0.645264	0.113281	-0.58252
1141.0	8.810607	0.242073	-0.529093	0.205959	-0.085298	-0.33242	-0.649658	0.111084	-0.577881
1143.0	8.43013	-0.289332	-0.692253	0.114622	0.007962	-0.356245	-0.651367	0.102051	-0.577393
1144.0	8.381256	-0.388439	-0.359383	0.30532	-0.226483	-0.332245	-0.651611	0.104248	-0.577637
1145.0	9.459633	-0.360952	-0.163003	0.310332	-0.595527	-0.267863	-0.653564	0.097656	-0.570313
1147.0	11.623772	-0.485669	0.406014	0.024114	-0.434232	-0.106667	-0.657959	0.095459	-0.567871
1148.0	11.224325	0.053242	0.86168	-0.157614	0.079777	-0.049697	-0.662842	0.102051	-0.568115
1149.0	10.568032	0.252089	0.771293	-0.469077	-0.336696	-0.00084	-0.656006	0.102051	-0.558838
1151.0	12.467884	1.373158	-1.189268	-0.376292	-0.780418	0.03957	-0.669678	0.104248	-0.549561
1152.0	13.389951	2.063251	-3.19293	-0.167184	-0.260546	0.08693	-0.669922	0.11084	-0.547607
1153.0	13.006843	0.833032	-2.910534	-0.179954	0.165085	0.106651	-0.663086	0.108643	-0.552246
1154.0	12.252479	-0.222273	-1.881184	0.010808	0.159299	0.121731	-0.667725	0.113037	-0.559326
1155.0	12.618698	-0.68625	-0.930555	-0.008704	-0.105166	0.194757	-0.66748	0.11084	-0.547607
1156.0	12.727159	-1.353816	0.100698	-0.309495	0.271764	0.266537	-0.667969	0.117432	-0.55249
1157.0	11.558948	-1.995717	1.45385	-0.475097	0.89597	0.295401	-0.665771	0.119629	-0.55957
1158.0	10.984212	-1.324848	3.93787	-0.397362	0.87087	0.41472	-0.663818	0.126221	-0.559814
1159.0	11.167216	0.570899	5.820128	-0.272122	0.146045	0.562318	-0.663818	0.128418	-0.562256
1160.0	12.260826	3.277056	5.75541	-0.251066	-0.59459	0.743204	-0.664551	0.14624	-0.555908
1161.0	12.606047	3.891335	3.147536	-0.632781	-0.343146	0.903889	-0.660156	0.148438	-0.546631
1162.0	10.530325	2.436924	1.228835	-0.739293	0.554989	0.944446	-0.660645	0.163818	-0.556641
1163.0	8.338991	0.977389	2.889556	-0.666897	1.034959	0.941791	-0.658447	0.166016	-0.563477
1164.0	8.722537	-1.82446	5.05511	-0.630456	0.363463	0.85331	-0.652344	0.177002	-0.561768
1165.0	8.899761	-2.130027	4.684661	0.364249	0.116925	0.709039	-0.647461	0.17041	-0.570801
1166.0	9.833064	-1.907228	4.985858	0.282982	-0.057061	0.634327	-0.650146	0.181396	-0.564209
1167.0	11.14996	-3.381596	3.670529	-0.022228	-0.247277	0.555939	-0.650146	0.179199	-0.559326
1168.0	12.443176	-4.013133	1.821146	0.322665	0.002494	0.44607	-0.648193	0.186035	-0.55957
1169.0	12.595708	-2.202556	1.936123	0.714454	0.398968	0.349526	-0.645752	0.181641	-0.571045
1170.0	12.490585	-1.063308	3.032349	0.491444	0.59665	0.299968	-0.648193	0.188232	-0.564453
1171.0	11.512704	-1.138333	2.578945	0.500011	0.500408	0.20102	-0.638916	0.181641	-0.575684
1172.0	10.910065	-0.161832	2.547144	0.71432	0.401277	0.10732	-0.643311	0.181641	-0.580322
1173.0	11.08151	1.133972	2.887027	0.529373	0.09098	0.001084	-0.643311	0.179443	-0.582764
1174.0	10.419944	1.076135	1.765447	0.313797	0.197242	-0.054565	-0.638916	0.181641	-0.584961
1175.0	10.080989	1.086387	1.87024	0.314215	0.310243	-0.092577	-0.638672	0.177246	-0.5896
1176.0	9.054378	2.070717	1.879201	0.492288	0.290796	-0.135809	-0.638672	0.177246	-0.591797
1177.0	7.929353	2.967436	2.00589	0.412216	0.275807	-0.166701	-0.63623	0.170654	-0.589355
1178.0	7.729188	3.095953	2.418418	0.244109	0.068894	-0.194336	-0.638428	0.170654	-0.584717
1179.0	7.676762	2.455763	1.937728	0.173098	-0.130855	-0.19955	-0.635986	0.164063	-0.589111
1180.0	7.691654	2.298802	1.641487	0.209217	-0.06006	-0.241985	-0.645264	0.168457	-0.59375
1181.0	7.981352	1.944463	1.711344	-0.095332	-0.218476	-0.278662	-0.647217	0.161621	-0.58667
1182.0	7.753499	1.084818	1.376856	-0.150431	-0.025109	-0.299204	-0.647217	0.163818	-0.59375
1183.0	7.508165	0.741364	1.823478	-0.046126	0.06463	-0.328983	-0.640381	0.161865	-0.58667
1184.0	7.452907	0.24714	1.807005	-0.073946	-0.075629	-0.359711	-0.653809	0.157227	-0.588867
1186.0	7.794211	-0.487818	1.136322	0.027231	-0.036037	-0.352927	-0.646973	0.159424	-0.591309
1190.0	8.216126	-0.314061	0.749755	0.08397	0.211343	-0.142883	-0.644287	0.14624	-0.597656
1191.0	8.074814	0.248482	0.65221	0.084916	0.338899	0.104462	-0.639893	0.148438	-0.5979
1192.0	7.783295	0.098067	0.469049	0.097377	0.277909	0.183134	-0.646973	0.155029	-0.600342
1193.0	7.679287	0.059372	0.278873	0.117639	0.171379	0.23642	-0.64209	0.150635	-0.600098
1196.0	7.821693	0.354487	0.015884	0.108589	-0.048799	0.298482	-0.644775	0.161865	-0.605225
1197.0	7.601013	1.004701	0.052033	0.085927	-0.05918	0.341547	-0.642334	0.157471	-0.602783
1199.0	8.159948	1.588129	0.351662	-0.024838	-0.251337	0.407881	-0.642822	0.164063	-0.607666
1200.0	10.06373	1.999689	0.355917	-0.111625	-0.558796	0.454842	-0.647461	0.170654	-0.596191
1201.0	11.89457	2.045286	0.393307	-0.206898	-0.636054	0.448508	-0.649658	0.170654	-0.596191
1204.0	12.691638	0.798186	1.13087	-0.521124	0.284895	0.243668	-0.647949	0.183838	-0.60376
1207.0	11.200822	-2.544124	-0.006905	0.35223	-0.208714	-0.148953	-0.645508	0.177246	-0.601074
1208.0	12.266007	-0.92689	-1.996682	0.592439	-0.856302	-0.306706	-0.658691	0.17041	-0.593994
1209.0	12.480787	0.393466	-3.479439	0.146615	-0.541135	-0.271572	-0.65625	0.166016	-0.59375
1210.0	12.171425	1.344172	-3.253505	-0.090192	-0.126936	-0.220497	-0.665527	0.17041	-0.596191
1214.0	11.893582	2.003905	1.743504	-0.564751	0.344291	-0.244282	-0.656738	0.177246	-0.61499
1216.0	12.622434	-2.157905	5.239452	-0.684654	0.095081	-0.634673	-0.665527	0.168213	-0.614746
1217.0	13.81211	-5.905685	5.686484	0.392499	-0.679798	-1.09243	-0.667236	0.155029	-0.600342
1220.0	10.30979	-2.08999	2.908712	0.893014	0.153808	-1.088233	-0.668213	0.124268	-0.615479
1222.0	6.31338	2.283429	5.215745	0.275905	-0.034163	-0.711704	-0.672363	0.115479	-0.617432
1223.0	7.713745	3.434479	4.731529	-0.371153	-0.407311	-0.548243	-0.671875	0.106445	-0.605469
1224.0	9.564768	3.398577	3.909059	-0.626526	-0.332888	-0.479389	-0.68335	0.108643	-0.612549
1225.0	10.680456	3.318697	3.32155	-0.519224	-0.148082	-0.396826	-0.676514	0.104248	-0.614746
1226.0	11.296044	2.94155	2.741117	-0.464577	-0.147939	-0.320947	-0.678711	0.106445	-0.617188
1227.0	11.99129	1.951885	2.23597	-0.451492	-0.1308	-0.243974	-0.683105	0.104248	-0.610107
1228.0	13.074322	1.15551	1.644815	-0.3052	-0.325963	-0.141092	-0.68335	0.106445	-0.610107
1229.0	12.547895	0.476054	1.072298	-0.141495	0.054917	-0.064311	-0.683105	0.102051	-0.607666
1232.0	10.711362	-0.750545	1.835737	-0.051566	0.161495	0.022321	-0.687988	0.11084	-0.612549
1233.0	9.996456	-1.111041	1.327987	-0.057552	0.010176	0.120076	-0.680664	0.099854	-0.609863
1234.0	8.949566	-1.362744	1.173351	-0.016269	0.265105	0.152826	-0.68335	0.11084	-0.621826
1235.0	7.702191	-1.408177	1.994274	0.009405	0.278537	0.173657	-0.689697	0.099854	-0.623779
1236.0	7.292127	-1.778847	1.910885	0.035929	0.046565	0.183934	-0.68335	0.106445	-0.617188
1237.0	6.951132	-1.699322	1.358601	0.153338	-0.014107	0.185748	-0.683105	0.104248	-0.624023
1238.0	6.573018	-1.356683	1.44864	0.187884	0.021198	0.192467	-0.683594	0.113037	-0.62207
1239.0	6.575129	-1.162857	1.681482	0.12889	-0.11482	0.208013	-0.6875	0.097656	-0.621338
1240.0	6.720158	-0.830673	1.687508	0.162724	-0.255106	0.225727	-0.690186	0.11084	-0.624268
1241.0	7.035626	-0.256385	1.441784	0.225842	-0.351225	0.260579	-0.685303	0.102051	-0.619141
1242.0	7.653011	0.38994	1.111386	0.219474	-0.327954	0.2953	-0.687988	0.11084	-0.621826
1243.0	7.917334	0.82581	1.139733	0.215024	-0.126329	0.301371	-0.685547	0.108643	-0.626465
1244.0	7.904409	0.965759	1.587995	0.105983	-0.102686	0.282765	-0.690186	0.108643	-0.624023
1245.0	8.381817	0.797253	1.154098	0.180518	-0.170985	0.280766	-0.692139	0.102051	-0.612305
1246.0	8.66226	0.598495	0.734727	0.262543	-0.006549	0.253836	-0.69458	0.108643	-0.624023
1247.0	8.647073	0.299759	0.831133	0.147953	0.164638	0.208205	-0.685547	0.106445	-0.626465
1248.0	8.272279	-0.477521	0.785812	0.107195	0.173357	0.139579	-0.694824	0.113037	-0.619629
1249.0	8.457149	-0.525787	0.684425	0.242838	0.0547	0.058905	-0.692139	0.104248	-0.626221
1250.0	8.805271	-0.399727	0.228343	0.236912	-0.008661	-0.029608	-0.692627	0.113037	-0.633545
1251.0	9.209853	-0.357581	-0.271665	0.223869	-0.050345	-0.096321	-0.691895	0.097656	-0.630615
1252.0	9.475481	-0.002877	-0.46271	0.283476	-0.020836	-0.157138	-0.698975	0.104248	-0.633301
1255.0	9.261692	0.872388	-0.52163	0.216588	0.02335	-0.230436	-0.696289	0.091064	-0.63501
1256.0	8.746284	0.923786	-0.693924	0.066662	0.084167	-0.289714	-0.700684	0.091064	-0.632813
1257.0	8.932419	0.771065	-0.501172	0.072514	0.121926	-0.312698	-0.700439	0.082275	-0.639404
1258.0	9.342184	0.678082	-0.277515	0.080005	0.01051	-0.313284	-0.695801	0.080078	-0.64624
1259.0	9.507448	0.270871	-0.443599	0.079735	-0.049426	-0.308607	-0.702148	0.071045	-0.636719
1260.0	10.105726	-0.430361	0.218211	0.024408	-0.105778	-0.262423	-0.702148	0.071045	-0.634277
1261.0	11.438655	-1.714635	1.417455	-0.317462	-0.170269	-0.160445	-0.70459	0.073242	-0.636719
1262.0	11.652816	-2.054891	1.253245	-0.040716	-0.081491	-0.134614	-0.706543	0.071045	-0.629639
1263.0	10.988179	-0.602363	1.022214	0.237257	-0.192496	-0.111113	-0.713379	0.071045	-0.636719
1264.0	11.619951	0.312426	-0.175215	-0.227987	-0.62086	-0.062712	-0.710938	0.068848	-0.629639
1265.0	12.162781	0.559733	-1.228122	-0.297247	-0.673509	-0.015153	-0.713379	0.071045	-0.636719
1266.0	12.526813	1.144277	-1.820982	0.03763	-0.623072	0.065875	-0.717773	0.071045	-0.618164
1267.0	12.868267	1.461839	-2.349123	-0.002475	-0.337555	0.15163	-0.717773	0.06665	-0.624756
1268.0	12.010127	0.19675	-3.359509	-0.066797	0.040859	0.181549	-0.719971	0.068848	-0.627197
1270.0	11.402431	-1.256497	-1.760108	0.02514	0.096221	0.239158	-0.722412	0.071045	-0.629639
1271.0	10.942191	-2.272478	0.002753	-0.064903	0.300056	0.242286	-0.722412	0.071045	-0.634277
1272.0	10.369113	-2.195992	1.913784	-0.119701	0.52331	0.23046	-0.724854	0.075439	-0.634521
1276.0	11.388605	0.84442	5.218565	-0.059901	-0.00642	0.49236	-0.725342	0.086426	-0.639648
1277.0	12.235921	5.511329	4.787443	-0.368397	0.025794	0.924686	-0.725342	0.086426	-0.637207
1278.0	9.78442	4.519811	2.961862	-0.335007	0.434703	0.976632	-0.728271	0.106445	-0.649658
1279.0	8.1424	3.118434	3.139513	-0.212283	0.443924	1.038974	-0.719482	0.108643	-0.651855
1280.0	9.191607	0.12888	4.109229	-0.535065	-0.093346	1.007732	-0.721924	0.117432	-0.652344
1281.0	9.717725	-2.408604	3.742612	-0.157758	0.100415	0.944663	-0.717529	0.117432	-0.652344
1282.0	9.805476	-3.309228	4.231872	-0.010605	0.193864	0.802087	-0.722412	0.126221	-0.650391
1284.0	11.077394	-4.383025	3.086653	0.012658	-0.205571	0.566828	-0.722656	0.130615	-0.650391
1287.0	12.69988	-2.00835	2.064065	0.477328	0.049214	0.160436	-0.719971	0.124023	-0.645508
1288.0	11.763457	0.771122	2.302602	0.570496	0.27156	-0.06997	-0.724365	0.121826	-0.654785
1289.0	10.853022	2.136441	2.776957	0.307035	0.167136	-0.138649	-0.724121	0.115234	-0.656982
1290.0	10.617403	1.822365	2.371315	0.064491	0.130432	-0.158875	-0.726563	0.117432	-0.661621
1291.0	10.022773	1.975092	1.958643	0.22598	0.291111	-0.17254	-0.726318	0.108643	-0.663574
1293.0	8.909097	3.543214	2.442114	0.185557	0.220377	-0.17818	-0.72168	0.106445	-0.656494
1296.0	7.718043	3.113346	2.156646	-0.160763	0.016791	-0.138969	-0.728271	0.104248	-0.658691
1297.0	8.186843	1.253227	1.417439	-0.445549	-0.254538	-0.144532	-0.72583	0.099854	-0.654053
1298.0	8.447614	0.505304	1.67886	-0.381127	-0.035285	-0.189537	-0.730469	0.102051	-0.66333
1299.0	8.14001	-0.115766	1.608013	-0.409721	0.017665	-0.230437	-0.72583	0.097656	-0.660889
1300.0	7.890653	-0.762202	1.273606	-0.353236	-0.001679	-0.27425	-0.730225	0.097656	-0.663086
1301.0	7.939191	-0.881675	1.18145	-0.224722	0.007053	-0.276177	-0.72998	0.093018	-0.660645
1302.0	7.943386	-0.774406	0.961827	-0.178696	0.030946	-0.247001	-0.732422	0.095215	-0.656006
1303.0	8.037411	-0.753505	0.650396	-0.219572	0.096578	-0.185382	-0.732422	0.093018	-0.658447
1304.0	8.36818	-0.708296	0.57748	-0.250749	0.195623	-0.105887	-0.732422	0.097656	-0.663086
1305.0	8.247779	-0.447237	0.633386	-0.178912	0.304629	-0.01995	-0.725342	0.088867	-0.665283
1306.0	7.858311	-0.125098	0.771816	-0.19476	0.340575	0.080127	-0.727783	0.091064	-0.672119
1307.0	7.411671	-0.128042	0.824508	-0.233325	0.310992	0.159212	-0.72583	0.097656	-0.672363
1308.0	7.510265	0.050576	0.662979	-0.165966	0.1432	0.236463	-0.72583	0.099854	-0.672607
1309.0	7.504985	0.289428	0.492058	-0.134943	0.103134	0.301573	-0.728027	0.099854	-0.670166
1310.0	7.68173	0.441466	0.307358	-0.159929	0.051255	0.352948	-0.726318	0.108643	-0.666016
1311.0	7.636581	0.667622	0.163824	-0.143638	0.041271	0.375097	-0.728271	0.104248	-0.677246
1312.0	7.48982	0.922318	0.163982	-0.171307	0.038259	0.39381	-0.72876	0.113037	-0.670654
1313.0	7.442905	0.995758	0.06054	-0.253339	0.025294	0.419476	-0.730713	0.106445	-0.668213
1314.0	7.609628	0.886359	-0.043591	-0.3605	-0.01338	0.418093	-0.726563	0.119629	-0.668701
1315.0	8.348884	0.750531	-0.303421	-0.394322	-0.199528	0.430354	-0.729004	0.119629	-0.668701
1318.0	10.644309	0.704466	0.141306	-0.400678	-0.211729	0.300136	-0.738281	0.130615	-0.666748
1319.0	12.650306	-0.416506	1.236275	-0.652614	0.438879	0.063978	-0.731445	0.128418	-0.664307
1322.0	11.658229	-3.20755	0.419096	0.22753	0.20366	-0.17879	-0.731445	0.124023	-0.664063
1323.0	11.419572	-1.477859	-1.006649	0.653388	-0.488606	-0.266006	-0.730957	0.113037	-0.666016
1324.0	12.128251	-0.59208	-2.39244	0.334472	-0.518467	-0.224213	-0.739746	0.11084	-0.666016
1325.0	12.103058	0.760499	-2.535232	0.225812	-0.156363	-0.161368	-0.739502	0.101807	-0.660889
1327.0	11.894529	2.521119	-0.843381	-0.177947	-0.249784	-0.124837	-0.741699	0.104004	-0.656494
1328.0	12.593055	3.019533	-0.252559	-0.343323	-0.416235	-0.171009	-0.744141	0.108398	-0.651855
1330.0	12.987396	1.860822	1.396888	-0.809422	0.353285	-0.223015	-0.742188	0.11084	-0.661377
1331.0	12.419275	-1.042147	4.581568	-0.685809	0.911609	-0.45203	-0.734863	0.102051	-0.667969
1332.0	13.093461	-3.557685	5.363885	-0.630828	0.032975	-0.756646	-0.739502	0.101807	-0.66333
1333.0	14.384269	-6.530063	5.075304	-0.0309	-0.71834	-1.087906	-0.745605	0.084229	-0.6604
1334.0	13.964207	-5.504016	3.353723	1.035876	-0.605729	-1.267249	-0.754395	0.079834	-0.655518
1335.0	11.116949	-1.736515	2.60788	1.291489	0.233548	-1.194819	-0.746338	0.046631	-0.661377
1338.0	6.272475	1.349128	4.232629	0.574735	0.119522	-0.799879	-0.75	0.026855	-0.658203
1339.0	7.00136	4.032445	4.254574	-0.297884	-0.582779	-0.487836	-0.747803	0.026855	-0.653564
1340.0	8.289695	3.302447	3.595761	-0.771489	-0.315047	-0.375673	-0.754639	0.03125	-0.651367
1341.0	9.475569	2.527576	3.489683	-0.76515	-0.004466	-0.336175	-0.747559	0.022461	-0.65332
1342.0	10.373634	2.071103	3.342416	-0.645219	0.018442	-0.324015	-0.75	0.026855	-0.648926
1343.0	10.697935	1.3169	2.746154	-0.505512	0.011892	-0.336512	-0.747559	0.020264	-0.657959
1344.0	11.996026	1.138947	2.619014	-0.33849	-0.202114	-0.290293	-0.747803	0.026855	-0.651367
1345.0	12.775083	0.50478	2.300885	-0.378142	-0.272408	-0.265339	-0.75415	0.018066	-0.64624
1346.0	12.361979	-0.292033	1.192109	-0.132626	-0.267133	-0.23291	-0.756348	0.020264	-0.641602
1348.0	11.574672	-0.610408	1.329989	-0.007608	0.048896	-0.165641	-0.751953	0.018066	-0.648682
1350.0	9.96232	-0.699927	2.048383	0.065044	0.24555	-0.063006	-0.756104	0.013672	-0.653076
1352.0	8.437249	-1.359719	2.037874	0.032204	0.084455	0.01289	-0.749512	0.015869	-0.655518
1357.0	7.908772	-1.326198	1.657302	0.179168	-0.111152	0.125798	-0.751221	0.002686	-0.643311
1358.0	8.203432	-0.14592	1.517188	0.321121	-0.143107	0.222447	-0.753662	0.004883	-0.648193
1359.0	7.998233	0.294382	1.393714	0.289368	0.020312	0.230947	-0.751221	0.004883	-0.650391
1360.0	7.891235	0.276002	1.489426	0.261593	-0.014175	0.240691	-0.756104	0.011475	-0.648438
1361.0	8.252925	0.232285	1.358356	0.287185	-0.126935	0.228542	-0.755859	0.00708	-0.641113
1362.0	8.425194	0.169084	1.134363	0.353551	-0.116034	0.203774	-0.760498	0.006836	-0.643555
1363.0	8.398527	0.190843	1.010868	0.401893	-0.02999	0.167939	-0.755615	0.002441	-0.641113
1364.0	8.240073	0.01561	0.956305	0.364346	0.058223	0.122954	-0.756104	0.009277	-0.643555
1365.0	8.067749	-0.231983	0.90471	0.391949	0.078641	0.076646	-0.755615	0.000244	-0.643311
1366.0	8.069389	-0.186968	0.964415	0.443663	0.079637	0.016261	-0.764648	0.000244	-0.640869
1367.0	8.322014	-0.182191	0.845081	0.46065	0.051653	-0.044049	-0.755371	-0.008545	-0.643066
1368.0	8.754943	-0.323341	0.481447	0.513626	0.056995	-0.110388	-0.75293	-0.010742	-0.645264
1369.0	9.003319	-0.19562	0.17289	0.552059	0.114548	-0.183614	-0.752686	-0.019531	-0.642578
1370.0	9.195112	-0.080045	-0.047775	0.563695	0.13192	-0.22882	-0.750244	-0.023926	-0.646973
1371.0	9.070372	0.230213	-0.174785	0.585115	0.118468	-0.277041	-0.760986	-0.034912	-0.644287
1372.0	9.106502	0.609484	-0.189351	0.623123	0.05573	-0.307437	-0.756836	-0.02832	-0.642334
1373.0	9.090233	0.905158	-0.155333	0.562804	0.019308	-0.320639	-0.753906	-0.041504	-0.644043
1375.0	9.344548	1.197943	-0.288384	0.427142	0.063709	-0.346458	-0.751221	-0.05249	-0.648193
1376.0	9.937891	1.444151	-0.266909	0.348787	0.001841	-0.311166	-0.750977	-0.056885	-0.643555
1377.0	10.292456	1.109724	-0.192464	0.230094	0.019023	-0.262016	-0.748535	-0.061279	-0.643311
1378.0	10.583279	0.285163	1.205275	-0.11085	0.312752	-0.151086	-0.749023	-0.054688	-0.648193
1380.0	9.797951	0.880361	2.513703	-0.070464	0.224167	-0.083829	-0.750732	-0.063477	-0.652588
1381.0	10.096113	1.334499	0.767747	-0.343652	-0.579072	-0.049753	-0.750732	-0.065674	-0.643066
1382.0	11.138133	0.849539	-0.803682	-0.338989	-0.433077	-0.043479	-0.748535	-0.061279	-0.647949
1383.0	11.155585	0.93639	-1.431589	0.012804	-0.093346	-0.012324	-0.750732	-0.068115	-0.640869
1384.0	11.518227	1.247837	-0.432664	0.001875	0.025282	0.065745	-0.753174	-0.061279	-0.636475
1385.0	11.659995	-0.147089	-1.051867	-0.122474	-0.034802	0.11899	-0.746094	-0.070068	-0.638428
1386.0	11.570458	-1.395618	-2.566576	0.184327	-0.3307	0.143435	-0.757568	-0.065918	-0.638428
1387.0	11.917239	-1.549068	-2.706498	0.239642	-0.426146	0.153809	-0.75708	-0.076904	-0.635742
1388.0	11.991902	-2.200628	-2.263454	0.044501	-0.132642	0.183871	-0.759766	-0.065918	-0.631592
1389.0	11.613305	-2.668607	-1.012517	0.048332	0.240989	0.191912	-0.75708	-0.074707	-0.631104
1390.0	10.708079	-2.155691	0.815835	0.105298	0.540016	0.173151	-0.753174	-0.063477	-0.640869
1391.0	10.455751	-1.419433	3.041692	-0.053419	0.487647	0.206754	-0.750488	-0.07251	-0.640625
1392.0	11.658057	-0.469178	5.616589	-0.163028	0.242585	0.333364	-0.755371	-0.063477	-0.647949
1393.0	12.72249	1.673073	5.919053	0.204162	-0.138185	0.500215	-0.752686	-0.074707	-0.635986
1394.0	13.930703	5.499075	6.013018	0.35614	-0.481369	0.710262	-0.755371	-0.059326	-0.636475
1396.0	13.585303	4.634655	3.384653	-0.56967	0.181867	0.970805	-0.758545	-0.041504	-0.641846
1399.0	8.151943	1.031055	3.86034	-0.270691	0.562867	0.834363	-0.743408	-0.023926	-0.649414
1400.0	8.083473	-2.991292	3.905319	0.000903	-0.074905	0.596867	-0.750488	-0.017334	-0.649658
1401.0	8.418699	-2.843421	3.876381	0.37731	-0.056422	0.469633	-0.750244	-0.019531	-0.651855
