Acquisition frequency: 100 Hz
PacketCounter	Acc_X	Acc_Y	Acc_Z	Gyr_X	Gyr_Y	Gyr_Z	Mag_X	Mag_Y	Mag_Z
0.0	3.922874	-1.405079	8.929088	-0.005212	0.014592	-0.002584	-0.513184	0.006836	-0.411133
1.0	3.967912	-1.440621	8.915462	-0.001803	0.010765	-0.004705	-0.509033	0.006836	-0.410889
2.0	3.94736	-1.402378	8.882318	-0.005607	0.012479	-0.006752	-0.511475	0.013184	-0.406738
3.0	3.909462	-1.439972	8.897179	-0.004747	0.007037	-0.002467	-0.510986	0.004639	-0.415283
4.0	3.942456	-1.444368	8.890882	-0.007276	0.009559	-0.007717	-0.515625	0.010986	-0.408936
5.0	3.973566	-1.424447	8.860081	-0.00292	0.008129	-0.003406	-0.51123	0.008789	-0.408936
6.0	3.939126	-1.420846	8.866887	-0.009347	0.010177	-0.001011	-0.51123	0.008789	-0.406738
7.0	3.956125	-1.435418	8.876158	-0.003472	0.007846	-0.005671	-0.509033	0.010986	-0.411133
8.0	3.978505	-1.432493	8.901979	-0.00292	0.00813	-0.003407	-0.513428	0.009033	-0.413086
9.0	3.954538	-1.435684	8.876822	-0.005128	0.014716	-0.006453	-0.513184	0.006836	-0.411133
10.0	3.930507	-1.438796	8.851704	-0.00054	0.009507	-0.002081	-0.513672	0.013184	-0.41333
11.0	3.936502	-1.445936	8.893265	-0.002834	0.015973	-0.001262	-0.506836	0.006836	-0.413086
12.0	3.951124	-1.435764	8.87833	0.001141	0.0145	-0.006945	-0.513428	0.008789	-0.411133
13.0	3.949876	-1.435473	8.878932	-0.000209	0.015642	-0.005706	-0.509033	0.006836	-0.413086
14.0	3.948539	-1.43533	8.87955	-0.00211	0.0165	-0.006732	-0.51123	0.009033	-0.413086
15.0	3.931278	-1.445276	8.895683	-0.000209	0.015643	-0.005708	-0.511475	0.013184	-0.411133
16.0	3.930011	-1.44517	8.89626	-0.002037	0.014551	-0.004771	-0.506836	0.01123	-0.413086
17.0	3.960625	-1.424862	8.865807	-0.00076	0.015361	-0.007974	-0.51123	0.010986	-0.408936
18.0	3.966639	-1.431655	8.907408	0.000737	0.01032	-0.005287	-0.513184	0.004639	-0.408936
19.0	3.94259	-1.434616	8.882308	-0.003938	0.01541	-0.005799	-0.510986	0.004639	-0.410889
20.0	3.946739	-1.417239	8.899378	0.000202	0.012109	-0.013383	-0.51123	0.009033	-0.411133
21.0	3.974229	-1.43817	8.876825	-0.002515	0.01232	-0.005076	-0.509033	0.008789	-0.408936
22.0	3.911056	-1.412693	8.906809	0.002492	0.013367	-0.008189	-0.508789	0.004639	-0.410889
23.0	3.943593	-1.416197	8.900938	0.00178	0.014913	-0.008553	-0.509033	0.009033	-0.411133
24.0	3.958406	-1.405393	8.886051	0.005671	0.013321	-0.010366	-0.509033	0.010986	-0.406738
25.0	3.951973	-1.421944	8.870135	-0.000833	0.017318	-0.009945	-0.508789	0.004639	-0.410889
26.0	3.950747	-1.421572	8.870741	0.001852	0.012964	-0.006591	-0.51123	0.009033	-0.413086
27.0	3.954808	-1.404127	8.887853	-0.0014	0.014963	-0.006382	-0.51123	0.006836	-0.411133
28.0	3.971417	-1.417822	8.897482	0.002583	0.013493	-0.012061	-0.51123	0.008789	-0.408936
29.0	3.918875	-1.399164	8.895429	0.00114	0.014513	-0.006957	-0.511475	0.013184	-0.415283
30.0	3.946178	-1.420067	8.873016	-0.001949	0.014681	-0.00865	-0.513184	0.006836	-0.413086
31.0	3.917068	-1.44006	8.831306	0.000187	0.010043	-0.00756	-0.510986	0.004639	-0.415283
32.0	3.967346	-1.416445	8.899517	0.000187	0.010044	-0.00756	-0.517822	0.008789	-0.411133
33.0	3.943496	-1.419245	8.874339	-0.001237	0.013137	-0.008289	-0.51123	0.010986	-0.411133
34.0	3.949531	-1.426042	8.915906	0.000735	0.010328	-0.005295	-0.515381	0.006836	-0.415283
35.0	3.946858	-1.401208	8.891847	0.006385	0.011785	-0.010007	-0.509033	0.010986	-0.413086
36.0	3.935647	-1.435161	8.859165	-0.003634	0.009684	-0.003787	-0.513184	0.004639	-0.410889
37.0	3.945087	-1.400608	8.892727	0.001944	0.013094	-0.010465	-0.509033	0.01123	-0.415283
38.0	3.938883	-1.417381	8.876686	-0.001238	0.013139	-0.008292	-0.515869	0.015381	-0.41333
39.0	3.927043	-1.410003	8.909235	0.001851	0.012973	-0.006598	-0.509033	0.006836	-0.410889
40.0	3.941903	-1.399525	8.89431	-5e-05	0.01383	-0.007629	-0.511475	0.013184	-0.41333
41.0	3.940716	-1.399209	8.894885	0.001685	0.014804	-0.004698	-0.513428	0.009033	-0.41748
42.0	3.918385	-1.426255	8.894358	-0.00195	0.014688	-0.008661	-0.513428	0.009033	-0.413086
43.0	3.938416	-1.398762	8.895974	2.2e-05	0.011879	-0.005664	-0.506836	0.009033	-0.411133
44.0	3.921129	-1.408558	8.912068	0.000828	0.020259	-0.008998	-0.515625	0.008789	-0.411133
45.0	3.919793	-1.408173	8.912716	0.000663	0.012287	-0.007267	-0.51123	0.006836	-0.411133
46.0	3.952411	-1.411836	8.906892	0.000497	0.014118	-0.005366	-0.513184	0.004639	-0.408936
47.0	3.928246	-1.4147	8.881825	-0.001475	0.016928	-0.008366	-0.51123	0.008789	-0.406738
48.0	3.932056	-1.397196	8.899034	0.002325	0.015216	-0.006304	-0.513428	0.010986	-0.408936
49.0	3.93065	-1.39673	8.899728	0.001541	0.018718	-0.008638	-0.508789	0.002441	-0.406738
50.0	3.94013	-1.403458	8.868369	-0.001949	0.014694	-0.008669	-0.515381	0.004639	-0.408936
51.0	3.940641	-1.427318	8.893535	0.003512	0.015909	-0.00564	-0.509033	0.008789	-0.406738
52.0	3.926637	-1.395772	8.901649	-0.001572	0.016809	-0.004503	-0.513184	0.004639	-0.413086
53.0	3.936016	-1.402624	8.870328	0.000899	0.018315	-0.00704	-0.504639	0.004639	-0.41748
54.0	3.92352	-1.395204	8.903113	0.001373	0.020553	-0.006742	-0.509277	0.013184	-0.411133
55.0	3.921928	-1.394932	8.903857	-0.00093	0.017219	-0.006108	-0.51123	0.010986	-0.411133
56.0	3.913654	-1.387727	8.863379	-0.001474	0.016936	-0.008376	-0.515625	0.013184	-0.415283
57.0	3.937004	-1.408807	8.914192	-0.004419	0.013194	-0.00614	-0.513428	0.009033	-0.413086
58.0	3.895408	-1.39791	8.879787	-0.003063	0.012054	-0.007375	-0.513184	0.006836	-0.413086
59.0	3.922273	-1.377664	8.92254	-0.001433	0.012904	-0.000571	-0.506836	0.006836	-0.413086
60.0	3.921342	-1.378009	8.922896	-0.00855	0.00876	-0.004572	-0.51123	0.010986	-0.406738
61.0	3.931588	-1.385501	8.891119	-0.004752	0.007047	-0.002504	-0.506836	0.006836	-0.413086
62.0	3.930833	-1.385938	8.891385	-0.008077	0.010999	-0.004274	-0.51123	0.009033	-0.415283
63.0	3.947679	-1.400497	8.900841	-0.006178	0.010143	-0.00324	-0.515381	0.006592	-0.408936
64.0	3.918868	-1.421284	8.858849	-0.007534	0.011283	-0.002006	-0.513428	0.010986	-0.413086
65.0	3.961986	-1.391433	8.886016	-0.006038	0.006232	0.000697	-0.513428	0.009033	-0.415283
66.0	3.906372	-1.415355	8.891364	-0.008147	0.012957	-0.006245	-0.51123	0.010986	-0.408936
67.0	3.92818	-1.41271	8.917466	-0.007434	0.01141	-0.005878	-0.509033	0.006836	-0.410889
68.0	3.920441	-1.406088	8.876674	-0.007434	0.011411	-0.005878	-0.504883	0.01123	-0.415283
69.0	3.903663	-1.416848	8.892316	-0.010379	0.007665	-0.003644	-0.51123	0.006836	-0.413086
70.0	3.93515	-1.397143	8.861661	-0.007666	0.005386	-0.006111	-0.509033	0.006836	-0.413086
71.0	3.941458	-1.404734	8.90293	-0.010278	0.007792	-0.007515	-0.510986	0.004639	-0.408936
72.0	3.918036	-1.408306	8.877385	-0.006008	0.008317	-0.005144	-0.51123	0.006836	-0.415283
73.0	3.929231	-1.398704	8.935335	-0.009736	0.008075	-0.005247	-0.509033	0.009033	-0.41748
74.0	3.910939	-1.385191	8.926349	-0.008921	0.006655	-0.00875	-0.513428	0.01123	-0.415283
75.0	3.934161	-1.424215	8.886946	-0.013325	0.003919	-0.001414	-0.509033	0.009033	-0.411133
76.0	3.955018	-1.397595	8.888152	-0.006781	0.002011	-0.007647	-0.513184	0.006836	-0.411133
77.0	3.920908	-1.394362	8.894449	-0.012923	0.008116	-0.003083	-0.51123	0.006836	-0.413086
78.0	3.933103	-1.426488	8.88705	-0.010139	0.003881	-0.003581	-0.508789	0.004639	-0.410889
79.0	3.953831	-1.399975	8.888306	-0.012038	0.004739	-0.004618	-0.506836	0.008789	-0.408936
80.0	3.919709	-1.396992	8.894565	-0.011496	0.00502	-0.002349	-0.510986	0.004639	-0.413086
81.0	3.931999	-1.428966	8.887141	-0.008309	0.004982	-0.004514	-0.508789	0.004639	-0.410889
82.0	3.93159	-1.429591	8.887221	-0.010208	0.005841	-0.005551	-0.509033	0.009033	-0.411133
83.0	3.902413	-1.409144	8.910191	-0.008379	0.006941	-0.006484	-0.513428	0.009033	-0.413086
84.0	3.935529	-1.413564	8.904155	-0.008551	0.008771	-0.004582	-0.515381	0.006836	-0.413086
85.0	3.929865	-1.431147	8.887733	-0.005295	0.006774	-0.004778	-0.509033	0.01123	-0.421875
86.0	3.916603	-1.400272	8.895417	-0.007194	0.007633	-0.005816	-0.515625	0.010986	-0.408936
87.0	3.933687	-1.414901	8.904756	-0.009196	0.008362	-0.002983	-0.509277	0.015381	-0.41748
88.0	3.915339	-1.401425	8.895792	-0.008379	0.006944	-0.006486	-0.515625	0.008789	-0.411133
89.0	3.932409	-1.415934	8.905157	-0.006722	0.009873	-0.005515	-0.510986	0.002441	-0.413086
90.0	3.942661	-1.423337	8.873417	-0.009092	0.008494	-0.006855	-0.50708	0.015381	-0.411133
91.0	3.908341	-1.420103	8.879779	-0.009667	0.006124	-0.003287	-0.509033	0.010986	-0.408936
92.0	3.946668	-1.407514	8.890299	-0.010748	0.005566	-0.007828	-0.513184	0.006836	-0.413086
93.0	3.914156	-1.428462	8.921123	-0.007194	0.007636	-0.005818	-0.517822	0.010986	-0.41333
94.0	3.940743	-1.425703	8.873889	-0.00824	0.003026	-0.002552	-0.51123	0.006836	-0.411133
95.0	3.929456	-1.419536	8.905887	-0.012037	0.004745	-0.004628	-0.513428	0.009033	-0.415283
96.0	3.906396	-1.423245	8.880132	-0.006951	0.003849	-0.005753	-0.51123	0.006836	-0.413086
97.0	3.933642	-1.403593	8.922713	-0.010451	0.009636	-0.005625	-0.508789	0.004639	-0.408936
98.0	3.945872	-1.43533	8.915334	-0.007491	0.003571	-0.008025	-0.510986	0.004639	-0.410889
99.0	3.943759	-1.411583	8.890944	-0.010922	0.007397	-0.005929	-0.51123	0.009033	-0.411133
100.0	3.922335	-1.439625	8.88969	-0.00824	0.003027	-0.002554	-0.517822	0.010986	-0.408936
101.0	3.914266	-1.391938	8.913917	-0.012002	0.006842	-0.010472	-0.513428	0.01123	-0.415283
102.0	3.942674	-1.413717	8.891086	-0.011968	0.002786	-0.002664	-0.51123	0.009033	-0.413086
103.0	3.929638	-1.383219	8.898635	-0.007665	0.005402	-0.006124	-0.515625	0.009033	-0.413086
104.0	3.938654	-1.456537	8.898992	-0.012752	0.006298	-0.005002	-0.51123	0.009033	-0.411133
105.0	3.925307	-1.426041	8.906677	-0.007909	0.009192	-0.006189	-0.51123	0.009033	-0.411133
106.0	3.940806	-1.416455	8.891478	-0.012577	0.004472	-0.006907	-0.517822	0.009033	-0.415283
107.0	3.940526	-1.417074	8.891504	-0.00695	0.003854	-0.005758	-0.51123	0.01123	-0.415283
108.0	3.940326	-1.417789	8.891479	-0.013153	0.002097	-0.00334	-0.513428	0.010986	-0.413086
109.0	3.924211	-1.428809	8.906716	-0.009858	0.002199	-0.009373	-0.510986	0.002441	-0.41748
110.0	3.917285	-1.422308	8.865572	-0.012038	0.00475	-0.004637	-0.509033	0.010986	-0.413086
111.0	3.934789	-1.437093	8.874694	-0.009319	0.002477	-0.007102	-0.509033	0.009033	-0.415283
112.0	3.944449	-1.403441	8.908101	-0.009025	0.006543	-0.004894	-0.51123	0.009033	-0.413086
113.0	3.949871	-1.427946	8.859619	-0.00791	0.009196	-0.006191	-0.509033	0.008789	-0.406738
114.0	3.939982	-1.445993	8.916216	-0.010209	0.005854	-0.005568	-0.51123	0.006836	-0.415283
115.0	3.931018	-1.414832	8.850828	-0.003467	0.007889	-0.005712	-0.506836	0.006836	-0.413086
116.0	3.954907	-1.436525	8.901266	-0.00967	0.006131	-0.003296	-0.513428	0.008789	-0.411133
117.0	3.913886	-1.42595	8.866489	-0.005905	0.008475	-0.009025	-0.506836	0.006836	-0.41748
118.0	3.947064	-1.430017	8.860535	-0.007734	0.007372	-0.008098	-0.513672	0.013184	-0.41333
119.0	3.935452	-1.423566	8.892714	-0.007196	0.007648	-0.005826	-0.51123	0.008789	-0.408936
120.0	3.939823	-1.406869	8.909607	-0.007196	0.007649	-0.005826	-0.51123	0.008789	-0.406738
121.0	3.923146	-1.417641	8.925113	-0.008556	0.008785	-0.004594	-0.513428	0.010986	-0.411133
122.0	3.933587	-1.425024	8.893306	-0.006588	0.00596	-0.001586	-0.504639	0.006836	-0.413086
123.0	3.949076	-1.415131	8.87819	-0.007088	0.007789	-0.0097	-0.513184	0.006836	-0.413086
124.0	3.932553	-1.425776	8.893643	-0.007126	0.005685	-0.00386	-0.51123	0.010986	-0.408936
125.0	3.965691	-1.429989	8.8877	-0.006727	0.009891	-0.005523	-0.513428	0.009033	-0.413086
126.0	3.936148	-1.409462	8.910821	-0.006012	0.00834	-0.005155	-0.517822	0.009033	-0.415283
127.0	3.951403	-1.399597	8.895813	-0.008626	0.010753	-0.006565	-0.509033	0.009033	-0.411133
128.0	3.934588	-1.410429	8.911357	-0.008556	0.008788	-0.004598	-0.51123	0.010986	-0.411133
129.0	3.928972	-1.428269	8.894826	-0.011032	0.00727	-0.002072	-0.506836	0.009033	-0.411133
130.0	3.939379	-1.435711	8.863034	-0.005474	0.008617	-0.002883	-0.513428	0.009033	-0.413086
131.0	3.921538	-1.40544	8.943924	-0.008379	0.006964	-0.006504	-0.509033	0.009033	-0.413086
132.0	3.939924	-1.46111	8.887794	-0.010923	0.007412	-0.005947	-0.511475	0.013184	-0.41333
133.0	3.942591	-1.420511	8.880213	-0.012215	0.006582	-0.002748	-0.509033	0.01123	-0.415283
134.0	3.946942	-1.404296	8.897053	-0.010386	0.007687	-0.003675	-0.513428	0.009033	-0.415283
135.0	3.93966	-1.397797	8.856089	-0.010386	0.007687	-0.003675	-0.509033	0.009033	-0.413086
136.0	3.924769	-1.433468	8.895844	-0.013508	0.005753	0.000449	-0.509033	0.010986	-0.408936
137.0	3.940513	-1.424388	8.880514	-0.014981	0.000999	-0.002438	-0.509033	0.010986	-0.413086
138.0	3.957864	-1.439709	8.889619	-0.015475	0.008583	-0.002563	-0.511475	0.013184	-0.408936
139.0	3.936374	-1.468305	8.888181	-0.01333	0.00393	-0.001459	-0.509033	0.009033	-0.413086
140.0	3.939292	-1.427844	8.880501	-0.010785	0.003483	-0.002016	-0.515625	0.013184	-0.41333
141.0	3.951723	-1.46	8.872901	-0.015834	0.006489	-0.006744	-0.515625	0.010986	-0.41333
142.0	3.922391	-1.440109	8.895821	-0.009671	0.00614	-0.003309	-0.513428	0.010986	-0.411133
143.0	3.94457	-1.438	8.921762	-0.013399	0.005899	-0.003429	-0.508789	0.004639	-0.410889
144.0	3.932495	-1.448707	8.863977	-0.011569	0.007005	-0.004353	-0.509033	0.008789	-0.408936
145.0	3.941884	-1.415436	8.89753	-0.012037	0.004765	-0.004661	-0.513428	0.010986	-0.411133
146.0	3.925392	-1.426596	8.912839	-0.009134	0.006414	-0.001037	-0.51123	0.006836	-0.41748
147.0	3.935917	-1.434211	8.880971	-0.013468	0.00787	-0.005399	-0.50708	0.013184	-0.415283
148.0	3.924286	-1.428541	8.913015	-0.014582	0.005214	-0.004108	-0.513428	0.008789	-0.408936
149.0	3.952736	-1.450373	8.890167	-0.011501	0.005039	-0.002389	-0.506836	0.008789	-0.408936
150.0	3.939557	-1.420082	8.89782	-0.010138	0.003904	-0.00362	-0.513428	0.008789	-0.408936
151.0	3.963079	-1.458739	8.858257	-0.011569	0.007009	-0.004357	-0.509033	0.008789	-0.408936
152.0	3.951462	-1.452855	8.890328	-0.010854	0.005457	-0.003989	-0.513428	0.010986	-0.406738
153.0	3.949199	-1.42929	8.86609	-0.012285	0.008562	-0.004726	-0.509033	0.010986	-0.411133
154.0	3.937431	-1.4233	8.898247	-0.007842	0.007251	-0.004237	-0.509033	0.006836	-0.410889
155.0	3.975598	-1.410477	8.909067	-0.007126	0.005699	-0.003869	-0.513428	0.008789	-0.408936
156.0	3.949202	-1.45546	8.890906	-0.007306	0.007522	-0.001962	-0.513428	0.010986	-0.411133
157.0	3.930789	-1.442064	8.88197	-0.011638	0.008982	-0.006327	-0.509033	0.010986	-0.408936
158.0	3.930156	-1.442885	8.882117	-0.011569	0.007012	-0.004361	-0.509033	0.010986	-0.408936
159.0	3.952257	-1.440645	8.908135	-0.009024	0.006565	-0.004915	-0.513428	0.006836	-0.415283
160.0	3.946919	-1.458379	8.891442	-0.011389	0.005191	-0.00627	-0.517822	0.009033	-0.413086
161.0	3.94485	-1.434704	8.867152	-0.011389	0.005191	-0.00627	-0.511475	0.015381	-0.406738
162.0	3.951035	-1.442827	8.908324	-0.010207	0.005879	-0.005594	-0.510986	0.004639	-0.408936
163.0	3.961787	-1.450286	8.876387	-0.012036	0.004774	-0.004673	-0.509033	0.006836	-0.413086
164.0	3.927765	-1.447298	8.882457	-0.00931	0.002505	-0.007134	-0.515625	0.008789	-0.408936
165.0	3.988789	-1.431569	8.919103	-0.007774	0.005284	-0.002274	-0.51123	0.009033	-0.413086
166.0	3.927108	-1.448431	8.882563	-0.008844	0.004747	-0.006826	-0.515625	0.010986	-0.411133
167.0	3.955725	-1.469676	8.859736	-0.007593	0.003463	-0.004182	-0.513184	0.004639	-0.408936
168.0	3.965069	-1.436063	8.893434	-0.007195	0.007675	-0.005839	-0.509277	0.013184	-0.408936
169.0	3.961363	-1.477998	8.901113	-0.007127	0.005704	-0.003873	-0.506836	0.006836	-0.406738
170.0	3.941235	-1.439574	8.86797	-0.000524	0.011683	-0.007924	-0.517822	0.013184	-0.408936
171.0	3.924224	-1.450045	8.883574	-0.008696	0.012755	-0.008544	-0.51123	0.010986	-0.408936
172.0	3.939333	-1.439722	8.868791	-0.001059	0.011416	-0.010201	-0.513428	0.010986	-0.413086
173.0	3.956166	-1.453689	8.878337	-0.003718	0.011712	-0.005775	-0.50708	0.013184	-0.411133
174.0	3.937495	-1.4397	8.869611	-0.004252	0.011445	-0.008052	-0.518066	0.015381	-0.411133
175.0	3.922306	-1.474591	8.909462	-0.003536	0.009892	-0.007684	-0.51123	0.008789	-0.408936
176.0	3.924696	-1.43305	8.902307	-0.002888	0.010312	-0.009283	-0.513672	0.015381	-0.406738
177.0	3.947975	-1.470757	8.863013	-0.003002	0.010161	-0.005408	-0.508789	0.004639	-0.410889
178.0	3.956918	-1.43666	8.896967	-0.001638	0.009027	-0.006638	-0.509277	0.013184	-0.415283
179.0	3.938432	-1.422586	8.888166	-0.005967	0.010492	-0.01101	-0.517822	0.010986	-0.408936
180.0	3.950522	-1.453695	8.880849	-0.002354	0.010582	-0.007008	-0.515625	0.010986	-0.411133
181.0	3.949668	-1.453812	8.88121	-0.005549	0.010608	-0.004859	-0.509033	0.006836	-0.413086
182.0	3.937669	-1.447382	8.913502	-0.004717	0.009207	-0.008366	-0.513428	0.010986	-0.406738
183.0	3.964219	-1.44381	8.866648	-0.007263	0.009654	-0.007816	-0.509033	0.009033	-0.411133
184.0	3.973235	-1.409937	8.900535	-0.004	0.007655	-0.007998	-0.51123	0.006836	-0.411133
185.0	3.933661	-1.42334	8.890158	-0.003324	0.015934	-0.007438	-0.513428	0.006836	-0.415283
186.0	3.96183	-1.443985	8.867688	-0.002567	0.004548	-0.007261	-0.513184	0.004639	-0.413086
187.0	3.9612	-1.444047	8.867959	-0.006151	0.012318	-0.009108	-0.509033	0.009033	-0.415283
188.0	3.926473	-1.440592	8.874351	-0.004901	0.011032	-0.006461	-0.511475	0.013184	-0.404541
189.0	3.943507	-1.454878	8.883772	-0.005297	0.006815	-0.004804	-0.51123	0.006836	-0.413086
190.0	3.963632	-1.427561	8.885756	-0.003072	0.012141	-0.007381	-0.513428	0.009033	-0.413086
191.0	3.919231	-1.458026	8.858538	-0.003721	0.011721	-0.005783	-0.51123	0.008789	-0.406738
192.0	3.945745	-1.438142	8.901689	-0.004185	0.009479	-0.006094	-0.509033	0.010986	-0.411133
193.0	3.960951	-1.427834	8.886907	-0.003721	0.011722	-0.005784	-0.509033	0.010986	-0.408936
194.0	3.939294	-1.455481	8.885542	-0.006546	0.008104	-0.007455	-0.513428	0.010986	-0.411133
195.0	3.925727	-1.424836	8.893425	-0.007313	0.007528	-0.00198	-0.509033	0.009033	-0.413086
196.0	3.971849	-1.459858	8.87999	-0.003467	0.007927	-0.005726	-0.513672	0.013184	-0.41333
197.0	3.935642	-1.431927	8.861978	-0.006082	0.010348	-0.007146	-0.510986	0.004639	-0.408936
198.0	3.97347	-1.418815	8.873128	-0.007263	0.009661	-0.007826	-0.509033	0.010986	-0.411133
199.0	3.939016	-1.415509	8.879342	-0.005297	0.006818	-0.004809	-0.51123	0.008789	-0.408936
200.0	3.935224	-1.457287	8.88705	-0.006082	0.01035	-0.007147	-0.50708	0.013184	-0.413086
201.0	3.950428	-1.446946	8.87229	-0.003603	0.011882	-0.009664	-0.506836	0.01123	-0.415283
202.0	3.936648	-1.416034	8.880309	-0.005484	0.00864	-0.002901	-0.513184	0.006836	-0.408936
203.0	3.944068	-1.46415	8.856126	0.000192	0.01015	-0.007563	-0.50708	0.015381	-0.41333
204.0	3.965733	-1.46123	8.882497	-0.007449	0.011484	-0.005922	-0.515625	0.010986	-0.41333
205.0	3.938836	-1.399245	8.898258	-0.002422	0.012573	-0.008985	-0.509033	0.009033	-0.413086
206.0	3.930057	-1.457794	8.889253	-0.003655	0.009751	-0.003821	-0.509033	0.008789	-0.406738
207.0	3.966093	-1.420014	8.876236	-0.003722	0.011729	-0.00579	-0.513428	0.008789	-0.406738
208.0	3.910403	-1.44402	8.880887	-0.00444	0.013284	-0.006161	-0.515625	0.010986	-0.406738
209.0	3.959326	-1.437036	8.860286	0.001373	0.010842	-0.006884	-0.513184	0.006836	-0.408936
210.0	3.931146	-1.44112	8.907664	-0.011639	0.008999	-0.006372	-0.515625	0.008789	-0.408936
211.0	3.941729	-1.448037	8.875981	-0.001108	0.009309	-0.004369	-0.513428	0.010986	-0.408936
212.0	3.957108	-1.437828	8.861149	-0.007315	0.007531	-0.00199	-0.515381	0.006836	-0.411133
213.0	3.929009	-1.442183	8.908435	-0.007261	0.009668	-0.007837	-0.513184	0.006836	-0.408936
214.0	3.939723	-1.449025	8.87671	-0.005826	0.006558	-0.007095	-0.52002	0.008789	-0.411133
215.0	3.955201	-1.438908	8.861825	-0.007912	0.009245	-0.00624	-0.504883	0.013184	-0.411133
216.0	3.938455	-1.449804	8.877146	-0.007194	0.007691	-0.005869	-0.51123	0.006836	-0.408936
217.0	3.960092	-1.447048	8.903516	-0.00379	0.013713	-0.007763	-0.51123	0.009033	-0.413086
218.0	3.946266	-1.416155	8.911539	-0.005297	0.006824	-0.004817	-0.510986	0.004639	-0.410889
219.0	3.940881	-1.433476	8.894918	-0.007261	0.009671	-0.00784	-0.51123	0.010986	-0.408936
220.0	3.953071	-1.464781	8.887555	-0.004903	0.011048	-0.006477	-0.509277	0.013184	-0.411133
221.0	3.95526	-1.423441	8.88052	-0.004903	0.011048	-0.006477	-0.51123	0.006836	-0.413086
222.0	3.922261	-1.44455	8.911025	-0.004185	0.009493	-0.006106	-0.51123	0.009033	-0.411133
223.0	3.950621	-1.46541	8.888541	-0.007912	0.009249	-0.006245	-0.509033	0.006836	-0.413086
224.0	3.930624	-1.42727	8.855302	-0.006476	0.006138	-0.005502	-0.513428	0.008789	-0.408936
225.0	3.972033	-1.463261	8.914921	-0.007127	0.005714	-0.003905	-0.51123	0.009033	-0.413086
226.0	3.947309	-1.442024	8.864836	-0.004185	0.009495	-0.006107	-0.51123	0.010986	-0.413086
227.0	3.95765	-1.432763	8.923125	-0.007261	0.009675	-0.007845	-0.513428	0.010986	-0.406738
228.0	3.945877	-1.442464	8.865402	-0.003467	0.00794	-0.005737	-0.515625	0.013184	-0.408936
229.0	3.956289	-1.432997	8.923691	-0.004062	0.009657	-0.009987	-0.509277	0.013184	-0.411133
230.0	3.957555	-1.473668	8.858289	-0.006015	0.008384	-0.005194	-0.513428	0.01123	-0.415283
231.0	3.950133	-1.450343	8.907403	-0.003007	0.010185	-0.005426	-0.513428	0.010986	-0.406738
232.0	3.944611	-1.467563	8.890854	-0.006734	0.00994	-0.005567	-0.515625	0.013184	-0.411133
233.0	3.912869	-1.422711	8.889746	-0.003792	0.013723	-0.007769	-0.509033	0.01123	-0.415283
234.0	3.942968	-1.467875	8.891531	-0.00386	0.003717	-0.00408	-0.509033	0.010986	-0.408936
235.0	3.94558	-1.426683	8.884304	-0.009618	0.008302	-0.009216	-0.51123	0.008789	-0.408936
236.0	3.946504	-1.451423	8.908836	-0.002355	0.010613	-0.007026	-0.513428	0.009033	-0.415283
237.0	3.939466	-1.443941	8.868012	-0.004646	0.007255	-0.006423	-0.51123	0.009033	-0.411133
238.0	3.922825	-1.454667	8.883268	-0.005297	0.00683	-0.004826	-0.509033	0.010986	-0.413086
239.0	3.94464	-1.451876	8.909587	-0.004712	0.009238	-0.008394	-0.513428	0.008789	-0.411133
240.0	3.948623	-1.434965	8.926769	-0.004712	0.009238	-0.008394	-0.51123	0.010986	-0.413086
241.0	3.920884	-1.455067	8.88406	-0.004646	0.007256	-0.006425	-0.509033	0.009033	-0.411133
242.0	3.963364	-1.424645	8.912296	-0.00183	0.010878	-0.004746	-0.513428	0.010986	-0.411133
243.0	3.973986	-1.431159	8.880718	-0.004712	0.009239	-0.008396	-0.51123	0.006836	-0.408936
244.0	3.918678	-1.455379	8.884982	-0.006016	0.008388	-0.005201	-0.509277	0.013184	-0.41333
245.0	3.956501	-1.441928	8.896334	-0.000985	0.009487	-0.008254	-0.51123	0.009033	-0.413086
246.0	3.937947	-1.427882	8.887498	-0.004905	0.01106	-0.006488	-0.515625	0.010986	-0.415283
247.0	3.950264	-1.458965	8.880133	-0.002815	0.008373	-0.007341	-0.517578	0.006592	-0.408936
248.0	3.936448	-1.42796	8.888149	-0.003009	0.010192	-0.005432	-0.513428	0.008789	-0.411133
249.0	3.953594	-1.441932	8.897625	-0.001377	0.00526	-0.006596	-0.515625	0.009033	-0.413086
250.0	3.948153	-1.458775	8.881103	-0.001964	0.014848	-0.00869	-0.513428	0.010986	-0.411133
251.0	3.956577	-1.424614	8.915316	-0.000918	0.007506	-0.006285	-0.509277	0.013184	-0.41333
252.0	3.933309	-1.427656	8.889588	-0.006344	0.014176	-0.007238	-0.513184	0.002441	-0.413086
253.0	3.945372	-1.458729	8.882346	-0.001179	0.01131	-0.006348	-0.510986	0.004639	-0.408936
254.0	3.931437	-1.427717	8.890406	-0.004186	0.009506	-0.00612	-0.506836	0.01123	-0.413086
255.0	3.9146	-1.438319	8.905735	-0.00229	0.008638	-0.005062	-0.508789	0.004639	-0.413086
256.0	3.923649	-1.42039	8.849908	-0.005558	0.010637	-0.004896	-0.510986	0.004639	-0.410889
257.0	3.942181	-1.459118	8.883699	-0.003009	0.010196	-0.005436	-0.51123	0.010986	-0.411133
258.0	3.928421	-1.428364	8.891635	-0.008895	0.006753	-0.008862	-0.51123	0.010986	-0.408936
259.0	3.923348	-1.445695	8.874869	-0.004578	0.005278	-0.004462	-0.509033	0.009033	-0.411133
260.0	3.92738	-1.42911	8.891975	-0.00981	0.01013	-0.007327	-0.511475	0.013184	-0.41333
261.0	3.922166	-1.44663	8.87524	-0.005885	0.004424	-0.001267	-0.51123	0.010986	-0.413086
262.0	3.94706	-1.402706	8.894169	-0.010921	0.007457	-0.006042	-0.51123	0.01123	-0.415283
263.0	3.919583	-1.423322	8.851239	-0.008305	0.005032	-0.00461	-0.513428	0.010986	-0.413086
264.0	3.92549	-1.431527	8.892421	-0.011902	0.004952	-0.008638	-0.513184	0.006836	-0.413086
265.0	3.936714	-1.438734	8.8605	-0.011312	0.003228	-0.004384	-0.513184	0.002441	-0.413086
266.0	3.958844	-1.436465	8.886623	-0.010006	0.004084	-0.00758	-0.506836	0.010986	-0.411133
267.0	3.952217	-1.42954	8.845555	-0.009678	0.006163	-0.003387	-0.513428	0.008789	-0.411133
268.0	3.940361	-1.423549	8.877561	-0.004383	0.003463	-0.006374	-0.515381	0.006836	-0.413086
269.0	3.936942	-1.465432	8.884983	-0.009091	0.008577	-0.006957	-0.513428	0.009033	-0.413086
270.0	3.961651	-1.421378	8.904046	-0.007195	0.007709	-0.005897	-0.513428	0.006836	-0.41748
271.0	3.945041	-1.432427	8.919176	-0.008305	0.005035	-0.004613	-0.51123	0.009033	-0.413086
272.0	3.917736	-1.453036	8.87615	-0.010135	0.003918	-0.003702	-0.51123	0.009033	-0.411133
273.0	3.949567	-1.432574	8.846248	-0.009025	0.006593	-0.004987	-0.515381	0.004639	-0.408936
274.0	3.939453	-1.451416	8.902354	-0.009873	0.000115	-0.003643	-0.515381	0.006836	-0.411133
275.0	3.955304	-1.441575	8.887372	-0.010921	0.007464	-0.006048	-0.513428	0.010986	-0.413086
276.0	3.953156	-1.417597	8.863313	-0.007129	0.005725	-0.003928	-0.513184	0.006836	-0.411133
277.0	3.938193	-1.453403	8.902588	-0.012098	0.006776	-0.006736	-0.515869	0.015381	-0.411133
278.0	3.937749	-1.454088	8.902672	-0.008305	0.005037	-0.004615	-0.515625	0.010986	-0.404541
279.0	3.971172	-1.45809	8.897012	-0.009025	0.006596	-0.004989	-0.506836	0.009033	-0.413086
280.0	3.952957	-1.44485	8.887884	-0.011509	0.005049	-0.002482	-0.51123	0.006836	-0.415283
281.0	3.957219	-1.428602	8.90486	-0.007585	0.00348	-0.004243	-0.51123	0.009033	-0.411133
282.0	3.945831	-1.438623	8.846933	-0.011839	0.010842	-0.004514	-0.509277	0.013184	-0.411133
283.0	3.933744	-1.432757	8.879014	-0.004381	0.00347	-0.006377	-0.506836	0.008789	-0.408936
284.0	3.93323	-1.433362	8.879144	-0.013669	0.009725	-0.003605	-0.515625	0.013184	-0.406738
285.0	3.950416	-1.448118	8.888482	-0.006409	0.00417	-0.003557	-0.509033	0.009033	-0.413086
286.0	3.950066	-1.44861	8.888557	-0.008305	0.00504	-0.004619	-0.515381	0.006836	-0.411133
287.0	3.94793	-1.42467	8.864508	-0.010399	0.007728	-0.003769	-0.50708	0.015381	-0.411133
288.0	3.94895	-1.449927	8.888838	-0.007849	0.007288	-0.004305	-0.513672	0.013184	-0.41333
289.0	3.932343	-1.461074	8.903918	-0.008305	0.005042	-0.00462	-0.506836	0.009033	-0.413086
290.0	3.964069	-1.440406	8.874156	-0.009091	0.008589	-0.006964	-0.51123	0.006836	-0.411133
291.0	3.929526	-1.437441	8.880124	-0.006019	0.008407	-0.005215	-0.511475	0.013184	-0.415283
292.0	3.946583	-1.451898	8.889568	-0.008569	0.008848	-0.00468	-0.513428	0.009033	-0.413086
293.0	3.945908	-1.452269	8.889807	-0.005886	0.008581	-0.009098	-0.509277	0.013184	-0.408936
294.0	3.927438	-1.438537	8.88087	-0.00674	0.009967	-0.00559	-0.515625	0.013184	-0.415283
295.0	3.93992	-1.469779	8.873377	-0.004123	0.007537	-0.004154	-0.515625	0.008789	-0.406738
296.0	3.937592	-1.445448	8.849492	-0.00674	0.009968	-0.005591	-0.515625	0.010986	-0.41333
297.0	3.938503	-1.470299	8.873921	-0.003469	0.007969	-0.005752	-0.511475	0.013184	-0.415283
298.0	3.946767	-1.436235	8.90827	0.001823	0.013141	-0.006565	-0.513184	0.006836	-0.408936
299.0	3.941168	-1.453188	8.891759	-0.008701	0.01283	-0.008627	-0.513672	0.015381	-0.406738
300.0	3.938657	-1.428745	8.867977	-0.001117	0.009346	-0.004375	-0.511475	0.013184	-0.411133
301.0	3.942351	-1.411975	8.885303	-0.00746	0.011529	-0.005969	-0.509277	0.013184	-0.406738
302.0	3.954752	-1.443297	8.877843	-0.006019	0.008411	-0.005221	-0.513428	0.013184	-0.406738
303.0	3.976401	-1.440655	8.90428	-0.00654	0.008155	-0.007507	-0.509033	0.009033	-0.413086
304.0	3.932768	-1.471608	8.876247	-0.00857	0.008852	-0.004688	-0.515625	0.008789	-0.408936
305.0	3.957393	-1.427616	8.895465	-0.007129	0.005733	-0.00394	-0.51123	0.006836	-0.411133
306.0	3.952252	-1.444862	8.878702	-0.004189	0.009532	-0.006129	-0.51123	0.01123	-0.419678
307.0	3.963103	-1.451396	8.847098	-0.00726	0.009716	-0.007883	-0.511475	0.013184	-0.411133
308.0	3.938959	-1.438975	8.911284	-0.0038	0.013772	-0.007786	-0.515625	0.008789	-0.404541
309.0	3.945219	-1.462369	8.862736	-0.005299	0.006854	-0.004849	-0.509033	0.006836	-0.410889
310.0	3.971335	-1.442649	8.906218	-0.003014	0.010222	-0.005441	-0.515625	0.010986	-0.415283
311.0	3.95982	-1.452005	8.848468	-0.00491	0.011094	-0.006506	-0.513428	0.010986	-0.411133
312.0	3.931156	-1.456374	8.895669	-0.001184	0.011343	-0.006349	-0.51123	0.006836	-0.413086
313.0	3.968521	-1.442745	8.907457	-0.003281	0.01403	-0.005502	-0.511475	0.013184	-0.408936
314.0	3.932039	-1.414745	8.889431	-0.002878	0.010401	-0.009327	-0.513428	0.010986	-0.408936
315.0	3.960456	-1.435023	8.867202	-0.001522	0.012983	-0.000555	-0.509033	0.009033	-0.415283
316.0	3.940281	-1.487324	8.889725	-0.0038	0.013777	-0.007791	-0.515625	0.009033	-0.413086
317.0	3.948206	-1.453416	8.924202	-0.001905	0.012906	-0.006727	-0.517822	0.010986	-0.406738
318.0	3.952681	-1.452023	8.851656	-0.004456	0.013345	-0.006196	-0.513428	0.009033	-0.413086
319.0	3.922342	-1.431733	8.874723	-0.000462	0.009787	-0.005977	-0.513428	0.010986	-0.413086
320.0	3.939332	-1.445849	8.88428	-0.007915	0.009289	-0.006297	-0.52002	0.010986	-0.41333
321.0	3.974193	-1.474187	8.90299	-0.005298	0.006857	-0.004856	-0.515625	0.008789	-0.408936
322.0	3.945403	-1.388028	8.894626	-0.00674	0.009978	-0.005607	-0.515625	0.010986	-0.411133
323.0	3.916465	-1.474345	8.882998	-0.002561	0.012476	-0.005132	-0.513428	0.013184	-0.411133
324.0	3.974659	-1.433185	8.896855	-0.003467	0.00798	-0.005763	-0.510986	0.004639	-0.410889
325.0	3.937033	-1.47185	8.909909	-0.009496	0.012233	-0.003168	-0.513428	0.010986	-0.404541
326.0	3.955303	-1.419874	8.888216	0.000324	0.006236	-0.00363	-0.52002	0.010986	-0.411133
327.0	3.929422	-1.464681	8.86937	-0.009496	0.012234	-0.003169	-0.509033	0.010986	-0.411133
328.0	3.949187	-1.43744	8.871835	-0.002293	0.00867	-0.005073	-0.509033	0.009033	-0.411133
329.0	3.954546	-1.445513	8.913221	-0.009227	0.008426	-0.00311	-0.513428	0.009033	-0.413086
330.0	3.922587	-1.482658	8.853231	-0.00184	0.010919	-0.004758	-0.515625	0.010986	-0.408936
331.0	3.978021	-1.401594	8.933005	-0.008571	0.00886	-0.004708	-0.51123	0.009033	-0.413086
332.0	3.937158	-1.472754	8.838946	-0.006223	0.010237	-0.003325	-0.515625	0.010986	-0.408936
333.0	3.954409	-1.405305	8.907238	-0.002681	0.004428	-0.003417	-0.509033	0.010986	-0.413086
334.0	3.928715	-1.450447	8.888231	-0.013158	0.009993	-0.001364	-0.513428	0.013184	-0.411133
335.0	3.966454	-1.437558	8.899811	-0.005233	0.004867	-0.002889	-0.513428	0.010986	-0.411133
336.0	3.973265	-1.461322	8.851011	-0.010337	0.005745	-0.001833	-0.52002	0.010986	-0.411133
337.0	3.931888	-1.435606	8.905483	-0.007452	-0.000498	-0.000328	-0.513428	0.009033	-0.415283
338.0	3.961049	-1.456539	8.882875	-0.010401	0.007741	-0.003806	-0.515625	0.008789	-0.411133
339.0	3.938214	-1.460146	8.856767	-0.007333	0.007556	-0.002046	-0.51123	0.010986	-0.408936
340.0	3.942027	-1.443797	8.873987	-0.007333	0.007557	-0.002046	-0.515381	0.006592	-0.406738
341.0	3.912138	-1.424243	8.896692	-0.008894	0.002624	-0.001082	-0.506836	0.008789	-0.408936
342.0	3.925115	-1.455981	8.888917	-0.011511	0.005059	-0.002528	-0.509033	0.008789	-0.404541
343.0	3.940937	-1.446187	8.874082	-0.010789	0.003499	-0.002152	-0.515625	0.013184	-0.404541
344.0	3.933422	-1.423971	8.922955	-0.011963	0.002811	-0.002845	-0.513428	0.008789	-0.408936
345.0	3.944815	-1.431002	8.891092	-0.010196	0.005931	-0.005721	-0.513428	0.009033	-0.415283
346.0	3.996152	-1.449154	8.894757	-0.01262	0.002377	-0.00125	-0.513672	0.015381	-0.411133
347.0	3.919137	-1.477494	8.871795	-0.014579	0.005248	-0.004292	-0.509033	0.009033	-0.411133
348.0	3.961487	-1.447894	8.900348	-0.00968	0.006185	-0.003433	-0.509277	0.013184	-0.411133
349.0	3.956552	-1.465583	8.883391	-0.010338	0.00575	-0.001838	-0.51123	0.009033	-0.413086
350.0	3.967741	-1.472705	8.851603	-0.011717	0.006876	-0.000618	-0.513672	0.017578	-0.411133
351.0	3.959862	-1.450447	8.900655	-0.008507	0.006873	-0.002741	-0.51123	0.008789	-0.408936
352.0	3.937001	-1.453928	8.874564	-0.007397	0.009558	-0.004019	-0.513672	0.015381	-0.408936
353.0	3.936215	-1.454527	8.874814	-0.010465	0.009747	-0.005783	-0.509033	0.010986	-0.411133
354.0	3.941665	-1.462904	8.916089	-0.006406	0.004186	-0.003586	-0.515625	0.008789	-0.406738
355.0	3.964633	-1.475759	8.852486	-0.008571	0.008873	-0.004714	-0.51123	0.006836	-0.411133
356.0	3.918423	-1.466837	8.890085	-0.005891	0.004438	-0.001297	-0.509033	0.008789	-0.408936
357.0	3.950225	-1.445958	8.860609	-0.010981	0.009498	-0.008075	-0.511475	0.013184	-0.41333
358.0	3.933386	-1.457212	8.875628	-0.007191	0.007748	-0.005935	-0.513428	0.009033	-0.415283
359.0	3.954851	-1.454805	8.902172	-0.009808	0.010186	-0.007382	-0.513184	0.004639	-0.410889
360.0	3.931921	-1.458221	8.876111	-0.007913	0.009311	-0.006312	-0.513428	0.010986	-0.406738
361.0	3.931364	-1.458725	8.876276	-0.008301	0.005064	-0.004659	-0.513428	0.006836	-0.415283
362.0	3.951561	-1.431844	8.878601	-0.011512	0.005066	-0.002539	-0.515381	0.006592	-0.408936
363.0	3.948309	-1.474232	8.885628	-0.01071	0.00569	-0.008021	-0.51123	0.01123	-0.415283
364.0	3.950745	-1.433379	8.878716	-0.013263	0.006129	-0.007497	-0.513428	0.013184	-0.408936
365.0	3.945926	-1.450977	8.861704	-0.008301	0.005065	-0.004661	-0.515625	0.009033	-0.413086
366.0	3.947152	-1.476361	8.885788	-0.010132	0.003942	-0.003761	-0.51123	0.009033	-0.413086
367.0	3.949669	-1.435562	8.878842	-0.012026	0.004818	-0.004832	-0.509033	0.006836	-0.413086
368.0	3.944863	-1.453216	8.861811	-0.010195	0.005943	-0.005733	-0.51123	0.008789	-0.408936
369.0	3.963766	-1.492622	8.895157	-0.008959	0.00463	-0.003067	-0.506836	0.01123	-0.413086
370.0	3.948329	-1.437498	8.879125	-0.00777	0.009506	-0.0102	-0.513428	0.013184	-0.408936
371.0	3.943426	-1.454828	8.862186	-0.009473	0.004381	-0.005358	-0.513428	0.010986	-0.413086
372.0	3.978473	-1.483484	8.880761	-0.010918	0.007507	-0.006111	-0.513428	0.013184	-0.411133
373.0	3.942428	-1.455967	8.862443	-0.002889	0.006252	-0.001505	-0.509033	0.010986	-0.413086
374.0	3.959407	-1.47033	8.871968	-0.009359	0.012445	-0.007069	-0.511475	0.013184	-0.408936
375.0	3.936336	-1.473634	8.845974	-0.005569	0.010693	-0.004925	-0.509277	0.013184	-0.408936
376.0	3.944239	-1.4403	8.880488	-0.008636	0.010884	-0.006694	-0.513672	0.013184	-0.41333
377.0	3.956937	-1.471643	8.872852	-0.007128	0.005756	-0.00397	-0.509033	0.010986	-0.411133
378.0	3.93844	-1.458332	8.863827	-0.01432	0.013515	-0.009913	-0.515625	0.008789	-0.411133
379.0	3.959881	-1.456211	8.890358	-0.009473	0.004384	-0.005364	-0.513428	0.010986	-0.411133
380.0	3.975709	-1.446313	8.875611	-0.01458	0.005261	-0.00432	-0.513428	0.008789	-0.406738
381.0	3.925232	-1.454756	8.895903	-0.009473	0.004385	-0.005365	-0.509033	0.006836	-0.413086
382.0	3.95883	-1.458719	8.890415	-0.012026	0.004824	-0.004843	-0.513428	0.009033	-0.413086
383.0	3.952679	-1.451733	8.849247	-0.013648	0.001889	-0.005861	-0.511475	0.013184	-0.411133
384.0	3.976135	-1.474567	8.899549	-0.012026	0.004825	-0.004844	-0.515625	0.010986	-0.411133
385.0	3.947648	-1.470184	8.832163	-0.008364	0.007077	-0.006641	-0.51123	0.008789	-0.404541
386.0	3.957581	-1.462033	8.890426	-0.012622	0.002384	-0.00128	-0.513428	0.008789	-0.411133
387.0	3.970672	-1.493723	8.882536	-0.010708	0.005706	-0.008035	-0.509277	0.015381	-0.411133
388.0	3.95686	-1.463687	8.890475	-0.011001	0.00532	-0.000263	-0.515381	0.006836	-0.415283
389.0	3.981482	-1.501441	8.85084	-0.011641	0.009081	-0.006497	-0.51123	0.009033	-0.415283
390.0	3.955679	-1.465126	8.890764	-0.00647	0.006202	-0.005569	-0.51123	0.009033	-0.411133
391.0	3.937387	-1.451456	8.881712	-0.006533	0.008206	-0.00754	-0.51123	0.009033	-0.413086
392.0	3.966264	-1.471873	8.859335	-0.007403	0.009576	-0.00403	-0.513428	0.008789	-0.406738
393.0	3.965518	-1.472162	8.859621	-0.004702	0.009333	-0.008438	-0.513428	0.013184	-0.408936
394.0	3.989654	-1.427902	8.879453	-0.006744	0.010017	-0.005626	-0.515869	0.015381	-0.408936
395.0	3.929969	-1.469734	8.865703	-0.008786	0.010701	-0.002814	-0.51123	0.008789	-0.408936
396.0	3.967549	-1.45632	8.877626	0.000322	0.006259	-0.003621	-0.509277	0.013184	-0.406738
397.0	3.946275	-1.483975	8.875546	-0.006147	0.012464	-0.009193	-0.509033	0.009033	-0.413086
398.0	3.961614	-1.473378	8.861165	-0.004849	0.009141	-0.004553	-0.513428	0.008789	-0.408936
399.0	3.948834	-1.467556	8.893405	-0.004464	0.013396	-0.006203	-0.511475	0.013184	-0.411133
400.0	3.981811	-1.470826	8.888347	-0.003018	0.010268	-0.00545	-0.509277	0.013184	-0.408936
401.0	3.942594	-1.484474	8.877098	-0.00191	0.01296	-0.006724	-0.513672	0.015381	-0.411133
402.0	3.945921	-1.467702	8.894674	-0.004401	0.011393	-0.004234	-0.513428	0.010986	-0.413086
403.0	3.939019	-1.459862	8.853999	-0.003804	0.01384	-0.0078	-0.511475	0.013184	-0.41333
404.0	3.977922	-1.471045	8.890052	-0.0047	0.009339	-0.008444	-0.515625	0.013184	-0.415283
405.0	3.953481	-1.449186	8.84004	-0.003742	0.011835	-0.00583	-0.511475	0.013184	-0.406738
406.0	3.915813	-1.487591	8.852743	-0.000527	0.01184	-0.007943	-0.51123	0.010986	-0.413086
407.0	3.953128	-1.473825	8.86488	-0.003742	0.011836	-0.005831	-0.51123	0.009033	-0.415283
408.0	3.962402	-1.464854	8.923554	0.000196	0.010276	-0.007567	-0.515625	0.008789	-0.411133
409.0	3.933608	-1.459473	8.856469	-1.7e-05	0.012086	-0.005651	-0.509033	0.009033	-0.415283
410.0	3.988733	-1.45971	8.87785	-0.004189	0.009586	-0.006155	-0.511475	0.013184	-0.41333
411.0	3.953771	-1.456569	8.88373	-0.001464	0.015217	-0.006408	-0.509033	0.01123	-0.415283
412.0	3.932156	-1.484187	8.881775	-0.001339	0.011204	-0.002464	-0.509033	0.006836	-0.410889
413.0	3.935598	-1.46749	8.899281	-0.00485	0.009146	-0.004562	-0.511475	0.013184	-0.411133
414.0	3.946759	-1.473577	8.867759	-0.001125	0.009396	-0.00438	-0.513428	0.010986	-0.413086
415.0	3.945944	-1.473445	8.868143	-0.001697	0.011158	-0.008647	-0.509033	0.008789	-0.408936
416.0	3.946524	-1.498172	8.892542	-0.002572	0.012527	-0.005137	-0.513428	0.013184	-0.411133
417.0	3.960198	-1.462425	8.854361	-1.7e-05	0.01209	-0.005654	-0.513672	0.013184	-0.415283
418.0	3.944453	-1.497878	8.893511	-0.000741	0.013656	-0.006033	-0.513428	0.013184	-0.411133
419.0	3.958073	-1.461907	8.855397	0.001306	0.012976	-0.008844	-0.513672	0.015381	-0.411133
420.0	3.946473	-1.480433	8.91177	-0.002697	0.016544	-0.009087	-0.51123	0.009033	-0.413086
421.0	3.92747	-1.466345	8.90306	-0.000233	0.013903	-0.003741	-0.509033	0.010986	-0.411133
422.0	3.954521	-1.461317	8.857081	-0.001249	0.013415	-0.008331	-0.515625	0.013184	-0.41333
423.0	3.941567	-1.455147	8.889384	-0.001187	0.011407	-0.006358	-0.51123	0.006592	-0.406738
424.0	3.924261	-1.465922	8.904544	-0.002127	0.014783	-0.004822	-0.509277	0.015381	-0.411133
425.0	3.93935	-1.454841	8.890417	0.001306	0.012981	-0.008848	-0.513428	0.013184	-0.406738
426.0	3.946069	-1.477419	8.841914	-0.003081	0.012288	-0.007439	-0.509033	0.010986	-0.408936
427.0	3.925425	-1.448697	8.92313	-0.004912	0.011159	-0.006546	-0.513428	0.010986	-0.411133
428.0	3.93631	-1.454586	8.891806	-0.000141	0.016115	-0.009608	-0.513672	0.013184	-0.41333
429.0	3.957138	-1.451352	8.918844	0.000644	0.012541	-0.007255	-0.513184	0.006836	-0.413086
430.0	3.932608	-1.42914	8.868917	-0.001249	0.01342	-0.008336	-0.511475	0.015381	-0.406738
431.0	3.928879	-1.470546	8.876198	-0.000525	0.011855	-0.007957	-0.506836	0.010986	-0.411133
432.0	3.922105	-1.462291	8.835574	-8e-05	0.014109	-0.007637	-0.51123	0.010986	-0.408936
433.0	3.948879	-1.467175	8.903629	-0.001633	0.00916	-0.006684	-0.51123	0.010986	-0.408936
434.0	3.94215	-1.459058	8.862966	-0.003204	0.016311	-0.011395	-0.519775	0.006836	-0.413086
435.0	3.946809	-1.466917	8.90459	-0.002357	0.010727	-0.007066	-0.513428	0.010986	-0.411133
436.0	3.944304	-1.441962	8.881096	-0.00248	0.014747	-0.011016	-0.511475	0.013184	-0.411133
437.0	3.939064	-1.45868	8.8644	-0.001851	0.010972	-0.004772	-0.513428	0.01123	-0.415283
438.0	3.93821	-1.458855	8.864751	-0.006744	0.010032	-0.005662	-0.517578	0.006836	-0.411133
439.0	3.959379	-1.456277	8.891543	-0.004851	0.009154	-0.00458	-0.504883	0.013184	-0.413086
440.0	3.924756	-1.453469	8.897094	-0.005296	0.006901	-0.004901	-0.511475	0.013184	-0.408936
441.0	3.931924	-1.47665	8.848342	-0.007408	0.00959	-0.004069	-0.513428	0.010986	-0.408936
442.0	3.957216	-1.457164	8.89236	-0.001851	0.010974	-0.004773	-0.51123	0.010986	-0.411133
443.0	3.93438	-1.46013	8.866242	-0.004913	0.011166	-0.006557	-0.513428	0.013184	-0.411133
444.0	3.921499	-1.45423	8.898406	-0.001127	0.009409	-0.004392	-0.509277	0.015381	-0.406738
445.0	3.932672	-1.460136	8.866998	-0.003081	0.012299	-0.007451	-0.509033	0.010986	-0.411133
446.0	3.935921	-1.443384	8.884583	-0.004913	0.011168	-0.006559	-0.51123	0.008789	-0.406738
447.0	3.964912	-1.463301	8.86247	-0.001632	0.009167	-0.00669	-0.50708	0.013184	-0.413086
448.0	3.952003	-1.457243	8.894665	-0.000684	0.011665	-0.004073	-0.511475	0.013184	-0.411133
449.0	3.946866	-1.474197	8.877886	-0.005072	0.010967	-0.00267	-0.517822	0.013184	-0.41333
450.0	3.954364	-1.440571	8.912631	0.001934	0.009219	-0.002609	-0.513428	0.008789	-0.408936
451.0	3.949245	-1.457646	8.895824	-0.009017	0.012524	-0.000948	-0.509033	0.009033	-0.413086
452.0	3.930551	-1.444178	8.886831	-0.003683	0.009846	-0.003884	-0.515625	0.013184	-0.406738
453.0	3.933923	-1.427605	8.904331	-0.002615	0.00832	0.002684	-0.506836	0.01123	-0.413086
454.0	3.967102	-1.431504	8.899292	-0.014513	0.009129	0.001726	-0.513428	0.013184	-0.408936
455.0	3.958114	-1.466139	8.865039	-0.003159	0.003852	0.00823	-0.506836	0.006836	-0.413086
456.0	3.961616	-1.45038	8.882355	-0.014673	0.008928	0.005615	-0.515625	0.013184	-0.408936
457.0	3.926672	-1.448268	8.88788	-0.001668	0.010818	0.005302	-0.511475	0.013184	-0.411133
458.0	3.971979	-1.457859	8.851082	-0.005716	0.004287	0.008739	-0.515625	0.010986	-0.411133
459.0	3.975654	-1.441914	8.868357	-0.003985	0.003205	0.013713	-0.51123	0.010986	-0.411133
460.0	3.949368	-1.406979	8.908006	-0.021881	0.006254	0.017276	-0.515625	0.010986	-0.41333
461.0	3.980148	-1.45444	8.909267	-0.023878	-0.000952	0.017904	-0.509033	0.008789	-0.404541
462.0	3.982827	-1.415716	8.902094	-0.023256	-0.004732	0.024147	-0.515625	0.010986	-0.41333
463.0	3.97586	-1.477729	8.891039	-0.032979	-0.00274	0.028474	-0.506836	0.010986	-0.411133
464.0	4.008205	-1.460039	8.861289	-0.032475	-0.002493	0.030764	-0.511475	0.013184	-0.408936
465.0	4.017759	-1.454926	8.919161	-0.018906	-0.002385	0.034724	-0.509277	0.015381	-0.415283
466.0	4.007547	-1.41151	8.944029	-0.040131	0.010583	0.040582	-0.515869	0.017334	-0.406738
467.0	3.97677	-1.478546	8.906807	-0.051517	0.01754	0.04605	-0.513428	0.009033	-0.413086
468.0	3.988139	-1.515005	8.898872	-0.036181	0.014912	0.042994	-0.509277	0.017578	-0.408936
469.0	3.968274	-1.506227	8.889646	-0.042234	0.019184	0.045531	-0.509033	0.008789	-0.404541
470.0	3.897818	-1.505447	8.900293	-0.041787	0.02145	0.045842	-0.511475	0.015381	-0.406738
471.0	3.877743	-1.496701	8.891145	-0.038292	0.017639	0.04379	-0.513672	0.017578	-0.408936
472.0	3.969615	-1.489179	8.924571	-0.04641	0.016728	0.044967	-0.513672	0.017578	-0.415527
473.0	3.911553	-1.494888	8.903145	-0.054581	0.017837	0.044172	-0.513428	0.013184	-0.408936
474.0	3.942941	-1.504711	8.897953	-0.055123	0.025502	0.044049	-0.509277	0.017578	-0.415283
475.0	3.91936	-1.539152	8.895313	-0.06196	0.027509	0.04007	-0.513672	0.015381	-0.411133
476.0	3.950121	-1.549562	8.890283	-0.061174	0.029811	0.046554	-0.511475	0.017578	-0.415283
477.0	3.930288	-1.567564	8.905056	-0.059891	0.032736	0.041393	-0.513672	0.017578	-0.415527
478.0	3.908829	-1.560599	8.896209	-0.065321	0.039498	0.040358	-0.515869	0.017578	-0.415527
479.0	3.847758	-1.542147	8.851502	-0.067493	0.03837	0.03504	-0.511475	0.017578	-0.411133
480.0	3.848852	-1.613175	8.809107	-0.060278	0.034784	0.033194	-0.511475	0.015381	-0.411133
481.0	3.832292	-1.588233	8.817539	-0.046346	0.027347	0.027237	-0.511963	0.026123	-0.415527
482.0	3.847997	-1.632633	8.850894	-0.048328	0.032295	0.022212	-0.511475	0.017578	-0.41333
483.0	3.852303	-1.57858	8.862522	-0.030934	0.0289	0.016433	-0.507324	0.019775	-0.41333
484.0	3.845475	-1.598456	8.845667	-0.029283	0.023945	0.015269	-0.509277	0.017578	-0.41333
485.0	3.843397	-1.60109	8.846094	-0.021007	0.019183	0.006069	-0.505371	0.026123	-0.411133
486.0	3.844654	-1.561118	8.840326	-0.012387	0.020308	0.007208	-0.507324	0.021973	-0.415527
487.0	3.860275	-1.57652	8.850231	-0.010375	0.021646	0.002455	-0.511475	0.017578	-0.411133
488.0	3.859629	-1.602176	8.874563	-0.000602	0.017576	0.000144	-0.509277	0.017578	-0.408936
489.0	3.891931	-1.605344	8.870225	0.001864	0.021167	-0.004276	-0.507324	0.021973	-0.415527
490.0	3.869223	-1.632582	8.868132	-0.001499	0.027244	-0.008088	-0.507568	0.02417	-0.41748
491.0	3.874631	-1.573621	8.880252	0.008539	0.019343	-0.010348	-0.509521	0.019775	-0.41333
492.0	3.886242	-1.603752	8.873007	-0.004115	0.023852	-0.013726	-0.511719	0.019775	-0.411133
493.0	3.871188	-1.572417	8.881967	0.007195	0.018456	-0.007182	-0.50708	0.015381	-0.415283
494.0	3.903565	-1.57467	8.877798	0.006113	0.02204	-0.015701	-0.511963	0.026123	-0.41333
495.0	3.867703	-1.570364	8.883848	0.004504	0.024983	-0.012585	-0.505127	0.019775	-0.41333
496.0	3.920322	-1.5449	8.882961	0.011458	0.025202	-0.014444	-0.516113	0.023926	-0.415527
497.0	3.918069	-1.543351	8.884225	0.010476	0.030615	-0.014878	-0.509521	0.019775	-0.41748
498.0	3.928792	-1.572696	8.877561	0.009538	0.034006	-0.013349	-0.507324	0.023926	-0.411133
499.0	3.943146	-1.584909	8.888657	0.025613	0.041467	-0.007603	-0.50708	0.017578	-0.41333
500.0	3.874907	-1.614828	8.834391	0.01979	0.058144	-0.014599	-0.509521	0.019775	-0.41748
501.0	3.85788	-1.605674	8.868813	0.045186	0.053419	-0.015631	-0.507324	0.019775	-0.408936
502.0	3.720003	-1.601796	8.801342	0.043087	0.064454	-0.026581	-0.509521	0.023926	-0.41333
503.0	3.652003	-1.572229	8.831477	0.077183	0.039196	-0.034971	-0.509521	0.019775	-0.415527
504.0	3.529211	-1.514934	8.815438	0.078309	0.024279	-0.048703	-0.511719	0.021729	-0.41333
505.0	3.350639	-1.615295	8.860392	0.069839	-0.018211	-0.068855	-0.504883	0.015381	-0.415283
506.0	3.414289	-1.71131	8.845807	0.103125	-0.07936	-0.096671	-0.511475	0.013184	-0.41333
507.0	3.056163	-1.728457	8.855933	0.082478	-0.118536	-0.140014	-0.50708	0.015381	-0.415283
508.0	3.134514	-1.942964	9.161021	0.096083	-0.236674	-0.191221	-0.513672	0.017578	-0.408936
509.0	3.262184	-1.871796	9.180892	0.105001	-0.349326	-0.243389	-0.51123	0.008789	-0.406738
510.0	3.315245	-1.412514	9.428587	0.110404	-0.520566	-0.259858	-0.515869	0.015381	-0.408936
511.0	4.214927	-0.829441	9.864665	0.063609	-0.663951	-0.242961	-0.521973	0.006592	-0.406738
512.0	2.67257	-0.429621	9.63434	-0.307004	-0.792433	-0.267119	-0.524414	0.010742	-0.400146
513.0	2.844446	-1.732662	9.817835	-0.516052	-1.128171	-0.280477	-0.528564	0.008545	-0.393799
514.0	2.883844	-1.791337	9.929452	-0.267337	-1.519024	-0.306553	-0.537109	0.006348	-0.380615
515.0	3.410316	-1.596914	10.303788	-0.191984	-1.873967	-0.360585	-0.541504	0.006104	-0.374268
516.0	3.494656	-1.949724	10.84754	-0.239077	-2.14873	-0.496217	-0.554688	0.008057	-0.359131
517.0	3.174455	-3.168377	11.530835	-0.26193	-2.335559	-0.682601	-0.558594	0.001465	-0.350342
518.0	3.761856	-4.11555	11.539547	0.236989	-2.580163	-0.95974	-0.569336	-0.003174	-0.328613
519.0	1.512721	-6.389091	16.028513	0.6204	-2.275574	-1.110492	-0.579834	-0.016113	-0.328613
520.0	-2.359006	-10.986265	20.385574	0.663137	-1.561454	-1.11826	-0.586182	-0.020508	-0.322021
521.0	-6.011948	-12.173254	16.220404	1.51974	-1.434507	-0.827643	-0.594482	-0.0271	-0.311279
522.0	-7.146008	-10.980383	15.71446	2.688402	-1.793953	-0.117725	-0.604736	-0.044678	-0.300293
523.0	-4.926494	-5.990476	16.788232	3.637432	-2.033892	0.539612	-0.606934	-0.040283	-0.293945
524.0	-5.608943	-1.481477	18.649472	2.408597	-1.047146	1.076023	-0.61792	-0.040283	-0.300537
525.0	-6.641368	-1.395903	15.306364	-0.383885	0.791423	1.302874	-0.618408	-0.027344	-0.311279
526.0	-9.02287	-3.700631	12.518791	-1.198098	1.490977	1.437391	-0.621094	-0.01416	-0.330811
527.0	-9.339603	-3.976483	11.291665	0.292333	0.896401	1.382429	-0.621338	-0.007568	-0.346191
528.0	-7.878447	-0.646595	12.238129	1.580896	0.398989	1.314383	-0.625977	-0.00293	-0.36792
529.0	-6.864681	2.082725	12.079306	1.039975	0.888218	1.207023	-0.626465	0.008301	-0.400391
530.0	-6.29604	2.250704	11.310209	-0.15359	1.641462	1.029631	-0.618408	0.021729	-0.435059
531.0	-5.98333	0.50819	10.930104	-0.506251	1.931494	0.850399	-0.590576	0.032959	-0.467529
532.0	-4.761507	-0.715559	12.17567	0.278177	1.65226	0.651124	-0.57373	0.042236	-0.510986
533.0	-2.427377	-0.212567	14.707349	1.149798	1.508567	0.448844	-0.539063	0.047363	-0.550049
534.0	-0.333613	0.879189	16.093195	1.14614	1.868437	0.327449	-0.493652	0.054199	-0.578125
535.0	0.91709	0.88487	15.771403	0.575673	2.485797	0.225364	-0.428955	0.065674	-0.599609
536.0	1.298698	0.318009	14.852713	0.39058	2.751961	0.165653	-0.368164	0.07251	-0.608398
537.0	1.969664	0.221855	14.13912	0.449493	2.790904	0.124597	-0.296631	0.081055	-0.599609
538.0	3.013945	0.339784	13.788017	0.355003	2.831008	0.104597	-0.236328	0.096191	-0.586426
539.0	3.909123	0.412113	13.511843	0.13262	2.890704	0.087174	-0.177979	0.108887	-0.551758
540.0	4.432638	0.282522	13.12215	-0.081952	2.895313	0.095254	-0.132813	0.125732	-0.510742
541.0	5.01214	0.385052	12.690398	-0.189256	2.791942	0.105104	-0.098389	0.142334	-0.454346
542.0	5.410015	0.80324	12.230328	-0.339119	2.701957	0.117567	-0.075684	0.174072	-0.402344
543.0	5.674237	1.042417	11.60594	-0.618316	2.62231	0.128446	-0.058594	0.186035	-0.343994
544.0	5.780916	0.741864	11.04022	-0.902191	2.526795	0.122585	-0.070313	0.208984	-0.279053
545.0	6.296693	0.155052	10.681107	-1.031529	2.3515	0.10565	-0.092529	0.225342	-0.231445
546.0	7.424327	-0.50373	10.536046	-1.073117	2.178571	0.063156	-0.123291	0.237549	-0.19043
547.0	8.895004	-1.215275	10.946965	-0.982135	2.102196	0.052688	-0.158691	0.251953	-0.155762
548.0	10.452264	-2.077759	11.531762	-0.791633	2.124575	0.039253	-0.206787	0.260254	-0.136475
549.0	12.313897	-3.040294	12.000533	-0.467413	2.20765	0.01331	-0.243896	0.262207	-0.132324
550.0	14.062172	-2.976722	11.887539	0.026381	2.309072	0.033391	-0.270264	0.268555	-0.138916
551.0	15.284483	-2.742371	10.487614	0.246525	2.535158	0.074556	-0.302979	0.264404	-0.15625
552.0	15.389345	-3.084739	7.745642	0.260793	2.749255	0.086446	-0.328857	0.26001	-0.166992
553.0	14.554849	-3.607005	4.502264	0.383451	2.718268	0.091647	-0.3396	0.258301	-0.193115
554.0	13.951718	-3.585291	1.13626	0.60394	2.278837	0.146685	-0.352783	0.256348	-0.210449
555.0	13.297691	-3.188375	-1.461947	0.591004	1.651446	0.233356	-0.363281	0.247803	-0.221191
556.0	12.62588	-3.025078	-4.440431	0.311444	0.905193	0.337195	-0.380859	0.252441	-0.240723
557.0	12.002016	-3.12652	-7.803821	0.01974	0.221651	0.507655	-0.383057	0.248047	-0.236328
558.0	12.601906	-3.389123	-9.536179	-0.197407	-0.208793	0.699819	-0.389893	0.256592	-0.24292
559.0	15.004433	-3.707556	-6.741806	-0.639308	-0.085167	1.020928	-0.398926	0.265137	-0.23877
560.0	17.554341	-5.018266	0.707726	-0.475912	1.337267	1.129818	-0.405518	0.271484	-0.232178
561.0	12.277351	-3.17152	12.515107	-0.899675	0.617296	1.037369	-0.4104	0.282227	-0.230225
562.0	10.073438	-5.295729	-0.105448	1.728293	-0.384589	0.696996	-0.416748	0.280029	-0.223633
563.0	0.504573	2.085257	-3.108392	2.083958	-2.692144	1.013699	-0.436035	0.273193	-0.212891
564.0	-6.800562	14.977745	10.849706	5.135005	-3.588642	0.054654	-0.442627	0.272949	-0.195557
565.0	-18.037628	22.553051	6.491024	2.948123	-2.341247	-0.256238	-0.464355	0.270752	-0.188965
566.0	2.122748	13.140657	-4.290992	0.476146	-4.01442	0.247876	-0.490479	0.276611	-0.152344
567.0	22.070361	17.596165	20.423863	-3.11804	-7.586905	0.234892	-0.506592	0.299561	-0.119873
568.0	22.606792	-2.402209	31.998291	-6.667727	0.563415	-0.654301	-0.509033	0.305664	-0.093994
569.0	7.211357	-14.572811	14.770729	-3.941048	-0.970204	-0.240686	-0.52002	0.311768	-0.070068
570.0	6.660738	-12.071434	14.068829	0.435837	-2.827837	-0.141041	-0.526611	0.311768	-0.061523
571.0	6.49517	-0.875268	15.398333	2.738818	-3.625791	0.186363	-0.529053	0.318115	-0.052734
572.0	5.203307	8.373984	9.653157	0.047673	-1.692108	0.039147	-0.537598	0.319824	-0.037598
573.0	1.638171	5.093673	6.882461	-3.08783	-0.852988	-0.127301	-0.541992	0.317627	-0.022461
574.0	5.043464	-9.922904	16.252066	-4.541216	0.419835	-0.160641	-0.548584	0.32373	-0.00293
575.0	6.004778	-20.266579	10.726475	-4.365274	1.169887	-0.041299	-0.544189	0.321533	-0.000732
576.0	-0.991193	-15.023815	1.974324	-0.589359	-0.655191	0.085086	-0.552734	0.319092	0.014404
577.0	-0.520093	0.919842	8.344393	7.863905	-5.836321	-0.140011	-0.548584	0.325439	0.022949
578.0	13.392905	8.02037	19.91155	4.756612	-3.284135	0.307613	-0.548828	0.329834	0.025146
579.0	7.010638	6.758696	8.35206	-2.398983	0.024392	-0.008124	-0.548584	0.325195	0.040283
580.0	4.051297	-2.270109	12.728388	-3.692923	1.143059	0.188482	-0.551025	0.32959	0.040283
581.0	2.018287	-3.316941	7.006386	-1.528025	-0.008766	0.137601	-0.552979	0.325195	0.046875
582.0	3.371482	-2.785563	9.470561	1.279767	-1.572306	0.115846	-0.553223	0.33374	0.05542
583.0	5.127581	-0.320475	11.573678	1.820447	-1.68784	0.15968	-0.551025	0.329346	0.051025
584.0	5.862496	2.249243	10.083275	-0.829993	0.00236	0.091244	-0.551025	0.329346	0.05542
585.0	3.807375	-2.105835	9.670408	-1.676063	0.604961	0.156364	-0.553223	0.331543	0.062012
586.0	2.962503	-3.038029	8.828343	-0.925162	0.230603	0.112372	-0.55542	0.331299	0.062012
587.0	3.209295	-2.760716	8.666529	0.186668	-0.403909	0.07477	-0.546631	0.329346	0.066406
588.0	3.775407	-1.435662	9.522795	0.452624	-0.52832	0.065918	-0.55127	0.340088	0.062012
589.0	4.255149	-0.749251	9.583792	-0.448168	0.001478	0.076054	-0.546875	0.340088	0.062012
590.0	3.553151	-2.129405	9.081518	-0.778574	0.25644	0.03758	-0.546875	0.337891	0.066162
591.0	3.337402	-2.399307	8.904848	-0.31306	0.008454	0.028137	-0.551025	0.335693	0.070557
592.0	3.70338	-1.629004	9.164024	-0.046363	-0.127863	0.043709	-0.551025	0.335693	0.070557
593.0	3.901088	-1.294646	9.270203	-0.399855	0.065323	0.045362	-0.549072	0.337891	0.066162
594.0	3.437856	-2.098992	8.936913	-0.523254	0.1473	0.040243	-0.553467	0.337891	0.068359
595.0	3.202805	-2.204239	8.559891	-0.247672	0.029846	0.042849	-0.551025	0.333496	0.068359
596.0	3.32297	-2.127764	8.768209	-0.163854	0.021581	0.018245	-0.551025	0.335693	0.068359
597.0	2.987689	-2.271194	8.388885	-0.102304	0.032369	-0.017804	-0.54248	0.335693	0.070557
598.0	2.864402	-2.345666	8.396506	0.009555	-0.052876	-0.06017	-0.55127	0.339844	0.072754
599.0	2.866683	-2.159979	8.40338	0.087969	-0.118781	-0.114851	-0.555664	0.337646	0.077148
600.0	3.044089	-2.446918	8.443676	0.003877	-0.132236	-0.170748	-0.557861	0.339844	0.077148
601.0	3.232066	-2.277235	8.747592	0.100256	-0.189571	-0.190607	-0.548828	0.333496	0.070557
602.0	3.531796	-1.748707	8.925252	0.171981	-0.218567	-0.202632	-0.557617	0.333496	0.074951
603.0	3.612161	-1.758636	9.026	6e-05	-0.12167	-0.213892	-0.55542	0.335449	0.074951
604.0	3.663847	-1.837618	9.058713	0.069408	-0.131941	-0.204809	-0.555176	0.331055	0.08374
605.0	3.794308	-1.693699	9.273056	0.08561	-0.132445	-0.182202	-0.557373	0.331299	0.077148
606.0	3.699554	-1.925087	8.913941	0.035045	-0.079363	-0.181897	-0.566162	0.331055	0.079346
607.0	3.47348	-2.051859	8.992061	0.09294	-0.101314	-0.179157	-0.568359	0.331055	0.083496
608.0	3.521842	-1.653382	9.205538	0.124566	-0.186385	-0.160919	-0.563965	0.333252	0.085693
609.0	3.593273	-1.492241	9.180599	0.069051	-0.220336	-0.147528	-0.557617	0.337646	0.083496
610.0	3.616037	-1.673113	9.107466	-0.042886	-0.226044	-0.141834	-0.561768	0.328857	0.087891
611.0	3.620167	-1.557885	9.136267	-0.031659	-0.284995	-0.124616	-0.557617	0.333252	0.090088
612.0	3.689985	-1.451705	9.112485	-0.061147	-0.307287	-0.1064	-0.55957	0.331055	0.092285
613.0	3.622084	-1.595795	9.024815	-0.124428	-0.310852	-0.09998	-0.561523	0.324463	0.092285
614.0	3.418139	-1.785071	9.029086	-0.119932	-0.37361	-0.108087	-0.565918	0.328613	0.101074
615.0	3.412332	-1.796724	9.074476	-0.027158	-0.474827	-0.118171	-0.565674	0.320068	0.101074
616.0	4.891517	-1.527644	9.447276	0.053258	-0.481761	-0.087311	-0.55957	0.328613	0.105225
617.0	4.491946	-1.420668	9.09606	-0.319274	-0.384396	-0.035229	-0.563721	0.324463	0.103027
618.0	3.345117	-1.606342	9.161815	-0.332945	-0.505387	-0.028647	-0.559326	0.326416	0.105225
619.0	3.252156	-2.078462	9.196212	-0.346867	-0.597691	-0.055625	-0.563477	0.320068	0.109619
620.0	3.781414	-2.035601	9.057591	-0.210621	-0.827602	-0.088136	-0.561279	0.319824	0.120605
621.0	3.776915	-1.578187	9.235158	-0.267632	-0.89855	-0.101899	-0.563721	0.323975	0.126953
622.0	4.097167	-1.863777	9.027962	-0.337693	-0.990735	-0.085184	-0.561035	0.313232	0.131348
623.0	3.924287	-1.894065	9.066538	-0.253421	-1.166182	-0.078711	-0.561279	0.321777	0.137939
624.0	3.887692	-2.019968	9.251405	-0.25088	-1.292912	-0.094034	-0.558838	0.315186	0.144287
625.0	3.269606	-2.145981	9.492762	-0.316555	-1.481904	-0.171803	-0.559082	0.319336	0.150879
626.0	3.172657	-2.330528	9.568103	-0.277213	-1.756165	-0.320365	-0.563477	0.319336	0.163818
627.0	3.455891	-2.405191	9.477976	-0.267205	-2.082677	-0.498904	-0.556396	0.306152	0.17041
628.0	3.239031	-2.504219	9.367201	0.053134	-2.302482	-0.697223	-0.562744	0.305908	0.187744
629.0	3.199842	-2.159092	8.961005	0.3039	-2.661079	-0.874442	-0.55835	0.303711	0.19873
630.0	3.973922	-2.258326	8.947839	0.481898	-3.036163	-1.062334	-0.555908	0.299316	0.205078
631.0	2.883762	-2.162561	8.676881	0.659677	-3.433169	-1.247762	-0.557861	0.294678	0.222412
632.0	2.046297	-2.627841	8.710496	0.928655	-3.802373	-1.430274	-0.559814	0.285889	0.241943
633.0	-7.741713	0.091779	8.410165	1.515489	-4.045139	-1.749309	-0.552979	0.281494	0.259521
634.0	5.393557	-5.938471	6.987002	2.997727	-4.2573	-1.909949	-0.559326	0.279053	0.274658
635.0	4.343045	-1.763806	10.126192	2.653317	-4.671874	-1.49634	-0.552734	0.274414	0.291992
636.0	10.522136	4.802084	20.371475	-1.585048	-4.152786	-0.863088	-0.54541	0.26123	0.32666
637.0	12.232944	-3.716303	17.015646	-1.693713	-8.364772	-1.288354	-0.529785	0.247803	0.370117
638.0	13.695214	-1.995249	17.290273	-1.735405	-12.256902	-0.123856	-0.485596	0.240479	0.439697
639.0	13.990757	1.732423	16.106346	-1.784608	-15.429367	0.213106	-0.424316	0.231201	0.51123
640.0	14.782251	0.876165	25.214637	-5.445865	-15.527212	0.607373	-0.361572	0.191895	0.568115
641.0	7.706329	-3.380836	22.019476	-10.174384	-12.090502	-0.570885	-0.317627	0.128906	0.618164
642.0	14.071588	-19.135632	21.665497	-7.864538	-10.099106	-2.434517	-0.298584	0.085693	0.646729
643.0	27.866966	-32.60501	43.98971	3.322488	-5.430825	-2.750725	-0.29541	0.115723	0.653076
644.0	24.490217	-14.25724	46.347482	4.430515	-2.820678	-1.540156	-0.326172	0.12207	0.639893
645.0	10.984453	-16.06774	46.092909	-0.113706	2.692981	0.110639	-0.383057	0.131104	0.605225
646.0	0.233121	-15.122327	24.073902	1.916868	3.941387	0.702666	-0.438477	0.150635	0.565918
647.0	-5.001904	-6.947872	13.42141	3.516931	3.564833	0.8291	-0.48291	0.172852	0.509277
648.0	-7.616309	-1.062843	7.81694	3.44938	3.686529	0.956931	-0.511963	0.186523	0.448486
649.0	-6.828828	2.53607	4.502935	2.880508	3.544792	0.941892	-0.529297	0.185059	0.39209
650.0	-3.864561	4.199009	8.016396	1.851246	3.486172	0.770748	-0.540039	0.175049	0.338135
651.0	-1.864855	2.965775	11.791184	-0.169559	4.44829	0.414185	-0.550049	0.149658	0.290527
652.0	-0.054838	-1.935898	14.641628	-0.023091	5.016563	0.151378	-0.555664	0.126709	0.247314
653.0	1.473999	-1.433207	15.795259	1.522554	4.998022	-0.024569	-0.561279	0.099365	0.204102
654.0	3.517794	0.262352	16.150106	1.47923	5.722877	-0.173123	-0.56665	0.065186	0.173828
655.0	4.108871	0.210264	14.075621	1.242557	6.383673	-0.260121	-0.578857	0.041992	0.136963
656.0	5.191333	1.313789	12.415125	1.279341	6.707672	-0.302393	-0.597656	0.020996	0.102539
657.0	6.562417	1.70044	11.071832	0.843012	7.037386	-0.344769	-0.610107	0.0	0.059082
658.0	7.726558	1.059901	10.09792	0.366951	7.294107	-0.392923	-0.627197	-0.010254	0.009277
659.0	8.588448	0.004428	9.808879	0.109071	7.408301	-0.404481	-0.628906	-0.022217	-0.049072
660.0	9.551581	-0.502337	10.045558	0.051488	7.369187	-0.374136	-0.627197	-0.012939	-0.107666
661.0	10.651203	-0.442055	10.74619	0.093286	7.255183	-0.370846	-0.59668	-0.020508	-0.17041
662.0	12.501587	-0.262642	11.572176	0.075419	7.118976	-0.35421	-0.585938	-0.021729	-0.233154
663.0	13.029672	-0.113896	12.258741	-0.04162	7.040139	-0.459923	-0.54248	-0.022949	-0.291748
664.0	14.318015	0.166922	13.000502	-0.1459	6.849493	-0.444747	-0.485596	-0.030762	-0.330566
665.0	14.355047	-0.284572	13.277392	-0.619362	6.772978	-0.344496	-0.423828	-0.051514	-0.369385
666.0	13.998296	-1.410049	13.542273	-0.762086	6.517352	-0.173115	-0.372803	-0.074951	-0.380127
667.0	14.650278	-1.48422	14.607727	-0.846694	6.205863	0.081323	-0.323975	-0.100586	-0.375488
668.0	15.350121	-2.603936	15.496855	-1.054537	5.957365	0.408542	-0.29248	-0.126221	-0.373047
669.0	16.269472	-3.935149	15.837652	-1.023573	5.623607	0.760644	-0.265137	-0.15625	-0.37085
670.0	18.500008	-5.714488	16.565001	-0.825605	5.326491	1.063291	-0.260254	-0.171631	-0.353271
671.0	21.433462	-7.669933	18.036701	-0.362503	5.086769	1.267373	-0.26123	-0.201904	-0.34668
672.0	19.756712	-9.612415	13.783569	0.503835	4.766891	1.18791	-0.280518	-0.208496	-0.337891
673.0	35.138732	-12.509893	21.630746	2.318466	3.726043	1.050019	-0.299805	-0.215088	-0.331543
674.0	35.816097	-2.578534	21.051799	2.057284	4.919517	0.993293	-0.311035	-0.212646	-0.348877
675.0	35.967091	1.972072	15.01311	0.764184	5.573783	1.822332	-0.315918	-0.19751	-0.366211
676.0	31.295867	-1.680908	2.76346	-1.162738	4.963078	2.395208	-0.32373	-0.164795	-0.390381
677.0	29.633176	-5.552011	-10.351418	-0.545673	2.649984	2.391695	-0.328857	-0.147461	-0.407715
678.0	30.19334	-2.907176	-24.165301	1.720747	-0.243631	2.210144	-0.342041	-0.141113	-0.407715
679.0	30.011138	0.182601	-36.376217	4.344935	0.050797	1.431447	-0.350586	-0.145508	-0.407715
680.0	25.131135	4.019921	-37.920359	2.065386	2.258132	0.580822	-0.333008	-0.149414	-0.422852
681.0	16.518173	1.924868	-27.895677	-2.486402	4.601462	0.409486	-0.31665	-0.127686	-0.442627
682.0	15.594987	-3.765908	-19.275128	-6.483227	0.752467	1.661622	-0.3396	-0.095215	-0.449219
683.0	0.012294	-7.977201	-34.511839	-1.368236	-6.057565	-1.492499	-0.349121	-0.13208	-0.429443
684.0	-23.882722	34.444581	36.459426	5.374005	-10.793283	-1.148836	-0.422607	-0.137695	-0.362549
685.0	61.105426	19.794624	65.420599	0.158939	-9.40167	1.347822	-0.437744	-0.144287	-0.349365
686.0	11.548551	2.482373	-7.449738	-0.290787	-4.030274	-0.662924	-0.448242	-0.14917	-0.323486
687.0	10.232159	10.990632	13.850292	-1.459231	-6.160157	-0.452042	-0.476563	-0.149414	-0.301758
688.0	31.636578	4.866018	39.034791	-5.625656	-2.287079	-0.407794	-0.474365	-0.147217	-0.301758
689.0	10.541323	-11.859898	14.28806	-3.896178	-1.772404	-0.9272	-0.480713	-0.151855	-0.29541
690.0	6.327672	-9.896371	13.754099	-0.514517	-3.143324	-0.726375	-0.493896	-0.1521	-0.269287
691.0	9.180232	-15.130369	21.191986	-0.907406	-1.867378	-0.100431	-0.500244	-0.154297	-0.273682
692.0	9.857089	-16.722941	9.749343	-1.011537	-1.268602	0.183884	-0.502441	-0.154297	-0.271484
693.0	5.779615	-6.780097	10.815325	2.26555	-2.478096	0.039226	-0.508545	-0.16333	-0.247559
694.0	8.144086	5.872566	17.207722	3.984858	-3.292365	0.080327	-0.514893	-0.169922	-0.228027
695.0	7.214003	3.489314	8.234295	-1.090649	-0.458382	-0.122538	-0.519043	-0.172119	-0.236816
696.0	3.217973	-1.311634	12.854904	-1.679084	0.180312	0.076518	-0.514893	-0.165527	-0.239014
697.0	2.327986	-1.89684	8.023775	0.278238	-1.100439	-0.031638	-0.519043	-0.172119	-0.234619
698.0	7.166225	-0.146489	11.963771	0.601802	-1.173531	0.063822	-0.519043	-0.172119	-0.223633
699.0	4.765989	1.980802	10.375965	-0.705519	-0.297434	0.205725	-0.527832	-0.169922	-0.232422
700.0	4.355503	-0.979908	9.954521	-0.986598	-0.140911	0.19922	-0.52124	-0.169922	-0.228027
701.0	4.439156	-0.711169	9.868142	-0.569422	-0.330839	0.217629	-0.523682	-0.163574	-0.22583
702.0	4.157379	-1.369536	9.476902	-0.8673	-0.061364	0.202956	-0.532715	-0.155029	-0.234619
703.0	3.622497	-1.775454	8.955575	-0.647535	-0.136001	0.179882	-0.523926	-0.15918	-0.228027
704.0	3.49561	-2.245219	8.969623	-0.660115	-0.093683	0.125472	-0.530518	-0.159424	-0.223877
705.0	3.628608	-2.167528	9.093375	-0.495166	-0.151495	0.073569	-0.523926	-0.157227	-0.223877
706.0	3.887228	-1.801803	9.071274	-0.511983	-0.123796	0.050798	-0.52832	-0.155029	-0.226074
707.0	3.606638	-2.228289	8.82782	-0.577109	-0.063394	0.022699	-0.521973	-0.155029	-0.230225
708.0	3.443914	-2.224165	8.7953	-0.452793	-0.096184	-0.018159	-0.52832	-0.155029	-0.230225
709.0	3.626129	-1.959754	8.953993	-0.39856	-0.122373	-0.042898	-0.52832	-0.157227	-0.223877
710.0	3.718625	-1.919406	8.876566	-0.368103	-0.121993	-0.05299	-0.530518	-0.157227	-0.223877
711.0	3.91271	-2.0374	8.916487	-0.298064	-0.112876	-0.056196	-0.526123	-0.15918	-0.232422
712.0	3.837778	-2.090655	8.865285	-0.229966	-0.108708	-0.058322	-0.530762	-0.148682	-0.223877
713.0	3.835284	-1.960453	9.003814	-0.163554	-0.119015	-0.064824	-0.532715	-0.155029	-0.226074
714.0	3.788161	-1.970997	8.843311	-0.161893	-0.112204	-0.060309	-0.534912	-0.155029	-0.226074
715.0	3.812354	-2.110759	8.778925	-0.127983	-0.102886	-0.077863	-0.530518	-0.159424	-0.228027
716.0	3.822854	-2.028205	8.863849	-0.077526	-0.102304	-0.089729	-0.530518	-0.155029	-0.226074
717.0	3.800894	-1.964982	8.774483	-0.070403	-0.102546	-0.095351	-0.526367	-0.152832	-0.230225
718.0	3.765575	-1.975692	8.830197	-0.052695	-0.108888	-0.100659	-0.534668	-0.159424	-0.22168
719.0	3.81928	-2.089177	8.811197	-0.034119	-0.103373	-0.111426	-0.526123	-0.159424	-0.223877
720.0	3.854899	-1.913361	8.811874	0.043139	-0.110116	-0.123499	-0.532715	-0.155029	-0.219482
721.0	3.764406	-1.950007	8.578577	0.059084	-0.09054	-0.132146	-0.52832	-0.155029	-0.226074
722.0	3.660709	-2.028088	8.671859	0.12449	-0.08806	-0.158797	-0.535156	-0.150879	-0.219482
723.0	3.652823	-2.041732	8.710217	0.179936	-0.100111	-0.185186	-0.52832	-0.155029	-0.22168
724.0	3.582052	-2.010479	8.735791	0.205137	-0.108493	-0.219096	-0.534668	-0.159424	-0.217285
725.0	3.241959	-2.019392	8.696896	0.225129	-0.135086	-0.274938	-0.536621	-0.166016	-0.217285
726.0	3.397307	-2.166142	8.673809	0.243842	-0.190855	-0.325486	-0.534424	-0.167969	-0.217285
727.0	3.803663	-2.051898	9.119091	0.300959	-0.281614	-0.346738	-0.527588	-0.174561	-0.217285
728.0	4.846825	-2.039715	9.201821	0.11045	-0.212922	-0.292723	-0.532227	-0.168213	-0.212891
729.0	4.201935	-0.796977	9.42602	0.07552	-0.351092	-0.251124	-0.527588	-0.174561	-0.212891
730.0	3.567381	-1.053068	9.288345	-0.163834	-0.355365	-0.233824	-0.527588	-0.172363	-0.210693
731.0	3.719827	-1.162858	9.29336	-0.15754	-0.563788	-0.206071	-0.527588	-0.174561	-0.206299
732.0	3.926504	-0.909751	9.341346	-0.232338	-0.779417	-0.145297	-0.53418	-0.172607	-0.206299
733.0	3.798361	-1.28025	9.338826	-0.326474	-0.975461	-0.081307	-0.531982	-0.172607	-0.202148
734.0	3.858833	-1.925094	9.202654	-0.279319	-1.197195	-0.055771	-0.540771	-0.172852	-0.193359
735.0	3.998558	-2.08154	9.203015	-0.165465	-1.403068	-0.071548	-0.540527	-0.175049	-0.187012
736.0	4.164077	-1.898312	9.232555	0.008489	-1.618906	-0.10657	-0.545166	-0.168701	-0.176025
737.0	4.201593	-2.029241	9.289226	0.157686	-1.851727	-0.177534	-0.549316	-0.170898	-0.165283
738.0	3.333037	-1.898145	9.667003	0.421604	-2.173917	-0.309057	-0.549316	-0.17334	-0.150146
739.0	3.169801	-1.895592	9.597258	0.51466	-2.519832	-0.526815	-0.551514	-0.173584	-0.13916
740.0	2.50774	-1.802315	9.059932	0.689459	-2.750101	-0.722796	-0.549072	-0.176025	-0.115479
741.0	3.04427	-1.545065	9.214505	0.913701	-3.048093	-1.015077	-0.550781	-0.187012	-0.0979
742.0	3.129882	-1.137413	8.770769	0.858426	-3.525585	-1.205871	-0.548828	-0.183105	-0.072021
743.0	2.153851	-2.391627	8.367163	0.953915	-4.034446	-1.472488	-0.554688	-0.196289	-0.054688
744.0	-4.324896	-1.741815	6.608014	1.603681	-4.753919	-1.886586	-0.54126	-0.203125	-0.02417
745.0	3.437889	-4.751149	4.806118	2.81068	-4.275892	-1.810254	-0.538818	-0.209717	0.001953
746.0	8.323363	3.634571	15.933842	0.314459	-3.566641	-0.757908	-0.538818	-0.212158	0.02124
747.0	4.038145	1.149587	25.092142	-2.692002	-5.093729	-0.923358	-0.532227	-0.212646	0.049561
748.0	12.18591	-3.157078	19.9626	-1.792789	-10.330825	-0.627081	-0.514893	-0.202393	0.10376
749.0	14.614893	0.064482	16.173715	-0.812129	-14.682877	0.78487	-0.480957	-0.177734	0.183838
750.0	15.160716	5.054416	19.541902	-2.316096	-17.873186	0.482997	-0.431396	-0.161377	0.272705
751.0	8.984286	1.952819	33.283075	-7.009309	-16.38089	0.784443	-0.376465	-0.168213	0.313965
752.0	9.543936	-7.848538	25.537524	-11.98821	-11.498004	-0.134363	-0.317627	-0.168457	0.344482
753.0	22.990024	-28.576068	41.687073	-1.282387	-7.65489	-2.176234	-0.268555	-0.140869	0.383545
754.0	29.841737	-20.192505	48.048301	5.430532	-4.136257	-2.571153	-0.231934	-0.07666	0.422119
755.0	14.676532	-10.572937	52.375738	0.213655	0.870897	-0.920924	-0.207275	-0.036133	0.456787
756.0	1.968743	-17.186843	35.24144	0.621156	3.76476	-0.258156	-0.213623	0.019043	0.497559
757.0	-3.50099	-11.619887	20.177316	2.927757	3.776564	0.14596	-0.220459	0.087402	0.547119
758.0	-5.31023	-4.76853	14.533283	3.648652	3.939612	0.361477	-0.256348	0.170654	0.576904
759.0	-5.583247	0.070952	10.10859	2.726873	4.413858	0.457121	-0.300293	0.241211	0.600342
760.0	-3.720516	2.418541	9.068763	1.513488	4.639991	0.427767	-0.361572	0.302979	0.619385
761.0	-1.201988	1.773106	11.095587	0.288704	5.076077	0.30945	-0.420166	0.356445	0.621338
762.0	0.683619	0.625795	13.867343	0.188548	5.434945	0.262423	-0.500488	0.405762	0.614258
763.0	3.098061	0.532042	15.402807	0.490169	5.890579	0.117446	-0.59375	0.453369	0.570557
764.0	5.100282	0.832893	15.228346	0.807731	6.396839	-0.011686	-0.691162	0.490234	0.526855
765.0	6.428166	1.574946	13.6364	0.963498	6.877157	-0.156639	-0.815918	0.503662	0.444336
766.0	7.817623	2.61366	11.877286	1.015264	7.230417	-0.283408	-0.929199	0.502686	0.331299
767.0	8.881073	3.501401	9.733053	0.807823	7.515331	-0.408354	-1.024414	0.474609	0.155762
768.0	9.941568	3.542019	8.64315	0.41697	7.619921	-0.528605	-1.061768	0.414795	-0.043457
769.0	10.485215	3.025558	7.702475	0.134635	7.606981	-0.657662	-1.03125	0.35083	-0.233643
770.0	10.968483	2.464482	7.777414	-0.046877	7.455132	-0.797203	-0.95166	0.310303	-0.402588
771.0	12.046299	2.330741	8.833852	-0.11516	7.202913	-0.947459	-0.820557	0.292969	-0.497559
772.0	13.448755	1.525717	9.870199	-0.21682	6.987558	-1.09766	-0.69751	0.317383	-0.523438
773.0	14.807376	-0.664884	10.882274	-0.410878	6.818756	-1.189612	-0.598389	0.341064	-0.499512
774.0	14.77178	-2.39538	11.668176	-0.290314	6.513528	-1.212509	-0.541504	0.33667	-0.468994
775.0	15.126831	-3.303321	12.694701	-0.444389	6.294127	-1.008154	-0.496094	0.29126	-0.453613
776.0	14.57725	-4.715635	13.637604	-0.744785	6.181296	-0.644817	-0.445557	0.222412	-0.431396
777.0	14.919145	-5.634549	14.555298	-0.756183	5.901976	-0.176817	-0.405273	0.140625	-0.409424
778.0	16.127657	-6.381862	15.157933	-0.93933	5.729448	0.371102	-0.376221	0.069092	-0.374268
779.0	17.120241	-7.337646	15.07736	-0.98901	5.50688	0.959607	-0.36084	0.008789	-0.356689
780.0	18.286343	-7.591364	14.052826	-0.922725	5.209986	1.522695	-0.363525	-0.036621	-0.343262
781.0	20.111003	-8.018748	13.382914	-0.850953	4.900093	1.970255	-0.373047	-0.069092	-0.338867
782.0	22.186076	-8.880007	13.745259	-0.44948	4.568773	2.205892	-0.380859	-0.090576	-0.343018
783.0	25.725526	-9.59734	15.448692	0.123228	4.337779	2.280877	-0.395752	-0.103271	-0.351807
784.0	29.072909	-9.301666	16.630909	0.848493	4.379779	2.270578	-0.406494	-0.107422	-0.375488
785.0	30.728891	-6.679402	14.686285	1.286728	4.62927	2.363743	-0.408447	-0.113525	-0.403809
786.0	31.113516	0.658018	9.806575	1.811972	4.402031	2.90135	-0.406494	-0.108887	-0.42334
787.0	31.331394	4.52745	3.77917	0.792485	3.644762	3.871782	-0.415771	-0.097656	-0.449219
788.0	31.249394	0.592741	-9.742755	-0.094781	1.660781	3.288951	-0.42041	-0.088867	-0.468994
789.0	32.327992	0.837608	-24.444451	2.161728	0.173587	2.089309	-0.431152	-0.093262	-0.466797
790.0	30.190645	3.757757	-33.121128	4.349757	0.528853	0.554622	-0.432617	-0.112549	-0.473145
791.0	24.073139	6.905545	-32.802837	2.027775	2.36048	-0.562509	-0.42334	-0.125244	-0.486084
792.0	14.796075	1.106505	-22.610564	-4.103996	3.864724	-0.336238	-0.409424	-0.096924	-0.512207
793.0	14.921857	-12.914506	-18.383231	-8.847427	2.307661	1.506815	-0.422363	-0.041016	-0.514648
794.0	-2.694116	-20.755543	-39.606302	-4.859209	-3.198393	-0.709549	-0.445557	-0.058594	-0.497314
795.0	-42.582315	23.98918	33.384011	4.387956	-10.714464	-1.409921	-0.536377	-0.072998	-0.410645
796.0	59.782826	3.701431	54.94684	2.911515	-16.743321	3.461363	-0.595215	-0.067627	-0.343506
797.0	25.483679	9.903077	0.706504	1.749213	-4.390152	1.667471	-0.620605	-0.085693	-0.293701
798.0	14.901027	28.360362	16.107227	7.92845	-7.212577	-0.771917	-0.644043	-0.094971	-0.237305
799.0	32.035577	38.643448	26.48588	-8.769215	-4.903079	0.251707	-0.6604	-0.060791	-0.22876
800.0	23.244521	-15.512132	33.669261	-14.521782	2.693486	-0.46396	-0.661621	-0.030518	-0.250732
801.0	3.722427	-33.941903	9.804347	-7.709844	1.171452	-1.342119	-0.664063	-0.02832	-0.244141
802.0	1.489439	-33.603836	6.455993	1.538671	-2.871494	-0.630125	-0.680664	-0.043945	-0.216064
803.0	8.867147	-12.932228	6.371143	8.70679	-6.092769	-0.263155	-0.697266	-0.066162	-0.159668
804.0	13.28692	8.909034	26.602617	7.532802	-4.922669	-0.114525	-0.700928	-0.079346	-0.137695
805.0	8.322448	6.479278	4.373857	2.185832	-0.64157	-0.402129	-0.705322	-0.077393	-0.133545
806.0	5.192924	2.212283	9.0502	-3.670916	-0.218119	-0.038455	-0.707764	-0.070801	-0.14209
807.0	3.592741	-1.841171	14.718461	-1.093935	0.478046	-0.145582	-0.70752	-0.075195	-0.12915
808.0	2.268592	-2.802998	8.418907	0.399389	-0.457638	-0.19455	-0.701172	-0.075439	-0.124756
809.0	3.268716	-0.976384	9.304372	1.571386	-1.288738	-0.315443	-0.713623	-0.088379	-0.114014
810.0	6.479623	2.251829	12.048441	0.937779	-0.915403	-0.14935	-0.71167	-0.084229	-0.114014
811.0	4.707998	0.705517	9.894598	-1.014379	0.147902	-0.14017	-0.713623	-0.086182	-0.114014
812.0	2.917007	-0.951789	9.654605	-1.012267	0.040213	-0.125458	-0.709229	-0.088379	-0.114014
813.0	3.428604	-1.046972	9.285703	-0.551135	-0.338679	-0.009489	-0.713623	-0.088379	-0.114014
814.0	3.815474	-0.703463	9.5957	-0.387081	-0.49186	0.014454	-0.718262	-0.079834	-0.107422
815.0	3.813415	-0.977077	9.33319	-0.897897	-0.221192	-0.040171	-0.71167	-0.082031	-0.111816
816.0	3.698358	-1.660756	9.024454	-0.837168	-0.240049	-0.056082	-0.71167	-0.079834	-0.105225
817.0	5.593183	-1.405674	9.59013	-0.200032	-0.453599	-0.028789	-0.716064	-0.080078	-0.098877
818.0	4.879532	-0.406017	9.176157	-0.295981	-0.085001	-0.044618	-0.716064	-0.082275	-0.101074
819.0	4.25225	-0.789338	9.270407	-0.575219	0.084027	-0.000216	-0.711426	-0.086182	-0.114014
820.0	4.021815	-1.586402	8.916237	-0.280771	0.011678	0.014856	-0.714111	-0.077881	-0.105225
821.0	3.842374	-1.343459	9.048739	-0.097696	-0.012146	-0.022877	-0.716064	-0.080078	-0.103271
822.0	4.170738	-1.418264	8.934188	-0.124289	0.007382	-0.00988	-0.720459	-0.082031	-0.107422
823.0	4.039408	-1.542439	8.890019	-0.116172	0.059191	-0.039524	-0.714111	-0.077881	-0.107422
824.0	4.108629	-1.547304	8.897777	-0.007809	0.040123	-0.052593	-0.716064	-0.082031	-0.105225
825.0	3.958302	-1.469493	8.995491	0.006216	0.062548	-0.054191	-0.713867	-0.082031	-0.105225
826.0	3.912039	-1.620641	8.883485	0.001523	0.08595	-0.096432	-0.71167	-0.079834	-0.111816
827.0	3.937389	-1.19372	8.906736	0.137212	0.021563	-0.087914	-0.713623	-0.088379	-0.111816
828.0	3.912913	-0.987488	9.006426	0.028413	0.036118	-0.080656	-0.713867	-0.084229	-0.107422
829.0	3.848186	-0.942602	8.990269	0.007863	0.01056	-0.046113	-0.715576	-0.090576	-0.109619
830.0	3.856367	-1.099592	8.970237	-0.058958	-0.000378	-0.060361	-0.716064	-0.079834	-0.107422
831.0	3.863139	-0.881785	8.952589	-0.004939	-0.047978	-0.022395	-0.718262	-0.082275	-0.101074
832.0	3.799837	-0.940547	8.964737	-0.105628	-0.037913	-0.029543	-0.716309	-0.077881	-0.107422
833.0	3.765632	-0.958356	8.950045	-0.11708	-0.087231	0.00757	-0.716064	-0.080078	-0.103271
834.0	3.731955	-1.002045	8.959662	-0.172555	-0.111524	-0.011247	-0.713623	-0.086426	-0.101074
835.0	3.758491	-1.108297	8.968186	-0.214605	-0.171849	0.011792	-0.713867	-0.084229	-0.105225
836.0	3.658539	-0.956838	8.93558	-0.22931	-0.245376	0.021549	-0.713867	-0.080078	-0.103271
837.0	3.671749	-0.821962	9.129889	-0.319636	-0.410175	0.047325	-0.71582	-0.084473	-0.09668
838.0	3.38755	-0.824743	9.180619	-0.467039	-0.462794	0.04302	-0.711914	-0.077881	-0.09668
839.0	3.804693	-1.148515	9.103258	-0.468604	-0.633914	0.06527	-0.716064	-0.078125	-0.090088
840.0	3.535022	-1.099347	9.198274	-0.477544	-0.786885	0.054938	-0.7229	-0.073975	-0.081543
841.0	3.776318	-1.190667	9.319777	-0.476519	-0.979787	0.110889	-0.7229	-0.07373	-0.08374
842.0	3.864391	-1.75071	9.107711	-0.484728	-1.136928	0.066222	-0.720703	-0.071777	-0.074951
843.0	3.697183	-2.125476	9.316937	-0.358665	-1.284925	0.028703	-0.722656	-0.076172	-0.066406
844.0	3.841369	-2.359759	9.250368	-0.127801	-1.541593	-0.061583	-0.725098	-0.070068	-0.05127
845.0	3.710053	-1.977004	9.462091	0.046757	-1.792451	-0.190019	-0.7229	-0.070068	-0.040283
846.0	3.948379	-2.159334	9.318194	0.284165	-2.039137	-0.298236	-0.727051	-0.076904	-0.025146
847.0	3.516323	-1.650772	9.5348	0.475498	-2.359649	-0.426281	-0.722412	-0.079102	-0.01001
848.0	3.607131	-1.662617	9.082922	0.620885	-2.612757	-0.591077	-0.731201	-0.079346	0.007324
849.0	2.902414	-1.24885	8.534522	0.668226	-2.860394	-0.83559	-0.724121	-0.088135	0.022461
850.0	3.911767	-1.622594	8.550319	0.760848	-3.093801	-1.046874	-0.732666	-0.093018	0.050781
851.0	3.807996	-1.904525	8.585136	0.984955	-3.58961	-1.168873	-0.723389	-0.104004	0.074707
852.0	0.728855	-2.005318	8.507311	1.096323	-3.932765	-1.387812	-0.721191	-0.106445	0.102783
853.0	4.019727	-3.719804	6.008236	1.720979	-4.651679	-1.658067	-0.711914	-0.115479	0.135498
854.0	-0.530514	0.655835	8.169257	2.042285	-4.306828	-1.942857	-0.713623	-0.130859	0.157227
855.0	5.150266	3.651645	12.492564	-3.434813	-1.861399	-1.088635	-0.710938	-0.141846	0.166016
856.0	5.059459	-1.129721	24.513043	-2.905948	-5.136274	-1.407407	-0.70166	-0.152832	0.200684
857.0	12.650934	-3.305113	19.528686	-2.147212	-9.877743	-1.140385	-0.681885	-0.156006	0.272217
858.0	13.916036	-2.421857	16.401888	-0.368389	-14.392846	0.336887	-0.629883	-0.14624	0.363281
859.0	14.795006	4.264106	18.604752	-0.970877	-17.53665	0.316206	-0.570801	-0.145264	0.45874
860.0	8.283227	-0.667238	23.112012	-4.849883	-15.985291	0.348003	-0.513184	-0.167236	0.517578
861.0	7.733141	-3.186515	15.610241	-10.192847	-12.057178	-0.121406	-0.448242	-0.214844	0.548096
862.0	17.381249	-20.328329	27.126269	-4.638883	-11.281945	-1.634688	-0.397705	-0.223633	0.583008
863.0	43.589598	-27.188789	51.073616	3.477483	-6.221892	-2.306354	-0.383545	-0.193848	0.602295
864.0	21.791208	-15.263376	54.251856	2.057562	-0.795318	-0.572398	-0.399902	-0.170166	0.5979
865.0	7.823018	-19.001438	43.659549	0.227595	3.107025	0.884337	-0.426758	-0.152832	0.578369
866.0	0.364656	-13.603672	24.952487	2.269945	4.295514	1.371711	-0.45874	-0.11377	0.549805
867.0	-2.36097	-7.172578	15.09186	4.097119	4.121023	1.405654	-0.484375	-0.072754	0.530029
868.0	-2.55807	-0.699639	10.173347	5.852018	3.463048	1.126703	-0.506104	-0.018799	0.512451
869.0	-0.710441	6.843556	8.929997	5.073078	4.104517	0.901365	-0.524902	0.015869	0.484131
870.0	-1.165971	8.585128	4.949596	3.097925	4.991484	0.289343	-0.541016	0.042236	0.451416
871.0	-2.052878	8.275614	4.569035	0.544039	5.009452	-0.057143	-0.562988	0.04248	0.42749
872.0	-0.38937	6.439878	7.019849	-1.953787	5.191741	-0.197024	-0.582764	0.049072	0.401367
873.0	1.42173	-0.45995	12.424173	-1.476712	5.992416	-0.413288	-0.596191	0.051758	0.371094
874.0	1.755948	-0.192706	11.435002	1.137266	5.134635	-0.624212	-0.618164	0.05835	0.340576
875.0	6.534275	2.687425	15.930213	1.505551	5.601744	-0.795883	-0.637939	0.062988	0.318848
876.0	6.755775	1.875891	13.638952	0.669659	6.621345	-0.950942	-0.668701	0.067627	0.286377
877.0	7.659627	2.074172	12.521052	1.140757	6.736167	-1.035071	-0.699219	0.063721	0.245117
878.0	9.367307	3.325392	10.720328	0.773047	7.066191	-1.104393	-0.729492	0.060059	0.195313
879.0	9.999535	2.249717	9.446917	0.213033	7.338711	-1.11501	-0.757813	0.056152	0.149658
880.0	10.45414	1.259333	8.478533	0.022949	7.320146	-1.137297	-0.78418	0.056885	0.095459
881.0	11.129816	0.889534	8.888205	-0.103288	7.19472	-1.165866	-0.802002	0.066162	0.043457
882.0	12.462312	0.962281	9.92722	-0.091781	6.977127	-1.226584	-0.822266	0.07959	-0.004395
883.0	13.999294	0.9547	10.871655	-0.262661	6.811511	-1.288131	-0.840332	0.097412	-0.054443
884.0	14.512856	0.20608	12.099463	-0.463129	6.61604	-1.398879	-0.856445	0.113281	-0.119629
885.0	15.651237	-0.792297	12.213073	-0.804367	6.444549	-1.331085	-0.861572	0.127197	-0.197754
886.0	15.221904	-2.111405	13.023447	-1.281079	6.307063	-1.100897	-0.858154	0.151855	-0.273682
887.0	15.127791	-3.503251	13.28104	-1.527022	6.072984	-0.775386	-0.828369	0.166016	-0.355957
888.0	15.796522	-4.694879	14.288066	-1.707908	5.848135	-0.358801	-0.787842	0.18042	-0.438477
889.0	17.196321	-5.586275	15.790349	-1.620696	5.618561	0.118909	-0.731689	0.187744	-0.499023
890.0	19.242444	-6.053483	16.765778	-1.411095	5.476623	0.584615	-0.668701	0.186768	-0.555176
891.0	21.565669	-6.800242	17.719807	-1.152153	5.456033	1.051621	-0.607666	0.18335	-0.60498
892.0	24.03448	-8.213556	18.570068	-0.65141	5.484018	1.421461	-0.54834	0.168945	-0.639404
893.0	25.569166	-9.292426	17.852213	0.110427	5.49959	1.626775	-0.493408	0.152344	-0.671875
894.0	27.009957	-8.280141	14.942098	1.237405	5.199622	1.864044	-0.44873	0.124756	-0.691162
895.0	31.069759	-0.27482	12.481814	2.217913	4.919091	2.414792	-0.411133	0.10791	-0.708252
896.0	29.976982	1.321447	6.296694	0.546665	4.856021	3.177895	-0.365479	0.108398	-0.731934
897.0	29.446044	-6.861244	-4.488173	0.535149	3.815662	2.917354	-0.345459	0.0979	-0.738525
898.0	30.260451	-5.570557	-13.589872	2.999945	1.162139	2.234944	-0.34668	0.070068	-0.742676
899.0	31.710458	1.920711	-23.266886	5.564412	-0.829193	1.078622	-0.355469	0.013916	-0.733643
900.0	32.146206	7.804644	-32.431443	6.328222	-0.862851	-0.114082	-0.360596	-0.020508	-0.742188
901.0	24.571616	7.485523	-37.342487	1.567354	1.919613	-0.347841	-0.327637	-0.026611	-0.744385
902.0	19.579141	-4.508338	-24.319641	-6.599536	4.346564	1.544682	-0.306396	0.044434	-0.755371
903.0	13.161412	-19.060331	-33.995887	-11.295913	-2.5629	2.294405	-0.337158	0.108643	-0.738525
904.0	-9.99281	5.812417	-15.15459	4.291461	-1.299551	-3.098753	-0.376953	0.063232	-0.729736
905.0	-10.397948	32.837542	49.520664	-0.448779	-18.625673	1.901774	-0.485352	0.057617	-0.6604
906.0	53.276182	12.284166	41.32026	2.35453	-4.944755	1.203163	-0.52417	0.04834	-0.630127
907.0	16.134428	6.664011	-4.999377	2.983671	-6.93429	-0.882586	-0.558105	0.030762	-0.604004
908.0	31.616367	27.169193	36.739764	-8.075993	-3.395948	0.13404	-0.56543	0.105957	-0.59375
909.0	15.956169	-17.392478	29.727872	-11.199416	2.25155	-0.354536	-0.553955	0.146729	-0.5896
910.0	4.819539	-23.711691	8.191737	-3.713538	-1.495412	-0.901336	-0.57373	0.152832	-0.567871
911.0	6.866542	-28.372649	20.201886	1.657026	-3.218465	-0.237118	-0.592773	0.141846	-0.554932
912.0	8.831924	-11.193792	5.86852	5.461761	-4.850719	0.009854	-0.626221	0.102539	-0.531006
913.0	11.701997	9.214305	25.666643	7.047307	-5.207633	0.159174	-0.644287	0.070068	-0.51123
914.0	9.16894	5.86354	3.780375	1.008754	-0.99285	-0.26338	-0.648682	0.069824	-0.502686
915.0	4.484246	1.304003	11.033837	-3.697881	-0.063845	-0.03399	-0.645264	0.093506	-0.500488
916.0	2.610702	-0.958779	13.597084	-1.829045	0.129999	-0.091273	-0.647705	0.100098	-0.504883
917.0	3.406944	-2.643369	9.055708	-0.388823	-0.990505	-0.203895	-0.65625	0.095459	-0.491943
918.0	6.630317	-0.156979	12.007544	0.95311	-1.594987	-0.055721	-0.656006	0.091064	-0.483154
919.0	5.974622	3.245433	10.084075	-1.259806	-0.041103	-0.027081	-0.660645	0.099609	-0.485352
920.0	4.929584	-1.426693	10.750669	-2.368969	0.456817	0.079598	-0.661133	0.108398	-0.485596
921.0	3.175508	-2.46288	8.495172	-1.092318	0.004702	-0.00708	-0.661377	0.119141	-0.485596
922.0	4.072408	-2.003035	9.750077	-0.373641	-0.319961	0.020912	-0.661377	0.114746	-0.479004
923.0	4.223076	-1.030466	9.384651	-0.538007	-0.084988	-0.034196	-0.65918	0.116943	-0.479004
924.0	3.80185	-2.344092	9.105029	-0.533795	0.012281	-0.039963	-0.666016	0.125488	-0.483398
925.0	3.52097	-2.294801	8.944043	-0.118922	-0.06636	-0.110122	-0.663818	0.121338	-0.487793
926.0	4.128152	-1.753417	9.063498	0.031682	-0.06309	-0.123531	-0.665771	0.118896	-0.483398
927.0	3.952796	-1.711936	8.98223	-0.067723	0.032286	-0.142309	-0.666016	0.123291	-0.479004
928.0	3.989617	-1.721828	9.020813	0.052454	0.014871	-0.137136	-0.661621	0.121094	-0.481201
929.0	3.908204	-1.237431	9.001456	0.115936	0.01194	-0.133927	-0.663574	0.116699	-0.479004
930.0	3.944593	-1.166714	9.037795	0.050953	0.019841	-0.101643	-0.661377	0.114746	-0.487793
931.0	3.917125	-1.248964	8.998766	0.068464	0.012293	-0.091365	-0.66333	0.112549	-0.481201
932.0	3.914243	-1.232856	8.958268	0.073076	0.003532	-0.084466	-0.661377	0.116699	-0.479004
933.0	4.081568	-1.250291	9.07106	0.069805	0.014601	-0.061776	-0.660889	0.106201	-0.481201
934.0	3.894622	-1.192965	8.908742	0.071985	0.027623	-0.057371	-0.658936	0.112549	-0.481201
935.0	3.754534	-1.375288	9.050563	0.058209	0.042653	-0.036961	-0.656738	0.110352	-0.481201
936.0	3.509783	-1.437782	8.96118	0.094893	0.028445	-0.054145	-0.665283	0.108154	-0.479004
937.0	3.652728	-1.595094	9.013104	0.091538	0.00708	-0.058823	-0.661133	0.110352	-0.479004
938.0	3.643755	-1.520799	8.953297	0.122303	-0.000871	-0.081662	-0.660889	0.104004	-0.481201
939.0	3.828849	-1.230013	9.037565	0.166166	-0.024353	-0.092414	-0.660889	0.104004	-0.483398
940.0	3.769257	-1.034808	9.054773	0.119932	-0.01394	-0.051437	-0.669678	0.108154	-0.481201
941.0	3.779663	-1.344198	9.02366	0.046654	0.001333	-0.080234	-0.667725	0.110352	-0.487549
942.0	3.858766	-1.065767	8.969867	0.14409	-0.056327	-0.07429	-0.661377	0.116943	-0.483398
943.0	3.860845	-0.959854	9.053601	0.065449	-0.058179	-0.043137	-0.663086	0.104004	-0.487549
944.0	3.80922	-1.22923	8.960791	0.013313	-0.069035	-0.046834	-0.656738	0.106201	-0.485352
945.0	3.77055	-1.34901	8.958684	0.01149	-0.101383	-0.053873	-0.667236	0.099609	-0.476807
946.0	3.717546	-1.262749	8.999769	0.005278	-0.132757	-0.071222	-0.663086	0.10376	-0.476807
947.0	3.517086	-1.028183	8.97283	-0.007814	-0.180069	-0.064509	-0.665039	0.099609	-0.481201
948.0	3.539113	-0.564422	9.242832	-0.033774	-0.305437	-0.049392	-0.671875	0.10376	-0.479004
949.0	3.478153	-0.843708	9.143894	-0.265486	-0.345894	-0.028546	-0.669434	0.101563	-0.468018
950.0	3.431953	-0.859755	9.150375	-0.277333	-0.488194	-0.015269	-0.671875	0.108154	-0.472412
951.0	3.659236	-0.725618	9.220298	-0.331855	-0.644134	0.018465	-0.671631	0.103516	-0.46167
952.0	3.543219	-0.95335	9.239441	-0.511027	-0.759449	0.018878	-0.678467	0.112061	-0.459473
953.0	3.510955	-1.3288	9.223194	-0.528096	-0.919755	0.016926	-0.682617	0.107666	-0.44873
954.0	3.755142	-1.568411	9.173299	-0.48198	-1.101938	-0.016618	-0.689697	0.116211	-0.442139
955.0	3.925664	-1.626459	9.29731	-0.423058	-1.238422	-0.076981	-0.693848	0.11377	-0.431396
956.0	3.839868	-1.964566	9.276104	-0.403591	-1.348776	-0.150994	-0.702637	0.115967	-0.420654
957.0	3.582892	-2.109507	9.445777	-0.172371	-1.583995	-0.236989	-0.713379	0.111328	-0.409668
958.0	3.607891	-1.916919	9.513061	0.096657	-1.914807	-0.301842	-0.719727	0.109131	-0.396729
959.0	2.50292	-1.676591	9.937081	0.429556	-2.19425	-0.463041	-0.72583	0.0979	-0.372803
960.0	2.672145	-2.125855	9.727185	0.703675	-2.734478	-0.663671	-0.740723	0.093262	-0.355469
961.0	3.346827	-1.686665	8.803061	0.905859	-3.230254	-0.967676	-0.751221	0.084473	-0.335938
962.0	2.688362	-1.493976	8.693774	0.913511	-3.501169	-1.141867	-0.761719	0.075439	-0.307861
963.0	1.761815	-2.715241	8.102326	1.784806	-4.228787	-1.371889	-0.778076	0.05127	-0.272949
964.0	3.147592	-2.769289	7.615369	2.091829	-4.817671	-1.527712	-0.786133	0.033447	-0.233887
965.0	6.245179	-2.948866	6.918298	2.073482	-5.596531	-1.768663	-0.800293	0.01123	-0.19043
966.0	-1.897348	5.363902	13.748223	-1.371205	-2.662254	-1.408862	-0.806885	0.010986	-0.17749
967.0	2.25484	-1.155844	14.427276	-3.004511	-2.642917	-1.348857	-0.806396	0.003906	-0.134033
968.0	9.919608	-1.566832	20.70877	-1.724637	-6.777529	-0.822884	-0.823486	-0.001221	-0.069092
969.0	14.21055	-0.600134	15.592363	-1.198154	-11.247971	-0.442279	-0.823242	-0.00708	0.032715
970.0	14.206393	1.574959	17.975147	0.125496	-15.417227	0.437078	-0.807861	-0.002197	0.167236
971.0	12.845197	0.475407	22.716606	-1.447867	-17.573378	0.437981	-0.76416	0.000244	0.305908
972.0	5.829222	1.629076	30.125331	-5.861247	-13.268302	0.00544	-0.727783	-0.030762	0.388672
973.0	13.751567	-12.710216	28.788665	-6.019585	-10.275754	-0.112111	-0.685547	-0.048828	0.45166
974.0	19.881704	-20.081276	43.99732	4.531385	-6.755028	-1.347562	-0.660156	-0.027588	0.486328
975.0	27.213507	-5.099008	46.563148	4.278921	-2.945204	-1.622506	-0.651367	-0.031982	0.492676
976.0	9.782976	-5.496594	46.878482	-1.609284	2.805577	-0.428768	-0.672852	-0.04248	0.471191
977.0	-0.306843	-12.722555	26.295316	-0.871765	4.197356	-0.003444	-0.687744	-0.050537	0.429932
978.0	-5.713507	-10.040819	15.205066	0.360252	4.30012	0.270215	-0.70752	-0.050293	0.403809
979.0	-6.432804	-6.942549	9.948173	1.890043	3.884552	0.525133	-0.723389	-0.036865	0.366943
980.0	-4.289688	-2.133566	7.99322	3.405776	2.90695	0.538493	-0.734375	-0.030273	0.345215
981.0	-1.322082	1.356892	11.763998	3.246516	2.664129	0.397452	-0.741211	-0.025635	0.314941
982.0	0.771364	4.363498	11.346977	0.256703	4.633025	0.222202	-0.756592	-0.027344	0.278076
983.0	0.466047	-0.232232	12.75546	-0.831022	5.280093	0.18366	-0.764893	-0.039551	0.228271
984.0	1.728609	-0.122166	13.440918	0.782021	5.030646	0.012691	-0.769043	-0.043213	0.189209
985.0	5.258959	3.12859	15.149736	1.065664	5.46986	-0.163091	-0.777588	-0.053467	0.139404
986.0	6.250283	3.359049	13.569536	0.481951	6.364176	-0.37292	-0.7771	-0.065674	0.091797
987.0	6.912311	3.723459	11.71413	0.606585	6.697026	-0.529747	-0.772217	-0.084229	0.037598
988.0	8.399069	4.886991	9.897801	0.487624	6.943055	-0.672278	-0.767578	-0.09668	-0.003418
989.0	8.818788	5.125666	8.031992	-0.031937	7.149841	-0.82226	-0.753906	-0.115234	-0.061768
990.0	9.018457	3.819047	7.151606	-0.362316	7.154645	-0.928817	-0.738281	-0.127441	-0.10083
991.0	9.975455	3.917984	7.389054	-0.249724	6.888214	-1.026893	-0.724854	-0.135498	-0.141846
992.0	11.117725	4.185348	8.369835	-0.346685	6.729782	-1.154044	-0.70752	-0.136963	-0.174316
993.0	12.458753	3.96465	9.885339	-0.356872	6.52458	-1.313965	-0.691895	-0.151367	-0.217529
994.0	13.505758	3.210065	10.722263	-0.457433	6.353666	-1.426437	-0.676514	-0.153076	-0.256592
995.0	14.016093	1.313986	11.146065	-0.604061	6.261602	-1.427051	-0.658936	-0.163086	-0.297607
996.0	13.518527	-0.394095	11.022448	-0.593975	6.010068	-1.307815	-0.63916	-0.166748	-0.341064
997.0	13.651961	-1.147129	11.743162	-0.579596	5.725971	-1.022111	-0.608154	-0.181152	-0.379883
998.0	13.098123	-2.03199	12.194976	-0.732532	5.542184	-0.653638	-0.597168	-0.187012	-0.416748
999.0	13.082388	-2.828966	13.056833	-0.802899	5.277755	-0.198623	-0.575439	-0.186523	-0.447021
1000.0	13.199891	-3.565583	13.10039	-1.00258	5.022953	0.320298	-0.55835	-0.181885	-0.479492
1001.0	12.949249	-4.344159	12.750703	-1.142364	4.71842	0.877937	-0.536621	-0.183594	-0.503418
1002.0	13.542908	-5.388555	12.273744	-1.221506	4.328095	1.415122	-0.528809	-0.163818	-0.531494
1003.0	15.077838	-6.49027	12.583234	-1.065797	3.929058	1.839945	-0.509766	-0.150391	-0.55542
1004.0	15.949286	-8.330242	10.580351	-0.288999	3.416602	2.03449	-0.503906	-0.13501	-0.590088
1005.0	22.035091	-9.773018	17.0681	0.571005	2.834339	2.247448	-0.495361	-0.130371	-0.607422
1006.0	26.057458	-7.958494	18.92614	1.587252	3.521746	1.95075	-0.478271	-0.125488	-0.637939
1007.0	27.963242	-7.288697	18.664711	2.053174	3.777496	2.065011	-0.452148	-0.127441	-0.657227
1008.0	30.994567	-5.384487	17.578487	2.616841	4.207633	2.089826	-0.42334	-0.137695	-0.674561
1009.0	32.942329	0.376216	13.117968	2.979437	4.660716	2.379499	-0.390625	-0.141602	-0.702637
1010.0	34.86937	1.949691	6.151376	1.664947	4.274359	3.004322	-0.366943	-0.134766	-0.713379
1011.0	34.32146	-2.174324	-8.383904	1.381535	2.075098	2.48049	-0.353271	-0.149658	-0.719971
1012.0	30.161377	-1.862461	-28.81296	4.196291	0.416368	1.300555	-0.352051	-0.182129	-0.717529
1013.0	25.354044	0.9499	-41.604064	8.439857	1.240938	-0.711801	-0.332031	-0.248779	-0.699951
1014.0	19.330376	5.192027	-39.684542	4.051886	3.715385	-1.964313	-0.290527	-0.254883	-0.721436
1015.0	14.239764	2.153587	-29.726323	-5.343461	7.236831	-0.296632	-0.249023	-0.204834	-0.756348
1016.0	5.687688	-9.255995	-26.793818	-11.259377	1.099987	2.153749	-0.256348	-0.125	-0.776123
1017.0	-36.263972	13.389698	9.808785	-8.951841	-5.454091	-2.0227	-0.332764	-0.063232	-0.754883
1018.0	9.598161	-14.864443	13.425766	-4.805614	-14.958713	0.357797	-0.430176	-0.077148	-0.705322
1019.0	34.74389	-8.92446	49.298796	11.316101	-11.219567	0.836519	-0.495117	-0.13623	-0.650879
1020.0	16.549103	12.115689	-6.776978	6.547019	-6.641805	2.165826	-0.538086	-0.151855	-0.614014
1021.0	28.216629	36.526825	26.778288	-5.083174	-3.867969	1.086447	-0.564453	-0.085449	-0.605713
1022.0	23.011225	4.042902	30.328995	-12.16743	-0.228596	0.769641	-0.55835	-0.022705	-0.623291
1023.0	7.870958	-12.097629	11.450693	-7.074162	-0.457558	-0.987055	-0.565674	-0.001221	-0.625732
1024.0	4.265844	-25.86511	22.632535	-2.543652	-1.708895	-0.557223	-0.572754	0.013672	-0.616943
1025.0	6.586027	-25.039057	11.865009	-0.452724	-1.83428	0.190154	-0.592041	0.009033	-0.595459
1026.0	5.333097	-8.451096	6.518506	5.360716	-4.226565	-0.102789	-0.622803	-0.04126	-0.55835
1027.0	6.76786	7.357953	22.016761	10.155106	-7.449297	-0.228326	-0.657959	-0.087158	-0.512695
1028.0	12.374111	7.627304	8.277038	2.148608	-1.68245	-0.314611	-0.655762	-0.084961	-0.510498
1029.0	6.958597	4.569579	8.986665	-2.595323	-0.02363	-0.520975	-0.658447	-0.073975	-0.519287
1030.0	4.849078	0.316178	17.720693	-2.527203	0.888946	-0.149308	-0.654541	-0.063232	-0.523682
1031.0	3.763428	-1.394066	8.374556	-0.940999	-0.00378	-0.247454	-0.654541	-0.06543	-0.525879
1032.0	3.428047	-0.782452	10.032365	0.275045	-0.65198	-0.113598	-0.663086	-0.06543	-0.51709
1033.0	3.92086	-0.825544	9.743686	1.21921	-1.182083	-0.106954	-0.666992	-0.076416	-0.506348
1034.0	4.242733	0.730238	10.724119	1.043945	-1.099397	-0.094039	-0.664551	-0.080811	-0.50415
1035.0	5.309547	1.72232	9.489268	-0.568517	-0.091291	-0.048113	-0.667236	-0.072266	-0.50415
1036.0	4.028097	-0.476763	9.748006	-1.049356	0.205404	-0.020385	-0.665039	-0.070068	-0.501953
1037.0	3.180366	-0.843272	8.985701	-0.795502	0.032759	-0.015609	-0.66748	-0.063477	-0.50415
1038.0	4.347394	-0.812297	9.188273	-0.28794	-0.310377	0.003035	-0.671875	-0.063477	-0.50415
1039.0	4.350796	-0.137299	9.497709	0.040727	-0.425744	0.002156	-0.677979	-0.072266	-0.499756
1040.0	4.330778	0.527652	9.225446	-0.800262	0.052877	0.030483	-0.671875	-0.061279	-0.508545
1041.0	3.984987	-0.511742	9.108535	-1.143156	0.195736	0.071918	-0.674316	-0.055176	-0.497803
1042.0	3.940609	-1.214929	9.114851	-0.745265	0.102355	0.065847	-0.676758	-0.050537	-0.512939
1043.0	3.947303	-1.101326	9.10593	-0.304642	-0.038846	0.034513	-0.667969	-0.050537	-0.508545
1044.0	4.016887	-0.869723	9.242917	-0.165603	-0.031708	0.013092	-0.674805	-0.046387	-0.508545
1045.0	3.863585	-0.928894	9.078967	-0.230804	0.060164	-0.010771	-0.674561	-0.050537	-0.506348
1046.0	3.742085	-1.146937	9.015223	-0.145782	0.042996	-0.022414	-0.670166	-0.048584	-0.50415
1047.0	3.810697	-0.979634	9.052089	-0.046806	0.015389	-0.038757	-0.667969	-0.050537	-0.506348
1048.0	3.87039	-0.822785	9.032349	-0.058106	0.035718	-0.045065	-0.67041	-0.046387	-0.510742
1049.0	3.806652	-0.714149	9.0034	-0.068443	0.038468	-0.039453	-0.665771	-0.050537	-0.508545
1050.0	3.750298	-0.664907	9.04028	-0.084091	0.032949	-0.030153	-0.670166	-0.050781	-0.499756
1051.0	3.675322	-0.548112	9.040964	-0.109754	0.019071	-0.012036	-0.670166	-0.050537	-0.506348
1052.0	3.721872	-0.584161	9.049887	-0.144648	0.009739	0.004385	-0.674805	-0.044189	-0.506348
1053.0	3.718602	-0.595645	9.007077	-0.175066	0.000761	0.019328	-0.67041	-0.046387	-0.497803
1054.0	3.739923	-0.610935	9.032989	-0.199205	-0.008722	0.033868	-0.674805	-0.044189	-0.50415
1055.0	3.738238	-0.705204	9.03952	-0.245287	0.00039	0.042188	-0.670654	-0.037842	-0.506348
1056.0	3.743593	-0.759915	8.992096	-0.271987	-0.003385	0.048848	-0.675049	-0.037598	-0.508545
1057.0	3.74835	-0.842045	9.012736	-0.29136	-0.009676	0.048163	-0.672852	-0.039795	-0.506348
1058.0	3.719608	-0.839027	8.986264	-0.289815	-0.01395	0.053034	-0.675049	-0.035645	-0.506348
1059.0	3.662877	-0.759329	8.997414	-0.323401	-0.019301	0.059733	-0.675049	-0.037842	-0.506348
1060.0	3.668118	-0.796867	9.03551	-0.364324	-0.047364	0.070067	-0.666504	-0.033447	-0.506348
1061.0	3.639575	-0.948627	9.020377	-0.401493	-0.075236	0.080373	-0.670898	-0.033447	-0.504395
1062.0	3.534122	-1.021841	9.059547	-0.417121	-0.112308	0.074391	-0.675537	-0.024902	-0.504395
1063.0	3.471682	-1.160027	9.114942	-0.403868	-0.195814	0.067003	-0.675537	-0.022705	-0.504395
1064.0	3.413347	-1.294686	9.124921	-0.453833	-0.260336	0.034288	-0.675781	-0.018311	-0.506592
1065.0	3.050867	-0.606462	9.381594	-0.360778	-0.452805	0.036613	-0.675781	-0.018555	-0.5
1066.0	3.643511	-1.17101	9.283066	-0.572428	-0.529711	0.020284	-0.677979	-0.018555	-0.495605
1067.0	3.350861	-1.408023	9.187934	-0.619326	-0.688163	-0.013419	-0.686768	-0.014404	-0.487061
1068.0	3.386984	-1.153281	9.441326	-0.459214	-0.927402	-0.004443	-0.686768	-0.012207	-0.482666
1069.0	3.853136	-1.452106	9.097691	-0.466479	-1.052986	-0.026684	-0.697754	-0.010254	-0.476318
1070.0	3.660141	-1.489712	9.368612	-0.394269	-1.172685	-0.040084	-0.699951	-0.010498	-0.465332
1071.0	3.904228	-1.723572	9.327171	-0.220707	-1.362101	-0.03586	-0.704346	-0.010498	-0.456787
1072.0	3.519938	-1.764477	9.552803	-0.050921	-1.547735	-0.068909	-0.713379	-0.002197	-0.443848
1073.0	2.824659	-2.320821	9.934711	0.235816	-1.812907	-0.198673	-0.717285	-0.013184	-0.428711
1074.0	2.970025	-2.280561	9.923044	0.4842	-2.299343	-0.440502	-0.732178	-0.021973	-0.41333
1075.0	2.035495	-1.416432	9.710643	0.537356	-2.742733	-0.701344	-0.74707	-0.026611	-0.391846
1076.0	3.23029	-1.680451	8.953915	0.667435	-3.146283	-0.951479	-0.755371	-0.033447	-0.36792
1077.0	2.560938	-1.665334	8.599808	1.02677	-3.488536	-1.104652	-0.769775	-0.053467	-0.335205
1078.0	2.408095	-2.00213	8.159818	1.30939	-3.998135	-1.151407	-0.780273	-0.06665	-0.304932
1079.0	1.93412	-2.077626	8.743084	1.554727	-4.561739	-1.350166	-0.790527	-0.078125	-0.261475
1080.0	4.23621	-2.558905	8.925562	1.532165	-5.18677	-1.449941	-0.805176	-0.09375	-0.220215
1081.0	-3.977226	5.033818	13.540752	-0.255473	-4.345391	-1.369384	-0.813477	-0.102783	-0.194336
1082.0	4.802401	-1.483369	12.046462	-3.48987	-2.309515	-0.926096	-0.813232	-0.105225	-0.174805
1083.0	10.449288	-1.576073	16.56854	-1.485714	-5.724279	-0.425636	-0.828369	-0.104004	-0.111816
1084.0	14.198465	0.493972	17.582962	-1.861068	-9.951384	-0.413836	-0.83252	-0.103027	-0.027344
1085.0	13.302608	0.152685	16.335406	-0.212752	-14.249974	0.73693	-0.828369	-0.093994	0.104736
1086.0	12.135677	3.300648	19.384169	-1.49671	-16.409144	0.872674	-0.800049	-0.089111	0.226074
1087.0	5.930877	0.390157	25.520915	-4.871904	-13.961036	0.545464	-0.766113	-0.111816	0.31958
1088.0	11.547537	-3.666398	25.549567	-7.401276	-10.060437	0.03993	-0.737061	-0.131836	0.386963
1089.0	20.607287	-16.851147	39.992563	2.006892	-7.593844	-0.591285	-0.702393	-0.121826	0.43457
1090.0	23.629842	-4.699712	46.300318	3.293977	-4.166942	-1.311611	-0.693848	-0.119873	0.454102
1091.0	13.525046	-5.421737	48.419595	-0.474422	1.270079	-0.946203	-0.702148	-0.132324	0.428223
1092.0	1.910444	-10.089008	33.962667	0.307401	2.879513	-0.474506	-0.710938	-0.130127	0.410889
1093.0	-3.561658	-7.325706	21.508202	1.024179	3.801597	-0.214047	-0.73291	-0.127686	0.382568
1094.0	-6.626188	-4.568874	13.463827	0.94947	4.45642	0.132028	-0.744141	-0.116455	0.358643
1095.0	-6.923188	-2.652593	7.97248	1.339031	4.239151	0.3733	-0.759766	-0.111816	0.31958
1096.0	-4.70171	-0.295872	8.110235	2.503193	3.222385	0.389028	-0.769043	-0.096436	0.300049
1097.0	-2.173979	1.144813	12.314024	2.820403	2.859657	0.232452	-0.777832	-0.093994	0.269531
1098.0	2.241632	4.937581	16.393273	1.083457	4.384239	0.021499	-0.79541	-0.093506	0.228271
1099.0	2.949587	1.885746	16.939947	-0.00743	5.59056	-0.226243	-0.805908	-0.103516	0.174316
1100.0	4.730766	2.933625	16.406727	1.282833	5.721653	-0.527191	-0.810303	-0.107178	0.128662
1101.0	6.866822	4.868786	14.722845	1.121131	6.458147	-0.871455	-0.816406	-0.119385	0.083252
1102.0	7.724098	4.666024	12.06361	0.828911	7.015808	-1.153513	-0.826904	-0.135986	0.022705
1103.0	8.880737	4.868784	10.175009	0.642925	7.214521	-1.343259	-0.821777	-0.160889	-0.040039
1104.0	9.689217	4.744162	8.002676	0.244062	7.338923	-1.491077	-0.818848	-0.181641	-0.089844
1105.0	9.876655	3.135898	6.529567	-0.232395	7.361355	-1.580948	-0.804932	-0.202393	-0.145996
1106.0	10.607226	2.879447	6.714659	-0.184784	6.97344	-1.608376	-0.793213	-0.227295	-0.202148
1107.0	11.672441	2.628452	7.338023	-0.339137	6.757122	-1.616677	-0.781738	-0.248291	-0.243408
1108.0	12.486606	1.516791	8.717847	-0.386412	6.481266	-1.642541	-0.768311	-0.258301	-0.284424
1109.0	12.956479	0.132213	9.641693	-0.340343	6.195349	-1.623515	-0.752686	-0.272705	-0.332031
1110.0	12.913713	-1.129313	10.418156	-0.289089	5.914259	-1.47843	-0.743896	-0.278564	-0.377441
1111.0	12.278568	-1.40906	10.57664	-0.308726	5.629076	-1.234812	-0.723877	-0.290771	-0.418457
1112.0	12.193776	-1.553507	11.281278	-0.52346	5.407303	-0.888249	-0.702148	-0.290283	-0.459717
1113.0	12.314024	-1.486578	11.955749	-0.784683	5.209139	-0.46507	-0.686768	-0.298096	-0.500732
1114.0	12.4686	-1.721138	12.378059	-1.174679	4.988811	0.007346	-0.667725	-0.284668	-0.535645
1115.0	12.481647	-2.982274	12.006006	-1.572373	4.789285	0.522253	-0.65918	-0.279785	-0.570313
1116.0	12.799523	-4.528903	11.994462	-1.623749	4.478999	1.006284	-0.644287	-0.272949	-0.600586
1117.0	13.727442	-5.771029	12.622552	-1.335183	4.161053	1.40881	-0.640137	-0.270508	-0.630859
1118.0	15.981108	-7.06701	14.226683	-0.646241	3.876101	1.654446	-0.640869	-0.252686	-0.665771
1119.0	18.728384	-7.457138	16.485281	0.356985	3.734345	1.738951	-0.643555	-0.243652	-0.693848
1120.0	21.732864	-7.035161	18.86027	1.353011	3.789393	1.665953	-0.643555	-0.247559	-0.726318
1121.0	24.580363	-5.649713	20.103229	2.010556	3.979086	1.522763	-0.641357	-0.247314	-0.754639
1122.0	26.447921	-3.63337	19.109617	2.024868	4.384969	1.390917	-0.619629	-0.246582	-0.800049
1123.0	28.202082	-1.791756	15.428952	1.832511	4.959259	1.395958	-0.602539	-0.243652	-0.836914
1124.0	27.693695	3.091653	9.273189	1.475027	4.932878	1.853957	-0.574951	-0.227783	-0.888916
1125.0	26.893463	1.396883	1.742094	-0.324321	4.116637	2.506558	-0.550049	-0.197266	-0.912842
1126.0	26.969622	-5.387257	-10.950169	-0.540315	2.096457	1.935954	-0.543701	-0.19043	-0.936768
1127.0	27.092302	-6.989089	-23.9378	2.4789	0.471873	1.055429	-0.540283	-0.2229	-0.936523
1128.0	27.856857	-2.902541	-30.667861	5.998576	-0.463616	-0.344526	-0.555908	-0.270264	-0.934326
1129.0	22.900176	2.783962	-36.113986	5.99474	0.096068	-1.851956	-0.542725	-0.33252	-0.933838
1130.0	19.315552	-0.556083	-25.012341	1.215919	2.153374	-0.562652	-0.535156	-0.301758	-0.977295
1131.0	15.473212	-9.418445	-22.991746	-9.914945	-1.380055	2.36896	-0.577393	-0.172363	-1.014893
1132.0	-6.633594	-5.003489	-25.666888	-5.528262	1.485119	-0.980087	-0.584229	-0.109619	-1.047852
1133.0	-30.990328	30.412794	39.94311	-10.555851	-12.073811	1.64572	-0.73291	-0.029297	-0.98999
1134.0	50.664047	-19.625015	56.324885	8.105446	-9.635945	1.174074	-0.835938	-0.064941	-0.922852
1135.0	10.703645	10.301988	-13.911514	6.194194	-7.076864	1.068105	-0.9104	-0.106689	-0.887939
1136.0	28.145704	32.439424	22.802875	-0.496791	-4.949798	0.930749	-0.948975	-0.01416	-0.88623
1137.0	27.652057	10.331561	30.702484	-15.141814	0.215691	0.716228	-0.94751	0.119629	-0.923828
1138.0	7.129901	-17.192517	17.589038	-10.974773	1.910326	-0.954981	-0.959473	0.201416	-0.932861
1139.0	2.074915	-39.675789	28.428357	-3.910285	-0.277513	-0.2641	-0.967285	0.231445	-0.930908
1140.0	6.293013	-25.278096	-1.53909	2.216478	-3.60387	0.058005	-1.007324	0.200684	-0.889648
1141.0	3.963642	-0.581264	14.193032	9.780501	-7.009863	-0.061948	-1.075684	0.113281	-0.817871
1142.0	11.853613	11.672805	22.891669	8.381082	-6.507877	-0.363293	-1.115723	0.080566	-0.782959
1143.0	9.384656	3.583672	0.665877	0.146973	-0.949834	-0.149614	-1.111816	0.093262	-0.774414
1144.0	7.582583	4.32638	16.869894	-3.78895	1.315537	-0.088282	-1.106689	0.132324	-0.794189
1145.0	3.383364	-1.412812	10.944702	-3.730333	1.217617	-0.110002	-1.094727	0.156006	-0.796387
1146.0	2.309417	-2.020755	9.866505	-1.579791	0.461712	-0.142751	-1.097168	0.164795	-0.802979
1147.0	2.559124	-1.747363	8.267271	0.166661	-0.767831	-0.12847	-1.107666	0.157959	-0.790039
1148.0	2.739503	-1.147557	9.77187	1.270731	-1.439298	-0.10989	-1.125	0.153564	-0.779053
1149.0	3.957817	-0.472828	9.28956	1.59687	-1.659455	-0.054789	-1.133057	0.138184	-0.759521
1150.0	5.873553	1.806429	12.344489	0.912459	-1.18705	0.0155	-1.139648	0.138184	-0.755127
1151.0	4.725779	0.859624	8.665582	-1.413418	0.235426	0.045673	-1.135742	0.151123	-0.755371
1152.0	3.958262	-1.448472	10.31533	-1.733594	0.538268	0.026044	-1.131836	0.164063	-0.759766
1153.0	3.095317	-2.118331	8.588061	-1.257294	0.279617	-0.019365	-1.12793	0.172607	-0.759766
1154.0	2.897214	-2.38016	8.956015	-0.665788	-0.008574	-0.078638	-1.136719	0.177002	-0.759766
1155.0	3.308193	-2.034384	8.613199	0.1051	-0.469682	-0.104408	-1.136475	0.168213	-0.753174
1156.0	4.700333	-1.150287	9.553375	0.735659	-0.734283	-0.099682	-1.147217	0.167969	-0.746826
1157.0	4.983549	0.424482	9.767434	0.012654	-0.188169	-0.058798	-1.140869	0.170166	-0.744629
1158.0	3.947471	-0.539795	9.397383	-0.826931	0.305634	-0.032996	-1.138916	0.181152	-0.751221
1159.0	3.378978	-1.635355	8.685922	-0.563108	0.175437	-0.008668	-1.141357	0.185303	-0.749023
1160.0	3.283302	-1.264519	9.031104	-0.07238	-0.122492	-0.038587	-1.141113	0.178955	-0.753174
1161.0	4.029321	-0.774735	9.247405	-0.042216	-0.160942	0.004994	-1.143311	0.180908	-0.744629
1162.0	4.036424	-0.73472	9.065868	-0.382633	0.051802	0.009837	-1.145752	0.183105	-0.749023
1163.0	3.842255	-1.039429	8.983495	-0.36926	0.022762	0.036867	-1.141357	0.183105	-0.751221
1164.0	3.789798	-1.104017	9.106409	-0.344223	-0.021537	0.064048	-1.150146	0.189697	-0.749023
1165.0	3.811343	-1.063787	9.082279	-0.460722	-0.012202	0.087099	-1.143799	0.193848	-0.746826
1166.0	3.953481	-1.102483	9.013363	-0.485225	-0.041083	0.119099	-1.144043	0.200439	-0.749023
1167.0	3.89339	-1.327436	8.885187	-0.491959	-0.006102	0.133208	-1.148682	0.206787	-0.746826
1168.0	3.538697	-2.066432	8.966282	-0.436148	0.040496	0.105329	-1.151123	0.213135	-0.74707
1169.0	3.458458	-2.32933	8.829085	-0.194664	-0.029739	0.059823	-1.148682	0.208984	-0.742676
1170.0	3.781192	-1.831577	8.942672	-0.000973	-0.096897	0.02738	-1.146729	0.211182	-0.746826
1171.0	3.881266	-1.641771	8.993435	-0.093394	0.012593	0.007137	-1.148926	0.215332	-0.744873
1172.0	3.738236	-1.665892	8.883158	-0.078766	0.031066	-0.001169	-1.140381	0.217529	-0.744873
1173.0	3.855042	-1.315777	8.874208	-0.013379	0.004459	-0.004146	-1.144531	0.213135	-0.738281
1174.0	3.686392	-1.137584	9.03919	-0.118204	0.044652	0.011802	-1.14917	0.217529	-0.742676
1175.0	3.634222	-1.197134	9.033632	-0.132543	-0.003376	0.035689	-1.153564	0.219727	-0.744873
1176.0	3.540789	-1.117908	9.079126	-0.181036	-0.032642	0.052065	-1.153564	0.219727	-0.74707
1177.0	3.495846	-1.315915	9.092151	-0.240528	-0.071631	0.062651	-1.147217	0.221924	-0.74707
1178.0	3.405493	-1.484225	9.052879	-0.242496	-0.128485	0.05928	-1.147217	0.226074	-0.744873
1179.0	3.447025	-1.31774	9.130344	-0.218357	-0.214192	0.059204	-1.153809	0.223877	-0.736084
1180.0	3.088528	-1.02836	9.276836	-0.253997	-0.29791	0.047492	-1.153809	0.228271	-0.738281
1181.0	3.390893	-1.89649	9.163099	-0.406548	-0.362741	0.042178	-1.158447	0.232422	-0.731934
1182.0	3.161305	-1.939569	9.155377	-0.227706	-0.597927	-0.017481	-1.162842	0.238525	-0.718994
1183.0	3.236493	-1.506334	9.365111	-0.050465	-0.784432	-0.030373	-1.169189	0.232178	-0.721191
1184.0	3.440419	-2.035405	9.23527	0.004425	-0.89824	-0.064058	-1.179932	0.229736	-0.705811
1185.0	3.278801	-1.990715	9.388681	0.244909	-1.103355	-0.099671	-1.184082	0.223145	-0.688477
1186.0	3.554058	-1.607573	9.513127	0.402006	-1.307989	-0.102473	-1.19043	0.220703	-0.677734
1187.0	3.514537	-1.693199	9.755503	0.462925	-1.465014	-0.139588	-1.20752	0.213867	-0.658203
1188.0	3.144962	-1.960912	9.925393	0.585754	-1.732614	-0.232179	-1.213867	0.207031	-0.634277
1189.0	2.711967	-1.827836	9.936497	0.678277	-2.09438	-0.393907	-1.228271	0.19165	-0.608154
1190.0	2.86833	-1.582041	9.473831	0.605979	-2.445826	-0.686164	-1.245117	0.17627	-0.582275
1191.0	3.307118	-1.16135	8.880106	0.579078	-2.60702	-0.889634	-1.262207	0.166992	-0.547607
1192.0	3.042631	0.189152	8.701941	0.585302	-2.796093	-1.0426	-1.282959	0.14502	-0.519287
1193.0	4.330887	-0.730107	8.223516	0.352104	-3.069387	-1.040579	-1.299561	0.122803	-0.473633
1194.0	4.103088	-1.725596	8.336964	0.094816	-3.471918	-1.208549	-1.314209	0.111572	-0.43457
1195.0	4.456935	-2.501671	6.090595	-0.049508	-4.028803	-1.43606	-1.336914	0.08252	-0.367432
1196.0	4.771614	-3.321473	3.463026	0.032104	-4.701943	-1.473418	-1.358154	0.071045	-0.311035
1197.0	-4.552439	-0.107525	8.06791	-0.099768	-4.452209	-1.307237	-1.364258	0.063721	-0.254639
1198.0	4.508582	3.607572	19.140978	-3.645809	-3.087784	0.077229	-1.379639	0.071533	-0.207031
1199.0	3.485861	-2.245652	25.680792	-1.507751	-5.240807	-0.794217	-1.391846	0.055176	-0.11792
1200.0	11.473408	2.408347	15.988771	-1.465637	-9.562126	-0.178797	-1.402344	0.051025	0.031494
1201.0	12.55162	-4.011876	14.923436	-1.075546	-14.097764	0.940249	-1.380127	0.052246	0.254883
1202.0	16.590736	3.063395	20.617698	-1.230385	-17.955527	1.643163	-1.31665	0.055664	0.499756
1203.0	10.1292	0.459162	26.460821	-4.449791	-18.000573	2.278182	-1.223389	0.025391	0.703857
1204.0	10.234326	3.022402	37.828672	-9.111903	-11.373308	0.882206	-1.172607	-0.046875	0.799805
1205.0	34.445252	-23.014627	51.708919	-0.304611	-3.902884	-0.641758	-1.152344	-0.064209	0.830078
1206.0	18.076944	-2.238959	46.021792	4.747225	-2.682267	-2.471158	-1.155762	-0.08374	0.83667
1207.0	13.069347	2.400182	43.069482	-0.754233	2.38631	-1.793132	-1.197266	-0.143555	0.797852
1208.0	-3.823504	-8.052233	24.744278	-0.92661	3.773036	-1.668944	-1.25	-0.19043	0.739502
1209.0	-6.546438	-8.278875	11.457965	-1.591065	4.539991	-1.11013	-1.315918	-0.232666	0.666016
1210.0	-8.417436	-9.683236	5.736135	-2.244555	5.026964	-0.279571	-1.384766	-0.255615	0.592285
1211.0	-7.764977	-10.215017	4.97701	0.139683	3.587061	0.401523	-1.450928	-0.241943	0.5271
1212.0	-4.103648	-7.758729	12.439791	3.302609	2.070972	0.784243	-1.523926	-0.209229	0.472656
1213.0	0.763698	-3.75586	18.480173	5.072945	1.936096	0.886256	-1.577881	-0.173828	0.383545
1214.0	6.529857	4.044705	23.748312	4.842139	3.339031	0.754837	-1.625	-0.143799	0.220703
1215.0	7.863753	7.624627	16.311747	1.565412	6.309071	0.456455	-1.619629	-0.125977	0.014648
1216.0	5.842008	5.141973	12.652355	1.844958	6.714807	-0.007032	-1.566162	-0.112305	-0.18042
1217.0	7.87423	8.415984	10.508891	2.384559	6.736823	-0.423637	-1.46167	-0.120117	-0.362305
1218.0	9.654508	9.323919	8.696467	1.689664	7.087481	-0.933526	-1.314697	-0.104492	-0.518066
1219.0	10.191219	7.814718	6.587595	1.099888	7.273124	-1.351265	-1.124268	-0.078857	-0.611084
1220.0	9.755676	6.175859	5.614351	0.757356	7.095178	-1.642522	-0.940186	-0.056152	-0.643311
1221.0	9.899975	3.387967	4.955343	0.504306	6.862249	-1.766643	-0.787842	-0.054199	-0.599854
1222.0	9.948182	0.032837	5.561589	0.432653	6.579219	-1.695407	-0.671875	-0.067383	-0.532227
1223.0	10.321715	-2.360063	7.200835	0.860658	6.148866	-1.508909	-0.596436	-0.098633	-0.436523
1224.0	11.00146	-3.118572	8.9943	1.361884	5.715922	-1.313123	-0.592529	-0.132324	-0.330322
1225.0	11.579473	-3.295694	10.338319	1.475974	5.499433	-1.036556	-0.662109	-0.131348	-0.267578
1226.0	11.80448	-3.994568	10.712301	1.194953	5.352755	-0.577455	-0.75	-0.111816	-0.304688
1227.0	11.722014	-5.510215	10.930888	0.882997	5.297763	-0.058399	-0.772705	-0.093262	-0.404541
1228.0	10.792268	-6.500555	10.957943	0.7978	5.174481	0.464781	-0.73877	-0.07666	-0.508545
1229.0	10.346115	-6.919873	11.105032	0.917527	4.946807	0.977899	-0.668945	-0.082275	-0.551758
1230.0	10.464083	-6.793975	11.920115	1.01845	4.701072	1.38755	-0.625732	-0.075684	-0.547363
1231.0	11.210539	-6.752514	13.220433	1.111817	4.519528	1.715763	-0.619385	-0.071289	-0.551758
1232.0	12.189618	-7.485445	14.094911	1.148795	4.440331	1.96024	-0.646484	-0.049561	-0.582275
1233.0	12.816989	-8.93187	14.46107	1.254812	4.43127	2.207376	-0.649902	-0.018555	-0.647461
1234.0	13.371439	-10.315591	14.744278	1.548282	4.351337	2.440675	-0.62085	0.008545	-0.734131
1235.0	15.577132	-11.768726	15.917345	1.928779	4.23932	2.607852	-0.558105	0.018311	-0.796875
1236.0	18.589761	-13.702999	17.523772	2.298681	4.320633	2.730926	-0.47583	0.029785	-0.831543
1237.0	20.902578	-15.357549	18.021181	2.753952	4.478229	2.815028	-0.40332	0.012939	-0.835693
1238.0	22.388788	-15.453388	16.457944	3.164784	4.604267	2.88015	-0.348389	-0.001953	-0.82251
1239.0	22.370857	-15.468759	12.815755	2.924554	4.794761	2.999883	-0.30249	-0.00415	-0.818115
1240.0	21.019239	-15.800665	7.850321	2.333855	4.713628	3.109869	-0.263184	-0.006104	-0.811523
1241.0	19.862087	-15.061154	3.655986	1.584244	4.172076	3.294936	-0.241943	0.004639	-0.813721
1242.0	21.143472	-14.313608	0.567428	0.904726	3.31647	3.411588	-0.216309	0.015381	-0.809326
1243.0	24.767476	-10.95147	-1.381361	0.592715	2.393296	3.622693	-0.205566	0.02417	-0.804932
1244.0	28.321181	-2.098349	-2.731849	-0.097561	1.477475	4.397211	-0.195313	0.039307	-0.807373
1245.0	31.082748	-2.573705	-10.211333	-2.0566	0.814076	4.570604	-0.196533	0.071533	-0.802979
1246.0	28.305931	-11.530666	-23.16435	-1.885565	0.45996	3.236866	-0.190918	0.09082	-0.811768
1247.0	24.134956	-12.368845	-28.954177	0.014994	-0.176199	1.99317	-0.184326	0.093018	-0.803223
1248.0	18.583242	-4.200313	-24.719294	3.054163	0.340509	0.773499	-0.181152	0.062988	-0.802979
1249.0	12.703347	2.327226	-14.124977	4.695488	0.688989	0.719044	-0.171387	0.034912	-0.804932
1250.0	-16.144115	17.181466	21.174871	-6.539964	-0.030583	1.916736	-0.175293	0.138184	-0.796875
1251.0	-33.962397	36.413408	12.839327	-13.366305	-2.42173	3.655897	-0.20752	0.245117	-0.764893
1252.0	17.475483	-4.764247	-1.518343	-7.478777	-7.916077	4.541435	-0.252197	0.274658	-0.739258
1253.0	47.268449	-9.707649	39.302549	2.511665	-7.924305	0.951812	-0.31958	0.27417	-0.713379
1254.0	24.661497	27.42395	18.226691	-2.985773	-3.297044	-0.053342	-0.33252	0.327637	-0.694092
1255.0	9.448401	-6.477548	31.940992	-13.076005	1.445292	-0.016441	-0.318359	0.410889	-0.65332
1256.0	2.511879	-21.891968	3.715233	-10.987594	1.615765	-0.263938	-0.324951	0.470703	-0.623291
1257.0	-2.821822	-33.748407	19.717725	-3.479364	-1.10639	-0.250941	-0.340332	0.479004	-0.605957
1258.0	3.701927	-21.713378	5.097928	4.421253	-5.119524	-0.008678	-0.371826	0.448975	-0.612305
1259.0	8.748456	-11.58169	12.0053	6.820622	-5.877093	-0.224992	-0.411377	0.401611	-0.623047
1260.0	7.787369	5.022371	20.240366	7.285116	-5.741488	-0.227711	-0.438721	0.371338	-0.627197
1261.0	11.143655	13.836687	10.938802	1.196832	-1.818907	-0.192167	-0.445068	0.366943	-0.614258
1262.0	6.137439	-0.369713	6.743885	-3.444922	-0.070908	-0.213395	-0.444092	0.40332	-0.605713
1263.0	1.304731	-1.225177	17.498873	-4.513323	1.342031	-0.182361	-0.44043	0.418213	-0.592773
1264.0	4.227024	-3.531876	6.736342	-3.557868	0.717334	-0.070897	-0.43457	0.439697	-0.584229
1265.0	3.240345	-3.14003	9.941266	-0.487703	-1.248197	-0.077061	-0.45166	0.430908	-0.571289
1266.0	2.99668	-1.422803	10.050718	1.499325	-2.38659	-0.053665	-0.466553	0.422119	-0.573486
1267.0	7.105762	-0.86317	12.733549	1.765749	-2.272662	0.039018	-0.475342	0.42627	-0.566895
1268.0	5.59523	2.442274	9.050267	-1.43727	0.033475	-0.00152	-0.471436	0.437012	-0.560547
1269.0	4.133656	-2.42318	11.458407	-2.513655	0.888734	0.033425	-0.463379	0.451904	-0.549805
1270.0	2.185835	-3.36039	7.783525	-1.736795	0.636463	-0.138566	-0.46582	0.456299	-0.552002
1271.0	2.730746	-4.196375	8.237872	-0.235812	-0.171302	-0.189022	-0.465576	0.454102	-0.552002
1272.0	3.524981	-2.494628	8.85084	1.390898	-0.993544	-0.198983	-0.473877	0.443359	-0.551758
1273.0	4.755487	-0.306385	10.843248	1.289831	-0.84929	-0.156793	-0.47583	0.437012	-0.551758
1274.0	4.295184	-0.29754	9.357916	-0.462649	0.179547	-0.160731	-0.478271	0.443359	-0.553955
1275.0	3.433628	-2.204088	9.209046	-0.947573	0.420743	-0.135563	-0.471924	0.445557	-0.551758
1276.0	2.865831	-2.490741	8.274267	-0.140822	-0.068795	-0.149104	-0.480713	0.44751	-0.549805
1277.0	3.257031	-1.616951	9.05174	0.472431	-0.44816	-0.15589	-0.487061	0.443359	-0.556152
1278.0	4.496721	-1.387126	9.459456	0.160522	-0.328737	-0.136895	-0.480469	0.443359	-0.547607
1279.0	3.920895	-1.449916	9.222498	-0.220324	-0.000616	-0.139418	-0.484619	0.441162	-0.549805
1280.0	3.71319	-1.941967	8.818916	-0.241555	0.01464	-0.113818	-0.484863	0.44751	-0.54541
1281.0	3.64574	-1.833137	8.920155	0.004085	-0.053006	-0.113275	-0.489258	0.443359	-0.553955
1282.0	3.702307	-1.85917	9.02813	-0.020878	0.016402	-0.122446	-0.487061	0.445313	-0.547607
1283.0	3.428868	-1.924896	9.011253	-0.104266	0.088162	-0.143722	-0.491455	0.449707	-0.549805
1284.0	3.537529	-2.141897	8.877387	-0.001088	0.049082	-0.157839	-0.486816	0.441162	-0.547607
1285.0	3.596568	-1.820195	8.984698	0.11557	0.017452	-0.184072	-0.489014	0.441162	-0.553955
1286.0	3.868993	-1.593495	8.989148	0.116861	-0.007205	-0.166704	-0.486816	0.438965	-0.551758
1287.0	3.892748	-1.408775	8.916182	0.056713	0.032997	-0.165151	-0.489014	0.441162	-0.551758
1288.0	3.814936	-1.356394	8.966651	0.04742	0.021145	-0.134476	-0.491211	0.441162	-0.551758
1289.0	3.861375	-1.417827	8.894134	0.033291	0.020907	-0.121011	-0.493408	0.438965	-0.551758
1290.0	3.799503	-1.302685	8.898984	0.042874	-0.001242	-0.095611	-0.489014	0.441162	-0.556152
1291.0	3.630478	-1.332023	9.098563	-0.005051	0.005259	-0.068026	-0.489014	0.438965	-0.551758
1292.0	3.571932	-1.60197	9.050702	-0.001244	-0.028123	-0.059484	-0.482422	0.437012	-0.551758
1293.0	3.631787	-1.543789	9.015191	0.022489	-0.07258	-0.053876	-0.491211	0.438965	-0.547607
1294.0	3.603793	-1.530022	9.043801	-0.01084	-0.080594	-0.056671	-0.490967	0.434814	-0.55835
1295.0	3.561842	-1.532256	9.059008	-0.019725	-0.104183	-0.057641	-0.497803	0.443115	-0.547607
1296.0	3.608182	-1.61545	9.010129	-0.025328	-0.125393	-0.059651	-0.495361	0.437012	-0.556152
1297.0	3.512265	-1.385001	9.025625	0.022331	-0.179286	-0.041974	-0.495361	0.436768	-0.553955
1298.0	3.731498	-1.259333	9.012084	0.005365	-0.230356	-0.012962	-0.493408	0.438965	-0.549805
1299.0	3.750214	-1.189113	8.973692	-0.030362	-0.261357	0.018909	-0.493164	0.432617	-0.549561
1300.0	3.904955	-1.15901	8.906564	-0.012188	-0.326038	0.065513	-0.495361	0.436768	-0.543213
1301.0	3.808409	-1.105532	9.032742	-0.034546	-0.348525	0.10224	-0.499756	0.438965	-0.543213
1302.0	3.79731	-1.319939	8.968877	-0.060971	-0.379342	0.137713	-0.5	0.443115	-0.54541
1303.0	3.781857	-1.547574	8.975467	-0.019406	-0.425261	0.157044	-0.50415	0.436523	-0.534424
1304.0	3.742124	-1.582596	8.996351	0.051667	-0.473543	0.169307	-0.508545	0.440918	-0.534668
1305.0	3.819082	-1.71765	8.990684	0.096831	-0.514472	0.176234	-0.510742	0.440918	-0.532471
1306.0	3.804019	-1.839915	8.953314	0.167814	-0.561923	0.170362	-0.510742	0.442871	-0.532471
1307.0	3.794272	-1.85418	9.099217	0.276627	-0.640874	0.16941	-0.512939	0.440674	-0.525879
1308.0	3.882118	-1.884879	8.947993	0.349231	-0.706761	0.181946	-0.521729	0.444824	-0.519531
