Acquisition frequency: 100 Hz
PacketCounter	Acc_X	Acc_Y	Acc_Z	Gyr_X	Gyr_Y	Gyr_Z	Mag_X	Mag_Y	Mag_Z
1.0	6.235517	1.329043	7.945077	-0.004583	0.007823	-0.01763	-0.622314	0.087891	-0.255615
2.0	6.221042	1.354432	7.905526	0.002315	0.011747	-0.020946	-0.622314	0.087891	-0.255615
3.0	6.248223	1.35498	7.92604	-0.004583	0.007821	-0.017628	-0.624512	0.085693	-0.253174
4.0	6.218932	1.356407	7.906847	-0.001303	0.013314	-0.017657	-0.626709	0.087891	-0.257813
5.0	6.196313	1.345664	7.907783	-0.006131	0.00896	-0.018794	-0.626709	0.085693	-0.253174
6.0	6.235581	1.375216	7.942008	-0.00402	0.009655	-0.019329	-0.624512	0.085693	-0.262451
7.0	6.201182	1.33509	7.929059	-0.00648	0.005535	-0.019306	-0.628906	0.085693	-0.257813
8.0	6.212607	1.365022	7.943121	-0.007043	0.003698	-0.0176	-0.620117	0.087891	-0.257813
9.0	6.231121	1.330397	7.915536	-0.000329	-0.000147	-0.018548	-0.62915	0.092285	-0.257813
10.0	6.218759	1.354812	7.963328	-0.001149	-0.001521	-0.01854	-0.622559	0.090088	-0.253418
11.0	6.228297	1.338186	7.949205	-0.001023	-0.006995	-0.019575	-0.624756	0.090088	-0.253418
12.0	6.240512	1.368501	7.962571	-0.001455	-0.003822	-0.015136	-0.624512	0.087891	-0.26001
13.0	6.200777	1.340573	7.928451	-0.003827	-0.014541	-0.020066	-0.622559	0.090088	-0.257813
14.0	6.216343	1.365128	7.907382	-0.006411	-0.013191	-0.019006	-0.624512	0.085693	-0.255615
15.0	6.217357	1.365964	7.90644	-0.002624	-0.019105	-0.019409	-0.626709	0.085693	-0.255615
16.0	6.249495	1.360632	7.891281	-0.006243	-0.017542	-0.016123	-0.624512	0.085693	-0.26001
17.0	6.250714	1.361114	7.890232	-0.007062	-0.018918	-0.016113	-0.622314	0.087891	-0.255615
18.0	6.255937	1.355244	7.943242	-0.002024	-0.016146	-0.017194	-0.622559	0.090088	-0.255615
19.0	6.23155	1.351121	7.888335	-0.002627	-0.019109	-0.019402	-0.620117	0.085693	-0.257813
20.0	6.26078	1.351466	7.907271	-0.001637	-0.011598	-0.012762	-0.620117	0.087891	-0.257813
21.0	6.283076	1.363992	7.906243	0.001162	-0.014536	-0.016038	-0.624756	0.090088	-0.253418
22.0	6.28394	1.364774	7.905421	-0.007452	-0.012987	-0.016764	-0.622314	0.087891	-0.253174
23.0	6.232305	1.359726	7.919069	-0.004265	-0.011375	-0.015613	-0.622314	0.087891	-0.257813
24.0	6.266639	1.348885	7.87027	-0.001682	-0.012725	-0.016672	-0.622314	0.087891	-0.257813
25.0	6.252704	1.326156	7.889811	0.000168	-0.011563	-0.018905	-0.626709	0.085693	-0.255615
26.0	6.25854	1.369291	7.88261	0.010632	-0.011948	-0.020413	-0.624512	0.085693	-0.257813
27.0	6.265805	1.359134	7.901975	0.005762	-0.006951	-0.021691	-0.624268	0.083496	-0.255371
28.0	6.308786	1.384334	7.901117	0.009551	-0.002374	-0.018334	-0.626953	0.090088	-0.248779
29.0	6.275065	1.344971	7.887647	0.000759	0.003519	-0.021936	-0.626953	0.090088	-0.255615
30.0	6.264848	1.364083	7.901881	0.002178	0.007857	-0.019736	-0.628906	0.087891	-0.253174
31.0	6.288015	1.371632	7.868184	0.002995	0.009232	-0.019743	-0.624512	0.085693	-0.250977
32.0	6.265432	1.361294	7.869094	-0.000325	0.013091	-0.019857	-0.631104	0.087891	-0.257813
33.0	6.277593	1.338503	7.910166	0.003157	0.017004	-0.022106	-0.624512	0.085693	-0.253174
34.0	6.25292	1.382027	7.884847	0.003892	0.014492	-0.020929	-0.628906	0.085693	-0.255615
35.0	6.260855	1.365781	7.871958	0.001906	0.018803	-0.017661	-0.624756	0.090088	-0.253418
36.0	6.246893	1.390456	7.920943	0.001603	0.018135	-0.023265	-0.626709	0.085693	-0.248779
37.0	6.254893	1.373951	7.908055	-0.006097	0.012814	-0.019941	-0.631104	0.087891	-0.257813
38.0	6.268105	1.398539	7.888738	-0.006834	0.015323	-0.021112	-0.626709	0.085693	-0.255615
39.0	6.230771	1.363701	7.910141	-0.006654	0.010975	-0.018235	-0.622314	0.087891	-0.257813
40.0	6.265586	1.39999	7.890482	-0.00373	0.013053	-0.018777	-0.626709	0.087891	-0.253174
41.0	6.280515	1.371156	7.897648	-0.004727	0.016023	-0.021643	-0.624756	0.090088	-0.260254
42.0	6.260369	1.354828	7.864883	-0.002916	0.014428	-0.018781	-0.624756	0.090088	-0.250977
43.0	6.27062	1.385133	7.879693	-0.003058	0.019901	-0.017744	-0.624512	0.085693	-0.26001
44.0	6.247463	1.374066	7.881151	-0.007276	0.018492	-0.01667	-0.620117	0.085693	-0.257813
45.0	6.295453	1.385719	7.902117	-0.011493	0.017082	-0.015598	-0.622314	0.087891	-0.253174
46.0	6.244271	1.374512	7.883603	-0.010459	0.01687	-0.017818	-0.626953	0.090088	-0.257813
47.0	6.270852	1.37437	7.904764	-0.01068	0.018456	-0.0156	-0.626709	0.085693	-0.255615
48.0	6.234071	1.386964	7.86615	-0.011419	0.020964	-0.01677	-0.624512	0.087891	-0.253174
49.0	6.257599	1.392135	7.921528	-0.014823	0.020929	-0.015704	-0.624512	0.085693	-0.250977
50.0	6.243981	1.36251	7.909274	-0.015638	0.019551	-0.015696	-0.626709	0.087891	-0.255615
51.0	6.249009	1.350255	7.930775	-0.014603	0.019339	-0.017915	-0.622314	0.083496	-0.255371
52.0	6.205418	1.374645	7.872137	-0.017193	0.02068	-0.016855	-0.630859	0.083496	-0.253174
53.0	6.250571	1.391235	7.927233	-0.016529	0.014285	-0.014508	-0.622314	0.085693	-0.253174
54.0	6.209497	1.361352	7.894557	-0.026849	0.009167	-0.014055	-0.624512	0.087891	-0.255615
55.0	6.238997	1.406937	7.943	-0.022707	0.006693	-0.013945	-0.622314	0.085693	-0.257813
56.0	6.229409	1.370918	7.895976	-0.026925	0.005278	-0.012876	-0.628662	0.083496	-0.255371
57.0	6.232927	1.36308	7.950568	-0.019898	0.002129	-0.008224	-0.622314	0.085693	-0.253174
58.0	6.235226	1.356813	7.917156	-0.019564	0.007189	-0.016692	-0.620117	0.087891	-0.255615
59.0	6.244378	1.338849	7.903692	-0.01394	-0.000299	-0.014251	-0.624512	0.085693	-0.255615
60.0	6.213083	1.344625	7.917935	-0.00758	0.002947	-0.01194	-0.624512	0.087891	-0.257813
61.0	6.262357	1.356442	7.937939	-0.005838	-0.000893	-0.016902	-0.624512	0.087891	-0.255615
62.0	6.255431	1.369073	7.917891	-0.007946	-0.001602	-0.016368	-0.626709	0.087891	-0.257813
63.0	6.260912	1.358676	7.850018	-0.003954	0.001399	-0.015217	-0.626709	0.087891	-0.255615
64.0	6.250754	1.377105	7.864191	0.000593	0.00624	-0.015761	-0.622559	0.090088	-0.255615
65.0	6.250028	1.378016	7.864608	0.000627	0.007363	-0.011852	-0.620361	0.092285	-0.251221
66.0	6.265616	1.349422	7.871257	0.002996	0.009248	-0.019679	-0.626465	0.083496	-0.255371
67.0	6.240406	1.344422	7.905883	0.001959	0.009455	-0.017458	-0.622314	0.087891	-0.253174
68.0	6.23656	1.35118	7.940411	0.004325	0.009702	-0.016298	-0.624512	0.085693	-0.255615
69.0	6.238603	1.346871	7.906889	-0.002845	0.005072	-0.018603	-0.624756	0.090088	-0.248779
70.0	6.271055	1.389412	7.920846	0.004446	0.003107	-0.021249	-0.626465	0.081299	-0.253174
71.0	6.252046	1.373474	7.887147	-0.002362	0.003024	-0.019126	-0.626709	0.087891	-0.253174
72.0	6.273082	1.386346	7.887123	-0.001135	-0.00153	-0.018484	-0.622314	0.083496	-0.257813
73.0	6.243759	1.339501	7.927451	-0.001879	0.000977	-0.019649	-0.630859	0.083496	-0.255371
74.0	6.262847	1.406275	7.90105	0.00308	-0.000111	-0.019546	-0.622314	0.085693	-0.257813
75.0	6.257703	1.365899	7.90734	-0.002917	0.001182	-0.017427	-0.620117	0.085693	-0.255615
76.0	6.271901	1.390672	7.887301	-0.005284	0.000932	-0.018585	-0.622314	0.087891	-0.257813
77.0	6.259896	1.362044	7.873633	-0.001847	0.002099	-0.015739	-0.633301	0.087891	-0.253174
78.0	6.240019	1.397857	7.901708	-0.005996	0.004562	-0.015843	-0.626709	0.085693	-0.253174
79.0	6.27038	1.392565	7.888176	-0.007778	0.007275	-0.014789	-0.620117	0.087891	-0.255615
80.0	6.257979	1.363286	7.874943	-0.011182	0.007231	-0.013727	-0.622314	0.087891	-0.26001
81.0	6.237793	1.398093	7.903423	-0.014554	0.008311	-0.00876	-0.626953	0.090088	-0.255615
82.0	6.270891	1.38657	7.856194	-0.010339	0.009733	-0.009823	-0.622559	0.090088	-0.255615
83.0	6.252595	1.367466	7.911109	-0.020843	0.008935	-0.012236	-0.628906	0.087891	-0.255615
84.0	6.242119	1.384018	7.925795	-0.017441	0.007342	-0.004317	-0.626465	0.083496	-0.257813
85.0	6.239625	1.336185	7.898657	-0.01381	0.005802	-0.007592	-0.626953	0.090088	-0.255615
86.0	6.257602	1.352787	7.933038	-0.015431	0.003044	-0.007586	-0.628906	0.087891	-0.255615
87.0	6.238831	1.335271	7.899439	-0.006287	0.002264	-0.012453	-0.624512	0.085693	-0.253174
88.0	6.23874	1.335726	7.899434	-0.003531	-0.004538	-0.014561	-0.628906	0.087891	-0.255615
89.0	6.229175	1.354348	7.913043	0.003246	-0.005569	-0.020586	-0.624512	0.085693	-0.255615
90.0	6.262429	1.39694	7.926344	0.001107	-0.009044	-0.014983	-0.624512	0.087891	-0.257813
91.0	6.272553	1.380606	7.911901	0.003764	-0.006492	-0.017205	-0.622314	0.085693	-0.253174
92.0	6.272772	1.382011	7.911482	0.000878	-0.005824	-0.02174	-0.631104	0.085693	-0.253174
93.0	6.289376	1.353838	7.917333	0.003566	-0.002147	-0.020057	-0.622314	0.085693	-0.253174
94.0	6.275598	1.379524	7.877054	0.002529	-0.001943	-0.017839	-0.626709	0.087891	-0.253174
95.0	6.254225	1.368778	7.876971	-0.001945	-0.00291	-0.018463	-0.626709	0.087891	-0.246338
96.0	6.272537	1.387	7.910795	-0.0048	-0.001119	-0.019093	-0.628906	0.087891	-0.255615
97.0	6.285076	1.364696	7.862873	-0.009014	-0.002548	-0.018029	-0.620117	0.087891	-0.253174
98.0	6.244289	1.38833	7.890691	-0.009855	-0.005052	-0.021928	-0.628906	0.085693	-0.253174
99.0	6.275141	1.383133	7.876785	-0.01048	0.003586	-0.016448	-0.624268	0.081299	-0.250977
100.0	6.274851	1.383155	7.877012	-0.016083	-0.002189	-0.017592	-0.626709	0.085693	-0.257813
101.0	6.289005	1.407124	7.857141	-0.015215	0.003076	-0.018758	-0.624512	0.085693	-0.257813
102.0	6.264333	1.400393	7.891594	-0.015992	0.002818	-0.014851	-0.624512	0.085693	-0.257813
103.0	6.283399	1.364866	7.864184	-0.020955	0.003891	-0.014947	-0.626465	0.079102	-0.250732
104.0	6.235084	1.399357	7.872698	-0.018009	0.00711	-0.011577	-0.622314	0.083496	-0.255371
105.0	6.296298	1.387352	7.84559	-0.025281	0.011812	-0.013991	-0.620361	0.090088	-0.253418
106.0	6.252731	1.362306	7.846684	-0.024271	0.008844	-0.011141	-0.626709	0.087891	-0.250977
107.0	6.289706	1.343533	7.853675	-0.023984	0.011145	-0.014515	-0.62915	0.090088	-0.250977
108.0	6.259175	1.394956	7.896648	-0.019711	0.014821	-0.00777	-0.626709	0.087891	-0.253174
109.0	6.256099	1.347164	7.870013	-0.018126	0.01646	-0.011674	-0.618164	0.090088	-0.253418
110.0	6.235217	1.381374	7.899081	-0.018184	0.012573	-0.010512	-0.626709	0.085693	-0.26001
111.0	6.241033	1.368536	7.920048	-0.016395	0.009865	-0.011569	-0.626709	0.085693	-0.253174
112.0	6.271217	1.362702	7.906834	-0.01276	0.008337	-0.014844	-0.626709	0.087891	-0.253174
113.0	6.249277	1.350353	7.90744	-0.018329	0.003678	-0.012093	-0.624512	0.087891	-0.257813
114.0	6.241936	1.362324	7.887831	-0.011808	0.00313	-0.019802	-0.631348	0.094238	-0.251221
115.0	6.300756	1.35689	7.894139	-0.009729	0.001082	-0.015272	-0.626709	0.087891	-0.250977
116.0	6.241301	1.362556	7.888293	-0.013942	-0.000356	-0.014209	-0.626709	0.087891	-0.257813
117.0	6.293329	1.369112	7.874561	-0.008115	0.003843	-0.01527	-0.628906	0.087891	-0.255615
118.0	6.240501	1.36294	7.88886	-0.010251	0.002004	-0.018641	-0.626709	0.085693	-0.257813
119.0	6.292431	1.369754	7.875167	-0.01155	0.002665	-0.018109	-0.626953	0.092285	-0.255615
120.0	6.254151	1.387444	7.869372	-0.015271	-0.000818	-0.017577	-0.628906	0.087891	-0.26001
121.0	6.270486	1.357759	7.875712	-0.01415	0.003987	-0.017045	-0.631104	0.085693	-0.253174
122.0	6.27028	1.357758	7.875877	-0.014286	-0.004905	-0.018635	-0.624756	0.092285	-0.253418
123.0	6.263374	1.370131	7.855856	-0.0095	-0.000503	-0.017478	-0.626953	0.090088	-0.253418
124.0	6.260319	1.375662	7.889876	-0.011113	-0.003267	-0.017477	-0.624512	0.085693	-0.257813
125.0	6.277184	1.346397	7.895725	-0.006694	-0.006174	-0.015697	-0.624512	0.087891	-0.250977
126.0	6.260767	1.376353	7.889401	-0.0088	-0.006896	-0.015166	-0.624512	0.085693	-0.253174
127.0	6.249719	1.347188	7.875077	-0.009868	-0.007816	-0.01685	-0.628906	0.087891	-0.255615
128.0	6.261705	1.376758	7.888585	-0.012025	-0.012424	-0.015163	-0.628906	0.085693	-0.253174
129.0	6.300289	1.359503	7.894062	-0.007531	-0.008676	-0.019593	-0.624756	0.090088	-0.257813
130.0	6.272629	1.360105	7.873601	-0.008046	-0.009403	-0.014007	-0.626709	0.087891	-0.257813
131.0	6.242117	1.36603	7.887046	-0.002042	-0.010662	-0.01613	-0.624756	0.090088	-0.255615
132.0	6.288234	1.385575	7.852369	-0.003886	-0.011847	-0.013914	-0.624756	0.090088	-0.250977
133.0	6.281576	1.3497	7.891667	-0.007322	-0.013028	-0.016749	-0.624512	0.087891	-0.255615
134.0	6.292309	1.332812	7.876872	-0.006828	-0.015071	-0.017279	-0.628906	0.087891	-0.250977
135.0	6.256704	1.397696	7.898121	-0.007323	-0.013029	-0.016746	-0.626709	0.085693	-0.257813
136.0	6.294046	1.333771	7.875322	-0.008129	-0.014413	-0.016744	-0.626709	0.085693	-0.253174
137.0	6.289548	1.393198	7.882549	-0.008129	-0.014414	-0.016743	-0.626709	0.085693	-0.253174
138.0	6.307385	1.363936	7.887629	-0.005778	-0.016922	-0.010537	-0.631104	0.090088	-0.257813
139.0	6.280339	1.36447	7.866696	-0.005268	-0.016196	-0.016119	-0.624756	0.092285	-0.253418
140.0	6.309457	1.365006	7.885786	-0.003659	-0.013431	-0.016119	-0.631104	0.087891	-0.26001
141.0	6.306299	1.372454	7.83101	-0.009168	-0.01422	-0.01452	-0.626465	0.083496	-0.255371
142.0	6.321016	1.348291	7.870282	-0.006227	-0.010995	-0.011155	-0.624756	0.090088	-0.255615
143.0	6.283669	1.365934	7.863783	-0.007527	-0.010337	-0.010622	-0.628906	0.087891	-0.253174
144.0	6.281499	1.371056	7.897222	-0.009367	-0.011524	-0.008405	-0.626465	0.083496	-0.253174
145.0	6.288288	1.360628	7.828414	-0.004446	-0.016467	-0.007165	-0.624512	0.085693	-0.248779
146.0	6.296618	1.348278	7.847321	-0.013966	-0.021407	-0.010608	-0.631104	0.085693	-0.248779
147.0	6.316372	1.365333	7.880192	-0.008953	-0.018574	-0.011676	-0.624756	0.090088	-0.253418
148.0	6.275582	1.3408	7.879023	-0.015852	-0.026485	-0.007233	-0.62915	0.090088	-0.255615
149.0	6.292024	1.364553	7.857339	-0.010965	-0.032548	-0.00989	-0.624268	0.083496	-0.250977
150.0	6.325746	1.359089	7.841131	-0.008146	-0.038218	-0.008116	-0.631104	0.087891	-0.250977
151.0	6.294796	1.369145	7.886959	-0.014726	-0.039936	-0.008187	-0.635498	0.085693	-0.253174
152.0	6.353028	1.370316	7.836312	-0.010564	-0.042376	-0.008099	-0.624512	0.087891	-0.250977
153.0	6.323421	1.328314	7.820049	-0.014419	-0.036514	-0.007647	-0.631348	0.092041	-0.246582
154.0	6.337613	1.357421	7.831831	-0.00949	-0.038687	-0.011461	-0.633545	0.092041	-0.248779
155.0	6.333198	1.369432	7.809803	-0.012274	-0.031903	-0.009329	-0.626709	0.087891	-0.250977
156.0	6.342595	1.357023	7.827867	-0.012582	-0.032559	-0.014904	-0.624756	0.090088	-0.253418
157.0	6.365845	1.368936	7.826145	-0.010851	-0.023666	-0.008271	-0.624756	0.090088	-0.244141
158.0	6.377295	1.351391	7.810756	-0.010582	-0.021356	-0.011637	-0.631104	0.085693	-0.250977
159.0	6.347431	1.356208	7.824087	-0.017529	-0.012134	-0.009584	-0.631104	0.089844	-0.248779
160.0	6.369313	1.367708	7.823537	-0.013817	-0.008637	-0.010129	-0.633545	0.092041	-0.246582
161.0	6.389289	1.332626	7.79512	-0.015343	-0.003625	-0.012429	-0.62915	0.090088	-0.250977
162.0	6.327109	1.342781	7.823703	-0.011054	0.002838	-0.010766	-0.626709	0.087891	-0.244141
163.0	6.355224	1.342471	7.843683	-0.01324	-0.002898	-0.012967	-0.626953	0.089844	-0.241943
164.0	6.343693	1.31295	7.82981	-0.010024	0.002644	-0.012981	-0.635498	0.089844	-0.246582
165.0	6.357339	1.33762	7.810126	-0.007427	0.004105	-0.0191	-0.631104	0.087891	-0.248779
166.0	6.356644	1.338484	7.810544	-0.002417	0.006948	-0.020181	-0.62915	0.090088	-0.248779
167.0	6.331929	1.332518	7.845108	-0.003221	0.005561	-0.020176	-0.633301	0.089844	-0.250977
168.0	6.349572	1.399534	7.819632	-0.00215	0.006483	-0.018497	-0.62915	0.089844	-0.246582
169.0	6.354291	1.341234	7.811986	-0.008647	0.009765	-0.015818	-0.631104	0.085693	-0.246338
170.0	6.36466	1.371183	7.826715	-0.006317	0.008915	-0.018569	-0.631104	0.089844	-0.246582
171.0	6.352378	1.342539	7.813318	-0.005286	0.008721	-0.020784	-0.633301	0.087646	-0.250977
172.0	6.379693	1.343149	7.833804	-0.007349	0.009106	-0.01635	-0.626709	0.085693	-0.248779
173.0	6.350442	1.343774	7.814679	-0.007886	0.010032	-0.01971	-0.628662	0.083496	-0.244141
174.0	6.34955	1.344428	7.815292	-0.005553	0.006407	-0.017416	-0.631348	0.092041	-0.244141
175.0	6.34601	1.350341	7.84979	-0.002151	0.006481	-0.018488	-0.631104	0.087646	-0.244141
176.0	6.362143	1.321744	7.856098	-0.00502	0.008255	-0.019097	-0.631104	0.085693	-0.250977
177.0	6.354202	1.334918	7.836716	-0.00242	0.006943	-0.020166	-0.628906	0.085693	-0.246338
178.0	6.33665	1.36551	7.831205	-0.001958	0.00101	-0.019547	-0.633545	0.092041	-0.250977
179.0	6.346146	1.349286	7.817219	-0.003528	0.002127	-0.020691	-0.628662	0.083496	-0.246338
180.0	6.345791	1.350538	7.817291	-0.000698	-0.000762	-0.023972	-0.633301	0.089844	-0.246582
181.0	6.35259	1.339895	7.837174	0.005114	0.000699	-0.020009	-0.633301	0.087646	-0.246338
182.0	6.356531	1.383175	7.831211	0.003511	-0.002075	-0.020003	-0.628906	0.087891	-0.248779
183.0	6.345036	1.355306	7.817079	0.002473	0.000891	-0.022829	-0.626709	0.085693	-0.244141
184.0	6.365731	1.369105	7.817102	0.001974	0.002931	-0.022295	-0.631104	0.087646	-0.244141
185.0	6.365171	1.370265	7.817355	-0.005062	0.004353	-0.017937	-0.626953	0.090088	-0.244141
186.0	6.343564	1.358868	7.817655	-0.006703	0.000462	-0.021821	-0.626465	0.083496	-0.246338
187.0	6.374137	1.354763	7.803704	-0.004301	0.004622	-0.021827	-0.624268	0.083496	-0.246338
188.0	6.345129	1.35576	7.784298	-0.007441	0.006854	-0.024114	-0.62915	0.094238	-0.246582
189.0	6.379614	1.344747	7.824572	0.002042	0.007938	-0.019545	-0.631104	0.089844	-0.241943
190.0	6.354381	1.387894	7.799481	0.001803	0.01229	-0.022371	-0.631104	0.087646	-0.246338
191.0	6.360111	1.377376	7.820223	0.005773	0.015336	-0.021232	-0.626953	0.090088	-0.246582
192.0	6.351392	1.391145	7.801335	0.000299	0.01841	-0.02077	-0.62915	0.092041	-0.248779
193.0	6.366849	1.362866	7.808241	-0.002334	0.015826	-0.018551	-0.628906	0.087891	-0.246338
194.0	6.355278	1.381346	7.823451	0.002668	0.018681	-0.019624	-0.631104	0.087646	-0.246338
195.0	6.356579	1.377482	7.790474	-0.006843	0.013698	-0.023044	-0.633301	0.085449	-0.246338
196.0	6.341128	1.354007	7.811437	-0.002336	0.015823	-0.018546	-0.624512	0.087891	-0.246338
197.0	6.360651	1.367314	7.812514	-0.000738	0.018597	-0.018547	-0.631104	0.089844	-0.248779
198.0	6.34895	1.385788	7.827802	0.000294	0.018405	-0.020757	-0.628906	0.085693	-0.248779
199.0	6.357273	1.369803	7.814827	0.000831	0.017481	-0.017399	-0.626953	0.092041	-0.246582
200.0	6.317486	1.388091	7.810113	-0.002607	0.016279	-0.020217	-0.628906	0.087891	-0.244141
201.0	6.354263	1.371837	7.816918	-0.005238	0.013693	-0.018002	-0.631104	0.085693	-0.250977
202.0	6.342752	1.389831	7.832109	-0.004145	0.018508	-0.017469	-0.626709	0.087891	-0.250977
203.0	6.351128	1.373351	7.819199	-0.004944	0.017119	-0.017466	-0.628906	0.087891	-0.248779
204.0	6.328618	1.361592	7.82026	-0.008374	0.013145	-0.015253	-0.624512	0.087891	-0.248779
205.0	6.369453	1.38686	7.821233	2.9e-05	0.01609	-0.017386	-0.628906	0.085693	-0.246338
206.0	6.346901	1.375765	7.822206	0.000265	0.01451	-0.019595	-0.628906	0.087891	-0.248779
207.0	6.324452	1.364765	7.823076	0.001835	0.013397	-0.018449	-0.624512	0.087891	-0.250977
208.0	6.344268	1.378436	7.823873	0.003138	0.012745	-0.018981	-0.624268	0.083496	-0.246338
209.0	6.335852	1.392205	7.804728	0.00497	0.013942	-0.021189	-0.631104	0.087646	-0.246338
210.0	6.359668	1.399149	7.85953	0.008404	0.015145	-0.018365	-0.631104	0.085693	-0.250977
211.0	6.329157	1.35426	7.812136	0.005176	0.011241	-0.027282	-0.626709	0.085693	-0.244141
212.0	6.360131	1.398059	7.826823	0.006248	0.0094	-0.020573	-0.628906	0.087891	-0.246338
213.0	6.327877	1.404828	7.84146	0.006776	0.011247	-0.022247	-0.626709	0.085693	-0.246338
214.0	6.343894	1.377526	7.847878	0.009382	0.009945	-0.02331	-0.626709	0.085693	-0.253174
215.0	6.34277	1.379673	7.848409	0.008078	0.010594	-0.022776	-0.628906	0.085693	-0.246338
216.0	6.327454	1.406077	7.809054	0.007013	0.009664	-0.024451	-0.631104	0.085693	-0.253174
217.0	6.323417	1.413253	7.843544	0.008584	0.008553	-0.023304	-0.628906	0.087891	-0.244141
218.0	6.363861	1.393187	7.815704	0.006464	0.003927	-0.021628	-0.626709	0.085693	-0.253174
219.0	6.3391	1.387621	7.849973	0.002283	0.006335	-0.021708	-0.62207	0.081299	-0.250977
220.0	6.345179	1.426231	7.810365	0.00933	0.004932	-0.02604	-0.633301	0.089844	-0.246582
221.0	6.340437	1.387072	7.816496	0.01302	0.008447	-0.026567	-0.626709	0.087891	-0.248779
222.0	6.371388	1.43152	7.830999	0.010679	0.009287	-0.023825	-0.628906	0.087891	-0.253174
223.0	6.35225	1.416483	7.797414	0.01041	0.009744	-0.025499	-0.628662	0.083496	-0.253174
224.0	6.330138	1.406456	7.797833	0.007247	0.008072	-0.026643	-0.631104	0.090088	-0.253418
225.0	6.326126	1.413613	7.832281	0.003842	0.007981	-0.02558	-0.633301	0.085693	-0.248779
226.0	6.34929	1.422712	7.79869	0.000948	0.005851	-0.025049	-0.635498	0.085449	-0.244141
227.0	6.334499	1.399897	7.819024	0.001742	0.007239	-0.025046	-0.628662	0.083496	-0.246338
228.0	6.326415	1.413773	7.799532	0.006235	0.009384	-0.020546	-0.628906	0.087891	-0.248779
229.0	6.329614	1.408351	7.853935	-0.001152	0.005106	-0.024514	-0.630859	0.083496	-0.253174
230.0	6.35302	1.417013	7.820238	-0.004045	0.002975	-0.023984	-0.624512	0.085693	-0.250977
231.0	6.321357	1.422757	7.834476	-0.007974	0.001035	-0.021249	-0.626709	0.085693	-0.244141
232.0	6.331224	1.406165	7.820552	-0.010866	-0.001097	-0.020719	-0.628662	0.081299	-0.248535
233.0	6.349062	1.42396	7.85466	-0.012696	-0.002297	-0.018513	-0.628906	0.085693	-0.246338
234.0	6.351957	1.419225	7.820701	-0.010867	-0.001099	-0.020716	-0.626465	0.081299	-0.253174
235.0	6.320611	1.424463	7.834768	-0.009293	-0.002205	-0.01957	-0.626709	0.087891	-0.248779
236.0	6.341688	1.437252	7.834686	-0.010342	-0.005901	-0.016223	-0.631104	0.087891	-0.257813
237.0	6.341769	1.437686	7.83454	-0.007989	-0.002854	-0.020098	-0.626953	0.090088	-0.244141
238.0	6.362164	1.403716	7.806311	-0.014284	-0.005083	-0.018508	-0.631104	0.089844	-0.250977
239.0	6.362192	1.403841	7.806266	-0.012699	-0.002303	-0.018504	-0.626709	0.087891	-0.250977
240.0	6.3309	1.408669	7.820364	-0.014005	-0.001656	-0.017972	-0.635254	0.083496	-0.246338
241.0	6.340994	1.391519	7.806364	-0.013736	-0.002115	-0.016297	-0.631104	0.089844	-0.244141
242.0	6.341669	1.438049	7.834555	-0.016357	-0.004707	-0.014093	-0.628662	0.083496	-0.246338
243.0	6.331194	1.407918	7.82026	-0.021102	-0.009167	-0.01524	-0.628906	0.085693	-0.246338
244.0	6.331654	1.407097	7.820036	-0.023714	-0.007875	-0.014175	-0.628906	0.085693	-0.244141
245.0	6.353216	1.418671	7.819779	-0.026388	-0.012714	-0.01973	-0.628906	0.085693	-0.246338
246.0	6.356813	1.412747	7.785458	-0.026084	-0.008166	-0.015312	-0.633301	0.085693	-0.253174
247.0	6.364367	1.399699	7.805236	-0.021619	-0.007135	-0.014697	-0.62915	0.092041	-0.246582
248.0	6.35747	1.411059	7.785228	-0.022134	-0.005099	-0.014161	-0.626709	0.085693	-0.246338
249.0	6.354717	1.415233	7.819182	-0.02162	-0.007137	-0.014693	-0.630859	0.083496	-0.246338
250.0	6.344328	1.384628	7.80488	-0.027122	-0.007985	-0.013097	-0.631104	0.085693	-0.248779
251.0	6.358581	1.40787	7.784898	-0.028158	-0.0078	-0.010889	-0.626465	0.083496	-0.248535
252.0	6.358972	1.406511	7.784824	-0.026332	-0.006596	-0.01309	-0.630859	0.083496	-0.248535
253.0	6.345486	1.380974	7.804586	-0.019526	-0.006393	-0.015216	-0.630859	0.083496	-0.248535
254.0	6.359563	1.405074	7.784601	-0.019526	-0.006394	-0.015214	-0.626709	0.085693	-0.246338
255.0	6.38779	1.405127	7.804562	-0.012958	-0.000724	-0.016269	-0.635498	0.087646	-0.244141
256.0	6.370131	1.434429	7.799	-0.011104	0.001601	-0.014592	-0.631104	0.085693	-0.246338
257.0	6.376559	1.375603	7.790736	-0.012687	-0.001184	-0.014595	-0.624268	0.083496	-0.244141
258.0	6.376789	1.422383	7.819316	-0.01192	0.002978	-0.019604	-0.626465	0.083496	-0.246338
259.0	6.375816	1.375916	7.791289	-0.010043	0.002532	-0.012915	-0.631104	0.085693	-0.241943
260.0	6.350691	1.41761	7.766004	-0.008761	0.004658	-0.018459	-0.631104	0.085693	-0.250977
261.0	6.395576	1.389028	7.792237	-0.009249	0.007811	-0.014043	-0.626465	0.083496	-0.248535
262.0	6.370826	1.381655	7.826788	-0.009005	0.006234	-0.016249	-0.628906	0.085693	-0.248779
263.0	6.370105	1.382096	7.827296	-0.007971	0.006049	-0.018453	-0.626709	0.087891	-0.244141
264.0	6.362038	1.394878	7.807998	-0.005328	0.009767	-0.016772	-0.626709	0.085693	-0.244141
265.0	6.364189	1.390594	7.77457	-0.006909	0.006981	-0.016777	-0.626465	0.083496	-0.250977
266.0	6.353322	1.407793	7.789204	-0.016359	0.003048	-0.016327	-0.630859	0.083496	-0.248535
267.0	6.373474	1.420381	7.789931	-0.010584	0.011221	-0.018511	-0.628906	0.087891	-0.248779
268.0	6.369109	1.378987	7.79623	-0.01113	0.004363	-0.01959	-0.626709	0.085693	-0.248779
269.0	6.357985	1.396685	7.810976	-0.003506	0.010976	-0.018965	-0.631104	0.085693	-0.246338
270.0	6.388218	1.392905	7.797579	-0.009551	0.007147	-0.01958	-0.624512	0.085693	-0.246338
271.0	6.328077	1.397505	7.792208	-0.010341	0.005753	-0.019582	-0.628906	0.087891	-0.246338
272.0	6.379332	1.406324	7.778841	-0.002201	0.010333	-0.019494	-0.631104	0.089844	-0.246582
273.0	6.385455	1.394978	7.799471	-0.006913	0.010864	-0.017896	-0.62915	0.089844	-0.246582
274.0	6.366796	1.424642	7.794612	-0.012169	0.012314	-0.019637	-0.628662	0.083496	-0.248535
275.0	6.396783	1.420429	7.781524	-0.010837	0.012788	-0.016292	-0.630859	0.081299	-0.248535
276.0	6.3715	1.412758	7.816491	-0.013453	0.014069	-0.015223	-0.631104	0.087646	-0.246338
277.0	6.380495	1.39584	7.803375	-0.01111	0.013245	-0.017958	-0.628906	0.085693	-0.244141
278.0	6.368561	1.366522	7.790117	-0.01005	0.014179	-0.016282	-0.628662	0.083496	-0.250977
279.0	6.343564	1.405749	7.853467	-0.007434	0.012896	-0.017348	-0.626465	0.081299	-0.246338
280.0	6.383853	1.384833	7.826197	-0.007435	0.012895	-0.017346	-0.633301	0.085449	-0.246338
281.0	6.375375	1.39748	7.807265	-0.008744	0.013535	-0.016811	-0.626709	0.087891	-0.244141
282.0	6.366734	1.410218	7.788451	-0.008771	0.016305	-0.021811	-0.633301	0.087646	-0.246338
283.0	6.351487	1.386335	7.809293	-8.8e-05	0.016088	-0.017252	-0.631104	0.087646	-0.246338
284.0	6.370993	1.400235	7.810348	0.002778	0.013232	-0.020524	-0.628906	0.085693	-0.241943
285.0	6.348643	1.388986	7.811133	-0.000361	0.016545	-0.018917	-0.631104	0.085693	-0.241943
286.0	6.368025	1.402718	7.812323	-0.003788	0.015313	-0.021731	-0.635498	0.085449	-0.248779
287.0	6.33849	1.403419	7.793238	-0.003267	0.013279	-0.022267	-0.62915	0.089844	-0.246582
288.0	6.354881	1.421812	7.828369	-0.005614	0.014098	-0.019531	-0.631104	0.090088	-0.253418
289.0	6.374337	1.388476	7.800975	-0.008226	0.01149	-0.017341	-0.624512	0.085693	-0.244141
290.0	6.355628	1.418158	7.796076	-0.009556	0.011012	-0.020681	-0.626709	0.087891	-0.248779
291.0	6.351252	1.423606	7.830989	-0.006403	0.012702	-0.019532	-0.631104	0.087891	-0.250977
292.0	6.360476	1.407145	7.817675	-0.007686	0.01057	-0.014001	-0.626465	0.081299	-0.241699
293.0	6.359455	1.407377	7.818463	-0.013749	0.009498	-0.019624	-0.631104	0.085693	-0.241943
294.0	6.33754	1.395026	7.81907	-0.009015	0.010091	-0.01734	-0.631104	0.087646	-0.244141
295.0	6.364687	1.395743	7.839857	-0.011898	0.00794	-0.016819	-0.628662	0.083496	-0.244141
296.0	6.349392	1.4203	7.800766	-0.012169	0.008398	-0.018485	-0.628906	0.085693	-0.248779
297.0	6.37328	1.379535	7.827029	-0.006416	0.007698	-0.022275	-0.631104	0.085693	-0.246338
298.0	6.344452	1.42642	7.835986	-0.005603	0.006321	-0.017272	-0.628906	0.087891	-0.246338
299.0	6.371764	1.381177	7.827974	-0.004311	0.004567	-0.021677	-0.628906	0.087891	-0.246338
300.0	6.346259	1.423131	7.802799	-0.011376	0.005901	-0.017353	-0.633301	0.087646	-0.248779
301.0	6.342368	1.381696	7.808786	-0.009813	0.003689	-0.020091	-0.626465	0.081299	-0.248535
302.0	6.33457	1.394325	7.789299	-0.011124	0.004326	-0.019557	-0.628662	0.083496	-0.248535
303.0	6.372387	1.424737	7.824265	-0.010593	0.007294	-0.017341	-0.633057	0.083496	-0.246338
304.0	6.374877	1.420377	7.790735	-0.008757	0.004624	-0.018413	-0.635254	0.083252	-0.241699
305.0	6.360411	1.396187	7.81096	-0.004308	0.009567	-0.018914	-0.631104	0.085693	-0.248779
306.0	6.359541	1.396894	7.811541	-0.007973	0.006017	-0.018403	-0.626953	0.090088	-0.244141
307.0	6.389842	1.439614	7.826846	-0.008496	0.013049	-0.015106	-0.626709	0.085693	-0.241943
308.0	6.343099	1.422152	7.773256	-0.007189	0.007411	-0.018393	-0.628906	0.085693	-0.246338
309.0	6.356558	1.398078	7.813757	-0.014015	0.011051	-0.017394	-0.626465	0.083496	-0.244141
310.0	6.358664	1.439909	7.809137	-0.011378	0.010892	-0.014585	-0.630859	0.083496	-0.246338
311.0	6.364804	1.381133	7.801391	-0.014271	0.012622	-0.015184	-0.628906	0.087891	-0.246338
312.0	6.359562	1.435103	7.777015	-0.013232	0.012444	-0.017381	-0.633057	0.083496	-0.244141
313.0	6.359233	1.385693	7.83736	-0.014785	0.010766	-0.013524	-0.628662	0.083496	-0.246338
314.0	6.343734	1.410004	7.798489	-0.011651	0.011348	-0.016245	-0.628906	0.085693	-0.244141
315.0	6.353316	1.392996	7.785058	-0.015826	0.005941	-0.014081	-0.628906	0.087891	-0.244141
316.0	6.352554	1.439107	7.814256	-0.018192	0.005638	-0.015221	-0.626709	0.085693	-0.250977
317.0	6.372727	1.405099	7.786579	-0.013219	0.008555	-0.016258	-0.628906	0.085693	-0.248779
318.0	6.379207	1.392863	7.807059	-0.013204	0.004669	-0.015143	-0.633057	0.083496	-0.246338
319.0	6.347175	1.397059	7.821563	-0.011909	0.007919	-0.016788	-0.626709	0.085693	-0.241943
320.0	6.3777	1.392957	7.808274	-0.011367	0.007	-0.013457	-0.626709	0.085693	-0.246338
321.0	6.366319	1.410129	7.823129	-0.007991	0.0099	-0.019496	-0.626709	0.085693	-0.244141
322.0	6.347797	1.393039	7.789551	-0.013222	0.008551	-0.016251	-0.628662	0.083496	-0.244141
323.0	6.364448	1.410438	7.824596	-0.009531	0.009331	-0.01177	-0.631104	0.087646	-0.244141
324.0	6.377266	1.389226	7.777094	-0.007992	0.009899	-0.019492	-0.631104	0.087646	-0.241943
325.0	6.352034	1.38177	7.811679	-0.006156	0.012232	-0.017806	-0.626709	0.087891	-0.246338
326.0	6.364404	1.407425	7.792963	-0.006428	0.01269	-0.019468	-0.624268	0.083496	-0.246338
327.0	6.359797	1.412672	7.827973	-0.009054	0.013956	-0.018401	-0.626709	0.085693	-0.248779
328.0	6.365749	1.40079	7.848809	-0.011931	0.011795	-0.017887	-0.631104	0.087646	-0.246338
329.0	6.329413	1.41259	7.809648	-0.012442	0.009939	-0.016233	-0.624512	0.085693	-0.246338
330.0	6.366802	1.396435	7.816542	-0.010097	0.014128	-0.016199	-0.626709	0.085693	-0.248779
331.0	6.337658	1.396117	7.797252	-0.012183	0.008366	-0.018438	-0.631104	0.087646	-0.246338
332.0	6.350138	1.421225	7.778565	-0.011141	0.0143	-0.013999	-0.630859	0.081299	-0.250977
333.0	6.335132	1.396602	7.799217	-0.006181	0.016113	-0.0189	-0.631104	0.085693	-0.248779
334.0	6.364994	1.393217	7.786428	-0.005911	0.015653	-0.017235	-0.626709	0.087891	-0.246338
335.0	6.332246	1.398053	7.801301	-0.004337	0.013449	-0.019974	-0.628662	0.083496	-0.248535
336.0	6.320267	1.415939	7.816446	-0.001462	0.01561	-0.020481	-0.633301	0.085449	-0.246338
337.0	6.36786	1.383844	7.809337	-0.002767	0.017353	-0.016077	-0.631348	0.092041	-0.246582
338.0	6.345005	1.41864	7.83889	-0.000443	0.01932	-0.023779	-0.624512	0.087891	-0.246338
339.0	6.325825	1.402235	7.805758	-0.005396	0.018614	-0.015009	-0.626465	0.083496	-0.248535
340.0	6.362878	1.386769	7.812879	-0.004609	0.013902	-0.021628	-0.626465	0.081299	-0.248535
341.0	6.351028	1.404321	7.827954	-0.008256	0.011453	-0.017262	-0.626953	0.090088	-0.246582
342.0	6.388367	1.388554	7.834911	-0.009061	0.013939	-0.018378	-0.630859	0.083496	-0.241699
343.0	6.32768	1.392431	7.82953	-0.010112	0.012999	-0.020051	-0.633301	0.085449	-0.244141
344.0	6.3433	1.413325	7.776962	-0.011698	0.014088	-0.021179	-0.630859	0.083496	-0.244141
345.0	6.356176	1.389482	7.81785	-0.008045	0.017648	-0.02167	-0.626709	0.085693	-0.246338
346.0	6.354314	1.436399	7.847614	-0.009303	0.011621	-0.015061	-0.630859	0.083496	-0.241699
347.0	6.339872	1.365328	7.839432	-0.007506	0.016729	-0.018342	-0.633057	0.081299	-0.248535
348.0	6.334046	1.41991	7.8154	-0.009871	0.016419	-0.019484	-0.628906	0.085693	-0.246338
349.0	6.343215	1.403689	7.802303	-0.004337	0.01455	-0.01608	-0.624268	0.083496	-0.250977
350.0	6.369822	1.404936	7.823536	-0.006701	0.01424	-0.017222	-0.62915	0.089844	-0.246582
351.0	6.329973	1.42161	7.818391	-0.00826	0.011444	-0.017248	-0.624268	0.083496	-0.246338
352.0	6.336068	1.409738	7.839095	-0.010354	0.010675	-0.016729	-0.628662	0.083496	-0.246338
353.0	6.320538	1.434457	7.800214	-0.009576	0.012072	-0.016713	-0.630859	0.083496	-0.246338
354.0	6.337246	1.40567	7.806796	-0.01167	0.011303	-0.016194	-0.628906	0.085693	-0.248779
355.0	6.325448	1.422256	7.821935	-0.01771	0.012421	-0.01408	-0.633057	0.083496	-0.248535
356.0	6.355775	1.418069	7.809074	-0.014813	0.009593	-0.017349	-0.628906	0.087891	-0.244141
357.0	6.344647	1.388416	7.795351	-0.010353	0.011782	-0.012853	-0.633301	0.085693	-0.248779
358.0	6.350118	1.422686	7.844888	-0.011942	0.011759	-0.017849	-0.630859	0.083496	-0.248535
359.0	6.318108	1.38037	7.830832	-0.010894	0.012697	-0.016171	-0.626709	0.085693	-0.244141
360.0	6.361839	1.401925	7.798533	-0.007485	0.012838	-0.017218	-0.628662	0.083496	-0.246338
361.0	6.350054	1.419032	7.813552	-0.011135	0.009271	-0.016731	-0.631104	0.089844	-0.248779
362.0	6.320907	1.418792	7.794181	-0.005932	0.015633	-0.017184	-0.631104	0.085693	-0.250977
363.0	6.337403	1.39024	7.800916	-0.0138	0.013298	-0.02063	-0.624268	0.081299	-0.253174
364.0	6.328782	1.402654	7.782175	-0.009612	0.017056	-0.013925	-0.630859	0.081299	-0.250977
365.0	6.323779	1.40725	7.817424	-0.013023	0.015803	-0.016743	-0.626465	0.083496	-0.248535
366.0	6.340149	1.37846	7.824312	-0.0112	0.017032	-0.018916	-0.628906	0.085693	-0.246338
367.0	6.341446	1.420688	7.820239	-0.010661	0.015005	-0.019462	-0.624512	0.087891	-0.248779
368.0	6.350651	1.40421	7.807237	-0.012248	0.017198	-0.016721	-0.626709	0.087891	-0.250977
369.0	6.345542	1.408747	7.842558	-0.014612	0.016883	-0.017863	-0.631104	0.087646	-0.246338
370.0	6.34462	1.362566	7.815048	-0.00938	0.019366	-0.017214	-0.628906	0.087891	-0.246338
371.0	6.324783	1.391972	7.810843	-0.007052	0.02356	-0.01716	-0.628906	0.085693	-0.246338
372.0	6.322813	1.392447	7.812353	-0.008605	0.020762	-0.017193	-0.628662	0.081299	-0.244141
373.0	6.310198	1.40963	7.827963	-0.006244	0.021074	-0.016046	-0.631104	0.085693	-0.250977
374.0	6.3227	1.385797	7.869079	-0.006241	0.019966	-0.01991	-0.626709	0.087891	-0.253174
375.0	6.341794	1.399498	7.870717	-0.005665	0.014058	-0.019366	-0.624512	0.087891	-0.250977
376.0	6.31623	1.395062	7.81721	-0.007216	0.01126	-0.0194	-0.626465	0.081299	-0.244141
377.0	6.322381	1.383603	7.83777	-0.006401	0.007668	-0.022156	-0.624512	0.085693	-0.246338
378.0	6.335035	1.409418	7.818975	-0.00823	0.007543	-0.016117	-0.626465	0.083496	-0.248535
379.0	6.34135	1.39753	7.839481	-0.009817	0.008626	-0.017243	-0.628906	0.087891	-0.248779
380.0	6.333296	1.410175	7.820248	-0.009544	0.00706	-0.01945	-0.628906	0.087891	-0.246338
381.0	6.33247	1.41066	7.82083	-0.009544	0.007059	-0.019448	-0.626709	0.085693	-0.250977
382.0	6.310876	1.398207	7.820971	-0.007726	0.009398	-0.017752	-0.633301	0.087646	-0.248779
383.0	6.330583	1.411626	7.822183	-0.010088	0.009081	-0.018896	-0.626465	0.081299	-0.250977
384.0	6.308923	1.39907	7.822393	-0.010089	0.00908	-0.018894	-0.626709	0.087891	-0.246338
385.0	6.324996	1.417038	7.857647	-0.006678	0.00923	-0.019936	-0.626953	0.090088	-0.246582
386.0	6.324127	1.417672	7.858232	-0.007958	0.005972	-0.018315	-0.628906	0.085693	-0.248779
387.0	6.317149	1.384303	7.809952	-0.004547	0.006123	-0.019357	-0.626709	0.085693	-0.244141
388.0	6.322625	1.419295	7.859148	-0.002186	0.00644	-0.01821	-0.626465	0.081299	-0.246338
389.0	6.325505	1.415683	7.825557	-0.009271	0.005486	-0.021646	-0.633301	0.087891	-0.253174
390.0	6.324865	1.416436	7.825938	-0.003734	0.00364	-0.018247	-0.626709	0.085693	-0.248779
391.0	6.342399	1.38837	7.831855	-0.004508	0.002239	-0.018265	-0.626465	0.083496	-0.248535
392.0	6.334788	1.401249	7.812218	-0.007919	0.002086	-0.017222	-0.628906	0.085693	-0.248779
393.0	6.347813	1.423621	7.881033	-0.007643	0.00052	-0.019428	-0.628662	0.083496	-0.250977
394.0	6.355006	1.415152	7.812938	-0.014147	-0.005235	-0.018463	-0.624268	0.083496	-0.250977
395.0	6.347719	1.427747	7.793085	-0.007645	0.000519	-0.019426	-0.626465	0.083496	-0.244141
396.0	6.354561	1.416061	7.813135	-0.007922	0.002083	-0.017217	-0.628662	0.081299	-0.246338
397.0	6.333453	1.403497	7.812896	-0.009511	0.003163	-0.018341	-0.628662	0.081299	-0.248535
398.0	6.319315	1.378786	7.832687	-0.007463	0.007822	-0.019937	-0.626465	0.083496	-0.248535
399.0	6.341713	1.434293	7.828662	-0.006925	0.006905	-0.016623	-0.626709	0.085693	-0.248779
400.0	6.33833	1.392951	7.834335	-0.007195	0.007362	-0.018278	-0.628906	0.087891	-0.244141
401.0	6.340025	1.435306	7.829844	-0.009834	0.008606	-0.017215	-0.62207	0.081299	-0.248535
402.0	6.329429	1.406081	7.815693	-0.007967	0.005961	-0.018296	-0.631104	0.085693	-0.246338
403.0	6.349123	1.419767	7.816882	-0.008553	0.010757	-0.02269	-0.631104	0.087891	-0.248779
404.0	6.341915	1.382923	7.856726	-0.007196	0.00736	-0.018273	-0.624512	0.087891	-0.253174
405.0	6.305809	1.395082	7.817194	-0.00411	0.012962	-0.01819	-0.626709	0.085693	-0.246338
406.0	6.325216	1.409035	7.818571	-0.003832	0.011397	-0.020395	-0.626465	0.079102	-0.248535
407.0	6.331296	1.397862	7.839147	-0.003553	0.009832	-0.022601	-0.626465	0.083496	-0.248535
408.0	6.333812	1.394669	7.805829	-0.001742	0.012175	-0.020902	-0.626709	0.085693	-0.253174
409.0	6.342279	1.42563	7.82137	-0.000692	0.012011	-0.023086	-0.633301	0.085693	-0.250977
410.0	6.320537	1.413818	7.82149	-0.004325	0.008427	-0.022617	-0.630615	0.079102	-0.248535
411.0	6.347327	1.415825	7.842537	-0.001194	0.010151	-0.021449	-0.624512	0.085693	-0.250977
412.0	6.329328	1.39955	7.808593	-0.005916	0.009503	-0.023738	-0.626465	0.081299	-0.246338
413.0	6.30642	1.433952	7.837625	0.000125	0.009529	-0.021976	-0.626465	0.079102	-0.250732
414.0	6.31985	1.414272	7.790123	-0.003338	0.013247	-0.022016	-0.628662	0.083496	-0.250977
415.0	6.325787	1.403029	7.810837	-0.005159	0.012007	-0.019851	-0.626709	0.087891	-0.246338
416.0	6.34157	1.421442	7.846178	-0.004327	0.008421	-0.022608	-0.624268	0.083496	-0.246338
417.0	6.353821	1.448023	7.827585	-0.000698	0.012005	-0.023071	-0.628906	0.085693	-0.246338
418.0	6.331989	1.436234	7.827765	-0.002789	0.011222	-0.022561	-0.628662	0.083496	-0.244141
419.0	6.33806	1.425184	7.848334	-0.003559	0.009819	-0.022581	-0.628662	0.081299	-0.248535
420.0	6.333464	1.433868	7.795184	-0.008305	0.011381	-0.017151	-0.630859	0.083496	-0.246338
421.0	6.315323	1.41335	7.849247	-0.008792	0.008415	-0.019378	-0.630859	0.083496	-0.246338
422.0	6.338756	1.422515	7.816446	-0.013243	0.007305	-0.020014	-0.628906	0.085693	-0.248779
423.0	6.317367	1.409709	7.816447	-0.009292	0.006555	-0.017744	-0.633301	0.085693	-0.250977
424.0	6.346643	1.453011	7.832482	-0.008025	0.009815	-0.019351	-0.628662	0.083496	-0.250977
425.0	6.343104	1.411864	7.838345	-0.005437	0.012456	-0.021488	-0.630859	0.081299	-0.250977
426.0	6.362354	1.425797	7.839878	-0.008081	0.013692	-0.020426	-0.628662	0.079102	-0.250732
427.0	6.326021	1.437873	7.800489	-0.00413	0.012943	-0.018155	-0.628662	0.083496	-0.248535
428.0	6.328057	1.430589	7.855419	-0.009959	0.016327	-0.01934	-0.626709	0.085693	-0.248779
429.0	6.330573	1.426646	7.822324	-0.008809	0.009514	-0.015509	-0.632813	0.076904	-0.248535
430.0	6.329582	1.426924	7.823074	-0.011439	0.009642	-0.018306	-0.626465	0.083496	-0.250977
431.0	6.324829	1.431514	7.85785	-0.009847	0.008567	-0.017182	-0.631104	0.085693	-0.250977
432.0	6.338694	1.410932	7.81032	-0.01117	0.009184	-0.016651	-0.628662	0.081299	-0.255371
433.0	6.333931	1.415281	7.845143	-0.014853	0.009471	-0.017266	-0.624268	0.083496	-0.246338
434.0	6.325876	1.427472	7.825972	-0.012436	0.00592	-0.015043	-0.633057	0.083496	-0.248535
435.0	6.336214	1.41104	7.812313	-0.011383	0.00576	-0.017224	-0.628662	0.083496	-0.246338
436.0	6.322098	1.385779	7.832137	-0.014569	0.007906	-0.019467	-0.628906	0.087891	-0.248779
437.0	6.351236	1.42877	7.848347	-0.011173	0.00918	-0.016643	-0.626465	0.083496	-0.253174
438.0	6.333572	1.41152	7.814368	-0.01221	0.008233	-0.018318	-0.630859	0.083496	-0.250977
439.0	6.334908	1.453753	7.81008	-0.010121	0.009019	-0.018822	-0.628906	0.085693	-0.250977
440.0	6.335582	1.407731	7.7817	-0.014031	0.006988	-0.016158	-0.630859	0.081299	-0.250977
441.0	6.31988	1.428495	7.830628	-0.014571	0.007901	-0.01946	-0.628662	0.081299	-0.248535
442.0	6.339521	1.44172	7.832004	-0.013266	0.008389	-0.01613	-0.631104	0.085693	-0.250977
443.0	6.323139	1.374297	7.856834	-0.014033	0.006985	-0.016154	-0.631104	0.085693	-0.246338
444.0	6.328439	1.411916	7.818454	-0.014033	0.006984	-0.016153	-0.628662	0.083496	-0.250977
445.0	6.316661	1.428529	7.833219	-0.010063	0.005138	-0.017742	-0.628662	0.083496	-0.246338
446.0	6.315909	1.428753	7.833784	-0.011945	0.007771	-0.016655	-0.626465	0.081299	-0.253174
447.0	6.342782	1.42992	7.854972	-0.009856	0.008559	-0.017159	-0.626709	0.085693	-0.248779
448.0	6.325174	1.412681	7.820958	-0.013539	0.008841	-0.017773	-0.628906	0.087891	-0.253174
449.0	6.344853	1.425958	7.822309	-0.012711	0.006365	-0.016677	-0.628662	0.081299	-0.248535
450.0	6.323487	1.412628	7.822332	-0.015919	0.00961	-0.015059	-0.626709	0.085693	-0.241943
451.0	6.331962	1.441849	7.838093	-0.019333	0.009433	-0.014022	-0.626465	0.083496	-0.248535
452.0	6.334879	1.437029	7.804916	-0.019333	0.009432	-0.014021	-0.624268	0.083496	-0.244141
453.0	6.30949	1.427382	7.839205	-0.021198	0.01096	-0.016789	-0.628662	0.079102	-0.250732
454.0	6.33275	1.435708	7.806886	-0.021218	0.012061	-0.01293	-0.626465	0.083496	-0.248535
455.0	6.334905	1.426437	7.861958	-0.025213	0.015001	-0.007479	-0.626465	0.083496	-0.241699
456.0	6.321145	1.486894	7.906512	-0.037954	0.006834	-0.005036	-0.630859	0.083496	-0.244141
457.0	6.331797	1.378955	7.868571	-0.053216	-0.007869	0.0006	-0.628906	0.085693	-0.248779
458.0	6.321498	1.391537	7.882843	-0.046035	-0.012952	-0.002607	-0.622314	0.083496	-0.250977
459.0	6.381043	1.43543	7.830757	-0.05822	-0.023144	-0.000718	-0.628662	0.079102	-0.248535
460.0	6.391306	1.372589	7.821013	-0.057114	-0.011025	-0.00057	-0.630859	0.083496	-0.246338
461.0	6.27836	1.402101	7.944281	-0.060867	-0.006871	-0.002233	-0.626465	0.083496	-0.248535
462.0	6.277956	1.48874	8.001558	-0.06567	-0.065603	0.013582	-0.631104	0.085693	-0.253174
463.0	6.339925	1.449077	7.866736	-0.099174	-0.122419	0.033354	-0.626709	0.085693	-0.246338
464.0	6.394141	1.561194	7.709364	-0.105803	-0.168019	0.06144	-0.635498	0.089844	-0.244141
465.0	6.406896	1.634841	7.845861	-0.112773	-0.208857	0.103381	-0.637939	0.092041	-0.241943
466.0	6.547467	1.565165	7.816634	-0.171134	-0.262476	0.137465	-0.626953	0.090088	-0.246582
467.0	6.820829	1.289571	7.699737	-0.183986	-0.249258	0.160889	-0.62915	0.094238	-0.239746
468.0	6.938178	1.20713	7.581449	-0.148485	-0.182844	0.142439	-0.633301	0.087646	-0.239502
469.0	6.912773	1.338211	7.622008	-0.100031	-0.119176	0.111802	-0.62915	0.094238	-0.241943
470.0	6.823997	1.337655	7.692781	-0.085442	-0.073911	0.092138	-0.631592	0.096436	-0.239746
471.0	6.734491	1.384849	7.673716	-0.095092	-0.054278	0.102825	-0.633545	0.094238	-0.237549
472.0	6.642737	1.323273	8.10371	-0.052475	-0.038123	0.088476	-0.631592	0.098633	-0.237549
473.0	6.785854	1.246152	7.790507	-0.033243	-0.052422	0.070264	-0.633545	0.092041	-0.237305
474.0	6.769602	1.085968	7.907316	0.034676	-0.029745	0.026864	-0.625	0.096436	-0.244385
475.0	6.733745	1.159489	7.719324	0.094022	-0.024676	-0.024528	-0.622803	0.098633	-0.23291
476.0	6.669092	1.361579	7.864173	0.143017	-0.012385	-0.074756	-0.633545	0.092041	-0.239746
477.0	6.801372	1.353187	7.824728	0.14027	-0.007888	-0.118737	-0.631592	0.098633	-0.235352
478.0	6.821644	1.198067	7.914693	0.165526	0.018593	-0.14739	-0.62915	0.094238	-0.237549
479.0	6.695509	1.001399	7.912367	0.175609	0.087746	-0.164698	-0.631348	0.092041	-0.241943
480.0	6.998276	0.882243	8.315109	0.17575	0.154123	-0.16833	-0.62915	0.092041	-0.244141
481.0	6.313801	0.851107	7.6016	0.206622	0.175192	-0.175864	-0.630859	0.083496	-0.244141
482.0	6.111009	1.214183	7.709173	0.244116	0.175526	-0.21857	-0.628662	0.083496	-0.250977
483.0	5.711724	1.035537	7.579394	0.212166	0.140983	-0.225453	-0.628662	0.083496	-0.253174
484.0	5.892282	0.764998	7.658606	0.215961	0.104251	-0.196773	-0.626465	0.081299	-0.248535
485.0	6.002285	0.885284	7.523464	0.242316	0.082313	-0.185254	-0.626221	0.076904	-0.250732
486.0	5.727785	1.143461	7.555496	0.243786	0.068789	-0.186118	-0.626465	0.079102	-0.246338
487.0	5.679039	1.282085	7.519148	0.222183	0.03254	-0.163879	-0.621826	0.076904	-0.248535
488.0	5.792001	1.44485	7.40679	0.20777	0.004056	-0.155233	-0.628174	0.07251	-0.248535
489.0	5.783387	1.389538	7.44821	0.199076	-0.021138	-0.151413	-0.628418	0.074707	-0.246094
490.0	5.911469	1.39636	7.563636	0.225982	-0.074557	-0.1365	-0.628174	0.068115	-0.248291
491.0	6.231555	1.385486	7.59469	0.200219	-0.085621	-0.130216	-0.628174	0.07251	-0.246094
492.0	6.24896	1.520837	7.677065	0.224794	-0.092361	-0.11532	-0.625977	0.068115	-0.239258
493.0	6.289838	1.671059	7.548331	0.253153	-0.096651	-0.115646	-0.630127	0.068115	-0.241455
494.0	6.406408	1.925022	7.657218	0.274964	-0.090577	-0.113918	-0.625977	0.068115	-0.243896
495.0	6.431136	1.965964	7.646668	0.262408	-0.079663	-0.097041	-0.62793	0.063721	-0.239258
496.0	6.467119	2.116144	7.727262	0.213707	-0.059736	-0.083768	-0.629883	0.061523	-0.24585
497.0	6.326114	2.219317	7.673776	0.167392	-0.073734	-0.080613	-0.625488	0.057129	-0.239014
498.0	6.496359	2.164628	7.798432	0.123685	-0.091545	-0.062637	-0.625488	0.057129	-0.241211
499.0	6.424446	1.94346	7.83565	0.095206	-0.091196	-0.050035	-0.623291	0.061523	-0.243652
500.0	6.083637	1.811491	7.586256	0.066782	-0.103187	-0.03948	-0.625488	0.059326	-0.241211
501.0	6.103782	1.891144	7.672402	0.092715	-0.15201	-0.03556	-0.627686	0.059326	-0.239014
502.0	6.354988	1.808622	7.663286	0.092166	-0.178507	-0.026922	-0.629883	0.059326	-0.236816
503.0	6.302998	1.956754	7.516245	0.125629	-0.188649	-0.029861	-0.623291	0.057373	-0.243652
504.0	6.33524	1.985157	7.623821	0.098801	-0.18935	-0.015997	-0.625488	0.059326	-0.239014
505.0	6.233883	1.988697	7.564475	0.086045	-0.198691	-0.006107	-0.627686	0.059326	-0.241211
506.0	6.947462	1.806202	7.99432	0.098508	-0.221304	0.002823	-0.625488	0.059326	-0.236816
507.0	6.939699	1.704985	7.572291	0.051765	-0.193883	0.009368	-0.630127	0.063721	-0.239014
508.0	6.721495	2.046443	7.485684	0.072795	-0.12612	-0.021043	-0.623291	0.061523	-0.243652
509.0	7.068179	2.231851	7.359269	-0.08821	0.028072	0.02878	-0.623535	0.065918	-0.246094
510.0	6.444822	1.721275	7.685889	-0.031062	-0.035187	0.029744	-0.625977	0.068115	-0.246094
511.0	6.529221	1.845546	7.337721	-0.034472	-0.018047	0.024454	-0.624023	0.074707	-0.246094
512.0	6.562485	2.019743	7.574337	-0.054311	-0.022173	0.037381	-0.626465	0.081299	-0.250977
513.0	6.479841	1.870871	7.379267	-0.036475	-0.008995	0.042841	-0.626709	0.087891	-0.255615
514.0	6.48984	1.816982	7.616085	-0.032461	-0.003543	0.040613	-0.631104	0.089844	-0.248779
515.0	6.517155	1.814472	7.547857	-0.03351	-0.009475	0.047275	-0.635742	0.094238	-0.241943
516.0	6.59491	1.869052	7.491707	-0.043656	-0.022382	0.048489	-0.646973	0.098633	-0.242188
517.0	6.350543	1.876055	7.451036	-0.055837	-0.002661	0.068204	-0.648682	0.092041	-0.244141
518.0	6.443754	1.908038	7.558422	-0.092869	-0.006037	0.088601	-0.646484	0.092041	-0.235107
519.0	6.294	1.810891	7.454779	-0.108408	-0.010107	0.109311	-0.648926	0.094238	-0.23291
520.0	6.396278	1.740998	7.683419	-0.131062	-0.010344	0.118414	-0.644287	0.092041	-0.230469
521.0	6.531957	1.56842	7.631552	-0.12778	-0.033715	0.128229	-0.646484	0.089844	-0.23291
522.0	6.426481	1.669662	7.534244	-0.086184	-0.020735	0.111587	-0.648438	0.085449	-0.237305
523.0	6.590829	1.726402	7.659445	-0.086099	-0.024646	0.1128	-0.646484	0.087646	-0.230469
524.0	6.662446	1.691766	7.440814	-0.090998	-0.011486	0.103839	-0.646484	0.087646	-0.228271
525.0	6.63114	1.729015	7.484958	-0.081431	0.023471	0.091954	-0.648682	0.092041	-0.226074
526.0	6.709854	1.732174	7.615369	-0.099697	0.038267	0.083934	-0.652832	0.087646	-0.232666
527.0	6.694345	1.563599	7.62397	-0.093604	0.033275	0.083015	-0.650879	0.089844	-0.228271
528.0	6.709528	1.702679	7.589626	-0.071586	0.050554	0.071528	-0.64209	0.089844	-0.221436
529.0	6.709436	1.689982	7.682178	-0.096958	0.043065	0.067578	-0.644287	0.089844	-0.228271
530.0	6.809125	1.656137	7.663146	-0.102851	0.035196	0.06821	-0.650635	0.087646	-0.228271
531.0	6.77495	1.604775	7.687408	-0.113787	0.027063	0.064956	-0.646484	0.092041	-0.228271
532.0	6.668251	1.575359	7.754165	-0.136086	0.01633	0.070404	-0.648682	0.092041	-0.226074
533.0	6.722003	1.47764	7.80813	-0.187503	-0.002737	0.067473	-0.648682	0.092041	-0.226074
534.0	6.696662	1.410251	7.762117	-0.188008	-0.020903	0.068298	-0.646484	0.092041	-0.228271
535.0	6.641538	1.302172	7.823016	-0.197789	-0.033119	0.053073	-0.648682	0.089844	-0.228271
536.0	6.47769	1.412289	8.087091	-0.176253	-0.086591	0.051562	-0.65332	0.094238	-0.23291
537.0	6.389325	1.324091	8.169752	-0.196132	-0.178793	0.065964	-0.651123	0.094238	-0.226074
538.0	6.276018	1.064724	8.33623	-0.15463	-0.283544	0.054481	-0.646484	0.092041	-0.228271
539.0	6.166365	1.36055	8.561016	-0.071452	-0.415657	0.037335	-0.64917	0.100586	-0.217041
540.0	6.135808	2.011601	8.998808	-0.105955	-0.554063	0.023621	-0.65332	0.098389	-0.2146
541.0	6.151876	1.649937	8.549502	-0.134486	-0.771454	0.031699	-0.655518	0.098389	-0.212402
542.0	6.328553	1.803001	8.709347	-0.104335	-0.947262	0.011672	-0.659912	0.098389	-0.212402
543.0	6.337012	1.340166	8.735465	-0.114277	-1.099746	-0.053818	-0.655518	0.096191	-0.196533
544.0	6.394243	1.733767	8.870893	-0.110284	-1.26317	-0.128426	-0.664307	0.096191	-0.189697
545.0	6.349965	1.711791	8.820236	-0.211939	-1.446522	-0.207212	-0.677246	0.09375	-0.182617
546.0	6.369719	2.025449	8.859735	-0.218274	-1.627406	-0.238444	-0.679199	0.091553	-0.168945
547.0	6.405133	2.582874	8.774434	-0.479038	-1.862993	-0.218083	-0.679199	0.089355	-0.157471
548.0	6.35181	2.482204	8.970586	-0.680971	-2.085463	-0.057791	-0.689941	0.089355	-0.141602
549.0	6.211097	2.302603	9.029681	-0.764181	-2.444081	0.071064	-0.688232	0.095703	-0.125732
550.0	6.463809	2.801048	9.016324	-0.822578	-2.758539	0.249239	-0.694824	0.0979	-0.112061
551.0	5.817995	1.7924	8.922906	-0.930433	-3.202077	0.390602	-0.699463	0.102295	-0.089355
552.0	6.226292	1.954046	8.890417	-0.475766	-3.562348	0.544028	-0.708252	0.104248	-0.06665
553.0	5.856778	2.044737	9.164564	-0.440644	-3.967772	0.728745	-0.708496	0.11084	-0.034912
554.0	6.347694	1.880671	9.458351	-0.338425	-4.152143	1.058969	-0.719727	0.117188	-0.01001
555.0	5.404241	1.604076	9.174132	0.215644	-4.253337	1.468912	-0.724365	0.123535	0.019531
556.0	4.328897	3.288593	8.205025	1.147633	-4.618676	1.862399	-0.725342	0.145264	0.044189
557.0	4.83163	5.522958	8.496747	0.537954	-5.278764	2.584059	-0.72998	0.15625	0.075928
558.0	6.038063	4.31539	8.129407	-0.615745	-5.895173	3.072407	-0.728516	0.171387	0.116699
559.0	8.481131	2.47152	7.687702	-0.696277	-6.788299	3.267839	-0.725586	0.199707	0.159424
560.0	15.764153	-0.663282	6.897408	-1.208856	-7.60689	3.204857	-0.721924	0.219238	0.209229
561.0	26.033708	0.91443	7.759741	-0.165174	-7.770489	2.757026	-0.702637	0.227783	0.252197
562.0	27.694214	3.664932	6.991968	0.330055	-7.05655	2.565966	-0.687988	0.240967	0.288574
563.0	27.772572	5.470688	8.455125	0.086073	-6.73192	2.55865	-0.664551	0.25415	0.317871
564.0	27.063237	6.717036	10.387403	0.468916	-6.124606	2.593887	-0.641113	0.262939	0.333496
565.0	22.164298	10.594156	11.403254	1.137864	-5.480207	2.961227	-0.615723	0.282715	0.349121
566.0	13.827758	16.436434	16.656574	-0.903914	-6.069488	3.810607	-0.576416	0.280762	0.369629
567.0	19.592974	15.455842	17.44881	-3.143988	-4.930981	2.253962	-0.558838	0.278809	0.35376
568.0	6.157811	19.110777	20.587947	-2.519838	0.58182	1.213561	-0.540527	0.259277	0.344971
569.0	20.757124	10.584741	20.41956	-6.061871	-2.189218	-0.062137	-0.513184	0.231201	0.318115
570.0	10.479076	4.59805	13.338595	-3.081983	3.164662	-1.655932	-0.500977	0.205078	0.279785
571.0	-0.267691	8.164797	14.370737	-2.271654	2.648448	-2.10626	-0.465332	0.187988	0.243652
572.0	-0.072622	3.394078	13.009396	-3.107977	2.26628	-1.957454	-0.434326	0.175293	0.202881
573.0	-0.108789	0.477767	12.286347	-2.176235	2.601599	-1.660639	-0.383545	0.1604	0.177979
574.0	-0.794707	-0.851686	12.143646	-1.497453	2.580676	-1.476843	-0.340088	0.162842	0.145996
575.0	0.929183	-1.371393	12.099597	-0.227489	2.728229	-1.338697	-0.272705	0.167725	0.13208
576.0	2.412916	3.943622	14.988049	0.105881	3.485246	-1.30362	-0.209717	0.176758	0.129639
577.0	3.472832	1.662276	11.451311	0.133182	3.652402	-0.98971	-0.140869	0.19458	0.147461
578.0	3.375811	4.431488	11.400145	0.545969	4.17997	-0.839247	-0.085205	0.218994	0.190186
579.0	4.002597	5.264151	11.475899	0.496274	4.646218	-0.792392	-0.053467	0.245117	0.241943
580.0	4.135614	4.377364	10.70764	0.125952	5.022437	-0.90476	-0.043701	0.269043	0.30542
581.0	4.48972	2.783409	9.449508	0.149127	5.186617	-1.119309	-0.068604	0.290527	0.371094
582.0	4.924498	3.746118	9.450857	-0.23016	5.478097	-1.300879	-0.119385	0.303223	0.42334
583.0	5.135667	2.144423	9.224861	-0.336145	5.577402	-1.45866	-0.178467	0.304932	0.455322
584.0	6.31549	2.698677	9.953432	-0.65224	5.639116	-1.537802	-0.25	0.295654	0.466797
585.0	8.090907	0.019864	9.692887	-0.074302	5.643691	-1.682447	-0.323486	0.284424	0.469482
586.0	9.363417	0.869672	10.712872	-0.092076	5.792007	-1.655343	-0.392822	0.272949	0.440186
587.0	10.48959	-0.114327	10.895207	0.293751	5.938098	-1.590327	-0.452881	0.250977	0.399658
588.0	11.181808	-0.817135	11.183441	0.351946	5.982894	-1.433905	-0.49585	0.233398	0.349854
589.0	12.504326	0.237927	11.326459	0.40616	6.004863	-1.187534	-0.540771	0.21582	0.295654
590.0	13.981962	-0.087899	11.692257	0.621013	6.00381	-1.043194	-0.564209	0.204834	0.234375
591.0	15.488927	0.895341	12.348414	0.783396	5.983231	-1.012474	-0.573975	0.178711	0.175537
592.0	16.308036	1.696061	12.650354	0.924216	5.889988	-1.115573	-0.57959	0.154785	0.121338
593.0	18.685763	3.300259	12.800385	1.067469	5.590602	-1.306673	-0.582764	0.128662	0.064941
594.0	22.982659	5.061728	13.525155	1.12301	5.351456	-1.592004	-0.586182	0.106934	0.028809
595.0	29.366181	6.705022	13.428476	0.281144	5.336599	-1.870417	-0.587158	0.083008	-0.027588
596.0	36.012318	8.339268	13.849084	-0.237238	5.73887	-2.200984	-0.57959	0.057129	-0.074951
597.0	39.658119	4.163672	10.392748	-0.324487	6.689224	-2.687811	-0.56543	0.03125	-0.12915
598.0	38.211832	-0.675804	6.616041	0.214286	7.127752	-3.212168	-0.544434	0.00293	-0.176514
599.0	34.674242	-5.92678	0.685838	0.045571	7.27259	-3.650968	-0.510254	-0.031494	-0.228271
600.0	32.783522	-6.355983	-5.902499	1.837464	6.561966	-4.094228	-0.476318	-0.05957	-0.261963
601.0	28.811545	-3.487368	-13.888617	1.113168	5.751765	-3.779547	-0.455322	-0.087891	-0.293457
602.0	24.701374	-1.051072	-19.195814	-0.079955	4.686788	-2.483055	-0.426514	-0.098389	-0.318115
603.0	19.922282	-8.178217	-23.356071	-3.604084	3.213955	-0.678004	-0.416016	-0.087402	-0.334473
604.0	26.242574	-22.294155	-23.308708	-3.282378	0.190028	0.564529	-0.418701	-0.078613	-0.334473
605.0	37.23056	-21.950283	-22.149691	2.539539	-0.981565	0.542396	-0.417969	-0.096191	-0.32959
606.0	29.563343	-0.905904	-14.570018	4.721015	1.317453	1.176918	-0.41748	-0.10498	-0.324951
607.0	11.129055	5.702181	-23.134138	-0.775995	-1.933923	2.433031	-0.427246	-0.083008	-0.332275
608.0	-11.280736	-0.778239	23.344344	-4.057738	-5.16458	2.288586	-0.460693	-0.065918	-0.307373
609.0	21.457581	1.774853	19.441215	2.218503	-4.484155	1.818229	-0.471191	-0.07251	-0.284424
610.0	4.926201	6.054453	3.423677	1.901365	-4.423766	0.989324	-0.490723	-0.074951	-0.266113
611.0	21.219443	-0.166524	13.629134	-0.755918	-5.953826	1.136321	-0.509033	-0.057617	-0.239258
612.0	25.711944	0.742559	13.971316	1.657293	-4.186785	0.449215	-0.523926	-0.064453	-0.213867
613.0	14.478602	3.112961	14.048605	0.849717	-3.276778	0.607686	-0.537109	-0.062256	-0.200195
614.0	14.121061	2.147025	9.874648	0.03544	-3.085787	0.515767	-0.543457	-0.066895	-0.186523
615.0	6.783261	3.426483	7.964795	0.946561	-2.856468	0.221267	-0.55249	-0.0625	-0.163818
616.0	10.375012	4.193194	9.583456	0.631694	-3.17141	0.352064	-0.561035	-0.062744	-0.141113
617.0	25.769244	9.971941	11.107467	0.511793	-2.501735	0.465232	-0.565674	-0.060547	-0.129639
618.0	7.462635	7.376067	8.44136	-0.715381	-0.324104	0.2492	-0.572266	-0.056152	-0.13208
619.0	8.014388	0.034778	9.977918	-1.172779	-1.015994	0.502442	-0.565918	-0.051758	-0.127441
620.0	8.098571	-1.494421	9.735248	-0.927341	-0.712478	0.438554	-0.572754	-0.04541	-0.129883
621.0	9.849941	3.193861	9.414213	-0.371564	-0.445198	0.226497	-0.572754	-0.047363	-0.125244
622.0	5.602246	1.078474	9.467763	-0.328416	-0.343661	0.169402	-0.577148	-0.043213	-0.116211
623.0	6.61455	0.963037	9.132203	-0.187317	-0.329124	0.140087	-0.574951	-0.043213	-0.116211
624.0	6.005792	2.243938	8.149463	-0.057242	-0.328915	0.097694	-0.575195	-0.041016	-0.114014
625.0	6.007283	2.003021	8.49109	-0.253606	-0.290578	0.129437	-0.577393	-0.038818	-0.118652
626.0	6.223297	1.560884	8.086896	0.235634	-0.291514	0.074375	-0.577148	-0.04541	-0.114014
627.0	6.445053	4.08629	8.50488	-0.213681	-0.266642	0.102097	-0.57959	-0.041016	-0.109619
628.0	6.271871	-0.859207	7.227844	-0.178056	-0.23629	0.074844	-0.581543	-0.043213	-0.111816
629.0	6.565095	3.672175	8.448242	0.827456	-0.282487	-0.025911	-0.572998	-0.041016	-0.102783
630.0	6.20016	1.828424	8.195357	0.001137	-0.22732	0.040897	-0.579834	-0.036621	-0.10498
631.0	6.266731	2.03357	8.083074	0.187234	-0.262946	-0.003192	-0.58374	-0.04541	-0.0979
632.0	6.312465	2.208568	8.122805	0.012474	-0.249421	-0.021996	-0.581787	-0.038818	-0.10498
633.0	6.162972	2.138227	8.033968	-0.030097	-0.281078	-0.012549	-0.581787	-0.038818	-0.098145
634.0	6.377083	2.825156	7.829196	-0.251507	-0.236015	-0.008596	-0.586182	-0.041016	-0.091309
635.0	6.161587	3.285002	7.831465	-0.613999	-0.198585	0.045064	-0.579346	-0.04541	-0.091064
636.0	6.176598	2.528692	7.945876	-0.806345	-0.108817	0.10233	-0.583984	-0.036621	-0.09375
637.0	6.19955	2.178281	7.532469	-0.740469	-0.101317	0.134804	-0.583984	-0.038818	-0.08667
638.0	6.169147	2.336652	7.472721	-0.366255	-0.119788	0.141598	-0.583984	-0.038818	-0.095947
639.0	6.176858	2.958405	7.957689	-0.293042	-0.024163	0.149395	-0.577148	-0.043213	-0.088867
640.0	6.329837	1.77334	7.718756	-0.417005	0.045498	0.194867	-0.572998	-0.043213	-0.095703
641.0	6.341878	3.287401	7.633223	-1.02106	0.034442	0.249971	-0.560547	-0.025635	-0.107666
642.0	6.103485	0.325155	7.8484	0.118151	0.050877	0.200528	-0.557129	-0.003662	-0.114746
643.0	6.480148	3.221472	8.092623	-0.565035	0.042741	0.204817	-0.577393	0.009277	-0.112793
644.0	6.066024	0.596275	7.752574	-0.20862	0.01811	0.21168	-0.594727	0.006836	-0.110352
645.0	6.138053	1.830944	8.386592	-0.157221	-0.007122	0.143872	-0.594238	-0.006104	-0.101074
646.0	5.959075	1.622282	8.271069	-0.323603	-0.029212	0.150177	-0.598389	-0.008301	-0.103271
647.0	5.892469	1.556588	8.262335	-0.295524	-0.096201	0.178138	-0.589355	-0.014893	-0.103271
648.0	5.774128	1.585873	8.390009	-0.302039	-0.160242	0.209007	-0.587402	-0.012695	-0.098633
649.0	5.6667	1.491482	8.450933	-0.202922	-0.265694	0.229981	-0.587402	-0.010498	-0.098633
650.0	5.653307	2.33865	9.024777	-0.240833	-0.365198	0.249132	-0.587402	-0.012695	-0.0896
651.0	5.946395	1.566958	8.713011	-0.5505	-0.439442	0.250339	-0.592041	-0.006104	-0.092041
652.0	5.705437	0.834541	8.934013	-0.27163	-0.568323	0.216588	-0.589844	-0.006104	-0.096436
653.0	5.557332	1.270386	9.211965	0.172648	-0.844314	0.226446	-0.594238	-0.006348	-0.082764
654.0	5.691085	1.719924	9.333921	0.275946	-1.120162	0.245278	-0.598389	-0.010742	-0.084961
655.0	5.785155	1.205662	9.316725	0.297091	-1.358543	0.21604	-0.594238	-0.001953	-0.069336
656.0	5.379455	0.532599	9.609864	0.712542	-1.680369	0.147624	-0.600586	-0.008545	-0.05542
657.0	5.640595	1.405113	9.508904	0.794867	-2.091456	0.058382	-0.598389	-0.008545	-0.046387
658.0	5.516775	1.665945	9.743832	0.552704	-2.431204	0.035848	-0.600586	-0.008545	-0.025879
659.0	5.646564	0.668732	9.13364	-0.150576	-2.885102	0.035897	-0.609375	-0.006592	-0.005371
660.0	5.591566	-0.267525	9.369794	1.091541	-3.097363	-0.036876	-0.609375	-0.006592	0.012939
661.0	4.690565	4.69016	10.675612	0.623889	-3.8031	0.031454	-0.607178	-0.006592	0.038086
662.0	5.020309	3.526261	9.681027	-2.18806	-4.371624	0.257482	-0.61792	-0.009033	0.06543
663.0	5.384361	-1.704623	8.668273	-0.736734	-4.788238	0.218911	-0.620117	-0.009033	0.094971
664.0	4.322534	3.494184	10.077439	0.989067	-5.139874	0.359068	-0.611572	-0.006836	0.12915
665.0	4.235796	4.905992	10.505234	0.64779	-5.618848	0.900751	-0.61377	-0.004883	0.158691
666.0	3.469056	4.167037	10.237564	1.279913	-5.986433	1.583611	-0.610107	0.010498	0.199463
667.0	1.237245	7.936055	11.039923	-0.402908	-7.052929	2.483034	-0.593262	0.02124	0.238037
668.0	2.701547	4.207991	9.662552	-1.998905	-8.285981	3.104958	-0.585205	0.036377	0.29248
669.0	6.043488	1.864932	8.82733	-0.893699	-9.569944	3.199033	-0.561523	0.045166	0.349121
670.0	17.978947	4.052155	8.85705	0.18493	-10.663246	3.208005	-0.536377	0.067139	0.405762
671.0	37.134505	2.202171	5.475995	0.107397	-11.261552	2.727715	-0.493164	0.075928	0.457764
672.0	41.145486	-2.564999	3.128729	0.980082	-9.543221	1.555191	-0.454346	0.089111	0.496338
673.0	40.339194	6.292018	13.012808	4.093315	-8.356457	1.401405	-0.416016	0.108887	0.525391
674.0	29.330374	14.138127	17.021672	3.321248	-6.520968	1.837912	-0.384277	0.128906	0.543213
675.0	24.406619	13.871133	23.854079	0.372242	-6.2702	2.365142	-0.351563	0.128906	0.563721
676.0	13.149134	10.896617	22.595165	-0.079457	-4.031223	2.205245	-0.332031	0.131348	0.570557
677.0	4.729144	13.792885	24.639567	0.01287	-1.78788	2.320517	-0.305664	0.12915	0.572754
678.0	32.718213	7.180656	23.95668	-1.95578	-1.192762	1.354567	-0.307373	0.120605	0.563965
679.0	3.501583	9.406967	20.05706	0.034393	4.277484	-0.277672	-0.316162	0.118408	0.55249
680.0	-0.601152	10.691936	14.850615	-0.143359	2.134655	-0.216399	-0.317871	0.109619	0.539063
681.0	1.592832	5.768943	13.222986	-2.700948	3.293014	-0.205047	-0.328125	0.092041	0.528076
682.0	-3.972638	-0.015496	10.325874	-1.574014	3.198449	-0.311856	-0.327637	0.083496	0.52124
683.0	-0.723682	2.280238	11.680538	0.193721	2.869196	-0.455205	-0.336182	0.079102	0.516846
684.0	0.954689	3.07034	11.910522	-0.208128	3.350647	-0.554022	-0.342773	0.081055	0.51001
685.0	2.387905	2.293939	11.449023	0.162003	3.804763	-0.756056	-0.355713	0.074463	0.491943
686.0	2.664038	3.825525	11.021868	0.361968	4.380499	-1.000892	-0.368896	0.078857	0.489502
687.0	2.411424	4.074787	10.394732	-0.922805	5.057811	-1.169849	-0.38623	0.07666	0.473633
688.0	2.636741	2.138673	8.541472	0.052727	5.129197	-1.301917	-0.403564	0.076416	0.450928
689.0	3.319074	2.393339	8.679463	-0.115163	5.325298	-1.454399	-0.432129	0.076416	0.432617
690.0	4.404254	1.494367	8.312737	-0.432607	5.528969	-1.505366	-0.44751	0.078613	0.398438
691.0	5.157005	0.444985	7.940395	-0.122497	5.661085	-1.58664	-0.4646	0.072021	0.341553
692.0	6.120741	1.432727	8.688007	0.306827	5.788665	-1.62348	-0.451416	0.070068	0.289307
693.0	6.956076	0.52319	8.80247	0.372888	5.837915	-1.596802	-0.409668	0.061768	0.237061
694.0	8.626216	2.445696	9.923264	-0.335953	6.122618	-1.472609	-0.338135	0.071045	0.209229
695.0	9.588789	-0.214489	9.621281	0.000821	6.200877	-1.383975	-0.260742	0.095459	0.220215
696.0	10.2418	-0.364993	10.224443	0.545799	6.331411	-1.320422	-0.199219	0.137207	0.264893
697.0	11.837996	2.587735	11.937701	0.610842	6.465069	-1.300271	-0.190186	0.176514	0.327881
698.0	12.674744	-0.717267	11.371845	0.065309	6.411898	-1.23081	-0.200684	0.217773	0.372559
699.0	15.261629	2.052315	14.088008	1.202206	6.435945	-1.340454	-0.237061	0.252441	0.399414
700.0	18.011644	2.876137	15.520496	0.107627	6.585163	-1.185992	-0.275635	0.282715	0.401123
701.0	21.716506	1.584933	16.864162	1.14106	6.619503	-1.304575	-0.307617	0.317383	0.384521
702.0	26.438758	3.639034	17.802767	1.221619	6.7868	-1.339833	-0.365723	0.347656	0.374756
703.0	31.987924	2.225253	16.3777	1.500767	7.052644	-1.490248	-0.434814	0.38208	0.331055
704.0	36.50587	5.977566	15.490389	1.911564	7.41972	-1.669795	-0.522217	0.384033	0.23999
705.0	39.473695	6.519769	12.652958	1.403017	7.861793	-1.817282	-0.595703	0.37085	0.108154
706.0	38.88509	2.107785	8.766329	-0.365709	8.148815	-2.017154	-0.624756	0.333984	-0.032471
707.0	36.491939	-4.247806	2.169472	0.88872	8.358818	-2.30543	-0.607178	0.281982	-0.161377
708.0	35.967432	-6.561157	-10.255138	3.013306	6.24513	-3.201183	-0.562744	0.214844	-0.264893
709.0	33.974178	-0.489066	-10.076159	3.419848	6.167235	-3.485541	-0.501953	0.171631	-0.325684
710.0	32.510427	-3.025259	-20.402005	0.405188	4.822876	-3.005606	-0.458984	0.141602	-0.354736
711.0	32.877566	-15.093803	-31.020092	-1.862772	3.571834	-1.904553	-0.413086	0.137451	-0.373047
712.0	26.33163	-19.037033	-33.588815	0.495646	2.597097	-1.106049	-0.386475	0.128906	-0.379639
713.0	23.870209	-8.412967	-20.964882	1.319804	-0.242851	0.524733	-0.367432	0.14209	-0.382324
714.0	26.1271	-1.677324	-16.938384	-1.177059	-1.324881	2.561785	-0.357666	0.168457	-0.357666
715.0	18.092344	-4.190654	-19.2571	-3.616983	-2.615445	3.520394	-0.336182	0.220947	-0.347412
716.0	-1.428973	-13.722808	25.847389	-5.476213	-5.625382	2.013747	-0.328857	0.253662	-0.316162
717.0	13.136258	-4.765236	18.400081	2.547708	-4.194505	1.13833	-0.324707	0.26001	-0.29126
718.0	7.681984	-5.859926	3.67225	-0.3237	-5.989697	1.04493	-0.317383	0.28833	-0.255371
719.0	28.271393	-13.449815	17.779347	1.043459	-6.0208	0.941039	-0.302246	0.294922	-0.230469
720.0	23.53542	5.385394	16.225634	3.500136	-4.480158	0.563262	-0.296631	0.3125	-0.203369
721.0	17.418054	9.502455	11.706366	-0.308522	-3.824434	0.937998	-0.281738	0.321289	-0.17627
722.0	12.724334	7.428616	8.618237	0.188728	-3.564837	0.418482	-0.280273	0.34082	-0.162842
723.0	7.22753	2.910341	8.042692	-0.523714	-3.454655	0.412348	-0.269775	0.349609	-0.142578
724.0	28.543383	4.800421	15.141242	-0.092657	-3.889988	1.20896	-0.261719	0.362549	-0.124756
725.0	13.755602	9.591106	6.603241	-0.927483	-0.562276	0.652114	-0.255859	0.375732	-0.118164
726.0	7.401138	1.415726	9.604285	-1.545503	-1.345424	0.833245	-0.24292	0.382324	-0.11377
727.0	14.055425	-3.179011	13.006653	-1.613128	-0.837025	0.899614	-0.243408	0.391113	-0.102539
728.0	6.844116	0.596262	9.858355	-1.128776	0.259397	0.517987	-0.230469	0.395508	-0.095703
729.0	7.340105	1.172338	9.594397	-1.401883	-0.055634	0.481694	-0.237305	0.4021	-0.093506
730.0	6.077225	-0.187257	8.962005	-1.07935	-0.032289	0.391471	-0.233154	0.404297	-0.102783
731.0	6.13424	-0.174058	8.202161	-0.140092	-0.044701	0.263285	-0.22876	0.404297	-0.091309
732.0	5.833547	0.562407	8.361254	0.805206	-0.068093	0.187046	-0.22876	0.406494	-0.095947
733.0	6.055698	2.038474	8.722033	0.937043	-0.100446	0.136518	-0.229004	0.410889	-0.09375
734.0	6.546138	5.341038	8.914657	-0.63228	0.049443	0.177749	-0.226807	0.410889	-0.084717
735.0	5.961462	0.219532	7.270861	-2.261199	0.049416	0.384944	-0.229248	0.415039	-0.084717
736.0	6.144055	-0.414875	8.660602	0.200121	0.003578	0.127496	-0.225098	0.419434	-0.084717
737.0	6.067654	-0.539273	7.690457	-0.502113	-0.010101	0.12795	-0.2229	0.419434	-0.084717
738.0	5.663753	2.135874	9.030716	0.546454	-0.159223	-0.012618	-0.224854	0.415039	-0.08252
739.0	6.039304	1.983995	8.455795	-0.739854	-0.121179	0.072391	-0.231445	0.419434	-0.080322
740.0	5.942178	0.007607	7.802174	-0.114679	-0.152205	0.066032	-0.222656	0.417236	-0.077881
741.0	6.30628	2.795854	8.369469	0.115591	-0.184351	0.053713	-0.220703	0.419434	-0.075684
742.0	6.198557	2.653363	8.50877	-1.2412	-0.035561	0.139134	-0.220459	0.412842	-0.064209
743.0	5.801351	-2.482197	7.647967	0.365997	-0.154309	0.091314	-0.225098	0.419434	-0.073486
744.0	6.262187	3.966216	8.812403	0.185213	-0.148041	-0.001194	-0.224609	0.410645	-0.068604
745.0	5.462425	-0.668077	7.537696	-0.842355	-0.047285	0.114683	-0.211426	0.406494	-0.070801
746.0	6.15702	1.706996	8.462502	0.594821	-0.168773	0.013432	-0.200928	0.419678	-0.075684
747.0	6.087935	1.812904	8.426944	-0.079306	-0.152207	0.067865	-0.19751	0.439453	-0.083008
748.0	6.054274	1.467591	8.364341	-0.384298	-0.14219	0.09762	-0.211426	0.458984	-0.076416
749.0	6.007491	1.015087	8.167139	-0.412875	-0.164364	0.114929	-0.226074	0.445557	-0.071533
750.0	5.909372	0.819068	8.266729	-0.32827	-0.180799	0.103824	-0.230469	0.443359	-0.060303
751.0	5.823336	0.548442	8.389875	-0.136677	-0.211525	0.076878	-0.229736	0.43042	-0.062256
752.0	5.268044	0.07695	8.874589	0.025108	-0.245434	-0.005582	-0.225342	0.428223	-0.057617
753.0	5.601627	0.887321	8.811197	0.37748	-0.436753	-0.002738	-0.229736	0.428223	-0.052979
754.0	5.412287	1.672839	9.215541	0.367026	-0.557779	0.079131	-0.225586	0.43042	-0.060059
755.0	5.703088	1.576407	8.983625	0.167038	-0.710468	0.133179	-0.231689	0.421631	-0.050537
756.0	5.558056	1.385841	9.048595	0.023646	-0.866439	0.135092	-0.227539	0.426025	-0.048584
757.0	5.846156	0.725179	8.826825	0.002783	-1.0479	0.128838	-0.229736	0.426025	-0.034668
758.0	5.809859	0.581414	8.676027	0.525396	-1.230469	0.092905	-0.229736	0.426025	-0.037109
759.0	5.689146	1.148711	9.229356	0.859176	-1.467931	0.047358	-0.236084	0.421387	-0.020996
760.0	5.614498	0.886805	9.413441	0.955488	-1.700673	-0.028676	-0.238037	0.416992	-0.018555
761.0	5.680628	1.789496	9.719336	0.624069	-2.090663	-0.042773	-0.244629	0.416992	-0.007324
762.0	5.626447	1.97428	9.625589	-0.265643	-2.417173	0.020221	-0.246582	0.414795	0.015625
763.0	6.138875	-0.558647	8.861371	0.202066	-2.611178	-0.041655	-0.249023	0.419189	0.022461
764.0	5.229034	1.391392	9.561091	0.701342	-3.060283	-0.036089	-0.250732	0.4104	0.047607
765.0	5.205279	3.455817	10.163145	-0.305996	-3.579768	0.082851	-0.261475	0.407959	0.070557
766.0	5.218685	1.535819	9.51751	-1.527619	-4.145685	0.166935	-0.261719	0.410156	0.100098
767.0	5.680069	-0.255027	8.651616	-0.194219	-4.46783	0.195421	-0.259277	0.407959	0.127441
768.0	4.598269	4.150823	10.149403	0.666636	-4.798735	0.440809	-0.256836	0.401367	0.150391
769.0	4.703245	3.264648	10.072385	0.403395	-5.231602	0.941964	-0.255127	0.412109	0.188965
770.0	3.481038	3.718734	9.676706	1.412363	-5.48956	1.554929	-0.23999	0.414307	0.213867
771.0	1.501669	9.512484	11.751176	0.787771	-6.232378	2.487975	-0.231689	0.425049	0.261475
772.0	2.589247	6.267306	9.78946	-2.841558	-7.507327	3.285497	-0.205078	0.416504	0.313965
773.0	2.464385	-0.46157	8.416497	-2.442974	-8.937994	3.39626	-0.172852	0.42749	0.368408
774.0	13.052173	0.82791	9.036609	0.002709	-10.026881	3.158579	-0.135742	0.425293	0.405029
775.0	30.934921	3.401315	8.499942	0.43107	-11.445173	2.971645	-0.096436	0.42334	0.461914
776.0	42.719015	-3.581906	2.058891	-0.654634	-10.242023	2.009749	-0.076172	0.407959	0.496338
777.0	41.069335	2.092756	11.951163	3.194086	-8.930494	1.447274	-0.065186	0.406006	0.521484
778.0	34.053929	12.189926	17.141658	3.513465	-7.550296	1.966711	-0.069336	0.405762	0.548828
779.0	29.267181	16.505735	25.114527	0.761676	-6.913552	2.644257	-0.061768	0.381836	0.585693
780.0	22.052461	13.078364	25.424533	-1.159152	-5.015223	2.359512	-0.069092	0.348877	0.615967
781.0	-3.563511	10.705404	26.837941	-2.015585	-0.549228	2.213065	-0.083252	0.32251	0.657715
782.0	29.60417	4.413254	27.717026	-1.552307	-3.177887	1.364204	-0.110107	0.289551	0.678711
783.0	7.227315	8.836871	19.485523	0.606724	4.624535	-0.741658	-0.161377	0.267334	0.679199
784.0	-6.860513	10.595372	14.903387	0.287887	1.980583	-0.815551	-0.186523	0.245361	0.697998
785.0	3.84543	6.851261	15.765533	-2.579031	2.008645	-0.792993	-0.22998	0.194824	0.708252
786.0	-1.699909	-0.73088	11.489401	-1.406022	3.282008	-1.10139	-0.263916	0.170654	0.70874
787.0	0.792055	3.323767	13.067627	0.822717	2.900316	-1.230518	-0.293457	0.150879	0.711426
788.0	1.77117	4.579869	12.773111	-0.311835	3.666655	-1.145955	-0.33374	0.124268	0.700684
789.0	2.241153	2.023103	11.58861	-0.383675	4.086761	-1.066373	-0.368164	0.111084	0.687256
790.0	2.814922	3.793676	11.791061	-0.703422	4.721991	-1.061926	-0.399658	0.08252	0.669678
791.0	3.168438	0.353065	9.636689	-0.973753	5.038155	-0.966233	-0.44458	0.064941	0.651855
792.0	3.492336	0.40192	9.226177	0.068267	5.281453	-1.077379	-0.477051	0.060303	0.626709
793.0	3.809121	1.206085	8.855559	0.106038	5.508549	-1.161951	-0.511719	0.055908	0.597412
794.0	4.501534	0.544671	8.050634	0.403996	5.624339	-1.241781	-0.54248	0.057861	0.562988
795.0	5.376134	1.820761	8.457076	0.226997	5.728236	-1.286314	-0.573242	0.062256	0.521973
796.0	6.565272	-0.951727	7.584558	0.41589	5.722004	-1.337025	-0.597168	0.064453	0.467285
797.0	7.539993	1.78789	9.013486	0.255493	5.907803	-1.394601	-0.612305	0.062256	0.42627
798.0	8.804391	0.308852	8.938239	0.394198	6.002958	-1.391852	-0.627686	0.064453	0.383057
799.0	9.658637	0.338991	9.694726	0.64238	6.07133	-1.411334	-0.641357	0.077393	0.343994
800.0	10.4074	1.287311	10.027433	0.695269	6.101913	-1.416637	-0.654785	0.083984	0.296143
801.0	10.820839	-0.522035	10.507343	-0.006359	6.263005	-1.279264	-0.661377	0.084229	0.24585
802.0	12.445737	-0.773818	11.253866	1.202782	6.04392	-1.408945	-0.66626	0.095215	0.209229
803.0	14.879682	1.824548	14.321449	0.730278	6.164511	-1.337578	-0.668945	0.106201	0.154297
804.0	17.966246	-1.225632	14.28195	0.179701	6.207807	-1.200307	-0.666504	0.101807	0.127197
805.0	22.72041	-0.082094	15.137349	1.733412	6.364924	-1.296629	-0.666992	0.112793	0.083496
806.0	25.826052	2.898532	16.349862	1.391881	6.741226	-1.286559	-0.675537	0.104248	0.042725
807.0	29.219316	2.601853	15.833052	1.004922	7.003074	-1.286834	-0.673584	0.113037	-0.007568
808.0	32.715256	3.863296	13.73679	1.574163	7.217949	-1.522847	-0.681885	0.104492	-0.055176
809.0	34.780689	5.431036	11.994731	1.201709	7.581791	-1.882704	-0.681641	0.095947	-0.112061
810.0	35.717666	-0.793282	9.53168	0.245988	8.045526	-2.28602	-0.67041	0.0896	-0.175781
811.0	33.272457	-4.477705	3.769655	1.048932	7.326721	-3.000258	-0.658447	0.065674	-0.232422
812.0	34.747748	-4.425577	-3.983295	1.841373	6.318332	-3.340171	-0.637451	0.0354	-0.279541
813.0	36.258489	0.869854	-7.900705	3.494648	5.461961	-3.535671	-0.621338	0.013916	-0.32251
814.0	33.630245	1.873148	-13.536956	-1.176746	5.522078	-2.995201	-0.603516	0.005371	-0.361084
815.0	33.157549	-13.753645	-24.475759	-2.820904	3.900766	-1.956894	-0.585938	0.005615	-0.397461
816.0	30.284423	-22.83115	-32.808796	-0.231389	3.095402	-1.716215	-0.57666	-0.007568	-0.415527
817.0	19.418675	-9.572452	-25.269871	2.552328	2.121981	-0.741039	-0.574463	-0.011719	-0.419922
818.0	20.46866	-3.924347	-27.776337	0.79956	-2.509689	1.100158	-0.594238	-0.005371	-0.401855
819.0	23.273114	3.151617	-23.647443	-0.600767	-3.793868	3.088039	-0.624268	0.033691	-0.384521
820.0	0.274293	-7.67009	13.887485	-5.685588	-5.891605	2.649606	-0.658691	0.07251	-0.330322
821.0	28.901706	-8.919183	23.363201	1.306144	-5.925346	1.4859	-0.680664	0.074463	-0.309814
822.0	7.116251	-0.086194	6.408738	2.101458	-4.566798	0.869964	-0.702881	0.085205	-0.269043
823.0	18.420068	-7.71278	12.28986	-1.22548	-6.365671	1.705214	-0.721191	0.100342	-0.226074
824.0	31.223066	-5.268021	18.023334	3.766441	-4.897457	1.056302	-0.736572	0.104492	-0.194336
825.0	19.929443	11.9168	13.144724	2.169821	-3.772955	0.771688	-0.745361	0.106445	-0.157715
826.0	14.986034	7.466821	10.139651	-0.29515	-3.556016	0.858975	-0.758545	0.110596	-0.137451
827.0	23.480363	11.948596	12.707202	0.547742	-3.775623	0.880924	-0.765381	0.117188	-0.105469
828.0	13.00961	9.458345	5.723979	-0.349351	-1.182679	0.731814	-0.768311	0.130127	-0.092041
829.0	11.039819	3.062706	10.095225	-2.323657	-1.427916	0.710729	-0.770752	0.138916	-0.076416
830.0	8.902003	2.272805	10.152251	-1.182222	-1.234639	0.879862	-0.773438	0.147461	-0.06958
831.0	11.534902	1.791062	9.743362	-2.188475	-0.337255	0.844692	-0.769531	0.158447	-0.067627
832.0	7.740157	-2.0385	10.421947	-1.316942	-0.049118	0.668854	-0.769775	0.167236	-0.058594
833.0	6.628903	1.346536	9.295572	-1.163731	0.27636	0.506199	-0.770264	0.173828	-0.065674
834.0	6.702456	1.120415	9.084859	-1.062282	0.105381	0.51071	-0.770508	0.182373	-0.063477
835.0	6.326544	-1.282591	8.82234	-0.78305	0.045963	0.38349	-0.768555	0.186768	-0.065918
836.0	6.046886	0.364462	8.682509	-0.168598	-0.023898	0.232816	-0.768555	0.186768	-0.056885
837.0	6.047939	0.92192	8.563496	0.239852	-0.166959	0.185853	-0.770996	0.191162	-0.068359
838.0	6.306106	2.663346	8.324281	0.105648	-0.234911	0.217592	-0.768555	0.188965	-0.056885
839.0	6.108938	0.488942	8.598133	-0.55774	-0.172263	0.244986	-0.772949	0.186768	-0.059082
840.0	5.94568	-0.467479	8.373992	0.078854	-0.250817	0.118649	-0.773193	0.195557	-0.054688
841.0	6.19138	2.14457	8.414202	0.300294	-0.273068	0.04871	-0.770996	0.193359	-0.047852
842.0	6.199966	2.784056	8.525039	-0.574717	-0.193089	0.092203	-0.773438	0.197754	-0.045654
843.0	6.201186	0.618496	7.674112	-0.632921	-0.179655	0.112562	-0.773193	0.195557	-0.047852
844.0	6.28401	0.803321	8.004552	0.461325	-0.253632	0.059638	-0.775391	0.195557	-0.045654
845.0	6.219027	1.716105	8.370431	-0.056291	-0.182872	0.034802	-0.777588	0.195313	-0.041016
846.0	5.855604	1.027408	7.9159	-0.560061	-0.147356	0.051507	-0.775146	0.188965	-0.031738
847.0	6.068409	0.38886	8.312439	0.764679	-0.264641	-0.023904	-0.779541	0.190918	-0.029541
848.0	6.394877	2.202785	8.328204	0.357498	-0.264031	-0.042529	-0.775146	0.186768	-0.0271
849.0	6.071768	1.117718	8.187037	0.059998	-0.208245	-0.043801	-0.768555	0.18457	-0.0271
850.0	6.123172	0.959096	8.057073	0.254167	-0.251844	-0.066011	-0.75293	0.18042	-0.036133
851.0	6.009887	1.465243	8.266354	0.296408	-0.279427	-0.065909	-0.749512	0.202148	-0.043457
852.0	5.612912	2.070648	8.583913	0.059088	-0.278773	-0.047865	-0.759521	0.230469	-0.048584
853.0	6.13925	1.613921	8.180649	-0.207846	-0.33901	0.002368	-0.776855	0.226074	-0.037109
854.0	5.852252	1.872467	8.247757	-0.157172	-0.355951	0.034837	-0.789551	0.217041	-0.023193
855.0	6.004291	1.849659	8.049868	-0.105142	-0.413397	0.082197	-0.786865	0.208496	-0.025391
856.0	5.970906	1.64324	8.157419	-0.024718	-0.469143	0.114429	-0.782471	0.204102	-0.020752
857.0	5.954974	1.786618	8.341584	0.075322	-0.521096	0.143829	-0.780029	0.201904	-0.011475
858.0	6.219326	2.23662	8.355083	-0.152773	-0.501955	0.129112	-0.780029	0.201904	-0.016113
859.0	5.730581	1.670765	8.487626	-0.274384	-0.56423	0.180301	-0.782227	0.199707	-0.004639
860.0	5.787027	0.867508	8.474561	0.007881	-0.748153	0.229548	-0.789063	0.204102	-0.002441
861.0	5.910809	1.342282	8.519669	0.186909	-0.955784	0.210389	-0.782471	0.204102	-0.000244
862.0	5.934715	1.253149	8.807714	0.192707	-1.111369	0.200715	-0.77832	0.208252	0.018066
863.0	5.905197	1.293886	8.741727	0.319097	-1.326128	0.183653	-0.773926	0.208496	0.022461
864.0	5.99465	1.42182	8.933126	0.452593	-1.568451	0.155663	-0.79126	0.206055	0.033936
865.0	5.677581	1.169547	9.358455	0.376161	-1.857365	0.135298	-0.784668	0.208252	0.050049
866.0	5.72784	2.093742	9.347654	-0.001748	-2.249969	0.1408	-0.789063	0.208252	0.068115
867.0	6.385108	-1.01221	8.484178	0.412915	-2.472428	0.0802	-0.785156	0.2146	0.088623
868.0	5.284814	0.366508	9.110544	1.156108	-2.944725	0.026868	-0.791748	0.216797	0.111328
869.0	5.833666	1.782692	9.601612	0.81358	-3.40813	0.006863	-0.784912	0.212402	0.134277
870.0	5.004594	4.093573	10.189134	-0.999021	-3.872825	0.042305	-0.784668	0.208008	0.173096
871.0	5.324582	0.710782	9.266575	-1.728899	-4.457326	0.130431	-0.778564	0.214355	0.209229
872.0	5.506096	0.648317	9.272453	0.739289	-4.745937	0.165496	-0.776367	0.216553	0.243408
873.0	3.955998	5.328276	9.953345	0.757286	-5.084408	0.592895	-0.765869	0.223145	0.286621
874.0	3.757059	3.956588	9.577221	0.3521	-5.59403	1.235981	-0.753174	0.236084	0.327393
875.0	3.189232	5.38764	9.74999	1.144419	-6.108979	1.853377	-0.73877	0.253662	0.375
876.0	1.574474	7.505718	9.896706	-1.519747	-7.332813	2.661235	-0.708984	0.268799	0.433838
877.0	3.271702	1.751114	8.716396	-2.724408	-8.721258	2.974421	-0.676514	0.277588	0.501953
878.0	9.321697	-0.418148	7.015046	-0.703235	-9.917159	2.723693	-0.625	0.297363	0.572266
879.0	24.409527	3.419989	8.364577	0.923134	-11.102859	2.330704	-0.564697	0.310791	0.633301
880.0	42.927348	0.460607	2.490513	0.616483	-10.9627	1.926279	-0.508545	0.326172	0.685303
881.0	41.478426	-0.865638	6.981728	1.686215	-8.758439	1.073964	-0.467773	0.341797	0.719238
882.0	36.625034	7.59362	12.851073	4.28992	-7.830374	1.274369	-0.421631	0.37915	0.734375
883.0	29.081377	14.286507	22.961234	2.257987	-6.60007	1.941471	-0.378418	0.390137	0.761475
884.0	25.89519	11.463943	23.956721	0.255115	-5.620692	2.24349	-0.348145	0.394775	0.770508
885.0	4.926549	11.678493	23.873386	0.263089	-2.309857	1.942725	-0.348389	0.401367	0.772705
886.0	11.776778	9.991924	26.744987	-1.212325	-2.827704	2.786201	-0.328369	0.394775	0.788574
887.0	30.368824	2.279202	20.936658	-0.908979	1.360103	0.966565	-0.365479	0.392334	0.765869
888.0	-4.247795	11.033702	20.89174	1.247951	3.644074	-0.168516	-0.389648	0.396729	0.754639
889.0	2.611908	11.524095	16.986594	-0.538036	1.986734	-0.015984	-0.419678	0.387695	0.740967
890.0	-0.041501	4.90281	14.063831	-2.431727	3.529439	-0.184089	-0.448975	0.359375	0.728027
891.0	-1.32754	2.811254	12.730222	-0.587112	3.113846	-0.392128	-0.47876	0.34375	0.707764
892.0	0.725744	5.525419	14.048568	-0.342263	3.475399	-0.517708	-0.508789	0.332764	0.6875
893.0	2.25902	3.12486	13.549441	-0.928097	3.953633	-0.596841	-0.540527	0.310791	0.662842
894.0	4.130858	4.127341	13.020205	-0.814242	4.792944	-0.788095	-0.574707	0.293213	0.631348
895.0	2.89813	0.055782	11.644712	-1.809035	5.396832	-0.869062	-0.61084	0.273438	0.597656
896.0	3.199252	1.219458	10.592011	0.247153	5.670615	-1.027887	-0.645508	0.264648	0.563721
897.0	4.08589	2.20411	9.622982	0.416532	5.873068	-1.152531	-0.677734	0.253662	0.516113
898.0	4.0364	0.150023	8.005956	-0.283245	6.027845	-1.199113	-0.705566	0.242676	0.475342
899.0	5.221399	1.279835	8.435007	0.976109	6.139736	-1.351954	-0.737549	0.225098	0.421143
900.0	6.227237	1.604136	8.308938	-0.039149	6.19476	-1.347205	-0.75415	0.205322	0.373535
901.0	7.356653	0.099836	8.195968	0.760012	6.225209	-1.411833	-0.770752	0.187988	0.316895
902.0	8.960349	1.567458	9.041622	0.263957	6.311205	-1.362767	-0.776123	0.161865	0.271973
903.0	10.185331	0.807142	9.434989	0.592655	6.401939	-1.341795	-0.794922	0.144531	0.222168
904.0	11.187099	1.495458	10.193815	0.784158	6.466499	-1.315062	-0.80957	0.126953	0.170166
905.0	11.499078	0.801634	11.217674	0.186296	6.503595	-1.285235	-0.812988	0.109619	0.115723
906.0	12.731823	0.902055	11.777335	0.509947	6.503039	-1.270807	-0.81665	0.090088	0.059082
907.0	14.205963	-0.739558	12.524259	0.743001	6.322774	-1.254496	-0.806885	0.066406	0.011719
908.0	17.119268	1.906386	14.198641	1.215025	6.290422	-1.229866	-0.801758	0.053467	-0.042725
909.0	19.541308	0.085033	14.36553	0.441424	6.106635	-1.142488	-0.783447	0.029541	-0.090088
910.0	24.481977	1.564692	14.410601	1.928924	5.962989	-1.276116	-0.764648	0.003662	-0.130615
911.0	30.768579	5.797002	16.017876	1.336419	6.107258	-1.324993	-0.746582	-0.011475	-0.173584
912.0	36.2162	4.863806	14.466497	0.687882	6.323534	-1.417271	-0.72168	-0.032959	-0.216553
913.0	40.983851	5.362922	12.527064	1.275568	6.898549	-1.820354	-0.701172	-0.052246	-0.252686
914.0	41.37185	3.393391	9.865991	0.162776	7.705793	-2.096302	-0.665527	-0.071533	-0.307129
915.0	37.504683	-6.323275	2.381404	-0.034419	8.032544	-2.609553	-0.633789	-0.095215	-0.352295
916.0	35.855986	-6.558078	-3.232085	2.479135	7.396886	-3.336391	-0.593018	-0.129883	-0.392578
917.0	32.853983	-2.040415	-8.943339	3.669415	6.67047	-3.821797	-0.556396	-0.171143	-0.423828
918.0	31.083484	1.155569	-16.22345	1.669309	5.683784	-3.520714	-0.513916	-0.19043	-0.448486
919.0	32.783667	-7.141794	-22.999055	-2.094584	4.402709	-2.234575	-0.492432	-0.187988	-0.473633
920.0	32.737408	-22.17105	-32.181516	-1.367366	3.36736	-1.732796	-0.470215	-0.196533	-0.487061
921.0	25.909279	-11.762077	-28.367691	2.554497	2.087579	-1.098812	-0.465088	-0.213867	-0.491455
922.0	25.909023	-9.067817	-18.494154	0.086804	-0.484531	0.620558	-0.47168	-0.209717	-0.482422
923.0	18.328503	-4.03305	-8.154419	0.597993	-0.256431	1.467046	-0.472168	-0.200928	-0.482422
924.0	13.497035	-2.893372	-15.378988	-1.282661	-3.029352	2.881453	-0.494385	-0.187988	-0.462158
925.0	-14.112782	6.248773	28.82576	-2.442132	-2.723624	2.664043	-0.531006	-0.151123	-0.451416
926.0	9.53369	-7.40492	10.259238	-1.312487	-4.78433	2.391282	-0.55957	-0.146973	-0.424316
927.0	2.522302	-3.409793	2.547645	2.643646	-5.603997	0.993397	-0.59668	-0.147461	-0.380859
928.0	26.658287	-3.450633	15.772085	-0.775655	-6.45317	1.271219	-0.620605	-0.147705	-0.344482
929.0	24.61608	-2.45038	17.29731	1.879993	-4.552139	1.009515	-0.642334	-0.147949	-0.310059
930.0	19.023221	7.373539	13.281038	0.519349	-4.383079	1.321232	-0.6604	-0.137207	-0.276123
931.0	16.357146	6.334185	9.527318	0.288927	-3.70979	0.858902	-0.675781	-0.13501	-0.253418
932.0	10.732837	4.307564	9.495507	-0.042183	-3.407882	0.316656	-0.686523	-0.135254	-0.226074
933.0	13.780636	0.973993	13.105499	-1.425619	-3.041259	0.554466	-0.702393	-0.120117	-0.210449
934.0	27.253007	7.555359	11.064677	0.759998	-2.081998	0.729024	-0.706543	-0.124512	-0.196533
935.0	5.920671	10.164354	7.558864	-0.521024	-1.122737	0.770213	-0.709717	-0.107178	-0.187744
936.0	8.996028	-0.664586	10.462212	-1.572424	-1.293438	0.792052	-0.711914	-0.10498	-0.180908
937.0	11.042021	-1.7485	10.764754	-0.907447	-0.992369	0.704059	-0.7146	-0.093994	-0.172119
938.0	8.42544	2.630707	9.703572	-0.7969	-0.37937	0.428964	-0.717041	-0.087646	-0.167725
939.0	7.000101	0.364766	10.272799	-1.17737	-0.405222	0.448803	-0.719482	-0.083252	-0.165527
940.0	6.15334	-0.023784	8.616408	-1.252742	-0.360075	0.426626	-0.72168	-0.078857	-0.167725
941.0	6.3082	0.853378	8.505502	-0.309445	-0.260664	0.29205	-0.717529	-0.074463	-0.165771
942.0	6.374846	1.190639	8.272528	-0.115196	-0.193189	0.233813	-0.719727	-0.074463	-0.158936
943.0	6.499404	2.648885	8.985191	-0.216832	-0.16901	0.223746	-0.724365	-0.068115	-0.161133
944.0	5.919735	0.806658	7.422892	-1.324922	-0.112784	0.279579	-0.724365	-0.070313	-0.158936
945.0	6.306137	1.658148	8.891503	0.136676	-0.201904	0.130087	-0.724609	-0.063721	-0.165771
946.0	6.011512	0.85787	7.996198	-0.855036	-0.055484	0.142997	-0.724609	-0.065918	-0.156738
947.0	6.142576	0.934357	8.229637	0.313917	-0.193438	0.053626	-0.724854	-0.061523	-0.156738
948.0	6.072125	1.523939	8.647335	-0.232639	-0.131367	0.030353	-0.722656	-0.061523	-0.152344
949.0	6.065052	0.862466	8.368882	-0.500169	-0.153337	0.021017	-0.731201	-0.063721	-0.154541
950.0	6.174994	1.448371	8.338798	-0.438386	-0.150592	0.001445	-0.726807	-0.061523	-0.149902
951.0	6.140782	1.068897	7.842947	-0.278939	-0.153824	0.030736	-0.731445	-0.059326	-0.147705
952.0	6.262637	1.733023	7.869095	0.20709	-0.15877	0.036006	-0.731201	-0.063721	-0.149902
953.0	6.265497	1.835407	8.090928	0.199678	-0.101962	0.056849	-0.733154	-0.068115	-0.147461
954.0	6.175938	1.902853	8.21261	0.054571	-0.054108	0.075156	-0.731201	-0.063721	-0.145264
955.0	6.230074	1.969602	8.245229	-0.265866	0.009632	0.102512	-0.720215	-0.065918	-0.149902
956.0	5.964215	0.812498	7.841407	-0.585625	0.032831	0.145184	-0.71167	-0.061523	-0.152344
957.0	6.134031	1.200552	8.291777	0.096516	-0.022374	0.118568	-0.701416	-0.04834	-0.159424
958.0	6.089109	1.65669	8.234132	-0.201784	-0.011497	0.130173	-0.717773	-0.02417	-0.173584
959.0	6.002283	1.384371	8.200212	-0.234807	-0.044934	0.130201	-0.730957	-0.02002	-0.166748
960.0	6.121335	1.421571	8.18997	-0.261466	-0.05061	0.150277	-0.737061	-0.031006	-0.157471
961.0	6.056731	1.416577	8.216229	-0.289786	-0.061956	0.181832	-0.739258	-0.031006	-0.152832
962.0	5.919971	1.310061	8.238118	-0.250458	-0.076308	0.210501	-0.741211	-0.0354	-0.152832
963.0	5.982102	1.189725	8.269709	-0.072329	-0.107158	0.264344	-0.736816	-0.0354	-0.155029
964.0	5.541383	1.60448	8.704164	0.033932	-0.106506	0.324243	-0.734619	-0.0354	-0.143555
965.0	5.235576	1.263682	9.266376	-0.301556	-0.198557	0.332015	-0.736816	-0.0354	-0.150391
966.0	5.544068	0.908122	8.832436	-0.345842	-0.331764	0.311854	-0.736816	-0.033203	-0.145996
967.0	5.480419	0.698144	8.934665	-0.142551	-0.561652	0.316781	-0.741455	-0.031006	-0.141357
968.0	5.631037	0.510821	9.08702	0.14124	-0.783786	0.298651	-0.746094	-0.024658	-0.130127
969.0	5.567464	0.71515	9.244388	0.216988	-1.007469	0.262609	-0.739258	-0.028809	-0.12085
970.0	5.547306	0.776703	9.500796	0.182478	-1.247994	0.215636	-0.746094	-0.024658	-0.111816
971.0	5.415843	0.167619	9.59845	0.133544	-1.510197	0.142401	-0.748291	-0.024658	-0.102783
972.0	5.449721	0.86882	9.694479	0.081808	-1.860917	0.032449	-0.746094	-0.022461	-0.084717
973.0	6.084398	-0.481014	9.219104	-0.175644	-2.152654	-0.099687	-0.756836	-0.024902	-0.068604
974.0	5.329004	-0.15441	9.571641	0.709025	-2.473922	-0.174319	-0.763428	-0.024902	-0.052734
975.0	5.758147	0.495881	9.632671	0.714285	-2.866287	-0.263467	-0.760986	-0.029297	-0.029785
976.0	5.391579	0.708608	9.857088	0.866046	-3.274282	-0.227994	-0.760742	-0.033691	-0.002197
977.0	5.348233	1.856802	9.979157	0.970878	-3.689951	-0.178918	-0.769287	-0.040527	0.029785
978.0	4.843109	3.418318	9.69865	0.056913	-4.249586	0.064392	-0.771973	-0.029541	0.065918
979.0	4.984554	4.275766	11.074685	0.011395	-4.622632	0.299079	-0.771729	-0.031982	0.102539
980.0	4.048974	5.339514	10.41708	-1.708494	-5.390562	0.697378	-0.778564	-0.025391	0.143311
981.0	4.550962	1.347171	9.705787	-0.646715	-5.525873	1.187174	-0.770264	-0.016846	0.188721
982.0	2.333577	4.235069	9.104207	0.830133	-5.93051	1.89007	-0.762451	0.002686	0.245361
983.0	2.454465	4.034645	10.084516	0.313785	-6.748473	2.604267	-0.754883	0.026611	0.297363
984.0	0.240343	5.747912	10.637894	-0.865869	-8.015953	3.17428	-0.738281	0.050537	0.363037
985.0	5.81915	2.679321	8.486422	-2.076524	-9.782298	3.338386	-0.708252	0.059326	0.431152
986.0	19.546472	0.354263	6.33091	-0.754479	-10.907209	2.878756	-0.667725	0.079102	0.514893
987.0	37.828146	-1.449065	4.191549	0.549964	-10.965793	2.49344	-0.616211	0.09668	0.580566
988.0	41.386921	-0.770036	3.969208	1.730324	-9.204341	1.375976	-0.575684	0.118652	0.634766
989.0	37.992611	7.059758	12.582703	3.17345	-7.984541	1.4591	-0.526855	0.149414	0.670654
990.0	27.226216	11.723034	17.476932	2.287292	-6.643941	2.155919	-0.482422	0.177979	0.701904
991.0	28.108744	11.761539	22.073752	0.528093	-6.371769	2.383799	-0.446045	0.195557	0.733398
992.0	14.02102	11.808842	23.30245	0.192444	-3.581086	1.818506	-0.428955	0.202148	0.742432
993.0	1.61573	11.112704	22.755906	-0.926303	-0.902578	2.403251	-0.413818	0.206543	0.758301
994.0	32.647685	3.874973	22.981285	-2.041651	-1.261398	1.378536	-0.428955	0.202148	0.749268
995.0	2.371204	7.268577	17.124232	0.848583	4.859634	-0.420755	-0.458008	0.217285	0.730713
996.0	-4.51718	10.08828	11.955546	0.857548	2.008373	-0.408559	-0.470459	0.204102	0.721924
997.0	1.735052	7.389018	11.746105	-2.135942	2.531831	-0.422763	-0.489502	0.193115	0.713135
998.0	-2.906728	1.27617	9.254145	-1.510856	2.582613	-0.547156	-0.515381	0.184326	0.701904
999.0	-0.260376	3.753657	10.556101	0.341966	2.289128	-0.748554	-0.539307	0.182129	0.683838
1000.0	0.918943	5.050222	11.160939	-0.413191	2.661475	-0.844573	-0.554199	0.173096	0.674805
1001.0	2.731943	4.467499	11.569438	-1.568306	3.382021	-1.054378	-0.575195	0.157959	0.650146
1002.0	2.505744	1.690781	9.9555	-0.815713	3.652376	-1.167516	-0.603027	0.144531	0.627686
1003.0	2.974992	2.666783	10.228291	-0.191077	4.016546	-1.33026	-0.635254	0.135742	0.60498
1004.0	3.820312	2.344749	9.811015	-0.304982	4.459342	-1.466821	-0.661133	0.126953	0.571045
1005.0	4.158128	1.40325	9.106787	-0.508729	4.770191	-1.491415	-0.688721	0.109375	0.537109
1006.0	5.013233	0.296637	8.389668	-0.063474	5.095739	-1.547663	-0.712158	0.100586	0.496338
1007.0	5.566654	0.624432	8.319137	0.063139	5.299725	-1.510925	-0.737793	0.087402	0.44873
1008.0	5.933651	0.660999	8.331581	0.341723	5.55648	-1.463282	-0.754639	0.072266	0.398926
1009.0	6.907345	1.092313	8.497046	0.360788	5.656096	-1.356362	-0.771484	0.056885	0.351563
1010.0	7.92028	0.636595	7.915768	0.269099	5.795117	-1.268432	-0.781738	0.043945	0.30835
1011.0	8.766838	1.053532	9.281293	0.979351	5.861211	-1.262015	-0.794189	0.030762	0.27002
1012.0	10.107838	1.559904	9.601938	0.877123	5.961274	-1.263124	-0.804932	0.024414	0.222168
1013.0	10.799692	2.375101	10.360786	-0.022255	6.215389	-1.249272	-0.817383	0.009033	0.172363
1014.0	12.008616	0.471813	10.264646	0.635313	6.273681	-1.239532	-0.823242	-0.001709	0.122559
1015.0	13.573916	3.00645	12.796714	0.522025	6.25363	-1.343489	-0.822754	-0.012451	0.067871
1016.0	15.389242	-0.569129	12.716491	0.25087	6.261931	-1.339432	-0.824219	-0.029785	0.022705
1017.0	18.547125	1.179456	15.17622	1.395749	6.329433	-1.516346	-0.814697	-0.049316	-0.036133
1018.0	22.05653	2.872145	16.600539	0.597765	6.471248	-1.447978	-0.80127	-0.057861	-0.093018
1019.0	26.682909	0.276459	15.682971	1.235103	6.67468	-1.500349	-0.793701	-0.081543	-0.142578
1020.0	31.023333	3.558294	16.730841	1.833244	7.011236	-1.654904	-0.770752	-0.103027	-0.19458
1021.0	34.238611	3.96871	14.537809	1.919493	7.376255	-1.852791	-0.750488	-0.118164	-0.249023
1022.0	35.374116	4.800211	11.343667	1.906649	7.575821	-2.150996	-0.723389	-0.141846	-0.303467
1023.0	35.569798	3.792519	8.162951	0.775526	7.956005	-2.313118	-0.692139	-0.156738	-0.360107
1024.0	30.552725	-5.210789	3.475913	-0.045667	7.377922	-2.896255	-0.65625	-0.178223	-0.405273
1025.0	33.386467	-3.539832	-1.763911	1.825081	6.517803	-3.473138	-0.613281	-0.212891	-0.445557
1026.0	31.626393	0.148617	-7.506156	2.881987	5.614588	-3.749534	-0.581055	-0.249756	-0.467773
1027.0	35.56687	2.865413	-14.557786	0.68595	4.503218	-3.207979	-0.550293	-0.255859	-0.499512
1028.0	38.423169	-14.204346	-26.31941	-4.323693	3.646808	-2.089876	-0.531006	-0.24707	-0.524902
1029.0	30.663121	-28.235236	-38.867062	-0.477805	3.608054	-2.098329	-0.501953	-0.26416	-0.535889
1030.0	18.958807	-8.911583	-26.205742	4.6073	1.221492	-1.290943	-0.505127	-0.290527	-0.523926
1031.0	23.348033	-5.346586	-16.825255	0.754043	-2.278885	0.631421	-0.520264	-0.297119	-0.512451
1032.0	20.252779	9.842108	-5.398494	1.53131	-1.52784	2.029628	-0.551758	-0.273438	-0.499268
1033.0	-0.434564	5.917099	4.961983	-5.999671	-2.826817	2.718567	-0.580078	-0.225586	-0.50708
1034.0	3.957557	-17.656471	18.188891	-5.558845	-5.103393	2.547632	-0.618652	-0.193115	-0.487061
1035.0	-0.619071	-7.96811	8.695738	3.291443	-3.729174	0.900067	-0.646484	-0.202148	-0.447998
1036.0	8.271378	-8.211681	7.829911	-0.573217	-6.358484	1.391712	-0.684082	-0.189453	-0.409668
1037.0	26.727749	-15.48546	16.855847	0.83604	-5.859282	1.374944	-0.7146	-0.191895	-0.359375
1038.0	21.711213	3.383051	16.170914	2.996854	-4.37958	1.204008	-0.743164	-0.187744	-0.322998
1039.0	19.417232	10.959912	8.91175	0.694397	-4.373668	1.260493	-0.762939	-0.181396	-0.291016
1040.0	14.815551	11.750798	9.895102	0.907862	-3.759221	0.502678	-0.776123	-0.179443	-0.254639
1041.0	17.354992	8.154702	13.458566	-0.743432	-3.749074	0.515204	-0.789795	-0.168701	-0.234375
1042.0	25.688919	3.895742	10.091673	-0.580254	-1.90438	0.569209	-0.796631	-0.159912	-0.227783
1043.0	6.507301	4.09434	8.624714	-0.876059	-1.398165	0.604272	-0.803223	-0.157959	-0.209473
1044.0	9.090648	0.874785	9.452216	-0.135732	-1.310206	0.437732	-0.818848	-0.153564	-0.202637
1045.0	12.270803	1.854807	10.512939	-0.271278	-0.976572	0.512771	-0.808105	-0.146973	-0.191406
1046.0	6.623847	0.342742	10.226635	-0.711236	-0.368856	0.394388	-0.814941	-0.142822	-0.189209
1047.0	6.599453	2.055249	9.237615	-0.661174	-0.236031	0.363969	-0.810791	-0.138428	-0.187012
1048.0	6.55465	2.977885	8.737671	-0.750464	-0.168646	0.363909	-0.813232	-0.131836	-0.184814
1049.0	6.78213	-1.634534	8.788188	-0.760762	-0.22432	0.311385	-0.820068	-0.125244	-0.189697
1050.0	6.33044	0.669703	8.870332	-0.039922	-0.18089	0.140619	-0.817871	-0.127441	-0.189453
1051.0	6.303747	0.349339	8.550235	0.133373	-0.295349	0.07517	-0.820068	-0.123047	-0.182861
1052.0	6.477863	2.062656	8.580341	0.312888	-0.337148	0.044509	-0.824219	-0.129639	-0.173584
1053.0	6.472245	4.028056	8.742062	-0.644446	-0.224451	0.142624	-0.824463	-0.125244	-0.178223
1054.0	6.026254	0.956465	7.817168	-1.60162	-0.261241	0.290436	-0.820313	-0.116699	-0.176025
1055.0	6.507102	0.115442	7.970513	0.217085	-0.335552	0.090663	-0.82666	-0.121094	-0.176025
1056.0	6.436801	2.224276	8.349528	0.007294	-0.274644	0.060529	-0.824707	-0.116699	-0.164795
1057.0	6.335385	2.212633	8.508807	-0.358612	-0.276188	0.078812	-0.831543	-0.114502	-0.166992
1058.0	6.170655	0.216918	7.459111	-0.223418	-0.261446	0.077663	-0.829346	-0.114502	-0.166992
1059.0	6.580632	3.668459	8.283486	0.098333	-0.249335	0.04476	-0.829102	-0.116699	-0.157959
1060.0	6.216327	1.709345	8.049521	-0.572208	-0.130245	0.11866	-0.831787	-0.10791	-0.162598
1061.0	6.38386	1.511707	7.741326	0.026449	-0.147198	0.106108	-0.831543	-0.110107	-0.162598
1062.0	6.472464	2.888251	8.237574	-0.323001	-0.070804	0.123926	-0.829346	-0.110107	-0.155762
1063.0	5.999649	0.890276	7.621621	-0.941877	-0.0248	0.198414	-0.831543	-0.110107	-0.160156
1064.0	6.356172	0.357629	8.30919	0.638386	-0.178175	0.060757	-0.828857	-0.121094	-0.15332
1065.0	6.498098	3.227149	8.63676	-0.373923	-0.116552	0.063188	-0.813965	-0.114502	-0.160156
1066.0	5.828119	-0.726204	7.684738	-0.154662	-0.166624	0.116078	-0.803467	-0.103516	-0.169434
1067.0	6.095386	2.151937	8.227405	0.25015	-0.232043	0.060607	-0.809082	-0.074951	-0.179199
1068.0	6.100696	1.501172	8.08714	-0.135577	-0.217315	0.097084	-0.83374	-0.062012	-0.172607
1069.0	5.941638	2.017316	8.164554	-0.129044	-0.236346	0.109811	-0.84668	-0.064453	-0.158936
1070.0	6.180933	1.705739	7.984341	-0.264288	-0.252833	0.150756	-0.850342	-0.079834	-0.151611
1071.0	6.066715	1.619886	7.878605	-0.226606	-0.279958	0.166346	-0.848145	-0.083984	-0.151611
1072.0	6.068308	1.572572	7.927326	-0.084917	-0.32174	0.195281	-0.848145	-0.082031	-0.144775
1073.0	6.125204	1.669607	8.043331	-0.020858	-0.357014	0.22904	-0.848389	-0.077637	-0.149414
1074.0	6.104842	2.197603	8.328332	-0.173121	-0.330554	0.206702	-0.845703	-0.086182	-0.144775
1075.0	5.816749	1.876195	8.476962	-0.658255	-0.413706	0.267586	-0.84375	-0.083984	-0.142578
1076.0	5.754095	0.790225	8.3639	-0.59243	-0.569209	0.29842	-0.852539	-0.079834	-0.137939
1077.0	5.914892	0.529128	8.439096	-0.057422	-0.768261	0.266878	-0.85498	-0.077637	-0.131348
1078.0	5.73458	1.21659	8.954565	0.212816	-0.962211	0.234411	-0.852783	-0.075439	-0.12207
1079.0	5.936132	1.250392	9.095388	0.057392	-1.181297	0.212416	-0.859131	-0.077637	-0.11084
1080.0	6.094653	1.031656	8.859452	0.012165	-1.438729	0.169467	-0.86377	-0.075684	-0.092529
1081.0	5.97129	0.630732	9.227298	0.115249	-1.728798	0.121083	-0.868408	-0.069092	-0.078857
1082.0	5.921863	0.854979	9.054077	0.128597	-2.0488	0.084897	-0.866211	-0.066895	-0.053955
1083.0	6.032151	0.853885	8.89948	0.289823	-2.340019	0.050338	-0.870361	-0.071533	-0.037842
1084.0	6.040099	0.869125	8.864268	0.341093	-2.663534	0.026583	-0.872559	-0.069336	-0.008301
1085.0	6.069391	0.790146	8.962064	0.436967	-2.962752	0.023469	-0.874756	-0.069336	0.016846
1086.0	5.69545	1.774556	9.455499	0.465614	-3.318792	0.081287	-0.877197	-0.065186	0.050781
1087.0	5.597908	1.675114	8.687786	-0.339493	-3.838262	0.187296	-0.876953	-0.06958	0.087402
1088.0	5.53256	2.484625	10.086041	0.503422	-4.070942	0.326048	-0.88623	-0.058838	0.123779
1089.0	4.58396	4.265228	10.127042	-0.900495	-4.762086	0.644017	-0.880127	-0.050293	0.164551
1090.0	5.116483	0.202732	9.149422	-0.452217	-5.036597	0.978526	-0.875977	-0.043701	0.216797
1091.0	3.241651	4.553919	10.37217	0.905059	-5.424178	1.4825	-0.870361	-0.021973	0.268799
1092.0	2.693117	4.332823	10.003321	-0.018623	-6.21122	2.112257	-0.855957	-0.004639	0.323242
1093.0	2.188548	3.307633	9.717795	0.099166	-7.001212	2.543245	-0.848389	0.021484	0.390869
1094.0	2.842174	3.516816	8.395423	-1.728302	-8.673201	2.930575	-0.812012	0.04126	0.463379
1095.0	9.426729	-0.250517	6.842241	-1.651242	-10.086731	2.708971	-0.773438	0.056396	0.556641
1096.0	25.736798	0.87761	6.676001	0.190893	-10.840251	2.256201	-0.722168	0.078369	0.640381
1097.0	39.977795	-1.012185	0.789367	0.319775	-10.422235	1.741232	-0.663818	0.091797	0.706055
1098.0	39.392774	-0.056435	6.941377	1.399009	-8.756822	0.996063	-0.610107	0.111572	0.762695
1099.0	31.86481	6.522295	11.96741	3.073525	-7.516716	1.273911	-0.559326	0.146729	0.807617
1100.0	25.459181	11.722867	21.181055	1.496614	-7.078595	1.790425	-0.501709	0.170898	0.843506
1101.0	27.695365	8.713487	20.968519	0.220155	-6.050935	1.957946	-0.460938	0.188477	0.875
1102.0	9.475697	11.478926	23.719262	0.642561	-3.243673	1.275981	-0.444092	0.20166	0.87915
1103.0	10.32168	9.350933	25.055407	-1.062716	-1.81722	2.048531	-0.420654	0.212891	0.904053
1104.0	33.810425	6.670976	21.831188	0.136947	1.02601	0.524042	-0.458252	0.223389	0.885742
1105.0	-2.464502	12.625829	18.831787	0.361028	5.090541	-0.518326	-0.489502	0.240723	0.874023
1106.0	-1.011537	9.370625	13.099947	-1.589651	2.199982	-0.074209	-0.506104	0.220947	0.878906
1107.0	0.887288	2.45155	11.048264	-3.048618	3.503243	-0.20348	-0.536377	0.216553	0.876709
1108.0	-2.456514	2.185697	10.646512	-1.597482	3.250143	-0.525598	-0.571289	0.216309	0.867676
1109.0	0.780179	2.42496	10.862388	-0.573205	3.002849	-0.546563	-0.5979	0.227051	0.865234
1110.0	3.818446	4.585452	12.220436	-0.067642	3.322833	-0.624424	-0.637695	0.237793	0.860596
1111.0	5.482179	4.905179	12.000581	-0.743959	4.12783	-0.713018	-0.686035	0.248291	0.851318
1112.0	5.031304	4.069948	11.122888	-0.286338	4.731122	-0.880525	-0.747559	0.258789	0.839844
1113.0	4.80303	4.347756	10.075942	-0.711643	5.2214	-0.996222	-0.822021	0.264893	0.819092
1114.0	4.731053	0.910889	7.487134	-0.381089	5.48691	-1.150322	-0.905518	0.277588	0.787109
1115.0	4.317788	0.98464	7.663573	-0.244858	5.62476	-1.226588	-1.001953	0.290283	0.734619
1116.0	5.012105	0.476061	7.137361	-0.15853	5.728668	-1.227233	-1.098389	0.300781	0.67749
1117.0	6.183671	0.705591	7.534568	0.392886	5.806938	-1.320529	-1.205566	0.306641	0.59082
1118.0	7.297268	0.842009	7.470431	0.636711	5.842098	-1.286496	-1.308105	0.304199	0.493164
1119.0	8.465415	1.089373	8.650274	0.860951	5.889732	-1.252973	-1.407959	0.292969	0.361328
1120.0	10.665646	-0.439555	8.231094	0.621397	6.02706	-1.158647	-1.498779	0.277588	0.211182
1121.0	11.63893	0.250697	8.624135	1.542798	6.082486	-1.158917	-1.55249	0.255859	0.013428
1122.0	12.825764	1.346039	8.998381	1.26829	6.221711	-1.131228	-1.555176	0.217041	-0.211426
1123.0	13.322288	1.858164	9.594482	0.666242	6.475829	-0.983408	-1.487793	0.174316	-0.424805
1124.0	14.093296	-0.835082	8.363114	1.581499	6.135225	-1.062297	-1.367676	0.123291	-0.597168
1125.0	15.539901	3.063396	11.147986	0.457638	6.236627	-1.064525	-1.187256	0.083252	-0.738037
1126.0	17.459508	-0.799985	10.93987	1.322625	6.095794	-1.16845	-0.965088	0.045654	-0.787598
1127.0	20.051941	3.393328	12.517236	1.156313	6.081846	-1.243652	-0.77124	0.048828	-0.719482
1128.0	22.495926	0.197284	11.986161	1.104105	6.118416	-1.349268	-0.686523	0.057861	-0.59668
1129.0	24.888064	3.134	12.560759	1.953875	6.195728	-1.655208	-0.695801	0.070557	-0.510498
1130.0	27.546963	4.885235	11.799116	1.602715	6.363222	-1.890609	-0.754395	0.061523	-0.496582
1131.0	28.509312	4.511316	10.916167	1.307857	6.724029	-2.176693	-0.778809	0.02417	-0.545898
1132.0	29.48158	5.757777	9.544763	1.185016	6.536242	-2.554655	-0.768555	-0.008301	-0.593018
1133.0	27.780503	2.136591	6.575228	0.415071	6.388693	-2.954771	-0.736084	-0.051514	-0.640137
1134.0	27.025007	-3.893528	4.626001	0.48496	6.00554	-3.521518	-0.695557	-0.081787	-0.680664
1135.0	28.005743	-3.895822	-0.007471	0.672444	5.524005	-4.012451	-0.649902	-0.127197	-0.707031
1136.0	29.843524	1.116313	-3.806772	2.165191	4.918247	-4.061448	-0.613037	-0.170654	-0.733643
1137.0	30.762413	3.916963	-10.059713	0.549984	4.177682	-3.314515	-0.562256	-0.185547	-0.765381
1138.0	33.944258	-8.76987	-18.562679	-3.853028	3.952047	-1.969495	-0.523926	-0.167725	-0.792969
1139.0	31.438348	-26.517373	-29.641681	-2.240933	3.709073	-1.781953	-0.486084	-0.18042	-0.804199
1140.0	22.69156	-16.571979	-24.97473	3.971718	1.685154	-1.281322	-0.46875	-0.228516	-0.814697
1141.0	13.050072	2.28349	-20.610669	1.986289	0.788837	0.90784	-0.481934	-0.228516	-0.810059
1142.0	16.611757	-0.910306	-27.25547	-3.317744	-4.184228	3.82681	-0.524902	-0.189453	-0.820068
1143.0	-8.155355	-13.352835	8.160573	-6.085276	-4.916776	3.516816	-0.594727	-0.141846	-0.795898
1144.0	24.874742	-8.350057	24.230057	0.931406	-6.757062	2.802394	-0.641846	-0.159668	-0.779297
1145.0	10.293507	0.641971	6.827189	1.839471	-4.514917	1.539855	-0.685059	-0.170898	-0.760986
1146.0	15.112408	-1.197423	9.514827	-0.06699	-6.20183	1.598927	-0.743652	-0.177979	-0.730957
1147.0	29.9202	-3.383805	18.322002	1.023681	-5.55407	1.110277	-0.779785	-0.200195	-0.703369
1148.0	23.035542	2.751281	12.986807	2.713287	-4.116964	0.866969	-0.813477	-0.222168	-0.679932
1149.0	17.958722	9.522444	12.55442	0.141631	-3.79484	0.811778	-0.842041	-0.220215	-0.659424
1150.0	13.201236	8.326555	10.638112	-0.044817	-3.3888	0.404466	-0.86792	-0.227051	-0.629639
1151.0	27.11022	9.43785	13.140872	0.200442	-3.191934	0.657469	-0.885742	-0.218506	-0.623047
1152.0	6.323677	3.580141	5.053497	-2.111638	-1.3104	0.779477	-0.890381	-0.211914	-0.609375
1153.0	12.662016	-1.682382	11.09536	-0.386297	-1.105027	0.066371	-0.905762	-0.209961	-0.60498
1154.0	11.03762	3.408193	10.446645	-0.346693	-0.912217	0.503663	-0.906006	-0.205566	-0.598145
1155.0	7.144789	-0.283248	9.237565	-0.663598	-0.33763	0.380906	-0.908203	-0.205566	-0.598145
1156.0	6.74456	-0.094162	9.833291	-0.506694	-0.329684	0.261875	-0.9104	-0.201172	-0.600586
1157.0	5.953232	3.421902	8.710077	-0.328884	-0.038201	0.268579	-0.911133	-0.188232	-0.598389
1158.0	7.193977	2.572756	8.756955	-1.311009	-0.267365	0.509001	-0.918213	-0.177246	-0.603271
1159.0	5.893966	-2.208461	8.646902	-0.326521	-0.147574	0.182337	-0.913574	-0.181641	-0.60083
1160.0	6.14267	2.02101	8.976184	0.388395	-0.248912	0.126075	-0.920166	-0.181641	-0.596436
1161.0	6.476167	1.84346	8.430945	0.124688	-0.314917	0.107647	-0.922119	-0.183838	-0.591797
1162.0	6.425397	1.66051	8.208689	-0.039121	-0.290966	0.09014	-0.922363	-0.179443	-0.584961
1163.0	6.255909	1.385121	8.492848	-0.319234	-0.283388	0.097984	-0.922363	-0.179443	-0.587158
1164.0	6.151076	1.17797	8.419114	0.225796	-0.363142	0.041359	-0.924561	-0.181641	-0.587158
1165.0	6.47011	2.303786	8.309091	0.147437	-0.382238	0.045285	-0.926514	-0.181641	-0.584961
1166.0	6.558437	1.579154	8.066047	-0.018695	-0.361861	0.051078	-0.931152	-0.179688	-0.573486
1167.0	6.558316	1.987328	8.13841	-0.085369	-0.348038	0.018576	-0.930908	-0.181641	-0.580322
1168.0	6.735627	3.081017	8.197875	-0.676037	-0.259845	0.067752	-0.931396	-0.173096	-0.575928
1169.0	6.413608	0.870506	7.677407	-0.690521	-0.265269	0.111921	-0.931396	-0.170898	-0.57373
1170.0	6.461282	1.545346	7.831312	0.016608	-0.276007	0.013783	-0.936035	-0.168701	-0.57373
1171.0	6.500186	1.888149	8.073529	-0.081387	-0.26818	0.001657	-0.936035	-0.166504	-0.566895
1172.0	6.142468	1.264845	8.230464	-0.10581	-0.302749	-0.002012	-0.940186	-0.173096	-0.564453
1173.0	6.135491	1.956558	7.988851	-0.207206	-0.363914	0.02461	-0.936035	-0.168701	-0.557861
1174.0	5.988373	1.170308	8.029457	0.26525	-0.416572	-0.002396	-0.939941	-0.17749	-0.55542
1175.0	6.255275	3.12457	8.270822	-0.05662	-0.393799	0.026271	-0.942383	-0.173096	-0.548584
1176.0	6.328077	0.522257	7.556538	-0.045838	-0.422482	0.06324	-0.926758	-0.17749	-0.543945
1177.0	6.397215	3.137055	8.125849	-0.003233	-0.44944	0.033924	-0.922852	-0.170898	-0.560059
1178.0	6.21427	0.826681	7.287847	-0.74264	-0.376045	0.153419	-0.925781	-0.148926	-0.562744
1179.0	6.459964	1.451889	7.850089	0.464475	-0.491707	0.026756	-0.939941	-0.129395	-0.563232
1180.0	6.585637	2.820086	7.809591	-0.173934	-0.44112	0.062704	-0.957275	-0.129639	-0.558594
1181.0	6.227393	1.263462	7.434294	-0.502682	-0.417157	0.117927	-0.959473	-0.131836	-0.54248
1182.0	6.442202	1.629622	7.636341	0.140634	-0.500565	0.098577	-0.965576	-0.138428	-0.528809
1183.0	6.389301	1.952833	7.83267	-0.003216	-0.526461	0.113305	-0.965332	-0.14502	-0.521729
1184.0	6.374871	1.703204	7.772676	-0.194945	-0.552791	0.131017	-0.967529	-0.147217	-0.514893
1185.0	6.33483	1.279059	7.710003	-0.141093	-0.605551	0.136413	-0.967529	-0.147217	-0.514893
1186.0	6.554985	1.605113	7.872661	0.035795	-0.656586	0.120446	-0.967773	-0.140625	-0.508301
1187.0	6.348535	1.839063	8.028468	-0.260999	-0.667004	0.1307	-0.972168	-0.140869	-0.501465
1188.0	6.35086	1.049921	7.837986	-0.194409	-0.758083	0.086112	-0.974121	-0.140869	-0.492188
1189.0	6.313011	1.079994	7.954916	0.299969	-0.922916	0.069912	-0.976563	-0.136475	-0.478516
1190.0	6.320263	1.536903	8.236823	0.410066	-1.115165	0.085547	-0.980957	-0.138672	-0.469482
1191.0	6.417985	1.415322	8.298079	0.264725	-1.282131	0.080473	-0.985352	-0.138672	-0.458008
1192.0	6.332167	1.707574	8.365239	0.027506	-1.542021	0.040928	-0.994141	-0.136719	-0.444336
1193.0	6.42157	-0.091098	7.732286	0.229808	-1.765588	0.024332	-0.998047	-0.143311	-0.421387
1194.0	6.536888	1.549277	8.072309	0.782257	-2.069599	-0.033729	-1.006836	-0.141357	-0.394287
1195.0	6.72766	1.585743	8.071894	0.623764	-2.241502	-0.064448	-1.010986	-0.145752	-0.375977
1196.0	6.510636	2.127488	8.207993	0.346081	-2.454211	-0.068881	-1.015381	-0.147949	-0.343994
1197.0	6.268381	2.554823	8.574198	-0.229749	-2.744529	-0.032552	-1.026611	-0.141602	-0.321289
1198.0	6.078312	1.506473	8.417299	-0.061783	-3.197552	0.12849	-1.028809	-0.137207	-0.284912
1199.0	6.03889	3.304639	9.756479	0.076593	-3.532393	0.179087	-1.042236	-0.133057	-0.248535
1200.0	5.621688	3.710248	9.911711	-0.668226	-4.036158	0.39288	-1.048828	-0.128906	-0.20752
1201.0	5.212714	1.545194	9.189913	-0.484118	-4.516902	0.722184	-1.047363	-0.111572	-0.157715
1202.0	4.99992	2.462932	9.809744	1.00718	-4.987134	1.010778	-1.054443	-0.103027	-0.10083
1203.0	3.948889	4.072951	9.286643	0.156523	-5.627946	1.492838	-1.055176	-0.085693	-0.046631
1204.0	4.587712	1.996033	8.517972	-0.367241	-6.469243	1.859524	-1.049805	-0.05957	0.02124
1205.0	4.516107	4.002048	9.222437	-0.250355	-7.2637	1.983244	-1.032959	-0.042236	0.091553
1206.0	7.834295	2.120234	7.548138	-1.28433	-8.35438	2.105458	-1.016602	-0.018311	0.177734
1207.0	18.712855	-1.1567	5.076935	-0.431689	-8.874124	1.634947	-0.995605	-0.003174	0.263916
1208.0	30.659574	-0.205554	2.210903	1.057069	-8.490071	0.975247	-0.955078	0.016602	0.334229
1209.0	29.757754	3.240559	3.406978	1.697336	-7.18575	0.720736	-0.912109	0.031982	0.399902
1210.0	24.561833	2.954471	7.516159	1.041815	-6.405537	0.740691	-0.878418	0.060303	0.456299
1211.0	17.09507	2.533953	7.432347	2.287659	-5.64273	0.650532	-0.838135	0.08667	0.501465
1212.0	18.842761	3.842545	12.0589	2.167078	-5.720599	0.637561	-0.789063	0.108643	0.541992
1213.0	19.988314	1.33858	8.841973	2.758487	-4.76149	0.39567	-0.746826	0.141602	0.579834
1214.0	9.291489	9.242787	13.299436	4.436273	-3.219508	-0.08195	-0.715576	0.176758	0.590576
1215.0	3.659609	12.759943	19.667313	1.641147	-1.224093	0.908568	-0.686279	0.203125	0.587891
1216.0	20.912866	8.458762	15.549645	-0.535808	0.435476	1.49439	-0.675781	0.211914	0.569336
1217.0	5.864931	6.878706	12.695841	0.056287	3.463191	0.741922	-0.669922	0.225098	0.548584
1218.0	0.958431	6.488863	9.18526	-0.348859	3.121138	0.905738	-0.663818	0.238281	0.523193
1219.0	1.233139	5.807889	7.792101	-1.452768	3.716225	0.919593	-0.664307	0.24707	0.498047
1220.0	0.359016	0.845674	6.471634	-1.650077	3.746547	0.904441	-0.664795	0.255859	0.470459
1221.0	0.474649	0.963395	5.853296	-0.324002	3.799773	0.647754	-0.651855	0.262695	0.445313
1222.0	1.621155	-0.166846	5.585494	0.117377	3.871293	0.322775	-0.647949	0.271484	0.413086
1223.0	2.656399	1.416855	6.29788	0.877757	4.047042	0.034632	-0.650635	0.282471	0.385498
1224.0	4.021384	2.101806	6.436496	1.052026	4.337816	-0.199913	-0.651123	0.29126	0.360352
1225.0	5.348816	2.547192	6.419326	1.0256	4.702037	-0.411292	-0.644531	0.293701	0.316895
1226.0	5.522958	2.511303	6.294002	1.260285	5.111825	-0.614148	-0.64502	0.304443	0.293945
1227.0	5.610436	3.493582	6.433254	0.462833	5.343632	-0.702168	-0.643311	0.311279	0.259766
1228.0	6.395631	0.731304	5.408637	0.87619	5.58866	-0.825658	-0.649902	0.313477	0.220947
1229.0	6.544697	0.979224	5.333806	1.077202	5.77945	-0.947257	-0.648193	0.324463	0.17749
1230.0	6.291613	1.579086	6.104252	0.489948	5.721922	-0.97526	-0.652832	0.328857	0.145508
1231.0	7.674713	-2.705024	5.347502	0.85387	5.717052	-0.951945	-0.653076	0.333252	0.099609
1232.0	7.033867	-0.677577	5.50808	2.130202	5.857267	-1.011975	-0.655029	0.333496	0.058594
1233.0	7.759114	-0.129356	5.855719	1.828101	5.629243	-0.929677	-0.645996	0.322754	0.008789
1234.0	9.132492	-0.684111	6.193139	2.144139	5.521111	-0.751596	-0.639404	0.322754	-0.023193
1235.0	10.36716	2.823844	8.311382	2.246856	5.305032	-0.587662	-0.641357	0.316406	-0.068604
1236.0	12.088116	-1.139062	6.59045	2.083196	5.293869	-0.396156	-0.630127	0.310059	-0.109619
1237.0	13.782114	2.328188	8.448767	3.511495	5.237412	-0.464981	-0.621094	0.303711	-0.152588
1238.0	14.350687	2.974771	7.445084	1.723859	4.936045	-0.392757	-0.616211	0.292969	-0.184326
1239.0	14.187664	1.013539	5.234851	2.068757	4.759492	-0.512448	-0.602783	0.284424	-0.234375
1240.0	13.179967	1.369865	4.22537	1.929525	4.32075	-0.537797	-0.595459	0.26709	-0.265869
1241.0	11.421309	-0.378278	2.599918	2.293214	3.271501	-0.744806	-0.583984	0.25415	-0.304443
1242.0	11.480108	-1.22153	1.43704	2.429382	2.207329	-0.868444	-0.580811	0.232422	-0.324463
1243.0	21.531845	2.70877	0.092338	3.265541	0.13607	-0.347857	-0.58667	0.214844	-0.331055
1244.0	26.937352	8.315262	7.684892	3.366927	0.300299	1.16414	-0.575439	0.208496	-0.351563
1245.0	19.362238	-6.161111	1.543402	-3.823478	1.314207	1.557995	-0.563721	0.236816	-0.352051
1246.0	23.769421	-27.409069	-1.745987	-4.936179	0.549122	1.52346	-0.560059	0.252197	-0.352295
1247.0	24.404695	-26.040508	-6.515363	3.405495	-0.024901	1.115983	-0.554932	0.234863	-0.370117
1248.0	23.638338	-10.083091	-4.110102	4.741625	-0.143225	2.05463	-0.552246	0.228271	-0.376953
1249.0	23.545354	-11.278929	-6.042168	2.363809	0.383609	3.045722	-0.545898	0.230469	-0.383789
1250.0	26.730584	-11.996319	-7.178892	2.271505	0.368117	3.619488	-0.533447	0.241455	-0.393066
1251.0	28.670353	-15.805888	-7.640856	1.018058	1.334776	3.703162	-0.514404	0.259277	-0.409424
1252.0	22.002244	-14.314116	-7.076011	1.8664	1.792514	3.291356	-0.503906	0.265869	-0.421143
1253.0	19.821323	-5.32334	-1.834713	2.705226	1.830067	2.538762	-0.481934	0.263916	-0.432373
1254.0	6.55704	-12.711518	12.415643	-1.90089	2.991093	1.526578	-0.470215	0.292236	-0.430664
1255.0	-0.454739	-25.474677	10.41024	-2.399688	1.249972	0.477141	-0.465332	0.283447	-0.435059
1256.0	6.131244	4.641695	13.699441	1.448469	0.506989	-0.376516	-0.467529	0.283447	-0.444092
1257.0	5.402262	-3.291514	10.058739	1.125009	-0.180757	-0.415177	-0.462891	0.274902	-0.446289
1258.0	5.638949	1.604036	8.681739	1.763668	-0.585652	-0.597132	-0.471191	0.263916	-0.443848
1259.0	6.4779	1.540359	8.33851	1.14077	-0.745065	-0.616744	-0.479736	0.259521	-0.443604
1260.0	7.443236	5.425557	7.496014	0.678079	-0.450048	-0.526406	-0.479248	0.250732	-0.447998
1261.0	6.455082	3.158084	6.894205	0.204775	-0.483017	-0.147762	-0.479248	0.25293	-0.438965
1262.0	6.990317	4.118885	7.989409	-0.115493	-0.188816	-0.051274	-0.483887	0.257324	-0.439209
1263.0	6.65385	0.946983	6.896642	-0.383086	-0.104922	0.030971	-0.486084	0.257324	-0.446045
1264.0	5.93785	-0.77106	7.199967	1.068652	-0.172546	-0.098318	-0.48999	0.248535	-0.438965
1265.0	6.449684	2.71161	8.848917	1.568393	-0.125203	-0.267835	-0.485107	0.235352	-0.440918
1266.0	6.349271	1.586621	7.992978	0.626039	-0.119049	-0.216248	-0.485107	0.233154	-0.440918
1267.0	5.836951	2.404559	8.486192	0.323402	-0.157359	-0.188703	-0.487061	0.22876	-0.443115
1268.0	6.236965	1.317385	8.136132	0.112485	-0.266184	-0.122796	-0.489258	0.22876	-0.443115
1269.0	6.311142	1.465824	8.064295	0.277105	-0.375647	-0.156245	-0.489014	0.226563	-0.443115
1270.0	6.268979	1.335039	7.61318	0.328438	-0.463787	-0.101859	-0.5	0.226563	-0.438477
1271.0	6.667392	1.961099	7.672097	0.900815	-0.547867	-0.128461	-0.501709	0.215576	-0.431396
1272.0	7.096628	3.253529	7.703131	0.077557	-0.217629	-0.164811	-0.497559	0.222168	-0.433838
1273.0	6.544776	3.041991	7.619524	-0.843765	-0.138013	-0.051657	-0.502197	0.22876	-0.434082
1274.0	6.436275	1.435462	7.400647	-1.043064	-0.015036	-0.03336	-0.500244	0.230957	-0.434082
1275.0	6.214521	0.046499	7.266204	0.647573	-0.309621	-0.152241	-0.501953	0.224365	-0.431641
1276.0	6.806277	3.950844	8.012921	0.318429	-0.19636	-0.157076	-0.508545	0.222168	-0.427002
1277.0	6.187426	-1.370169	6.821187	1.525039	-0.363207	-0.203076	-0.503662	0.211182	-0.428955
1278.0	6.985221	4.843216	7.540906	1.211212	-0.31439	-0.239515	-0.509766	0.202393	-0.428955
1279.0	6.995181	5.975322	8.882449	-0.840067	0.063142	-0.080435	-0.507813	0.208984	-0.428955
1280.0	6.632119	2.10211	7.366404	-3.65277	0.303628	0.285976	-0.506104	0.217773	-0.424561
1281.0	5.379999	-3.90417	6.392787	0.146575	-0.198168	-0.031513	-0.508301	0.217773	-0.422363
1282.0	6.998792	3.146894	7.502953	1.328873	-0.426045	-0.148695	-0.505859	0.213379	-0.419922
1283.0	6.491647	1.948945	7.548662	0.777996	-0.19903	-0.114328	-0.505615	0.208984	-0.417725
1284.0	6.757647	2.955226	7.204069	0.164612	-0.113094	-0.100586	-0.509766	0.20459	-0.424316
1285.0	6.643981	2.675292	7.917367	-0.228602	-0.038957	-0.099179	-0.505371	0.202637	-0.426514
1286.0	6.939787	3.303913	7.721276	-0.754174	0.001359	-0.089586	-0.499268	0.213379	-0.422363
1287.0	5.934738	0.089232	7.517693	-0.523045	-0.036806	-0.018036	-0.506104	0.217773	-0.438232
1288.0	6.674373	1.522701	7.518482	0.52317	-0.201082	-0.111154	-0.501465	0.211182	-0.428955
1289.0	6.177087	3.107927	7.466425	-0.37732	-0.055242	-0.110293	-0.503662	0.213379	-0.431396
1290.0	5.94937	-0.999521	7.048952	0.406766	-0.226157	-0.126439	-0.508057	0.213379	-0.429199
1291.0	6.879737	2.793632	6.896928	0.660623	-0.261581	-0.178994	-0.505615	0.206787	-0.424316
1292.0	7.276265	4.913017	8.622681	0.30525	-0.200502	-0.256014	-0.512207	0.208984	-0.431396
1293.0	6.930312	-0.619893	6.305338	0.121379	-0.112569	-0.046729	-0.512207	0.206787	-0.426758
1294.0	7.175632	4.26317	7.297974	0.646735	-0.051979	-0.031593	-0.51416	0.20459	-0.426758
1295.0	7.250378	3.852083	7.179789	-0.780753	0.126412	0.171415	-0.512207	0.206787	-0.428955
1296.0	6.881392	3.666984	8.375692	-1.485968	0.257104	0.382683	-0.506104	0.219971	-0.422363
1297.0	7.114792	-0.615601	6.316132	-1.70617	0.448174	0.715268	-0.504395	0.230957	-0.424805
1298.0	6.220986	-3.071004	6.53709	0.47605	0.374658	0.867319	-0.502441	0.233154	-0.429443
1299.0	7.096378	3.790794	10.55565	1.620246	0.435462	0.643878	-0.498047	0.233154	-0.434082
1300.0	6.292608	-3.537107	8.260689	-0.035694	0.741047	1.266187	-0.493408	0.22876	-0.440918
1301.0	6.518715	-0.258781	8.812096	1.078656	0.734946	1.575549	-0.48291	0.237549	-0.440918
1302.0	5.666835	-1.149881	9.355389	1.984471	0.868172	2.32304	-0.478516	0.233398	-0.447754
1303.0	5.792267	-0.056676	9.136971	1.805412	1.040966	3.085419	-0.459229	0.23999	-0.459229
1304.0	6.05774	-0.989303	8.770885	1.413954	1.259201	4.115107	-0.444824	0.259766	-0.46875
1305.0	6.224541	-2.141183	7.740219	1.514807	1.195541	5.106359	-0.429688	0.266357	-0.480469
1306.0	7.725498	-3.668042	6.268124	2.313793	1.04243	5.81335	-0.406494	0.28418	-0.487549
1307.0	9.375804	-4.34696	5.116549	3.228538	0.944091	6.279104	-0.391357	0.286377	-0.501221
1308.0	11.207426	-6.427491	4.19315	4.164478	0.946692	6.560177	-0.371826	0.286621	-0.517334
1309.0	11.778716	-3.904385	5.864347	3.51267	0.863803	6.83904	-0.348145	0.293213	-0.526611
1310.0	12.293124	-11.219936	2.848919	3.939233	0.845768	6.871601	-0.325928	0.286865	-0.537842
1311.0	12.579738	-7.37731	3.672327	5.356852	0.725266	6.90527	-0.30835	0.280518	-0.553711
1312.0	12.490352	-7.462467	4.332572	5.008832	0.719152	6.903156	-0.285889	0.269775	-0.564941
1313.0	12.13024	-6.259762	4.307973	5.717983	0.65195	6.991038	-0.265625	0.252441	-0.580566
1314.0	11.918897	-6.764749	3.121394	6.129526	0.649151	6.981	-0.24707	0.228516	-0.598389
1315.0	11.889348	-2.259375	4.765963	7.573574	0.722362	6.904011	-0.22583	0.19165	-0.609131
1316.0	11.449702	-0.921852	4.901817	5.287469	0.873978	6.939811	-0.207764	0.178711	-0.61792
1317.0	10.991534	-2.219208	4.708057	5.407641	0.82806	6.821218	-0.184814	0.152588	-0.624268
1318.0	11.940375	-1.259001	5.755267	5.302414	0.793464	6.728198	-0.17749	0.135254	-0.639893
1319.0	12.103701	0.889694	6.50719	4.518949	1.015112	6.63231	-0.15918	0.113525	-0.639404
1320.0	11.986757	1.723432	7.666094	3.008675	1.080512	6.667059	-0.147461	0.098389	-0.652832
1321.0	11.083527	-2.677257	6.105661	3.028387	1.069158	6.591909	-0.135986	0.083252	-0.650391
1322.0	10.185177	-1.202835	6.790635	4.009953	1.040331	6.343986	-0.124268	0.065918	-0.663574
1323.0	9.165397	-1.546363	6.637341	3.271195	1.031097	6.084676	-0.118896	0.046387	-0.661133
