Acquisition frequency: 100 Hz
PacketCounter	Acc_X	Acc_Y	Acc_Z	Gyr_X	Gyr_Y	Gyr_Z	Mag_X	Mag_Y	Mag_Z
0.0	5.907786	-1.367405	7.814665	0.009155	0.014529	-0.019341	-0.560059	-0.072021	-0.330566
1.0	5.919272	-1.303946	7.81703	0.00464	0.007907	-0.015796	-0.5625	-0.069824	-0.332764
2.0	5.914437	-1.278256	7.866219	0.003973	0.0096	-0.014631	-0.560059	-0.071777	-0.339111
3.0	5.938526	-1.291603	7.827001	-0.006401	0.008504	-0.014559	-0.560303	-0.069824	-0.332764
4.0	5.897684	-1.312413	7.809471	-0.017121	0.004301	-0.011972	-0.560059	-0.076172	-0.332764
5.0	5.943874	-1.313596	7.838273	-0.022405	0.003749	-0.009916	-0.555908	-0.067627	-0.334961
6.0	5.929812	-1.311091	7.798484	-0.022061	0.006854	-0.012429	-0.555664	-0.076172	-0.336914
7.0	5.895012	-1.353086	7.791819	-0.007961	0.001739	-0.015362	-0.555664	-0.073975	-0.332764
8.0	5.917065	-1.303985	7.818694	-0.00304	0.010185	-0.013201	-0.564453	-0.073975	-0.334961
9.0	5.904291	-1.296634	7.838961	-0.005457	0.005106	-0.008806	-0.557861	-0.072021	-0.334961
10.0	5.91432	-1.34224	7.801509	-0.014344	0.003719	-0.00954	-0.560059	-0.076172	-0.330566
11.0	5.897999	-1.276169	7.828153	-0.00522	0.004257	-0.007369	-0.562256	-0.073975	-0.334717
12.0	5.934225	-1.332439	7.810568	-0.015165	0.00231	-0.009899	-0.560059	-0.072021	-0.332764
13.0	5.908036	-1.322428	7.790584	-0.014108	0.002868	-0.008102	-0.560303	-0.069824	-0.334961
14.0	5.926	-1.350679	7.781882	-0.00848	0.00653	-0.012667	-0.560303	-0.06543	-0.339111
15.0	5.900919	-1.336547	7.821967	-0.010682	0.009361	-0.01617	-0.562256	-0.073975	-0.334717
16.0	5.896679	-1.27733	7.828959	-0.012278	0.005688	-0.011417	-0.558105	-0.069824	-0.334961
17.0	5.900369	-1.336645	7.822364	-0.006907	0.002295	-0.01356	-0.562256	-0.074219	-0.332764
18.0	5.8902	-1.291131	7.859909	-0.008309	-0.001371	-0.012846	-0.560059	-0.073975	-0.332764
19.0	5.921226	-1.326359	7.830791	-0.015814	-0.007004	-0.010438	-0.562256	-0.076172	-0.334717
20.0	5.936288	-1.295833	7.827999	-0.019612	-0.007847	-0.009188	-0.560059	-0.076172	-0.339111
21.0	5.935121	-1.335339	7.809392	-0.025287	-0.010658	-0.010094	-0.5625	-0.067627	-0.330566
22.0	5.941765	-1.357828	7.819575	-0.028592	-0.005295	-0.009825	-0.557861	-0.073975	-0.334717
23.0	5.942774	-1.324174	7.77709	-0.022728	-0.002478	-0.012953	-0.555908	-0.071777	-0.334717
24.0	5.924121	-1.332061	7.827633	-0.016905	0.003432	-0.010516	-0.56665	-0.071777	-0.339111
25.0	5.94874	-1.346743	7.787768	-0.017487	0.001172	-0.009442	-0.555664	-0.076172	-0.334717
26.0	5.936935	-1.30536	7.765677	-0.01393	0.002866	-0.012125	-0.562256	-0.076172	-0.330566
27.0	5.954967	-1.333434	7.75692	-0.008495	0.006528	-0.012652	-0.562256	-0.071777	-0.336914
28.0	5.948174	-1.347301	7.788104	-0.005948	0.006805	-0.011661	-0.562256	-0.072021	-0.334961
29.0	5.935444	-1.340202	7.808314	-0.007438	0.007086	-0.010855	-0.564453	-0.072021	-0.332764
30.0	5.928793	-1.31902	7.797921	-0.006607	0.016402	-0.014339	-0.5625	-0.06958	-0.341309
31.0	5.946221	-1.346809	7.789681	-0.008109	0.008775	-0.009687	-0.564453	-0.072021	-0.332764
32.0	5.907165	-1.32901	7.790124	-0.003062	0.010189	-0.013175	-0.562256	-0.072021	-0.334961
33.0	5.944745	-1.34602	7.790944	-0.004303	0.017527	-0.01478	-0.560059	-0.074219	-0.330566
34.0	5.925506	-1.317503	7.800675	-0.002485	0.012447	-0.014245	-0.560059	-0.073975	-0.334717
35.0	5.942978	-1.344851	7.792494	-0.003975	0.012727	-0.013439	-0.557617	-0.078369	-0.33252
36.0	5.903696	-1.326785	7.793133	-0.005273	0.013016	-0.016668	-0.555664	-0.078369	-0.336914
37.0	5.910319	-1.344092	7.864402	-0.00816	0.009628	-0.015153	-0.5625	-0.069824	-0.334961
38.0	5.935153	-1.322576	7.78318	-0.008547	0.007378	-0.018116	-0.555664	-0.073975	-0.332764
39.0	5.883363	-1.332754	7.845214	-0.007731	0.008786	-0.017752	-0.560059	-0.073975	-0.332764
40.0	5.936402	-1.283348	7.801676	-0.005908	0.003708	-0.017219	-0.555908	-0.069824	-0.334961
41.0	5.934005	-1.356141	7.825758	-0.0037	0.000878	-0.013723	-0.562256	-0.073975	-0.341309
42.0	5.928194	-1.334636	7.814772	-0.0037	0.000878	-0.013722	-0.559814	-0.078369	-0.330566
43.0	5.973274	-1.337449	7.783984	-0.002211	0.000598	-0.014527	-0.558105	-0.067627	-0.336914
44.0	5.940772	-1.340195	7.794977	-0.001635	0.002856	-0.015597	-0.560059	-0.073975	-0.339111
45.0	5.96708	-1.315242	7.773406	-0.005815	0.009892	-0.010122	-0.555664	-0.076172	-0.336914
46.0	5.95234	-1.346363	7.775852	-0.000385	0.005656	-0.006803	-0.557861	-0.073975	-0.336914
47.0	5.947201	-1.321555	7.825085	-0.00101	0.012161	-0.015038	-0.559814	-0.078369	-0.330566
48.0	5.940636	-1.299731	7.814716	0.00293	0.008205	-0.010914	-0.562256	-0.076172	-0.334717
49.0	5.932165	-1.316338	7.786515	-0.000147	0.01271	-0.009207	-0.558105	-0.069824	-0.334961
50.0	5.917095	-1.347182	7.78926	-0.001204	0.012149	-0.011003	-0.553711	-0.072021	-0.332764
51.0	5.922346	-1.367376	7.800911	0.002448	0.009901	-0.013778	-0.553711	-0.072021	-0.332764
52.0	5.929522	-1.348785	7.830426	0.007733	0.010473	-0.015826	-0.564697	-0.067627	-0.330566
53.0	5.935448	-1.333104	7.800247	0.008406	0.008783	-0.016992	-0.559814	-0.078369	-0.339111
54.0	5.930723	-1.272178	7.807822	0.011335	0.011315	-0.013036	-0.557861	-0.073975	-0.336914
55.0	5.923701	-1.28505	7.839304	0.003408	0.006504	-0.008045	-0.555908	-0.071777	-0.336914
56.0	5.909628	-1.280809	7.799844	-0.001686	0.005938	-0.010029	-0.557861	-0.072021	-0.334961
57.0	5.935463	-1.290748	7.820133	0.001535	0.004532	-0.010203	-0.557617	-0.078369	-0.334717
58.0	5.955261	-1.279822	7.829471	-0.001063	0.00734	-0.005633	-0.562256	-0.076172	-0.339111
59.0	5.925148	-1.345574	7.774181	-0.000389	0.005651	-0.0068	-0.559814	-0.078369	-0.330566
60.0	5.952572	-1.317273	7.812458	0.002491	0.00904	-0.008309	-0.562256	-0.076172	-0.336914
61.0	5.944185	-1.333896	7.784234	0.003306	0.01045	-0.007945	-0.562256	-0.074219	-0.330566
62.0	5.924999	-1.30534	7.793819	0.002389	0.012986	-0.00821	-0.557861	-0.076172	-0.334717
63.0	5.911722	-1.297799	7.814425	0.001574	0.011575	-0.008573	-0.562256	-0.072021	-0.334961
64.0	5.916919	-1.318432	7.826059	-0.003471	0.010153	-0.005095	-0.555664	-0.076172	-0.330566
65.0	5.904252	-1.276291	7.804654	0.000324	0.011006	-0.006337	-0.555664	-0.073975	-0.332764
66.0	5.94217	-1.293436	7.805321	-0.003612	0.007054	-0.006625	-0.560059	-0.076172	-0.330566
67.0	5.935167	-1.307229	7.83662	0.001239	0.008469	-0.00607	-0.558105	-0.069824	-0.332764
68.0	5.935171	-1.271868	7.795207	-0.000825	0.006489	-0.004199	-0.56665	-0.074219	-0.330566
69.0	5.908051	-1.296111	7.817481	0.00148	0.007621	-0.004637	-0.557861	-0.076172	-0.336914
70.0	5.925814	-1.323631	7.80918	-0.002224	0.01072	-0.007329	-0.56665	-0.074219	-0.332764
71.0	5.926962	-1.285226	7.827487	-0.002075	0.00592	-0.001964	-0.559814	-0.078369	-0.336914
72.0	5.926444	-1.28537	7.827856	-0.005538	0.008171	-0.003223	-0.557861	-0.073975	-0.336914
73.0	5.931911	-1.306502	7.839206	-0.005918	0.00592	-0.006186	-0.558105	-0.069824	-0.334961
74.0	5.937922	-1.292541	7.808701	-0.006835	0.008456	-0.006452	-0.559814	-0.078369	-0.328369
75.0	5.930941	-1.306949	7.839865	-0.008659	0.005628	-0.003149	-0.557861	-0.073975	-0.332764
76.0	5.929224	-1.31072	7.780476	-0.008521	0.008726	-0.001617	-0.553711	-0.072021	-0.332764
77.0	5.934437	-1.332083	7.791979	-0.006699	0.011553	-0.004919	-0.557617	-0.08252	-0.341309
78.0	5.941866	-1.280144	7.779523	-0.010254	0.009851	-0.002247	-0.562012	-0.082764	-0.334717
79.0	5.920491	-1.32628	7.812767	-0.008523	0.008725	-0.001616	-0.560059	-0.076172	-0.334717
80.0	5.932168	-1.333747	7.793422	-0.012469	0.012671	-0.005739	-0.55127	-0.076172	-0.330566
81.0	5.933072	-1.295992	7.811816	-0.005978	0.009008	-0.000621	-0.560059	-0.073975	-0.336914
82.0	5.912161	-1.30686	7.803307	-0.008192	0.011829	-0.004114	-0.553467	-0.074219	-0.330566
83.0	5.919013	-1.290079	7.832702	-0.010257	0.009848	-0.002245	-0.560059	-0.072021	-0.334961
84.0	5.930784	-1.297709	7.813268	-0.012563	0.008715	-0.001808	-0.557861	-0.076172	-0.334717
85.0	5.936106	-1.31974	7.824561	-0.01636	0.007859	-0.000568	-0.557861	-0.073975	-0.334717
86.0	5.896895	-1.303557	7.824663	-0.01276	0.008705	0.002225	-0.564209	-0.078369	-0.332764
87.0	5.941289	-1.307956	7.794362	-0.016602	0.008706	-0.001999	-0.555908	-0.071777	-0.336914
88.0	5.928041	-1.302406	7.814567	-0.014932	0.010667	0.004196	-0.562012	-0.078369	-0.339111
89.0	5.933249	-1.324678	7.825893	-0.013576	0.007293	0.001861	-0.557861	-0.076172	-0.336914
90.0	5.945078	-1.33267	7.806357	-0.012763	0.008702	0.002227	-0.557861	-0.073975	-0.334717
91.0	5.924224	-1.344057	7.797692	-0.008966	0.009558	0.00099	-0.557861	-0.073975	-0.332764
92.0	5.917496	-1.323799	7.787187	-0.009207	0.010406	-0.000441	-0.562256	-0.071777	-0.336914
93.0	5.918295	-1.286025	7.805709	-0.004596	0.012672	-0.001311	-0.562256	-0.073975	-0.334717
94.0	5.929391	-1.328604	7.828151	-0.012327	0.007863	-0.000372	-0.560059	-0.073975	-0.336914
95.0	5.92278	-1.308541	7.817531	-0.011514	0.009272	-4e-06	-0.560059	-0.073975	-0.339111
96.0	5.929841	-1.292282	7.846699	-0.012661	0.004755	0.002124	-0.557861	-0.076172	-0.332764
97.0	5.921698	-1.310659	7.817996	-0.013821	0.008138	0.000432	-0.558105	-0.06958	-0.341309
98.0	5.907019	-1.343267	7.820059	-0.015209	0.004469	0.001129	-0.564453	-0.074219	-0.332764
99.0	5.919214	-1.351326	7.800239	-0.013236	0.002495	0.003188	-0.560059	-0.072021	-0.334961
100.0	5.933196	-1.320912	7.798342	-0.011545	0.002232	-0.001644	-0.562256	-0.076172	-0.332764
101.0	5.944856	-1.363567	7.820305	-0.009479	0.004214	-0.003509	-0.568604	-0.076172	-0.334717
102.0	5.919951	-1.315296	7.81854	-0.007718	0.010127	-0.001236	-0.562256	-0.074219	-0.330566
103.0	5.911145	-1.368148	7.831713	-0.007173	0.005348	-0.003943	-0.559814	-0.078369	-0.328369
104.0	5.918982	-1.316216	7.819119	-0.010159	0.005898	-0.002339	-0.557861	-0.073975	-0.334717
105.0	5.910937	-1.333996	7.790428	-0.008907	0.006472	-0.004571	-0.557617	-0.078369	-0.33252
106.0	5.925785	-1.3	7.848488	-0.00948	0.004213	-0.003508	-0.560303	-0.06543	-0.334961
107.0	5.968836	-1.341937	7.800153	-0.010641	0.007596	-0.005198	-0.55127	-0.073975	-0.334717
108.0	5.923179	-1.339335	7.831026	-0.009348	0.007306	-0.001969	-0.555664	-0.073975	-0.334717
109.0	5.929115	-1.325579	7.800653	-0.007522	0.010139	-0.005263	-0.555664	-0.074219	-0.330566
110.0	5.959331	-1.360573	7.772431	-0.007722	0.010124	-0.001232	-0.559814	-0.078369	-0.334717
111.0	5.913258	-1.357721	7.803646	-0.005323	0.015216	-0.005586	-0.560059	-0.073975	-0.332764
112.0	5.926621	-1.326357	7.802416	-0.005109	0.00733	-0.005805	-0.560059	-0.073975	-0.332764
113.0	5.931875	-1.347433	7.813863	-0.004164	0.011832	-0.003896	-0.564453	-0.073975	-0.336914
114.0	5.892518	-1.330108	7.814229	-0.003483	0.010148	-0.005067	-0.557861	-0.076172	-0.334717
115.0	5.905384	-1.333916	7.854602	-0.004056	0.007889	-0.004005	-0.555908	-0.069824	-0.334961
116.0	5.931677	-1.30941	7.833231	-0.006495	0.003661	-0.005112	-0.555908	-0.071777	-0.336914
117.0	5.917281	-1.340984	7.835201	-0.003948	0.003946	-0.004115	-0.557617	-0.078369	-0.336914
118.0	5.923668	-1.326887	7.804568	-0.007548	0.0031	-0.006911	-0.560059	-0.072021	-0.334961
119.0	5.929983	-1.312848	7.773982	-0.00463	0.005629	-0.002944	-0.555664	-0.073975	-0.336914
120.0	5.941563	-1.355317	7.796003	-0.01179	0.003073	-0.003076	-0.560059	-0.073975	-0.332764
121.0	5.916335	-1.342336	7.835683	-0.008802	0.002525	-0.004679	-0.560059	-0.073975	-0.332764
122.0	5.922734	-1.328496	7.805003	-0.00799	0.003934	-0.004309	-0.557861	-0.073975	-0.341309
123.0	5.929985	-1.311636	7.83414	-0.007178	0.005343	-0.00394	-0.555664	-0.073975	-0.334717
124.0	5.934539	-1.335921	7.785619	-0.006366	0.006752	-0.00357	-0.560303	-0.069824	-0.332764
125.0	5.92164	-1.329477	7.805666	-0.007991	0.003933	-0.004309	-0.5625	-0.069824	-0.330566
126.0	5.902894	-1.302001	7.814717	-0.005444	0.004219	-0.003311	-0.5625	-0.069824	-0.332764
127.0	5.935277	-1.298814	7.804136	-0.011792	0.003071	-0.003074	-0.562012	-0.078369	-0.334717
128.0	5.908508	-1.324278	7.825677	-0.013418	0.000252	-0.003814	-0.555664	-0.073975	-0.341309
129.0	5.920963	-1.33182	7.80578	-0.011793	0.00307	-0.003074	-0.558105	-0.06543	-0.332764
130.0	5.939287	-1.360277	7.796874	-0.010059	0.001947	-0.002446	-0.557861	-0.076172	-0.336914
131.0	5.939226	-1.360937	7.796805	-0.010871	0.000537	-0.002816	-0.557861	-0.073975	-0.336914
132.0	5.945834	-1.347273	7.765947	-0.009377	0.000264	-0.003618	-0.5625	-0.069824	-0.334961
133.0	5.920604	-1.333951	7.805689	-0.005725	0.005936	-0.010196	-0.560059	-0.073975	-0.336914
134.0	5.92043	-1.334098	7.805795	-0.009618	0.001113	-0.005046	-0.560303	-0.071777	-0.343506
135.0	5.951176	-1.36902	7.777194	-0.008105	0.007873	-0.004192	-0.562256	-0.072021	-0.334961
136.0	5.932307	-1.341356	7.786385	-0.00375	0.003963	-0.00814	-0.564453	-0.076172	-0.336914
137.0	5.952099	-1.330871	7.795771	-0.005928	0.005917	-0.006165	-0.555908	-0.069824	-0.332764
138.0	5.939155	-1.32431	7.815871	-0.007423	0.00619	-0.005363	-0.562256	-0.076172	-0.334717
139.0	5.931214	-1.341747	7.78715	-0.007423	0.006189	-0.005363	-0.560059	-0.076172	-0.334717
140.0	5.956929	-1.352557	7.807417	-0.0065	0.003657	-0.005107	-0.560059	-0.076172	-0.332764
141.0	5.930588	-1.34221	7.787547	-0.007424	0.006189	-0.005362	-0.560059	-0.073975	-0.336914
142.0	5.942716	-1.349282	7.767985	-0.008919	0.006461	-0.00456	-0.560059	-0.072021	-0.334961
143.0	5.942315	-1.349655	7.768227	-0.007184	0.005338	-0.003934	-0.553711	-0.06958	-0.339111
144.0	5.943356	-1.311687	7.786688	-0.006042	0.009857	-0.006048	-0.560059	-0.074219	-0.330566
145.0	5.922029	-1.357723	7.819549	-0.007868	0.007019	-0.00276	-0.560059	-0.073975	-0.334717
146.0	5.922039	-1.322933	7.778326	-0.010529	0.010672	-0.003641	-0.559814	-0.078369	-0.336914
147.0	5.934779	-1.327535	7.818648	-0.012596	0.008684	-0.001782	-0.562256	-0.072021	-0.328369
148.0	5.919941	-1.35974	7.820779	-0.01053	0.010672	-0.00364	-0.557861	-0.072021	-0.330566
149.0	5.925855	-1.346092	7.79048	-0.011101	0.008411	-0.002583	-0.560059	-0.076172	-0.334717
150.0	5.918621	-1.360768	7.8216	-0.004308	0.008735	-0.005418	-0.560059	-0.072021	-0.334961
151.0	5.944673	-1.33631	7.800506	-0.008554	0.008698	-0.001585	-0.560303	-0.069824	-0.334961
152.0	5.930049	-1.368224	7.802513	-0.007186	0.005336	-0.003932	-0.562256	-0.072021	-0.334961
153.0	5.923582	-1.347533	7.791959	-0.0073	0.009277	-0.003814	-0.560059	-0.073975	-0.332764
154.0	5.955589	-1.344093	7.781765	-0.005564	0.008155	-0.003187	-0.560059	-0.073975	-0.332764
155.0	5.942295	-1.337476	7.802117	-0.002687	0.011553	-0.004672	-0.555664	-0.076172	-0.334717
156.0	5.921455	-1.347869	7.793517	-0.003498	0.010143	-0.005044	-0.557861	-0.076172	-0.332764
157.0	5.940685	-1.337316	7.803371	-0.003169	0.013252	-0.007526	-0.5625	-0.069824	-0.332764
158.0	5.952386	-1.343881	7.784251	-0.002688	0.011551	-0.004671	-0.557861	-0.073975	-0.334717
159.0	5.905454	-1.34372	7.755615	-0.004425	0.012672	-0.005297	-0.562256	-0.074219	-0.332764
160.0	5.903897	-1.379014	7.79787	-0.003981	0.011842	-0.007897	-0.562256	-0.072021	-0.332764
161.0	5.937223	-1.336987	7.806062	-0.00269	0.01155	-0.00467	-0.560059	-0.071777	-0.336914
162.0	5.936433	-1.336825	7.80669	-0.002245	0.01072	-0.00727	-0.560059	-0.072021	-0.332764
163.0	5.929123	-1.350957	7.837924	-0.002815	0.00846	-0.006215	-0.557861	-0.074219	-0.330566
164.0	5.927713	-1.35351	7.778705	-0.000509	0.009599	-0.006643	-0.562256	-0.074219	-0.332764
165.0	5.934364	-1.336057	7.808395	-0.000385	0.012688	-0.005096	-0.560059	-0.072021	-0.332764
166.0	5.953575	-1.325343	7.8183	-0.002246	0.010719	-0.007269	-0.553711	-0.071777	-0.334717
167.0	5.925288	-1.352586	7.780713	0.001111	0.012417	-0.005896	-0.564697	-0.069824	-0.339111
168.0	5.938637	-1.32055	7.779717	0.002484	0.009057	-0.008243	-0.560059	-0.073975	-0.334717
169.0	5.918615	-1.327793	7.830847	-0.002934	0.012397	-0.006094	-0.560059	-0.073975	-0.336914
170.0	5.93631	-1.35529	7.822633	-0.001438	0.012126	-0.006894	-0.560059	-0.072021	-0.328369
171.0	5.916013	-1.330126	7.772603	-0.001316	0.015215	-0.005347	-0.557861	-0.076172	-0.334717
172.0	5.940212	-1.375712	7.835184	0.001918	0.013824	-0.00552	-0.562256	-0.076172	-0.336914
173.0	5.907139	-1.343724	7.805088	-0.000749	0.017472	-0.006399	-0.557861	-0.073975	-0.336914
174.0	5.932039	-1.354025	7.826091	-0.00015	0.011834	-0.003665	-0.562012	-0.078369	-0.339111
175.0	5.931796	-1.318369	7.785304	0.000178	0.014942	-0.006145	-0.553711	-0.069824	-0.334961
176.0	5.924023	-1.332332	7.816878	0.000178	0.014942	-0.006144	-0.559814	-0.078369	-0.334717
177.0	5.922864	-1.332016	7.817811	-0.000511	0.01662	-0.00497	-0.560303	-0.069824	-0.336914
178.0	5.914451	-1.348848	7.789603	0.001346	0.011563	-0.004463	-0.560059	-0.076172	-0.332764
179.0	5.947642	-1.306507	7.79798	0.002154	0.012971	-0.004089	-0.560303	-0.069824	-0.330566
180.0	5.912558	-1.348099	7.791169	0.000416	0.01409	-0.004715	-0.555664	-0.076172	-0.334717
181.0	5.931561	-1.337353	7.801253	0.000655	0.01324	-0.003288	-0.562256	-0.076172	-0.339111
182.0	5.937921	-1.319845	7.831124	0.001912	0.013819	-0.005514	-0.555664	-0.076172	-0.328369
183.0	5.948154	-1.36426	7.794043	0.0032	0.01353	-0.002285	-0.555664	-0.073975	-0.336914
184.0	5.902464	-1.325729	7.783647	-0.003302	0.017175	-0.007396	-0.562256	-0.071777	-0.336914
185.0	5.946578	-1.360861	7.855553	0.001102	0.012409	-0.005886	-0.560059	-0.073975	-0.334717
186.0	5.880353	-1.33547	7.776085	0.00098	0.016345	-0.005764	-0.555908	-0.069824	-0.336914
187.0	5.931034	-1.356227	7.817442	-0.000518	0.016614	-0.004965	-0.560059	-0.076172	-0.336914
188.0	5.885396	-1.317727	7.806969	-0.000397	0.012677	-0.005086	-0.560059	-0.071777	-0.336914
189.0	5.91635	-1.349057	7.838815	-0.003183	0.013235	-0.007516	-0.560059	-0.076172	-0.336914
190.0	5.922202	-1.334582	7.808835	-0.002704	0.011537	-0.004662	-0.557617	-0.078369	-0.336914
191.0	5.921356	-1.334402	7.809507	-0.001446	0.012116	-0.006887	-0.555908	-0.069824	-0.336914
192.0	5.933833	-1.338182	7.850078	-0.006057	0.009836	-0.006041	-0.560303	-0.069824	-0.330566
193.0	5.919845	-1.334058	7.810711	0.00155	0.011577	-0.008481	-0.555908	-0.071777	-0.334717
194.0	5.918965	-1.333579	7.81146	-0.00064	0.013524	-0.006509	-0.557861	-0.076172	-0.341309
195.0	5.917996	-1.333244	7.812252	-0.000641	0.013523	-0.006509	-0.555664	-0.073975	-0.334717
196.0	5.929814	-1.339431	7.793243	0.001548	0.011575	-0.00848	-0.557861	-0.073975	-0.336914
197.0	5.903679	-1.325498	7.833414	0.000741	0.010166	-0.008855	-0.557861	-0.073975	-0.334717
198.0	5.908247	-1.348557	7.785369	0.004419	0.014972	-0.00995	-0.562256	-0.076172	-0.332764
199.0	5.901854	-1.323898	7.83506	0.001067	0.01327	-0.01133	-0.557861	-0.073975	-0.339111
200.0	5.913674	-1.329968	7.816082	0.001094	0.012403	-0.005878	-0.560059	-0.071777	-0.336914
201.0	5.925703	-1.336245	7.796917	-0.002372	0.007615	-0.008809	-0.560059	-0.073975	-0.332764
202.0	5.912396	-1.329208	7.817178	-0.00076	0.010433	-0.008056	-0.560059	-0.073975	-0.336914
203.0	5.911598	-1.328935	7.817828	-0.002952	0.012379	-0.006085	-0.557861	-0.073975	-0.339111
204.0	5.943404	-1.324966	7.808103	-0.002952	0.012378	-0.006085	-0.561768	-0.084961	-0.33252
205.0	5.929835	-1.318281	7.828495	-0.005257	0.011238	-0.005664	-0.560059	-0.072021	-0.334961
206.0	5.908965	-1.328885	7.819826	-0.006191	0.013763	-0.005916	-0.557861	-0.076172	-0.339111
207.0	5.934877	-1.304453	7.799068	-0.014152	0.00978	-0.006458	-0.557861	-0.076172	-0.341309
208.0	5.907265	-1.330024	7.820917	-0.01045	0.013719	-0.002098	-0.555664	-0.076172	-0.334717
209.0	5.918909	-1.337298	7.801895	-0.01093	0.015414	-0.004948	-0.5625	-0.069824	-0.336914
210.0	5.905219	-1.331042	7.822289	-0.007805	0.010943	-0.006666	-0.560059	-0.071777	-0.339111
211.0	5.904397	-1.33139	7.82285	-0.011044	0.012327	-0.006498	-0.557861	-0.076172	-0.332764
212.0	5.917579	-1.300419	7.821833	-0.010565	0.01063	-0.003647	-0.558105	-0.071777	-0.341309
213.0	5.915564	-1.33917	7.804111	-0.011611	0.010069	-0.005449	-0.560059	-0.073975	-0.334717
214.0	5.902141	-1.333072	7.824266	-0.009872	0.008952	-0.00482	-0.560303	-0.069824	-0.332764
215.0	5.901398	-1.333635	7.824731	-0.009522	0.011189	-0.001842	-0.555664	-0.073975	-0.332764
216.0	5.933333	-1.330141	7.81488	-0.006068	0.009825	-0.006034	-0.557861	-0.072021	-0.332764
217.0	5.912719	-1.34079	7.805988	-0.005828	0.008977	-0.004609	-0.553711	-0.069824	-0.336914
218.0	5.898389	-1.369785	7.86775	-0.007809	0.01094	-0.006662	-0.555664	-0.073975	-0.336914
219.0	5.911177	-1.341115	7.8071	-0.004459	0.012642	-0.005276	-0.558105	-0.06958	-0.339111
220.0	5.924359	-1.309598	7.806199	-0.003525	0.010117	-0.005025	-0.557861	-0.076172	-0.341309
221.0	5.896864	-1.334518	7.827998	-0.00631	0.010672	-0.007457	-0.560059	-0.072021	-0.332764
222.0	5.902932	-1.319945	7.797969	0.000279	0.010991	-0.006238	-0.562256	-0.076172	-0.343506
223.0	5.915267	-1.323646	7.838604	-0.006551	0.011519	-0.008881	-0.553711	-0.071777	-0.341309
224.0	5.89456	-1.334369	7.829758	-0.009072	0.010356	-0.00444	-0.557861	-0.073975	-0.336914
225.0	5.926529	-1.330727	7.819942	-0.006312	0.01067	-0.007455	-0.557861	-0.072021	-0.334961
226.0	5.912965	-1.324264	7.840236	-0.006769	0.011497	-0.004856	-0.560059	-0.073975	-0.336914
227.0	5.917739	-1.348159	7.792006	-0.004224	0.01179	-0.003847	-0.560059	-0.071777	-0.341309
228.0	5.898155	-1.320585	7.801475	-0.005509	0.012077	-0.007075	-0.558105	-0.071777	-0.336914
229.0	5.91722	-1.310172	7.811516	-0.00701	0.012343	-0.006279	-0.560059	-0.071777	-0.336914
230.0	5.90839	-1.363226	7.82441	-0.012881	0.009476	-0.003226	-0.553467	-0.076172	-0.339111
231.0	5.908761	-1.325756	7.843153	-0.010013	0.012875	-0.004686	-0.560059	-0.074219	-0.330566
232.0	5.906658	-1.36423	7.825542	-0.007012	0.012342	-0.006277	-0.557617	-0.078369	-0.336914
233.0	5.899918	-1.343586	7.815188	-0.011622	0.010056	-0.005445	-0.555664	-0.073975	-0.336914
234.0	5.886387	-1.337513	7.835368	-0.009078	0.01035	-0.004436	-0.560059	-0.071777	-0.339111
235.0	5.918261	-1.334072	7.825631	-0.010016	0.012872	-0.004684	-0.560059	-0.076172	-0.336914
236.0	5.911431	-1.313569	7.815328	-0.01082	0.011463	-0.005063	-0.562012	-0.078369	-0.336914
237.0	5.929294	-1.341709	7.807078	-0.010017	0.012871	-0.004682	-0.558105	-0.067627	-0.334961
238.0	5.928263	-1.342358	7.80775	-0.012218	0.01481	-0.002711	-0.560059	-0.076172	-0.339111
239.0	5.90053	-1.368175	7.829476	-0.014629	0.010583	-0.003852	-0.555664	-0.073975	-0.336914
240.0	5.926476	-1.343991	7.808826	-0.012564	0.012575	-0.005689	-0.553467	-0.076172	-0.334717
241.0	5.918545	-1.359224	7.840078	-0.013963	0.015921	-0.003336	-0.559814	-0.078369	-0.339111
242.0	5.905486	-1.317768	7.819114	-0.009698	0.015974	-0.007143	-0.564453	-0.076172	-0.336914
243.0	5.91031	-1.339092	7.830781	-0.007957	0.01486	-0.006514	-0.558105	-0.069824	-0.336914
244.0	5.889312	-1.349768	7.822119	-0.005413	0.015154	-0.005504	-0.555664	-0.073975	-0.339111
245.0	5.915106	-1.322155	7.861641	-0.003349	0.017146	-0.00734	-0.558105	-0.069824	-0.336914
246.0	5.901008	-1.318006	7.822454	-0.003213	0.013215	-0.007474	-0.557861	-0.073975	-0.336914
247.0	5.913126	-1.321966	7.863162	-0.003997	0.010934	-0.00241	-0.555908	-0.071777	-0.339111
248.0	5.872347	-1.343358	7.844898	-0.010965	0.015385	-0.004923	-0.557861	-0.073975	-0.339111
249.0	5.898261	-1.318895	7.824377	-0.009889	0.008933	-0.004812	-0.555664	-0.073975	-0.334717
250.0	5.903392	-1.340516	7.835754	-0.01153	0.013127	-0.003881	-0.557861	-0.073975	-0.336914
251.0	5.909429	-1.32682	7.805713	-0.014638	0.010573	-0.00385	-0.553711	-0.071777	-0.339111
252.0	5.901625	-1.342345	7.836772	-0.017082	0.013357	-0.003301	-0.560303	-0.069824	-0.332764
253.0	5.900657	-1.343477	7.837307	-0.018125	0.012796	-0.005105	-0.562256	-0.073975	-0.336914
254.0	5.899718	-1.344946	7.837762	-0.024941	0.012441	-0.002309	-0.557861	-0.073975	-0.339111
255.0	5.873074	-1.335912	7.81777	-0.019732	0.009978	-0.005868	-0.557861	-0.073975	-0.332764
256.0	5.892079	-1.326894	7.827681	-0.024143	0.013846	-0.001922	-0.558105	-0.06958	-0.341309
257.0	5.909917	-1.356215	7.819255	-0.023204	0.011324	-0.001676	-0.562256	-0.073975	-0.336914
258.0	5.896128	-1.351395	7.839354	-0.022404	0.012731	-0.001291	-0.557861	-0.073975	-0.341309
259.0	5.89519	-1.355427	7.779985	-0.01996	0.009947	-0.001841	-0.555664	-0.073975	-0.345703
260.0	5.894463	-1.354317	7.840102	-0.017656	0.011091	-0.00225	-0.562256	-0.072021	-0.334961
261.0	5.900496	-1.341073	7.810033	-0.018359	0.012761	-0.00107	-0.562256	-0.071777	-0.336914
262.0	5.905611	-1.363605	7.821223	-0.02355	0.009088	-0.004655	-0.553711	-0.071777	-0.341309
263.0	5.892105	-1.358558	7.841141	-0.019263	0.008272	-0.003016	-0.560303	-0.071777	-0.343506
264.0	5.897291	-1.380848	7.852306	-0.015115	0.011383	-0.001234	-0.553467	-0.076172	-0.334717
265.0	5.903431	-1.367241	7.822233	-0.015932	0.010854	-0.007061	-0.557861	-0.073975	-0.345703
266.0	5.869838	-1.372185	7.83285	-0.015357	0.012231	-0.002653	-0.555908	-0.071777	-0.341309
267.0	5.921551	-1.358535	7.832792	-0.012587	0.012558	-0.005662	-0.558105	-0.069824	-0.332764
268.0	5.882087	-1.342244	7.832577	-0.012672	0.008599	-0.001784	-0.558105	-0.067627	-0.334961
269.0	5.907322	-1.353724	7.853208	-0.014515	0.006632	-0.003976	-0.560059	-0.073975	-0.336914
270.0	5.887887	-1.327207	7.862382	-0.015923	0.00997	-0.001615	-0.560059	-0.071777	-0.336914
271.0	5.899172	-1.372994	7.824439	-0.020874	0.005448	-0.003783	-0.557861	-0.073975	-0.339111
272.0	5.898742	-1.374195	7.824552	-0.013238	0.006338	-0.000746	-0.557861	-0.072021	-0.334961
273.0	5.898194	-1.375204	7.824788	-0.015222	0.008299	-0.002792	-0.562256	-0.071777	-0.339111
274.0	5.877718	-1.386562	7.815524	-0.011171	0.008335	-0.002574	-0.5625	-0.069824	-0.334961
275.0	5.89701	-1.376553	7.825443	-0.006655	0.007553	-0.004958	-0.555908	-0.067627	-0.339111
276.0	5.896356	-1.376824	7.825888	-0.006559	0.010629	-0.00339	-0.560303	-0.067627	-0.339111
277.0	5.889801	-1.356044	7.815519	-0.006417	0.006702	-0.003537	-0.562256	-0.076172	-0.336914
278.0	5.882141	-1.370726	7.846502	-0.000201	0.011813	-0.003579	-0.558105	-0.071777	-0.339111
279.0	5.907228	-1.383656	7.807666	-0.005616	0.008109	-0.00315	-0.555664	-0.073975	-0.339111
280.0	5.874985	-1.349898	7.836591	-0.004672	0.00559	-0.002911	-0.560059	-0.071777	-0.341309
281.0	5.893189	-1.377582	7.82814	-0.004254	0.011775	-0.003796	-0.560059	-0.076172	-0.334717
282.0	5.873594	-1.350201	7.837581	-0.005856	0.008959	-0.00457	-0.555908	-0.071777	-0.336914
283.0	5.911689	-1.367537	7.838673	-0.008163	0.007811	-0.004162	-0.553711	-0.071777	-0.339111
284.0	5.891203	-1.378364	7.829497	-0.007602	0.010069	-0.005195	-0.560059	-0.076172	-0.336914
285.0	5.890525	-1.378604	7.829965	-0.005857	0.008958	-0.004568	-0.557861	-0.076172	-0.332764
286.0	5.871119	-1.351321	7.839242	-0.006419	0.006699	-0.003536	-0.560059	-0.071777	-0.336914
287.0	5.902234	-1.38575	7.811071	-0.009576	0.011144	-0.001798	-0.553711	-0.071777	-0.336914
288.0	5.901401	-1.386158	7.811628	-0.004018	0.010922	-0.002373	-0.558105	-0.067627	-0.339111
289.0	5.881664	-1.358829	7.821161	-0.006003	0.012883	-0.004418	-0.558105	-0.071777	-0.341309
290.0	5.893665	-1.363212	7.861824	-0.004819	0.009514	-0.00276	-0.553711	-0.071777	-0.339111
291.0	5.88602	-1.380509	7.833017	-0.007833	0.010032	-0.001172	-0.555908	-0.067627	-0.341309
292.0	5.87928	-1.359747	7.822794	-0.004258	0.011772	-0.00379	-0.560059	-0.073975	-0.332764
293.0	5.904226	-1.370793	7.843728	-0.009101	0.00944	0.001042	-0.555908	-0.071777	-0.336914
294.0	5.870717	-1.375189	7.854272	-0.00483	0.010398	-0.008198	-0.560303	-0.067627	-0.339111
295.0	5.909776	-1.354435	7.873944	-0.010712	0.007509	-0.005174	-0.555908	-0.071777	-0.336914
296.0	5.869519	-1.375969	7.855032	-0.008635	0.008622	-0.001558	-0.557861	-0.073975	-0.336914
297.0	5.914578	-1.378677	7.825749	-0.006099	0.009806	-0.005984	-0.555908	-0.071777	-0.341309
298.0	5.900947	-1.372347	7.845924	-0.003315	0.009253	-0.00355	-0.555664	-0.073975	-0.339111
299.0	5.887493	-1.368277	7.806312	-0.005861	0.008954	-0.004564	-0.560059	-0.073975	-0.334717
300.0	5.899754	-1.374859	7.787132	-0.005062	0.010362	-0.004175	-0.5625	-0.069824	-0.339111
301.0	5.880063	-1.345368	7.85624	-0.005384	0.007252	-0.001725	-0.553711	-0.06958	-0.343506
302.0	5.872618	-1.362441	7.827328	-0.004355	0.008695	-0.005357	-0.558105	-0.069824	-0.334961
303.0	5.897714	-1.373124	7.848218	-0.006101	0.009804	-0.005982	-0.553955	-0.06543	-0.334961
304.0	5.871289	-1.363107	7.828209	-0.014199	0.008837	-0.000985	-0.558105	-0.071777	-0.339111
305.0	5.890603	-1.353582	7.838074	-0.012545	0.004654	-0.00193	-0.553711	-0.06958	-0.341309
306.0	5.896287	-1.377884	7.789224	-0.014761	0.006578	4.6e-05	-0.555908	-0.069824	-0.336914
307.0	5.888715	-1.393623	7.819869	-0.013493	0.00717	-0.002166	-0.560059	-0.073975	-0.343506
308.0	5.868291	-1.405097	7.810487	-0.014202	0.008835	-0.000982	-0.5625	-0.069824	-0.336914
309.0	5.908209	-1.34724	7.848683	-0.013964	0.007983	0.000437	-0.558105	-0.06958	-0.339111
310.0	5.873977	-1.392605	7.780692	-0.018973	0.011346	-0.005458	-0.562256	-0.071777	-0.339111
311.0	5.900111	-1.36605	7.819955	-0.01487	0.005279	-0.012402	-0.560059	-0.076172	-0.345703
312.0	5.905521	-1.387834	7.830969	-0.014683	0.010534	-0.003816	-0.553711	-0.06958	-0.345703
313.0	5.886123	-1.361303	7.840102	-0.016134	0.003795	-0.004751	-0.558105	-0.06958	-0.341309
314.0	5.891774	-1.38341	7.850873	-0.015097	0.00435	-0.002942	-0.555908	-0.071777	-0.341309
315.0	5.891449	-1.38439	7.850944	-0.015336	0.005201	-0.004359	-0.558105	-0.071777	-0.336914
316.0	5.878397	-1.381171	7.810895	-0.017645	0.00405	-0.003956	-0.564697	-0.069824	-0.336914
317.0	5.890904	-1.386624	7.850958	-0.017407	0.003197	-0.002537	-0.560059	-0.073975	-0.339111
318.0	5.9105	-1.379249	7.801043	-0.012941	0.009422	-0.003185	-0.558105	-0.071777	-0.341309
319.0	5.870137	-1.399081	7.841635	-0.017886	0.0049	-0.005372	-0.558105	-0.067627	-0.334961
320.0	5.870783	-1.364502	7.800658	-0.019777	0.009038	-0.000399	-0.555908	-0.06958	-0.339111
321.0	5.901895	-1.397697	7.831949	-0.01812	0.004858	-0.001351	-0.560303	-0.06958	-0.341309
322.0	5.86278	-1.382092	7.831257	-0.019869	0.005965	-0.001973	-0.555908	-0.06958	-0.339111
323.0	5.889317	-1.358247	7.810581	-0.018921	0.003449	-0.00174	-0.5625	-0.06958	-0.341309
324.0	5.882035	-1.374363	7.840892	-0.017174	0.00234	-0.001116	-0.558105	-0.067627	-0.339111
325.0	5.887769	-1.396855	7.851497	-0.018684	0.002595	-0.000322	-0.558105	-0.071777	-0.339111
326.0	5.900551	-1.404866	7.831679	-0.024251	0.002805	0.000252	-0.558105	-0.067627	-0.341309
327.0	5.894497	-1.385662	7.820739	-0.022027	-9e-06	0.00371	-0.558105	-0.071777	-0.339111
328.0	5.900697	-1.410675	7.771309	-0.024104	-0.001119	9.4e-05	-0.5625	-0.069824	-0.339111
329.0	5.894517	-1.389576	7.820029	-0.023539	0.000243	0.004507	-0.560303	-0.067627	-0.336914
330.0	5.90742	-1.397879	7.80006	-0.02227	0.00084	0.002297	-0.553711	-0.071777	-0.341309
331.0	5.874448	-1.403807	7.809831	-0.018924	0.002546	0.003705	-0.555908	-0.067627	-0.336914
332.0	5.894894	-1.357354	7.83815	-0.021706	0.0022	0.006712	-0.558105	-0.071777	-0.341309
333.0	5.881755	-1.353503	7.857521	-0.02736	-0.00156	0.011144	-0.555908	-0.069824	-0.334961
334.0	5.893861	-1.400709	7.818537	-0.030944	-0.003314	0.013759	-0.558105	-0.067627	-0.339111
335.0	5.874145	-1.414557	7.808119	-0.034767	-0.004216	0.014959	-0.556152	-0.06543	-0.339111
336.0	5.888074	-1.386592	7.806536	-0.03572	-0.001704	0.014735	-0.558105	-0.067627	-0.339111
337.0	5.887168	-1.426382	7.846637	-0.037738	-0.010706	0.014808	-0.558105	-0.067383	-0.343506
338.0	5.880709	-1.446792	7.816237	-0.034779	-0.004226	0.01497	-0.555908	-0.06958	-0.341309
339.0	5.893871	-1.456484	7.795765	-0.0328	-0.005288	0.011572	-0.555908	-0.067627	-0.341309
340.0	5.901101	-1.444688	7.76475	-0.02969	-0.00273	0.011566	-0.55835	-0.06543	-0.339111
341.0	5.894058	-1.462598	7.794478	-0.029693	-0.002732	0.011568	-0.553711	-0.067627	-0.336914
342.0	5.894946	-1.427368	7.812895	-0.021247	0.000474	0.009566	-0.558105	-0.069824	-0.334961
343.0	5.880785	-1.461456	7.813451	-0.028571	0.00179	0.00953	-0.555908	-0.069824	-0.332764
344.0	5.901516	-1.415812	7.841646	-0.023655	-0.003748	0.008386	-0.553711	-0.069824	-0.336914
345.0	5.874808	-1.445311	7.801985	-0.027064	0.001534	0.008737	-0.558105	-0.06958	-0.339111
346.0	5.933242	-1.454534	7.811968	-0.025408	-0.002642	0.00777	-0.560303	-0.067627	-0.336914
347.0	5.913508	-1.467351	7.801676	-0.02541	-0.002644	0.007772	-0.560303	-0.067627	-0.334961
348.0	5.893749	-1.480128	7.791402	-0.025649	-0.001788	0.006359	-0.556152	-0.06543	-0.334961
349.0	5.893707	-1.482335	7.791015	-0.023813	0.00108	0.003129	-0.560303	-0.067627	-0.339111
350.0	5.906485	-1.490466	7.771078	-0.021738	0.003091	0.001313	-0.560303	-0.067627	-0.339111
351.0	5.90618	-1.491979	7.771019	-0.015362	0.00429	0.001126	-0.562744	-0.063232	-0.343506
352.0	5.912567	-1.476623	7.80064	-0.013758	0.007102	0.001917	-0.55835	-0.06543	-0.337158
353.0	5.900273	-1.435015	7.779786	-0.007948	0.006954	-0.002687	-0.553955	-0.06543	-0.339111
354.0	5.924346	-1.484135	7.781581	-0.008094	0.010876	-0.002512	-0.558105	-0.067627	-0.336914
355.0	5.904778	-1.457154	7.791207	-0.007146	0.00836	-0.002291	-0.560547	-0.06543	-0.341309
356.0	5.904025	-1.457656	7.791684	-0.009845	0.011984	-0.003128	-0.555908	-0.067627	-0.336914
357.0	5.890166	-1.451947	7.811971	-0.008333	0.011733	-0.003925	-0.558105	-0.067627	-0.336914
358.0	5.915163	-1.463335	7.832743	-0.009462	0.007203	-0.001889	-0.562744	-0.063232	-0.339111
359.0	5.88881	-1.452944	7.812808	-0.006584	0.010623	-0.003308	-0.564697	-0.06958	-0.343506
360.0	5.888029	-1.453264	7.813338	-0.006584	0.010622	-0.003307	-0.560303	-0.067627	-0.339111
361.0	5.912967	-1.464598	7.834165	-0.007623	0.009156	0.000318	-0.555908	-0.069824	-0.336914
362.0	5.905475	-1.481673	7.805053	-0.007149	0.008357	-0.002289	-0.55835	-0.063232	-0.334961
363.0	5.898881	-1.460789	7.794992	-0.006823	0.01148	-0.00472	-0.555908	-0.069824	-0.336914
364.0	5.936802	-1.47809	7.796166	-0.004836	0.009512	-0.002689	-0.5625	-0.06543	-0.337158
365.0	5.883392	-1.492769	7.796816	-0.004272	0.011776	-0.003706	-0.560303	-0.067627	-0.339111
366.0	5.923168	-1.434454	7.835993	-0.004836	0.009512	-0.002689	-0.55835	-0.061035	-0.337158
367.0	5.902917	-1.446759	7.766899	-0.009614	0.011121	-0.001711	-0.5625	-0.067627	-0.337158
368.0	5.894903	-1.46214	7.797748	-0.004511	0.012634	-0.005118	-0.55835	-0.063232	-0.337158
369.0	5.919748	-1.473113	7.818721	-0.005075	0.010369	-0.004101	-0.560303	-0.06543	-0.339111
370.0	5.887399	-1.441151	7.7884	-0.004274	0.011775	-0.003703	-0.555908	-0.067627	-0.332764
371.0	5.898274	-1.48387	7.810079	-0.00834	0.011727	-0.00392	-0.555908	-0.067627	-0.339111
372.0	5.897358	-1.484271	7.810695	-0.00754	0.013132	-0.003522	-0.558105	-0.06958	-0.341309
373.0	5.871475	-1.436027	7.8101	-0.00769	0.017052	-0.003342	-0.555908	-0.06958	-0.341309
374.0	5.91512	-1.474825	7.8219	-0.009468	0.007197	-0.001888	-0.560303	-0.06543	-0.337158
375.0	5.875432	-1.458435	7.821852	-0.009919	0.018956	-0.001349	-0.558105	-0.067627	-0.336914
376.0	5.900314	-1.471465	7.783213	-0.012645	0.012535	-0.005549	-0.55835	-0.06543	-0.337158
377.0	5.892272	-1.487213	7.813973	-0.012409	0.011676	-0.004135	-0.55835	-0.063232	-0.334961
378.0	5.891344	-1.48785	7.814552	-0.009058	0.013379	-0.002721	-0.560547	-0.061035	-0.337158
379.0	5.910203	-1.477982	7.825021	-0.008345	0.011723	-0.003915	-0.560303	-0.06543	-0.337158
380.0	5.876528	-1.482508	7.835428	-0.006831	0.011473	-0.004711	-0.556152	-0.06543	-0.339111
381.0	5.86335	-1.477848	7.795759	-0.005725	0.005961	-0.010108	-0.55835	-0.06543	-0.339111
382.0	5.882727	-1.46734	7.805962	-0.003889	0.007913	-0.007897	-0.551514	-0.067627	-0.334961
383.0	5.901851	-1.456994	7.816327	-0.004044	0.010911	-0.002282	-0.558105	-0.067627	-0.336914
384.0	5.908288	-1.442074	7.786646	-0.006118	0.009817	-0.005905	-0.560303	-0.069824	-0.336914
385.0	5.886656	-1.489172	7.817832	-0.010037	0.004927	-0.000873	-0.55835	-0.063232	-0.339111
386.0	5.913128	-1.464352	7.797752	-0.009948	0.008908	-0.004711	-0.553711	-0.067627	-0.336914
387.0	5.892842	-1.475206	7.788163	-0.00876	0.005536	-0.003081	-0.55835	-0.063232	-0.334961
388.0	5.879342	-1.469538	7.808099	-0.00796	0.006942	-0.002682	-0.5625	-0.067627	-0.341309
389.0	5.904391	-1.481031	7.828831	-0.010191	0.008844	-0.00069	-0.558105	-0.071777	-0.339111
390.0	5.878078	-1.470705	7.808831	-0.007398	0.009206	-0.003694	-0.560547	-0.063232	-0.339111
391.0	5.890445	-1.477185	7.789601	-0.003573	0.009192	0.000547	-0.556152	-0.063232	-0.339111
392.0	5.909661	-1.467085	7.799866	-0.004694	0.005585	-0.002861	-0.55835	-0.06543	-0.337158
393.0	5.887989	-1.51387	7.831095	-0.003569	0.010114	-0.004885	-0.556152	-0.06543	-0.339111
394.0	5.88862	-1.477486	7.790924	-0.000781	0.009553	-0.002457	-0.562744	-0.063232	-0.341309
395.0	5.880649	-1.492322	7.821751	2.3e-05	0.011881	-0.007488	-0.558105	-0.067627	-0.341309
396.0	5.887074	-1.476927	7.792198	-0.001019	0.010412	-0.003868	-0.555908	-0.069824	-0.334961
397.0	5.879956	-1.454215	7.842035	-0.003571	0.010112	-0.004884	-0.558594	-0.058838	-0.341309
398.0	5.892319	-1.46046	7.822868	-0.004849	0.009502	-0.002677	-0.558105	-0.067627	-0.336914
399.0	5.8778	-1.492133	7.823928	-0.002618	0.0076	-0.004668	-0.556152	-0.06543	-0.341309
400.0	5.885383	-1.43936	7.813137	-0.004695	0.005584	-0.002861	-0.558105	-0.067627	-0.339111
401.0	5.890047	-1.4986	7.804812	-0.007247	0.005284	-0.003877	-0.556152	-0.065186	-0.345703
402.0	5.903478	-1.467299	7.804506	-0.00565	0.008095	-0.003076	-0.564697	-0.06958	-0.343506
403.0	5.895717	-1.482574	7.835073	-0.00517	0.0073	-0.005684	-0.560303	-0.067627	-0.339111
404.0	5.895783	-1.484018	7.775643	-0.00517	0.0073	-0.005683	-0.55835	-0.06543	-0.334961
405.0	5.895062	-1.483893	7.776214	-0.000697	0.013533	-0.006287	-0.558105	-0.067627	-0.336914
406.0	5.91984	-1.494334	7.797366	-0.002288	0.011643	-0.012519	-0.553711	-0.067383	-0.341309
407.0	5.867185	-1.470656	7.817028	0.00058	0.014143	-0.008492	-0.556152	-0.06543	-0.339111
408.0	5.89319	-1.444629	7.797605	0.000579	0.014142	-0.008492	-0.553955	-0.065186	-0.345703
409.0	5.89817	-1.465292	7.808895	0.001534	0.01163	-0.008276	-0.564697	-0.06543	-0.334961
410.0	5.865275	-1.431217	7.838448	0.002568	0.012177	-0.006463	-0.560303	-0.067627	-0.336914
411.0	5.86374	-1.468487	7.82002	-0.000544	0.009613	-0.00647	-0.556152	-0.063232	-0.337158
412.0	5.882869	-1.457881	7.830458	-0.002859	0.008454	-0.006077	-0.558105	-0.067627	-0.339111
413.0	5.895384	-1.463832	7.811273	-0.003096	0.009312	-0.007488	-0.5625	-0.069824	-0.339111
414.0	5.907888	-1.469864	7.792085	-0.004376	0.008701	-0.005282	-0.560303	-0.067627	-0.336914
415.0	5.88751	-1.480317	7.782614	-0.006129	0.009806	-0.005898	-0.553955	-0.063232	-0.339111
416.0	5.892782	-1.501424	7.793605	-0.002615	0.008517	-0.010094	-0.556152	-0.063232	-0.339111
417.0	5.917498	-1.511783	7.814833	-0.000857	0.018365	-0.011524	-0.560303	-0.067627	-0.336914
418.0	5.871073	-1.510444	7.785413	0.004885	0.014255	-0.012279	-0.5625	-0.067627	-0.334961
419.0	5.842905	-1.533158	7.866094	0.007447	0.005445	-0.020071	-0.560303	-0.067627	-0.339111
420.0	5.80417	-1.551516	7.846136	0.015598	-0.013591	-0.031813	-0.551758	-0.067383	-0.3479
421.0	5.794238	-1.541884	7.864129	0.015139	-0.052014	-0.048151	-0.5625	-0.06543	-0.343506
422.0	5.819849	-1.527032	7.870586	0.015778	-0.075893	-0.063112	-0.556152	-0.06543	-0.343506
423.0	5.815565	-1.515601	7.884773	0.010818	-0.11968	-0.084227	-0.558105	-0.06958	-0.339111
424.0	6.089141	-1.476018	7.798982	-0.010285	-0.130244	-0.076601	-0.560059	-0.071777	-0.341309
425.0	6.120226	-1.425252	7.760842	-0.009477	-0.103897	-0.078681	-0.555908	-0.067627	-0.332764
426.0	6.084292	-1.665768	7.740558	-0.007933	-0.080103	-0.076545	-0.562256	-0.071777	-0.336914
427.0	6.047866	-1.547708	7.763008	0.00494	-0.070627	-0.079134	-0.557861	-0.072021	-0.332764
428.0	6.113161	-1.51104	7.788724	0.007061	-0.055512	-0.075969	-0.560303	-0.069824	-0.336914
429.0	6.141486	-1.630021	7.749352	6.9e-05	-0.027044	-0.075515	-0.560303	-0.069824	-0.334961
430.0	6.040502	-1.541646	7.806183	0.010584	0.003224	-0.081853	-0.558105	-0.069824	-0.332764
431.0	6.067517	-1.51009	7.786603	0.011165	0.019508	-0.083326	-0.562256	-0.076172	-0.336914
432.0	5.982011	-1.562793	7.719058	0.016097	0.013987	-0.084471	-0.56665	-0.072021	-0.336914
433.0	5.995642	-1.486474	7.73909	0.028861	0.030487	-0.085308	-0.5625	-0.069824	-0.339111
434.0	6.034305	-1.419899	7.780082	0.03521	0.031712	-0.085476	-0.557861	-0.073975	-0.336914
435.0	6.12586	-1.342397	7.641845	0.036657	0.03663	-0.073651	-0.560059	-0.071777	-0.341309
436.0	6.005416	-1.319399	7.803314	0.033613	0.04625	-0.063275	-0.557861	-0.076172	-0.336914
437.0	6.056054	-1.224276	7.784587	0.027856	0.044548	-0.047841	-0.557861	-0.076172	-0.339111
438.0	6.15107	-1.206176	7.758121	0.021555	0.049745	-0.022637	-0.562256	-0.076172	-0.341309
439.0	6.029706	-1.191497	7.80008	-0.000858	0.051607	-0.003902	-0.557861	-0.072021	-0.334961
440.0	5.95964	-1.239669	7.803895	-0.01996	0.056101	0.010821	-0.560059	-0.073975	-0.334717
441.0	5.929713	-1.194661	7.805338	-0.031343	0.050602	0.030644	-0.559814	-0.078369	-0.339111
442.0	5.945583	-1.114036	7.855694	-0.052338	0.049144	0.046992	-0.553711	-0.06958	-0.341309
443.0	5.93476	-1.139041	7.828225	-0.074122	0.045361	0.068365	-0.560303	-0.06958	-0.345703
444.0	5.845652	-1.170485	7.779968	-0.071499	0.046905	0.081831	-0.564453	-0.071777	-0.341309
445.0	5.809149	-1.110871	7.82953	-0.080716	0.039464	0.099689	-0.555908	-0.06958	-0.343506
446.0	5.753311	-1.140261	7.770659	-0.095322	0.03314	0.108701	-0.555908	-0.06958	-0.339111
447.0	5.855329	-1.048335	7.869388	-0.114756	0.013451	0.124555	-0.560303	-0.069824	-0.336914
448.0	5.885319	-1.098816	7.839886	-0.128547	0.010645	0.141015	-0.560547	-0.06543	-0.341309
449.0	5.855732	-1.181704	7.839646	-0.147554	0.004132	0.153868	-0.558105	-0.067627	-0.339111
450.0	5.873262	-1.230974	7.768986	-0.157827	0.00492	0.156937	-0.55835	-0.06543	-0.341309
451.0	5.868343	-1.364644	7.768901	-0.164836	0.004359	0.159832	-0.55835	-0.061035	-0.343506
452.0	5.890657	-1.474288	7.688447	-0.171628	0.001984	0.16957	-0.560547	-0.061035	-0.343506
453.0	5.770655	-1.483581	7.724244	-0.176517	-0.00448	0.174297	-0.556152	-0.063232	-0.339111
454.0	5.790795	-1.422626	7.710557	-0.17078	-0.01358	0.178852	-0.562744	-0.061279	-0.334961
455.0	5.837316	-1.373389	7.716908	-0.183615	-0.020079	0.179139	-0.558594	-0.054688	-0.343506
456.0	5.746858	-1.358955	7.671871	-0.201303	-0.025973	0.185875	-0.558838	-0.05249	-0.341553
457.0	5.793701	-1.34954	7.657633	-0.203087	-0.036881	0.188806	-0.556641	-0.05249	-0.341553
458.0	5.677238	-1.398933	7.492097	-0.210509	-0.038684	0.183326	-0.556641	-0.050293	-0.337158
459.0	5.752141	-1.363932	7.457529	-0.211401	-0.044176	0.182861	-0.558838	-0.04834	-0.334961
460.0	5.981565	-1.361693	7.504449	-0.206501	-0.027878	0.177926	-0.559082	-0.043945	-0.337158
461.0	5.989715	-1.638549	7.489771	-0.200334	-0.004982	0.178092	-0.556885	-0.046143	-0.334961
462.0	5.971304	-1.828996	7.675189	-0.176856	0.013565	0.172141	-0.559082	-0.043945	-0.332764
463.0	5.928531	-2.404963	7.688946	-0.166708	0.037461	0.153141	-0.554932	-0.041748	-0.34375
464.0	5.818097	-2.681582	7.724628	-0.126333	0.051467	0.131121	-0.554932	-0.037354	-0.334961
465.0	5.69385	-2.547663	7.754762	-0.097275	0.04702	0.09775	-0.554688	-0.041748	-0.337158
466.0	5.778537	-2.430603	7.867077	-0.058671	0.03537	0.066042	-0.557129	-0.039551	-0.332764
467.0	5.971358	-2.281277	7.862051	-0.026461	0.038401	0.045429	-0.552734	-0.041748	-0.334961
468.0	5.825096	-2.123443	7.874136	-0.010589	0.036351	0.029216	-0.556885	-0.041748	-0.337158
469.0	5.796759	-1.979552	7.847484	-0.001984	0.03172	0.012774	-0.548096	-0.043945	-0.337158
470.0	5.847825	-1.833813	7.841016	-0.00983	0.012989	0.009695	-0.54834	-0.041748	-0.339355
471.0	5.822268	-1.786943	7.901599	-0.016288	0.011797	0.009891	-0.550293	-0.045898	-0.339355
472.0	5.731986	-1.782576	7.780975	-0.007171	-0.005562	0.012055	-0.55249	-0.043945	-0.334961
473.0	5.65693	-1.845543	7.868115	-0.012403	-0.022048	0.017083	-0.550293	-0.043945	-0.334961
474.0	5.575476	-1.694296	7.886624	-0.017557	-0.051355	0.012837	-0.548096	-0.045898	-0.343506
475.0	5.693666	-1.787441	7.862757	-0.02651	-0.078574	0.011466	-0.548096	-0.048096	-0.343506
476.0	5.781579	-1.882877	7.727562	-0.014965	-0.091779	0.014907	-0.541748	-0.043701	-0.345703
477.0	5.772371	-1.952286	7.701016	0.000233	-0.097168	0.005107	-0.545654	-0.050293	-0.341309
478.0	5.915427	-1.994362	7.646265	0.034693	-0.102012	-0.006976	-0.550049	-0.052246	-0.3479
479.0	5.88483	-1.972424	7.641304	0.055729	-0.094634	-0.012183	-0.54541	-0.058838	-0.350098
480.0	5.914057	-1.787093	7.659161	0.059515	-0.088777	-0.018562	-0.551758	-0.063232	-0.343506
481.0	5.753437	-1.873999	7.603327	0.051916	-0.085534	-0.025334	-0.551514	-0.06958	-0.341309
482.0	5.855802	-1.799345	7.699546	0.052123	-0.106241	-0.035051	-0.5625	-0.067627	-0.339111
483.0	5.853126	-1.751608	7.674771	0.01058	-0.091954	-0.030401	-0.566895	-0.067627	-0.334961
484.0	5.864428	-1.808757	7.658773	-0.012577	-0.093446	-0.026831	-0.571289	-0.063477	-0.332764
485.0	5.832119	-1.96086	7.641401	-0.020078	-0.094126	-0.033841	-0.575684	-0.065674	-0.328369
486.0	5.876551	-2.014756	7.615135	-0.010341	-0.093276	-0.039731	-0.577881	-0.063477	-0.323975
487.0	6.055775	-1.978225	7.649918	0.011126	-0.087657	-0.042224	-0.578369	-0.052734	-0.324219
488.0	6.013237	-1.912747	7.566316	0.024955	-0.074939	-0.033287	-0.575928	-0.059326	-0.319824
489.0	6.00575	-1.942817	7.861047	0.028006	-0.074388	-0.040357	-0.580322	-0.054932	-0.322021
490.0	6.023948	-1.941865	7.718339	0.047774	-0.052675	-0.045132	-0.56958	-0.052734	-0.322021
491.0	5.963347	-2.07453	7.685713	0.078766	-0.044239	-0.060432	-0.575928	-0.054932	-0.322021
492.0	6.034327	-2.187854	7.613909	0.119644	-0.050793	-0.07856	-0.571777	-0.050781	-0.317627
493.0	6.088852	-2.099257	7.624363	0.169633	-0.045914	-0.092389	-0.573975	-0.050781	-0.313232
494.0	6.084099	-1.997855	7.566571	0.211133	-0.032286	-0.111488	-0.573975	-0.052734	-0.324219
495.0	6.000034	-2.065791	7.599434	0.244095	-0.026915	-0.123264	-0.569336	-0.057129	-0.317627
496.0	6.006783	-2.000811	7.682838	0.278481	-0.028813	-0.137655	-0.575928	-0.059326	-0.319824
497.0	6.032112	-1.789155	7.706164	0.307522	-0.028416	-0.1483	-0.577881	-0.061523	-0.319824
498.0	6.01487	-1.669327	7.789089	0.322491	-0.037019	-0.145516	-0.575684	-0.061523	-0.31543
499.0	5.962725	-1.627522	7.841754	0.325074	-0.05677	-0.141217	-0.575684	-0.063721	-0.31543
500.0	5.976228	-1.615543	7.852983	0.308888	-0.079925	-0.144236	-0.575684	-0.061523	-0.319824
501.0	5.984176	-1.485769	7.999723	0.277319	-0.118688	-0.134826	-0.577637	-0.067871	-0.321777
502.0	5.796733	-1.457523	8.166424	0.258647	-0.169973	-0.123964	-0.579834	-0.065674	-0.317627
503.0	5.7102	-1.49523	8.199886	0.226414	-0.261225	-0.138206	-0.577393	-0.072266	-0.311035
504.0	5.676927	-1.054316	8.555468	0.194281	-0.358447	-0.141465	-0.582031	-0.067871	-0.317627
505.0	5.376887	-1.837915	8.80836	0.080937	-0.480982	-0.188552	-0.586182	-0.074463	-0.304443
506.0	5.435688	-2.194239	8.868925	0.111117	-0.64568	-0.238975	-0.585938	-0.07666	-0.302246
507.0	5.482252	-1.457132	8.982349	0.111267	-0.828708	-0.25661	-0.583984	-0.07251	-0.298096
508.0	5.540144	-1.26768	9.067585	0.022073	-1.054475	-0.241957	-0.594727	-0.074707	-0.291504
509.0	5.604255	-1.474246	9.100425	0.000209	-1.29217	-0.213042	-0.590332	-0.077148	-0.282959
510.0	5.599932	-1.225527	9.193054	0.029246	-1.527235	-0.180689	-0.601074	-0.081543	-0.271973
511.0	5.460504	-1.286848	9.275042	-0.02718	-1.810725	-0.157004	-0.605469	-0.079346	-0.267578
512.0	5.203623	-1.377519	9.473076	-0.121194	-2.152001	-0.173832	-0.614258	-0.077637	-0.246094
513.0	5.46549	-1.779957	9.345669	0.077392	-2.488429	-0.220993	-0.616455	-0.075684	-0.230957
514.0	4.938796	-1.562722	9.724027	-0.008133	-2.914337	-0.264541	-0.627441	-0.071777	-0.209229
515.0	5.044044	-1.987147	9.461874	-0.118992	-3.330848	-0.370882	-0.633545	-0.082764	-0.191895
516.0	4.786068	-1.657069	9.551369	-0.258093	-3.766283	-0.524068	-0.642334	-0.07666	-0.167969
517.0	4.705243	-1.836158	9.207096	-0.505035	-4.211259	-0.714753	-0.653076	-0.079346	-0.137695
518.0	4.507541	-1.991942	8.791983	-0.409402	-4.551788	-0.935249	-0.654541	-0.092773	-0.103027
519.0	4.133418	-2.521281	8.445035	-0.306962	-4.891654	-1.264292	-0.663086	-0.095215	-0.079102
520.0	3.909278	-4.206696	7.616762	-0.103675	-5.189075	-1.755841	-0.671387	-0.104248	-0.046631
521.0	4.166636	-4.352632	7.440211	0.201609	-5.568428	-2.343347	-0.670898	-0.119873	-0.003174
522.0	4.597697	-4.349438	7.141454	-0.388898	-6.085736	-2.91423	-0.676758	-0.133301	0.031494
523.0	6.94245	-7.174625	5.17139	0.427997	-6.828691	-3.599118	-0.677979	-0.157715	0.077148
524.0	11.716358	-1.973623	6.726491	0.659324	-7.443812	-3.729321	-0.67041	-0.177734	0.127197
525.0	19.433654	-3.9479	5.365858	0.044666	-7.568438	-3.664625	-0.658691	-0.199707	0.172852
526.0	25.309339	-1.097787	6.066436	1.66759	-7.259368	-3.809285	-0.640625	-0.210938	0.214111
527.0	24.86455	1.960555	5.015662	0.201698	-6.651191	-3.13127	-0.622803	-0.217773	0.250977
528.0	21.796807	-0.737315	8.029873	0.319237	-6.290218	-2.934203	-0.60083	-0.226807	0.285645
529.0	21.655081	-3.273102	11.110297	-0.313921	-6.025332	-2.446274	-0.578613	-0.233398	0.30542
530.0	20.865619	-4.061488	8.072925	-0.166904	-5.459688	-2.541086	-0.556641	-0.23584	0.327148
531.0	20.767707	-7.018133	10.376091	-0.682146	-4.939853	-2.308786	-0.526123	-0.240234	0.335693
532.0	17.560105	-10.942102	10.76195	0.773447	-3.623527	-2.397969	-0.502441	-0.231445	0.340088
533.0	9.527913	-12.180675	17.572904	0.793838	-2.026096	-2.079793	-0.483154	-0.224854	0.337891
534.0	22.576434	-12.114798	18.851976	1.735687	-0.415978	-0.699363	-0.473145	-0.203125	0.327148
535.0	12.961452	-13.091415	16.74193	1.668227	2.355326	0.445109	-0.456787	-0.174805	0.302979
536.0	3.510292	-9.497885	12.5625	2.461307	2.919689	0.889682	-0.440918	-0.137939	0.279053
537.0	-1.094569	-4.920166	11.369978	2.439359	3.380092	1.192186	-0.422607	-0.103027	0.257324
538.0	-3.637512	-3.096946	10.611828	1.757691	3.118499	1.344895	-0.4021	-0.076904	0.235596
539.0	-1.920635	-2.432884	11.036717	0.807884	2.956768	1.306233	-0.364014	-0.048828	0.226807
540.0	0.812517	-3.807635	11.311509	0.184662	3.128632	1.134739	-0.332275	-0.022705	0.224609
541.0	2.890471	-4.705572	11.739142	0.367667	3.513485	0.810499	-0.29834	-0.000977	0.211426
542.0	4.878129	-3.353822	12.003455	-0.028693	4.487559	0.795495	-0.257813	0.020508	0.222168
543.0	4.207337	-3.475639	11.330791	-0.316554	5.146915	0.811694	-0.218994	0.03125	0.243896
544.0	4.935812	-2.615306	9.788972	-0.191232	5.612009	0.806642	-0.199463	0.032959	0.276367
545.0	4.477901	-2.418929	8.92336	-0.658189	5.92212	0.940559	-0.188232	0.02832	0.31543
546.0	5.220435	-1.991099	8.751961	-0.747005	6.007152	1.050733	-0.194336	0.019043	0.348145
547.0	5.932211	-2.894779	7.42289	-1.244046	6.129212	1.169538	-0.219727	0.003418	0.391357
548.0	6.298903	-2.817731	7.624855	-1.197515	6.111099	1.35289	-0.26001	-0.025146	0.413086
549.0	7.192249	-2.093902	8.012676	-1.169986	6.09343	1.51968	-0.311279	-0.046875	0.419678
550.0	8.190388	-0.825559	9.443048	-1.311718	5.818942	1.715788	-0.379883	-0.074951	0.41748
551.0	10.800826	0.217253	9.401266	-1.62443	6.030448	1.786663	-0.434082	-0.085693	0.397949
552.0	11.925477	0.738439	10.026351	-1.775732	5.929427	1.9316	-0.494385	-0.100342	0.352539
553.0	13.119476	0.643446	9.757776	-1.693312	5.966608	2.00842	-0.546875	-0.102051	0.296143
554.0	13.443753	1.531994	10.047383	-1.753618	6.03583	1.954458	-0.584229	-0.092529	0.22876
555.0	13.486735	0.401943	10.002785	-1.78996	5.835072	1.822825	-0.606689	-0.081055	0.155029
556.0	13.888654	0.274232	10.428037	-2.177472	5.576234	1.713187	-0.614014	-0.064941	0.085449
557.0	14.901031	-0.17945	11.32044	-1.79215	5.332947	1.669132	-0.618896	-0.05127	0.020508
558.0	16.168175	-0.417857	12.263954	-1.736461	5.128217	1.68637	-0.595703	-0.039307	-0.046875
559.0	17.963441	1.046841	13.805706	-1.593582	5.031285	1.741534	-0.574463	-0.030029	-0.101074
560.0	20.435466	-2.626547	11.675818	-1.615386	4.864104	2.007515	-0.552734	-0.029053	-0.157227
561.0	21.389767	-0.562053	12.693166	-1.478754	4.815184	2.260163	-0.529053	-0.026367	-0.202881
562.0	23.382257	-2.888973	10.700168	-1.300287	4.841079	2.503811	-0.505127	-0.023438	-0.241699
563.0	23.720125	-1.610801	10.586306	-1.324383	4.864163	2.73139	-0.488037	-0.016602	-0.274414
564.0	25.14644	-2.597872	8.129103	-1.247352	4.830611	2.823759	-0.467041	-0.00293	-0.317627
565.0	25.543271	-0.572441	5.145782	-0.476009	5.161763	3.081387	-0.443359	0.001953	-0.350098
566.0	23.846724	4.405583	3.272	0.52786	4.978757	3.41918	-0.41333	0.010986	-0.378418
567.0	24.908402	5.379748	-0.784887	-0.049353	4.739554	3.637623	-0.389893	0.024414	-0.408691
568.0	25.792333	3.238183	-6.492615	-1.14595	3.994671	3.327303	-0.368652	0.037842	-0.432617
569.0	27.839596	5.722977	-12.832686	0.926462	3.486409	2.964918	-0.344971	0.040039	-0.445557
570.0	25.519823	15.526361	-14.849707	1.074492	2.62654	2.530685	-0.336426	0.049072	-0.458496
571.0	18.568876	13.508527	-14.5252	-2.02939	1.138427	1.878249	-0.330811	0.068359	-0.463135
572.0	15.867186	4.294238	-13.357022	-4.289173	-0.807711	0.786722	-0.340088	0.087646	-0.456543
573.0	10.77938	-8.004202	-9.477635	-0.263744	-0.787096	-0.774833	-0.337402	0.074707	-0.454346
574.0	6.21713	-9.5037	-13.640475	3.331324	-3.512369	-2.587832	-0.362305	0.042236	-0.447754
575.0	-8.987298	5.824958	5.445466	5.0653	-2.26148	-3.79503	-0.378418	0.005615	-0.438965
576.0	1.778479	12.296604	23.420167	2.160249	-6.536776	-1.686686	-0.406006	-0.012207	-0.408447
577.0	15.15791	2.591216	9.045687	2.036567	-4.860331	-1.067262	-0.429443	-0.023193	-0.397705
578.0	18.862379	12.460996	9.868158	2.749627	-4.829471	-0.20173	-0.455078	-0.034424	-0.365234
579.0	20.316749	8.389208	13.804418	1.097411	-4.496698	-0.182174	-0.467529	-0.047607	-0.358643
580.0	16.635142	13.891667	18.826999	1.297282	-3.505292	-0.544811	-0.48291	-0.045898	-0.332764
581.0	15.044118	7.696795	13.764214	-0.713902	-3.892704	-0.911332	-0.49585	-0.046143	-0.321777
582.0	14.896286	-2.57341	11.486508	-1.554009	-3.384681	-0.677698	-0.509033	-0.041992	-0.30249
583.0	9.781374	-4.849271	8.689878	-2.345365	-2.99219	-0.043283	-0.513672	-0.035889	-0.282959
584.0	9.794747	-5.20853	9.001921	-2.396918	-3.183568	0.042203	-0.529053	-0.027588	-0.27002
585.0	21.539839	-12.931316	9.285033	-2.106456	-2.832325	-0.194105	-0.535645	-0.025391	-0.26123
586.0	11.728467	-11.787623	3.824982	-1.048335	-1.202023	0.079921	-0.541992	-0.030029	-0.250488
587.0	10.301573	-7.745206	8.329324	0.288301	-0.914382	-0.052655	-0.544189	-0.027832	-0.243896
588.0	6.977093	1.052326	9.592454	0.952218	-0.581095	-0.497592	-0.541992	-0.030029	-0.237549
589.0	8.015108	-1.077542	9.196184	0.593434	-0.506642	-0.463867	-0.54834	-0.036621	-0.233154
590.0	6.937623	-1.669653	8.563221	0.490118	-0.435598	-0.423141	-0.543701	-0.043213	-0.233154
591.0	6.696113	-1.345641	8.471754	0.369994	-0.376788	-0.303744	-0.545898	-0.043213	-0.226563
592.0	6.453818	-1.777408	8.174479	0.020728	-0.272925	-0.251874	-0.550049	-0.043213	-0.22876
593.0	5.642784	-2.04749	8.163224	0.071027	-0.196272	-0.198692	-0.545654	-0.049561	-0.226563
594.0	5.451818	-2.804117	7.479927	-0.298763	-0.281155	-0.235488	-0.545654	-0.04541	-0.226563
595.0	5.506012	-2.846675	7.745439	0.162572	-0.202791	-0.27922	-0.549561	-0.056152	-0.226563
596.0	5.574841	-3.510323	7.281601	0.689825	-0.157677	-0.379928	-0.549561	-0.05835	-0.219971
597.0	5.70462	-0.792361	9.048504	0.65088	-0.189528	-0.468081	-0.549561	-0.060547	-0.215576
598.0	5.985552	-2.404903	7.597906	0.37621	-0.183308	-0.398923	-0.553955	-0.05835	-0.219971
599.0	6.163703	-2.194429	7.749407	0.443377	-0.14182	-0.400217	-0.549072	-0.069092	-0.217773
600.0	6.215242	-1.910955	7.800391	0.464101	-0.078928	-0.38877	-0.544678	-0.073486	-0.219971
601.0	6.201425	-1.750149	7.900405	0.461764	-0.014995	-0.375619	-0.551025	-0.075684	-0.208984
602.0	6.202434	-1.730855	7.890161	0.431123	0.004459	-0.335345	-0.549072	-0.071289	-0.215576
603.0	6.130736	-1.691413	7.891296	0.506798	0.048368	-0.283093	-0.550781	-0.084229	-0.211182
604.0	6.026542	-1.447682	8.028169	0.402162	0.031942	-0.260682	-0.552979	-0.084229	-0.211182
605.0	6.042409	-1.207063	8.138929	0.226072	0.007925	-0.247769	-0.550781	-0.080078	-0.215576
606.0	6.118634	-1.517485	7.966158	0.081055	-0.000517	-0.189265	-0.552979	-0.082275	-0.208984
607.0	6.035569	-1.803903	7.800834	0.071557	0.000101	-0.158978	-0.548584	-0.084229	-0.211182
608.0	5.911098	-1.903494	7.682628	0.115302	0.019984	-0.160007	-0.550781	-0.080078	-0.204834
609.0	5.947975	-1.554231	7.810715	0.187223	0.022294	-0.14785	-0.552979	-0.084473	-0.206787
610.0	5.825206	-1.315604	7.887294	0.175667	0.004952	-0.134291	-0.544189	-0.082275	-0.200439
611.0	5.815299	-1.286903	7.908267	0.1522	-0.022205	-0.113162	-0.53125	-0.080078	-0.206787
612.0	5.827376	-1.308166	7.990799	0.096804	-0.051644	-0.094308	-0.52417	-0.092773	-0.219727
613.0	5.796848	-1.282824	7.92641	0.018961	-0.084148	-0.077958	-0.523682	-0.109863	-0.221924
614.0	5.795389	-1.353864	7.888046	0.024302	-0.094307	-0.071495	-0.542969	-0.116455	-0.221924
615.0	5.832459	-1.43408	7.970009	0.07201	-0.111936	-0.054257	-0.547363	-0.112305	-0.213135
616.0	5.756441	-1.172744	8.042112	0.021165	-0.144668	-0.044804	-0.554199	-0.10376	-0.213379
617.0	5.751105	-1.374427	8.080308	-0.020539	-0.179895	-0.024366	-0.552002	-0.10376	-0.20459
618.0	5.775185	-1.423931	8.031845	-0.068817	-0.228286	-0.018017	-0.554443	-0.097412	-0.20459
619.0	5.685174	-1.320628	8.298522	-0.070018	-0.283527	-0.01445	-0.554443	-0.099609	-0.202393
620.0	5.629707	-1.035078	8.376396	-0.150809	-0.337702	-0.045296	-0.552246	-0.097412	-0.202393
621.0	5.530631	-0.717314	8.738057	-0.205473	-0.461402	-0.099134	-0.554443	-0.101807	-0.198242
622.0	4.962023	-1.719958	9.14757	-0.371865	-0.66871	-0.075542	-0.550293	-0.095215	-0.196045
623.0	5.572111	-1.738839	9.083938	-0.381057	-0.850979	0.040648	-0.556641	-0.097412	-0.198242
624.0	5.386102	-2.004471	9.021162	-0.43283	-1.044395	0.053978	-0.561279	-0.091309	-0.180908
625.0	5.254508	-2.000748	9.16208	-0.175794	-1.299752	0.01204	-0.565918	-0.084717	-0.180908
626.0	5.182144	-1.716281	9.434602	-0.362705	-1.581543	-0.049961	-0.565674	-0.087158	-0.170166
627.0	5.216985	-2.182705	9.03424	-0.344887	-1.896478	-0.085968	-0.569824	-0.091553	-0.154785
628.0	5.248558	-1.880499	9.239075	-0.15516	-2.19657	-0.103157	-0.574463	-0.085205	-0.152832
629.0	5.296511	-1.821927	8.945838	-0.268918	-2.517833	-0.13761	-0.578613	-0.089844	-0.131104
630.0	5.327795	-1.351315	9.226089	-0.310988	-2.847086	-0.158517	-0.578613	-0.090088	-0.115967
631.0	5.022578	-1.983547	9.125993	-0.477756	-3.209283	-0.204072	-0.591553	-0.088379	-0.087646
632.0	4.771468	-3.464475	8.679328	-0.275444	-3.628685	-0.321503	-0.589355	-0.088379	-0.074707
633.0	4.860863	-0.673153	10.944551	-0.269173	-4.04303	-0.490545	-0.59375	-0.088867	-0.040039
634.0	3.220215	-4.411388	9.318667	-1.227172	-4.541021	-0.76127	-0.597412	-0.102295	-0.013916
635.0	2.893947	-5.614981	9.162714	0.067165	-5.087812	-1.176018	-0.594971	-0.106934	0.018555
636.0	2.666756	-4.411054	9.97213	-0.893313	-5.53841	-1.766226	-0.598877	-0.120361	0.044678
637.0	2.338713	-6.939798	8.624435	0.142601	-6.154742	-2.618163	-0.591553	-0.137939	0.085938
638.0	1.758879	-6.434443	8.630368	-0.055689	-6.797323	-3.356225	-0.583984	-0.162354	0.129395
639.0	2.737009	-6.299574	8.411619	0.276972	-8.026492	-4.078724	-0.565674	-0.184326	0.175049
640.0	9.401385	-4.279018	7.767214	0.689041	-9.162812	-4.404181	-0.549316	-0.210938	0.240234
641.0	21.214233	-1.1115	8.358839	0.935865	-9.815981	-4.099697	-0.52002	-0.22876	0.288086
642.0	32.828447	-1.164814	5.466923	0.047136	-10.067658	-3.206317	-0.484619	-0.242188	0.335938
643.0	31.509304	1.649516	5.618172	0.07142	-8.81528	-2.913891	-0.448975	-0.259766	0.370605
644.0	29.829735	-0.175739	12.132654	-1.236971	-8.261897	-2.489867	-0.419922	-0.281494	0.398926
645.0	25.245932	-7.904582	12.743731	-1.264794	-7.450889	-2.134541	-0.386475	-0.298828	0.416504
646.0	27.479687	-9.337681	15.326205	-0.049522	-6.278755	-2.856335	-0.359863	-0.309814	0.438232
647.0	22.320922	-11.268391	18.796474	0.044353	-4.605535	-2.760455	-0.328857	-0.32251	0.442871
648.0	7.163171	-12.355645	18.058158	0.410152	-2.881661	-2.630774	-0.304688	-0.326904	0.447266
649.0	22.607945	-10.415581	21.114497	1.225437	-2.00947	-1.752595	-0.293945	-0.32666	0.445068
650.0	22.233509	-12.350685	22.408951	0.223886	2.171459	-0.202909	-0.300537	-0.328613	0.418945
651.0	5.990919	-14.989515	15.914057	2.011247	3.162731	-0.082826	-0.298096	-0.330566	0.408203
652.0	4.793013	-4.845428	15.46346	2.437271	4.286739	0.152423	-0.304932	-0.323975	0.393066
653.0	-2.966013	-3.44959	12.150576	1.405224	4.522536	0.476459	-0.305176	-0.32373	0.379883
654.0	-3.588105	-3.237627	10.794532	1.092213	4.431513	0.585532	-0.313965	-0.319336	0.360352
655.0	-2.481403	-3.008934	11.078567	0.145527	4.527471	0.807005	-0.315674	-0.329834	0.345215
656.0	0.371267	-4.817114	11.537201	-0.460351	4.459019	0.587649	-0.317871	-0.333984	0.330078
657.0	3.609674	-3.933842	12.193414	-0.765496	4.822062	0.564359	-0.31958	-0.348633	0.312744
658.0	4.848215	-4.740372	11.444267	-0.774078	5.624996	0.775591	-0.33667	-0.355225	0.302002
659.0	4.96523	-2.932689	10.195481	-0.790055	6.299455	1.085699	-0.347412	-0.359131	0.286865
660.0	5.136823	-1.674341	9.596162	-0.807836	6.681156	1.297787	-0.36084	-0.354492	0.258545
661.0	5.608984	-0.29354	8.02733	-0.935162	6.812172	1.429015	-0.380127	-0.358887	0.243408
662.0	5.972963	0.834748	8.059207	-1.043525	6.901984	1.496384	-0.400391	-0.345703	0.22168
663.0	7.145563	2.046937	8.077595	-1.158607	6.895408	1.552492	-0.423096	-0.321777	0.193359
664.0	8.113006	2.289353	7.693419	-1.906993	6.882363	1.634072	-0.439453	-0.297607	0.160645
665.0	9.172806	1.63779	8.165943	-1.835367	6.807801	1.568611	-0.436279	-0.264893	0.130127
666.0	10.980643	2.398813	9.424904	-1.995736	6.726408	1.464431	-0.429443	-0.215332	0.119141
667.0	13.134629	3.140393	9.494776	-2.092584	6.665633	1.275055	-0.414063	-0.163818	0.129639
668.0	14.479974	3.673024	9.86959	-2.019327	6.260894	1.257362	-0.413574	-0.121094	0.162109
669.0	14.298316	4.429939	10.228095	-2.332626	6.666483	0.934019	-0.430176	-0.083008	0.19873
670.0	14.928317	2.334085	9.56737	-2.741807	6.128857	0.983116	-0.479004	-0.05542	0.218018
671.0	15.586861	2.286772	11.172343	-2.60244	5.90342	1.114938	-0.530518	-0.019287	0.230713
672.0	17.629087	0.515387	12.264132	-2.609711	5.57669	1.341546	-0.597168	0.015137	0.219482
673.0	20.565871	-1.593944	12.814975	-2.513213	5.442032	1.593021	-0.661621	0.047363	0.191162
674.0	24.041246	-1.940524	14.015097	-1.728867	5.662006	1.912381	-0.721924	0.080322	0.130127
675.0	26.633177	-4.407711	12.877269	-2.130404	5.76504	2.378127	-0.770996	0.111328	0.049561
676.0	28.688538	-3.284033	13.159425	-1.059529	6.205697	2.826098	-0.79834	0.13623	-0.05249
677.0	27.090948	-2.601678	11.542429	-1.763812	6.105064	3.119172	-0.79541	0.167969	-0.163086
678.0	29.94464	-3.35363	7.377423	-1.681068	6.132014	3.697725	-0.764404	0.201904	-0.280273
679.0	28.806522	-2.958322	1.991889	0.018825	6.096427	4.238792	-0.711182	0.227051	-0.375732
680.0	28.573776	7.03695	0.216448	1.110533	5.486536	4.549811	-0.64917	0.252197	-0.460205
681.0	30.905119	5.035471	-7.463264	0.319428	5.091493	4.902205	-0.578125	0.268066	-0.507813
682.0	32.904237	4.432402	-16.390404	0.998304	3.897365	4.57279	-0.522217	0.283936	-0.551025
683.0	36.198209	16.483647	-22.041225	2.7006	2.709036	3.972071	-0.47876	0.286865	-0.583496
684.0	29.314549	23.080321	-20.655869	-2.190722	1.622394	3.399497	-0.441162	0.329834	-0.577148
685.0	18.321455	2.352402	-20.526563	-4.932603	-1.316073	2.498872	-0.429688	0.368408	-0.557861
686.0	9.790759	-7.036375	-10.718357	-0.429839	-0.461899	-1.360382	-0.442627	0.368408	-0.568848
687.0	0.638678	-1.849942	-15.265101	2.598794	-4.949669	-3.762402	-0.474609	0.34668	-0.55127
688.0	-9.785636	8.463978	23.007642	2.922834	-3.865045	-3.889625	-0.502197	0.329102	-0.546875
689.0	11.039718	5.53845	17.269329	2.340306	-6.012802	-2.297161	-0.523682	0.32666	-0.533936
690.0	12.095295	9.213875	6.104031	3.183314	-5.516714	-1.294162	-0.547363	0.320068	-0.514404
691.0	31.1795	17.009301	15.262424	1.265972	-6.243726	-0.739928	-0.56958	0.330322	-0.495117
692.0	22.203733	10.336859	19.218883	-0.484502	-4.292894	-0.836518	-0.581055	0.345215	-0.484375
693.0	16.694244	3.962919	14.636752	-1.018888	-4.110795	-1.285132	-0.592285	0.35791	-0.467041
694.0	17.907724	-5.393522	12.265954	-1.856412	-3.675628	-0.968547	-0.60376	0.374756	-0.445557
695.0	10.817358	-6.455612	7.253866	-2.030135	-3.26711	-0.529232	-0.612793	0.385254	-0.426025
696.0	10.629643	-3.774173	9.295696	-1.72821	-3.484025	-0.218118	-0.635498	0.40625	-0.393799
697.0	24.505786	-12.655164	10.968075	-2.286938	-2.959349	0.106912	-0.642578	0.423096	-0.380859
698.0	12.464294	-14.437279	3.446337	-1.3347	-1.217001	-0.096614	-0.638184	0.425049	-0.363525
699.0	10.313948	-4.112741	8.431521	0.153425	-0.978282	0.134696	-0.633789	0.425049	-0.361328
700.0	6.47353	-0.211626	9.404746	0.819961	-0.588217	-0.315655	-0.638184	0.422852	-0.359131
701.0	5.578396	-4.981254	7.594783	0.694558	-0.727774	-0.372833	-0.640381	0.425049	-0.356934
702.0	6.417131	-2.390397	8.984502	0.718432	-0.78687	-0.395184	-0.637939	0.420654	-0.356934
703.0	6.822575	-1.125732	9.05876	0.487199	-0.712365	-0.419983	-0.640137	0.418457	-0.350342
704.0	7.389916	-0.796807	8.618365	0.169414	-0.592469	-0.296166	-0.64209	0.414063	-0.343994
705.0	6.201739	-2.318816	8.327366	-0.083792	-0.455526	-0.211401	-0.648682	0.41626	-0.343994
706.0	6.504023	-1.698271	8.336043	-0.057802	-0.5223	-0.189582	-0.651123	0.422607	-0.3396
707.0	6.446624	-2.201751	7.982762	-0.125019	-0.496661	-0.149388	-0.648682	0.418213	-0.333008
708.0	6.303184	-2.412415	7.890628	-0.110415	-0.424294	-0.146427	-0.651123	0.42041	-0.335205
709.0	5.97724	-2.610015	7.69553	-0.02993	-0.371738	-0.148527	-0.650879	0.413818	-0.331055
710.0	6.365463	-2.370959	7.593685	0.199802	-0.350874	-0.138709	-0.651123	0.420166	-0.324463
711.0	6.176745	-1.621501	8.199984	0.524914	-0.246119	-0.17969	-0.650879	0.415771	-0.322266
712.0	6.2306	-2.203576	7.722481	0.021181	-0.321371	-0.152093	-0.646484	0.413818	-0.324463
713.0	6.161691	-2.214924	7.684706	0.017056	-0.317663	-0.127168	-0.655029	0.409424	-0.322266
714.0	6.182914	-2.347097	7.657813	0.002406	-0.274824	-0.099367	-0.652832	0.411621	-0.320068
715.0	6.132814	-2.562968	7.534893	-0.010394	-0.255236	-0.086159	-0.659668	0.415771	-0.317871
716.0	6.004564	-2.587186	7.562778	-0.01693	-0.247381	-0.086743	-0.655273	0.415771	-0.317871
717.0	6.019669	-2.458187	7.526525	-0.021431	-0.253125	-0.094157	-0.655029	0.413574	-0.317871
718.0	6.033543	-2.468072	7.540599	-0.016127	-0.268273	-0.10519	-0.661621	0.415771	-0.311523
719.0	5.973099	-2.69712	7.389883	0.026391	-0.247172	-0.127878	-0.661621	0.413574	-0.304932
720.0	5.966955	-2.647061	7.347778	0.099737	-0.238965	-0.167733	-0.663818	0.415527	-0.304932
721.0	6.010338	-2.540454	7.344616	0.099578	-0.235841	-0.194495	-0.655029	0.41333	-0.29834
722.0	6.131166	-2.440554	7.297501	0.076393	-0.256195	-0.216389	-0.655273	0.417725	-0.300537
723.0	6.096565	-2.732035	7.22008	0.070489	-0.236396	-0.220512	-0.64624	0.406982	-0.304932
724.0	6.008839	-2.970928	7.096553	0.121982	-0.233661	-0.241722	-0.643555	0.398682	-0.317871
725.0	6.176969	-2.706323	7.1373	0.209075	-0.236186	-0.255169	-0.658203	0.37915	-0.313477
726.0	6.082618	-2.542539	7.162932	0.244779	-0.214963	-0.268921	-0.666748	0.376953	-0.306885
727.0	6.206722	-2.399956	7.288627	0.274411	-0.227559	-0.282822	-0.671387	0.385254	-0.29834
728.0	6.202469	-2.279443	7.410185	0.267653	-0.233605	-0.284702	-0.671143	0.381104	-0.29834
729.0	6.490262	-1.687912	7.54319	0.26428	-0.239236	-0.279635	-0.67334	0.381104	-0.29834
730.0	6.297301	-1.734275	7.795941	0.163578	-0.219033	-0.252858	-0.666992	0.385498	-0.300537
731.0	6.239702	-1.575964	7.924424	0.048745	-0.229315	-0.253185	-0.669189	0.383057	-0.291748
732.0	6.143833	-1.628615	7.927874	-0.042381	-0.282049	-0.277569	-0.673584	0.383057	-0.287598
733.0	5.63493	-2.583623	8.179424	-0.052771	-0.351363	-0.298632	-0.671387	0.385254	-0.287598
734.0	5.986941	-2.034747	8.329313	0.07077	-0.49133	-0.285083	-0.675293	0.374512	-0.285156
735.0	6.021461	-2.078503	8.630185	0.05995	-0.627441	-0.264072	-0.67334	0.380859	-0.281006
736.0	5.925576	-2.125796	8.643044	-0.010883	-0.785972	-0.23051	-0.67749	0.374268	-0.27002
737.0	5.861225	-2.22061	8.725809	-0.038475	-0.998362	-0.22495	-0.679443	0.369873	-0.261475
738.0	5.788277	-2.311928	8.811332	0.090287	-1.25229	-0.255479	-0.677246	0.367432	-0.248291
739.0	5.338139	-2.086115	8.890599	-0.110622	-1.536742	-0.296273	-0.681396	0.36499	-0.235352
740.0	5.381019	-2.427435	8.847018	0.278006	-1.870911	-0.358406	-0.687744	0.362549	-0.211426
741.0	5.316463	-0.597964	9.734322	-0.086569	-2.294114	-0.357566	-0.6875	0.360107	-0.194092
742.0	5.179928	-1.870223	9.401939	-0.27533	-2.748655	-0.377265	-0.693848	0.353516	-0.172607
743.0	4.656419	-4.272318	8.628979	0.349703	-3.256204	-0.465051	-0.693359	0.342285	-0.148682
744.0	4.787809	-0.06749	11.35252	-0.043722	-3.721292	-0.625653	-0.695068	0.333252	-0.111816
745.0	3.974181	-3.333337	10.171908	-0.53456	-4.325613	-0.795631	-0.694824	0.328369	-0.074951
746.0	3.120651	-4.086241	10.600071	-0.185253	-4.970556	-1.075615	-0.698486	0.314941	-0.0271
747.0	2.471867	-3.994264	11.484364	-0.567194	-5.525809	-1.547644	-0.697754	0.297119	0.016357
748.0	1.648031	-8.150642	9.094389	-0.380516	-6.198797	-2.370371	-0.692627	0.279053	0.072754
749.0	1.787145	-5.557704	9.886705	0.134934	-6.950545	-3.272528	-0.687012	0.252441	0.129395
750.0	2.56561	-7.110858	9.102096	-0.210443	-7.958107	-3.872805	-0.666504	0.230225	0.192383
751.0	8.071108	-5.300289	9.034548	0.608825	-9.212247	-4.347047	-0.634521	0.192627	0.270508
752.0	20.953524	-2.860241	8.64314	0.483353	-9.84853	-4.114974	-0.602783	0.168213	0.337891
753.0	33.007599	-0.262834	6.689375	0.19602	-9.764549	-3.591724	-0.553467	0.133301	0.398926
754.0	30.838951	2.729076	6.450983	-0.321239	-9.3389	-3.12649	-0.499512	0.0896	0.459961
755.0	31.621207	-3.465183	11.472151	-1.576048	-8.513207	-2.836827	-0.451904	0.043945	0.49707
756.0	24.312845	-8.246272	13.153442	-1.474152	-6.905727	-2.539796	-0.4104	-0.012207	0.525635
757.0	25.636843	-13.062131	15.665594	0.295885	-6.841356	-2.997595	-0.356445	-0.057373	0.543213
758.0	21.021444	-9.831911	20.429158	-0.09731	-4.790829	-2.708541	-0.310791	-0.108887	0.552246
759.0	4.676948	-18.372153	17.108433	-0.312166	-3.092855	-2.715877	-0.272217	-0.149658	0.55249
760.0	26.410603	-11.607543	22.952242	1.479339	-1.699324	-1.34604	-0.255859	-0.181641	0.543945
761.0	17.827384	-18.258801	20.912727	0.994498	2.572267	0.049105	-0.24585	-0.21582	0.533447
762.0	6.81162	-12.547529	16.71799	2.49128	3.551795	0.386775	-0.249512	-0.235107	0.516113
763.0	5.296528	-7.559456	13.713127	2.761827	4.719418	0.652577	-0.257324	-0.254395	0.505371
764.0	-2.293993	-2.353414	10.975541	2.645467	5.478348	0.951828	-0.27417	-0.273682	0.492432
765.0	-5.231049	-0.401213	10.324768	1.453417	5.058367	0.925436	-0.281738	-0.299316	0.481689
766.0	-2.376257	-1.993793	9.667078	0.063009	4.646442	0.730197	-0.291992	-0.318604	0.46875
767.0	0.263603	-3.716399	9.810165	-0.238958	4.791349	0.49387	-0.310547	-0.343994	0.449463
768.0	3.671764	-3.232681	10.528354	-0.599854	5.257016	0.496371	-0.327148	-0.367676	0.438721
769.0	4.65171	-3.731066	9.492551	-0.984465	5.915176	0.716699	-0.346191	-0.386719	0.414795
770.0	5.343385	-3.295829	8.565382	-0.535637	6.442719	0.90719	-0.380615	-0.395264	0.391113
771.0	6.104023	-1.590229	8.158559	-0.359722	6.809342	1.101665	-0.40625	-0.407715	0.360596
772.0	5.982508	-0.251521	6.777066	-0.805697	6.947186	1.356686	-0.437012	-0.405518	0.334717
773.0	6.47547	0.041866	6.461577	-1.018725	6.929022	1.504563	-0.469971	-0.396484	0.302002
774.0	7.4058	-0.514574	6.610807	-0.97604	6.737179	1.570324	-0.505371	-0.385498	0.265137
775.0	9.420582	0.774144	7.269409	-1.362326	6.735965	1.621696	-0.54541	-0.365479	0.221436
776.0	11.654258	1.614568	8.300251	-1.114586	6.707327	1.620365	-0.574463	-0.3479	0.18457
777.0	12.749259	0.636539	8.142677	-1.968492	6.706178	1.608463	-0.601563	-0.328125	0.132324
778.0	13.430654	-0.695897	7.441863	-0.790752	6.612792	1.385865	-0.606934	-0.301514	0.084473
779.0	15.604728	5.35442	10.590647	-1.258209	6.145992	1.424981	-0.625244	-0.279541	0.034424
780.0	14.258121	1.711941	8.636498	-2.592336	6.479766	1.274671	-0.62207	-0.255127	-0.010986
781.0	15.464695	-0.30053	8.886784	-2.112017	5.985412	1.277984	-0.618896	-0.228516	-0.063232
782.0	15.526138	-0.248204	10.622073	-2.17769	5.8159	1.324229	-0.615479	-0.202393	-0.098145
783.0	18.264851	-0.312824	12.076989	-2.09111	5.416379	1.44588	-0.618652	-0.180176	-0.137207
784.0	21.402775	-1.305155	12.194162	-2.458366	5.285526	1.629563	-0.606689	-0.15625	-0.167725
785.0	24.345368	-2.027776	11.87184	-1.988056	5.232718	1.906149	-0.59668	-0.13208	-0.195801
786.0	26.377698	-1.873159	12.501318	-1.487573	5.471997	2.188889	-0.591064	-0.112061	-0.23291
787.0	27.264535	-3.341002	10.810218	-2.364132	5.49767	2.497966	-0.581299	-0.081543	-0.267578
788.0	27.396712	-2.723056	9.886635	-2.033108	5.570731	2.615899	-0.571533	-0.057129	-0.311035
789.0	26.912018	-3.317623	5.668767	-2.26611	5.619338	3.067284	-0.557373	-0.033203	-0.337158
790.0	25.43081	-0.514784	1.996724	-0.824061	5.332606	3.656911	-0.543213	-0.004639	-0.380615
791.0	25.59845	6.566239	-1.09516	0.565435	4.85844	4.095387	-0.526855	0.019531	-0.404541
792.0	28.642136	6.438422	-6.094382	0.240717	4.124542	4.857974	-0.510742	0.050049	-0.426514
793.0	32.065822	2.447442	-13.925879	-0.278251	3.378388	4.383889	-0.496338	0.073975	-0.443848
794.0	33.365521	8.524414	-19.289659	2.288595	2.6399	3.59203	-0.483887	0.084961	-0.461182
795.0	24.264353	20.94168	-17.83885	0.845648	1.772954	2.779966	-0.480469	0.113037	-0.467773
796.0	17.230793	12.85791	-15.104954	-4.588157	-0.976058	1.822578	-0.481689	0.140869	-0.452881
797.0	15.84443	-4.820974	-12.584959	-1.477023	-0.9821	-0.649043	-0.498535	0.13208	-0.441895
798.0	19.987014	4.839454	-0.570082	1.078568	-3.111769	-1.933661	-0.518066	0.127441	-0.435547
799.0	4.868783	-1.919338	11.2695	-0.71257	-0.654816	-2.266866	-0.530273	0.110107	-0.422363
800.0	-8.903678	-5.984655	9.119525	3.548467	-2.103033	-2.899394	-0.546631	0.079834	-0.424561
801.0	-21.586574	1.713654	12.20308	4.996136	-2.994632	-2.860588	-0.571289	0.045166	-0.402588
802.0	-2.138908	11.958415	4.356343	3.142171	-5.992534	-1.81769	-0.605713	0.033691	-0.361572
803.0	29.948367	19.512099	14.706554	1.869629	-6.982256	-0.658415	-0.631348	0.026611	-0.315918
804.0	29.461523	12.076332	18.42613	-0.696049	-4.096847	-0.760813	-0.650635	0.019531	-0.290039
805.0	14.185711	6.352008	15.089394	-0.518739	-4.320438	-1.260668	-0.672363	0.02124	-0.255371
806.0	19.963154	-1.758574	14.324632	-1.449211	-4.024404	-1.154275	-0.678711	0.016357	-0.2229
807.0	14.945854	-5.735788	9.605458	-2.180496	-3.405034	-0.637219	-0.689697	0.018311	-0.205566
808.0	10.365195	-4.061831	8.641894	-1.784161	-2.913225	0.019181	-0.700684	0.024414	-0.179443
809.0	21.144201	-10.323137	11.946228	-2.177127	-2.821327	0.02244	-0.705322	0.030518	-0.157959
810.0	12.481582	-16.939282	2.813897	-1.583658	-1.797605	0.064658	-0.709473	0.025879	-0.138428
811.0	10.638083	-8.250517	7.292141	0.317139	-1.501485	-0.284623	-0.713867	0.032227	-0.121094
812.0	7.894727	0.507573	9.240095	0.731285	-1.065823	-0.469698	-0.713623	0.021484	-0.121094
813.0	6.71044	-4.66019	7.656813	0.376374	-0.855814	-0.527536	-0.710938	0.012695	-0.110107
814.0	6.640035	-3.983469	7.963717	0.854183	-0.777204	-0.497591	-0.72168	0.010254	-0.103516
815.0	6.694093	-0.797286	9.429458	0.841566	-0.641179	-0.572197	-0.714844	-0.002686	-0.099121
816.0	7.758858	-0.324301	8.89096	0.486447	-0.598156	-0.456242	-0.717041	-0.000488	-0.088379
817.0	6.951834	-1.049514	8.582251	0.215646	-0.435453	-0.29748	-0.718994	-0.002686	-0.088379
818.0	6.406363	-1.294919	8.553705	0.175629	-0.38559	-0.252895	-0.718994	-0.00708	-0.086182
819.0	6.609095	-1.07492	8.39573	-0.0742	-0.435807	-0.229234	-0.720947	-0.007324	-0.077637
820.0	6.188316	-2.487334	7.842987	-0.178588	-0.41427	-0.185246	-0.723145	-0.011475	-0.07959
821.0	6.18321	-2.710123	7.640468	-0.115672	-0.338377	-0.204991	-0.720947	-0.007324	-0.075439
822.0	6.209077	-2.494093	7.596985	0.061663	-0.281774	-0.191825	-0.71875	-0.007324	-0.077637
823.0	6.282945	-2.529365	7.39516	0.167879	-0.235055	-0.183893	-0.718506	-0.015869	-0.073242
824.0	6.101278	-3.293143	7.022669	0.487191	-0.106463	-0.242138	-0.727539	-0.009521	-0.075439
825.0	5.844764	-2.438649	7.692408	0.543967	-0.068603	-0.343365	-0.718506	-0.018066	-0.068848
826.0	6.079135	-2.656865	7.423506	0.21183	-0.113624	-0.329795	-0.718506	-0.018066	-0.077393
827.0	6.160445	-3.055298	7.129852	0.294927	-0.058592	-0.322301	-0.722412	-0.026611	-0.068848
828.0	6.202297	-2.571798	7.403112	0.42513	0.044293	-0.350003	-0.724365	-0.031006	-0.064453
829.0	6.142837	-2.289246	7.559742	0.480495	0.098209	-0.376205	-0.720215	-0.028809	-0.064453
830.0	6.147051	-1.772918	7.875165	0.497563	0.108931	-0.380283	-0.722412	-0.026855	-0.062256
831.0	6.221675	-1.641737	7.845851	0.42032	0.110084	-0.350798	-0.722168	-0.033203	-0.062256
832.0	6.038495	-1.729609	7.749494	0.425707	0.148547	-0.320791	-0.71582	-0.026855	-0.064453
833.0	6.008503	-1.652014	7.983411	0.386748	0.146486	-0.303195	-0.709473	-0.024658	-0.057861
834.0	5.956875	-1.897128	7.726622	0.325112	0.140607	-0.282651	-0.695801	-0.037354	-0.075195
835.0	5.853387	-1.796478	7.777149	0.322613	0.145278	-0.278564	-0.693115	-0.054443	-0.081543
836.0	5.798444	-1.524566	7.874184	0.266716	0.135043	-0.258996	-0.703125	-0.07373	-0.087891
837.0	5.845543	-1.543319	7.819584	0.279756	0.108885	-0.24199	-0.718506	-0.071777	-0.081543
838.0	5.662745	-1.560241	7.892582	0.284746	0.085814	-0.234054	-0.716553	-0.06958	-0.077148
839.0	5.647964	-1.504734	8.098146	0.224209	0.037971	-0.229019	-0.718506	-0.071777	-0.079346
840.0	5.7238	-1.341069	7.811983	0.174754	-2.9e-05	-0.219234	-0.720947	-0.063232	-0.079346
841.0	5.735725	-1.332414	8.444124	0.109327	-0.034667	-0.219173	-0.718994	-0.061035	-0.075195
842.0	5.628681	-1.293197	8.418591	-0.016637	-0.09097	-0.214222	-0.714355	-0.06543	-0.066406
843.0	5.705629	-1.27215	8.259643	-0.078271	-0.179109	-0.221925	-0.723145	-0.063232	-0.075195
844.0	5.502327	-1.473215	8.561711	-0.114956	-0.261595	-0.268216	-0.71875	-0.067627	-0.066406
845.0	5.198254	-1.464293	8.970795	-0.124431	-0.429473	-0.356207	-0.716064	-0.076172	-0.064209
846.0	4.881109	-1.533623	9.658122	-0.147335	-0.658827	-0.360997	-0.71875	-0.063232	-0.062012
847.0	5.243282	-1.859295	9.436339	-0.256652	-0.938414	-0.295325	-0.720703	-0.070068	-0.05127
848.0	5.10677	-1.927324	9.674511	-0.250274	-1.223378	-0.31443	-0.7229	-0.072266	-0.046875
849.0	5.187436	-2.252208	9.334652	-0.105516	-1.553708	-0.366212	-0.722412	-0.078857	-0.031738
850.0	5.032614	-1.26655	9.891406	-0.076597	-1.885766	-0.389391	-0.729004	-0.079102	-0.014404
851.0	5.087354	-1.127722	9.734849	-0.214748	-2.285474	-0.397038	-0.72876	-0.081543	-0.001221
852.0	5.335441	-0.720731	9.625681	-0.221209	-2.662043	-0.350668	-0.730957	-0.081787	0.020264
853.0	5.046859	-1.637857	9.652948	-0.110982	-3.016299	-0.315054	-0.73291	-0.084229	0.050781
854.0	4.817393	-2.152337	10.415959	0.012066	-3.483943	-0.367513	-0.733154	-0.08252	0.072266
855.0	4.144605	-2.883455	10.913803	-0.426621	-3.984018	-0.538171	-0.730469	-0.091553	0.111328
856.0	3.354918	-5.864093	10.194377	0.460014	-4.686028	-0.852553	-0.730469	-0.090088	0.150391
857.0	2.89543	-2.782168	11.661188	-0.502241	-5.253251	-1.28029	-0.727539	-0.105713	0.193848
858.0	1.706887	-6.422981	10.596379	0.188889	-5.942149	-1.929988	-0.718262	-0.116943	0.241699
859.0	0.179781	-5.33594	11.046478	-0.482649	-6.417301	-2.852432	-0.693115	-0.147705	0.296143
860.0	0.906791	-8.30915	9.497692	0.077503	-7.267991	-3.858569	-0.679199	-0.163574	0.358887
861.0	2.269709	-6.209302	8.7285	0.615746	-8.422628	-4.540617	-0.640869	-0.194336	0.417725
862.0	11.139468	-3.647607	9.251879	0.700233	-9.526231	-4.736199	-0.60498	-0.218994	0.491699
863.0	24.772545	-2.5098	8.842156	0.988333	-10.010956	-4.371008	-0.549805	-0.236816	0.55249
864.0	33.723162	3.359462	6.006244	0.92723	-9.801314	-4.037454	-0.496826	-0.250244	0.617676
865.0	30.846781	4.61249	10.20937	-0.580918	-9.166185	-3.148177	-0.439209	-0.272217	0.658936
866.0	30.10878	-7.710371	11.941748	-2.269885	-7.962676	-2.769594	-0.403564	-0.296143	0.6875
867.0	22.728394	-7.278476	13.673397	-0.575115	-6.812095	-2.805584	-0.359131	-0.313477	0.718018
868.0	24.954577	-12.652093	16.284704	0.050795	-6.684826	-2.878541	-0.324219	-0.317871	0.733154
869.0	14.340923	-11.301052	19.848387	0.271657	-4.134499	-2.660123	-0.297852	-0.320313	0.752686
870.0	11.753852	-17.80574	16.433253	0.689553	-3.003505	-1.846778	-0.293457	-0.320557	0.767822
871.0	29.524123	-11.882428	23.930317	1.218502	-0.136734	0.054054	-0.320068	-0.307373	0.754883
872.0	10.257451	-20.325737	16.78432	1.591242	3.195953	1.38876	-0.358154	-0.279541	0.741699
873.0	5.913519	-8.466044	15.762167	3.55376	3.78701	1.221625	-0.403076	-0.24707	0.726074
874.0	1.64705	-4.62018	12.414963	2.948957	4.797867	1.482125	-0.453857	-0.227539	0.695557
875.0	-4.191314	0.582148	10.859683	2.209091	5.285068	1.649805	-0.496094	-0.208008	0.660889
876.0	-6.319777	-0.230366	8.704947	1.522532	4.565631	1.426909	-0.53833	-0.188232	0.628174
877.0	-3.304698	-0.488284	8.981255	0.201537	4.527592	1.260639	-0.562256	-0.192139	0.586914
878.0	0.02794	-3.38085	9.196018	0.072037	4.488375	0.876847	-0.597168	-0.189453	0.543457
879.0	2.22185	-2.565196	10.380158	-0.314214	4.812013	0.589978	-0.621094	-0.193359	0.5
880.0	4.19359	-3.475263	9.395496	-0.606971	5.275987	0.590596	-0.642822	-0.201172	0.447998
881.0	4.685866	-3.019164	9.015962	-0.224756	5.824134	0.746616	-0.659912	-0.209229	0.395996
882.0	5.645511	-1.03434	9.929528	-0.568849	6.19217	0.955882	-0.677734	-0.204102	0.335449
883.0	6.028793	-1.684988	8.425451	-1.026819	6.43165	1.203574	-0.697266	-0.205566	0.283203
884.0	6.953251	-1.095003	7.708406	-1.208071	6.500535	1.358901	-0.706299	-0.200684	0.229004
885.0	8.328102	-0.495294	7.812669	-0.931474	6.577968	1.402118	-0.715332	-0.197754	0.174805
886.0	9.003112	-2.210292	7.331795	-1.36905	6.645788	1.538422	-0.726563	-0.190674	0.122803
887.0	10.819924	0.289848	9.001069	-0.809234	6.783078	1.638188	-0.731445	-0.177002	0.068604
888.0	11.537117	-0.188051	9.213287	-2.270039	6.536145	1.594309	-0.734131	-0.172119	0.014404
889.0	13.248426	0.292754	9.225429	-1.211143	6.596924	1.506759	-0.734375	-0.169189	-0.041992
890.0	14.392396	2.044408	10.610758	-1.884209	6.359565	1.539771	-0.728271	-0.157471	-0.102783
891.0	15.866896	1.996325	10.957983	-2.293278	6.406733	1.489941	-0.715576	-0.152344	-0.156982
892.0	16.168188	-0.303871	10.247275	-3.149627	5.951176	1.431961	-0.69458	-0.134277	-0.215576
893.0	17.183023	-1.994136	10.700848	-2.336468	5.833953	1.378073	-0.682129	-0.122803	-0.263184
894.0	18.81754	-1.400645	12.746733	-2.406535	5.572307	1.376501	-0.652344	-0.109131	-0.306641
895.0	20.900153	-0.444393	13.310624	-2.26475	5.409018	1.472191	-0.630859	-0.102051	-0.352051
896.0	23.015191	-1.199789	12.896344	-2.760597	5.184536	1.628384	-0.603516	-0.080078	-0.386963
897.0	25.521182	-3.134154	11.778169	-2.178815	5.071579	2.063241	-0.577881	-0.066406	-0.423828
898.0	28.391642	-3.890458	11.723776	-1.915604	5.136187	2.321714	-0.550293	-0.051025	-0.449707
899.0	30.149388	-2.020097	11.297705	-2.046093	5.481316	2.397266	-0.520508	-0.033203	-0.480225
900.0	29.645864	0.27975	6.870807	-2.70106	5.532389	3.21008	-0.489258	-0.000488	-0.50415
901.0	28.669089	5.835837	1.580484	-0.961751	5.555307	4.229755	-0.453369	0.023682	-0.530273
902.0	28.639322	5.4101	-3.856028	-0.338042	5.310028	4.989156	-0.426025	0.047852	-0.556396
903.0	30.452061	0.705796	-12.292756	-0.12297	4.589898	4.804741	-0.395996	0.061035	-0.575928
904.0	31.515783	6.661662	-18.685008	3.033607	3.814516	3.970892	-0.373779	0.050537	-0.593018
905.0	29.816987	25.496723	-20.418114	2.947669	2.754991	3.104315	-0.359131	0.063721	-0.604004
906.0	18.617564	23.95716	-15.430883	-5.005588	0.022982	3.033456	-0.365234	0.108643	-0.586914
907.0	21.309541	-4.56964	-20.73319	-5.163468	-1.21266	0.897755	-0.365723	0.121582	-0.584717
908.0	5.336052	-14.118928	-10.09143	1.719062	-1.374421	-2.347334	-0.39502	0.093506	-0.580322
909.0	-2.495397	4.631836	-13.084805	6.351005	-3.08161	-4.353282	-0.409912	0.028809	-0.573486
910.0	-10.200288	16.934276	28.296559	4.471175	-5.57341	-2.746908	-0.452393	0.000244	-0.547363
911.0	7.913652	7.459296	11.65854	1.989094	-6.015201	-1.64066	-0.486084	-0.030273	-0.519043
912.0	19.244518	20.238408	9.318478	3.246839	-6.661854	-1.3961	-0.524414	-0.050293	-0.482178
913.0	32.009519	18.245207	18.161727	0.370179	-5.392771	-0.804803	-0.545654	-0.061523	-0.458496
914.0	20.995048	8.43103	17.284766	-0.008946	-4.496204	-1.306063	-0.566895	-0.070801	-0.425781
915.0	18.387739	2.520673	14.639069	-1.374816	-4.324189	-1.36973	-0.582031	-0.071045	-0.399902
916.0	17.078995	-9.618139	8.567003	-1.860241	-3.56111	-0.756441	-0.597168	-0.07373	-0.378174
917.0	14.477877	-5.866779	10.318514	-1.513141	-3.737468	-0.304991	-0.610352	-0.067627	-0.350098
918.0	23.440919	-12.771925	9.879081	-2.195645	-2.712353	0.241253	-0.621582	-0.059082	-0.341553
919.0	12.476594	-13.966036	3.970479	-1.525031	-1.915613	0.056706	-0.632324	-0.061523	-0.326416
920.0	13.056121	-6.568002	7.488199	0.58606	-1.211917	-0.359291	-0.62793	-0.065918	-0.31543
921.0	7.87703	2.468207	10.339056	0.989494	-0.695593	-0.51874	-0.631836	-0.074707	-0.313232
922.0	7.685949	-3.676274	8.322306	0.710648	-0.630085	-0.49738	-0.631836	-0.076904	-0.306885
923.0	6.923791	-0.455546	8.87312	0.868827	-0.464328	-0.486378	-0.633545	-0.085449	-0.304443
924.0	5.993274	-1.824577	8.780495	0.621252	-0.421834	-0.532645	-0.635498	-0.089844	-0.298096
925.0	6.231346	-1.745658	8.356062	0.312612	-0.45877	-0.458807	-0.635254	-0.096436	-0.293701
926.0	6.524372	-1.188469	8.143893	0.151302	-0.406862	-0.424615	-0.637207	-0.103027	-0.291504
927.0	6.720745	-1.313866	8.082391	0.216911	-0.291927	-0.371873	-0.641602	-0.103027	-0.287109
928.0	5.890674	-1.73509	8.621531	0.062936	-0.233172	-0.391699	-0.643555	-0.107422	-0.287109
929.0	6.765241	-3.100452	7.013761	0.081835	-0.215675	-0.376653	-0.641113	-0.11377	-0.287109
930.0	6.160883	-1.705321	8.028594	0.445434	-0.103618	-0.390776	-0.638916	-0.115967	-0.287109
931.0	6.22067	-2.404068	7.507155	0.641494	-0.046452	-0.398298	-0.638672	-0.120117	-0.284912
932.0	6.299663	-1.121042	8.279477	0.441458	-0.09536	-0.321462	-0.638916	-0.118164	-0.282715
933.0	6.253966	-1.636255	7.756384	0.333203	-0.060417	-0.263991	-0.638428	-0.128906	-0.27832
934.0	6.175153	-1.204314	8.049131	0.22346	-0.080504	-0.214398	-0.63623	-0.128906	-0.276123
935.0	6.295364	-1.421656	7.822999	0.126486	-0.09508	-0.161045	-0.642822	-0.124756	-0.27832
936.0	6.232884	-1.529636	7.709047	0.113007	-0.057661	-0.143156	-0.640625	-0.128906	-0.280518
937.0	6.136304	-1.707048	7.792096	0.111902	-0.03171	-0.134543	-0.644775	-0.133301	-0.282715
938.0	5.965974	-1.993371	7.694835	0.137638	-0.037223	-0.167859	-0.642578	-0.131104	-0.273926
939.0	6.079174	-1.866963	7.80673	0.123636	-0.047176	-0.169484	-0.640625	-0.128906	-0.273926
940.0	6.062476	-2.388215	7.390033	0.166407	0.015818	-0.134585	-0.638184	-0.131348	-0.265381
941.0	5.894557	-1.724222	7.894639	0.185597	-0.003111	-0.19638	-0.642822	-0.12915	-0.267578
942.0	6.023426	-1.812138	7.714501	0.038291	-0.01201	-0.167813	-0.63623	-0.126953	-0.267578
943.0	5.899535	-1.486381	7.709244	0.0345	-0.024089	-0.126705	-0.627686	-0.122559	-0.269775
944.0	6.104404	-1.507123	7.540745	0.040471	-0.016848	-0.101217	-0.607666	-0.135254	-0.280518
945.0	5.827874	-1.45181	7.807405	0.126236	-0.032646	-0.076192	-0.608887	-0.163086	-0.286865
946.0	6.018458	-1.771528	7.762852	0.043958	-0.050743	-0.078646	-0.632324	-0.171875	-0.284668
947.0	5.874301	-1.650929	7.801905	0.098682	-0.066473	-0.091033	-0.643311	-0.171875	-0.280273
948.0	5.958893	-1.502953	7.817155	0.044484	-0.080449	-0.098527	-0.652344	-0.15918	-0.27832
949.0	5.956527	-1.626278	7.833221	0.018147	-0.101588	-0.09707	-0.644043	-0.152588	-0.273926
950.0	5.910898	-1.548455	7.820617	-0.011322	-0.132098	-0.101264	-0.64624	-0.148438	-0.276123
951.0	5.893763	-1.471414	8.005006	-0.065308	-0.174951	-0.096003	-0.64624	-0.148438	-0.269531
952.0	5.854967	-1.446349	8.160218	-0.14138	-0.217067	-0.131116	-0.648193	-0.152832	-0.265137
953.0	5.526557	-1.318947	8.295904	-0.204161	-0.292631	-0.169116	-0.64624	-0.148438	-0.267334
954.0	5.296457	-1.65364	8.742463	-0.199341	-0.435156	-0.196047	-0.648438	-0.148438	-0.267334
955.0	5.556501	-1.304525	8.929421	-0.190443	-0.630332	-0.13212	-0.64624	-0.150635	-0.260986
956.0	5.556903	-1.577421	8.897873	-0.228082	-0.797151	-0.088965	-0.650635	-0.146484	-0.252197
957.0	5.331113	-2.025797	8.93666	-0.175582	-1.003806	-0.075857	-0.652832	-0.146729	-0.243652
958.0	5.549153	-1.768806	9.159419	-0.042337	-1.267857	-0.124571	-0.657227	-0.146729	-0.237061
959.0	5.443386	-2.091991	9.163607	-0.302062	-1.556248	-0.164846	-0.65918	-0.151123	-0.230469
960.0	5.267373	-2.861087	8.628645	-0.296978	-1.858697	-0.251095	-0.665527	-0.155762	-0.217529
961.0	5.42361	-2.063025	9.149185	-0.031419	-2.141159	-0.293262	-0.669922	-0.153809	-0.19165
962.0	5.483382	-1.008972	9.341517	-0.283681	-2.480026	-0.342381	-0.669678	-0.15625	-0.182861
963.0	5.251758	-2.21423	8.799639	-0.345482	-2.845555	-0.375694	-0.682861	-0.156494	-0.156982
964.0	5.156199	-2.365674	9.604213	0.253596	-3.238815	-0.434017	-0.684814	-0.158936	-0.133057
965.0	4.633163	-1.382585	10.579802	-0.825855	-3.697795	-0.545646	-0.691162	-0.161621	-0.100586
966.0	3.869333	-4.151105	9.836567	-0.553663	-4.251175	-0.790735	-0.693115	-0.168701	-0.068115
967.0	3.102426	-3.793425	11.222827	0.122305	-4.924394	-1.105978	-0.698975	-0.177734	-0.026855
968.0	2.608452	-5.441344	9.913709	-0.803245	-5.36871	-1.631214	-0.694092	-0.193359	0.012207
969.0	1.309976	-6.294026	10.044035	0.291761	-5.986007	-2.505717	-0.693359	-0.211182	0.053711
970.0	1.739231	-5.19732	10.070915	-0.038681	-6.625939	-3.240413	-0.681152	-0.239746	0.105713
971.0	1.351217	-6.521078	8.855862	0.19939	-7.762248	-3.901082	-0.671143	-0.272705	0.166748
972.0	6.576157	-3.136479	8.669665	0.671589	-8.968997	-4.228448	-0.639648	-0.292969	0.236084
973.0	16.86505	-1.987742	8.389111	0.552767	-9.741815	-3.951405	-0.60791	-0.321777	0.303467
974.0	30.8591	0.290436	6.009154	0.641827	-9.909129	-3.574671	-0.57251	-0.335449	0.368652
975.0	30.020055	3.422527	5.740092	-0.113529	-9.133408	-2.849512	-0.527832	-0.357422	0.425293
976.0	29.540741	0.109799	9.0774	-1.018429	-8.857715	-2.377303	-0.494385	-0.377441	0.466553
977.0	22.406165	-2.970306	12.161285	-1.405083	-7.214755	-2.079526	-0.463135	-0.394775	0.499268
978.0	20.456366	-8.89557	11.967979	-0.826453	-7.411696	-2.142047	-0.419189	-0.406006	0.531982
979.0	23.680237	-6.25647	17.818454	-0.186326	-6.294011	-1.932498	-0.377441	-0.412354	0.549316
980.0	11.568094	-11.207704	18.197492	-1.738878	-4.38574	-1.731447	-0.35498	-0.431885	0.564697
981.0	9.323755	-18.968188	12.520012	-0.090019	-3.410164	-1.636059	-0.334961	-0.438477	0.575439
982.0	26.002158	-13.69784	20.791163	0.876202	-0.871242	-0.232379	-0.330811	-0.432129	0.579834
983.0	13.40461	-16.558521	17.782405	2.17534	2.054709	0.444871	-0.353027	-0.42334	0.575439
984.0	8.686554	-10.634149	15.216179	2.909682	3.38772	0.736247	-0.373535	-0.397705	0.57959
985.0	8.002144	-3.926413	14.380575	3.262439	4.718473	0.850958	-0.404785	-0.380615	0.570801
986.0	2.413468	0.202997	11.808716	2.411776	5.603266	0.96519	-0.442383	-0.367432	0.55127
987.0	-2.120165	0.130965	8.776885	1.595999	5.776358	0.810303	-0.471191	-0.356689	0.531494
988.0	-2.712226	0.091068	7.850015	1.096584	5.659004	0.572733	-0.499756	-0.349854	0.501221
989.0	-0.786468	0.262756	8.374514	0.18781	5.453365	0.414256	-0.527832	-0.354004	0.479492
990.0	2.460522	-0.895004	8.629609	-1.471863	5.395585	0.351843	-0.560547	-0.355713	0.436035
991.0	5.774888	-2.991944	8.589615	-1.201539	5.740425	0.253109	-0.586182	-0.370117	0.38623
992.0	6.669519	-1.911043	8.874109	-1.447938	6.244575	0.408816	-0.619141	-0.367432	0.333984
993.0	7.358983	-2.409975	6.949369	-1.289952	6.567639	0.586786	-0.636719	-0.366699	0.28418
994.0	7.128652	-0.778871	7.503633	-0.80502	6.884587	0.808181	-0.658936	-0.359619	0.234375
995.0	7.669864	0.007745	6.351299	-1.427287	6.820745	1.085724	-0.672119	-0.356689	0.173584
996.0	8.222591	-0.340726	6.223591	-1.353756	6.752055	1.265321	-0.686035	-0.33667	0.119141
997.0	9.286377	-0.235616	6.53381	-1.414665	6.672875	1.490585	-0.688721	-0.327393	0.064941
998.0	10.78488	1.307469	7.282608	-1.512415	6.645945	1.636041	-0.693848	-0.313721	0.012939
999.0	12.503312	1.984268	8.264954	-1.566774	6.496775	1.668421	-0.698486	-0.306641	-0.047852
1000.0	12.295417	0.473052	7.514223	-1.751134	6.208436	1.70891	-0.694824	-0.292969	-0.097656
1001.0	15.092695	1.612178	8.726415	-1.357305	6.304906	1.591087	-0.688721	-0.28125	-0.158447
1002.0	13.144878	1.010312	8.709042	-1.835093	6.169723	1.505465	-0.67627	-0.267822	-0.199707
1003.0	13.500905	0.827922	9.083039	-1.992153	5.876448	1.442477	-0.659668	-0.25415	-0.251709
1004.0	14.188618	0.238343	10.421988	-1.819056	5.502706	1.454213	-0.647217	-0.238525	-0.290771
1005.0	15.333068	0.772054	11.225316	-1.867742	5.267783	1.486982	-0.633057	-0.216309	-0.344971
1006.0	16.122921	-1.35516	10.946705	-2.134902	4.863956	1.717731	-0.618408	-0.200684	-0.375488
1007.0	17.832673	-1.631271	10.964979	-1.963563	4.523586	1.971637	-0.601807	-0.178467	-0.416748
1008.0	20.749089	-2.128073	11.719931	-2.632026	4.131426	2.283085	-0.581055	-0.158691	-0.445068
1009.0	24.401594	-5.835947	11.442752	-1.841597	4.065	2.523706	-0.558105	-0.132324	-0.477539
1010.0	28.904193	-6.132025	11.647975	-1.849624	4.027528	2.709605	-0.541748	-0.108154	-0.503662
1011.0	33.818235	-7.009064	9.767725	-1.650064	4.436237	2.792236	-0.520508	-0.092773	-0.531982
1012.0	34.227018	-4.796385	5.029409	0.432563	5.429167	3.364242	-0.492676	-0.081543	-0.564453
1013.0	32.025483	7.673683	2.722768	1.847867	5.699181	3.839679	-0.458496	-0.070068	-0.590332
1014.0	31.352043	9.119263	-5.600424	1.069669	5.751683	4.882318	-0.428711	-0.054688	-0.618652
1015.0	30.944878	6.085432	-15.0534	0.863683	5.228739	4.696352	-0.396484	-0.04126	-0.638184
1016.0	28.493543	13.428793	-22.147144	2.166796	4.171255	3.916102	-0.377197	-0.034668	-0.65332
1017.0	20.880932	21.375114	-22.945468	-0.213183	2.729879	2.681413	-0.371338	-0.019531	-0.659912
1018.0	11.683742	10.418471	-19.014123	-4.104111	-0.700539	1.538903	-0.372559	0.014893	-0.655762
1019.0	8.905654	-3.697541	-15.096931	-1.470091	-1.592904	-2.940574	-0.386963	-0.010986	-0.64917
1020.0	10.487594	-2.042951	-18.816754	4.042687	-2.723811	-4.377977	-0.406738	-0.058594	-0.640137
1021.0	-5.245782	18.979341	21.395601	4.485635	-4.01167	-5.215232	-0.450684	-0.106445	-0.616211
1022.0	15.299292	9.608607	19.167847	0.02539	-5.110504	-1.985637	-0.471924	-0.115479	-0.592285
1023.0	3.286084	-0.177468	5.045636	1.636918	-4.519226	-1.346781	-0.503906	-0.130859	-0.566406
1024.0	17.053495	11.463303	11.539783	1.109923	-5.746426	-0.92372	-0.53833	-0.142334	-0.531738
1025.0	26.019937	9.616252	18.207714	-0.885947	-4.8059	-0.689402	-0.564209	-0.146973	-0.505615
1026.0	16.65695	3.30296	12.970666	-0.744534	-3.966483	-1.155614	-0.581543	-0.147461	-0.481934
1027.0	16.353929	-2.5839	12.260033	-1.417643	-3.815486	-1.087738	-0.603027	-0.149902	-0.462402
1028.0	12.069217	-7.972506	9.262607	-2.430711	-3.485374	-0.529981	-0.621094	-0.137451	-0.438721
1029.0	27.490147	-14.702172	11.29056	-2.83952	-3.540945	-0.111989	-0.634277	-0.12915	-0.425781
1030.0	12.473353	-12.896646	3.670747	-1.444055	-1.561458	0.205981	-0.63916	-0.118408	-0.415039
1031.0	12.148685	-8.611358	7.49562	-0.24562	-1.625108	0.014186	-0.649414	-0.129395	-0.401855
1032.0	8.535294	0.691688	9.529485	0.620248	-1.064864	-0.206033	-0.651855	-0.127441	-0.395508
1033.0	7.691288	-2.446019	8.375679	0.31934	-0.786837	-0.304192	-0.653809	-0.131836	-0.384521
1034.0	5.89085	-3.954545	8.429215	0.345452	-0.76106	-0.34602	-0.655518	-0.140625	-0.37793
1035.0	6.997966	-2.474974	8.361595	0.564834	-0.616794	-0.441552	-0.655273	-0.14502	-0.373779
1036.0	8.236161	0.763734	8.993511	0.459697	-0.516295	-0.391427	-0.668213	-0.151611	-0.367188
1037.0	6.27412	-1.360816	8.912726	-0.04604	-0.38539	-0.203316	-0.661621	-0.14917	-0.369385
1038.0	6.723768	-0.635114	8.813727	-0.120535	-0.450311	-0.106466	-0.672607	-0.151367	-0.369385
1039.0	6.429844	-1.873529	8.102517	-0.452934	-0.478657	-0.051456	-0.668213	-0.147217	-0.360596
1040.0	6.525223	-2.974526	7.40577	-0.366164	-0.42202	0.014695	-0.67041	-0.151611	-0.362793
1041.0	6.21598	-3.120795	7.505239	-0.093614	-0.321766	0.014273	-0.672607	-0.149414	-0.36499
1042.0	6.288426	-2.32143	7.730839	-0.01145	-0.305524	-0.023647	-0.67041	-0.151611	-0.354248
1043.0	6.283237	-2.478032	7.596696	0.038734	-0.305343	-0.012234	-0.677002	-0.149414	-0.358398
1044.0	6.209937	-2.282429	7.693125	-0.001681	-0.319057	-0.017088	-0.677246	-0.143066	-0.354248
1045.0	6.297481	-2.25661	7.523936	-0.082471	-0.3138	-0.008959	-0.677002	-0.147461	-0.349854
1046.0	6.262308	-2.390471	7.478186	-0.152777	-0.284425	-0.005023	-0.679443	-0.143311	-0.345459
1047.0	6.265576	-2.787411	7.242702	-0.215415	-0.279297	0.011835	-0.681396	-0.147461	-0.345459
1048.0	6.25271	-2.881731	7.167757	-0.176598	-0.254458	0.005841	-0.681396	-0.145508	-0.341309
1049.0	6.189172	-2.86962	7.239211	-0.164705	-0.228529	-0.006158	-0.677002	-0.147461	-0.343262
1050.0	6.065074	-3.115704	7.152746	-0.157358	-0.214948	-0.027919	-0.687988	-0.141113	-0.336914
1051.0	6.039127	-3.059073	7.17864	-0.112436	-0.217683	-0.058153	-0.683838	-0.141113	-0.345459
1052.0	6.160804	-3.018262	7.093049	-0.044978	-0.229835	-0.092098	-0.683838	-0.141113	-0.336914
1053.0	6.043846	-2.918586	7.17483	-0.042768	-0.205409	-0.12367	-0.683594	-0.147705	-0.33252
1054.0	6.132351	-2.794186	7.164867	-0.025556	-0.220149	-0.128012	-0.685791	-0.143555	-0.328125
1055.0	6.22858	-2.711236	7.173121	0.021792	-0.211131	-0.152452	-0.688232	-0.13916	-0.330322
1056.0	6.007254	-2.639047	7.209774	0.064577	-0.204485	-0.192954	-0.683838	-0.136963	-0.330322
1057.0	6.294257	-2.710756	7.058514	0.122668	-0.22473	-0.192532	-0.675293	-0.136963	-0.328125
1058.0	6.207284	-2.570056	7.127243	0.160132	-0.18816	-0.179025	-0.672607	-0.147705	-0.328125
1059.0	6.209616	-2.780607	7.149383	0.096737	-0.206354	-0.160342	-0.665527	-0.162598	-0.33667
1060.0	6.126776	-2.964319	7.023335	0.032473	-0.232043	-0.135335	-0.680176	-0.175537	-0.338867
1061.0	6.315573	-2.909307	6.976417	0.050903	-0.220809	-0.139051	-0.688721	-0.182129	-0.33667
1062.0	6.341482	-2.723452	7.060333	0.030294	-0.208455	-0.169525	-0.693604	-0.167236	-0.328125
1063.0	6.389533	-2.843196	6.902659	0.02197	-0.179968	-0.196019	-0.695801	-0.167236	-0.330322
1064.0	6.465562	-2.840186	6.899505	0.065877	-0.178571	-0.205355	-0.697998	-0.165039	-0.321533
1065.0	6.293068	-2.890749	6.806841	0.122597	-0.166547	-0.212327	-0.697998	-0.167236	-0.325928
1066.0	6.226922	-2.938526	6.861317	0.179072	-0.184448	-0.235088	-0.697754	-0.169678	-0.312988
1067.0	6.198281	-3.139131	7.038573	0.21394	-0.230301	-0.272484	-0.693604	-0.16748	-0.310791
1068.0	6.271297	-2.974496	7.131667	0.218305	-0.25984	-0.304095	-0.695557	-0.171631	-0.310791
1069.0	6.11533	-2.955117	7.369978	0.236113	-0.293087	-0.337915	-0.691162	-0.173828	-0.310791
1070.0	6.037885	-3.502138	7.559105	0.247183	-0.316345	-0.383115	-0.693359	-0.173828	-0.306396
1071.0	6.217737	-3.138931	7.587633	0.316067	-0.347047	-0.445714	-0.699463	-0.18042	-0.299805
1072.0	6.342024	-2.596089	7.988561	0.317772	-0.382947	-0.4869	-0.697266	-0.184814	-0.293457
1073.0	6.214982	-2.499982	8.351737	0.294124	-0.456686	-0.522788	-0.701172	-0.193604	-0.293213
1074.0	6.024364	-1.89821	8.660336	0.287165	-0.61656	-0.539053	-0.696777	-0.197754	-0.288818
1075.0	5.813253	-1.783959	8.854656	0.303267	-0.85828	-0.560098	-0.700684	-0.204346	-0.280273
1076.0	5.750775	-0.836191	9.189495	0.270442	-1.215484	-0.557421	-0.702637	-0.208984	-0.269287
1077.0	5.921939	-0.652563	9.146847	0.113059	-1.555871	-0.474299	-0.711426	-0.211182	-0.256348
1078.0	5.715299	-0.617183	9.368838	-0.019116	-1.933616	-0.366902	-0.713379	-0.211426	-0.239014
1079.0	5.6625	-1.08918	9.128034	-0.223563	-2.332007	-0.320298	-0.721924	-0.218262	-0.22168
1080.0	5.42107	-3.450125	8.21852	0.347849	-2.729333	-0.297361	-0.723877	-0.218506	-0.197754
1081.0	5.062398	0.206847	10.7965	-0.08705	-3.166067	-0.427337	-0.730225	-0.223145	-0.17627
1082.0	4.689115	-4.082398	8.872908	-0.214001	-3.709582	-0.50268	-0.73877	-0.22583	-0.137207
1083.0	4.5989	-0.878276	11.672145	-0.103436	-4.201923	-0.703794	-0.746826	-0.239258	-0.100342
1084.0	3.21523	-8.483341	8.009161	-0.254504	-4.800847	-1.053416	-0.750977	-0.246338	-0.06543
1085.0	3.702597	-1.708054	11.621291	-0.150614	-5.201166	-1.66967	-0.750488	-0.257813	-0.017822
1086.0	2.192601	-7.383444	8.997661	-0.524975	-5.845055	-2.320622	-0.751709	-0.277588	0.01709
1087.0	2.1776	-6.815577	9.073326	-0.071076	-6.519802	-3.005865	-0.739502	-0.306152	0.073486
1088.0	3.162043	-6.38191	8.26879	0.708214	-7.502298	-3.638678	-0.727539	-0.333008	0.143066
1089.0	7.467673	-3.468408	7.75701	0.946748	-8.49705	-3.89632	-0.697998	-0.364014	0.212646
1090.0	18.102435	-1.856505	6.606653	0.710817	-9.190981	-3.780435	-0.672852	-0.390625	0.290771
1091.0	30.415218	0.722049	4.075074	0.572691	-9.098895	-3.383946	-0.636963	-0.412842	0.355957
1092.0	28.828104	3.494637	3.827978	0.0107	-8.265509	-2.822466	-0.605713	-0.430664	0.401611
1093.0	25.676043	-2.444763	8.075312	-1.56826	-7.204534	-2.374697	-0.567627	-0.454834	0.445068
1094.0	21.636794	-4.420071	10.628635	-0.647629	-6.757219	-2.323911	-0.527588	-0.474609	0.486572
1095.0	23.434684	-8.135538	11.025455	0.146544	-6.495012	-2.452779	-0.48584	-0.483398	0.523438
1096.0	25.013618	-6.069834	13.690936	-0.307547	-4.896638	-2.09977	-0.461426	-0.494385	0.541016
1097.0	9.968666	-10.341153	17.436441	-0.972773	-3.21966	-2.01719	-0.43457	-0.513916	0.556152
1098.0	14.121036	-13.208774	18.866029	-0.057306	-1.779417	-1.821209	-0.421143	-0.518311	0.569336
1099.0	23.563516	-11.733297	21.567181	0.505751	1.418	-0.793925	-0.432129	-0.518311	0.560547
1100.0	7.239489	-15.383915	15.492644	2.513959	3.660166	-0.330272	-0.443115	-0.511963	0.569336
1101.0	3.293856	-6.48202	13.425236	2.429612	4.13662	-0.151325	-0.465332	-0.505615	0.566895
1102.0	-0.045017	-5.81161	10.469315	2.180596	4.570744	0.246794	-0.492188	-0.488281	0.553955
1103.0	-3.470807	-3.035481	9.417171	2.080507	4.625129	0.487813	-0.516357	-0.479736	0.555908
1104.0	-2.804463	-2.625768	9.00236	1.136872	4.175583	0.557847	-0.547119	-0.473145	0.538574
1105.0	-0.297411	-4.230731	9.097264	0.587207	4.254696	0.691455	-0.571289	-0.466553	0.525391
1106.0	2.030469	-4.434148	9.91184	0.534283	4.420957	0.692998	-0.601807	-0.466553	0.518799
1107.0	4.547219	-4.096865	10.104637	-0.014928	4.948584	0.892713	-0.638916	-0.46875	0.499268
1108.0	5.053328	-3.982243	9.08668	-0.18466	5.515901	1.155917	-0.680664	-0.457764	0.475342
1109.0	6.188809	-3.193714	8.626464	0.762721	5.96938	1.22047	-0.726563	-0.453369	0.458008
1110.0	6.113594	-1.285781	8.167726	-0.061357	6.230391	1.34642	-0.777344	-0.438232	0.42749
1111.0	6.536759	-0.733842	7.047971	-0.122319	6.431534	1.45372	-0.828125	-0.42041	0.383789
1112.0	6.963368	-0.786593	6.828953	0.010359	6.400181	1.386138	-0.887939	-0.396484	0.34668
1113.0	7.810128	-0.598175	6.882956	-0.879619	6.242407	1.391007	-0.936523	-0.378906	0.303223
1114.0	9.414135	-1.484004	6.837948	-0.106776	6.180335	1.27348	-0.998291	-0.363525	0.255371
1115.0	10.958386	1.249863	8.300663	-0.8649	6.172252	1.298587	-1.057861	-0.3479	0.196777
1116.0	12.208439	-0.280939	8.188006	-0.90504	6.069867	1.233275	-1.119141	-0.342773	0.118408
1117.0	13.172562	-0.252155	7.910565	-1.362534	5.907774	1.198173	-1.169678	-0.331055	0.036133
1118.0	14.668411	-0.745003	8.114245	-0.569688	5.884169	1.133801	-1.22876	-0.330078	-0.05957
1119.0	14.559108	1.37912	9.249017	-1.257198	5.736429	0.962573	-1.268066	-0.333008	-0.167969
1120.0	14.25712	0.931417	8.891734	-1.834707	5.48341	0.97454	-1.310059	-0.322754	-0.291504
1121.0	15.263473	-1.549161	8.297782	-2.024765	5.033568	1.134717	-1.345703	-0.308105	-0.43042
1122.0	15.858129	-1.215226	9.483279	-1.5124	4.884327	1.191115	-1.356201	-0.271729	-0.58667
1123.0	15.870914	0.062067	10.379765	-1.680954	4.669002	1.168956	-1.334717	-0.217773	-0.749512
1124.0	16.290815	-2.31073	9.302597	-1.847095	4.312469	1.277933	-1.270264	-0.146729	-0.89502
1125.0	16.931749	-1.491571	9.476257	-2.122987	3.996748	1.479983	-1.173584	-0.065186	-0.999268
1126.0	18.290693	-0.688406	10.573187	-1.465606	3.840345	1.553574	-1.061768	0.024658	-1.081787
1127.0	20.72842	-2.815285	9.923021	-2.40662	3.658802	1.793434	-0.930176	0.107178	-1.114502
1128.0	23.375583	-1.886038	11.213871	-1.071587	4.051044	1.818688	-0.799805	0.172363	-1.121094
1129.0	24.92251	-2.71645	9.943941	-1.598925	4.39661	1.902164	-0.664795	0.226563	-1.10376
1130.0	24.140184	-1.542065	7.43128	-1.31365	4.945481	2.043539	-0.546387	0.262939	-1.0625
1131.0	21.049822	0.932956	4.902022	-0.839002	5.174233	2.377567	-0.442383	0.279785	-1.006104
1132.0	19.347075	3.818339	1.709942	-0.194529	5.003325	2.711519	-0.375	0.285889	-0.962646
1133.0	18.99134	6.092017	-0.872067	-0.190271	4.624271	3.238675	-0.318359	0.287598	-0.910645
1134.0	20.235497	1.392616	-4.732378	-1.541565	3.915366	3.125112	-0.290527	0.300049	-0.875977
1135.0	21.658696	-0.12522	-10.158069	-0.688377	3.214747	2.72424	-0.268555	0.293457	-0.852051
1136.0	21.070112	6.050576	-12.234931	1.663628	2.565639	2.07509	-0.259033	0.275879	-0.83252
1137.0	17.669888	12.97951	-11.721264	0.562188	1.541742	1.554592	-0.254639	0.277832	-0.817139
1138.0	14.524064	7.355909	-10.461018	-2.863788	-0.106043	0.830849	-0.273193	0.30542	-0.787109
1139.0	14.4065	-0.988656	-7.931467	-2.547205	-0.752154	-0.341918	-0.290771	0.311523	-0.769775
1140.0	7.294229	-9.839728	-2.213113	-1.367369	-1.471737	-1.714174	-0.318604	0.30249	-0.752441
1141.0	10.582855	-18.007236	-21.989383	4.451185	-2.506492	-1.862235	-0.346436	0.233643	-0.758545
1142.0	-15.520816	16.935353	11.169584	7.848516	-2.976408	-3.152195	-0.411621	0.170898	-0.741211
1143.0	7.425636	15.927886	21.244905	0.267586	-6.892841	-1.000601	-0.467529	0.157227	-0.702148
1144.0	15.175119	9.721329	11.133374	2.4809	-4.570527	-0.868033	-0.518555	0.128906	-0.693359
1145.0	14.994593	15.33972	10.419768	2.303235	-4.633556	-0.430976	-0.556641	0.100342	-0.663086
1146.0	20.290021	15.585021	16.981406	0.728541	-4.845061	-0.786473	-0.595215	0.086914	-0.628418
1147.0	19.824149	6.676646	16.187308	-0.427346	-3.86618	-1.151153	-0.627197	0.069092	-0.602295
1148.0	16.982642	-0.206374	12.883088	-1.104899	-3.943896	-0.824678	-0.657471	0.066406	-0.569824
1149.0	14.473676	-5.721081	10.225167	-2.586875	-3.383139	-0.311912	-0.675049	0.07251	-0.543945
1150.0	12.452168	-8.854461	9.212047	-2.627382	-2.989407	0.36798	-0.699463	0.089355	-0.518066
1151.0	19.777659	-16.06625	7.696961	-2.391758	-2.597214	-0.028401	-0.710693	0.095459	-0.498535
1152.0	8.807186	-13.152755	3.537847	-0.479327	-1.698289	-0.212122	-0.723389	0.086426	-0.481201
1153.0	11.386878	-6.168897	8.821231	0.891984	-1.69635	-0.614223	-0.736084	0.077637	-0.472412
1154.0	9.078005	1.29651	9.789088	1.625925	-0.882157	-0.882069	-0.743896	0.056152	-0.468018
1155.0	8.351734	-0.043326	9.344406	1.059222	-0.678849	-0.791184	-0.743408	0.043213	-0.46582
1156.0	7.136441	-0.445794	9.176885	0.759846	-0.493124	-0.689202	-0.749756	0.038818	-0.461426
1157.0	6.990161	-0.766543	8.86657	0.510287	-0.327331	-0.499587	-0.753662	0.027832	-0.454834
1158.0	5.896991	-0.797586	8.852288	0.326377	-0.256358	-0.405734	-0.753418	0.023682	-0.457031
1159.0	5.892202	-0.539898	8.841664	-0.001248	-0.274706	-0.330459	-0.755615	0.023682	-0.454834
1160.0	6.696002	-0.13141	8.292092	-0.080535	-0.280619	-0.229532	-0.757568	0.019287	-0.448242
1161.0	6.123702	-1.252344	8.167655	0.201301	-0.218829	-0.179885	-0.762207	0.021484	-0.450439
1162.0	6.03984	-0.783335	8.406701	-0.182489	-0.31192	-0.123114	-0.757568	0.014893	-0.448242
1163.0	6.025464	-2.295947	7.932338	-0.191429	-0.327464	-0.155879	-0.770508	0.014893	-0.441895
1164.0	6.40689	-2.937458	7.188319	0.169062	-0.252722	-0.097163	-0.770508	0.012695	-0.441895
1165.0	5.841884	-0.14769	9.113606	-0.001462	-0.266964	-0.130814	-0.766113	0.012695	-0.439697
1166.0	6.26543	-2.730378	7.198537	-0.105376	-0.247401	-0.03745	-0.768311	0.014648	-0.435303
1167.0	6.051292	-2.059472	7.764673	0.105227	-0.205877	-0.018541	-0.770508	0.012451	-0.435303
1168.0	6.178516	-2.11976	7.6432	0.177007	-0.18315	-0.017941	-0.772705	0.014648	-0.430908
1169.0	6.15242	-1.781299	7.874816	0.303141	-0.158333	-0.039467	-0.774658	0.010254	-0.430908
1170.0	6.227926	-1.674223	8.021848	0.020572	-0.178569	-0.003698	-0.776855	0.010254	-0.433105
1171.0	6.179481	-1.702499	7.981147	-0.081511	-0.170677	0.026768	-0.768066	0.010254	-0.433105
1172.0	6.153602	-1.754777	7.960408	-0.206952	-0.16192	0.063075	-0.776855	0.012451	-0.433105
1173.0	6.035931	-2.014923	7.750118	-0.285896	-0.16113	0.080932	-0.774902	0.014404	-0.422363
1174.0	6.010668	-1.657323	7.789234	-0.334619	-0.159581	0.083413	-0.779297	0.018799	-0.426758
1175.0	6.061998	-1.658522	7.662193	-0.330522	-0.180469	0.11684	-0.779541	0.020996	-0.420166
1176.0	6.064353	-1.923883	7.620583	-0.210084	-0.169189	0.117345	-0.779785	0.027344	-0.413818
1177.0	5.963954	-2.09262	7.724988	-0.170245	-0.132557	0.03924	-0.777588	0.029541	-0.416016
1178.0	5.923667	-1.893353	7.709428	-0.184555	-0.207912	-0.033097	-0.775635	0.035889	-0.409424
1179.0	5.909438	-1.374944	7.991573	-0.31796	-0.297154	0.052364	-0.762695	0.035889	-0.409424
1180.0	6.513877	-2.792554	6.80903	-0.27471	-0.296448	0.049692	-0.751465	0.029785	-0.424561
1181.0	5.688397	-2.510559	7.39561	-0.009979	-0.21424	-0.031067	-0.755127	0.010254	-0.428711
1182.0	6.296797	-2.328015	7.298473	-0.094637	-0.292166	0.035301	-0.77417	-0.004639	-0.430908
1183.0	6.050357	-2.639749	7.246914	-0.035235	-0.216109	-0.015395	-0.789551	0.001465	-0.413574
1184.0	6.12791	-2.540892	7.138051	-0.040835	-0.213101	-0.051812	-0.794189	0.007813	-0.407227
1185.0	6.140393	-2.432785	7.229945	-0.088696	-0.161271	-0.110157	-0.791992	0.01001	-0.407227
1186.0	6.065269	-2.550629	7.334633	-0.037466	-0.164163	-0.153431	-0.796631	0.018311	-0.398682
1187.0	6.067669	-2.373147	7.336351	-0.00561	-0.182645	-0.15066	-0.794189	0.009766	-0.398438
1188.0	6.096086	-2.120416	7.474047	0.045586	-0.201514	-0.140044	-0.794678	0.020508	-0.398682
1189.0	5.983299	-2.024149	7.560873	0.075741	-0.225637	-0.143771	-0.790283	0.020508	-0.394287
1190.0	6.182922	-1.733334	7.541681	0.097742	-0.26488	-0.138215	-0.796631	0.018311	-0.396484
1191.0	6.120207	-1.640072	7.654657	0.07377	-0.274472	-0.153357	-0.794189	0.009766	-0.394287
1192.0	6.039461	-1.782052	7.696712	0.002768	-0.328689	-0.156787	-0.796631	0.013916	-0.39209
1193.0	6.008257	-1.991847	7.756745	-0.027694	-0.386073	-0.175023	-0.802979	0.009521	-0.383301
1194.0	5.985557	-2.00391	7.822894	-0.043201	-0.474912	-0.161962	-0.802979	0.013916	-0.387695
1195.0	5.907421	-2.099778	7.909923	-0.065121	-0.56289	-0.159459	-0.800781	0.011475	-0.372559
1196.0	5.914954	-2.205195	7.948426	-0.113001	-0.665501	-0.183584	-0.807129	0.009277	-0.368164
1197.0	5.881424	-2.518706	8.031239	-0.159047	-0.774479	-0.217365	-0.813721	0.011475	-0.36377
1198.0	5.865129	-2.489187	8.181406	-0.145366	-0.925175	-0.27543	-0.818115	0.009033	-0.355225
1199.0	5.934369	-2.20739	8.467611	-0.185744	-1.100277	-0.312917	-0.824219	0.002441	-0.348633
1200.0	5.839479	-2.202106	8.488395	-0.202023	-1.298971	-0.333674	-0.828613	0.002441	-0.337891
1201.0	5.827293	-2.083636	8.65864	-0.329102	-1.534465	-0.377032	-0.830566	0.0	-0.318359
1202.0	5.701403	-1.87754	8.797483	-0.404775	-1.81767	-0.427669	-0.841309	-0.002441	-0.298828
1203.0	5.738459	-1.947301	8.686213	-0.414971	-2.141342	-0.45119	-0.854248	-0.009277	-0.279297
1204.0	5.572087	-2.871535	8.230335	0.077113	-2.488432	-0.459095	-0.860596	-0.013916	-0.257568
1205.0	5.461781	-0.300513	10.030747	-0.701062	-2.839351	-0.586379	-0.869141	-0.016357	-0.233887
1206.0	5.266742	-2.452999	8.225944	-0.666719	-3.303862	-0.691719	-0.877441	-0.02124	-0.19043
1207.0	5.157357	-1.032282	9.139761	-0.496567	-3.703401	-0.862493	-0.887939	-0.032715	-0.155762
1208.0	4.469332	-2.378092	9.050549	-1.280205	-4.080348	-1.026731	-0.898438	-0.037598	-0.116699
1209.0	4.215067	-3.604049	9.060656	-0.725713	-4.540975	-1.366721	-0.904297	-0.053223	-0.071045
1210.0	3.818081	-5.349117	8.111176	-0.966963	-4.98581	-1.819462	-0.916504	-0.073242	-0.016846
1211.0	3.530782	-5.244316	7.811063	-0.684452	-5.593377	-2.355756	-0.917725	-0.093506	0.041748
1212.0	3.726377	-5.453772	7.791718	-0.052237	-6.379414	-2.85554	-0.922852	-0.124512	0.104736
1213.0	4.675065	-4.79948	7.594416	-0.289456	-7.111282	-3.159637	-0.914551	-0.164307	0.185059
1214.0	8.354499	-3.193801	6.807948	0.204977	-7.870059	-3.241022	-0.89624	-0.186768	0.259033
1215.0	14.395833	-1.113697	5.545157	0.535594	-8.49192	-2.932061	-0.879883	-0.211426	0.341553
1216.0	23.913512	0.953028	4.560839	0.258759	-8.566543	-2.550614	-0.852783	-0.233887	0.419678
1217.0	25.756687	1.451299	3.149864	-0.238078	-7.915772	-1.993632	-0.821289	-0.25415	0.487061
1218.0	25.896715	-0.604877	4.426169	-0.436642	-7.444009	-1.860365	-0.779297	-0.265381	0.543457
1219.0	24.731972	-2.715237	7.528583	-0.34971	-6.281598	-1.834776	-0.746094	-0.279053	0.600098
1220.0	23.068219	-3.690954	6.956408	-0.366072	-5.740307	-1.77115	-0.710449	-0.294434	0.641357
1221.0	24.545941	-6.42824	9.584497	-0.054995	-4.815013	-1.777645	-0.682129	-0.296875	0.660889
1222.0	16.387676	-5.448911	11.878705	-0.120601	-2.985205	-1.657566	-0.666504	-0.305664	0.684814
1223.0	9.714922	-5.41811	21.489646	-0.60399	-1.874683	-1.588937	-0.648682	-0.318359	0.680664
1224.0	14.42649	-8.331819	16.970545	-0.357191	0.534805	-1.568548	-0.648193	-0.326904	0.671875
1225.0	14.548567	-9.591335	15.731924	0.460215	2.615108	-1.449275	-0.663818	-0.322266	0.641602
1226.0	2.991663	-9.882185	10.65297	1.463142	3.548142	-1.365934	-0.679199	-0.315674	0.62207
1227.0	-1.772101	-5.752818	8.389534	2.108537	4.055182	-0.84332	-0.695068	-0.302246	0.587158
1228.0	-4.617797	-5.877729	6.740531	0.508081	3.321536	-0.305766	-0.713379	-0.284912	0.561035
1229.0	-2.675875	-7.145459	6.358369	1.036736	3.066767	0.39463	-0.724854	-0.265137	0.537109
1230.0	-0.079105	-6.161093	7.522261	1.021925	2.898263	0.966501	-0.732666	-0.239014	0.515381
1231.0	2.722102	-5.706	8.927926	1.22596	2.965563	1.34582	-0.742676	-0.206543	0.487061
1232.0	6.473928	-4.547475	9.142296	1.372452	3.900229	1.907466	-0.750977	-0.162842	0.447754
1233.0	5.96692	-3.622198	8.879895	1.959595	4.548174	2.032777	-0.763184	-0.125977	0.40625
1234.0	6.128345	-0.278657	9.292854	2.130281	5.260004	1.970606	-0.773926	-0.077881	0.360596
1235.0	5.97908	0.113078	7.495596	1.357691	5.60752	1.8636	-0.766602	-0.047119	0.306152
1236.0	7.78365	2.543396	7.502645	1.446893	5.895622	1.604896	-0.763184	-0.024902	0.260498
1237.0	8.043854	0.330836	6.112695	0.530912	6.164316	1.384603	-0.75293	-0.009277	0.217285
1238.0	8.553428	-1.220681	4.911737	0.622729	6.199891	1.135303	-0.744873	0.002197	0.173828
1239.0	10.300037	-2.237438	4.466239	0.349258	5.928695	1.132064	-0.734375	0.009033	0.141357
1240.0	10.687172	-3.488209	4.284568	1.227632	6.166935	0.983444	-0.734619	0.015869	0.113037
1241.0	12.493156	-2.952609	2.892109	1.786563	5.930771	1.157357	-0.73291	0.024902	0.089111
1242.0	12.696098	-1.968279	1.184216	1.481531	5.810539	1.529737	-0.737793	0.040283	0.056641
1243.0	12.337038	0.762183	2.046876	2.34017	5.436809	1.970257	-0.753662	0.057861	0.036865
1244.0	11.088731	1.830258	3.508101	0.046106	4.893496	2.105154	-0.770264	0.090332	0.010742
1245.0	12.718112	-6.139046	1.615169	0.895378	4.264023	2.501442	-0.780273	0.12085	-0.017578
1246.0	13.511523	-3.940133	3.514778	1.121195	3.908473	2.772448	-0.790527	0.157715	-0.05249
1247.0	15.196899	-6.570877	3.318163	0.820136	3.509952	2.960661	-0.800781	0.199219	-0.087402
1248.0	15.081986	-10.098899	2.725135	1.164476	3.260155	3.282033	-0.791504	0.238525	-0.128662
1249.0	16.479809	-11.359757	1.515757	1.672571	2.755834	3.516437	-0.773682	0.277832	-0.165771
1250.0	16.690747	-14.286707	-0.396085	2.507997	2.253243	4.11943	-0.755615	0.319336	-0.209229
1251.0	17.039733	-15.977329	-2.338029	4.225046	1.637842	4.868068	-0.720215	0.358643	-0.244141
1252.0	16.532958	-14.366018	-3.745916	3.187012	1.219482	5.460773	-0.689209	0.397949	-0.278809
1253.0	15.082493	-16.83204	-6.05066	4.430401	0.260115	5.972492	-0.642578	0.430664	-0.298584
1254.0	14.952454	-15.431927	-6.651056	3.284388	-0.419562	6.408745	-0.602539	0.460938	-0.307129
1255.0	14.172799	-15.356488	-7.148463	4.137892	-1.349188	6.547309	-0.564209	0.485107	-0.32251
1256.0	14.497364	-13.215294	-7.329746	2.990062	-1.990865	6.550938	-0.52417	0.515381	-0.329102
1257.0	15.398675	-11.553984	-6.943486	3.076486	-2.554202	6.391192	-0.494141	0.530518	-0.32251
1258.0	16.367924	-8.912037	-7.237777	3.316735	-2.763735	6.08207	-0.462158	0.545654	-0.324707
1259.0	17.814266	-0.910854	-5.396626	3.242931	-3.061046	5.615974	-0.440674	0.554443	-0.318359
1260.0	41.611697	-11.036775	-6.507083	2.23125	-3.363302	3.457923	-0.42749	0.550293	-0.337646
1261.0	18.206037	2.543667	-10.373421	4.58745	-0.115465	1.811787	-0.41626	0.537598	-0.348389
1262.0	29.435045	5.418053	-10.237978	2.347485	-0.65208	0.35408	-0.411621	0.529053	-0.357178
1263.0	26.920766	0.494293	-10.800895	1.307268	0.487141	-0.304881	-0.419678	0.516357	-0.361328
1264.0	25.963025	-13.656292	-14.554493	-1.832339	0.700278	-0.512721	-0.413574	0.524902	-0.35498
1265.0	21.41309	-19.6123	-13.885872	-0.291569	1.392386	-0.590394	-0.408936	0.520508	-0.359131
1266.0	2.689955	-11.937174	3.630348	0.530102	2.640397	-0.389463	-0.402344	0.514404	-0.378662
1267.0	4.475979	8.720523	16.911223	2.580787	1.53654	-1.18939	-0.397217	0.495361	-0.393799
1268.0	4.497563	3.561472	11.82867	2.214648	1.537782	-0.324064	-0.392822	0.493408	-0.411133
1269.0	5.929601	-3.282434	8.747039	1.118377	1.022778	-0.251172	-0.385986	0.482666	-0.413086
1270.0	5.37396	-1.530036	9.73489	-0.042297	0.666535	-0.33505	-0.38623	0.489258	-0.415283
1271.0	5.994042	-1.404304	8.891676	0.146938	0.526967	-0.265302	-0.392334	0.482666	-0.419678
1272.0	5.44359	-1.171582	8.791346	0.481374	0.300046	-0.251344	-0.385742	0.478516	-0.421875
1273.0	5.963505	-0.892437	8.182405	0.170104	0.100337	-0.158203	-0.389893	0.471924	-0.419678
1274.0	6.159681	0.122367	7.996355	0.155371	-0.114437	-0.003267	-0.387939	0.476318	-0.419678
1275.0	6.164647	-0.958932	7.87421	0.136746	-0.15822	-0.033145	-0.392334	0.478516	-0.421875
1276.0	5.983329	-1.292007	8.040338	0.346345	-0.12417	-0.016081	-0.39209	0.472168	-0.426025
1277.0	6.018497	-1.139238	8.191665	0.418273	-0.14329	0.015287	-0.385498	0.472168	-0.424072
1278.0	5.973587	-1.64931	7.829799	0.372265	-0.183729	-0.005781	-0.39209	0.474121	-0.424072
1279.0	6.115658	-1.54838	7.777895	0.281077	-0.167214	0.021297	-0.39209	0.472168	-0.43042
1280.0	6.259728	-0.413042	7.916472	-0.297202	-0.080178	-0.014357	-0.39209	0.472168	-0.424072
1281.0	5.93945	-4.094558	6.869435	0.01505	-0.096378	-0.001427	-0.389893	0.472168	-0.426025
1282.0	5.912024	-1.028258	7.841121	0.557409	-0.109635	-0.046637	-0.394043	0.469971	-0.424072
1283.0	6.168116	-1.189847	7.628795	0.2844	-0.068405	-0.112785	-0.398193	0.463379	-0.421875
1284.0	6.040804	-1.643278	7.623771	0.14654	-0.065417	-0.103447	-0.394043	0.465576	-0.426025
1285.0	6.238744	-0.475797	7.989522	0.156395	-0.02671	-0.109196	-0.398193	0.463379	-0.426025
1286.0	5.806431	-2.31818	7.544153	-0.217565	-0.082548	-0.042898	-0.400635	0.469971	-0.43042
1287.0	6.057739	-0.457227	7.928997	0.612827	-0.13544	-0.075441	-0.398193	0.463623	-0.437012
1288.0	5.749386	1.125409	7.976772	-0.585076	-0.05854	-0.0241	-0.398438	0.467773	-0.426025
1289.0	6.288289	-2.217377	7.752015	1.140985	-0.148616	0.1222	-0.406738	0.461426	-0.43042
1290.0	5.784249	0.916383	8.430139	-0.508246	-0.240922	0.056621	-0.402588	0.461182	-0.426025
1291.0	6.412475	-1.812013	7.559536	0.766038	-0.312734	0.235269	-0.398193	0.461426	-0.43042
1292.0	5.915425	0.895144	8.351997	-0.447101	-0.324412	0.183557	-0.398438	0.467773	-0.428223
1293.0	6.124439	-2.813978	7.663328	0.61252	-0.361599	0.398738	-0.402588	0.463623	-0.43042
1294.0	6.366643	0.748788	8.349418	0.630945	-0.349399	0.472998	-0.398438	0.467773	-0.43042
1295.0	5.618942	-2.205326	7.72028	0.189997	-0.389066	0.805854	-0.389648	0.46582	-0.43042
1296.0	5.885983	1.227396	8.524125	1.549872	-0.447217	1.153455	-0.387451	0.463623	-0.439209
1297.0	5.918489	2.072858	8.817103	1.1012	-0.464044	1.55048	-0.382813	0.459473	-0.437012
1298.0	5.496445	0.475406	8.505671	1.611226	-0.624462	2.087227	-0.374268	0.461914	-0.458496
1299.0	5.342774	1.866607	9.136598	2.222026	-0.734764	2.51486	-0.367676	0.461914	-0.458496
1300.0	5.412156	0.986952	8.936175	2.485328	-0.875146	2.875803	-0.352295	0.457764	-0.465088
1301.0	5.479244	0.763302	8.829354	2.790501	-0.976211	3.174459	-0.345703	0.453613	-0.47583
1302.0	5.619708	0.178745	8.530167	2.849804	-1.054497	3.389523	-0.330566	0.453857	-0.484375
